SpectraSuite Data File
++++++++++++++++++++++++++++++++++++
Date: Fri Oct 25 12:11:26 EDT 2013
User: price-jones
Dark Spectrum Present: No
Reference Spectrum Present: No
Number of Sampled Component Spectra: 1
Spectrometers: USB2+H05261
Integration Time (usec): 100000 (USB2+H05261)
Spectra Averaged: 1 (USB2+H05261)
Boxcar Smoothing: 0 (USB2+H05261)
Correct for Electrical Dark: No (USB2+H05261)
Strobe/Lamp Enabled: No (USB2+H05261)
Correct for Detector Non-linearity: No (USB2+H05261)
Correct for Stray Light: No (USB2+H05261)
Number of Pixels in Processed Spectrum: 2048
>>>>>Begin Processed Spectral Data<<<<<
365.73	376.83
365.92	376.83
366.12	376.83
366.32	262.14
366.52	287.89
366.72	325.33
366.91	304.27
367.11	294.91
367.31	201.29
367.51	159.16
367.70	196.60
367.90	196.60
368.10	222.35
368.30	220.01
368.49	222.35
368.69	266.82
368.89	196.60
369.09	252.78
369.28	311.29
369.48	243.42
369.68	212.99
369.87	315.97
370.07	315.97
370.27	276.18
370.47	311.29
370.66	297.25
370.86	351.08
371.06	409.59
371.25	386.19
371.45	372.15
371.65	437.68
371.84	346.40
372.04	390.87
372.24	407.25
372.44	423.64
372.63	423.64
372.83	351.08
373.03	411.93
373.22	379.17
373.42	381.51
373.62	423.64
373.81	386.19
374.01	465.77
374.21	409.59
374.40	402.57
374.60	379.17
374.79	400.23
374.99	421.30
375.19	433.00
375.38	411.93
375.58	402.57
375.78	369.80
375.97	465.77
376.17	411.93
376.37	475.13
376.56	376.83
376.76	423.64
376.95	369.80
377.15	444.70
377.35	414.27
377.54	423.64
377.74	390.87
377.93	456.40
378.13	386.19
378.33	477.47
378.52	383.85
378.72	376.83
378.91	428.32
379.11	369.80
379.31	425.98
379.50	388.53
379.70	423.64
379.89	442.36
380.09	362.78
380.28	360.44
380.48	386.19
380.68	435.34
380.87	386.19
381.07	421.30
381.26	414.27
381.46	367.46
381.65	351.08
381.85	400.23
382.04	344.06
382.24	416.62
382.43	400.23
382.63	393.21
382.83	390.87
383.02	418.96
383.22	433.00
383.41	374.49
383.61	404.91
383.80	435.34
384.00	355.76
384.19	393.21
384.39	379.17
384.58	390.87
384.78	444.70
384.97	339.38
385.17	461.09
385.36	477.47
385.56	404.91
385.75	416.62
385.95	395.55
386.14	365.12
386.34	397.89
386.53	372.15
386.72	421.30
386.92	437.68
387.11	472.79
387.31	402.57
387.50	444.70
387.70	421.30
387.89	416.62
388.09	334.70
388.28	362.78
388.48	461.09
388.67	428.32
388.86	400.23
389.06	374.49
389.25	348.74
389.45	482.15
389.64	395.55
389.84	425.98
390.03	449.38
390.22	383.85
390.42	341.72
390.61	407.25
390.81	360.44
391.00	449.38
391.19	484.49
391.39	433.00
391.58	449.38
391.78	365.12
391.97	414.27
392.16	358.10
392.36	451.72
392.55	442.36
392.75	437.68
392.94	402.57
393.13	353.42
393.33	472.79
393.52	397.89
393.71	411.93
393.91	458.74
394.10	444.70
394.29	353.42
394.49	416.62
394.68	341.72
394.88	472.79
395.07	388.53
395.26	411.93
395.46	395.55
395.65	435.34
395.84	400.23
396.04	362.78
396.23	423.64
396.42	386.19
396.62	374.49
396.81	456.40
397.00	461.09
397.19	393.21
397.39	372.15
397.58	416.62
397.77	425.98
397.97	355.76
398.16	379.17
398.35	470.45
398.55	372.15
398.74	379.17
398.93	365.12
399.12	449.38
399.32	447.04
399.51	292.57
399.70	404.91
399.90	411.93
400.09	414.27
400.28	423.64
400.47	332.36
400.67	353.42
400.86	437.68
401.05	421.30
401.24	418.96
401.44	409.59
401.63	418.96
401.82	362.78
402.01	400.23
402.21	418.96
402.40	386.19
402.59	411.93
402.78	404.91
402.97	372.15
403.17	416.62
403.36	423.64
403.55	430.66
403.74	383.85
403.93	442.36
404.13	402.57
404.32	353.42
404.51	411.93
404.70	388.53
404.89	395.55
405.09	465.77
405.28	435.34
405.47	381.51
405.66	348.74
405.85	418.96
406.05	404.91
406.24	400.23
406.43	454.06
406.62	407.25
406.81	365.12
407.00	435.34
407.20	418.96
407.39	376.83
407.58	404.91
407.77	409.59
407.96	423.64
408.15	395.55
408.34	433.00
408.54	437.68
408.73	411.93
408.92	433.00
409.11	390.87
409.30	418.96
409.49	404.91
409.68	486.83
409.87	465.77
410.07	360.44
410.26	435.34
410.45	430.66
410.64	374.49
410.83	376.83
411.02	379.17
411.21	472.79
411.40	440.02
411.59	425.98
411.78	451.72
411.98	425.98
412.17	346.40
412.36	353.42
412.55	393.21
412.74	437.68
412.93	383.85
413.12	411.93
413.31	407.25
413.50	421.30
413.69	355.76
413.88	409.59
414.07	425.98
414.26	374.49
414.45	472.79
414.64	367.46
414.83	435.34
415.02	425.98
415.22	353.42
415.41	414.27
415.60	369.80
415.79	393.21
415.98	390.87
416.17	304.27
416.36	390.87
416.55	374.49
416.74	512.58
416.93	393.21
417.12	381.51
417.31	407.25
417.50	388.53
417.69	440.02
417.88	337.04
418.07	456.40
418.26	428.32
418.45	435.34
418.64	461.09
418.83	411.93
419.02	411.93
419.21	390.87
419.39	435.34
419.58	367.46
419.77	423.64
419.96	456.40
420.15	416.62
420.34	411.93
420.53	433.00
420.72	430.66
420.91	433.00
421.10	409.59
421.29	404.91
421.48	442.36
421.67	407.25
421.86	348.74
422.05	409.59
422.24	346.40
422.43	442.36
422.61	463.43
422.80	430.66
422.99	451.72
423.18	330.02
423.37	397.89
423.56	416.62
423.75	447.04
423.94	418.96
424.13	470.45
424.32	348.74
424.50	416.62
424.69	433.00
424.88	411.93
425.07	386.19
425.26	386.19
425.45	372.15
425.64	416.62
425.83	414.27
426.01	400.23
426.20	433.00
426.39	447.04
426.58	430.66
426.77	402.57
426.96	358.10
427.15	379.17
427.33	404.91
427.52	397.89
427.71	463.43
427.90	435.34
428.09	383.85
428.28	479.81
428.46	465.77
428.65	425.98
428.84	381.51
429.03	468.11
429.22	397.89
429.40	351.08
429.59	416.62
429.78	456.40
429.97	334.70
430.16	344.06
430.34	348.74
430.53	423.64
430.72	454.06
430.91	374.49
431.10	374.49
431.28	437.68
431.47	444.70
431.66	425.98
431.85	365.12
432.03	397.89
432.22	428.32
432.41	418.96
432.60	423.64
432.79	411.93
432.97	416.62
433.16	447.04
433.35	451.72
433.54	442.36
433.72	428.32
433.91	414.27
434.10	470.45
434.28	362.78
434.47	421.30
434.66	470.45
434.85	390.87
435.03	444.70
435.22	414.27
435.41	411.93
435.59	388.53
435.78	362.78
435.97	433.00
436.16	409.59
436.34	337.04
436.53	496.19
436.72	402.57
436.90	395.55
437.09	458.74
437.28	423.64
437.46	425.98
437.65	395.55
437.84	465.77
438.02	454.06
438.21	489.17
438.40	437.68
438.58	332.36
438.77	465.77
438.96	418.96
439.14	456.40
439.33	414.27
439.52	416.62
439.70	440.02
439.89	388.53
440.08	428.32
440.26	463.43
440.45	367.46
440.63	418.96
440.82	472.79
441.01	477.47
441.19	423.64
441.38	430.66
441.57	383.85
441.75	423.64
441.94	470.45
442.12	416.62
442.31	383.85
442.50	430.66
442.68	425.98
442.87	402.57
443.05	437.68
443.24	381.51
443.43	339.38
443.61	379.17
443.80	440.02
443.98	421.30
444.17	402.57
444.35	440.02
444.54	388.53
444.73	397.89
444.91	437.68
445.10	414.27
445.28	400.23
445.47	465.77
445.65	388.53
445.84	423.64
446.02	425.98
446.21	395.55
446.39	484.49
446.58	442.36
446.77	395.55
446.95	404.91
447.14	395.55
447.32	451.72
447.51	416.62
447.69	386.19
447.88	372.15
448.06	475.13
448.25	395.55
448.43	430.66
448.62	414.27
448.80	440.02
448.99	395.55
449.17	479.81
449.36	393.21
449.54	400.23
449.73	444.70
449.91	458.74
450.10	423.64
450.28	482.15
450.46	428.32
450.65	428.32
450.83	416.62
451.02	449.38
451.20	444.70
451.39	353.42
451.57	416.62
451.76	440.02
451.94	416.62
452.13	383.85
452.31	402.57
452.49	423.64
452.68	486.83
452.86	388.53
453.05	372.15
453.23	386.19
453.42	372.15
453.60	425.98
453.78	451.72
453.97	376.83
454.15	388.53
454.34	444.70
454.52	355.76
454.70	407.25
454.89	442.36
455.07	451.72
455.26	461.09
455.44	360.44
455.62	383.85
455.81	397.89
455.99	435.34
456.17	393.21
456.36	402.57
456.54	430.66
456.73	437.68
456.91	468.11
457.09	388.53
457.28	465.77
457.46	397.89
457.64	315.97
457.83	402.57
458.01	411.93
458.19	423.64
458.38	491.51
458.56	425.98
458.74	444.70
458.93	456.40
459.11	418.96
459.29	451.72
459.48	425.98
459.66	472.79
459.84	449.38
460.03	519.60
460.21	386.19
460.39	411.93
460.57	454.06
460.76	463.43
460.94	374.49
461.12	393.21
461.31	437.68
461.49	383.85
461.67	358.10
461.85	402.57
462.04	449.38
462.22	732.59
462.40	421.30
462.59	440.02
462.77	362.78
462.95	390.87
463.13	379.17
463.32	414.27
463.50	421.30
463.68	468.11
463.86	472.79
464.05	411.93
464.23	442.36
464.41	409.59
464.59	442.36
464.78	447.04
464.96	442.36
465.14	409.59
465.32	454.06
465.50	423.64
465.69	449.38
465.87	409.59
466.05	400.23
466.23	402.57
466.41	430.66
466.60	482.15
466.78	409.59
466.96	421.30
467.14	444.70
467.32	435.34
467.51	461.09
467.69	465.77
467.87	496.19
468.05	479.81
468.23	493.85
468.41	463.43
468.60	407.25
468.78	433.00
468.96	423.64
469.14	395.55
469.32	383.85
469.50	407.25
469.69	428.32
469.87	425.98
470.05	458.74
470.23	379.17
470.41	404.91
470.59	430.66
470.77	365.12
470.95	435.34
471.14	538.32
471.32	390.87
471.50	409.59
471.68	425.98
471.86	451.72
472.04	400.23
472.22	414.27
472.40	381.51
472.58	409.59
472.77	425.98
472.95	402.57
473.13	425.98
473.31	409.59
473.49	344.06
473.67	369.80
473.85	421.30
474.03	444.70
474.21	383.85
474.39	454.06
474.57	498.53
474.75	421.30
474.93	409.59
475.12	397.89
475.30	451.72
475.48	458.74
475.66	390.87
475.84	444.70
476.02	351.08
476.20	430.66
476.38	416.62
476.56	475.13
476.74	409.59
476.92	425.98
477.10	428.32
477.28	454.06
477.46	430.66
477.64	447.04
477.82	416.62
478.00	386.19
478.18	442.36
478.36	465.77
478.54	423.64
478.72	369.80
478.90	376.83
479.08	442.36
479.26	465.77
479.44	496.19
479.62	449.38
479.80	423.64
479.98	468.11
480.16	372.15
480.34	489.17
480.52	383.85
480.70	447.04
480.88	393.21
481.06	465.77
481.24	390.87
481.41	414.27
481.59	461.09
481.77	397.89
481.95	386.19
482.13	514.92
482.31	404.91
482.49	388.53
482.67	491.51
482.85	341.72
483.03	355.76
483.21	393.21
483.39	416.62
483.57	395.55
483.74	528.96
483.92	409.59
484.10	409.59
484.28	510.24
484.46	454.06
484.64	383.85
484.82	416.62
485.00	430.66
485.18	444.70
485.35	468.11
485.53	414.27
485.71	484.49
485.89	430.66
486.07	421.30
486.25	465.77
486.43	463.43
486.61	498.53
486.78	397.89
486.96	482.15
487.14	365.12
487.32	440.02
487.50	386.19
487.68	421.30
487.85	344.06
488.03	414.27
488.21	423.64
488.39	390.87
488.57	374.49
488.75	414.27
488.92	500.87
489.10	437.68
489.28	409.59
489.46	447.04
489.64	435.34
489.81	397.89
489.99	414.27
490.17	449.38
490.35	519.60
490.53	433.00
490.70	397.89
490.88	444.70
491.06	409.59
491.24	475.13
491.41	381.51
491.59	465.77
491.77	416.62
491.95	402.57
492.13	475.13
492.30	383.85
492.48	449.38
492.66	435.34
492.84	409.59
493.01	400.23
493.19	409.59
493.37	428.32
493.54	489.17
493.72	444.70
493.90	395.55
494.08	360.44
494.25	463.43
494.43	468.11
494.61	428.32
494.79	425.98
494.96	400.23
495.14	428.32
495.32	447.04
495.49	397.89
495.67	430.66
495.85	421.30
496.02	386.19
496.20	456.40
496.38	428.32
496.55	428.32
496.73	383.85
496.91	425.98
497.09	433.00
497.26	470.45
497.44	421.30
497.62	428.32
497.79	376.83
497.97	486.83
498.14	397.89
498.32	423.64
498.50	456.40
498.67	337.04
498.85	472.79
499.03	383.85
499.20	409.59
499.38	397.89
499.56	358.10
499.73	449.38
499.91	404.91
500.08	400.23
500.26	407.25
500.44	458.74
500.61	390.87
500.79	414.27
500.97	353.42
501.14	440.02
501.32	440.02
501.49	451.72
501.67	334.70
501.84	479.81
502.02	409.59
502.20	418.96
502.37	376.83
502.55	372.15
502.72	482.15
502.90	388.53
503.07	351.08
503.25	437.68
503.43	463.43
503.60	447.04
503.78	393.21
503.95	395.55
504.13	369.80
504.30	404.91
504.48	503.22
504.65	386.19
504.83	411.93
505.01	381.51
505.18	400.23
505.36	451.72
505.53	402.57
505.71	404.91
505.88	437.68
506.06	435.34
506.23	425.98
506.41	355.76
506.58	458.74
506.76	376.83
506.93	404.91
507.11	465.77
507.28	397.89
507.46	404.91
507.63	386.19
507.81	421.30
507.98	416.62
508.16	362.78
508.33	470.45
508.50	470.45
508.68	430.66
508.85	372.15
509.03	381.51
509.20	381.51
509.38	442.36
509.55	440.02
509.73	362.78
509.90	447.04
510.08	397.89
510.25	404.91
510.42	386.19
510.60	390.87
510.77	465.77
510.95	449.38
511.12	404.91
511.30	456.40
511.47	404.91
511.64	482.15
511.82	440.02
511.99	395.55
512.17	395.55
512.34	400.23
512.51	409.59
512.69	437.68
512.86	470.45
513.04	409.59
513.21	390.87
513.38	411.93
513.56	383.85
513.73	444.70
513.90	400.23
514.08	437.68
514.25	463.43
514.43	526.62
514.60	421.30
514.77	395.55
514.95	421.30
515.12	393.21
515.29	379.17
515.47	407.25
515.64	411.93
515.81	381.51
515.99	428.32
516.16	416.62
516.33	447.04
516.51	416.62
516.68	409.59
516.85	423.64
517.03	416.62
517.20	440.02
517.37	386.19
517.54	365.12
517.72	404.91
517.89	360.44
518.06	390.87
518.24	491.51
518.41	477.47
518.58	383.85
518.75	397.89
518.93	421.30
519.10	461.09
519.27	386.19
519.45	447.04
519.62	449.38
519.79	367.46
519.96	433.00
520.14	411.93
520.31	393.21
520.48	411.93
520.65	362.78
520.83	435.34
521.00	425.98
521.17	461.09
521.34	404.91
521.52	381.51
521.69	425.98
521.86	411.93
522.03	411.93
522.20	428.32
522.38	454.06
522.55	442.36
522.72	388.53
522.89	421.30
523.07	414.27
523.24	461.09
523.41	348.74
523.58	390.87
523.75	409.59
523.92	423.64
524.10	404.91
524.27	421.30
524.44	404.91
524.61	390.87
524.78	442.36
524.96	437.68
525.13	386.19
525.30	379.17
525.47	425.98
525.64	433.00
525.81	482.15
525.98	440.02
526.16	386.19
526.33	372.15
526.50	400.23
526.67	418.96
526.84	484.49
527.01	362.78
527.18	381.51
527.36	404.91
527.53	416.62
527.70	468.11
527.87	475.13
528.04	454.06
528.21	458.74
528.38	360.44
528.55	503.22
528.72	341.72
528.89	437.68
529.07	444.70
529.24	395.55
529.41	458.74
529.58	451.72
529.75	430.66
529.92	458.74
530.09	461.09
530.26	456.40
530.43	447.04
530.60	400.23
530.77	416.62
530.94	449.38
531.11	458.74
531.28	437.68
531.46	440.02
531.63	379.17
531.80	430.66
531.97	388.53
532.14	367.46
532.31	425.98
532.48	414.27
532.65	402.57
532.82	383.85
532.99	430.66
533.16	425.98
533.33	421.30
533.50	418.96
533.67	409.59
533.84	425.98
534.01	435.34
534.18	416.62
534.35	472.79
534.52	372.15
534.69	416.62
534.86	407.25
535.03	414.27
535.20	423.64
535.37	444.70
535.54	433.00
535.71	482.15
535.88	437.68
536.05	454.06
536.22	491.51
536.38	409.59
536.55	402.57
536.72	402.57
536.89	383.85
537.06	386.19
537.23	362.78
537.40	322.99
537.57	435.34
537.74	500.87
537.91	400.23
538.08	444.70
538.25	451.72
538.42	416.62
538.59	458.74
538.75	447.04
538.92	449.38
539.09	421.30
539.26	351.08
539.43	430.66
539.60	428.32
539.77	468.11
539.94	409.59
540.11	423.64
540.28	381.51
540.44	416.62
540.61	404.91
540.78	430.66
540.95	393.21
541.12	500.87
541.29	404.91
541.46	440.02
541.62	409.59
541.79	395.55
541.96	442.36
542.13	418.96
542.30	416.62
542.47	442.36
542.63	409.59
542.80	397.89
542.97	456.40
543.14	454.06
543.31	374.49
543.48	414.27
543.64	423.64
543.81	437.68
543.98	369.80
544.15	346.40
544.32	390.87
544.48	423.64
544.65	423.64
544.82	463.43
544.99	451.72
545.16	435.34
545.32	395.55
545.49	404.91
545.66	393.21
545.83	458.74
546.00	444.70
546.16	444.70
546.33	421.30
546.50	430.66
546.67	449.38
546.83	411.93
547.00	418.96
547.17	425.98
547.34	447.04
547.50	491.51
547.67	390.87
547.84	465.77
548.00	493.85
548.17	397.89
548.34	402.57
548.51	505.56
548.67	451.72
548.84	416.62
549.01	428.32
549.18	407.25
549.34	407.25
549.51	395.55
549.68	425.98
549.84	383.85
550.01	440.02
550.18	472.79
550.34	470.45
550.51	451.72
550.68	507.90
550.84	433.00
551.01	510.24
551.18	461.09
551.34	477.47
551.51	423.64
551.68	435.34
551.84	463.43
552.01	393.21
552.18	407.25
552.34	447.04
552.51	386.19
552.68	435.34
552.84	381.51
553.01	393.21
553.18	458.74
553.34	421.30
553.51	451.72
553.67	489.17
553.84	372.15
554.01	409.59
554.17	444.70
554.34	341.72
554.51	383.85
554.67	524.28
554.84	374.49
555.00	388.53
555.17	358.10
555.33	411.93
555.50	355.76
555.67	428.32
555.83	444.70
556.00	430.66
556.16	500.87
556.33	433.00
556.50	423.64
556.66	449.38
556.83	369.80
556.99	381.51
557.16	397.89
557.32	330.02
557.49	379.17
557.65	454.06
557.82	390.87
557.98	362.78
558.15	477.47
558.32	440.02
558.48	477.47
558.65	388.53
558.81	409.59
558.98	482.15
559.14	491.51
559.31	461.09
559.47	456.40
559.64	369.80
559.80	425.98
559.97	416.62
560.13	400.23
560.30	500.87
560.46	404.91
560.63	425.98
560.79	463.43
560.96	435.34
561.12	411.93
561.29	379.17
561.45	425.98
561.61	397.89
561.78	458.74
561.94	442.36
562.11	456.40
562.27	486.83
562.44	503.22
562.60	404.91
562.77	421.30
562.93	458.74
563.10	461.09
563.26	416.62
563.42	393.21
563.59	454.06
563.75	482.15
563.92	449.38
564.08	449.38
564.24	416.62
564.41	414.27
564.57	430.66
564.74	428.32
564.90	372.15
565.07	449.38
565.23	430.66
565.39	451.72
565.56	395.55
565.72	430.66
565.88	390.87
566.05	433.00
566.21	468.11
566.38	456.40
566.54	411.93
566.70	486.83
566.87	442.36
567.03	482.15
567.19	418.96
567.36	418.96
567.52	386.19
567.68	362.78
567.85	404.91
568.01	393.21
568.17	374.49
568.34	421.30
568.50	386.19
568.66	344.06
568.83	458.74
568.99	395.55
569.15	355.76
569.32	428.32
569.48	404.91
569.64	423.64
569.81	428.32
569.97	334.70
570.13	409.59
570.30	379.17
570.46	433.00
570.62	470.45
570.78	404.91
570.95	435.34
571.11	503.22
571.27	484.49
571.43	388.53
571.60	465.77
571.76	416.62
571.92	411.93
572.09	465.77
572.25	430.66
572.41	369.80
572.57	433.00
572.74	456.40
572.90	411.93
573.06	374.49
573.22	388.53
573.38	414.27
573.55	458.74
573.71	400.23
573.87	374.49
574.03	433.00
574.20	433.00
574.36	388.53
574.52	397.89
574.68	383.85
574.84	409.59
575.01	404.91
575.17	418.96
575.33	477.47
575.49	496.19
575.65	440.02
575.82	444.70
575.98	416.62
576.14	425.98
576.30	465.77
576.46	449.38
576.62	437.68
576.79	465.77
576.95	498.53
577.11	327.68
577.27	395.55
577.43	402.57
577.59	468.11
577.75	475.13
577.92	421.30
578.08	397.89
578.24	430.66
578.40	449.38
578.56	484.49
578.72	402.57
578.88	470.45
579.04	440.02
579.21	390.87
579.37	355.76
579.53	411.93
579.69	397.89
579.85	465.77
580.01	456.40
580.17	372.15
580.33	423.64
580.49	454.06
580.65	423.64
580.82	386.19
580.98	423.64
581.14	449.38
581.30	442.36
581.46	362.78
581.62	400.23
581.78	421.30
581.94	397.89
582.10	402.57
582.26	477.47
582.42	463.43
582.58	395.55
582.74	442.36
582.90	425.98
583.06	470.45
583.22	360.44
583.38	414.27
583.54	397.89
583.70	390.87
583.86	404.91
584.02	503.22
584.18	493.85
584.34	407.25
584.50	444.70
584.66	428.32
584.82	433.00
584.98	423.64
585.14	374.49
585.30	416.62
585.46	447.04
585.62	400.23
585.78	388.53
585.94	482.15
586.10	301.93
586.26	379.17
586.42	444.70
586.58	456.40
586.74	393.21
586.90	442.36
587.06	388.53
587.22	409.59
587.38	395.55
587.54	428.32
587.70	458.74
587.86	355.76
588.02	486.83
588.18	416.62
588.34	327.68
588.49	374.49
588.65	390.87
588.81	411.93
588.97	407.25
589.13	379.17
589.29	454.06
589.45	360.44
589.61	447.04
589.77	482.15
589.93	440.02
590.08	456.40
590.24	440.02
590.40	407.25
590.56	416.62
590.72	463.43
590.88	367.46
591.04	440.02
591.20	393.21
591.35	477.47
591.51	484.49
591.67	468.11
591.83	482.15
591.99	409.59
592.15	440.02
592.31	472.79
592.46	442.36
592.62	379.17
592.78	486.83
592.94	395.55
593.10	442.36
593.26	346.40
593.41	468.11
593.57	416.62
593.73	421.30
593.89	435.34
594.05	447.04
594.20	409.59
594.36	402.57
594.52	397.89
594.68	468.11
594.84	416.62
594.99	414.27
595.15	454.06
595.31	414.27
595.47	451.72
595.62	423.64
595.78	423.64
595.94	362.78
596.10	545.34
596.25	423.64
596.41	451.72
596.57	400.23
596.73	472.79
596.88	390.87
597.04	477.47
597.20	404.91
597.36	376.83
597.51	444.70
597.67	468.11
597.83	435.34
597.99	395.55
598.14	451.72
598.30	330.02
598.46	475.13
598.61	451.72
598.77	449.38
598.93	372.15
599.09	433.00
599.24	454.06
599.40	430.66
599.56	442.36
599.71	325.33
599.87	409.59
600.03	411.93
600.18	390.87
600.34	472.79
600.50	470.45
600.65	433.00
600.81	418.96
600.97	421.30
601.12	440.02
601.28	393.21
601.44	433.00
601.59	463.43
601.75	407.25
601.91	421.30
602.06	470.45
602.22	456.40
602.37	442.36
602.53	454.06
602.69	437.68
602.84	404.91
603.00	397.89
603.16	390.87
603.31	447.04
603.47	463.43
603.62	411.93
603.78	395.55
603.94	456.40
604.09	477.47
604.25	390.87
604.40	425.98
604.56	414.27
604.71	411.93
604.87	341.72
605.03	388.53
605.18	407.25
605.34	470.45
605.49	433.00
605.65	437.68
605.80	416.62
605.96	388.53
606.12	397.89
606.27	355.76
606.43	479.81
606.58	416.62
606.74	386.19
606.89	411.93
607.05	475.13
607.20	444.70
607.36	472.79
607.51	390.87
607.67	386.19
607.82	374.49
607.98	458.74
608.13	414.27
608.29	374.49
608.44	379.17
608.60	383.85
608.75	437.68
608.91	491.51
609.06	468.11
609.22	484.49
609.37	482.15
609.53	437.68
609.68	411.93
609.84	416.62
609.99	379.17
610.15	447.04
610.30	386.19
610.46	524.28
610.61	386.19
610.76	416.62
610.92	404.91
611.07	395.55
611.23	465.77
611.38	475.13
611.54	454.06
611.69	437.68
611.84	444.70
612.00	433.00
612.15	433.00
612.31	421.30
612.46	418.96
612.62	325.33
612.77	409.59
612.92	407.25
613.08	479.81
613.23	451.72
613.39	379.17
613.54	449.38
613.69	468.11
613.85	360.44
614.00	320.65
614.15	383.85
614.31	414.27
614.46	489.17
614.62	423.64
614.77	447.04
614.92	388.53
615.08	393.21
615.23	365.12
615.38	423.64
615.54	374.49
615.69	379.17
615.84	372.15
616.00	447.04
616.15	447.04
616.30	390.87
616.46	468.11
616.61	468.11
616.76	421.30
616.92	404.91
617.07	395.55
617.22	435.34
617.37	388.53
617.53	409.59
617.68	400.23
617.83	435.34
617.99	423.64
618.14	489.17
618.29	468.11
618.45	454.06
618.60	447.04
618.75	414.27
618.90	348.74
619.06	447.04
619.21	458.74
619.36	430.66
619.51	381.51
619.67	346.40
619.82	372.15
619.97	313.63
620.12	444.70
620.28	442.36
620.43	484.49
620.58	444.70
620.73	409.59
620.89	500.87
621.04	369.80
621.19	444.70
621.34	465.77
621.49	390.87
621.65	404.91
621.80	393.21
621.95	430.66
622.10	465.77
622.25	407.25
622.41	346.40
622.56	358.10
622.71	456.40
622.86	414.27
623.01	416.62
623.16	461.09
623.32	393.21
623.47	421.30
623.62	374.49
623.77	395.55
623.92	414.27
624.07	491.51
624.23	433.00
624.38	308.95
624.53	449.38
624.68	390.87
624.83	479.81
624.98	433.00
625.13	442.36
625.29	430.66
625.44	411.93
625.59	447.04
625.74	470.45
625.89	418.96
626.04	386.19
626.19	402.57
626.34	456.40
626.49	463.43
626.65	339.38
626.80	372.15
626.95	472.79
627.10	444.70
627.25	360.44
627.40	341.72
627.55	411.93
627.70	374.49
627.85	430.66
628.00	400.23
628.15	437.68
628.30	362.78
628.45	479.81
628.60	379.17
628.76	395.55
628.91	440.02
629.06	470.45
629.21	421.30
629.36	489.17
629.51	444.70
629.66	376.83
629.81	440.02
629.96	421.30
630.11	435.34
630.26	447.04
630.41	390.87
630.56	395.55
630.71	451.72
630.86	400.23
631.01	393.21
631.16	334.70
631.31	430.66
631.46	444.70
631.61	505.56
631.76	383.85
631.91	400.23
632.06	486.83
632.21	421.30
632.36	491.51
632.51	421.30
632.66	414.27
632.81	409.59
632.96	456.40
633.10	393.21
633.25	418.96
633.40	451.72
633.55	531.30
633.70	447.04
633.85	430.66
634.00	430.66
634.15	395.55
634.30	503.22
634.45	395.55
634.60	393.21
634.75	433.00
634.90	386.19
635.05	456.40
635.19	306.61
635.34	442.36
635.49	407.25
635.64	423.64
635.79	454.06
635.94	442.36
636.09	437.68
636.24	425.98
636.39	372.15
636.53	425.98
636.68	376.83
636.83	430.66
636.98	388.53
637.13	458.74
637.28	416.62
637.43	493.85
637.57	461.09
637.72	400.23
637.87	358.10
638.02	425.98
638.17	348.74
638.32	449.38
638.46	416.62
638.61	465.77
638.76	496.19
638.91	374.49
639.06	386.19
639.20	414.27
639.35	454.06
639.50	365.12
639.65	454.06
639.80	397.89
639.94	461.09
640.09	435.34
640.24	442.36
640.39	435.34
640.54	461.09
640.68	454.06
640.83	409.59
640.98	433.00
641.13	383.85
641.27	404.91
641.42	456.40
641.57	430.66
641.72	369.80
641.86	346.40
642.01	358.10
642.16	428.32
642.31	400.23
642.45	440.02
642.60	458.74
642.75	358.10
642.90	465.77
643.04	484.49
643.19	390.87
643.34	402.57
643.48	400.23
643.63	505.56
643.78	528.96
643.93	449.38
644.07	388.53
644.22	444.70
644.37	447.04
644.51	444.70
644.66	425.98
644.81	400.23
644.95	449.38
645.10	388.53
645.25	411.93
645.39	430.66
645.54	468.11
645.69	407.25
645.83	423.64
645.98	397.89
646.13	435.34
646.27	449.38
646.42	440.02
646.57	456.40
646.71	484.49
646.86	367.46
647.00	479.81
647.15	388.53
647.30	425.98
647.44	430.66
647.59	414.27
647.74	411.93
647.88	451.72
648.03	423.64
648.17	430.66
648.32	346.40
648.47	451.72
648.61	512.58
648.76	402.57
648.90	404.91
649.05	486.83
649.20	414.27
649.34	397.89
649.49	440.02
649.63	414.27
649.78	393.21
649.92	358.10
650.07	416.62
650.21	374.49
650.36	477.47
650.51	397.89
650.65	418.96
650.80	397.89
650.94	346.40
651.09	414.27
651.23	440.02
651.38	409.59
651.52	407.25
651.67	404.91
651.81	402.57
651.96	444.70
652.10	418.96
652.25	379.17
652.39	404.91
652.54	428.32
652.68	477.47
652.83	430.66
652.97	362.78
653.12	397.89
653.26	454.06
653.41	463.43
653.55	383.85
653.70	379.17
653.84	386.19
653.99	425.98
654.13	423.64
654.27	411.93
654.42	444.70
654.56	400.23
654.71	482.15
654.85	383.85
655.00	386.19
655.14	440.02
655.29	376.83
655.43	437.68
655.57	372.15
655.72	435.34
655.86	423.64
656.01	458.74
656.15	386.19
656.30	430.66
656.44	397.89
656.58	454.06
656.73	468.11
656.87	395.55
657.01	444.70
657.16	461.09
657.30	411.93
657.45	428.32
657.59	451.72
657.73	376.83
657.88	337.04
658.02	451.72
658.16	400.23
658.31	386.19
658.45	402.57
658.60	388.53
658.74	440.02
658.88	395.55
659.03	463.43
659.17	461.09
659.31	416.62
659.46	482.15
659.60	421.30
659.74	447.04
659.89	430.66
660.03	395.55
660.17	425.98
660.32	456.40
660.46	414.27
660.60	404.91
660.74	507.90
660.89	435.34
661.03	454.06
661.17	360.44
661.32	393.21
661.46	435.34
661.60	433.00
661.74	491.51
661.89	428.32
662.03	402.57
662.17	407.25
662.31	407.25
662.46	472.79
662.60	404.91
662.74	397.89
662.88	409.59
663.03	416.62
663.17	409.59
663.31	423.64
663.45	447.04
663.60	393.21
663.74	395.55
663.88	390.87
664.02	440.02
664.17	433.00
664.31	395.55
664.45	301.93
664.59	322.99
664.73	395.55
664.88	444.70
665.02	454.06
665.16	482.15
665.30	489.17
665.44	503.22
665.59	397.89
665.73	379.17
665.87	376.83
666.01	442.36
666.15	388.53
666.29	449.38
666.44	400.23
666.58	463.43
666.72	442.36
666.86	442.36
667.00	437.68
667.14	454.06
667.28	376.83
667.43	444.70
667.57	484.49
667.71	339.38
667.85	400.23
667.99	433.00
668.13	425.98
668.27	454.06
668.41	461.09
668.56	411.93
668.70	454.06
668.84	379.17
668.98	440.02
669.12	456.40
669.26	447.04
669.40	468.11
669.54	430.66
669.68	468.11
669.82	411.93
669.96	461.09
670.10	411.93
670.25	390.87
670.39	397.89
670.53	351.08
670.67	454.06
670.81	411.93
670.95	468.11
671.09	376.83
671.23	477.47
671.37	395.55
671.51	414.27
671.65	407.25
671.79	428.32
671.93	477.47
672.07	402.57
672.21	386.19
672.35	346.40
672.49	393.21
672.63	454.06
672.77	407.25
672.91	449.38
673.05	447.04
673.19	365.12
673.33	379.17
673.47	390.87
673.61	388.53
673.75	421.30
673.89	379.17
674.03	428.32
674.17	393.21
674.31	437.68
674.45	479.81
674.59	423.64
674.73	500.87
674.87	514.92
675.01	451.72
675.15	425.98
675.29	337.04
675.43	362.78
675.56	414.27
675.70	425.98
675.84	395.55
675.98	421.30
676.12	414.27
676.26	402.57
676.40	383.85
676.54	393.21
676.68	428.32
676.82	395.55
676.96	451.72
677.10	414.27
677.23	418.96
677.37	367.46
677.51	496.19
677.65	524.28
677.79	393.21
677.93	386.19
678.07	393.21
678.21	402.57
678.34	379.17
678.48	367.46
678.62	454.06
678.76	433.00
678.90	451.72
679.04	421.30
679.18	355.76
679.31	458.74
679.45	442.36
679.59	367.46
679.73	435.34
679.87	369.80
680.00	390.87
680.14	435.34
680.28	416.62
680.42	468.11
680.56	496.19
680.70	447.04
680.83	388.53
680.97	379.17
681.11	383.85
681.25	442.36
681.39	379.17
681.52	428.32
681.66	400.23
681.80	447.04
681.94	407.25
682.07	491.51
682.21	461.09
682.35	435.34
682.49	358.10
682.62	400.23
682.76	430.66
682.90	390.87
683.04	435.34
683.17	454.06
683.31	465.77
683.45	423.64
683.59	484.49
683.72	409.59
683.86	379.17
684.00	318.31
684.13	484.49
684.27	374.49
684.41	475.13
684.55	402.57
684.68	479.81
684.82	437.68
684.96	442.36
685.09	451.72
685.23	376.83
685.37	383.85
685.50	409.59
685.64	440.02
685.78	428.32
685.91	400.23
686.05	458.74
686.19	348.74
686.32	402.57
686.46	404.91
686.60	395.55
686.73	498.53
686.87	381.51
687.01	390.87
687.14	430.66
687.28	409.59
687.42	428.32
687.55	402.57
687.69	428.32
687.82	397.89
687.96	428.32
688.10	477.47
688.23	407.25
688.37	470.45
688.50	437.68
688.64	397.89
688.78	388.53
688.91	374.49
689.05	430.66
689.18	367.46
689.32	444.70
689.46	386.19
689.59	425.98
689.73	477.47
689.86	414.27
690.00	374.49
690.13	454.06
690.27	447.04
690.41	435.34
690.54	442.36
690.68	397.89
690.81	447.04
690.95	411.93
691.08	376.83
691.22	437.68
691.35	409.59
691.49	390.87
691.62	411.93
691.76	435.34
691.89	409.59
692.03	397.89
692.16	388.53
692.30	475.13
692.43	351.08
692.57	435.34
692.70	365.12
692.84	463.43
692.97	463.43
693.11	404.91
693.24	400.23
693.38	444.70
693.51	409.59
693.65	367.46
693.78	372.15
693.92	423.64
694.05	414.27
694.19	395.55
694.32	447.04
694.45	362.78
694.59	367.46
694.72	437.68
694.86	390.87
694.99	365.12
695.13	437.68
695.26	423.64
695.39	400.23
695.53	479.81
695.66	423.64
695.80	449.38
695.93	442.36
696.07	423.64
696.20	440.02
696.33	435.34
696.47	425.98
696.60	465.77
696.73	393.21
696.87	383.85
697.00	545.34
697.14	444.70
697.27	376.83
697.40	482.15
697.54	383.85
697.67	437.68
697.80	470.45
697.94	418.96
698.07	365.12
698.21	430.66
698.34	435.34
698.47	355.76
698.61	400.23
698.74	428.32
698.87	383.85
699.01	395.55
699.14	346.40
699.27	414.27
699.40	470.45
699.54	425.98
699.67	440.02
699.80	360.44
699.94	465.77
700.07	423.64
700.20	369.80
700.34	376.83
700.47	388.53
700.60	416.62
700.73	465.77
700.87	414.27
701.00	425.98
701.13	388.53
701.26	463.43
701.40	451.72
701.53	372.15
701.66	435.34
701.79	407.25
701.93	503.22
702.06	465.77
702.19	358.10
702.32	376.83
702.46	404.91
702.59	454.06
702.72	358.10
702.85	402.57
702.99	393.21
703.12	468.11
703.25	489.17
703.38	369.80
703.51	388.53
703.65	435.34
703.78	461.09
703.91	493.85
704.04	510.24
704.17	421.30
704.31	423.64
704.44	477.47
704.57	411.93
704.70	416.62
704.83	400.23
704.96	407.25
705.10	470.45
705.23	330.02
>>>>>End Processed Spectral Data<<<<<
