SpectraSuite Data File
++++++++++++++++++++++++++++++++++++
Date: Fri Oct 25 12:11:10 EDT 2013
User: price-jones
Dark Spectrum Present: No
Reference Spectrum Present: No
Number of Sampled Component Spectra: 1
Spectrometers: USB2+H05261
Integration Time (usec): 100000 (USB2+H05261)
Spectra Averaged: 1 (USB2+H05261)
Boxcar Smoothing: 0 (USB2+H05261)
Correct for Electrical Dark: No (USB2+H05261)
Strobe/Lamp Enabled: No (USB2+H05261)
Correct for Detector Non-linearity: No (USB2+H05261)
Correct for Stray Light: No (USB2+H05261)
Number of Pixels in Processed Spectrum: 2048
>>>>>Begin Processed Spectral Data<<<<<
365.73	341.72
365.92	341.72
366.12	341.72
366.32	301.93
366.52	266.82
366.72	224.69
366.91	203.63
367.11	257.46
367.31	273.84
367.51	250.44
367.70	229.37
367.90	271.50
368.10	266.82
368.30	241.08
368.49	269.16
368.69	203.63
368.89	224.69
369.09	220.01
369.28	322.99
369.48	224.69
369.68	308.95
369.87	262.14
370.07	299.59
370.27	388.53
370.47	318.31
370.66	353.42
370.86	311.29
371.06	294.91
371.25	379.17
371.45	337.04
371.65	306.61
371.84	374.49
372.04	339.38
372.24	341.72
372.44	379.17
372.63	348.74
372.83	409.59
373.03	418.96
373.22	482.15
373.42	351.08
373.62	418.96
373.81	388.53
374.01	411.93
374.21	393.21
374.40	472.79
374.60	477.47
374.79	423.64
374.99	376.83
375.19	372.15
375.38	379.17
375.58	454.06
375.78	472.79
375.97	433.00
376.17	397.89
376.37	440.02
376.56	416.62
376.76	362.78
376.95	430.66
377.15	379.17
377.35	362.78
377.54	430.66
377.74	449.38
377.93	367.46
378.13	393.21
378.33	418.96
378.52	437.68
378.72	393.21
378.91	418.96
379.11	353.42
379.31	348.74
379.50	360.44
379.70	407.25
379.89	344.06
380.09	440.02
380.28	374.49
380.48	358.10
380.68	353.42
380.87	402.57
381.07	433.00
381.26	400.23
381.46	428.32
381.65	442.36
381.85	433.00
382.04	418.96
382.24	383.85
382.43	395.55
382.63	421.30
382.83	411.93
383.02	402.57
383.22	442.36
383.41	358.10
383.61	374.49
383.80	428.32
384.00	409.59
384.19	416.62
384.39	404.91
384.58	381.51
384.78	477.47
384.97	397.89
385.17	353.42
385.36	440.02
385.56	451.72
385.75	409.59
385.95	414.27
386.14	397.89
386.34	367.46
386.53	465.77
386.72	444.70
386.92	376.83
387.11	411.93
387.31	390.87
387.50	341.72
387.70	306.61
387.89	414.27
388.09	360.44
388.28	339.38
388.48	400.23
388.67	383.85
388.86	468.11
389.06	407.25
389.25	395.55
389.45	407.25
389.64	393.21
389.84	435.34
390.03	451.72
390.22	421.30
390.42	447.04
390.61	306.61
390.81	339.38
391.00	358.10
391.19	386.19
391.39	430.66
391.58	397.89
391.78	437.68
391.97	372.15
392.16	430.66
392.36	454.06
392.55	477.47
392.75	435.34
392.94	421.30
393.13	433.00
393.33	397.89
393.52	482.15
393.71	435.34
393.91	374.49
394.10	510.24
394.29	372.15
394.49	372.15
394.68	444.70
394.88	411.93
395.07	423.64
395.26	442.36
395.46	376.83
395.65	442.36
395.84	383.85
396.04	404.91
396.23	397.89
396.42	360.44
396.62	418.96
396.81	376.83
397.00	397.89
397.19	400.23
397.39	381.51
397.58	437.68
397.77	407.25
397.97	390.87
398.16	402.57
398.35	369.80
398.55	330.02
398.74	379.17
398.93	442.36
399.12	428.32
399.32	433.00
399.51	425.98
399.70	374.49
399.90	397.89
400.09	393.21
400.28	411.93
400.47	379.17
400.67	423.64
400.86	388.53
401.05	416.62
401.24	423.64
401.44	444.70
401.63	393.21
401.82	414.27
402.01	414.27
402.21	423.64
402.40	294.91
402.59	505.56
402.78	465.77
402.97	365.12
403.17	435.34
403.36	411.93
403.55	393.21
403.74	393.21
403.93	411.93
404.13	388.53
404.32	423.64
404.51	475.13
404.70	372.15
404.89	339.38
405.09	491.51
405.28	407.25
405.47	411.93
405.66	425.98
405.85	454.06
406.05	465.77
406.24	397.89
406.43	367.46
406.62	407.25
406.81	435.34
407.00	428.32
407.20	425.98
407.39	444.70
407.58	365.12
407.77	463.43
407.96	430.66
408.15	428.32
408.34	444.70
408.54	447.04
408.73	386.19
408.92	433.00
409.11	369.80
409.30	454.06
409.49	423.64
409.68	449.38
409.87	411.93
410.07	418.96
410.26	367.46
410.45	379.17
410.64	365.12
410.83	425.98
411.02	486.83
411.21	444.70
411.40	463.43
411.59	383.85
411.78	433.00
411.98	365.12
412.17	430.66
412.36	409.59
412.55	463.43
412.74	351.08
412.93	447.04
413.12	393.21
413.31	369.80
413.50	428.32
413.69	355.76
413.88	440.02
414.07	383.85
414.26	386.19
414.45	444.70
414.64	379.17
414.83	393.21
415.02	486.83
415.22	447.04
415.41	430.66
415.60	423.64
415.79	456.40
415.98	444.70
416.17	444.70
416.36	411.93
416.55	372.15
416.74	468.11
416.93	430.66
417.12	482.15
417.31	435.34
417.50	444.70
417.69	442.36
417.88	472.79
418.07	402.57
418.26	386.19
418.45	348.74
418.64	444.70
418.83	376.83
419.02	414.27
419.21	318.31
419.39	444.70
419.58	383.85
419.77	362.78
419.96	407.25
420.15	437.68
420.34	421.30
420.53	332.36
420.72	407.25
420.91	390.87
421.10	351.08
421.29	423.64
421.48	407.25
421.67	400.23
421.86	369.80
422.05	421.30
422.24	404.91
422.43	456.40
422.61	369.80
422.80	418.96
422.99	344.06
423.18	409.59
423.37	454.06
423.56	433.00
423.75	374.49
423.94	407.25
424.13	472.79
424.32	348.74
424.50	400.23
424.69	376.83
424.88	423.64
425.07	461.09
425.26	442.36
425.45	393.21
425.64	428.32
425.83	404.91
426.01	435.34
426.20	409.59
426.39	397.89
426.58	444.70
426.77	372.15
426.96	407.25
427.15	433.00
427.33	430.66
427.52	414.27
427.71	379.17
427.90	365.12
428.09	416.62
428.28	360.44
428.46	514.92
428.65	365.12
428.84	404.91
429.03	428.32
429.22	402.57
429.40	430.66
429.59	430.66
429.78	425.98
429.97	416.62
430.16	425.98
430.34	435.34
430.53	376.83
430.72	407.25
430.91	416.62
431.10	428.32
431.28	367.46
431.47	386.19
431.66	409.59
431.85	444.70
432.03	423.64
432.22	493.85
432.41	416.62
432.60	428.32
432.79	475.13
432.97	461.09
433.16	367.46
433.35	386.19
433.54	341.72
433.72	468.11
433.91	383.85
434.10	411.93
434.28	475.13
434.47	402.57
434.66	465.77
434.85	365.12
435.03	376.83
435.22	465.77
435.41	468.11
435.59	409.59
435.78	404.91
435.97	383.85
436.16	428.32
436.34	397.89
436.53	393.21
436.72	437.68
436.90	402.57
437.09	463.43
437.28	400.23
437.46	428.32
437.65	407.25
437.84	404.91
438.02	454.06
438.21	503.22
438.40	411.93
438.58	318.31
438.77	360.44
438.96	395.55
439.14	404.91
439.33	433.00
439.52	358.10
439.70	454.06
439.89	456.40
440.08	407.25
440.26	367.46
440.45	407.25
440.63	479.81
440.82	418.96
441.01	341.72
441.19	360.44
441.38	393.21
441.57	437.68
441.75	465.77
441.94	430.66
442.12	376.83
442.31	362.78
442.50	388.53
442.68	449.38
442.87	409.59
443.05	362.78
443.24	404.91
443.43	407.25
443.61	451.72
443.80	430.66
443.98	407.25
444.17	390.87
444.35	503.22
444.54	393.21
444.73	381.51
444.91	435.34
445.10	344.06
445.28	362.78
445.47	437.68
445.65	421.30
445.84	362.78
446.02	374.49
446.21	393.21
446.39	461.09
446.58	411.93
446.77	393.21
446.95	430.66
447.14	365.12
447.32	451.72
447.51	386.19
447.69	393.21
447.88	421.30
448.06	456.40
448.25	437.68
448.43	381.51
448.62	423.64
448.80	449.38
448.99	461.09
449.17	374.49
449.36	409.59
449.54	433.00
449.73	374.49
449.91	456.40
450.10	390.87
450.28	416.62
450.46	416.62
450.65	418.96
450.83	463.43
451.02	395.55
451.20	395.55
451.39	372.15
451.57	428.32
451.76	411.93
451.94	411.93
452.13	435.34
452.31	433.00
452.49	414.27
452.68	390.87
452.86	395.55
453.05	456.40
453.23	414.27
453.42	341.72
453.60	379.17
453.78	423.64
453.97	397.89
454.15	416.62
454.34	414.27
454.52	383.85
454.70	472.79
454.89	456.40
455.07	383.85
455.26	407.25
455.44	381.51
455.62	454.06
455.81	402.57
455.99	411.93
456.17	381.51
456.36	416.62
456.54	416.62
456.73	414.27
456.91	372.15
457.09	428.32
457.28	472.79
457.46	383.85
457.64	454.06
457.83	383.85
458.01	390.87
458.19	372.15
458.38	346.40
458.56	407.25
458.74	395.55
458.93	458.74
459.11	393.21
459.29	325.33
459.48	409.59
459.66	411.93
459.84	400.23
460.03	503.22
460.21	484.49
460.39	395.55
460.57	376.83
460.76	423.64
460.94	433.00
461.12	475.13
461.31	416.62
461.49	397.89
461.67	458.74
461.85	428.32
462.04	411.93
462.22	765.36
462.40	428.32
462.59	372.15
462.77	404.91
462.95	444.70
463.13	433.00
463.32	435.34
463.50	379.17
463.68	468.11
463.86	360.44
464.05	449.38
464.23	503.22
464.41	440.02
464.59	433.00
464.78	416.62
464.96	433.00
465.14	430.66
465.32	416.62
465.50	430.66
465.69	395.55
465.87	400.23
466.05	465.77
466.23	409.59
466.41	409.59
466.60	322.99
466.78	465.77
466.96	388.53
467.14	423.64
467.32	470.45
467.51	477.47
467.69	388.53
467.87	418.96
468.05	390.87
468.23	519.60
468.41	416.62
468.60	404.91
468.78	482.15
468.96	430.66
469.14	393.21
469.32	444.70
469.50	367.46
469.69	381.51
469.87	423.64
470.05	414.27
470.23	404.91
470.41	416.62
470.59	425.98
470.77	407.25
470.95	454.06
471.14	423.64
471.32	367.46
471.50	430.66
471.68	451.72
471.86	381.51
472.04	407.25
472.22	306.61
472.40	407.25
472.58	334.70
472.77	390.87
472.95	407.25
473.13	400.23
473.31	341.72
473.49	484.49
473.67	430.66
473.85	423.64
474.03	397.89
474.21	456.40
474.39	444.70
474.57	545.34
474.75	418.96
474.93	395.55
475.12	379.17
475.30	360.44
475.48	433.00
475.66	397.89
475.84	318.31
476.02	388.53
476.20	444.70
476.38	411.93
476.56	468.11
476.74	416.62
476.92	358.10
477.10	416.62
477.28	477.47
477.46	381.51
477.64	435.34
477.82	414.27
478.00	505.56
478.18	461.09
478.36	416.62
478.54	362.78
478.72	418.96
478.90	418.96
479.08	433.00
479.26	351.08
479.44	447.04
479.62	390.87
479.80	437.68
479.98	355.76
480.16	397.89
480.34	425.98
480.52	404.91
480.70	383.85
480.88	367.46
481.06	454.06
481.24	386.19
481.41	421.30
481.59	479.81
481.77	411.93
481.95	428.32
482.13	479.81
482.31	489.17
482.49	465.77
482.67	533.64
482.85	458.74
483.03	409.59
483.21	390.87
483.39	418.96
483.57	442.36
483.74	421.30
483.92	383.85
484.10	414.27
484.28	425.98
484.46	376.83
484.64	463.43
484.82	454.06
485.00	484.49
485.18	514.92
485.35	514.92
485.53	390.87
485.71	451.72
485.89	341.72
486.07	468.11
486.25	451.72
486.43	367.46
486.61	397.89
486.78	358.10
486.96	348.74
487.14	411.93
487.32	369.80
487.50	376.83
487.68	482.15
487.85	409.59
488.03	409.59
488.21	430.66
488.39	407.25
488.57	484.49
488.75	425.98
488.92	519.60
489.10	407.25
489.28	423.64
489.46	360.44
489.64	421.30
489.81	414.27
489.99	444.70
490.17	341.72
490.35	561.73
490.53	404.91
490.70	383.85
490.88	416.62
491.06	402.57
491.24	421.30
491.41	442.36
491.59	444.70
491.77	397.89
491.95	393.21
492.13	374.49
492.30	379.17
492.48	447.04
492.66	421.30
492.84	447.04
493.01	397.89
493.19	430.66
493.37	395.55
493.54	416.62
493.72	430.66
493.90	369.80
494.08	465.77
494.25	482.15
494.43	433.00
494.61	379.17
494.79	414.27
494.96	400.23
495.14	418.96
495.32	381.51
495.49	423.64
495.67	433.00
495.85	355.76
496.02	440.02
496.20	465.77
496.38	395.55
496.55	430.66
496.73	395.55
496.91	484.49
497.09	339.38
497.26	440.02
497.44	400.23
497.62	348.74
497.79	418.96
497.97	447.04
498.14	418.96
498.32	482.15
498.50	395.55
498.67	409.59
498.85	468.11
499.03	414.27
499.20	418.96
499.38	400.23
499.56	358.10
499.73	454.06
499.91	395.55
500.08	423.64
500.26	383.85
500.44	390.87
500.61	397.89
500.79	395.55
500.97	393.21
501.14	388.53
501.32	454.06
501.49	428.32
501.67	416.62
501.84	444.70
502.02	454.06
502.20	444.70
502.37	435.34
502.55	423.64
502.72	442.36
502.90	472.79
503.07	407.25
503.25	362.78
503.43	381.51
503.60	461.09
503.78	425.98
503.95	423.64
504.13	428.32
504.30	421.30
504.48	416.62
504.65	409.59
504.83	442.36
505.01	381.51
505.18	433.00
505.36	393.21
505.53	433.00
505.71	451.72
505.88	458.74
506.06	365.12
506.23	468.11
506.41	444.70
506.58	386.19
506.76	388.53
506.93	433.00
507.11	418.96
507.28	430.66
507.46	318.31
507.63	425.98
507.81	409.59
507.98	402.57
508.16	444.70
508.33	400.23
508.50	397.89
508.68	444.70
508.85	339.38
509.03	407.25
509.20	351.08
509.38	402.57
509.55	477.47
509.73	456.40
509.90	454.06
510.08	409.59
510.25	393.21
510.42	440.02
510.60	393.21
510.77	395.55
510.95	454.06
511.12	451.72
511.30	400.23
511.47	404.91
511.64	416.62
511.82	386.19
511.99	475.13
512.17	390.87
512.34	433.00
512.51	425.98
512.69	353.42
512.86	456.40
513.04	374.49
513.21	365.12
513.38	386.19
513.56	440.02
513.73	369.80
513.90	365.12
514.08	372.15
514.25	437.68
514.43	454.06
514.60	425.98
514.77	468.11
514.95	421.30
515.12	400.23
515.29	367.46
515.47	468.11
515.64	461.09
515.81	374.49
515.99	379.17
516.16	374.49
516.33	444.70
516.51	437.68
516.68	386.19
516.85	430.66
517.03	435.34
517.20	397.89
517.37	418.96
517.54	486.83
517.72	454.06
517.89	423.64
518.06	404.91
518.24	402.57
518.41	489.17
518.58	435.34
518.75	379.17
518.93	418.96
519.10	444.70
519.27	468.11
519.45	430.66
519.62	430.66
519.79	379.17
519.96	437.68
520.14	444.70
520.31	472.79
520.48	418.96
520.65	479.81
520.83	430.66
521.00	461.09
521.17	416.62
521.34	423.64
521.52	404.91
521.69	400.23
521.86	390.87
522.03	475.13
522.20	493.85
522.38	475.13
522.55	456.40
522.72	376.83
522.89	461.09
523.07	486.83
523.24	332.36
523.41	404.91
523.58	400.23
523.75	388.53
523.92	433.00
524.10	479.81
524.27	437.68
524.44	458.74
524.61	456.40
524.78	433.00
524.96	421.30
525.13	386.19
525.30	440.02
525.47	451.72
525.64	428.32
525.81	358.10
525.98	362.78
526.16	379.17
526.33	395.55
526.50	386.19
526.67	430.66
526.84	339.38
527.01	489.17
527.18	440.02
527.36	458.74
527.53	440.02
527.70	407.25
527.87	379.17
528.04	479.81
528.21	390.87
528.38	430.66
528.55	475.13
528.72	423.64
528.89	498.53
529.07	369.80
529.24	365.12
529.41	510.24
529.58	390.87
529.75	409.59
529.92	479.81
530.09	484.49
530.26	409.59
530.43	358.10
530.60	421.30
530.77	388.53
530.94	355.76
531.11	428.32
531.28	381.51
531.46	433.00
531.63	416.62
531.80	425.98
531.97	393.21
532.14	479.81
532.31	409.59
532.48	414.27
532.65	454.06
532.82	500.87
532.99	416.62
533.16	468.11
533.33	421.30
533.50	435.34
533.67	454.06
533.84	416.62
534.01	472.79
534.18	360.44
534.35	414.27
534.52	442.36
534.69	418.96
534.86	355.76
535.03	428.32
535.20	348.74
535.37	423.64
535.54	390.87
535.71	348.74
535.88	477.47
536.05	400.23
536.22	344.06
536.38	355.76
536.55	440.02
536.72	425.98
536.89	461.09
537.06	390.87
537.23	355.76
537.40	411.93
537.57	339.38
537.74	458.74
537.91	451.72
538.08	388.53
538.25	414.27
538.42	482.15
538.59	468.11
538.75	449.38
538.92	470.45
539.09	458.74
539.26	402.57
539.43	435.34
539.60	437.68
539.77	407.25
539.94	454.06
540.11	489.17
540.28	489.17
540.44	425.98
540.61	449.38
540.78	447.04
540.95	393.21
541.12	423.64
541.29	425.98
541.46	416.62
541.62	440.02
541.79	365.12
541.96	528.96
542.13	428.32
542.30	414.27
542.47	414.27
542.63	383.85
542.80	355.76
542.97	400.23
543.14	449.38
543.31	444.70
543.48	447.04
543.64	433.00
543.81	372.15
543.98	393.21
544.15	470.45
544.32	381.51
544.48	360.44
544.65	381.51
544.82	376.83
544.99	442.36
545.16	416.62
545.32	369.80
545.49	425.98
545.66	416.62
545.83	447.04
546.00	437.68
546.16	404.91
546.33	367.46
546.50	381.51
546.67	475.13
546.83	383.85
547.00	440.02
547.17	461.09
547.34	386.19
547.50	395.55
547.67	386.19
547.84	374.49
548.00	402.57
548.17	411.93
548.34	421.30
548.51	400.23
548.67	425.98
548.84	411.93
549.01	365.12
549.18	437.68
549.34	416.62
549.51	430.66
549.68	444.70
549.84	465.77
550.01	355.76
550.18	514.92
550.34	435.34
550.51	374.49
550.68	414.27
550.84	430.66
551.01	367.46
551.18	440.02
551.34	479.81
551.51	447.04
551.68	411.93
551.84	454.06
552.01	407.25
552.18	341.72
552.34	369.80
552.51	376.83
552.68	411.93
552.84	339.38
553.01	442.36
553.18	456.40
553.34	430.66
553.51	451.72
553.67	430.66
553.84	484.49
554.01	386.19
554.17	435.34
554.34	369.80
554.51	475.13
554.67	404.91
554.84	411.93
555.00	472.79
555.17	404.91
555.33	440.02
555.50	376.83
555.67	421.30
555.83	379.17
556.00	381.51
556.16	500.87
556.33	416.62
556.50	421.30
556.66	449.38
556.83	421.30
556.99	411.93
557.16	367.46
557.32	442.36
557.49	365.12
557.65	379.17
557.82	402.57
557.98	465.77
558.15	346.40
558.32	390.87
558.48	411.93
558.65	498.53
558.81	428.32
558.98	433.00
559.14	489.17
559.31	435.34
559.47	545.34
559.64	362.78
559.80	404.91
559.97	433.00
560.13	475.13
560.30	379.17
560.46	355.76
560.63	433.00
560.79	376.83
560.96	418.96
561.12	407.25
561.29	346.40
561.45	414.27
561.61	395.55
561.78	440.02
561.94	435.34
562.11	423.64
562.27	433.00
562.44	411.93
562.60	414.27
562.77	397.89
562.93	458.74
563.10	386.19
563.26	482.15
563.42	400.23
563.59	397.89
563.75	430.66
563.92	486.83
564.08	414.27
564.24	468.11
564.41	461.09
564.57	442.36
564.74	334.70
564.90	468.11
565.07	510.24
565.23	435.34
565.39	435.34
565.56	456.40
565.72	425.98
565.88	388.53
566.05	395.55
566.21	444.70
566.38	442.36
566.54	486.83
566.70	418.96
566.87	351.08
567.03	402.57
567.19	461.09
567.36	397.89
567.52	383.85
567.68	414.27
567.85	442.36
568.01	458.74
568.17	344.06
568.34	421.30
568.50	407.25
568.66	468.11
568.83	519.60
568.99	400.23
569.15	493.85
569.32	449.38
569.48	393.21
569.64	379.17
569.81	449.38
569.97	409.59
570.13	451.72
570.30	430.66
570.46	416.62
570.62	393.21
570.78	346.40
570.95	383.85
571.11	435.34
571.27	402.57
571.43	360.44
571.60	461.09
571.76	358.10
571.92	421.30
572.09	416.62
572.25	451.72
572.41	390.87
572.57	435.34
572.74	447.04
572.90	519.60
573.06	400.23
573.22	440.02
573.38	383.85
573.55	414.27
573.71	402.57
573.87	458.74
574.03	447.04
574.20	369.80
574.36	468.11
574.52	358.10
574.68	411.93
574.84	433.00
575.01	437.68
575.17	437.68
575.33	416.62
575.49	479.81
575.65	421.30
575.82	440.02
575.98	435.34
576.14	404.91
576.30	414.27
576.46	360.44
576.62	425.98
576.79	433.00
576.95	423.64
577.11	423.64
577.27	437.68
577.43	447.04
577.59	397.89
577.75	482.15
577.92	351.08
578.08	411.93
578.24	423.64
578.40	454.06
578.56	421.30
578.72	444.70
578.88	461.09
579.04	397.89
579.21	454.06
579.37	440.02
579.53	386.19
579.69	465.77
579.85	379.17
580.01	435.34
580.17	383.85
580.33	456.40
580.49	416.62
580.65	362.78
580.82	479.81
580.98	409.59
581.14	395.55
581.30	423.64
581.46	418.96
581.62	435.34
581.78	369.80
581.94	397.89
582.10	393.21
582.26	395.55
582.42	421.30
582.58	465.77
582.74	393.21
582.90	456.40
583.06	379.17
583.22	395.55
583.38	404.91
583.54	393.21
583.70	379.17
583.86	461.09
584.02	411.93
584.18	383.85
584.34	414.27
584.50	475.13
584.66	447.04
584.82	390.87
584.98	411.93
585.14	437.68
585.30	430.66
585.46	409.59
585.62	454.06
585.78	407.25
585.94	379.17
586.10	407.25
586.26	482.15
586.42	430.66
586.58	395.55
586.74	376.83
586.90	393.21
587.06	428.32
587.22	376.83
587.38	365.12
587.54	437.68
587.70	421.30
587.86	428.32
588.02	402.57
588.18	409.59
588.34	404.91
588.49	433.00
588.65	388.53
588.81	374.49
588.97	388.53
589.13	447.04
589.29	397.89
589.45	503.22
589.61	486.83
589.77	409.59
589.93	479.81
590.08	421.30
590.24	404.91
590.40	425.98
590.56	444.70
590.72	428.32
590.88	472.79
591.04	444.70
591.20	327.68
591.35	428.32
591.51	482.15
591.67	407.25
591.83	395.55
591.99	402.57
592.15	369.80
592.31	416.62
592.46	346.40
592.62	409.59
592.78	447.04
592.94	397.89
593.10	428.32
593.26	409.59
593.41	402.57
593.57	411.93
593.73	362.78
593.89	416.62
594.05	437.68
594.20	407.25
594.36	442.36
594.52	416.62
594.68	393.21
594.84	475.13
594.99	477.47
595.15	388.53
595.31	437.68
595.47	510.24
595.62	374.49
595.78	433.00
595.94	395.55
596.10	381.51
596.25	447.04
596.41	465.77
596.57	440.02
596.73	456.40
596.88	360.44
597.04	362.78
597.20	383.85
597.36	435.34
597.51	433.00
597.67	402.57
597.83	393.21
597.99	365.12
598.14	421.30
598.30	468.11
598.46	447.04
598.61	447.04
598.77	550.03
598.93	435.34
599.09	430.66
599.24	416.62
599.40	451.72
599.56	376.83
599.71	390.87
599.87	451.72
600.03	304.27
600.18	447.04
600.34	454.06
600.50	390.87
600.65	416.62
600.81	479.81
600.97	449.38
601.12	416.62
601.28	430.66
601.44	365.12
601.59	351.08
601.75	437.68
601.91	386.19
602.06	425.98
602.22	535.98
602.37	482.15
602.53	423.64
602.69	421.30
602.84	475.13
603.00	362.78
603.16	461.09
603.31	477.47
603.47	421.30
603.62	397.89
603.78	456.40
603.94	421.30
604.09	397.89
604.25	390.87
604.40	388.53
604.56	407.25
604.71	430.66
604.87	365.12
605.03	477.47
605.18	393.21
605.34	437.68
605.49	402.57
605.65	376.83
605.80	461.09
605.96	402.57
606.12	503.22
606.27	372.15
606.43	414.27
606.58	414.27
606.74	372.15
606.89	425.98
607.05	447.04
607.20	470.45
607.36	470.45
607.51	320.65
607.67	425.98
607.82	327.68
607.98	465.77
608.13	475.13
608.29	383.85
608.44	379.17
608.60	435.34
608.75	458.74
608.91	456.40
609.06	428.32
609.22	463.43
609.37	451.72
609.53	472.79
609.68	428.32
609.84	416.62
609.99	437.68
610.15	404.91
610.30	416.62
610.46	402.57
610.61	423.64
610.76	454.06
610.92	425.98
611.07	404.91
611.23	479.81
611.38	461.09
611.54	477.47
611.69	468.11
611.84	418.96
612.00	442.36
612.15	423.64
612.31	456.40
612.46	397.89
612.62	414.27
612.77	411.93
612.92	463.43
613.08	411.93
613.23	390.87
613.39	402.57
613.54	404.91
613.69	409.59
613.85	320.65
614.00	372.15
614.15	409.59
614.31	435.34
614.46	486.83
614.62	381.51
614.77	475.13
614.92	447.04
615.08	374.49
615.23	402.57
615.38	489.17
615.54	435.34
615.69	407.25
615.84	360.44
616.00	393.21
616.15	402.57
616.30	454.06
616.46	402.57
616.61	379.17
616.76	381.51
616.92	414.27
617.07	395.55
617.22	428.32
617.37	451.72
617.53	447.04
617.68	440.02
617.83	400.23
617.99	409.59
618.14	442.36
618.29	512.58
618.45	458.74
618.60	418.96
618.75	320.65
618.90	411.93
619.06	444.70
619.21	472.79
619.36	512.58
619.51	330.02
619.67	435.34
619.82	418.96
619.97	414.27
620.12	390.87
620.28	379.17
620.43	454.06
620.58	449.38
620.73	430.66
620.89	367.46
621.04	461.09
621.19	442.36
621.34	421.30
621.49	400.23
621.65	433.00
621.80	442.36
621.95	341.72
622.10	423.64
622.25	458.74
622.41	397.89
622.56	414.27
622.71	468.11
622.86	383.85
623.01	346.40
623.16	440.02
623.32	421.30
623.47	449.38
623.62	444.70
623.77	393.21
623.92	407.25
624.07	421.30
624.23	416.62
624.38	374.49
624.53	390.87
624.68	418.96
624.83	430.66
624.98	444.70
625.13	449.38
625.29	430.66
625.44	397.89
625.59	379.17
625.74	433.00
625.89	475.13
626.04	376.83
626.19	468.11
626.34	414.27
626.49	440.02
626.65	379.17
626.80	407.25
626.95	381.51
627.10	360.44
627.25	423.64
627.40	454.06
627.55	346.40
627.70	433.00
627.85	390.87
628.00	379.17
628.15	348.74
628.30	400.23
628.45	397.89
628.60	369.80
628.76	411.93
628.91	428.32
629.06	430.66
629.21	367.46
629.36	477.47
629.51	344.06
629.66	322.99
629.81	416.62
629.96	440.02
630.11	421.30
630.26	437.68
630.41	470.45
630.56	425.98
630.71	397.89
630.86	414.27
631.01	402.57
631.16	362.78
631.31	407.25
631.46	475.13
631.61	390.87
631.76	418.96
631.91	489.17
632.06	505.56
632.21	411.93
632.36	468.11
632.51	400.23
632.66	400.23
632.81	395.55
632.96	503.22
633.10	421.30
633.25	477.47
633.40	411.93
633.55	423.64
633.70	404.91
633.85	379.17
634.00	454.06
634.15	337.04
634.30	440.02
634.45	451.72
634.60	369.80
634.75	388.53
634.90	458.74
635.05	428.32
635.19	472.79
635.34	440.02
635.49	470.45
635.64	456.40
635.79	463.43
635.94	451.72
636.09	468.11
636.24	390.87
636.39	430.66
636.53	381.51
636.68	376.83
636.83	456.40
636.98	437.68
637.13	456.40
637.28	402.57
637.43	430.66
637.57	433.00
637.72	425.98
637.87	386.19
638.02	379.17
638.17	374.49
638.32	395.55
638.46	404.91
638.61	468.11
638.76	372.15
638.91	407.25
639.06	376.83
639.20	400.23
639.35	369.80
639.50	425.98
639.65	433.00
639.80	393.21
639.94	479.81
640.09	423.64
640.24	435.34
640.39	428.32
640.54	430.66
640.68	437.68
640.83	444.70
640.98	440.02
641.13	395.55
641.27	393.21
641.42	360.44
641.57	479.81
641.72	489.17
641.86	400.23
642.01	337.04
642.16	442.36
642.31	337.04
642.45	454.06
642.60	500.87
642.75	390.87
642.90	374.49
643.04	430.66
643.19	369.80
643.34	374.49
643.48	421.30
643.63	414.27
643.78	369.80
643.93	472.79
644.07	407.25
644.22	393.21
644.37	404.91
644.51	435.34
644.66	386.19
644.81	330.02
644.95	456.40
645.10	421.30
645.25	428.32
645.39	397.89
645.54	372.15
645.69	470.45
645.83	404.91
645.98	461.09
646.13	369.80
646.27	447.04
646.42	311.29
646.57	400.23
646.71	379.17
646.86	458.74
647.00	486.83
647.15	430.66
647.30	372.15
647.44	447.04
647.59	435.34
647.74	393.21
647.88	423.64
648.03	433.00
648.17	550.03
648.32	404.91
648.47	390.87
648.61	367.46
648.76	451.72
648.90	402.57
649.05	379.17
649.20	456.40
649.34	423.64
649.49	423.64
649.63	461.09
649.78	451.72
649.92	421.30
650.07	414.27
650.21	372.15
650.36	395.55
650.51	400.23
650.65	456.40
650.80	458.74
650.94	362.78
651.09	447.04
651.23	379.17
651.38	465.77
651.52	435.34
651.67	435.34
651.81	437.68
651.96	519.60
652.10	428.32
652.25	449.38
652.39	351.08
652.54	451.72
652.68	468.11
652.83	404.91
652.97	442.36
653.12	440.02
653.26	414.27
653.41	360.44
653.55	442.36
653.70	454.06
653.84	414.27
653.99	463.43
654.13	374.49
654.27	397.89
654.42	411.93
654.56	386.19
654.71	500.87
654.85	447.04
655.00	442.36
655.14	388.53
655.29	388.53
655.43	372.15
655.57	381.51
655.72	423.64
655.86	433.00
656.01	444.70
656.15	355.76
656.30	458.74
656.44	447.04
656.58	402.57
656.73	411.93
656.87	365.12
657.01	411.93
657.16	510.24
657.30	421.30
657.45	458.74
657.59	444.70
657.73	360.44
657.88	428.32
658.02	421.30
658.16	418.96
658.31	374.49
658.45	451.72
658.60	379.17
658.74	430.66
658.88	428.32
659.03	430.66
659.17	390.87
659.31	337.04
659.46	374.49
659.60	479.81
659.74	386.19
659.89	383.85
660.03	440.02
660.17	507.90
660.32	409.59
660.46	393.21
660.60	430.66
660.74	411.93
660.89	465.77
661.03	407.25
661.17	402.57
661.32	416.62
661.46	414.27
661.60	367.46
661.74	442.36
661.89	447.04
662.03	451.72
662.17	409.59
662.31	386.19
662.46	404.91
662.60	451.72
662.74	367.46
662.88	451.72
663.03	496.19
663.17	451.72
663.31	423.64
663.45	463.43
663.60	409.59
663.74	348.74
663.88	402.57
664.02	430.66
664.17	367.46
664.31	376.83
664.45	421.30
664.59	402.57
664.73	421.30
664.88	437.68
665.02	374.49
665.16	458.74
665.30	444.70
665.44	472.79
665.59	425.98
665.73	386.19
665.87	346.40
666.01	411.93
666.15	393.21
666.29	390.87
666.44	463.43
666.58	517.26
666.72	341.72
666.86	393.21
667.00	475.13
667.14	458.74
667.28	454.06
667.43	425.98
667.57	463.43
667.71	397.89
667.85	428.32
667.99	397.89
668.13	395.55
668.27	407.25
668.41	491.51
668.56	374.49
668.70	400.23
668.84	402.57
668.98	468.11
669.12	404.91
669.26	383.85
669.40	430.66
669.54	397.89
669.68	407.25
669.82	402.57
669.96	447.04
670.10	386.19
670.25	358.10
670.39	407.25
670.53	339.38
670.67	374.49
670.81	360.44
670.95	390.87
671.09	400.23
671.23	437.68
671.37	346.40
671.51	409.59
671.65	421.30
671.79	362.78
671.93	372.15
672.07	411.93
672.21	491.51
672.35	376.83
672.49	404.91
672.63	465.77
672.77	409.59
672.91	400.23
673.05	369.80
673.19	367.46
673.33	416.62
673.47	496.19
673.61	411.93
673.75	477.47
673.89	360.44
674.03	411.93
674.17	454.06
674.31	353.42
674.45	433.00
674.59	411.93
674.73	451.72
674.87	444.70
675.01	395.55
675.15	358.10
675.29	449.38
675.43	489.17
675.56	507.90
675.70	425.98
675.84	374.49
675.98	407.25
676.12	428.32
676.26	374.49
676.40	390.87
676.54	421.30
676.68	404.91
676.82	486.83
676.96	425.98
677.10	461.09
677.23	376.83
677.37	479.81
677.51	433.00
677.65	451.72
677.79	449.38
677.93	341.72
678.07	423.64
678.21	409.59
678.34	435.34
678.48	402.57
678.62	393.21
678.76	458.74
678.90	430.66
679.04	414.27
679.18	395.55
679.31	440.02
679.45	444.70
679.59	421.30
679.73	397.89
679.87	376.83
680.00	379.17
680.14	411.93
680.28	456.40
680.42	397.89
680.56	414.27
680.70	395.55
680.83	376.83
680.97	418.96
681.11	379.17
681.25	325.33
681.39	402.57
681.52	447.04
681.66	393.21
681.80	444.70
681.94	390.87
682.07	402.57
682.21	423.64
682.35	470.45
682.49	416.62
682.62	451.72
682.76	407.25
682.90	442.36
683.04	395.55
683.17	470.45
683.31	353.42
683.45	428.32
683.59	468.11
683.72	407.25
683.86	386.19
684.00	334.70
684.13	437.68
684.27	402.57
684.41	411.93
684.55	341.72
684.68	332.36
684.82	386.19
684.96	395.55
685.09	447.04
685.23	451.72
685.37	425.98
685.50	395.55
685.64	376.83
685.78	397.89
685.91	470.45
686.05	407.25
686.19	395.55
686.32	444.70
686.46	437.68
686.60	437.68
686.73	489.17
686.87	486.83
687.01	374.49
687.14	423.64
687.28	407.25
687.42	479.81
687.55	397.89
687.69	524.28
687.82	353.42
687.96	386.19
688.10	400.23
688.23	449.38
688.37	435.34
688.50	433.00
688.64	440.02
688.78	423.64
688.91	433.00
689.05	425.98
689.18	386.19
689.32	381.51
689.46	397.89
689.59	416.62
689.73	449.38
689.86	353.42
690.00	435.34
690.13	351.08
690.27	458.74
690.41	465.77
690.54	465.77
690.68	407.25
690.81	390.87
690.95	376.83
691.08	409.59
691.22	442.36
691.35	334.70
691.49	353.42
691.62	418.96
691.76	430.66
691.89	393.21
692.03	421.30
692.16	421.30
692.30	482.15
692.43	433.00
692.57	374.49
692.70	388.53
692.84	402.57
692.97	383.85
693.11	351.08
693.24	468.11
693.38	381.51
693.51	423.64
693.65	414.27
693.78	360.44
693.92	388.53
694.05	421.30
694.19	381.51
694.32	400.23
694.45	449.38
694.59	454.06
694.72	433.00
694.86	418.96
694.99	397.89
695.13	376.83
695.26	383.85
695.39	435.34
695.53	411.93
695.66	423.64
695.80	435.34
695.93	369.80
696.07	472.79
696.20	433.00
696.33	346.40
696.47	393.21
696.60	430.66
696.73	400.23
696.87	414.27
697.00	442.36
697.14	449.38
697.27	409.59
697.40	430.66
697.54	395.55
697.67	358.10
697.80	395.55
697.94	430.66
698.07	409.59
698.21	402.57
698.34	400.23
698.47	416.62
698.61	416.62
698.74	482.15
698.87	425.98
699.01	395.55
699.14	376.83
699.27	423.64
699.40	498.53
699.54	346.40
699.67	442.36
699.80	362.78
699.94	383.85
700.07	388.53
700.20	344.06
700.34	404.91
700.47	425.98
700.60	360.44
700.73	421.30
700.87	376.83
701.00	425.98
701.13	425.98
701.26	435.34
701.40	358.10
701.53	440.02
701.66	409.59
701.79	395.55
701.93	353.42
702.06	440.02
702.19	381.51
702.32	433.00
702.46	440.02
702.59	503.22
702.72	362.78
702.85	381.51
702.99	442.36
703.12	461.09
703.25	414.27
703.38	437.68
703.51	454.06
703.65	425.98
703.78	402.57
703.91	444.70
704.04	425.98
704.17	390.87
704.31	390.87
704.44	447.04
704.57	421.30
704.70	475.13
704.83	409.59
704.96	526.62
705.10	383.85
705.23	369.80
>>>>>End Processed Spectral Data<<<<<
