SpectraSuite Data File
++++++++++++++++++++++++++++++++++++
Date: Fri Oct 25 12:11:09 EDT 2013
User: price-jones
Dark Spectrum Present: No
Reference Spectrum Present: No
Number of Sampled Component Spectra: 1
Spectrometers: USB2+H05261
Integration Time (usec): 100000 (USB2+H05261)
Spectra Averaged: 1 (USB2+H05261)
Boxcar Smoothing: 0 (USB2+H05261)
Correct for Electrical Dark: No (USB2+H05261)
Strobe/Lamp Enabled: No (USB2+H05261)
Correct for Detector Non-linearity: No (USB2+H05261)
Correct for Stray Light: No (USB2+H05261)
Number of Pixels in Processed Spectrum: 2048
>>>>>Begin Processed Spectral Data<<<<<
365.73	414.27
365.92	414.27
366.12	414.27
366.32	271.50
366.52	210.65
366.72	262.14
366.91	283.20
367.11	224.69
367.31	217.67
367.51	191.92
367.70	290.23
367.90	341.72
368.10	203.63
368.30	269.16
368.49	252.78
368.69	255.12
368.89	264.48
369.09	264.48
369.28	238.73
369.48	287.89
369.68	269.16
369.87	325.33
370.07	294.91
370.27	351.08
370.47	278.52
370.66	388.53
370.86	332.36
371.06	416.62
371.25	367.46
371.45	304.27
371.65	437.68
371.84	360.44
372.04	383.85
372.24	414.27
372.44	390.87
372.63	402.57
372.83	367.46
373.03	397.89
373.22	428.32
373.42	435.34
373.62	395.55
373.81	472.79
374.01	444.70
374.21	381.51
374.40	341.72
374.60	423.64
374.79	435.34
374.99	430.66
375.19	435.34
375.38	484.49
375.58	414.27
375.78	416.62
375.97	425.98
376.17	444.70
376.37	454.06
376.56	461.09
376.76	397.89
376.95	353.42
377.15	463.43
377.35	379.17
377.54	344.06
377.74	367.46
377.93	337.04
378.13	414.27
378.33	433.00
378.52	374.49
378.72	470.45
378.91	362.78
379.11	433.00
379.31	395.55
379.50	376.83
379.70	355.76
379.89	372.15
380.09	348.74
380.28	423.64
380.48	379.17
380.68	449.38
380.87	423.64
381.07	465.77
381.26	386.19
381.46	374.49
381.65	437.68
381.85	367.46
382.04	407.25
382.24	388.53
382.43	365.12
382.63	388.53
382.83	351.08
383.02	468.11
383.22	393.21
383.41	360.44
383.61	418.96
383.80	503.22
384.00	421.30
384.19	461.09
384.39	409.59
384.58	369.80
384.78	461.09
384.97	376.83
385.17	388.53
385.36	334.70
385.56	440.02
385.75	390.87
385.95	386.19
386.14	372.15
386.34	440.02
386.53	367.46
386.72	362.78
386.92	416.62
387.11	397.89
387.31	463.43
387.50	386.19
387.70	433.00
387.89	437.68
388.09	381.51
388.28	320.65
388.48	402.57
388.67	421.30
388.86	418.96
389.06	414.27
389.25	479.81
389.45	348.74
389.64	430.66
389.84	461.09
390.03	472.79
390.22	393.21
390.42	433.00
390.61	421.30
390.81	386.19
391.00	379.17
391.19	386.19
391.39	367.46
391.58	463.43
391.78	451.72
391.97	449.38
392.16	414.27
392.36	418.96
392.55	423.64
392.75	437.68
392.94	470.45
393.13	360.44
393.33	411.93
393.52	404.91
393.71	395.55
393.91	435.34
394.10	440.02
394.29	358.10
394.49	416.62
394.68	318.31
394.88	437.68
395.07	383.85
395.26	393.21
395.46	440.02
395.65	456.40
395.84	444.70
396.04	425.98
396.23	383.85
396.42	423.64
396.62	397.89
396.81	449.38
397.00	407.25
397.19	489.17
397.39	454.06
397.58	428.32
397.77	416.62
397.97	447.04
398.16	414.27
398.35	383.85
398.55	374.49
398.74	421.30
398.93	435.34
399.12	421.30
399.32	472.79
399.51	421.30
399.70	374.49
399.90	351.08
400.09	423.64
400.28	365.12
400.47	386.19
400.67	425.98
400.86	433.00
401.05	414.27
401.24	435.34
401.44	423.64
401.63	407.25
401.82	346.40
402.01	348.74
402.21	393.21
402.40	374.49
402.59	383.85
402.78	414.27
402.97	376.83
403.17	400.23
403.36	404.91
403.55	381.51
403.74	407.25
403.93	383.85
404.13	463.43
404.32	360.44
404.51	440.02
404.70	418.96
404.89	407.25
405.09	425.98
405.28	404.91
405.47	397.89
405.66	395.55
405.85	449.38
406.05	388.53
406.24	386.19
406.43	444.70
406.62	407.25
406.81	407.25
407.00	409.59
407.20	393.21
407.39	428.32
407.58	346.40
407.77	383.85
407.96	409.59
408.15	475.13
408.34	425.98
408.54	372.15
408.73	428.32
408.92	428.32
409.11	395.55
409.30	428.32
409.49	376.83
409.68	381.51
409.87	362.78
410.07	423.64
410.26	440.02
410.45	379.17
410.64	416.62
410.83	397.89
411.02	397.89
411.21	465.77
411.40	411.93
411.59	416.62
411.78	330.02
411.98	430.66
412.17	355.76
412.36	400.23
412.55	332.36
412.74	425.98
412.93	456.40
413.12	463.43
413.31	423.64
413.50	395.55
413.69	397.89
413.88	397.89
414.07	496.19
414.26	346.40
414.45	393.21
414.64	395.55
414.83	374.49
415.02	418.96
415.22	400.23
415.41	407.25
415.60	400.23
415.79	418.96
415.98	376.83
416.17	425.98
416.36	433.00
416.55	435.34
416.74	442.36
416.93	395.55
417.12	442.36
417.31	447.04
417.50	407.25
417.69	451.72
417.88	416.62
418.07	393.21
418.26	407.25
418.45	383.85
418.64	430.66
418.83	437.68
419.02	425.98
419.21	374.49
419.39	428.32
419.58	425.98
419.77	416.62
419.96	428.32
420.15	381.51
420.34	416.62
420.53	374.49
420.72	411.93
420.91	407.25
421.10	423.64
421.29	402.57
421.48	423.64
421.67	475.13
421.86	514.92
422.05	470.45
422.24	393.21
422.43	386.19
422.61	425.98
422.80	400.23
422.99	379.17
423.18	400.23
423.37	484.49
423.56	320.65
423.75	482.15
423.94	400.23
424.13	381.51
424.32	463.43
424.50	386.19
424.69	374.49
424.88	465.77
425.07	381.51
425.26	458.74
425.45	397.89
425.64	472.79
425.83	351.08
426.01	315.97
426.20	435.34
426.39	430.66
426.58	414.27
426.77	416.62
426.96	411.93
427.15	425.98
427.33	416.62
427.52	425.98
427.71	358.10
427.90	425.98
428.09	519.60
428.28	454.06
428.46	400.23
428.65	416.62
428.84	433.00
429.03	430.66
429.22	444.70
429.40	379.17
429.59	437.68
429.78	437.68
429.97	416.62
430.16	332.36
430.34	444.70
430.53	428.32
430.72	390.87
430.91	416.62
431.10	388.53
431.28	400.23
431.47	365.12
431.66	383.85
431.85	402.57
432.03	395.55
432.22	470.45
432.41	348.74
432.60	379.17
432.79	411.93
432.97	416.62
433.16	470.45
433.35	451.72
433.54	463.43
433.72	390.87
433.91	393.21
434.10	376.83
434.28	433.00
434.47	479.81
434.66	465.77
434.85	468.11
435.03	376.83
435.22	568.75
435.41	447.04
435.59	400.23
435.78	400.23
435.97	411.93
436.16	414.27
436.34	409.59
436.53	388.53
436.72	458.74
436.90	395.55
437.09	386.19
437.28	442.36
437.46	395.55
437.65	437.68
437.84	376.83
438.02	444.70
438.21	425.98
438.40	395.55
438.58	388.53
438.77	409.59
438.96	449.38
439.14	442.36
439.33	454.06
439.52	421.30
439.70	362.78
439.89	397.89
440.08	433.00
440.26	351.08
440.45	447.04
440.63	421.30
440.82	379.17
441.01	440.02
441.19	454.06
441.38	437.68
441.57	381.51
441.75	414.27
441.94	379.17
442.12	456.40
442.31	360.44
442.50	397.89
442.68	477.47
442.87	334.70
443.05	461.09
443.24	475.13
443.43	386.19
443.61	468.11
443.80	393.21
443.98	409.59
444.17	395.55
444.35	449.38
444.54	407.25
444.73	353.42
444.91	386.19
445.10	421.30
445.28	386.19
445.47	353.42
445.65	423.64
445.84	407.25
446.02	444.70
446.21	362.78
446.39	397.89
446.58	372.15
446.77	348.74
446.95	418.96
447.14	390.87
447.32	444.70
447.51	372.15
447.69	500.87
447.88	435.34
448.06	393.21
448.25	461.09
448.43	451.72
448.62	437.68
448.80	421.30
448.99	465.77
449.17	339.38
449.36	294.91
449.54	395.55
449.73	440.02
449.91	411.93
450.10	454.06
450.28	402.57
450.46	393.21
450.65	341.72
450.83	425.98
451.02	393.21
451.20	416.62
451.39	369.80
451.57	456.40
451.76	428.32
451.94	409.59
452.13	482.15
452.31	451.72
452.49	355.76
452.68	365.12
452.86	404.91
453.05	479.81
453.23	397.89
453.42	397.89
453.60	390.87
453.78	435.34
453.97	386.19
454.15	365.12
454.34	423.64
454.52	454.06
454.70	416.62
454.89	472.79
455.07	407.25
455.26	418.96
455.44	325.33
455.62	423.64
455.81	381.51
455.99	409.59
456.17	486.83
456.36	454.06
456.54	374.49
456.73	470.45
456.91	386.19
457.09	454.06
457.28	468.11
457.46	369.80
457.64	400.23
457.83	449.38
458.01	456.40
458.19	437.68
458.38	397.89
458.56	496.19
458.74	456.40
458.93	416.62
459.11	418.96
459.29	414.27
459.48	379.17
459.66	437.68
459.84	416.62
460.03	454.06
460.21	365.12
460.39	442.36
460.57	418.96
460.76	414.27
460.94	428.32
461.12	402.57
461.31	418.96
461.49	418.96
461.67	411.93
461.85	461.09
462.04	414.27
462.22	784.08
462.40	442.36
462.59	411.93
462.77	386.19
462.95	374.49
463.13	463.43
463.32	418.96
463.50	404.91
463.68	465.77
463.86	322.99
464.05	425.98
464.23	526.62
464.41	409.59
464.59	362.78
464.78	386.19
464.96	379.17
465.14	449.38
465.32	416.62
465.50	444.70
465.69	461.09
465.87	388.53
466.05	404.91
466.23	440.02
466.41	395.55
466.60	397.89
466.78	411.93
466.96	428.32
467.14	374.49
467.32	416.62
467.51	409.59
467.69	470.45
467.87	458.74
468.05	381.51
468.23	465.77
468.41	386.19
468.60	430.66
468.78	397.89
468.96	395.55
469.14	404.91
469.32	423.64
469.50	393.21
469.69	437.68
469.87	409.59
470.05	437.68
470.23	334.70
470.41	346.40
470.59	386.19
470.77	381.51
470.95	374.49
471.14	402.57
471.32	365.12
471.50	475.13
471.68	482.15
471.86	514.92
472.04	425.98
472.22	395.55
472.40	437.68
472.58	365.12
472.77	311.29
472.95	421.30
473.13	458.74
473.31	376.83
473.49	388.53
473.67	383.85
473.85	400.23
474.03	514.92
474.21	411.93
474.39	500.87
474.57	465.77
474.75	414.27
474.93	430.66
475.12	365.12
475.30	449.38
475.48	423.64
475.66	402.57
475.84	442.36
476.02	383.85
476.20	430.66
476.38	404.91
476.56	454.06
476.74	388.53
476.92	397.89
477.10	433.00
477.28	423.64
477.46	461.09
477.64	435.34
477.82	409.59
478.00	437.68
478.18	454.06
478.36	400.23
478.54	367.46
478.72	393.21
478.90	435.34
479.08	423.64
479.26	418.96
479.44	367.46
479.62	414.27
479.80	397.89
479.98	458.74
480.16	425.98
480.34	449.38
480.52	348.74
480.70	390.87
480.88	397.89
481.06	486.83
481.24	325.33
481.41	428.32
481.59	447.04
481.77	390.87
481.95	418.96
482.13	421.30
482.31	428.32
482.49	393.21
482.67	456.40
482.85	414.27
483.03	447.04
483.21	449.38
483.39	430.66
483.57	433.00
483.74	402.57
483.92	407.25
484.10	423.64
484.28	458.74
484.46	421.30
484.64	442.36
484.82	402.57
485.00	414.27
485.18	400.23
485.35	421.30
485.53	299.59
485.71	468.11
485.89	414.27
486.07	433.00
486.25	503.22
486.43	449.38
486.61	440.02
486.78	472.79
486.96	400.23
487.14	430.66
487.32	369.80
487.50	315.97
487.68	418.96
487.85	365.12
488.03	433.00
488.21	416.62
488.39	369.80
488.57	442.36
488.75	337.04
488.92	533.64
489.10	386.19
489.28	402.57
489.46	407.25
489.64	444.70
489.81	423.64
489.99	395.55
490.17	416.62
490.35	477.47
490.53	440.02
490.70	376.83
490.88	505.56
491.06	358.10
491.24	425.98
491.41	421.30
491.59	360.44
491.77	358.10
491.95	430.66
492.13	400.23
492.30	381.51
492.48	395.55
492.66	386.19
492.84	454.06
493.01	461.09
493.19	358.10
493.37	433.00
493.54	416.62
493.72	400.23
493.90	383.85
494.08	395.55
494.25	376.83
494.43	456.40
494.61	442.36
494.79	388.53
494.96	435.34
495.14	433.00
495.32	423.64
495.49	433.00
495.67	369.80
495.85	397.89
496.02	283.20
496.20	442.36
496.38	390.87
496.55	433.00
496.73	435.34
496.91	449.38
497.09	407.25
497.26	421.30
497.44	397.89
497.62	440.02
497.79	404.91
497.97	444.70
498.14	418.96
498.32	360.44
498.50	463.43
498.67	395.55
498.85	381.51
499.03	383.85
499.20	407.25
499.38	411.93
499.56	472.79
499.73	463.43
499.91	395.55
500.08	390.87
500.26	369.80
500.44	409.59
500.61	458.74
500.79	468.11
500.97	402.57
501.14	407.25
501.32	388.53
501.49	477.47
501.67	388.53
501.84	451.72
502.02	449.38
502.20	489.17
502.37	440.02
502.55	440.02
502.72	500.87
502.90	372.15
503.07	400.23
503.25	437.68
503.43	327.68
503.60	395.55
503.78	404.91
503.95	386.19
504.13	414.27
504.30	379.17
504.48	433.00
504.65	433.00
504.83	479.81
505.01	376.83
505.18	404.91
505.36	470.45
505.53	400.23
505.71	416.62
505.88	435.34
506.06	404.91
506.23	346.40
506.41	386.19
506.58	442.36
506.76	435.34
506.93	414.27
507.11	486.83
507.28	521.94
507.46	355.76
507.63	341.72
507.81	472.79
507.98	430.66
508.16	400.23
508.33	400.23
508.50	381.51
508.68	430.66
508.85	425.98
509.03	409.59
509.20	379.17
509.38	365.12
509.55	503.22
509.73	451.72
509.90	468.11
510.08	369.80
510.25	407.25
510.42	365.12
510.60	425.98
510.77	458.74
510.95	374.49
511.12	395.55
511.30	456.40
511.47	362.78
511.64	444.70
511.82	451.72
511.99	376.83
512.17	411.93
512.34	409.59
512.51	381.51
512.69	409.59
512.86	514.92
513.04	374.49
513.21	435.34
513.38	407.25
513.56	442.36
513.73	437.68
513.90	355.76
514.08	358.10
514.25	444.70
514.43	442.36
514.60	449.38
514.77	381.51
514.95	383.85
515.12	423.64
515.29	468.11
515.47	322.99
515.64	440.02
515.81	447.04
515.99	468.11
516.16	402.57
516.33	381.51
516.51	442.36
516.68	348.74
516.85	461.09
517.03	437.68
517.20	418.96
517.37	367.46
517.54	393.21
517.72	435.34
517.89	477.47
518.06	428.32
518.24	475.13
518.41	477.47
518.58	442.36
518.75	346.40
518.93	390.87
519.10	388.53
519.27	409.59
519.45	425.98
519.62	381.51
519.79	358.10
519.96	332.36
520.14	402.57
520.31	402.57
520.48	451.72
520.65	470.45
520.83	440.02
521.00	463.43
521.17	414.27
521.34	435.34
521.52	400.23
521.69	418.96
521.86	468.11
522.03	461.09
522.20	475.13
522.38	423.64
522.55	421.30
522.72	395.55
522.89	454.06
523.07	479.81
523.24	444.70
523.41	465.77
523.58	468.11
523.75	430.66
523.92	376.83
524.10	442.36
524.27	447.04
524.44	367.46
524.61	433.00
524.78	381.51
524.96	374.49
525.13	400.23
525.30	372.15
525.47	395.55
525.64	358.10
525.81	442.36
525.98	360.44
526.16	425.98
526.33	381.51
526.50	353.42
526.67	381.51
526.84	430.66
527.01	437.68
527.18	449.38
527.36	383.85
527.53	376.83
527.70	475.13
527.87	388.53
528.04	451.72
528.21	416.62
528.38	449.38
528.55	386.19
528.72	498.53
528.89	416.62
529.07	400.23
529.24	395.55
529.41	458.74
529.58	379.17
529.75	374.49
529.92	468.11
530.09	447.04
530.26	346.40
530.43	435.34
530.60	437.68
530.77	489.17
530.94	418.96
531.11	397.89
531.28	367.46
531.46	362.78
531.63	444.70
531.80	451.72
531.97	379.17
532.14	388.53
532.31	489.17
532.48	397.89
532.65	421.30
532.82	374.49
532.99	416.62
533.16	465.77
533.33	458.74
533.50	379.17
533.67	418.96
533.84	390.87
534.01	435.34
534.18	404.91
534.35	402.57
534.52	390.87
534.69	489.17
534.86	475.13
535.03	454.06
535.20	404.91
535.37	470.45
535.54	402.57
535.71	374.49
535.88	437.68
536.05	449.38
536.22	397.89
536.38	430.66
536.55	416.62
536.72	447.04
536.89	421.30
537.06	374.49
537.23	400.23
537.40	407.25
537.57	433.00
537.74	468.11
537.91	428.32
538.08	444.70
538.25	374.49
538.42	414.27
538.59	507.90
538.75	447.04
538.92	379.17
539.09	416.62
539.26	470.45
539.43	440.02
539.60	505.56
539.77	414.27
539.94	451.72
540.11	472.79
540.28	388.53
540.44	379.17
540.61	433.00
540.78	430.66
540.95	393.21
541.12	454.06
541.29	365.12
541.46	472.79
541.62	386.19
541.79	311.29
541.96	437.68
542.13	447.04
542.30	440.02
542.47	416.62
542.63	383.85
542.80	461.09
542.97	442.36
543.14	437.68
543.31	437.68
543.48	362.78
543.64	454.06
543.81	402.57
543.98	449.38
544.15	376.83
544.32	500.87
544.48	463.43
544.65	423.64
544.82	367.46
544.99	465.77
545.16	322.99
545.32	414.27
545.49	423.64
545.66	367.46
545.83	337.04
546.00	407.25
546.16	500.87
546.33	386.19
546.50	442.36
546.67	442.36
546.83	447.04
547.00	367.46
547.17	407.25
547.34	390.87
547.50	372.15
547.67	451.72
547.84	393.21
548.00	458.74
548.17	416.62
548.34	395.55
548.51	468.11
548.67	477.47
548.84	484.49
549.01	430.66
549.18	444.70
549.34	360.44
549.51	418.96
549.68	407.25
549.84	463.43
550.01	388.53
550.18	535.98
550.34	484.49
550.51	414.27
550.68	472.79
550.84	442.36
551.01	430.66
551.18	418.96
551.34	425.98
551.51	428.32
551.68	351.08
551.84	374.49
552.01	388.53
552.18	416.62
552.34	367.46
552.51	369.80
552.68	421.30
552.84	395.55
553.01	463.43
553.18	465.77
553.34	425.98
553.51	299.59
553.67	454.06
553.84	493.85
554.01	379.17
554.17	425.98
554.34	393.21
554.51	437.68
554.67	433.00
554.84	425.98
555.00	461.09
555.17	489.17
555.33	477.47
555.50	407.25
555.67	456.40
555.83	425.98
556.00	416.62
556.16	543.00
556.33	407.25
556.50	409.59
556.66	433.00
556.83	425.98
556.99	400.23
557.16	400.23
557.32	416.62
557.49	346.40
557.65	447.04
557.82	421.30
557.98	360.44
558.15	433.00
558.32	362.78
558.48	458.74
558.65	421.30
558.81	423.64
558.98	421.30
559.14	423.64
559.31	393.21
559.47	479.81
559.64	463.43
559.80	379.17
559.97	482.15
560.13	351.08
560.30	379.17
560.46	402.57
560.63	383.85
560.79	414.27
560.96	393.21
561.12	442.36
561.29	461.09
561.45	400.23
561.61	383.85
561.78	463.43
561.94	475.13
562.11	423.64
562.27	435.34
562.44	407.25
562.60	386.19
562.77	381.51
562.93	425.98
563.10	447.04
563.26	491.51
563.42	411.93
563.59	442.36
563.75	404.91
563.92	442.36
564.08	442.36
564.24	411.93
564.41	411.93
564.57	402.57
564.74	447.04
564.90	381.51
565.07	416.62
565.23	402.57
565.39	437.68
565.56	383.85
565.72	416.62
565.88	416.62
566.05	372.15
566.21	489.17
566.38	449.38
566.54	402.57
566.70	421.30
566.87	437.68
567.03	390.87
567.19	400.23
567.36	465.77
567.52	393.21
567.68	388.53
567.85	447.04
568.01	395.55
568.17	414.27
568.34	362.78
568.50	404.91
568.66	414.27
568.83	477.47
568.99	428.32
569.15	407.25
569.32	404.91
569.48	477.47
569.64	430.66
569.81	395.55
569.97	421.30
570.13	425.98
570.30	442.36
570.46	381.51
570.62	383.85
570.78	479.81
570.95	454.06
571.11	381.51
571.27	365.12
571.43	433.00
571.60	409.59
571.76	421.30
571.92	379.17
572.09	414.27
572.25	402.57
572.41	402.57
572.57	404.91
572.74	390.87
572.90	409.59
573.06	411.93
573.22	407.25
573.38	512.58
573.55	510.24
573.71	388.53
573.87	458.74
574.03	482.15
574.20	395.55
574.36	458.74
574.52	411.93
574.68	395.55
574.84	425.98
575.01	358.10
575.17	442.36
575.33	330.02
575.49	381.51
575.65	397.89
575.82	388.53
575.98	409.59
576.14	388.53
576.30	393.21
576.46	372.15
576.62	440.02
576.79	437.68
576.95	482.15
577.11	435.34
577.27	386.19
577.43	402.57
577.59	475.13
577.75	393.21
577.92	416.62
578.08	393.21
578.24	355.76
578.40	315.97
578.56	472.79
578.72	433.00
578.88	430.66
579.04	411.93
579.21	430.66
579.37	421.30
579.53	402.57
579.69	463.43
579.85	386.19
580.01	451.72
580.17	407.25
580.33	404.91
580.49	479.81
580.65	433.00
580.82	477.47
580.98	379.17
581.14	404.91
581.30	381.51
581.46	381.51
581.62	414.27
581.78	447.04
581.94	390.87
582.10	346.40
582.26	374.49
582.42	390.87
582.58	383.85
582.74	425.98
582.90	390.87
583.06	430.66
583.22	437.68
583.38	369.80
583.54	470.45
583.70	428.32
583.86	428.32
584.02	395.55
584.18	425.98
584.34	414.27
584.50	388.53
584.66	372.15
584.82	437.68
584.98	444.70
585.14	456.40
585.30	381.51
585.46	358.10
585.62	430.66
585.78	414.27
585.94	409.59
586.10	458.74
586.26	327.68
586.42	393.21
586.58	404.91
586.74	376.83
586.90	456.40
587.06	409.59
587.22	395.55
587.38	416.62
587.54	411.93
587.70	470.45
587.86	479.81
588.02	369.80
588.18	442.36
588.34	376.83
588.49	451.72
588.65	379.17
588.81	423.64
588.97	390.87
589.13	390.87
589.29	402.57
589.45	418.96
589.61	383.85
589.77	383.85
589.93	351.08
590.08	437.68
590.24	346.40
590.40	514.92
590.56	374.49
590.72	395.55
590.88	437.68
591.04	458.74
591.20	402.57
591.35	421.30
591.51	498.53
591.67	362.78
591.83	437.68
591.99	388.53
592.15	458.74
592.31	409.59
592.46	496.19
592.62	454.06
592.78	386.19
592.94	416.62
593.10	365.12
593.26	444.70
593.41	484.49
593.57	430.66
593.73	404.91
593.89	332.36
594.05	407.25
594.20	423.64
594.36	444.70
594.52	416.62
594.68	365.12
594.84	484.49
594.99	433.00
595.15	475.13
595.31	468.11
595.47	475.13
595.62	451.72
595.78	386.19
595.94	388.53
596.10	440.02
596.25	376.83
596.41	437.68
596.57	372.15
596.73	444.70
596.88	482.15
597.04	381.51
597.20	355.76
597.36	395.55
597.51	451.72
597.67	425.98
597.83	433.00
597.99	423.64
598.14	454.06
598.30	498.53
598.46	395.55
598.61	433.00
598.77	465.77
598.93	322.99
599.09	451.72
599.24	444.70
599.40	451.72
599.56	475.13
599.71	435.34
599.87	414.27
600.03	372.15
600.18	374.49
600.34	489.17
600.50	423.64
600.65	386.19
600.81	486.83
600.97	390.87
601.12	372.15
601.28	489.17
601.44	425.98
601.59	409.59
601.75	411.93
601.91	444.70
602.06	421.30
602.22	423.64
602.37	409.59
602.53	395.55
602.69	477.47
602.84	444.70
603.00	397.89
603.16	393.21
603.31	500.87
603.47	388.53
603.62	372.15
603.78	433.00
603.94	379.17
604.09	334.70
604.25	468.11
604.40	390.87
604.56	404.91
604.71	402.57
604.87	425.98
605.03	376.83
605.18	411.93
605.34	433.00
605.49	421.30
605.65	393.21
605.80	409.59
605.96	482.15
606.12	437.68
606.27	437.68
606.43	489.17
606.58	435.34
606.74	425.98
606.89	421.30
607.05	442.36
607.20	470.45
607.36	358.10
607.51	376.83
607.67	411.93
607.82	393.21
607.98	477.47
608.13	430.66
608.29	421.30
608.44	381.51
608.60	456.40
608.75	498.53
608.91	491.51
609.06	505.56
609.22	461.09
609.37	423.64
609.53	402.57
609.68	402.57
609.84	393.21
609.99	332.36
610.15	470.45
610.30	397.89
610.46	500.87
610.61	411.93
610.76	395.55
610.92	470.45
611.07	393.21
611.23	486.83
611.38	470.45
611.54	496.19
611.69	440.02
611.84	423.64
612.00	454.06
612.15	365.12
612.31	409.59
612.46	397.89
612.62	479.81
612.77	444.70
612.92	418.96
613.08	447.04
613.23	442.36
613.39	360.44
613.54	451.72
613.69	409.59
613.85	376.83
614.00	437.68
614.15	379.17
614.31	458.74
614.46	423.64
614.62	425.98
614.77	351.08
614.92	425.98
615.08	383.85
615.23	498.53
615.38	491.51
615.54	423.64
615.69	435.34
615.84	402.57
616.00	433.00
616.15	470.45
616.30	390.87
616.46	449.38
616.61	414.27
616.76	374.49
616.92	400.23
617.07	341.72
617.22	362.78
617.37	409.59
617.53	440.02
617.68	456.40
617.83	404.91
617.99	418.96
618.14	423.64
618.29	428.32
618.45	437.68
618.60	381.51
618.75	435.34
618.90	388.53
619.06	395.55
619.21	393.21
619.36	355.76
619.51	376.83
619.67	433.00
619.82	388.53
619.97	409.59
620.12	418.96
620.28	402.57
620.43	430.66
620.58	423.64
620.73	407.25
620.89	468.11
621.04	433.00
621.19	397.89
621.34	407.25
621.49	374.49
621.65	411.93
621.80	351.08
621.95	477.47
622.10	416.62
622.25	393.21
622.41	360.44
622.56	386.19
622.71	372.15
622.86	341.72
623.01	428.32
623.16	409.59
623.32	456.40
623.47	461.09
623.62	514.92
623.77	351.08
623.92	386.19
624.07	407.25
624.23	393.21
624.38	423.64
624.53	465.77
624.68	414.27
624.83	447.04
624.98	421.30
625.13	411.93
625.29	409.59
625.44	402.57
625.59	468.11
625.74	482.15
625.89	374.49
626.04	447.04
626.19	388.53
626.34	435.34
626.49	411.93
626.65	376.83
626.80	400.23
626.95	461.09
627.10	400.23
627.25	449.38
627.40	386.19
627.55	428.32
627.70	390.87
627.85	463.43
628.00	463.43
628.15	404.91
628.30	437.68
628.45	369.80
628.60	507.90
628.76	449.38
628.91	379.17
629.06	418.96
629.21	379.17
629.36	444.70
629.51	411.93
629.66	334.70
629.81	372.15
629.96	465.77
630.11	449.38
630.26	388.53
630.41	470.45
630.56	463.43
630.71	332.36
630.86	414.27
631.01	374.49
631.16	409.59
631.31	463.43
631.46	454.06
631.61	454.06
631.76	498.53
631.91	383.85
632.06	421.30
632.21	395.55
632.36	379.17
632.51	400.23
632.66	442.36
632.81	404.91
632.96	362.78
633.10	337.04
633.25	381.51
633.40	404.91
633.55	456.40
633.70	341.72
633.85	437.68
634.00	430.66
634.15	397.89
634.30	428.32
634.45	451.72
634.60	397.89
634.75	358.10
634.90	374.49
635.05	397.89
635.19	339.38
635.34	440.02
635.49	390.87
635.64	386.19
635.79	388.53
635.94	444.70
636.09	390.87
636.24	421.30
636.39	379.17
636.53	470.45
636.68	358.10
636.83	491.51
636.98	430.66
637.13	407.25
637.28	346.40
637.43	409.59
637.57	409.59
637.72	482.15
637.87	465.77
638.02	393.21
638.17	411.93
638.32	418.96
638.46	414.27
638.61	550.03
638.76	514.92
638.91	332.36
639.06	423.64
639.20	430.66
639.35	407.25
639.50	416.62
639.65	444.70
639.80	397.89
639.94	454.06
640.09	407.25
640.24	411.93
640.39	381.51
640.54	404.91
640.68	435.34
640.83	390.87
640.98	447.04
641.13	449.38
641.27	365.12
641.42	395.55
641.57	367.46
641.72	430.66
641.86	358.10
642.01	395.55
642.16	458.74
642.31	397.89
642.45	435.34
642.60	409.59
642.75	400.23
642.90	440.02
643.04	372.15
643.19	381.51
643.34	386.19
643.48	334.70
643.63	437.68
643.78	395.55
643.93	477.47
644.07	383.85
644.22	442.36
644.37	418.96
644.51	407.25
644.66	430.66
644.81	374.49
644.95	500.87
645.10	451.72
645.25	444.70
645.39	379.17
645.54	421.30
645.69	461.09
645.83	369.80
645.98	503.22
646.13	475.13
646.27	472.79
646.42	407.25
646.57	416.62
646.71	444.70
646.86	379.17
647.00	430.66
647.15	379.17
647.30	430.66
647.44	381.51
647.59	367.46
647.74	407.25
647.88	472.79
648.03	437.68
648.17	447.04
648.32	383.85
648.47	428.32
648.61	418.96
648.76	348.74
648.90	402.57
649.05	360.44
649.20	409.59
649.34	325.33
649.49	449.38
649.63	454.06
649.78	383.85
649.92	393.21
650.07	423.64
650.21	407.25
650.36	414.27
650.51	444.70
650.65	440.02
650.80	425.98
650.94	397.89
651.09	353.42
651.23	348.74
651.38	369.80
651.52	414.27
651.67	454.06
651.81	365.12
651.96	381.51
652.10	477.47
652.25	463.43
652.39	344.06
652.54	456.40
652.68	458.74
652.83	496.19
652.97	435.34
653.12	463.43
653.26	416.62
653.41	447.04
653.55	437.68
653.70	414.27
653.84	411.93
653.99	482.15
654.13	400.23
654.27	325.33
654.42	433.00
654.56	358.10
654.71	447.04
654.85	409.59
655.00	433.00
655.14	388.53
655.29	414.27
655.43	416.62
655.57	423.64
655.72	407.25
655.86	372.15
656.01	416.62
656.15	418.96
656.30	404.91
656.44	444.70
656.58	409.59
656.73	353.42
656.87	414.27
657.01	423.64
657.16	482.15
657.30	418.96
657.45	447.04
657.59	383.85
657.73	353.42
657.88	369.80
658.02	433.00
658.16	358.10
658.31	397.89
658.45	437.68
658.60	374.49
658.74	386.19
658.88	428.32
659.03	414.27
659.17	407.25
659.31	425.98
659.46	362.78
659.60	414.27
659.74	360.44
659.89	425.98
660.03	379.17
660.17	428.32
660.32	430.66
660.46	444.70
660.60	404.91
660.74	477.47
660.89	461.09
661.03	346.40
661.17	383.85
661.32	428.32
661.46	430.66
661.60	397.89
661.74	416.62
661.89	449.38
662.03	435.34
662.17	437.68
662.31	430.66
662.46	414.27
662.60	433.00
662.74	486.83
662.88	479.81
663.03	369.80
663.17	423.64
663.31	442.36
663.45	425.98
663.60	484.49
663.74	374.49
663.88	411.93
664.02	360.44
664.17	372.15
664.31	362.78
664.45	428.32
664.59	423.64
664.73	479.81
664.88	404.91
665.02	433.00
665.16	353.42
665.30	402.57
665.44	376.83
665.59	484.49
665.73	409.59
665.87	465.77
666.01	425.98
666.15	428.32
666.29	322.99
666.44	402.57
666.58	449.38
666.72	433.00
666.86	411.93
667.00	416.62
667.14	395.55
667.28	414.27
667.43	449.38
667.57	435.34
667.71	484.49
667.85	491.51
667.99	479.81
668.13	442.36
668.27	397.89
668.41	346.40
668.56	461.09
668.70	428.32
668.84	437.68
668.98	395.55
669.12	425.98
669.26	428.32
669.40	360.44
669.54	367.46
669.68	444.70
669.82	400.23
669.96	418.96
670.10	430.66
670.25	386.19
670.39	468.11
670.53	437.68
670.67	463.43
670.81	400.23
670.95	390.87
671.09	421.30
671.23	484.49
671.37	444.70
671.51	451.72
671.65	418.96
671.79	425.98
671.93	425.98
672.07	430.66
672.21	479.81
672.35	472.79
672.49	447.04
672.63	470.45
672.77	472.79
672.91	393.21
673.05	351.08
673.19	374.49
673.33	388.53
673.47	465.77
673.61	414.27
673.75	468.11
673.89	433.00
674.03	376.83
674.17	461.09
674.31	418.96
674.45	442.36
674.59	402.57
674.73	435.34
674.87	470.45
675.01	451.72
675.15	423.64
675.29	461.09
675.43	503.22
675.56	477.47
675.70	407.25
675.84	430.66
675.98	362.78
676.12	353.42
676.26	461.09
676.40	451.72
676.54	404.91
676.68	402.57
676.82	386.19
676.96	402.57
677.10	440.02
677.23	425.98
677.37	383.85
677.51	411.93
677.65	397.89
677.79	421.30
677.93	423.64
678.07	407.25
678.21	330.02
678.34	407.25
678.48	435.34
678.62	440.02
678.76	365.12
678.90	367.46
679.04	433.00
679.18	433.00
679.31	397.89
679.45	409.59
679.59	402.57
679.73	351.08
679.87	322.99
680.00	435.34
680.14	486.83
680.28	423.64
680.42	423.64
680.56	475.13
680.70	463.43
680.83	444.70
680.97	416.62
681.11	346.40
681.25	447.04
681.39	416.62
681.52	458.74
681.66	379.17
681.80	437.68
681.94	407.25
682.07	404.91
682.21	456.40
682.35	390.87
682.49	325.33
682.62	444.70
682.76	428.32
682.90	440.02
683.04	397.89
683.17	433.00
683.31	386.19
683.45	414.27
683.59	346.40
683.72	519.60
683.86	386.19
684.00	425.98
684.13	423.64
684.27	442.36
684.41	423.64
684.55	393.21
684.68	374.49
684.82	379.17
684.96	369.80
685.09	346.40
685.23	369.80
685.37	416.62
685.50	461.09
685.64	416.62
685.78	418.96
685.91	503.22
686.05	428.32
686.19	365.12
686.32	440.02
686.46	449.38
686.60	393.21
686.73	500.87
686.87	390.87
687.01	411.93
687.14	393.21
687.28	418.96
687.42	465.77
687.55	395.55
687.69	381.51
687.82	456.40
687.96	461.09
688.10	496.19
688.23	397.89
688.37	461.09
688.50	416.62
688.64	337.04
688.78	423.64
688.91	425.98
689.05	383.85
689.18	423.64
689.32	379.17
689.46	411.93
689.59	393.21
689.73	428.32
689.86	337.04
690.00	390.87
690.13	437.68
690.27	390.87
690.41	414.27
690.54	461.09
690.68	435.34
690.81	376.83
690.95	379.17
691.08	386.19
691.22	383.85
691.35	386.19
691.49	393.21
691.62	381.51
691.76	397.89
691.89	414.27
692.03	437.68
692.16	409.59
692.30	437.68
692.43	414.27
692.57	393.21
692.70	369.80
692.84	367.46
692.97	362.78
693.11	397.89
693.24	475.13
693.38	416.62
693.51	344.06
693.65	465.77
693.78	383.85
693.92	372.15
694.05	386.19
694.19	322.99
694.32	376.83
694.45	458.74
694.59	334.70
694.72	404.91
694.86	362.78
694.99	444.70
695.13	374.49
695.26	425.98
695.39	425.98
695.53	514.92
695.66	409.59
695.80	477.47
695.93	388.53
696.07	374.49
696.20	428.32
696.33	430.66
696.47	416.62
696.60	351.08
696.73	400.23
696.87	409.59
697.00	423.64
697.14	386.19
697.27	428.32
697.40	440.02
697.54	447.04
697.67	461.09
697.80	395.55
697.94	444.70
698.07	421.30
698.21	425.98
698.34	362.78
698.47	491.51
698.61	428.32
698.74	465.77
698.87	411.93
699.01	400.23
699.14	404.91
699.27	430.66
699.40	468.11
699.54	425.98
699.67	437.68
699.80	407.25
699.94	414.27
700.07	395.55
700.20	337.04
700.34	386.19
700.47	409.59
700.60	407.25
700.73	383.85
700.87	402.57
701.00	451.72
701.13	435.34
701.26	475.13
701.40	425.98
701.53	437.68
701.66	367.46
701.79	386.19
701.93	430.66
702.06	430.66
702.19	456.40
702.32	411.93
702.46	388.53
702.59	461.09
702.72	402.57
702.85	435.34
702.99	425.98
703.12	449.38
703.25	425.98
703.38	372.15
703.51	393.21
703.65	393.21
703.78	388.53
703.91	367.46
704.04	435.34
704.17	386.19
704.31	355.76
704.44	425.98
704.57	404.91
704.70	418.96
704.83	355.76
704.96	435.34
705.10	341.72
705.23	353.42
>>>>>End Processed Spectral Data<<<<<
