SpectraSuite Data File
++++++++++++++++++++++++++++++++++++
Date: Fri Oct 25 12:10:33 EDT 2013
User: price-jones
Dark Spectrum Present: No
Reference Spectrum Present: No
Number of Sampled Component Spectra: 1
Spectrometers: USB2+H05261
Integration Time (usec): 100000 (USB2+H05261)
Spectra Averaged: 1 (USB2+H05261)
Boxcar Smoothing: 0 (USB2+H05261)
Correct for Electrical Dark: No (USB2+H05261)
Strobe/Lamp Enabled: No (USB2+H05261)
Correct for Detector Non-linearity: No (USB2+H05261)
Correct for Stray Light: No (USB2+H05261)
Number of Pixels in Processed Spectrum: 2048
>>>>>Begin Processed Spectral Data<<<<<
365.73	337.04
365.92	337.04
366.12	337.04
366.32	273.84
366.52	278.52
366.72	166.18
366.91	297.25
367.11	259.80
367.31	187.24
367.51	243.42
367.70	220.01
367.90	248.10
368.10	271.50
368.30	238.73
368.49	220.01
368.69	283.20
368.89	227.03
369.09	278.52
369.28	297.25
369.48	327.68
369.68	280.86
369.87	297.25
370.07	301.93
370.27	337.04
370.47	353.42
370.66	346.40
370.86	308.95
371.06	442.36
371.25	390.87
371.45	386.19
371.65	395.55
371.84	322.99
372.04	402.57
372.24	428.32
372.44	381.51
372.63	320.65
372.83	465.77
373.03	353.42
373.22	388.53
373.42	386.19
373.62	444.70
373.81	369.80
374.01	390.87
374.21	402.57
374.40	416.62
374.60	397.89
374.79	409.59
374.99	372.15
375.19	395.55
375.38	372.15
375.58	365.12
375.78	475.13
375.97	437.68
376.17	486.83
376.37	423.64
376.56	397.89
376.76	440.02
376.95	348.74
377.15	397.89
377.35	423.64
377.54	402.57
377.74	430.66
377.93	486.83
378.13	430.66
378.33	416.62
378.52	414.27
378.72	482.15
378.91	470.45
379.11	437.68
379.31	386.19
379.50	442.36
379.70	425.98
379.89	407.25
380.09	454.06
380.28	381.51
380.48	341.72
380.68	344.06
380.87	365.12
381.07	388.53
381.26	475.13
381.46	369.80
381.65	479.81
381.85	409.59
382.04	456.40
382.24	386.19
382.43	402.57
382.63	393.21
382.83	376.83
383.02	430.66
383.22	386.19
383.41	367.46
383.61	400.23
383.80	470.45
384.00	390.87
384.19	409.59
384.39	411.93
384.58	353.42
384.78	393.21
384.97	393.21
385.17	444.70
385.36	402.57
385.56	437.68
385.75	416.62
385.95	346.40
386.14	440.02
386.34	421.30
386.53	330.02
386.72	472.79
386.92	477.47
387.11	430.66
387.31	461.09
387.50	425.98
387.70	301.93
387.89	393.21
388.09	414.27
388.28	440.02
388.48	348.74
388.67	435.34
388.86	351.08
389.06	435.34
389.25	465.77
389.45	414.27
389.64	491.51
389.84	428.32
390.03	425.98
390.22	414.27
390.42	447.04
390.61	376.83
390.81	461.09
391.00	362.78
391.19	470.45
391.39	486.83
391.58	430.66
391.78	395.55
391.97	437.68
392.16	402.57
392.36	425.98
392.55	374.49
392.75	437.68
392.94	379.17
393.13	334.70
393.33	351.08
393.52	400.23
393.71	433.00
393.91	400.23
394.10	383.85
394.29	376.83
394.49	423.64
394.68	407.25
394.88	451.72
395.07	404.91
395.26	372.15
395.46	418.96
395.65	383.85
395.84	386.19
396.04	416.62
396.23	383.85
396.42	395.55
396.62	397.89
396.81	369.80
397.00	435.34
397.19	418.96
397.39	360.44
397.58	456.40
397.77	367.46
397.97	421.30
398.16	435.34
398.35	367.46
398.55	313.63
398.74	421.30
398.93	433.00
399.12	451.72
399.32	425.98
399.51	423.64
399.70	395.55
399.90	383.85
400.09	442.36
400.28	383.85
400.47	409.59
400.67	341.72
400.86	440.02
401.05	416.62
401.24	451.72
401.44	381.51
401.63	376.83
401.82	369.80
402.01	428.32
402.21	423.64
402.40	355.76
402.59	418.96
402.78	346.40
402.97	365.12
403.17	390.87
403.36	430.66
403.55	367.46
403.74	367.46
403.93	390.87
404.13	421.30
404.32	379.17
404.51	425.98
404.70	451.72
404.89	393.21
405.09	454.06
405.28	411.93
405.47	458.74
405.66	447.04
405.85	442.36
406.05	397.89
406.24	404.91
406.43	341.72
406.62	402.57
406.81	437.68
407.00	440.02
407.20	463.43
407.39	414.27
407.58	369.80
407.77	465.77
407.96	428.32
408.15	493.85
408.34	479.81
408.54	341.72
408.73	402.57
408.92	395.55
409.11	416.62
409.30	454.06
409.49	435.34
409.68	395.55
409.87	500.87
410.07	470.45
410.26	425.98
410.45	393.21
410.64	440.02
410.83	407.25
411.02	362.78
411.21	461.09
411.40	477.47
411.59	472.79
411.78	475.13
411.98	428.32
412.17	351.08
412.36	397.89
412.55	372.15
412.74	404.91
412.93	348.74
413.12	444.70
413.31	425.98
413.50	400.23
413.69	388.53
413.88	444.70
414.07	456.40
414.26	383.85
414.45	360.44
414.64	454.06
414.83	376.83
415.02	435.34
415.22	425.98
415.41	337.04
415.60	383.85
415.79	463.43
415.98	440.02
416.17	418.96
416.36	341.72
416.55	423.64
416.74	414.27
416.93	381.51
417.12	433.00
417.31	397.89
417.50	383.85
417.69	393.21
417.88	440.02
418.07	381.51
418.26	379.17
418.45	367.46
418.64	437.68
418.83	407.25
419.02	388.53
419.21	400.23
419.39	388.53
419.58	322.99
419.77	383.85
419.96	447.04
420.15	428.32
420.34	440.02
420.53	409.59
420.72	461.09
420.91	423.64
421.10	318.31
421.29	451.72
421.48	383.85
421.67	425.98
421.86	374.49
422.05	458.74
422.24	442.36
422.43	465.77
422.61	435.34
422.80	430.66
422.99	444.70
423.18	379.17
423.37	454.06
423.56	292.57
423.75	517.26
423.94	369.80
424.13	390.87
424.32	451.72
424.50	428.32
424.69	472.79
424.88	376.83
425.07	444.70
425.26	425.98
425.45	402.57
425.64	372.15
425.83	383.85
426.01	388.53
426.20	369.80
426.39	341.72
426.58	491.51
426.77	407.25
426.96	461.09
427.15	407.25
427.33	461.09
427.52	482.15
427.71	393.21
427.90	461.09
428.09	486.83
428.28	402.57
428.46	376.83
428.65	379.17
428.84	362.78
429.03	447.04
429.22	463.43
429.40	479.81
429.59	461.09
429.78	397.89
429.97	449.38
430.16	421.30
430.34	393.21
430.53	444.70
430.72	428.32
430.91	458.74
431.10	479.81
431.28	346.40
431.47	339.38
431.66	393.21
431.85	362.78
432.03	425.98
432.22	416.62
432.41	451.72
432.60	449.38
432.79	390.87
432.97	451.72
433.16	360.44
433.35	353.42
433.54	418.96
433.72	376.83
433.91	440.02
434.10	414.27
434.28	397.89
434.47	379.17
434.66	400.23
434.85	451.72
435.03	451.72
435.22	447.04
435.41	433.00
435.59	411.93
435.78	435.34
435.97	409.59
436.16	367.46
436.34	404.91
436.53	379.17
436.72	447.04
436.90	407.25
437.09	369.80
437.28	374.49
437.46	425.98
437.65	465.77
437.84	433.00
438.02	416.62
438.21	449.38
438.40	425.98
438.58	386.19
438.77	367.46
438.96	425.98
439.14	395.55
439.33	397.89
439.52	402.57
439.70	367.46
439.89	503.22
440.08	393.21
440.26	334.70
440.45	376.83
440.63	451.72
440.82	451.72
441.01	337.04
441.19	395.55
441.38	402.57
441.57	383.85
441.75	461.09
441.94	447.04
442.12	458.74
442.31	404.91
442.50	397.89
442.68	393.21
442.87	374.49
443.05	428.32
443.24	411.93
443.43	404.91
443.61	383.85
443.80	393.21
443.98	402.57
444.17	395.55
444.35	407.25
444.54	435.34
444.73	390.87
444.91	470.45
445.10	456.40
445.28	390.87
445.47	362.78
445.65	383.85
445.84	404.91
446.02	442.36
446.21	386.19
446.39	423.64
446.58	367.46
446.77	339.38
446.95	365.12
447.14	386.19
447.32	451.72
447.51	442.36
447.69	383.85
447.88	416.62
448.06	500.87
448.25	393.21
448.43	393.21
448.62	414.27
448.80	395.55
448.99	470.45
449.17	465.77
449.36	411.93
449.54	456.40
449.73	353.42
449.91	428.32
450.10	341.72
450.28	458.74
450.46	486.83
450.65	407.25
450.83	475.13
451.02	409.59
451.20	425.98
451.39	386.19
451.57	402.57
451.76	386.19
451.94	390.87
452.13	388.53
452.31	395.55
452.49	397.89
452.68	418.96
452.86	456.40
453.05	409.59
453.23	451.72
453.42	318.31
453.60	407.25
453.78	379.17
453.97	402.57
454.15	381.51
454.34	397.89
454.52	451.72
454.70	449.38
454.89	395.55
455.07	353.42
455.26	397.89
455.44	433.00
455.62	360.44
455.81	470.45
455.99	400.23
456.17	416.62
456.36	447.04
456.54	456.40
456.73	454.06
456.91	386.19
457.09	339.38
457.28	407.25
457.46	440.02
457.64	470.45
457.83	433.00
458.01	379.17
458.19	404.91
458.38	444.70
458.56	449.38
458.74	376.83
458.93	341.72
459.11	400.23
459.29	367.46
459.48	454.06
459.66	472.79
459.84	449.38
460.03	461.09
460.21	418.96
460.39	430.66
460.57	376.83
460.76	411.93
460.94	421.30
461.12	433.00
461.31	510.24
461.49	369.80
461.67	437.68
461.85	365.12
462.04	414.27
462.22	802.80
462.40	428.32
462.59	491.51
462.77	353.42
462.95	435.34
463.13	456.40
463.32	430.66
463.50	423.64
463.68	376.83
463.86	372.15
464.05	414.27
464.23	418.96
464.41	456.40
464.59	444.70
464.78	411.93
464.96	458.74
465.14	454.06
465.32	484.49
465.50	390.87
465.69	423.64
465.87	390.87
466.05	393.21
466.23	386.19
466.41	411.93
466.60	477.47
466.78	468.11
466.96	379.17
467.14	404.91
467.32	496.19
467.51	358.10
467.69	435.34
467.87	386.19
468.05	416.62
468.23	397.89
468.41	496.19
468.60	484.49
468.78	411.93
468.96	440.02
469.14	393.21
469.32	320.65
469.50	341.72
469.69	393.21
469.87	447.04
470.05	430.66
470.23	423.64
470.41	386.19
470.59	367.46
470.77	425.98
470.95	393.21
471.14	411.93
471.32	315.97
471.50	414.27
471.68	395.55
471.86	386.19
472.04	386.19
472.22	454.06
472.40	421.30
472.58	374.49
472.77	425.98
472.95	440.02
473.13	395.55
473.31	369.80
473.49	491.51
473.67	423.64
473.85	454.06
474.03	411.93
474.21	414.27
474.39	440.02
474.57	402.57
474.75	379.17
474.93	458.74
475.12	376.83
475.30	421.30
475.48	376.83
475.66	407.25
475.84	433.00
476.02	374.49
476.20	400.23
476.38	409.59
476.56	461.09
476.74	421.30
476.92	407.25
477.10	388.53
477.28	348.74
477.46	402.57
477.64	383.85
477.82	381.51
478.00	440.02
478.18	397.89
478.36	395.55
478.54	418.96
478.72	414.27
478.90	411.93
479.08	346.40
479.26	367.46
479.44	379.17
479.62	402.57
479.80	416.62
479.98	381.51
480.16	381.51
480.34	414.27
480.52	425.98
480.70	425.98
480.88	416.62
481.06	414.27
481.24	397.89
481.41	428.32
481.59	437.68
481.77	433.00
481.95	416.62
482.13	454.06
482.31	393.21
482.49	407.25
482.67	454.06
482.85	416.62
483.03	449.38
483.21	411.93
483.39	418.96
483.57	517.26
483.74	461.09
483.92	437.68
484.10	447.04
484.28	454.06
484.46	409.59
484.64	442.36
484.82	507.90
485.00	418.96
485.18	348.74
485.35	444.70
485.53	383.85
485.71	503.22
485.89	428.32
486.07	383.85
486.25	519.60
486.43	372.15
486.61	425.98
486.78	421.30
486.96	367.46
487.14	390.87
487.32	360.44
487.50	390.87
487.68	437.68
487.85	421.30
488.03	365.12
488.21	477.47
488.39	383.85
488.57	369.80
488.75	365.12
488.92	503.22
489.10	346.40
489.28	374.49
489.46	404.91
489.64	437.68
489.81	362.78
489.99	416.62
490.17	367.46
490.35	433.00
490.53	416.62
490.70	355.76
490.88	468.11
491.06	414.27
491.24	451.72
491.41	451.72
491.59	465.77
491.77	404.91
491.95	416.62
492.13	484.49
492.30	454.06
492.48	409.59
492.66	388.53
492.84	383.85
493.01	402.57
493.19	433.00
493.37	463.43
493.54	393.21
493.72	365.12
493.90	372.15
494.08	423.64
494.25	397.89
494.43	397.89
494.61	416.62
494.79	402.57
494.96	447.04
495.14	421.30
495.32	374.49
495.49	360.44
495.67	425.98
495.85	365.12
496.02	425.98
496.20	386.19
496.38	407.25
496.55	430.66
496.73	362.78
496.91	461.09
497.09	475.13
497.26	423.64
497.44	341.72
497.62	435.34
497.79	397.89
497.97	409.59
498.14	461.09
498.32	444.70
498.50	397.89
498.67	414.27
498.85	433.00
499.03	355.76
499.20	423.64
499.38	447.04
499.56	390.87
499.73	369.80
499.91	428.32
500.08	458.74
500.26	367.46
500.44	449.38
500.61	433.00
500.79	444.70
500.97	421.30
501.14	402.57
501.32	458.74
501.49	374.49
501.67	414.27
501.84	372.15
502.02	362.78
502.20	470.45
502.37	458.74
502.55	395.55
502.72	414.27
502.90	414.27
503.07	468.11
503.25	407.25
503.43	386.19
503.60	484.49
503.78	517.26
503.95	346.40
504.13	482.15
504.30	404.91
504.48	433.00
504.65	390.87
504.83	465.77
505.01	386.19
505.18	390.87
505.36	388.53
505.53	397.89
505.71	376.83
505.88	386.19
506.06	365.12
506.23	381.51
506.41	372.15
506.58	449.38
506.76	416.62
506.93	304.27
507.11	395.55
507.28	416.62
507.46	397.89
507.63	390.87
507.81	379.17
507.98	470.45
508.16	442.36
508.33	444.70
508.50	433.00
508.68	428.32
508.85	430.66
509.03	379.17
509.20	484.49
509.38	416.62
509.55	465.77
509.73	437.68
509.90	425.98
510.08	437.68
510.25	423.64
510.42	418.96
510.60	416.62
510.77	423.64
510.95	390.87
511.12	456.40
511.30	468.11
511.47	337.04
511.64	435.34
511.82	388.53
511.99	428.32
512.17	379.17
512.34	449.38
512.51	409.59
512.69	355.76
512.86	449.38
513.04	447.04
513.21	425.98
513.38	430.66
513.56	381.51
513.73	416.62
513.90	440.02
514.08	393.21
514.25	376.83
514.43	468.11
514.60	374.49
514.77	458.74
514.95	418.96
515.12	376.83
515.29	337.04
515.47	339.38
515.64	447.04
515.81	477.47
515.99	475.13
516.16	393.21
516.33	433.00
516.51	414.27
516.68	383.85
516.85	416.62
517.03	451.72
517.20	358.10
517.37	414.27
517.54	400.23
517.72	444.70
517.89	365.12
518.06	421.30
518.24	454.06
518.41	491.51
518.58	341.72
518.75	372.15
518.93	376.83
519.10	376.83
519.27	430.66
519.45	402.57
519.62	397.89
519.79	437.68
519.96	388.53
520.14	437.68
520.31	433.00
520.48	409.59
520.65	411.93
520.83	397.89
521.00	428.32
521.17	428.32
521.34	383.85
521.52	440.02
521.69	372.15
521.86	433.00
522.03	510.24
522.20	528.96
522.38	386.19
522.55	428.32
522.72	465.77
522.89	428.32
523.07	416.62
523.24	444.70
523.41	428.32
523.58	435.34
523.75	430.66
523.92	388.53
524.10	442.36
524.27	418.96
524.44	400.23
524.61	409.59
524.78	428.32
524.96	395.55
525.13	421.30
525.30	332.36
525.47	449.38
525.64	369.80
525.81	437.68
525.98	503.22
526.16	482.15
526.33	400.23
526.50	365.12
526.67	404.91
526.84	348.74
527.01	341.72
527.18	409.59
527.36	365.12
527.53	372.15
527.70	507.90
527.87	414.27
528.04	444.70
528.21	402.57
528.38	451.72
528.55	430.66
528.72	430.66
528.89	423.64
529.07	390.87
529.24	397.89
529.41	376.83
529.58	416.62
529.75	362.78
529.92	404.91
530.09	451.72
530.26	428.32
530.43	358.10
530.60	383.85
530.77	407.25
530.94	355.76
531.11	442.36
531.28	444.70
531.46	369.80
531.63	437.68
531.80	465.77
531.97	390.87
532.14	472.79
532.31	360.44
532.48	461.09
532.65	435.34
532.82	372.15
532.99	383.85
533.16	374.49
533.33	393.21
533.50	393.21
533.67	367.46
533.84	353.42
534.01	407.25
534.18	416.62
534.35	425.98
534.52	393.21
534.69	444.70
534.86	421.30
535.03	411.93
535.20	423.64
535.37	402.57
535.54	465.77
535.71	418.96
535.88	390.87
536.05	433.00
536.22	451.72
536.38	376.83
536.55	397.89
536.72	458.74
536.89	362.78
537.06	456.40
537.23	381.51
537.40	365.12
537.57	421.30
537.74	463.43
537.91	351.08
538.08	365.12
538.25	433.00
538.42	337.04
538.59	388.53
538.75	390.87
538.92	465.77
539.09	393.21
539.26	386.19
539.43	430.66
539.60	463.43
539.77	449.38
539.94	409.59
540.11	477.47
540.28	430.66
540.44	493.85
540.61	411.93
540.78	407.25
540.95	505.56
541.12	475.13
541.29	388.53
541.46	451.72
541.62	475.13
541.79	475.13
541.96	330.02
542.13	355.76
542.30	425.98
542.47	402.57
542.63	449.38
542.80	416.62
542.97	341.72
543.14	404.91
543.31	430.66
543.48	444.70
543.64	379.17
543.81	433.00
543.98	440.02
544.15	388.53
544.32	444.70
544.48	425.98
544.65	397.89
544.82	367.46
544.99	454.06
545.16	402.57
545.32	425.98
545.49	444.70
545.66	433.00
545.83	374.49
546.00	388.53
546.16	330.02
546.33	428.32
546.50	440.02
546.67	496.19
546.83	421.30
547.00	353.42
547.17	435.34
547.34	543.00
547.50	416.62
547.67	376.83
547.84	411.93
548.00	395.55
548.17	407.25
548.34	411.93
548.51	440.02
548.67	418.96
548.84	393.21
549.01	402.57
549.18	402.57
549.34	451.72
549.51	444.70
549.68	360.44
549.84	428.32
550.01	365.12
550.18	390.87
550.34	503.22
550.51	421.30
550.68	484.49
550.84	376.83
551.01	414.27
551.18	435.34
551.34	411.93
551.51	400.23
551.68	451.72
551.84	372.15
552.01	458.74
552.18	414.27
552.34	428.32
552.51	348.74
552.68	404.91
552.84	404.91
553.01	407.25
553.18	437.68
553.34	411.93
553.51	379.17
553.67	402.57
553.84	414.27
554.01	393.21
554.17	414.27
554.34	386.19
554.51	386.19
554.67	461.09
554.84	383.85
555.00	400.23
555.17	421.30
555.33	386.19
555.50	449.38
555.67	479.81
555.83	379.17
556.00	435.34
556.16	514.92
556.33	456.40
556.50	407.25
556.66	433.00
556.83	425.98
556.99	454.06
557.16	353.42
557.32	372.15
557.49	330.02
557.65	430.66
557.82	372.15
557.98	433.00
558.15	379.17
558.32	367.46
558.48	383.85
558.65	365.12
558.81	425.98
558.98	465.77
559.14	505.56
559.31	418.96
559.47	451.72
559.64	367.46
559.80	367.46
559.97	411.93
560.13	381.51
560.30	381.51
560.46	393.21
560.63	407.25
560.79	400.23
560.96	489.17
561.12	430.66
561.29	409.59
561.45	451.72
561.61	404.91
561.78	535.98
561.94	407.25
562.11	475.13
562.27	416.62
562.44	507.90
562.60	418.96
562.77	444.70
562.93	461.09
563.10	376.83
563.26	430.66
563.42	428.32
563.59	421.30
563.75	390.87
563.92	433.00
564.08	386.19
564.24	465.77
564.41	456.40
564.57	393.21
564.74	358.10
564.90	421.30
565.07	393.21
565.23	470.45
565.39	482.15
565.56	465.77
565.72	381.51
565.88	437.68
566.05	458.74
566.21	381.51
566.38	451.72
566.54	437.68
566.70	400.23
566.87	407.25
567.03	416.62
567.19	479.81
567.36	484.49
567.52	447.04
567.68	451.72
567.85	407.25
568.01	409.59
568.17	383.85
568.34	458.74
568.50	425.98
568.66	360.44
568.83	496.19
568.99	437.68
569.15	442.36
569.32	454.06
569.48	411.93
569.64	372.15
569.81	362.78
569.97	428.32
570.13	355.76
570.30	416.62
570.46	421.30
570.62	447.04
570.78	458.74
570.95	407.25
571.11	388.53
571.27	447.04
571.43	393.21
571.60	430.66
571.76	376.83
571.92	482.15
572.09	404.91
572.25	397.89
572.41	395.55
572.57	393.21
572.74	449.38
572.90	386.19
573.06	479.81
573.22	423.64
573.38	458.74
573.55	416.62
573.71	449.38
573.87	486.83
574.03	411.93
574.20	456.40
574.36	449.38
574.52	414.27
574.68	430.66
574.84	409.59
575.01	451.72
575.17	468.11
575.33	374.49
575.49	404.91
575.65	442.36
575.82	414.27
575.98	430.66
576.14	411.93
576.30	435.34
576.46	451.72
576.62	421.30
576.79	407.25
576.95	442.36
577.11	444.70
577.27	358.10
577.43	425.98
577.59	376.83
577.75	409.59
577.92	414.27
578.08	416.62
578.24	433.00
578.40	519.60
578.56	367.46
578.72	416.62
578.88	433.00
579.04	461.09
579.21	433.00
579.37	430.66
579.53	486.83
579.69	482.15
579.85	421.30
580.01	372.15
580.17	491.51
580.33	416.62
580.49	402.57
580.65	500.87
580.82	360.44
580.98	463.43
581.14	421.30
581.30	442.36
581.46	395.55
581.62	451.72
581.78	334.70
581.94	440.02
582.10	376.83
582.26	381.51
582.42	400.23
582.58	409.59
582.74	397.89
582.90	376.83
583.06	442.36
583.22	414.27
583.38	435.34
583.54	416.62
583.70	421.30
583.86	388.53
584.02	400.23
584.18	456.40
584.34	397.89
584.50	442.36
584.66	496.19
584.82	416.62
584.98	442.36
585.14	425.98
585.30	444.70
585.46	334.70
585.62	430.66
585.78	430.66
585.94	456.40
586.10	472.79
586.26	404.91
586.42	512.58
586.58	402.57
586.74	468.11
586.90	418.96
587.06	397.89
587.22	449.38
587.38	374.49
587.54	348.74
587.70	395.55
587.86	425.98
588.02	400.23
588.18	428.32
588.34	472.79
588.49	454.06
588.65	442.36
588.81	449.38
588.97	425.98
589.13	400.23
589.29	425.98
589.45	458.74
589.61	388.53
589.77	433.00
589.93	442.36
590.08	444.70
590.24	444.70
590.40	425.98
590.56	458.74
590.72	416.62
590.88	355.76
591.04	423.64
591.20	388.53
591.35	479.81
591.51	416.62
591.67	440.02
591.83	440.02
591.99	388.53
592.15	407.25
592.31	404.91
592.46	407.25
592.62	503.22
592.78	414.27
592.94	414.27
593.10	407.25
593.26	411.93
593.41	498.53
593.57	437.68
593.73	428.32
593.89	440.02
594.05	397.89
594.20	444.70
594.36	423.64
594.52	423.64
594.68	376.83
594.84	440.02
594.99	456.40
595.15	383.85
595.31	447.04
595.47	425.98
595.62	369.80
595.78	425.98
595.94	414.27
596.10	395.55
596.25	388.53
596.41	463.43
596.57	414.27
596.73	374.49
596.88	374.49
597.04	409.59
597.20	346.40
597.36	435.34
597.51	407.25
597.67	390.87
597.83	393.21
597.99	454.06
598.14	418.96
598.30	404.91
598.46	414.27
598.61	428.32
598.77	393.21
598.93	423.64
599.09	454.06
599.24	444.70
599.40	463.43
599.56	402.57
599.71	435.34
599.87	402.57
600.03	454.06
600.18	435.34
600.34	390.87
600.50	383.85
600.65	383.85
600.81	433.00
600.97	397.89
601.12	414.27
601.28	411.93
601.44	400.23
601.59	381.51
601.75	402.57
601.91	423.64
602.06	414.27
602.22	554.71
602.37	372.15
602.53	440.02
602.69	458.74
602.84	367.46
603.00	397.89
603.16	388.53
603.31	458.74
603.47	447.04
603.62	437.68
603.78	454.06
603.94	437.68
604.09	360.44
604.25	414.27
604.40	451.72
604.56	411.93
604.71	428.32
604.87	484.49
605.03	348.74
605.18	414.27
605.34	400.23
605.49	454.06
605.65	386.19
605.80	369.80
605.96	428.32
606.12	395.55
606.27	451.72
606.43	456.40
606.58	428.32
606.74	421.30
606.89	393.21
607.05	393.21
607.20	461.09
607.36	463.43
607.51	365.12
607.67	423.64
607.82	435.34
607.98	454.06
608.13	397.89
608.29	416.62
608.44	428.32
608.60	416.62
608.75	425.98
608.91	433.00
609.06	444.70
609.22	393.21
609.37	425.98
609.53	348.74
609.68	486.83
609.84	362.78
609.99	444.70
610.15	423.64
610.30	308.95
610.46	435.34
610.61	402.57
610.76	379.17
610.92	430.66
611.07	407.25
611.23	468.11
611.38	442.36
611.54	475.13
611.69	386.19
611.84	498.53
612.00	355.76
612.15	374.49
612.31	442.36
612.46	358.10
612.62	456.40
612.77	465.77
612.92	444.70
613.08	440.02
613.23	423.64
613.39	444.70
613.54	395.55
613.69	404.91
613.85	533.64
614.00	379.17
614.15	456.40
614.31	435.34
614.46	416.62
614.62	381.51
614.77	437.68
614.92	435.34
615.08	390.87
615.23	358.10
615.38	397.89
615.54	379.17
615.69	442.36
615.84	414.27
616.00	451.72
616.15	447.04
616.30	393.21
616.46	425.98
616.61	414.27
616.76	451.72
616.92	470.45
617.07	393.21
617.22	418.96
617.37	463.43
617.53	418.96
617.68	447.04
617.83	379.17
617.99	381.51
618.14	489.17
618.29	454.06
618.45	355.76
618.60	383.85
618.75	369.80
618.90	365.12
619.06	393.21
619.21	451.72
619.36	444.70
619.51	437.68
619.67	383.85
619.82	435.34
619.97	461.09
620.12	423.64
620.28	428.32
620.43	397.89
620.58	461.09
620.73	447.04
620.89	416.62
621.04	407.25
621.19	512.58
621.34	435.34
621.49	425.98
621.65	437.68
621.80	414.27
621.95	411.93
622.10	414.27
622.25	390.87
622.41	376.83
622.56	447.04
622.71	479.81
622.86	393.21
623.01	433.00
623.16	479.81
623.32	393.21
623.47	376.83
623.62	456.40
623.77	451.72
623.92	425.98
624.07	444.70
624.23	451.72
624.38	421.30
624.53	376.83
624.68	479.81
624.83	411.93
624.98	390.87
625.13	428.32
625.29	395.55
625.44	425.98
625.59	430.66
625.74	425.98
625.89	367.46
626.04	433.00
626.19	458.74
626.34	383.85
626.49	449.38
626.65	369.80
626.80	376.83
626.95	390.87
627.10	351.08
627.25	489.17
627.40	407.25
627.55	397.89
627.70	454.06
627.85	447.04
628.00	379.17
628.15	440.02
628.30	454.06
628.45	407.25
628.60	395.55
628.76	447.04
628.91	407.25
629.06	470.45
629.21	437.68
629.36	407.25
629.51	383.85
629.66	400.23
629.81	348.74
629.96	367.46
630.11	458.74
630.26	358.10
630.41	393.21
630.56	442.36
630.71	421.30
630.86	433.00
631.01	461.09
631.16	379.17
631.31	454.06
631.46	383.85
631.61	393.21
631.76	388.53
631.91	404.91
632.06	393.21
632.21	402.57
632.36	390.87
632.51	409.59
632.66	376.83
632.81	367.46
632.96	409.59
633.10	444.70
633.25	444.70
633.40	418.96
633.55	414.27
633.70	393.21
633.85	395.55
634.00	421.30
634.15	374.49
634.30	372.15
634.45	411.93
634.60	458.74
634.75	367.46
634.90	383.85
635.05	388.53
635.19	430.66
635.34	376.83
635.49	472.79
635.64	416.62
635.79	322.99
635.94	493.85
636.09	451.72
636.24	414.27
636.39	468.11
636.53	416.62
636.68	456.40
636.83	393.21
636.98	362.78
637.13	372.15
637.28	383.85
637.43	461.09
637.57	386.19
637.72	428.32
637.87	346.40
638.02	404.91
638.17	416.62
638.32	449.38
638.46	362.78
638.61	458.74
638.76	437.68
638.91	514.92
639.06	374.49
639.20	433.00
639.35	351.08
639.50	454.06
639.65	447.04
639.80	416.62
639.94	423.64
640.09	468.11
640.24	397.89
640.39	454.06
640.54	437.68
640.68	421.30
640.83	402.57
640.98	395.55
641.13	449.38
641.27	409.59
641.42	369.80
641.57	390.87
641.72	430.66
641.86	425.98
642.01	362.78
642.16	414.27
642.31	404.91
642.45	449.38
642.60	418.96
642.75	433.00
642.90	505.56
643.04	402.57
643.19	433.00
643.34	369.80
643.48	425.98
643.63	468.11
643.78	421.30
643.93	475.13
644.07	440.02
644.22	390.87
644.37	479.81
644.51	433.00
644.66	372.15
644.81	463.43
644.95	416.62
645.10	411.93
645.25	358.10
645.39	505.56
645.54	461.09
645.69	449.38
645.83	365.12
645.98	423.64
646.13	449.38
646.27	435.34
646.42	344.06
646.57	440.02
646.71	470.45
646.86	435.34
647.00	418.96
647.15	425.98
647.30	334.70
647.44	383.85
647.59	435.34
647.74	372.15
647.88	428.32
648.03	381.51
648.17	454.06
648.32	428.32
648.47	479.81
648.61	362.78
648.76	440.02
648.90	397.89
649.05	458.74
649.20	383.85
649.34	383.85
649.49	421.30
649.63	428.32
649.78	355.76
649.92	400.23
650.07	458.74
650.21	428.32
650.36	456.40
650.51	365.12
650.65	388.53
650.80	425.98
650.94	414.27
651.09	365.12
651.23	315.97
651.38	425.98
651.52	400.23
651.67	447.04
651.81	374.49
651.96	482.15
652.10	458.74
652.25	402.57
652.39	379.17
652.54	390.87
652.68	386.19
652.83	507.90
652.97	472.79
653.12	421.30
653.26	381.51
653.41	531.30
653.55	414.27
653.70	365.12
653.84	409.59
653.99	440.02
654.13	407.25
654.27	440.02
654.42	463.43
654.56	444.70
654.71	369.80
654.85	397.89
655.00	376.83
655.14	390.87
655.29	344.06
655.43	482.15
655.57	430.66
655.72	397.89
655.86	489.17
656.01	454.06
656.15	404.91
656.30	430.66
656.44	388.53
656.58	421.30
656.73	404.91
656.87	374.49
657.01	367.46
657.16	421.30
657.30	414.27
657.45	489.17
657.59	386.19
657.73	461.09
657.88	418.96
658.02	444.70
658.16	404.91
658.31	313.63
658.45	355.76
658.60	449.38
658.74	379.17
658.88	388.53
659.03	390.87
659.17	402.57
659.31	423.64
659.46	435.34
659.60	374.49
659.74	454.06
659.89	411.93
660.03	463.43
660.17	533.64
660.32	407.25
660.46	409.59
660.60	334.70
660.74	409.59
660.89	383.85
661.03	381.51
661.17	369.80
661.32	428.32
661.46	388.53
661.60	454.06
661.74	386.19
661.89	404.91
662.03	414.27
662.17	468.11
662.31	440.02
662.46	400.23
662.60	440.02
662.74	444.70
662.88	463.43
663.03	463.43
663.17	451.72
663.31	442.36
663.45	430.66
663.60	369.80
663.74	369.80
663.88	440.02
664.02	435.34
664.17	351.08
664.31	390.87
664.45	388.53
664.59	344.06
664.73	400.23
664.88	442.36
665.02	402.57
665.16	372.15
665.30	463.43
665.44	414.27
665.59	416.62
665.73	409.59
665.87	423.64
666.01	395.55
666.15	461.09
666.29	362.78
666.44	449.38
666.58	498.53
666.72	414.27
666.86	388.53
667.00	400.23
667.14	414.27
667.28	440.02
667.43	330.02
667.57	409.59
667.71	397.89
667.85	414.27
667.99	440.02
668.13	407.25
668.27	397.89
668.41	423.64
668.56	468.11
668.70	451.72
668.84	397.89
668.98	362.78
669.12	397.89
669.26	470.45
669.40	468.11
669.54	449.38
669.68	400.23
669.82	390.87
669.96	472.79
670.10	486.83
670.25	414.27
670.39	423.64
670.53	463.43
670.67	416.62
670.81	430.66
670.95	461.09
671.09	437.68
671.23	414.27
671.37	346.40
671.51	407.25
671.65	397.89
671.79	393.21
671.93	477.47
672.07	503.22
672.21	442.36
672.35	379.17
672.49	486.83
672.63	407.25
672.77	414.27
672.91	433.00
673.05	421.30
673.19	402.57
673.33	418.96
673.47	418.96
673.61	341.72
673.75	397.89
673.89	381.51
674.03	482.15
674.17	458.74
674.31	489.17
674.45	402.57
674.59	475.13
674.73	327.68
674.87	407.25
675.01	365.12
675.15	407.25
675.29	491.51
675.43	456.40
675.56	444.70
675.70	465.77
675.84	388.53
675.98	390.87
676.12	416.62
676.26	411.93
676.40	376.83
676.54	381.51
676.68	383.85
676.82	440.02
676.96	381.51
677.10	390.87
677.23	416.62
677.37	404.91
677.51	397.89
677.65	458.74
677.79	421.30
677.93	400.23
678.07	365.12
678.21	397.89
678.34	397.89
678.48	430.66
678.62	381.51
678.76	414.27
678.90	489.17
679.04	430.66
679.18	458.74
679.31	477.47
679.45	428.32
679.59	376.83
679.73	486.83
679.87	402.57
680.00	397.89
680.14	477.47
680.28	498.53
680.42	355.76
680.56	374.49
680.70	402.57
680.83	477.47
680.97	360.44
681.11	400.23
681.25	390.87
681.39	374.49
681.52	407.25
681.66	456.40
681.80	376.83
681.94	402.57
682.07	397.89
682.21	425.98
682.35	468.11
682.49	355.76
682.62	402.57
682.76	358.10
682.90	386.19
683.04	353.42
683.17	414.27
683.31	451.72
683.45	411.93
683.59	414.27
683.72	500.87
683.86	388.53
684.00	393.21
684.13	437.68
684.27	425.98
684.41	437.68
684.55	393.21
684.68	430.66
684.82	358.10
684.96	468.11
685.09	512.58
685.23	365.12
685.37	404.91
685.50	390.87
685.64	451.72
685.78	428.32
685.91	456.40
686.05	435.34
686.19	372.15
686.32	411.93
686.46	388.53
686.60	407.25
686.73	475.13
686.87	493.85
687.01	437.68
687.14	339.38
687.28	367.46
687.42	360.44
687.55	355.76
687.69	437.68
687.82	346.40
687.96	407.25
688.10	423.64
688.23	477.47
688.37	400.23
688.50	402.57
688.64	442.36
688.78	369.80
688.91	407.25
689.05	360.44
689.18	362.78
689.32	400.23
689.46	386.19
689.59	447.04
689.73	400.23
689.86	421.30
690.00	416.62
690.13	472.79
690.27	442.36
690.41	397.89
690.54	435.34
690.68	428.32
690.81	388.53
690.95	374.49
691.08	421.30
691.22	451.72
691.35	379.17
691.49	423.64
691.62	435.34
691.76	379.17
691.89	451.72
692.03	470.45
692.16	397.89
692.30	411.93
692.43	479.81
692.57	353.42
692.70	393.21
692.84	397.89
692.97	451.72
693.11	470.45
693.24	454.06
693.38	414.27
693.51	437.68
693.65	409.59
693.78	376.83
693.92	409.59
694.05	479.81
694.19	369.80
694.32	444.70
694.45	423.64
694.59	374.49
694.72	390.87
694.86	437.68
694.99	332.36
695.13	423.64
695.26	437.68
695.39	430.66
695.53	418.96
695.66	423.64
695.80	440.02
695.93	376.83
696.07	339.38
696.20	421.30
696.33	372.15
696.47	374.49
696.60	418.96
696.73	404.91
696.87	346.40
697.00	435.34
697.14	362.78
697.27	425.98
697.40	484.49
697.54	388.53
697.67	456.40
697.80	402.57
697.94	411.93
698.07	421.30
698.21	454.06
698.34	360.44
698.47	304.27
698.61	411.93
698.74	444.70
698.87	470.45
699.01	433.00
699.14	393.21
699.27	425.98
699.40	458.74
699.54	449.38
699.67	407.25
699.80	414.27
699.94	381.51
700.07	435.34
700.20	386.19
700.34	449.38
700.47	493.85
700.60	482.15
700.73	428.32
700.87	484.49
701.00	365.12
701.13	454.06
701.26	409.59
701.40	411.93
701.53	454.06
701.66	491.51
701.79	440.02
701.93	393.21
702.06	379.17
702.19	421.30
702.32	397.89
702.46	414.27
702.59	451.72
702.72	421.30
702.85	409.59
702.99	372.15
703.12	454.06
703.25	433.00
703.38	435.34
703.51	451.72
703.65	468.11
703.78	386.19
703.91	451.72
704.04	435.34
704.17	442.36
704.31	383.85
704.44	395.55
704.57	493.85
704.70	458.74
704.83	386.19
704.96	395.55
705.10	472.79
705.23	477.47
>>>>>End Processed Spectral Data<<<<<
