SpectraSuite Data File
++++++++++++++++++++++++++++++++++++
Date: Fri Oct 25 12:11:05 EDT 2013
User: price-jones
Dark Spectrum Present: No
Reference Spectrum Present: No
Number of Sampled Component Spectra: 1
Spectrometers: USB2+H05261
Integration Time (usec): 100000 (USB2+H05261)
Spectra Averaged: 1 (USB2+H05261)
Boxcar Smoothing: 0 (USB2+H05261)
Correct for Electrical Dark: No (USB2+H05261)
Strobe/Lamp Enabled: No (USB2+H05261)
Correct for Detector Non-linearity: No (USB2+H05261)
Correct for Stray Light: No (USB2+H05261)
Number of Pixels in Processed Spectrum: 2048
>>>>>Begin Processed Spectral Data<<<<<
365.73	276.18
365.92	276.18
366.12	276.18
366.32	212.99
366.52	259.80
366.72	236.39
366.91	224.69
367.11	203.63
367.31	194.26
367.51	156.82
367.70	255.12
367.90	271.50
368.10	229.37
368.30	222.35
368.49	243.42
368.69	238.73
368.89	257.46
369.09	283.20
369.28	250.44
369.48	203.63
369.68	320.65
369.87	348.74
370.07	243.42
370.27	372.15
370.47	315.97
370.66	292.57
370.86	301.93
371.06	383.85
371.25	442.36
371.45	355.76
371.65	421.30
371.84	304.27
372.04	327.68
372.24	393.21
372.44	360.44
372.63	341.72
372.83	346.40
373.03	425.98
373.22	451.72
373.42	477.47
373.62	496.19
373.81	442.36
374.01	454.06
374.21	454.06
374.40	393.21
374.60	456.40
374.79	425.98
374.99	433.00
375.19	379.17
375.38	435.34
375.58	428.32
375.78	428.32
375.97	444.70
376.17	512.58
376.37	451.72
376.56	400.23
376.76	454.06
376.95	440.02
377.15	407.25
377.35	395.55
377.54	451.72
377.74	400.23
377.93	416.62
378.13	379.17
378.33	484.49
378.52	395.55
378.72	430.66
378.91	421.30
379.11	395.55
379.31	416.62
379.50	472.79
379.70	468.11
379.89	418.96
380.09	381.51
380.28	351.08
380.48	451.72
380.68	386.19
380.87	440.02
381.07	376.83
381.26	421.30
381.46	409.59
381.65	376.83
381.85	531.30
382.04	411.93
382.24	430.66
382.43	376.83
382.63	418.96
382.83	372.15
383.02	360.44
383.22	425.98
383.41	376.83
383.61	395.55
383.80	372.15
384.00	402.57
384.19	393.21
384.39	365.12
384.58	388.53
384.78	437.68
384.97	444.70
385.17	444.70
385.36	374.49
385.56	388.53
385.75	379.17
385.95	404.91
386.14	367.46
386.34	428.32
386.53	421.30
386.72	456.40
386.92	416.62
387.11	355.76
387.31	414.27
387.50	423.64
387.70	351.08
387.89	390.87
388.09	416.62
388.28	379.17
388.48	353.42
388.67	437.68
388.86	451.72
389.06	365.12
389.25	383.85
389.45	416.62
389.64	444.70
389.84	505.56
390.03	519.60
390.22	381.51
390.42	435.34
390.61	360.44
390.81	400.23
391.00	456.40
391.19	353.42
391.39	383.85
391.58	404.91
391.78	442.36
391.97	449.38
392.16	355.76
392.36	468.11
392.55	479.81
392.75	423.64
392.94	411.93
393.13	404.91
393.33	402.57
393.52	418.96
393.71	461.09
393.91	409.59
394.10	353.42
394.29	397.89
394.49	433.00
394.68	423.64
394.88	423.64
395.07	418.96
395.26	454.06
395.46	383.85
395.65	437.68
395.84	447.04
396.04	493.85
396.23	332.36
396.42	404.91
396.62	353.42
396.81	390.87
397.00	407.25
397.19	381.51
397.39	409.59
397.58	449.38
397.77	367.46
397.97	404.91
398.16	430.66
398.35	486.83
398.55	414.27
398.74	433.00
398.93	386.19
399.12	381.51
399.32	400.23
399.51	344.06
399.70	440.02
399.90	418.96
400.09	454.06
400.28	421.30
400.47	400.23
400.67	477.47
400.86	491.51
401.05	423.64
401.24	421.30
401.44	430.66
401.63	447.04
401.82	442.36
402.01	416.62
402.21	365.12
402.40	360.44
402.59	418.96
402.78	409.59
402.97	339.38
403.17	351.08
403.36	437.68
403.55	372.15
403.74	421.30
403.93	367.46
404.13	418.96
404.32	388.53
404.51	428.32
404.70	451.72
404.89	369.80
405.09	465.77
405.28	418.96
405.47	416.62
405.66	372.15
405.85	421.30
406.05	418.96
406.24	458.74
406.43	376.83
406.62	404.91
406.81	430.66
407.00	461.09
407.20	409.59
407.39	346.40
407.58	454.06
407.77	456.40
407.96	468.11
408.15	397.89
408.34	416.62
408.54	414.27
408.73	379.17
408.92	479.81
409.11	470.45
409.30	381.51
409.49	433.00
409.68	341.72
409.87	409.59
410.07	402.57
410.26	411.93
410.45	351.08
410.64	348.74
410.83	407.25
411.02	390.87
411.21	456.40
411.40	374.49
411.59	369.80
411.78	365.12
411.98	416.62
412.17	379.17
412.36	379.17
412.55	374.49
412.74	407.25
412.93	470.45
413.12	390.87
413.31	414.27
413.50	414.27
413.69	423.64
413.88	451.72
414.07	407.25
414.26	397.89
414.45	411.93
414.64	475.13
414.83	418.96
415.02	379.17
415.22	447.04
415.41	423.64
415.60	425.98
415.79	411.93
415.98	390.87
416.17	362.78
416.36	496.19
416.55	414.27
416.74	404.91
416.93	430.66
417.12	407.25
417.31	404.91
417.50	428.32
417.69	498.53
417.88	433.00
418.07	407.25
418.26	409.59
418.45	421.30
418.64	463.43
418.83	468.11
419.02	444.70
419.21	395.55
419.39	358.10
419.58	341.72
419.77	423.64
419.96	440.02
420.15	451.72
420.34	318.31
420.53	404.91
420.72	393.21
420.91	411.93
421.10	407.25
421.29	451.72
421.48	402.57
421.67	414.27
421.86	388.53
422.05	465.77
422.24	397.89
422.43	416.62
422.61	353.42
422.80	311.29
422.99	381.51
423.18	327.68
423.37	491.51
423.56	416.62
423.75	418.96
423.94	358.10
424.13	404.91
424.32	423.64
424.50	470.45
424.69	491.51
424.88	407.25
425.07	374.49
425.26	423.64
425.45	440.02
425.64	360.44
425.83	411.93
426.01	414.27
426.20	421.30
426.39	411.93
426.58	379.17
426.77	442.36
426.96	500.87
427.15	402.57
427.33	372.15
427.52	381.51
427.71	383.85
427.90	402.57
428.09	409.59
428.28	360.44
428.46	372.15
428.65	442.36
428.84	435.34
429.03	477.47
429.22	414.27
429.40	395.55
429.59	402.57
429.78	437.68
429.97	374.49
430.16	451.72
430.34	407.25
430.53	397.89
430.72	404.91
430.91	390.87
431.10	388.53
431.28	416.62
431.47	407.25
431.66	440.02
431.85	379.17
432.03	390.87
432.22	383.85
432.41	386.19
432.60	411.93
432.79	418.96
432.97	416.62
433.16	304.27
433.35	433.00
433.54	297.25
433.72	416.62
433.91	444.70
434.10	355.76
434.28	388.53
434.47	348.74
434.66	458.74
434.85	414.27
435.03	472.79
435.22	388.53
435.41	418.96
435.59	390.87
435.78	355.76
435.97	337.04
436.16	395.55
436.34	425.98
436.53	454.06
436.72	437.68
436.90	411.93
437.09	465.77
437.28	397.89
437.46	339.38
437.65	433.00
437.84	386.19
438.02	440.02
438.21	390.87
438.40	444.70
438.58	383.85
438.77	388.53
438.96	430.66
439.14	390.87
439.33	461.09
439.52	353.42
439.70	423.64
439.89	393.21
440.08	386.19
440.26	463.43
440.45	351.08
440.63	435.34
440.82	458.74
441.01	418.96
441.19	461.09
441.38	479.81
441.57	369.80
441.75	397.89
441.94	407.25
442.12	409.59
442.31	517.26
442.50	367.46
442.68	454.06
442.87	355.76
443.05	379.17
443.24	379.17
443.43	491.51
443.61	346.40
443.80	390.87
443.98	383.85
444.17	430.66
444.35	397.89
444.54	458.74
444.73	400.23
444.91	433.00
445.10	418.96
445.28	407.25
445.47	454.06
445.65	402.57
445.84	433.00
446.02	339.38
446.21	400.23
446.39	411.93
446.58	484.49
446.77	388.53
446.95	425.98
447.14	444.70
447.32	435.34
447.51	358.10
447.69	421.30
447.88	376.83
448.06	468.11
448.25	437.68
448.43	423.64
448.62	435.34
448.80	358.10
448.99	430.66
449.17	454.06
449.36	362.78
449.54	430.66
449.73	411.93
449.91	400.23
450.10	402.57
450.28	388.53
450.46	472.79
450.65	369.80
450.83	468.11
451.02	458.74
451.20	433.00
451.39	421.30
451.57	411.93
451.76	360.44
451.94	395.55
452.13	407.25
452.31	472.79
452.49	423.64
452.68	390.87
452.86	397.89
453.05	510.24
453.23	447.04
453.42	339.38
453.60	414.27
453.78	400.23
453.97	397.89
454.15	440.02
454.34	411.93
454.52	390.87
454.70	376.83
454.89	449.38
455.07	388.53
455.26	435.34
455.44	437.68
455.62	367.46
455.81	461.09
455.99	451.72
456.17	470.45
456.36	423.64
456.54	383.85
456.73	451.72
456.91	400.23
457.09	444.70
457.28	372.15
457.46	393.21
457.64	444.70
457.83	379.17
458.01	388.53
458.19	437.68
458.38	461.09
458.56	425.98
458.74	416.62
458.93	465.77
459.11	379.17
459.29	435.34
459.48	381.51
459.66	421.30
459.84	435.34
460.03	519.60
460.21	444.70
460.39	397.89
460.57	444.70
460.76	393.21
460.94	402.57
461.12	507.90
461.31	449.38
461.49	386.19
461.67	425.98
461.85	400.23
462.04	444.70
462.22	784.08
462.40	411.93
462.59	414.27
462.77	404.91
462.95	433.00
463.13	444.70
463.32	451.72
463.50	386.19
463.68	379.17
463.86	423.64
464.05	475.13
464.23	402.57
464.41	414.27
464.59	374.49
464.78	458.74
464.96	369.80
465.14	395.55
465.32	325.33
465.50	440.02
465.69	454.06
465.87	306.61
466.05	402.57
466.23	447.04
466.41	416.62
466.60	395.55
466.78	322.99
466.96	458.74
467.14	425.98
467.32	411.93
467.51	484.49
467.69	365.12
467.87	411.93
468.05	423.64
468.23	411.93
468.41	425.98
468.60	421.30
468.78	418.96
468.96	444.70
469.14	388.53
469.32	397.89
469.50	393.21
469.69	428.32
469.87	395.55
470.05	433.00
470.23	388.53
470.41	433.00
470.59	383.85
470.77	416.62
470.95	372.15
471.14	484.49
471.32	416.62
471.50	435.34
471.68	409.59
471.86	365.12
472.04	358.10
472.22	433.00
472.40	369.80
472.58	390.87
472.77	433.00
472.95	388.53
473.13	447.04
473.31	496.19
473.49	414.27
473.67	416.62
473.85	386.19
474.03	435.34
474.21	376.83
474.39	428.32
474.57	409.59
474.75	390.87
474.93	313.63
475.12	351.08
475.30	383.85
475.48	428.32
475.66	386.19
475.84	461.09
476.02	416.62
476.20	433.00
476.38	414.27
476.56	416.62
476.74	351.08
476.92	381.51
477.10	458.74
477.28	416.62
477.46	393.21
477.64	433.00
477.82	449.38
478.00	418.96
478.18	428.32
478.36	409.59
478.54	540.66
478.72	470.45
478.90	442.36
479.08	351.08
479.26	461.09
479.44	388.53
479.62	369.80
479.80	423.64
479.98	428.32
480.16	404.91
480.34	381.51
480.52	390.87
480.70	449.38
480.88	475.13
481.06	362.78
481.24	376.83
481.41	479.81
481.59	440.02
481.77	454.06
481.95	383.85
482.13	472.79
482.31	369.80
482.49	358.10
482.67	421.30
482.85	404.91
483.03	418.96
483.21	322.99
483.39	444.70
483.57	468.11
483.74	425.98
483.92	423.64
484.10	395.55
484.28	400.23
484.46	421.30
484.64	444.70
484.82	440.02
485.00	458.74
485.18	390.87
485.35	386.19
485.53	423.64
485.71	430.66
485.89	421.30
486.07	428.32
486.25	470.45
486.43	447.04
486.61	409.59
486.78	372.15
486.96	416.62
487.14	386.19
487.32	461.09
487.50	390.87
487.68	447.04
487.85	362.78
488.03	456.40
488.21	376.83
488.39	383.85
488.57	421.30
488.75	456.40
488.92	454.06
489.10	423.64
489.28	437.68
489.46	390.87
489.64	402.57
489.81	444.70
489.99	416.62
490.17	421.30
490.35	496.19
490.53	411.93
490.70	507.90
490.88	372.15
491.06	425.98
491.24	418.96
491.41	470.45
491.59	433.00
491.77	409.59
491.95	379.17
492.13	409.59
492.30	421.30
492.48	447.04
492.66	390.87
492.84	465.77
493.01	369.80
493.19	430.66
493.37	442.36
493.54	421.30
493.72	449.38
493.90	447.04
494.08	402.57
494.25	454.06
494.43	475.13
494.61	440.02
494.79	400.23
494.96	355.76
495.14	444.70
495.32	388.53
495.49	472.79
495.67	421.30
495.85	451.72
496.02	428.32
496.20	465.77
496.38	435.34
496.55	358.10
496.73	463.43
496.91	379.17
497.09	397.89
497.26	362.78
497.44	449.38
497.62	407.25
497.79	435.34
497.97	369.80
498.14	395.55
498.32	477.47
498.50	458.74
498.67	416.62
498.85	383.85
499.03	458.74
499.20	397.89
499.38	362.78
499.56	430.66
499.73	444.70
499.91	418.96
500.08	435.34
500.26	402.57
500.44	404.91
500.61	440.02
500.79	402.57
500.97	423.64
501.14	472.79
501.32	423.64
501.49	423.64
501.67	440.02
501.84	402.57
502.02	388.53
502.20	400.23
502.37	428.32
502.55	430.66
502.72	468.11
502.90	414.27
503.07	411.93
503.25	416.62
503.43	330.02
503.60	444.70
503.78	411.93
503.95	400.23
504.13	428.32
504.30	409.59
504.48	477.47
504.65	458.74
504.83	397.89
505.01	402.57
505.18	400.23
505.36	425.98
505.53	435.34
505.71	355.76
505.88	440.02
506.06	395.55
506.23	430.66
506.41	365.12
506.58	451.72
506.76	395.55
506.93	423.64
507.11	421.30
507.28	437.68
507.46	414.27
507.63	411.93
507.81	425.98
507.98	435.34
508.16	362.78
508.33	353.42
508.50	416.62
508.68	379.17
508.85	386.19
509.03	440.02
509.20	416.62
509.38	463.43
509.55	411.93
509.73	447.04
509.90	430.66
510.08	341.72
510.25	400.23
510.42	414.27
510.60	409.59
510.77	407.25
510.95	388.53
511.12	376.83
511.30	475.13
511.47	402.57
511.64	393.21
511.82	395.55
511.99	390.87
512.17	395.55
512.34	416.62
512.51	449.38
512.69	454.06
512.86	447.04
513.04	388.53
513.21	423.64
513.38	454.06
513.56	404.91
513.73	367.46
513.90	433.00
514.08	430.66
514.25	472.79
514.43	423.64
514.60	402.57
514.77	395.55
514.95	449.38
515.12	404.91
515.29	409.59
515.47	498.53
515.64	451.72
515.81	311.29
515.99	454.06
516.16	461.09
516.33	519.60
516.51	470.45
516.68	409.59
516.85	489.17
517.03	423.64
517.20	486.83
517.37	442.36
517.54	386.19
517.72	433.00
517.89	440.02
518.06	418.96
518.24	479.81
518.41	477.47
518.58	451.72
518.75	381.51
518.93	421.30
519.10	425.98
519.27	463.43
519.45	425.98
519.62	423.64
519.79	451.72
519.96	407.25
520.14	386.19
520.31	454.06
520.48	428.32
520.65	411.93
520.83	395.55
521.00	407.25
521.17	428.32
521.34	358.10
521.52	433.00
521.69	409.59
521.86	433.00
522.03	433.00
522.20	369.80
522.38	416.62
522.55	421.30
522.72	339.38
522.89	444.70
523.07	465.77
523.24	402.57
523.41	388.53
523.58	381.51
523.75	374.49
523.92	416.62
524.10	451.72
524.27	433.00
524.44	402.57
524.61	404.91
524.78	348.74
524.96	486.83
525.13	362.78
525.30	379.17
525.47	449.38
525.64	423.64
525.81	498.53
525.98	416.62
526.16	491.51
526.33	447.04
526.50	395.55
526.67	430.66
526.84	369.80
527.01	386.19
527.18	400.23
527.36	379.17
527.53	454.06
527.70	362.78
527.87	374.49
528.04	510.24
528.21	437.68
528.38	505.56
528.55	463.43
528.72	449.38
528.89	344.06
529.07	423.64
529.24	379.17
529.41	421.30
529.58	393.21
529.75	433.00
529.92	456.40
530.09	360.44
530.26	472.79
530.43	397.89
530.60	397.89
530.77	395.55
530.94	390.87
531.11	376.83
531.28	407.25
531.46	475.13
531.63	414.27
531.80	369.80
531.97	454.06
532.14	475.13
532.31	433.00
532.48	440.02
532.65	435.34
532.82	414.27
532.99	372.15
533.16	416.62
533.33	365.12
533.50	348.74
533.67	388.53
533.84	423.64
534.01	400.23
534.18	362.78
534.35	440.02
534.52	365.12
534.69	390.87
534.86	465.77
535.03	369.80
535.20	442.36
535.37	369.80
535.54	402.57
535.71	433.00
535.88	414.27
536.05	475.13
536.22	479.81
536.38	449.38
536.55	404.91
536.72	355.76
536.89	376.83
537.06	421.30
537.23	313.63
537.40	421.30
537.57	337.04
537.74	470.45
537.91	437.68
538.08	330.02
538.25	428.32
538.42	475.13
538.59	479.81
538.75	463.43
538.92	411.93
539.09	339.38
539.26	447.04
539.43	451.72
539.60	390.87
539.77	379.17
539.94	416.62
540.11	440.02
540.28	442.36
540.44	484.49
540.61	493.85
540.78	491.51
540.95	421.30
541.12	505.56
541.29	468.11
541.46	444.70
541.62	386.19
541.79	442.36
541.96	395.55
542.13	407.25
542.30	423.64
542.47	409.59
542.63	334.70
542.80	355.76
542.97	430.66
543.14	425.98
543.31	425.98
543.48	454.06
543.64	486.83
543.81	360.44
543.98	430.66
544.15	360.44
544.32	355.76
544.48	416.62
544.65	425.98
544.82	421.30
544.99	367.46
545.16	409.59
545.32	468.11
545.49	456.40
545.66	402.57
545.83	463.43
546.00	444.70
546.16	433.00
546.33	440.02
546.50	411.93
546.67	397.89
546.83	369.80
547.00	395.55
547.17	409.59
547.34	407.25
547.50	428.32
547.67	451.72
547.84	425.98
548.00	486.83
548.17	386.19
548.34	423.64
548.51	472.79
548.67	430.66
548.84	395.55
549.01	407.25
549.18	411.93
549.34	479.81
549.51	388.53
549.68	430.66
549.84	388.53
550.01	456.40
550.18	458.74
550.34	454.06
550.51	447.04
550.68	472.79
550.84	388.53
551.01	468.11
551.18	493.85
551.34	430.66
551.51	421.30
551.68	383.85
551.84	341.72
552.01	461.09
552.18	449.38
552.34	425.98
552.51	397.89
552.68	421.30
552.84	411.93
553.01	358.10
553.18	458.74
553.34	470.45
553.51	362.78
553.67	414.27
553.84	491.51
554.01	416.62
554.17	475.13
554.34	393.21
554.51	449.38
554.67	444.70
554.84	526.62
555.00	411.93
555.17	421.30
555.33	461.09
555.50	411.93
555.67	411.93
555.83	404.91
556.00	484.49
556.16	547.69
556.33	447.04
556.50	449.38
556.66	421.30
556.83	386.19
556.99	437.68
557.16	397.89
557.32	454.06
557.49	397.89
557.65	414.27
557.82	435.34
557.98	430.66
558.15	442.36
558.32	372.15
558.48	440.02
558.65	447.04
558.81	423.64
558.98	470.45
559.14	435.34
559.31	421.30
559.47	442.36
559.64	404.91
559.80	433.00
559.97	465.77
560.13	404.91
560.30	423.64
560.46	482.15
560.63	421.30
560.79	376.83
560.96	449.38
561.12	409.59
561.29	411.93
561.45	440.02
561.61	409.59
561.78	533.64
561.94	383.85
562.11	454.06
562.27	411.93
562.44	397.89
562.60	475.13
562.77	418.96
562.93	444.70
563.10	400.23
563.26	505.56
563.42	461.09
563.59	461.09
563.75	510.24
563.92	451.72
564.08	402.57
564.24	447.04
564.41	437.68
564.57	423.64
564.74	358.10
564.90	423.64
565.07	461.09
565.23	440.02
565.39	386.19
565.56	458.74
565.72	348.74
565.88	437.68
566.05	421.30
566.21	440.02
566.38	470.45
566.54	451.72
566.70	458.74
566.87	465.77
567.03	418.96
567.19	409.59
567.36	383.85
567.52	386.19
567.68	456.40
567.85	411.93
568.01	440.02
568.17	409.59
568.34	433.00
568.50	454.06
568.66	407.25
568.83	498.53
568.99	379.17
569.15	404.91
569.32	435.34
569.48	447.04
569.64	390.87
569.81	414.27
569.97	379.17
570.13	374.49
570.30	428.32
570.46	423.64
570.62	433.00
570.78	393.21
570.95	404.91
571.11	397.89
571.27	430.66
571.43	395.55
571.60	381.51
571.76	353.42
571.92	454.06
572.09	411.93
572.25	463.43
572.41	397.89
572.57	339.38
572.74	442.36
572.90	482.15
573.06	489.17
573.22	437.68
573.38	489.17
573.55	507.90
573.71	470.45
573.87	428.32
574.03	430.66
574.20	447.04
574.36	397.89
574.52	416.62
574.68	421.30
574.84	435.34
575.01	442.36
575.17	454.06
575.33	465.77
575.49	456.40
575.65	358.10
575.82	440.02
575.98	433.00
576.14	418.96
576.30	411.93
576.46	451.72
576.62	390.87
576.79	447.04
576.95	409.59
577.11	416.62
577.27	318.31
577.43	421.30
577.59	454.06
577.75	407.25
577.92	372.15
578.08	369.80
578.24	442.36
578.40	433.00
578.56	444.70
578.72	428.32
578.88	390.87
579.04	397.89
579.21	479.81
579.37	425.98
579.53	381.51
579.69	465.77
579.85	454.06
580.01	428.32
580.17	451.72
580.33	402.57
580.49	330.02
580.65	442.36
580.82	423.64
580.98	456.40
581.14	435.34
581.30	468.11
581.46	416.62
581.62	503.22
581.78	393.21
581.94	435.34
582.10	442.36
582.26	421.30
582.42	355.76
582.58	393.21
582.74	353.42
582.90	369.80
583.06	430.66
583.22	423.64
583.38	358.10
583.54	374.49
583.70	388.53
583.86	491.51
584.02	475.13
584.18	416.62
584.34	423.64
584.50	428.32
584.66	358.10
584.82	353.42
584.98	425.98
585.14	411.93
585.30	437.68
585.46	428.32
585.62	442.36
585.78	447.04
585.94	374.49
586.10	395.55
586.26	362.78
586.42	470.45
586.58	374.49
586.74	489.17
586.90	388.53
587.06	430.66
587.22	397.89
587.38	369.80
587.54	414.27
587.70	470.45
587.86	507.90
588.02	374.49
588.18	430.66
588.34	425.98
588.49	332.36
588.65	463.43
588.81	404.91
588.97	472.79
589.13	437.68
589.29	421.30
589.45	407.25
589.61	491.51
589.77	430.66
589.93	322.99
590.08	409.59
590.24	383.85
590.40	442.36
590.56	444.70
590.72	365.12
590.88	407.25
591.04	407.25
591.20	383.85
591.35	461.09
591.51	449.38
591.67	367.46
591.83	381.51
591.99	444.70
592.15	423.64
592.31	447.04
592.46	421.30
592.62	395.55
592.78	402.57
592.94	472.79
593.10	397.89
593.26	383.85
593.41	440.02
593.57	433.00
593.73	381.51
593.89	395.55
594.05	451.72
594.20	381.51
594.36	447.04
594.52	374.49
594.68	355.76
594.84	461.09
594.99	428.32
595.15	444.70
595.31	447.04
595.47	444.70
595.62	395.55
595.78	379.17
595.94	416.62
596.10	372.15
596.25	465.77
596.41	440.02
596.57	400.23
596.73	374.49
596.88	477.47
597.04	390.87
597.20	451.72
597.36	451.72
597.51	425.98
597.67	444.70
597.83	454.06
597.99	447.04
598.14	465.77
598.30	475.13
598.46	365.12
598.61	479.81
598.77	414.27
598.93	418.96
599.09	444.70
599.24	423.64
599.40	425.98
599.56	390.87
599.71	393.21
599.87	388.53
600.03	416.62
600.18	416.62
600.34	430.66
600.50	304.27
600.65	383.85
600.81	400.23
600.97	482.15
601.12	449.38
601.28	442.36
601.44	365.12
601.59	353.42
601.75	491.51
601.91	365.12
602.06	451.72
602.22	461.09
602.37	397.89
602.53	475.13
602.69	365.12
602.84	362.78
603.00	451.72
603.16	440.02
603.31	437.68
603.47	451.72
603.62	451.72
603.78	442.36
603.94	400.23
604.09	411.93
604.25	400.23
604.40	409.59
604.56	486.83
604.71	397.89
604.87	437.68
605.03	374.49
605.18	327.68
605.34	402.57
605.49	482.15
605.65	369.80
605.80	358.10
605.96	353.42
606.12	390.87
606.27	461.09
606.43	435.34
606.58	374.49
606.74	376.83
606.89	409.59
607.05	407.25
607.20	430.66
607.36	400.23
607.51	400.23
607.67	493.85
607.82	440.02
607.98	388.53
608.13	428.32
608.29	449.38
608.44	444.70
608.60	435.34
608.75	454.06
608.91	447.04
609.06	458.74
609.22	447.04
609.37	437.68
609.53	456.40
609.68	430.66
609.84	402.57
609.99	477.47
610.15	374.49
610.30	344.06
610.46	479.81
610.61	470.45
610.76	423.64
610.92	407.25
611.07	444.70
611.23	512.58
611.38	416.62
611.54	381.51
611.69	477.47
611.84	425.98
612.00	353.42
612.15	468.11
612.31	472.79
612.46	404.91
612.62	402.57
612.77	409.59
612.92	463.43
613.08	456.40
613.23	463.43
613.39	482.15
613.54	435.34
613.69	437.68
613.85	369.80
614.00	353.42
614.15	482.15
614.31	433.00
614.46	383.85
614.62	386.19
614.77	430.66
614.92	440.02
615.08	367.46
615.23	433.00
615.38	430.66
615.54	365.12
615.69	353.42
615.84	402.57
616.00	475.13
616.15	416.62
616.30	393.21
616.46	440.02
616.61	414.27
616.76	367.46
616.92	545.34
617.07	404.91
617.22	369.80
617.37	372.15
617.53	475.13
617.68	414.27
617.83	390.87
617.99	463.43
618.14	465.77
618.29	475.13
618.45	428.32
618.60	416.62
618.75	393.21
618.90	372.15
619.06	411.93
619.21	482.15
619.36	456.40
619.51	447.04
619.67	397.89
619.82	428.32
619.97	369.80
620.12	451.72
620.28	442.36
620.43	482.15
620.58	430.66
620.73	367.46
620.89	383.85
621.04	440.02
621.19	468.11
621.34	365.12
621.49	423.64
621.65	425.98
621.80	320.65
621.95	418.96
622.10	482.15
622.25	444.70
622.41	390.87
622.56	449.38
622.71	397.89
622.86	362.78
623.01	463.43
623.16	456.40
623.32	409.59
623.47	442.36
623.62	372.15
623.77	437.68
623.92	402.57
624.07	379.17
624.23	322.99
624.38	381.51
624.53	409.59
624.68	465.77
624.83	461.09
624.98	451.72
625.13	421.30
625.29	379.17
625.44	372.15
625.59	463.43
625.74	409.59
625.89	418.96
626.04	442.36
626.19	395.55
626.34	472.79
626.49	449.38
626.65	397.89
626.80	400.23
626.95	367.46
627.10	409.59
627.25	353.42
627.40	376.83
627.55	500.87
627.70	418.96
627.85	402.57
628.00	376.83
628.15	390.87
628.30	372.15
628.45	428.32
628.60	404.91
628.76	388.53
628.91	379.17
629.06	395.55
629.21	374.49
629.36	428.32
629.51	386.19
629.66	369.80
629.81	381.51
629.96	468.11
630.11	402.57
630.26	463.43
630.41	390.87
630.56	409.59
630.71	334.70
630.86	447.04
631.01	444.70
631.16	344.06
631.31	440.02
631.46	337.04
631.61	435.34
631.76	430.66
631.91	393.21
632.06	411.93
632.21	425.98
632.36	421.30
632.51	374.49
632.66	440.02
632.81	393.21
632.96	355.76
633.10	440.02
633.25	442.36
633.40	503.22
633.55	407.25
633.70	404.91
633.85	409.59
634.00	344.06
634.15	386.19
634.30	365.12
634.45	367.46
634.60	388.53
634.75	379.17
634.90	423.64
635.05	397.89
635.19	397.89
635.34	461.09
635.49	418.96
635.64	407.25
635.79	440.02
635.94	458.74
636.09	470.45
636.24	379.17
636.39	421.30
636.53	381.51
636.68	400.23
636.83	348.74
636.98	451.72
637.13	409.59
637.28	416.62
637.43	433.00
637.57	449.38
637.72	423.64
637.87	435.34
638.02	470.45
638.17	437.68
638.32	388.53
638.46	430.66
638.61	463.43
638.76	440.02
638.91	433.00
639.06	440.02
639.20	482.15
639.35	418.96
639.50	404.91
639.65	402.57
639.80	409.59
639.94	428.32
640.09	409.59
640.24	416.62
640.39	355.76
640.54	435.34
640.68	437.68
640.83	365.12
640.98	409.59
641.13	407.25
641.27	376.83
641.42	346.40
641.57	456.40
641.72	435.34
641.86	442.36
642.01	393.21
642.16	454.06
642.31	334.70
642.45	461.09
642.60	461.09
642.75	414.27
642.90	477.47
643.04	447.04
643.19	416.62
643.34	355.76
643.48	397.89
643.63	477.47
643.78	463.43
643.93	507.90
644.07	423.64
644.22	334.70
644.37	421.30
644.51	454.06
644.66	503.22
644.81	472.79
644.95	458.74
645.10	383.85
645.25	372.15
645.39	479.81
645.54	479.81
645.69	538.32
645.83	400.23
645.98	451.72
646.13	404.91
646.27	407.25
646.42	362.78
646.57	414.27
646.71	435.34
646.86	395.55
647.00	433.00
647.15	449.38
647.30	411.93
647.44	409.59
647.59	372.15
647.74	358.10
647.88	421.30
648.03	365.12
648.17	470.45
648.32	411.93
648.47	433.00
648.61	381.51
648.76	407.25
648.90	400.23
649.05	367.46
649.20	409.59
649.34	337.04
649.49	414.27
649.63	372.15
649.78	430.66
649.92	379.17
650.07	416.62
650.21	458.74
650.36	437.68
650.51	404.91
650.65	402.57
650.80	344.06
650.94	411.93
651.09	442.36
651.23	393.21
651.38	447.04
651.52	395.55
651.67	400.23
651.81	393.21
651.96	407.25
652.10	444.70
652.25	383.85
652.39	458.74
652.54	430.66
652.68	482.15
652.83	461.09
652.97	449.38
653.12	461.09
653.26	393.21
653.41	393.21
653.55	393.21
653.70	388.53
653.84	433.00
653.99	440.02
654.13	362.78
654.27	463.43
654.42	404.91
654.56	402.57
654.71	383.85
654.85	397.89
655.00	444.70
655.14	440.02
655.29	379.17
655.43	437.68
655.57	407.25
655.72	306.61
655.86	388.53
656.01	444.70
656.15	430.66
656.30	472.79
656.44	423.64
656.58	421.30
656.73	388.53
656.87	372.15
657.01	390.87
657.16	465.77
657.30	482.15
657.45	449.38
657.59	444.70
657.73	418.96
657.88	428.32
658.02	421.30
658.16	458.74
658.31	449.38
658.45	404.91
658.60	402.57
658.74	393.21
658.88	421.30
659.03	369.80
659.17	348.74
659.31	397.89
659.46	409.59
659.60	463.43
659.74	435.34
659.89	447.04
660.03	411.93
660.17	451.72
660.32	421.30
660.46	435.34
660.60	355.76
660.74	411.93
660.89	390.87
661.03	395.55
661.17	397.89
661.32	386.19
661.46	489.17
661.60	477.47
661.74	376.83
661.89	386.19
662.03	433.00
662.17	395.55
662.31	430.66
662.46	388.53
662.60	423.64
662.74	444.70
662.88	437.68
663.03	428.32
663.17	440.02
663.31	386.19
663.45	442.36
663.60	358.10
663.74	430.66
663.88	400.23
664.02	372.15
664.17	400.23
664.31	374.49
664.45	418.96
664.59	374.49
664.73	430.66
664.88	425.98
665.02	393.21
665.16	416.62
665.30	362.78
665.44	465.77
665.59	447.04
665.73	461.09
665.87	440.02
666.01	423.64
666.15	346.40
666.29	423.64
666.44	472.79
666.58	454.06
666.72	425.98
666.86	327.68
667.00	397.89
667.14	407.25
667.28	416.62
667.43	435.34
667.57	451.72
667.71	358.10
667.85	376.83
667.99	475.13
668.13	416.62
668.27	397.89
668.41	486.83
668.56	425.98
668.70	498.53
668.84	386.19
668.98	425.98
669.12	402.57
669.26	386.19
669.40	444.70
669.54	435.34
669.68	505.56
669.82	444.70
669.96	383.85
670.10	493.85
670.25	421.30
670.39	472.79
670.53	414.27
670.67	491.51
670.81	428.32
670.95	369.80
671.09	404.91
671.23	435.34
671.37	407.25
671.51	379.17
671.65	421.30
671.79	393.21
671.93	442.36
672.07	449.38
672.21	489.17
672.35	482.15
672.49	400.23
672.63	456.40
672.77	395.55
672.91	411.93
673.05	430.66
673.19	358.10
673.33	407.25
673.47	489.17
673.61	416.62
673.75	393.21
673.89	362.78
674.03	379.17
674.17	437.68
674.31	433.00
674.45	430.66
674.59	468.11
674.73	433.00
674.87	451.72
675.01	416.62
675.15	360.44
675.29	484.49
675.43	449.38
675.56	454.06
675.70	500.87
675.84	360.44
675.98	416.62
676.12	386.19
676.26	470.45
676.40	390.87
676.54	402.57
676.68	327.68
676.82	421.30
676.96	381.51
677.10	400.23
677.23	386.19
677.37	388.53
677.51	447.04
677.65	451.72
677.79	397.89
677.93	414.27
678.07	320.65
678.21	341.72
678.34	365.12
678.48	379.17
678.62	428.32
678.76	372.15
678.90	390.87
679.04	435.34
679.18	425.98
679.31	440.02
679.45	365.12
679.59	393.21
679.73	510.24
679.87	444.70
680.00	421.30
680.14	463.43
680.28	381.51
680.42	365.12
680.56	404.91
680.70	421.30
680.83	437.68
680.97	381.51
681.11	362.78
681.25	409.59
681.39	425.98
681.52	414.27
681.66	386.19
681.80	395.55
681.94	421.30
682.07	374.49
682.21	346.40
682.35	489.17
682.49	414.27
682.62	486.83
682.76	437.68
682.90	411.93
683.04	411.93
683.17	395.55
683.31	404.91
683.45	489.17
683.59	437.68
683.72	447.04
683.86	425.98
684.00	468.11
684.13	500.87
684.27	407.25
684.41	440.02
684.55	451.72
684.68	369.80
684.82	397.89
684.96	386.19
685.09	442.36
685.23	423.64
685.37	411.93
685.50	437.68
685.64	402.57
685.78	388.53
685.91	402.57
686.05	393.21
686.19	416.62
686.32	440.02
686.46	454.06
686.60	381.51
686.73	491.51
686.87	454.06
687.01	414.27
687.14	374.49
687.28	400.23
687.42	468.11
687.55	428.32
687.69	414.27
687.82	414.27
687.96	442.36
688.10	477.47
688.23	430.66
688.37	491.51
688.50	341.72
688.64	451.72
688.78	465.77
688.91	414.27
689.05	404.91
689.18	454.06
689.32	435.34
689.46	465.77
689.59	369.80
689.73	421.30
689.86	374.49
690.00	409.59
690.13	362.78
690.27	409.59
690.41	409.59
690.54	449.38
690.68	365.12
690.81	383.85
690.95	397.89
691.08	395.55
691.22	461.09
691.35	360.44
691.49	400.23
691.62	402.57
691.76	416.62
691.89	435.34
692.03	374.49
692.16	381.51
692.30	325.33
692.43	435.34
692.57	362.78
692.70	449.38
692.84	390.87
692.97	395.55
693.11	416.62
693.24	409.59
693.38	369.80
693.51	381.51
693.65	395.55
693.78	383.85
693.92	397.89
694.05	440.02
694.19	465.77
694.32	365.12
694.45	416.62
694.59	376.83
694.72	414.27
694.86	414.27
694.99	423.64
695.13	411.93
695.26	440.02
695.39	407.25
695.53	442.36
695.66	374.49
695.80	414.27
695.93	437.68
696.07	425.98
696.20	400.23
696.33	423.64
696.47	468.11
696.60	411.93
696.73	421.30
696.87	379.17
697.00	430.66
697.14	468.11
697.27	369.80
697.40	545.34
697.54	440.02
697.67	404.91
697.80	468.11
697.94	358.10
698.07	374.49
698.21	341.72
698.34	381.51
698.47	472.79
698.61	393.21
698.74	369.80
698.87	433.00
699.01	414.27
699.14	416.62
699.27	447.04
699.40	505.56
699.54	418.96
699.67	461.09
699.80	428.32
699.94	437.68
700.07	451.72
700.20	454.06
700.34	407.25
700.47	365.12
700.60	447.04
700.73	442.36
700.87	423.64
701.00	367.46
701.13	430.66
701.26	425.98
701.40	456.40
701.53	421.30
701.66	404.91
701.79	477.47
701.93	409.59
702.06	425.98
702.19	407.25
702.32	341.72
702.46	449.38
702.59	454.06
702.72	358.10
702.85	393.21
702.99	411.93
703.12	416.62
703.25	418.96
703.38	369.80
703.51	465.77
703.65	470.45
703.78	428.32
703.91	404.91
704.04	402.57
704.17	418.96
704.31	423.64
704.44	430.66
704.57	388.53
704.70	423.64
704.83	423.64
704.96	425.98
705.10	440.02
705.23	421.30
>>>>>End Processed Spectral Data<<<<<
