SpectraSuite Data File
++++++++++++++++++++++++++++++++++++
Date: Fri Oct 25 12:10:30 EDT 2013
User: price-jones
Dark Spectrum Present: No
Reference Spectrum Present: No
Number of Sampled Component Spectra: 1
Spectrometers: USB2+H05261
Integration Time (usec): 100000 (USB2+H05261)
Spectra Averaged: 1 (USB2+H05261)
Boxcar Smoothing: 0 (USB2+H05261)
Correct for Electrical Dark: No (USB2+H05261)
Strobe/Lamp Enabled: No (USB2+H05261)
Correct for Detector Non-linearity: No (USB2+H05261)
Correct for Stray Light: No (USB2+H05261)
Number of Pixels in Processed Spectrum: 2048
>>>>>Begin Processed Spectral Data<<<<<
365.73	299.59
365.92	299.59
366.12	299.59
366.32	287.89
366.52	271.50
366.72	255.12
366.91	280.86
367.11	191.92
367.31	262.14
367.51	196.60
367.70	210.65
367.90	269.16
368.10	231.71
368.30	283.20
368.49	238.73
368.69	287.89
368.89	210.65
369.09	266.82
369.28	311.29
369.48	273.84
369.68	257.46
369.87	290.23
370.07	332.36
370.27	301.93
370.47	358.10
370.66	308.95
370.86	348.74
371.06	367.46
371.25	402.57
371.45	365.12
371.65	367.46
371.84	409.59
372.04	355.76
372.24	381.51
372.44	369.80
372.63	379.17
372.83	400.23
373.03	388.53
373.22	444.70
373.42	465.77
373.62	458.74
373.81	454.06
374.01	444.70
374.21	435.34
374.40	416.62
374.60	397.89
374.79	362.78
374.99	463.43
375.19	479.81
375.38	423.64
375.58	388.53
375.78	397.89
375.97	454.06
376.17	472.79
376.37	421.30
376.56	393.21
376.76	470.45
376.95	395.55
377.15	447.04
377.35	365.12
377.54	428.32
377.74	367.46
377.93	486.83
378.13	390.87
378.33	383.85
378.52	423.64
378.72	416.62
378.91	376.83
379.11	470.45
379.31	388.53
379.50	346.40
379.70	400.23
379.89	447.04
380.09	388.53
380.28	397.89
380.48	383.85
380.68	423.64
380.87	423.64
381.07	407.25
381.26	451.72
381.46	397.89
381.65	423.64
381.85	388.53
382.04	402.57
382.24	367.46
382.43	411.93
382.63	332.36
382.83	493.85
383.02	482.15
383.22	437.68
383.41	348.74
383.61	437.68
383.80	456.40
384.00	409.59
384.19	388.53
384.39	358.10
384.58	353.42
384.78	463.43
384.97	407.25
385.17	433.00
385.36	409.59
385.56	388.53
385.75	376.83
385.95	374.49
386.14	362.78
386.34	416.62
386.53	407.25
386.72	390.87
386.92	444.70
387.11	404.91
387.31	393.21
387.50	386.19
387.70	402.57
387.89	353.42
388.09	353.42
388.28	383.85
388.48	332.36
388.67	428.32
388.86	414.27
389.06	369.80
389.25	365.12
389.45	402.57
389.64	414.27
389.84	465.77
390.03	517.26
390.22	442.36
390.42	374.49
390.61	444.70
390.81	400.23
391.00	397.89
391.19	496.19
391.39	360.44
391.58	414.27
391.78	386.19
391.97	449.38
392.16	416.62
392.36	435.34
392.55	376.83
392.75	444.70
392.94	397.89
393.13	454.06
393.33	334.70
393.52	348.74
393.71	425.98
393.91	294.91
394.10	416.62
394.29	407.25
394.49	367.46
394.68	418.96
394.88	358.10
395.07	449.38
395.26	468.11
395.46	362.78
395.65	379.17
395.84	402.57
396.04	458.74
396.23	411.93
396.42	479.81
396.62	418.96
396.81	442.36
397.00	397.89
397.19	367.46
397.39	367.46
397.58	449.38
397.77	411.93
397.97	369.80
398.16	388.53
398.35	428.32
398.55	360.44
398.74	379.17
398.93	463.43
399.12	463.43
399.32	379.17
399.51	386.19
399.70	512.58
399.90	367.46
400.09	435.34
400.28	447.04
400.47	367.46
400.67	381.51
400.86	360.44
401.05	402.57
401.24	493.85
401.44	484.49
401.63	383.85
401.82	407.25
402.01	327.68
402.21	447.04
402.40	421.30
402.59	358.10
402.78	383.85
402.97	433.00
403.17	390.87
403.36	442.36
403.55	458.74
403.74	425.98
403.93	416.62
404.13	414.27
404.32	393.21
404.51	334.70
404.70	386.19
404.89	383.85
405.09	498.53
405.28	390.87
405.47	376.83
405.66	402.57
405.85	404.91
406.05	449.38
406.24	463.43
406.43	376.83
406.62	402.57
406.81	428.32
407.00	390.87
407.20	411.93
407.39	440.02
407.58	376.83
407.77	393.21
407.96	411.93
408.15	411.93
408.34	402.57
408.54	383.85
408.73	379.17
408.92	393.21
409.11	449.38
409.30	416.62
409.49	390.87
409.68	379.17
409.87	376.83
410.07	355.76
410.26	451.72
410.45	433.00
410.64	418.96
410.83	440.02
411.02	421.30
411.21	341.72
411.40	351.08
411.59	430.66
411.78	367.46
411.98	447.04
412.17	404.91
412.36	433.00
412.55	346.40
412.74	421.30
412.93	433.00
413.12	379.17
413.31	440.02
413.50	386.19
413.69	407.25
413.88	395.55
414.07	402.57
414.26	395.55
414.45	379.17
414.64	463.43
414.83	386.19
415.02	430.66
415.22	411.93
415.41	470.45
415.60	393.21
415.79	444.70
415.98	430.66
416.17	409.59
416.36	337.04
416.55	430.66
416.74	393.21
416.93	465.77
417.12	400.23
417.31	360.44
417.50	397.89
417.69	430.66
417.88	454.06
418.07	355.76
418.26	346.40
418.45	358.10
418.64	470.45
418.83	374.49
419.02	461.09
419.21	416.62
419.39	409.59
419.58	400.23
419.77	402.57
419.96	374.49
420.15	360.44
420.34	463.43
420.53	397.89
420.72	498.53
420.91	397.89
421.10	430.66
421.29	461.09
421.48	407.25
421.67	437.68
421.86	437.68
422.05	404.91
422.24	383.85
422.43	425.98
422.61	407.25
422.80	411.93
422.99	388.53
423.18	433.00
423.37	470.45
423.56	404.91
423.75	433.00
423.94	346.40
424.13	386.19
424.32	456.40
424.50	407.25
424.69	395.55
424.88	353.42
425.07	430.66
425.26	493.85
425.45	362.78
425.64	400.23
425.83	425.98
426.01	503.22
426.20	456.40
426.39	418.96
426.58	440.02
426.77	390.87
426.96	470.45
427.15	416.62
427.33	437.68
427.52	437.68
427.71	386.19
427.90	386.19
428.09	376.83
428.28	360.44
428.46	348.74
428.65	444.70
428.84	400.23
429.03	482.15
429.22	353.42
429.40	390.87
429.59	400.23
429.78	428.32
429.97	411.93
430.16	337.04
430.34	325.33
430.53	381.51
430.72	414.27
430.91	430.66
431.10	421.30
431.28	503.22
431.47	379.17
431.66	404.91
431.85	456.40
432.03	393.21
432.22	484.49
432.41	440.02
432.60	386.19
432.79	433.00
432.97	470.45
433.16	386.19
433.35	383.85
433.54	393.21
433.72	372.15
433.91	416.62
434.10	358.10
434.28	376.83
434.47	393.21
434.66	458.74
434.85	353.42
435.03	407.25
435.22	496.19
435.41	442.36
435.59	425.98
435.78	477.47
435.97	461.09
436.16	393.21
436.34	390.87
436.53	411.93
436.72	397.89
436.90	367.46
437.09	372.15
437.28	449.38
437.46	381.51
437.65	411.93
437.84	379.17
438.02	411.93
438.21	449.38
438.40	449.38
438.58	393.21
438.77	440.02
438.96	447.04
439.14	503.22
439.33	423.64
439.52	421.30
439.70	369.80
439.89	421.30
440.08	372.15
440.26	411.93
440.45	479.81
440.63	404.91
440.82	367.46
441.01	442.36
441.19	454.06
441.38	468.11
441.57	430.66
441.75	486.83
441.94	444.70
442.12	437.68
442.31	395.55
442.50	386.19
442.68	423.64
442.87	402.57
443.05	397.89
443.24	423.64
443.43	395.55
443.61	351.08
443.80	404.91
443.98	372.15
444.17	447.04
444.35	461.09
444.54	425.98
444.73	449.38
444.91	514.92
445.10	423.64
445.28	425.98
445.47	407.25
445.65	435.34
445.84	393.21
446.02	430.66
446.21	383.85
446.39	362.78
446.58	477.47
446.77	449.38
446.95	414.27
447.14	407.25
447.32	358.10
447.51	374.49
447.69	451.72
447.88	416.62
448.06	435.34
448.25	390.87
448.43	379.17
448.62	390.87
448.80	418.96
448.99	498.53
449.17	423.64
449.36	407.25
449.54	393.21
449.73	435.34
449.91	465.77
450.10	397.89
450.28	409.59
450.46	416.62
450.65	447.04
450.83	379.17
451.02	386.19
451.20	505.56
451.39	493.85
451.57	463.43
451.76	278.52
451.94	423.64
452.13	402.57
452.31	440.02
452.49	437.68
452.68	482.15
452.86	407.25
453.05	430.66
453.23	468.11
453.42	355.76
453.60	456.40
453.78	400.23
453.97	437.68
454.15	411.93
454.34	358.10
454.52	397.89
454.70	526.62
454.89	355.76
455.07	402.57
455.26	423.64
455.44	496.19
455.62	393.21
455.81	418.96
455.99	428.32
456.17	369.80
456.36	365.12
456.54	383.85
456.73	362.78
456.91	447.04
457.09	397.89
457.28	465.77
457.46	449.38
457.64	503.22
457.83	390.87
458.01	421.30
458.19	430.66
458.38	383.85
458.56	397.89
458.74	470.45
458.93	362.78
459.11	421.30
459.29	458.74
459.48	395.55
459.66	421.30
459.84	421.30
460.03	442.36
460.21	447.04
460.39	400.23
460.57	472.79
460.76	388.53
460.94	418.96
461.12	458.74
461.31	449.38
461.49	423.64
461.67	472.79
461.85	458.74
462.04	397.89
462.22	812.17
462.40	428.32
462.59	461.09
462.77	477.47
462.95	428.32
463.13	433.00
463.32	421.30
463.50	456.40
463.68	400.23
463.86	381.51
464.05	402.57
464.23	418.96
464.41	397.89
464.59	475.13
464.78	388.53
464.96	404.91
465.14	423.64
465.32	353.42
465.50	388.53
465.69	411.93
465.87	360.44
466.05	386.19
466.23	388.53
466.41	346.40
466.60	397.89
466.78	449.38
466.96	451.72
467.14	418.96
467.32	444.70
467.51	374.49
467.69	435.34
467.87	475.13
468.05	414.27
468.23	411.93
468.41	470.45
468.60	451.72
468.78	444.70
468.96	475.13
469.14	360.44
469.32	358.10
469.50	468.11
469.69	393.21
469.87	418.96
470.05	400.23
470.23	346.40
470.41	379.17
470.59	393.21
470.77	390.87
470.95	414.27
471.14	449.38
471.32	451.72
471.50	454.06
471.68	421.30
471.86	365.12
472.04	444.70
472.22	402.57
472.40	477.47
472.58	369.80
472.77	430.66
472.95	461.09
473.13	393.21
473.31	381.51
473.49	369.80
473.67	315.97
473.85	430.66
474.03	407.25
474.21	400.23
474.39	423.64
474.57	416.62
474.75	411.93
474.93	430.66
475.12	451.72
475.30	372.15
475.48	414.27
475.66	425.98
475.84	379.17
476.02	442.36
476.20	470.45
476.38	409.59
476.56	425.98
476.74	423.64
476.92	430.66
477.10	433.00
477.28	402.57
477.46	397.89
477.64	414.27
477.82	416.62
478.00	435.34
478.18	430.66
478.36	367.46
478.54	400.23
478.72	397.89
478.90	451.72
479.08	402.57
479.26	440.02
479.44	416.62
479.62	341.72
479.80	407.25
479.98	346.40
480.16	407.25
480.34	482.15
480.52	372.15
480.70	416.62
480.88	355.76
481.06	332.36
481.24	397.89
481.41	360.44
481.59	376.83
481.77	393.21
481.95	409.59
482.13	416.62
482.31	414.27
482.49	425.98
482.67	442.36
482.85	404.91
483.03	409.59
483.21	395.55
483.39	421.30
483.57	400.23
483.74	425.98
483.92	360.44
484.10	454.06
484.28	425.98
484.46	461.09
484.64	383.85
484.82	393.21
485.00	390.87
485.18	437.68
485.35	400.23
485.53	411.93
485.71	484.49
485.89	430.66
486.07	409.59
486.25	397.89
486.43	407.25
486.61	440.02
486.78	358.10
486.96	390.87
487.14	351.08
487.32	451.72
487.50	386.19
487.68	369.80
487.85	369.80
488.03	411.93
488.21	472.79
488.39	402.57
488.57	388.53
488.75	411.93
488.92	444.70
489.10	411.93
489.28	449.38
489.46	404.91
489.64	358.10
489.81	397.89
489.99	418.96
490.17	449.38
490.35	451.72
490.53	330.02
490.70	400.23
490.88	447.04
491.06	393.21
491.24	400.23
491.41	433.00
491.59	442.36
491.77	379.17
491.95	388.53
492.13	437.68
492.30	393.21
492.48	409.59
492.66	468.11
492.84	425.98
493.01	454.06
493.19	442.36
493.37	498.53
493.54	358.10
493.72	411.93
493.90	334.70
494.08	428.32
494.25	491.51
494.43	390.87
494.61	404.91
494.79	404.91
494.96	388.53
495.14	411.93
495.32	402.57
495.49	386.19
495.67	393.21
495.85	458.74
496.02	402.57
496.20	440.02
496.38	435.34
496.55	388.53
496.73	367.46
496.91	383.85
497.09	463.43
497.26	386.19
497.44	421.30
497.62	428.32
497.79	362.78
497.97	383.85
498.14	433.00
498.32	444.70
498.50	433.00
498.67	428.32
498.85	461.09
499.03	404.91
499.20	468.11
499.38	442.36
499.56	477.47
499.73	416.62
499.91	444.70
500.08	456.40
500.26	418.96
500.44	433.00
500.61	461.09
500.79	440.02
500.97	430.66
501.14	437.68
501.32	456.40
501.49	418.96
501.67	402.57
501.84	376.83
502.02	369.80
502.20	454.06
502.37	437.68
502.55	416.62
502.72	407.25
502.90	440.02
503.07	447.04
503.25	437.68
503.43	418.96
503.60	397.89
503.78	414.27
503.95	397.89
504.13	416.62
504.30	421.30
504.48	369.80
504.65	461.09
504.83	435.34
505.01	376.83
505.18	348.74
505.36	386.19
505.53	411.93
505.71	379.17
505.88	442.36
506.06	461.09
506.23	400.23
506.41	393.21
506.58	337.04
506.76	428.32
506.93	381.51
507.11	423.64
507.28	482.15
507.46	437.68
507.63	381.51
507.81	402.57
507.98	372.15
508.16	400.23
508.33	388.53
508.50	433.00
508.68	397.89
508.85	400.23
509.03	402.57
509.20	393.21
509.38	365.12
509.55	393.21
509.73	498.53
509.90	390.87
510.08	407.25
510.25	397.89
510.42	337.04
510.60	383.85
510.77	461.09
510.95	414.27
511.12	430.66
511.30	395.55
511.47	433.00
511.64	461.09
511.82	353.42
511.99	428.32
512.17	458.74
512.34	433.00
512.51	470.45
512.69	404.91
512.86	465.77
513.04	435.34
513.21	411.93
513.38	430.66
513.56	341.72
513.73	430.66
513.90	454.06
514.08	376.83
514.25	510.24
514.43	489.17
514.60	428.32
514.77	435.34
514.95	355.76
515.12	418.96
515.29	430.66
515.47	381.51
515.64	430.66
515.81	351.08
515.99	461.09
516.16	390.87
516.33	430.66
516.51	358.10
516.68	388.53
516.85	454.06
517.03	416.62
517.20	425.98
517.37	468.11
517.54	458.74
517.72	402.57
517.89	440.02
518.06	447.04
518.24	433.00
518.41	479.81
518.58	470.45
518.75	339.38
518.93	409.59
519.10	416.62
519.27	393.21
519.45	421.30
519.62	465.77
519.79	397.89
519.96	397.89
520.14	418.96
520.31	437.68
520.48	386.19
520.65	320.65
520.83	456.40
521.00	451.72
521.17	367.46
521.34	393.21
521.52	430.66
521.69	456.40
521.86	440.02
522.03	416.62
522.20	500.87
522.38	433.00
522.55	367.46
522.72	395.55
522.89	493.85
523.07	435.34
523.24	388.53
523.41	433.00
523.58	414.27
523.75	315.97
523.92	404.91
524.10	482.15
524.27	411.93
524.44	507.90
524.61	428.32
524.78	358.10
524.96	393.21
525.13	440.02
525.30	507.90
525.47	404.91
525.64	437.68
525.81	428.32
525.98	447.04
526.16	411.93
526.33	414.27
526.50	465.77
526.67	437.68
526.84	423.64
527.01	367.46
527.18	447.04
527.36	456.40
527.53	433.00
527.70	458.74
527.87	421.30
528.04	390.87
528.21	369.80
528.38	418.96
528.55	435.34
528.72	451.72
528.89	477.47
529.07	376.83
529.24	372.15
529.41	411.93
529.58	383.85
529.75	372.15
529.92	458.74
530.09	454.06
530.26	451.72
530.43	409.59
530.60	397.89
530.77	411.93
530.94	461.09
531.11	407.25
531.28	367.46
531.46	332.36
531.63	440.02
531.80	407.25
531.97	381.51
532.14	458.74
532.31	430.66
532.48	379.17
532.65	451.72
532.82	367.46
532.99	388.53
533.16	447.04
533.33	395.55
533.50	414.27
533.67	425.98
533.84	496.19
534.01	414.27
534.18	416.62
534.35	465.77
534.52	447.04
534.69	365.12
534.86	435.34
535.03	383.85
535.20	365.12
535.37	400.23
535.54	390.87
535.71	315.97
535.88	423.64
536.05	372.15
536.22	493.85
536.38	437.68
536.55	423.64
536.72	421.30
536.89	493.85
537.06	440.02
537.23	393.21
537.40	407.25
537.57	421.30
537.74	454.06
537.91	472.79
538.08	440.02
538.25	425.98
538.42	411.93
538.59	416.62
538.75	454.06
538.92	341.72
539.09	418.96
539.26	416.62
539.43	458.74
539.60	360.44
539.77	456.40
539.94	451.72
540.11	390.87
540.28	449.38
540.44	468.11
540.61	411.93
540.78	428.32
540.95	358.10
541.12	454.06
541.29	383.85
541.46	409.59
541.62	386.19
541.79	463.43
541.96	395.55
542.13	381.51
542.30	351.08
542.47	449.38
542.63	447.04
542.80	461.09
542.97	458.74
543.14	409.59
543.31	458.74
543.48	454.06
543.64	451.72
543.81	425.98
543.98	416.62
544.15	376.83
544.32	451.72
544.48	411.93
544.65	435.34
544.82	397.89
544.99	397.89
545.16	379.17
545.32	428.32
545.49	486.83
545.66	355.76
545.83	468.11
546.00	423.64
546.16	348.74
546.33	404.91
546.50	421.30
546.67	435.34
546.83	383.85
547.00	383.85
547.17	372.15
547.34	379.17
547.50	463.43
547.67	475.13
547.84	444.70
548.00	421.30
548.17	418.96
548.34	362.78
548.51	465.77
548.67	386.19
548.84	381.51
549.01	489.17
549.18	479.81
549.34	477.47
549.51	379.17
549.68	393.21
549.84	360.44
550.01	409.59
550.18	400.23
550.34	493.85
550.51	540.66
550.68	428.32
550.84	451.72
551.01	463.43
551.18	477.47
551.34	409.59
551.51	397.89
551.68	400.23
551.84	444.70
552.01	454.06
552.18	421.30
552.34	379.17
552.51	433.00
552.68	402.57
552.84	435.34
553.01	456.40
553.18	449.38
553.34	423.64
553.51	416.62
553.67	414.27
553.84	489.17
554.01	437.68
554.17	461.09
554.34	418.96
554.51	458.74
554.67	475.13
554.84	418.96
555.00	440.02
555.17	418.96
555.33	503.22
555.50	421.30
555.67	400.23
555.83	351.08
556.00	407.25
556.16	564.07
556.33	409.59
556.50	456.40
556.66	423.64
556.83	367.46
556.99	458.74
557.16	425.98
557.32	421.30
557.49	362.78
557.65	407.25
557.82	425.98
557.98	442.36
558.15	461.09
558.32	444.70
558.48	386.19
558.65	379.17
558.81	404.91
558.98	496.19
559.14	461.09
559.31	437.68
559.47	440.02
559.64	442.36
559.80	437.68
559.97	337.04
560.13	458.74
560.30	369.80
560.46	425.98
560.63	407.25
560.79	285.55
560.96	404.91
561.12	383.85
561.29	383.85
561.45	397.89
561.61	568.75
561.78	524.28
561.94	449.38
562.11	475.13
562.27	393.21
562.44	360.44
562.60	330.02
562.77	395.55
562.93	381.51
563.10	400.23
563.26	414.27
563.42	369.80
563.59	433.00
563.75	390.87
563.92	407.25
564.08	423.64
564.24	379.17
564.41	486.83
564.57	437.68
564.74	482.15
564.90	404.91
565.07	390.87
565.23	442.36
565.39	376.83
565.56	433.00
565.72	362.78
565.88	423.64
566.05	428.32
566.21	425.98
566.38	437.68
566.54	372.15
566.70	379.17
566.87	440.02
567.03	374.49
567.19	430.66
567.36	395.55
567.52	418.96
567.68	383.85
567.85	482.15
568.01	414.27
568.17	423.64
568.34	451.72
568.50	498.53
568.66	372.15
568.83	500.87
568.99	404.91
569.15	482.15
569.32	449.38
569.48	430.66
569.64	465.77
569.81	437.68
569.97	367.46
570.13	484.49
570.30	444.70
570.46	379.17
570.62	393.21
570.78	425.98
570.95	456.40
571.11	468.11
571.27	421.30
571.43	402.57
571.60	414.27
571.76	468.11
571.92	430.66
572.09	407.25
572.25	468.11
572.41	395.55
572.57	393.21
572.74	458.74
572.90	437.68
573.06	365.12
573.22	388.53
573.38	465.77
573.55	379.17
573.71	447.04
573.87	468.11
574.03	421.30
574.20	395.55
574.36	414.27
574.52	404.91
574.68	351.08
574.84	388.53
575.01	407.25
575.17	418.96
575.33	383.85
575.49	447.04
575.65	409.59
575.82	421.30
575.98	458.74
576.14	411.93
576.30	465.77
576.46	477.47
576.62	411.93
576.79	433.00
576.95	465.77
577.11	351.08
577.27	421.30
577.43	393.21
577.59	479.81
577.75	444.70
577.92	374.49
578.08	489.17
578.24	428.32
578.40	393.21
578.56	395.55
578.72	390.87
578.88	461.09
579.04	437.68
579.21	379.17
579.37	369.80
579.53	418.96
579.69	414.27
579.85	433.00
580.01	430.66
580.17	383.85
580.33	421.30
580.49	346.40
580.65	437.68
580.82	407.25
580.98	390.87
581.14	451.72
581.30	430.66
581.46	418.96
581.62	430.66
581.78	353.42
581.94	400.23
582.10	451.72
582.26	454.06
582.42	449.38
582.58	374.49
582.74	437.68
582.90	484.49
583.06	425.98
583.22	421.30
583.38	423.64
583.54	447.04
583.70	411.93
583.86	451.72
584.02	404.91
584.18	451.72
584.34	365.12
584.50	461.09
584.66	425.98
584.82	482.15
584.98	463.43
585.14	348.74
585.30	388.53
585.46	435.34
585.62	456.40
585.78	472.79
585.94	400.23
586.10	454.06
586.26	414.27
586.42	444.70
586.58	428.32
586.74	437.68
586.90	411.93
587.06	400.23
587.22	444.70
587.38	414.27
587.54	395.55
587.70	416.62
587.86	433.00
588.02	456.40
588.18	433.00
588.34	416.62
588.49	440.02
588.65	395.55
588.81	400.23
588.97	437.68
589.13	407.25
589.29	379.17
589.45	472.79
589.61	477.47
589.77	437.68
589.93	383.85
590.08	468.11
590.24	393.21
590.40	416.62
590.56	451.72
590.72	435.34
590.88	444.70
591.04	390.87
591.20	477.47
591.35	451.72
591.51	416.62
591.67	437.68
591.83	425.98
591.99	407.25
592.15	414.27
592.31	393.21
592.46	355.76
592.62	367.46
592.78	339.38
592.94	306.61
593.10	437.68
593.26	477.47
593.41	400.23
593.57	451.72
593.73	418.96
593.89	414.27
594.05	491.51
594.20	437.68
594.36	404.91
594.52	381.51
594.68	423.64
594.84	414.27
594.99	470.45
595.15	418.96
595.31	472.79
595.47	430.66
595.62	374.49
595.78	346.40
595.94	414.27
596.10	458.74
596.25	428.32
596.41	505.56
596.57	339.38
596.73	437.68
596.88	428.32
597.04	376.83
597.20	433.00
597.36	376.83
597.51	456.40
597.67	381.51
597.83	308.95
597.99	479.81
598.14	379.17
598.30	486.83
598.46	472.79
598.61	472.79
598.77	447.04
598.93	461.09
599.09	360.44
599.24	433.00
599.40	409.59
599.56	369.80
599.71	435.34
599.87	383.85
600.03	418.96
600.18	411.93
600.34	365.12
600.50	451.72
600.65	411.93
600.81	507.90
600.97	367.46
601.12	383.85
601.28	411.93
601.44	489.17
601.59	393.21
601.75	379.17
601.91	393.21
602.06	472.79
602.22	416.62
602.37	428.32
602.53	390.87
602.69	388.53
602.84	414.27
603.00	395.55
603.16	414.27
603.31	433.00
603.47	458.74
603.62	386.19
603.78	435.34
603.94	430.66
604.09	482.15
604.25	461.09
604.40	414.27
604.56	358.10
604.71	437.68
604.87	346.40
605.03	454.06
605.18	447.04
605.34	444.70
605.49	404.91
605.65	407.25
605.80	437.68
605.96	400.23
606.12	400.23
606.27	458.74
606.43	458.74
606.58	355.76
606.74	416.62
606.89	507.90
607.05	416.62
607.20	360.44
607.36	479.81
607.51	416.62
607.67	330.02
607.82	416.62
607.98	402.57
608.13	486.83
608.29	477.47
608.44	421.30
608.60	397.89
608.75	472.79
608.91	449.38
609.06	482.15
609.22	477.47
609.37	400.23
609.53	407.25
609.68	374.49
609.84	388.53
609.99	421.30
610.15	465.77
610.30	454.06
610.46	428.32
610.61	400.23
610.76	411.93
610.92	482.15
611.07	402.57
611.23	486.83
611.38	437.68
611.54	346.40
611.69	402.57
611.84	386.19
612.00	388.53
612.15	428.32
612.31	351.08
612.46	381.51
612.62	421.30
612.77	381.51
612.92	454.06
613.08	484.49
613.23	425.98
613.39	454.06
613.54	386.19
613.69	409.59
613.85	447.04
614.00	381.51
614.15	404.91
614.31	393.21
614.46	409.59
614.62	341.72
614.77	400.23
614.92	454.06
615.08	409.59
615.23	374.49
615.38	397.89
615.54	428.32
615.69	393.21
615.84	344.06
616.00	454.06
616.15	463.43
616.30	451.72
616.46	451.72
616.61	411.93
616.76	379.17
616.92	395.55
617.07	386.19
617.22	362.78
617.37	444.70
617.53	430.66
617.68	416.62
617.83	388.53
617.99	433.00
618.14	416.62
618.29	400.23
618.45	353.42
618.60	407.25
618.75	409.59
618.90	332.36
619.06	400.23
619.21	451.72
619.36	423.64
619.51	423.64
619.67	374.49
619.82	390.87
619.97	376.83
620.12	386.19
620.28	479.81
620.43	411.93
620.58	411.93
620.73	454.06
620.89	418.96
621.04	397.89
621.19	472.79
621.34	423.64
621.49	407.25
621.65	442.36
621.80	444.70
621.95	325.33
622.10	456.40
622.25	395.55
622.41	376.83
622.56	407.25
622.71	444.70
622.86	397.89
623.01	442.36
623.16	423.64
623.32	407.25
623.47	458.74
623.62	411.93
623.77	491.51
623.92	393.21
624.07	383.85
624.23	463.43
624.38	418.96
624.53	372.15
624.68	470.45
624.83	381.51
624.98	423.64
625.13	318.31
625.29	440.02
625.44	383.85
625.59	425.98
625.74	507.90
625.89	463.43
626.04	393.21
626.19	425.98
626.34	454.06
626.49	475.13
626.65	386.19
626.80	407.25
626.95	379.17
627.10	379.17
627.25	404.91
627.40	397.89
627.55	400.23
627.70	397.89
627.85	409.59
628.00	458.74
628.15	374.49
628.30	369.80
628.45	402.57
628.60	463.43
628.76	435.34
628.91	362.78
629.06	362.78
629.21	372.15
629.36	395.55
629.51	425.98
629.66	411.93
629.81	423.64
629.96	498.53
630.11	465.77
630.26	390.87
630.41	351.08
630.56	416.62
630.71	386.19
630.86	440.02
631.01	360.44
631.16	456.40
631.31	449.38
631.46	393.21
631.61	442.36
631.76	435.34
631.91	421.30
632.06	381.51
632.21	496.19
632.36	404.91
632.51	395.55
632.66	465.77
632.81	421.30
632.96	397.89
633.10	409.59
633.25	465.77
633.40	430.66
633.55	409.59
633.70	458.74
633.85	433.00
634.00	386.19
634.15	442.36
634.30	425.98
634.45	374.49
634.60	442.36
634.75	386.19
634.90	451.72
635.05	440.02
635.19	372.15
635.34	388.53
635.49	376.83
635.64	395.55
635.79	400.23
635.94	435.34
636.09	440.02
636.24	440.02
636.39	390.87
636.53	451.72
636.68	315.97
636.83	393.21
636.98	451.72
637.13	435.34
637.28	428.32
637.43	388.53
637.57	365.12
637.72	423.64
637.87	381.51
638.02	334.70
638.17	381.51
638.32	472.79
638.46	374.49
638.61	428.32
638.76	390.87
638.91	395.55
639.06	458.74
639.20	430.66
639.35	493.85
639.50	433.00
639.65	472.79
639.80	456.40
639.94	449.38
640.09	402.57
640.24	479.81
640.39	472.79
640.54	428.32
640.68	388.53
640.83	435.34
640.98	463.43
641.13	325.33
641.27	402.57
641.42	472.79
641.57	402.57
641.72	500.87
641.86	372.15
642.01	444.70
642.16	451.72
642.31	500.87
642.45	468.11
642.60	418.96
642.75	430.66
642.90	442.36
643.04	416.62
643.19	383.85
643.34	365.12
643.48	388.53
643.63	435.34
643.78	409.59
643.93	465.77
644.07	472.79
644.22	463.43
644.37	479.81
644.51	418.96
644.66	337.04
644.81	416.62
644.95	397.89
645.10	355.76
645.25	308.95
645.39	395.55
645.54	421.30
645.69	500.87
645.83	482.15
645.98	510.24
646.13	360.44
646.27	510.24
646.42	428.32
646.57	484.49
646.71	397.89
646.86	407.25
647.00	372.15
647.15	369.80
647.30	379.17
647.44	407.25
647.59	355.76
647.74	386.19
647.88	444.70
648.03	449.38
648.17	416.62
648.32	346.40
648.47	479.81
648.61	447.04
648.76	334.70
648.90	390.87
649.05	355.76
649.20	421.30
649.34	428.32
649.49	411.93
649.63	444.70
649.78	437.68
649.92	423.64
650.07	449.38
650.21	393.21
650.36	435.34
650.51	454.06
650.65	447.04
650.80	433.00
650.94	407.25
651.09	402.57
651.23	365.12
651.38	425.98
651.52	428.32
651.67	372.15
651.81	383.85
651.96	334.70
652.10	447.04
652.25	416.62
652.39	353.42
652.54	484.49
652.68	379.17
652.83	393.21
652.97	498.53
653.12	425.98
653.26	388.53
653.41	535.98
653.55	397.89
653.70	407.25
653.84	425.98
653.99	465.77
654.13	402.57
654.27	425.98
654.42	444.70
654.56	421.30
654.71	425.98
654.85	273.84
655.00	421.30
655.14	418.96
655.29	416.62
655.43	477.47
655.57	433.00
655.72	397.89
655.86	414.27
656.01	468.11
656.15	400.23
656.30	463.43
656.44	461.09
656.58	458.74
656.73	454.06
656.87	407.25
657.01	440.02
657.16	404.91
657.30	484.49
657.45	475.13
657.59	463.43
657.73	404.91
657.88	451.72
658.02	442.36
658.16	470.45
658.31	458.74
658.45	383.85
658.60	435.34
658.74	451.72
658.88	477.47
659.03	475.13
659.17	433.00
659.31	388.53
659.46	451.72
659.60	404.91
659.74	461.09
659.89	358.10
660.03	425.98
660.17	468.11
660.32	433.00
660.46	428.32
660.60	421.30
660.74	433.00
660.89	465.77
661.03	393.21
661.17	374.49
661.32	435.34
661.46	402.57
661.60	395.55
661.74	383.85
661.89	465.77
662.03	409.59
662.17	388.53
662.31	372.15
662.46	395.55
662.60	376.83
662.74	334.70
662.88	425.98
663.03	386.19
663.17	514.92
663.31	416.62
663.45	437.68
663.60	491.51
663.74	425.98
663.88	374.49
664.02	388.53
664.17	416.62
664.31	451.72
664.45	463.43
664.59	379.17
664.73	409.59
664.88	404.91
665.02	430.66
665.16	430.66
665.30	437.68
665.44	416.62
665.59	470.45
665.73	376.83
665.87	390.87
666.01	458.74
666.15	379.17
666.29	416.62
666.44	388.53
666.58	461.09
666.72	407.25
666.86	444.70
667.00	416.62
667.14	435.34
667.28	468.11
667.43	400.23
667.57	393.21
667.71	402.57
667.85	416.62
667.99	423.64
668.13	470.45
668.27	458.74
668.41	414.27
668.56	348.74
668.70	433.00
668.84	430.66
668.98	365.12
669.12	386.19
669.26	423.64
669.40	390.87
669.54	346.40
669.68	404.91
669.82	386.19
669.96	423.64
670.10	479.81
670.25	393.21
670.39	421.30
670.53	390.87
670.67	435.34
670.81	414.27
670.95	430.66
671.09	479.81
671.23	393.21
671.37	482.15
671.51	358.10
671.65	395.55
671.79	411.93
671.93	409.59
672.07	435.34
672.21	477.47
672.35	449.38
672.49	435.34
672.63	498.53
672.77	390.87
672.91	421.30
673.05	444.70
673.19	447.04
673.33	407.25
673.47	465.77
673.61	414.27
673.75	449.38
673.89	397.89
674.03	425.98
674.17	393.21
674.31	468.11
674.45	465.77
674.59	416.62
674.73	351.08
674.87	407.25
675.01	440.02
675.15	404.91
675.29	433.00
675.43	463.43
675.56	484.49
675.70	409.59
675.84	425.98
675.98	414.27
676.12	397.89
676.26	430.66
676.40	416.62
676.54	428.32
676.68	402.57
676.82	440.02
676.96	418.96
677.10	444.70
677.23	447.04
677.37	404.91
677.51	425.98
677.65	493.85
677.79	407.25
677.93	447.04
678.07	383.85
678.21	433.00
678.34	379.17
678.48	421.30
678.62	416.62
678.76	484.49
678.90	463.43
679.04	404.91
679.18	369.80
679.31	376.83
679.45	425.98
679.59	390.87
679.73	376.83
679.87	418.96
680.00	482.15
680.14	463.43
680.28	440.02
680.42	428.32
680.56	414.27
680.70	421.30
680.83	433.00
680.97	395.55
681.11	393.21
681.25	447.04
681.39	376.83
681.52	428.32
681.66	500.87
681.80	411.93
681.94	414.27
682.07	355.76
682.21	430.66
682.35	365.12
682.49	503.22
682.62	411.93
682.76	430.66
682.90	402.57
683.04	376.83
683.17	369.80
683.31	463.43
683.45	447.04
683.59	433.00
683.72	440.02
683.86	484.49
684.00	374.49
684.13	503.22
684.27	451.72
684.41	454.06
684.55	418.96
684.68	411.93
684.82	400.23
684.96	383.85
685.09	423.64
685.23	362.78
685.37	351.08
685.50	411.93
685.64	430.66
685.78	367.46
685.91	435.34
686.05	400.23
686.19	423.64
686.32	390.87
686.46	470.45
686.60	379.17
686.73	437.68
686.87	407.25
687.01	444.70
687.14	386.19
687.28	372.15
687.42	344.06
687.55	437.68
687.69	386.19
687.82	433.00
687.96	397.89
688.10	458.74
688.23	365.12
688.37	461.09
688.50	468.11
688.64	386.19
688.78	376.83
688.91	390.87
689.05	397.89
689.18	393.21
689.32	418.96
689.46	402.57
689.59	447.04
689.73	475.13
689.86	463.43
690.00	458.74
690.13	400.23
690.27	402.57
690.41	447.04
690.54	411.93
690.68	416.62
690.81	358.10
690.95	465.77
691.08	421.30
691.22	332.36
691.35	353.42
691.49	402.57
691.62	376.83
691.76	423.64
691.89	386.19
692.03	393.21
692.16	442.36
692.30	344.06
692.43	397.89
692.57	425.98
692.70	425.98
692.84	418.96
692.97	416.62
693.11	379.17
693.24	386.19
693.38	402.57
693.51	425.98
693.65	468.11
693.78	386.19
693.92	430.66
694.05	425.98
694.19	428.32
694.32	423.64
694.45	458.74
694.59	379.17
694.72	451.72
694.86	437.68
694.99	465.77
695.13	425.98
695.26	484.49
695.39	442.36
695.53	449.38
695.66	444.70
695.80	433.00
695.93	369.80
696.07	383.85
696.20	416.62
696.33	390.87
696.47	360.44
696.60	435.34
696.73	435.34
696.87	411.93
697.00	449.38
697.14	379.17
697.27	425.98
697.40	339.38
697.54	395.55
697.67	372.15
697.80	454.06
697.94	393.21
698.07	374.49
698.21	425.98
698.34	418.96
698.47	325.33
698.61	383.85
698.74	332.36
698.87	423.64
699.01	423.64
699.14	400.23
699.27	491.51
699.40	482.15
699.54	374.49
699.67	330.02
699.80	395.55
699.94	379.17
700.07	362.78
700.20	428.32
700.34	402.57
700.47	311.29
700.60	397.89
700.73	425.98
700.87	454.06
701.00	416.62
701.13	435.34
701.26	395.55
701.40	351.08
701.53	346.40
701.66	390.87
701.79	351.08
701.93	404.91
702.06	465.77
702.19	395.55
702.32	386.19
702.46	440.02
702.59	337.04
702.72	414.27
702.85	362.78
702.99	348.74
703.12	423.64
703.25	393.21
703.38	425.98
703.51	379.17
703.65	435.34
703.78	430.66
703.91	433.00
704.04	505.56
704.17	414.27
704.31	390.87
704.44	348.74
704.57	416.62
704.70	425.98
704.83	423.64
704.96	411.93
705.10	505.56
705.23	390.87
>>>>>End Processed Spectral Data<<<<<
