SpectraSuite Data File
++++++++++++++++++++++++++++++++++++
Date: Fri Oct 25 12:10:32 EDT 2013
User: price-jones
Dark Spectrum Present: No
Reference Spectrum Present: No
Number of Sampled Component Spectra: 1
Spectrometers: USB2+H05261
Integration Time (usec): 100000 (USB2+H05261)
Spectra Averaged: 1 (USB2+H05261)
Boxcar Smoothing: 0 (USB2+H05261)
Correct for Electrical Dark: No (USB2+H05261)
Strobe/Lamp Enabled: No (USB2+H05261)
Correct for Detector Non-linearity: No (USB2+H05261)
Correct for Stray Light: No (USB2+H05261)
Number of Pixels in Processed Spectrum: 2048
>>>>>Begin Processed Spectral Data<<<<<
365.73	337.04
365.92	337.04
366.12	337.04
366.32	278.52
366.52	229.37
366.72	287.89
366.91	292.57
367.11	191.92
367.31	210.65
367.51	262.14
367.70	273.84
367.90	220.01
368.10	212.99
368.30	231.71
368.49	217.67
368.69	269.16
368.89	294.91
369.09	252.78
369.28	280.86
369.48	325.33
369.68	287.89
369.87	262.14
370.07	269.16
370.27	313.63
370.47	390.87
370.66	334.70
370.86	360.44
371.06	334.70
371.25	409.59
371.45	402.57
371.65	404.91
371.84	383.85
372.04	358.10
372.24	358.10
372.44	383.85
372.63	374.49
372.83	400.23
373.03	409.59
373.22	376.83
373.42	486.83
373.62	437.68
373.81	468.11
374.01	449.38
374.21	440.02
374.40	395.55
374.60	407.25
374.79	365.12
374.99	458.74
375.19	435.34
375.38	440.02
375.58	437.68
375.78	390.87
375.97	411.93
376.17	451.72
376.37	447.04
376.56	458.74
376.76	327.68
376.95	393.21
377.15	409.59
377.35	447.04
377.54	418.96
377.74	379.17
377.93	355.76
378.13	451.72
378.33	437.68
378.52	353.42
378.72	393.21
378.91	458.74
379.11	421.30
379.31	381.51
379.50	400.23
379.70	409.59
379.89	463.43
380.09	388.53
380.28	374.49
380.48	423.64
380.68	411.93
380.87	421.30
381.07	393.21
381.26	390.87
381.46	299.59
381.65	348.74
381.85	379.17
382.04	428.32
382.24	407.25
382.43	425.98
382.63	379.17
382.83	395.55
383.02	416.62
383.22	449.38
383.41	376.83
383.61	416.62
383.80	435.34
384.00	425.98
384.19	383.85
384.39	404.91
384.58	367.46
384.78	374.49
384.97	376.83
385.17	435.34
385.36	397.89
385.56	411.93
385.75	449.38
385.95	348.74
386.14	430.66
386.34	381.51
386.53	393.21
386.72	374.49
386.92	433.00
387.11	425.98
387.31	381.51
387.50	402.57
387.70	444.70
387.89	346.40
388.09	374.49
388.28	379.17
388.48	358.10
388.67	444.70
388.86	400.23
389.06	390.87
389.25	458.74
389.45	435.34
389.64	390.87
389.84	454.06
390.03	407.25
390.22	416.62
390.42	320.65
390.61	407.25
390.81	344.06
391.00	404.91
391.19	475.13
391.39	386.19
391.58	376.83
391.78	355.76
391.97	482.15
392.16	376.83
392.36	411.93
392.55	369.80
392.75	369.80
392.94	442.36
393.13	388.53
393.33	348.74
393.52	346.40
393.71	449.38
393.91	416.62
394.10	423.64
394.29	386.19
394.49	355.76
394.68	433.00
394.88	400.23
395.07	409.59
395.26	393.21
395.46	435.34
395.65	390.87
395.84	407.25
396.04	531.30
396.23	414.27
396.42	393.21
396.62	437.68
396.81	393.21
397.00	433.00
397.19	362.78
397.39	388.53
397.58	456.40
397.77	397.89
397.97	355.76
398.16	444.70
398.35	372.15
398.55	367.46
398.74	440.02
398.93	421.30
399.12	433.00
399.32	437.68
399.51	407.25
399.70	351.08
399.90	444.70
400.09	386.19
400.28	430.66
400.47	442.36
400.67	458.74
400.86	440.02
401.05	454.06
401.24	425.98
401.44	416.62
401.63	402.57
401.82	411.93
402.01	404.91
402.21	428.32
402.40	372.15
402.59	423.64
402.78	369.80
402.97	402.57
403.17	442.36
403.36	435.34
403.55	447.04
403.74	491.51
403.93	402.57
404.13	360.44
404.32	353.42
404.51	475.13
404.70	397.89
404.89	386.19
405.09	379.17
405.28	430.66
405.47	423.64
405.66	416.62
405.85	451.72
406.05	397.89
406.24	393.21
406.43	369.80
406.62	425.98
406.81	388.53
407.00	430.66
407.20	320.65
407.39	365.12
407.58	306.61
407.77	425.98
407.96	395.55
408.15	404.91
408.34	449.38
408.54	362.78
408.73	397.89
408.92	451.72
409.11	454.06
409.30	390.87
409.49	388.53
409.68	376.83
409.87	341.72
410.07	390.87
410.26	351.08
410.45	374.49
410.64	383.85
410.83	372.15
411.02	360.44
411.21	397.89
411.40	367.46
411.59	440.02
411.78	395.55
411.98	395.55
412.17	437.68
412.36	444.70
412.55	411.93
412.74	407.25
412.93	425.98
413.12	365.12
413.31	393.21
413.50	390.87
413.69	533.64
413.88	409.59
414.07	409.59
414.26	372.15
414.45	365.12
414.64	423.64
414.83	362.78
415.02	451.72
415.22	423.64
415.41	451.72
415.60	404.91
415.79	381.51
415.98	355.76
416.17	451.72
416.36	411.93
416.55	318.31
416.74	386.19
416.93	535.98
417.12	435.34
417.31	397.89
417.50	440.02
417.69	449.38
417.88	444.70
418.07	409.59
418.26	383.85
418.45	388.53
418.64	468.11
418.83	454.06
419.02	390.87
419.21	397.89
419.39	421.30
419.58	362.78
419.77	362.78
419.96	416.62
420.15	400.23
420.34	341.72
420.53	372.15
420.72	386.19
420.91	393.21
421.10	397.89
421.29	348.74
421.48	351.08
421.67	437.68
421.86	376.83
422.05	404.91
422.24	465.77
422.43	447.04
422.61	470.45
422.80	428.32
422.99	421.30
423.18	414.27
423.37	500.87
423.56	425.98
423.75	383.85
423.94	409.59
424.13	428.32
424.32	411.93
424.50	425.98
424.69	404.91
424.88	477.47
425.07	400.23
425.26	388.53
425.45	421.30
425.64	379.17
425.83	404.91
426.01	411.93
426.20	423.64
426.39	351.08
426.58	470.45
426.77	430.66
426.96	449.38
427.15	381.51
427.33	381.51
427.52	407.25
427.71	344.06
427.90	390.87
428.09	423.64
428.28	390.87
428.46	360.44
428.65	477.47
428.84	440.02
429.03	369.80
429.22	407.25
429.40	360.44
429.59	425.98
429.78	425.98
429.97	400.23
430.16	454.06
430.34	379.17
430.53	379.17
430.72	437.68
430.91	463.43
431.10	442.36
431.28	320.65
431.47	374.49
431.66	390.87
431.85	372.15
432.03	430.66
432.22	484.49
432.41	433.00
432.60	397.89
432.79	486.83
432.97	435.34
433.16	425.98
433.35	365.12
433.54	388.53
433.72	393.21
433.91	414.27
434.10	442.36
434.28	411.93
434.47	393.21
434.66	414.27
434.85	407.25
435.03	449.38
435.22	463.43
435.41	386.19
435.59	393.21
435.78	395.55
435.97	423.64
436.16	409.59
436.34	301.93
436.53	402.57
436.72	404.91
436.90	416.62
437.09	376.83
437.28	372.15
437.46	449.38
437.65	369.80
437.84	496.19
438.02	358.10
438.21	458.74
438.40	416.62
438.58	442.36
438.77	418.96
438.96	423.64
439.14	416.62
439.33	437.68
439.52	435.34
439.70	379.17
439.89	418.96
440.08	400.23
440.26	449.38
440.45	374.49
440.63	390.87
440.82	423.64
441.01	454.06
441.19	435.34
441.38	475.13
441.57	454.06
441.75	451.72
441.94	423.64
442.12	418.96
442.31	409.59
442.50	468.11
442.68	358.10
442.87	388.53
443.05	416.62
443.24	421.30
443.43	451.72
443.61	383.85
443.80	435.34
443.98	411.93
444.17	458.74
444.35	458.74
444.54	482.15
444.73	428.32
444.91	393.21
445.10	409.59
445.28	388.53
445.47	461.09
445.65	456.40
445.84	304.27
446.02	409.59
446.21	315.97
446.39	409.59
446.58	374.49
446.77	451.72
446.95	355.76
447.14	376.83
447.32	416.62
447.51	351.08
447.69	379.17
447.88	402.57
448.06	442.36
448.25	381.51
448.43	383.85
448.62	482.15
448.80	414.27
448.99	477.47
449.17	327.68
449.36	404.91
449.54	393.21
449.73	397.89
449.91	372.15
450.10	376.83
450.28	390.87
450.46	451.72
450.65	437.68
450.83	425.98
451.02	383.85
451.20	388.53
451.39	339.38
451.57	395.55
451.76	388.53
451.94	468.11
452.13	449.38
452.31	463.43
452.49	372.15
452.68	440.02
452.86	458.74
453.05	418.96
453.23	425.98
453.42	369.80
453.60	421.30
453.78	418.96
453.97	390.87
454.15	379.17
454.34	390.87
454.52	397.89
454.70	421.30
454.89	463.43
455.07	411.93
455.26	449.38
455.44	458.74
455.62	353.42
455.81	458.74
455.99	500.87
456.17	411.93
456.36	313.63
456.54	402.57
456.73	430.66
456.91	447.04
457.09	456.40
457.28	409.59
457.46	451.72
457.64	411.93
457.83	451.72
458.01	348.74
458.19	393.21
458.38	390.87
458.56	435.34
458.74	362.78
458.93	435.34
459.11	418.96
459.29	400.23
459.48	451.72
459.66	514.92
459.84	400.23
460.03	454.06
460.21	400.23
460.39	337.04
460.57	449.38
460.76	395.55
460.94	430.66
461.12	416.62
461.31	440.02
461.49	414.27
461.67	440.02
461.85	407.25
462.04	358.10
462.22	716.20
462.40	418.96
462.59	470.45
462.77	400.23
462.95	404.91
463.13	449.38
463.32	461.09
463.50	407.25
463.68	503.22
463.86	386.19
464.05	393.21
464.23	397.89
464.41	395.55
464.59	418.96
464.78	369.80
464.96	456.40
465.14	402.57
465.32	479.81
465.50	416.62
465.69	482.15
465.87	381.51
466.05	367.46
466.23	372.15
466.41	362.78
466.60	386.19
466.78	381.51
466.96	402.57
467.14	425.98
467.32	482.15
467.51	421.30
467.69	411.93
467.87	505.56
468.05	346.40
468.23	421.30
468.41	372.15
468.60	339.38
468.78	381.51
468.96	421.30
469.14	454.06
469.32	423.64
469.50	330.02
469.69	458.74
469.87	397.89
470.05	428.32
470.23	447.04
470.41	400.23
470.59	397.89
470.77	435.34
470.95	423.64
471.14	388.53
471.32	461.09
471.50	461.09
471.68	425.98
471.86	416.62
472.04	390.87
472.22	428.32
472.40	397.89
472.58	383.85
472.77	421.30
472.95	325.33
473.13	449.38
473.31	402.57
473.49	444.70
473.67	376.83
473.85	414.27
474.03	414.27
474.21	444.70
474.39	496.19
474.57	418.96
474.75	449.38
474.93	414.27
475.12	390.87
475.30	376.83
475.48	425.98
475.66	482.15
475.84	414.27
476.02	409.59
476.20	402.57
476.38	390.87
476.56	440.02
476.74	400.23
476.92	435.34
477.10	428.32
477.28	430.66
477.46	423.64
477.64	421.30
477.82	430.66
478.00	397.89
478.18	423.64
478.36	400.23
478.54	414.27
478.72	430.66
478.90	351.08
479.08	388.53
479.26	433.00
479.44	388.53
479.62	411.93
479.80	369.80
479.98	437.68
480.16	454.06
480.34	444.70
480.52	430.66
480.70	421.30
480.88	395.55
481.06	358.10
481.24	451.72
481.41	360.44
481.59	491.51
481.77	402.57
481.95	404.91
482.13	451.72
482.31	411.93
482.49	437.68
482.67	425.98
482.85	411.93
483.03	437.68
483.21	447.04
483.39	482.15
483.57	365.12
483.74	390.87
483.92	421.30
484.10	451.72
484.28	428.32
484.46	440.02
484.64	360.44
484.82	402.57
485.00	374.49
485.18	435.34
485.35	404.91
485.53	472.79
485.71	458.74
485.89	400.23
486.07	468.11
486.25	535.98
486.43	470.45
486.61	409.59
486.78	440.02
486.96	404.91
487.14	407.25
487.32	416.62
487.50	388.53
487.68	425.98
487.85	407.25
488.03	407.25
488.21	416.62
488.39	395.55
488.57	402.57
488.75	362.78
488.92	543.00
489.10	435.34
489.28	479.81
489.46	390.87
489.64	468.11
489.81	442.36
489.99	421.30
490.17	374.49
490.35	386.19
490.53	404.91
490.70	379.17
490.88	379.17
491.06	386.19
491.24	386.19
491.41	475.13
491.59	472.79
491.77	383.85
491.95	395.55
492.13	428.32
492.30	428.32
492.48	451.72
492.66	388.53
492.84	435.34
493.01	456.40
493.19	376.83
493.37	472.79
493.54	365.12
493.72	388.53
493.90	416.62
494.08	428.32
494.25	381.51
494.43	477.47
494.61	367.46
494.79	440.02
494.96	386.19
495.14	444.70
495.32	461.09
495.49	418.96
495.67	393.21
495.85	388.53
496.02	461.09
496.20	428.32
496.38	444.70
496.55	404.91
496.73	416.62
496.91	411.93
497.09	416.62
497.26	421.30
497.44	440.02
497.62	369.80
497.79	386.19
497.97	386.19
498.14	433.00
498.32	433.00
498.50	421.30
498.67	395.55
498.85	388.53
499.03	428.32
499.20	430.66
499.38	433.00
499.56	397.89
499.73	411.93
499.91	407.25
500.08	409.59
500.26	421.30
500.44	374.49
500.61	395.55
500.79	404.91
500.97	433.00
501.14	437.68
501.32	430.66
501.49	430.66
501.67	397.89
501.84	440.02
502.02	358.10
502.20	461.09
502.37	447.04
502.55	451.72
502.72	484.49
502.90	442.36
503.07	465.77
503.25	435.34
503.43	381.51
503.60	404.91
503.78	433.00
503.95	409.59
504.13	390.87
504.30	449.38
504.48	433.00
504.65	411.93
504.83	416.62
505.01	421.30
505.18	365.12
505.36	423.64
505.53	379.17
505.71	402.57
505.88	400.23
506.06	374.49
506.23	374.49
506.41	411.93
506.58	479.81
506.76	421.30
506.93	395.55
507.11	416.62
507.28	390.87
507.46	477.47
507.63	414.27
507.81	332.36
507.98	437.68
508.16	367.46
508.33	433.00
508.50	421.30
508.68	468.11
508.85	409.59
509.03	386.19
509.20	395.55
509.38	482.15
509.55	465.77
509.73	433.00
509.90	435.34
510.08	341.72
510.25	454.06
510.42	430.66
510.60	418.96
510.77	451.72
510.95	425.98
511.12	360.44
511.30	400.23
511.47	393.21
511.64	397.89
511.82	388.53
511.99	425.98
512.17	461.09
512.34	306.61
512.51	337.04
512.69	379.17
512.86	400.23
513.04	484.49
513.21	374.49
513.38	383.85
513.56	465.77
513.73	411.93
513.90	393.21
514.08	430.66
514.25	416.62
514.43	444.70
514.60	337.04
514.77	425.98
514.95	442.36
515.12	404.91
515.29	400.23
515.47	437.68
515.64	414.27
515.81	379.17
515.99	475.13
516.16	435.34
516.33	475.13
516.51	381.51
516.68	390.87
516.85	346.40
517.03	433.00
517.20	407.25
517.37	390.87
517.54	367.46
517.72	404.91
517.89	390.87
518.06	470.45
518.24	388.53
518.41	477.47
518.58	402.57
518.75	425.98
518.93	493.85
519.10	423.64
519.27	423.64
519.45	430.66
519.62	435.34
519.79	433.00
519.96	367.46
520.14	425.98
520.31	458.74
520.48	386.19
520.65	489.17
520.83	447.04
521.00	428.32
521.17	423.64
521.34	374.49
521.52	435.34
521.69	411.93
521.86	304.27
522.03	423.64
522.20	458.74
522.38	442.36
522.55	437.68
522.72	348.74
522.89	388.53
523.07	425.98
523.24	397.89
523.41	397.89
523.58	421.30
523.75	440.02
523.92	379.17
524.10	423.64
524.27	421.30
524.44	411.93
524.61	514.92
524.78	395.55
524.96	461.09
525.13	470.45
525.30	433.00
525.47	416.62
525.64	428.32
525.81	414.27
525.98	393.21
526.16	390.87
526.33	456.40
526.50	388.53
526.67	421.30
526.84	416.62
527.01	346.40
527.18	416.62
527.36	425.98
527.53	425.98
527.70	423.64
527.87	388.53
528.04	381.51
528.21	411.93
528.38	379.17
528.55	496.19
528.72	472.79
528.89	449.38
529.07	442.36
529.24	341.72
529.41	367.46
529.58	374.49
529.75	402.57
529.92	397.89
530.09	407.25
530.26	463.43
530.43	379.17
530.60	334.70
530.77	414.27
530.94	383.85
531.11	388.53
531.28	348.74
531.46	425.98
531.63	430.66
531.80	425.98
531.97	500.87
532.14	411.93
532.31	472.79
532.48	500.87
532.65	414.27
532.82	407.25
532.99	433.00
533.16	414.27
533.33	409.59
533.50	411.93
533.67	397.89
533.84	374.49
534.01	397.89
534.18	433.00
534.35	386.19
534.52	444.70
534.69	458.74
534.86	402.57
535.03	395.55
535.20	451.72
535.37	414.27
535.54	369.80
535.71	409.59
535.88	430.66
536.05	428.32
536.22	365.12
536.38	421.30
536.55	423.64
536.72	449.38
536.89	341.72
537.06	404.91
537.23	367.46
537.40	388.53
537.57	395.55
537.74	423.64
537.91	383.85
538.08	355.76
538.25	458.74
538.42	472.79
538.59	425.98
538.75	353.42
538.92	409.59
539.09	440.02
539.26	440.02
539.43	498.53
539.60	390.87
539.77	423.64
539.94	402.57
540.11	393.21
540.28	433.00
540.44	496.19
540.61	388.53
540.78	379.17
540.95	418.96
541.12	428.32
541.29	411.93
541.46	482.15
541.62	365.12
541.79	449.38
541.96	355.76
542.13	470.45
542.30	376.83
542.47	360.44
542.63	433.00
542.80	444.70
542.97	435.34
543.14	402.57
543.31	411.93
543.48	407.25
543.64	505.56
543.81	456.40
543.98	369.80
544.15	407.25
544.32	433.00
544.48	397.89
544.65	444.70
544.82	451.72
544.99	449.38
545.16	411.93
545.32	369.80
545.49	383.85
545.66	421.30
545.83	416.62
546.00	367.46
546.16	430.66
546.33	461.09
546.50	491.51
546.67	435.34
546.83	444.70
547.00	430.66
547.17	369.80
547.34	376.83
547.50	449.38
547.67	428.32
547.84	416.62
548.00	444.70
548.17	451.72
548.34	444.70
548.51	400.23
548.67	390.87
548.84	381.51
549.01	411.93
549.18	379.17
549.34	437.68
549.51	418.96
549.68	390.87
549.84	465.77
550.01	409.59
550.18	510.24
550.34	510.24
550.51	472.79
550.68	484.49
550.84	388.53
551.01	475.13
551.18	381.51
551.34	503.22
551.51	437.68
551.68	355.76
551.84	351.08
552.01	447.04
552.18	482.15
552.34	332.36
552.51	386.19
552.68	416.62
552.84	372.15
553.01	482.15
553.18	435.34
553.34	376.83
553.51	379.17
553.67	435.34
553.84	540.66
554.01	470.45
554.17	472.79
554.34	435.34
554.51	458.74
554.67	498.53
554.84	430.66
555.00	428.32
555.17	360.44
555.33	327.68
555.50	451.72
555.67	444.70
555.83	393.21
556.00	353.42
556.16	519.60
556.33	397.89
556.50	383.85
556.66	400.23
556.83	447.04
556.99	388.53
557.16	383.85
557.32	395.55
557.49	393.21
557.65	320.65
557.82	381.51
557.98	416.62
558.15	386.19
558.32	372.15
558.48	435.34
558.65	404.91
558.81	496.19
558.98	365.12
559.14	442.36
559.31	416.62
559.47	442.36
559.64	463.43
559.80	477.47
559.97	344.06
560.13	444.70
560.30	421.30
560.46	428.32
560.63	444.70
560.79	421.30
560.96	503.22
561.12	489.17
561.29	397.89
561.45	440.02
561.61	418.96
561.78	517.26
561.94	444.70
562.11	447.04
562.27	472.79
562.44	447.04
562.60	465.77
562.77	463.43
562.93	433.00
563.10	440.02
563.26	407.25
563.42	463.43
563.59	393.21
563.75	395.55
563.92	472.79
564.08	414.27
564.24	360.44
564.41	447.04
564.57	395.55
564.74	404.91
564.90	416.62
565.07	479.81
565.23	447.04
565.39	454.06
565.56	465.77
565.72	386.19
565.88	362.78
566.05	369.80
566.21	339.38
566.38	479.81
566.54	425.98
566.70	421.30
566.87	393.21
567.03	402.57
567.19	402.57
567.36	355.76
567.52	400.23
567.68	479.81
567.85	369.80
568.01	428.32
568.17	444.70
568.34	369.80
568.50	411.93
568.66	400.23
568.83	505.56
568.99	423.64
569.15	430.66
569.32	348.74
569.48	425.98
569.64	346.40
569.81	451.72
569.97	409.59
570.13	449.38
570.30	374.49
570.46	393.21
570.62	437.68
570.78	374.49
570.95	334.70
571.11	526.62
571.27	418.96
571.43	407.25
571.60	454.06
571.76	430.66
571.92	435.34
572.09	395.55
572.25	468.11
572.41	468.11
572.57	458.74
572.74	423.64
572.90	451.72
573.06	470.45
573.22	465.77
573.38	414.27
573.55	437.68
573.71	472.79
573.87	360.44
574.03	451.72
574.20	322.99
574.36	435.34
574.52	489.17
574.68	395.55
574.84	346.40
575.01	402.57
575.17	362.78
575.33	407.25
575.49	365.12
575.65	444.70
575.82	383.85
575.98	435.34
576.14	437.68
576.30	414.27
576.46	351.08
576.62	416.62
576.79	388.53
576.95	421.30
577.11	489.17
577.27	369.80
577.43	477.47
577.59	374.49
577.75	400.23
577.92	376.83
578.08	437.68
578.24	442.36
578.40	444.70
578.56	449.38
578.72	514.92
578.88	421.30
579.04	351.08
579.21	374.49
579.37	395.55
579.53	390.87
579.69	421.30
579.85	409.59
580.01	416.62
580.17	395.55
580.33	395.55
580.49	388.53
580.65	376.83
580.82	369.80
580.98	407.25
581.14	402.57
581.30	458.74
581.46	395.55
581.62	388.53
581.78	437.68
581.94	442.36
582.10	395.55
582.26	411.93
582.42	425.98
582.58	416.62
582.74	430.66
582.90	400.23
583.06	414.27
583.22	393.21
583.38	449.38
583.54	447.04
583.70	388.53
583.86	388.53
584.02	421.30
584.18	414.27
584.34	428.32
584.50	444.70
584.66	330.02
584.82	355.76
584.98	383.85
585.14	428.32
585.30	369.80
585.46	437.68
585.62	327.68
585.78	433.00
585.94	411.93
586.10	404.91
586.26	404.91
586.42	372.15
586.58	451.72
586.74	433.00
586.90	461.09
587.06	381.51
587.22	379.17
587.38	395.55
587.54	418.96
587.70	433.00
587.86	416.62
588.02	346.40
588.18	411.93
588.34	416.62
588.49	393.21
588.65	449.38
588.81	470.45
588.97	388.53
589.13	454.06
589.29	479.81
589.45	463.43
589.61	435.34
589.77	414.27
589.93	418.96
590.08	421.30
590.24	374.49
590.40	425.98
590.56	344.06
590.72	418.96
590.88	369.80
591.04	468.11
591.20	447.04
591.35	447.04
591.51	388.53
591.67	447.04
591.83	435.34
591.99	486.83
592.15	440.02
592.31	416.62
592.46	409.59
592.62	444.70
592.78	400.23
592.94	458.74
593.10	397.89
593.26	416.62
593.41	402.57
593.57	388.53
593.73	435.34
593.89	458.74
594.05	383.85
594.20	428.32
594.36	388.53
594.52	416.62
594.68	390.87
594.84	325.33
594.99	484.49
595.15	440.02
595.31	449.38
595.47	465.77
595.62	402.57
595.78	458.74
595.94	416.62
596.10	425.98
596.25	440.02
596.41	341.72
596.57	397.89
596.73	379.17
596.88	402.57
597.04	454.06
597.20	421.30
597.36	451.72
597.51	376.83
597.67	440.02
597.83	451.72
597.99	440.02
598.14	395.55
598.30	400.23
598.46	416.62
598.61	397.89
598.77	365.12
598.93	358.10
599.09	425.98
599.24	409.59
599.40	416.62
599.56	379.17
599.71	454.06
599.87	339.38
600.03	374.49
600.18	440.02
600.34	510.24
600.50	393.21
600.65	430.66
600.81	348.74
600.97	416.62
601.12	400.23
601.28	484.49
601.44	400.23
601.59	416.62
601.75	397.89
601.91	386.19
602.06	367.46
602.22	423.64
602.37	449.38
602.53	416.62
602.69	407.25
602.84	425.98
603.00	409.59
603.16	425.98
603.31	442.36
603.47	411.93
603.62	362.78
603.78	355.76
603.94	383.85
604.09	461.09
604.25	416.62
604.40	400.23
604.56	411.93
604.71	372.15
604.87	362.78
605.03	418.96
605.18	477.47
605.34	435.34
605.49	491.51
605.65	440.02
605.80	400.23
605.96	451.72
606.12	454.06
606.27	418.96
606.43	407.25
606.58	421.30
606.74	393.21
606.89	454.06
607.05	393.21
607.20	468.11
607.36	369.80
607.51	416.62
607.67	362.78
607.82	376.83
607.98	430.66
608.13	416.62
608.29	458.74
608.44	519.60
608.60	407.25
608.75	341.72
608.91	437.68
609.06	454.06
609.22	414.27
609.37	383.85
609.53	489.17
609.68	461.09
609.84	449.38
609.99	416.62
610.15	421.30
610.30	470.45
610.46	484.49
610.61	444.70
610.76	374.49
610.92	433.00
611.07	402.57
611.23	423.64
611.38	348.74
611.54	393.21
611.69	386.19
611.84	344.06
612.00	428.32
612.15	402.57
612.31	372.15
612.46	404.91
612.62	383.85
612.77	484.49
612.92	421.30
613.08	402.57
613.23	402.57
613.39	421.30
613.54	390.87
613.69	379.17
613.85	409.59
614.00	468.11
614.15	400.23
614.31	318.31
614.46	425.98
614.62	395.55
614.77	369.80
614.92	458.74
615.08	409.59
615.23	355.76
615.38	435.34
615.54	428.32
615.69	397.89
615.84	433.00
616.00	386.19
616.15	447.04
616.30	430.66
616.46	433.00
616.61	404.91
616.76	407.25
616.92	463.43
617.07	404.91
617.22	433.00
617.37	428.32
617.53	365.12
617.68	388.53
617.83	339.38
617.99	372.15
618.14	425.98
618.29	418.96
618.45	402.57
618.60	428.32
618.75	437.68
618.90	365.12
619.06	421.30
619.21	390.87
619.36	477.47
619.51	379.17
619.67	409.59
619.82	402.57
619.97	428.32
620.12	409.59
620.28	367.46
620.43	463.43
620.58	461.09
620.73	388.53
620.89	451.72
621.04	383.85
621.19	416.62
621.34	440.02
621.49	430.66
621.65	428.32
621.80	393.21
621.95	351.08
622.10	463.43
622.25	421.30
622.41	400.23
622.56	379.17
622.71	463.43
622.86	421.30
623.01	388.53
623.16	430.66
623.32	442.36
623.47	491.51
623.62	430.66
623.77	479.81
623.92	402.57
624.07	421.30
624.23	423.64
624.38	395.55
624.53	461.09
624.68	472.79
624.83	484.49
624.98	484.49
625.13	451.72
625.29	381.51
625.44	388.53
625.59	337.04
625.74	411.93
625.89	409.59
626.04	421.30
626.19	388.53
626.34	425.98
626.49	421.30
626.65	430.66
626.80	465.77
626.95	484.49
627.10	444.70
627.25	393.21
627.40	479.81
627.55	390.87
627.70	428.32
627.85	390.87
628.00	397.89
628.15	442.36
628.30	440.02
628.45	430.66
628.60	353.42
628.76	428.32
628.91	337.04
629.06	360.44
629.21	423.64
629.36	388.53
629.51	442.36
629.66	477.47
629.81	414.27
629.96	418.96
630.11	479.81
630.26	433.00
630.41	425.98
630.56	454.06
630.71	395.55
630.86	404.91
631.01	344.06
631.16	334.70
631.31	451.72
631.46	430.66
631.61	449.38
631.76	423.64
631.91	400.23
632.06	402.57
632.21	379.17
632.36	379.17
632.51	423.64
632.66	388.53
632.81	407.25
632.96	454.06
633.10	397.89
633.25	456.40
633.40	409.59
633.55	379.17
633.70	334.70
633.85	388.53
634.00	421.30
634.15	344.06
634.30	337.04
634.45	332.36
634.60	433.00
634.75	376.83
634.90	374.49
635.05	388.53
635.19	362.78
635.34	468.11
635.49	479.81
635.64	456.40
635.79	437.68
635.94	435.34
636.09	456.40
636.24	458.74
636.39	397.89
636.53	442.36
636.68	414.27
636.83	470.45
636.98	369.80
637.13	353.42
637.28	440.02
637.43	449.38
637.57	465.77
637.72	451.72
637.87	409.59
638.02	472.79
638.17	402.57
638.32	351.08
638.46	468.11
638.61	479.81
638.76	425.98
638.91	430.66
639.06	374.49
639.20	470.45
639.35	470.45
639.50	393.21
639.65	461.09
639.80	355.76
639.94	418.96
640.09	400.23
640.24	428.32
640.39	416.62
640.54	463.43
640.68	411.93
640.83	428.32
640.98	372.15
641.13	365.12
641.27	388.53
641.42	421.30
641.57	470.45
641.72	372.15
641.86	430.66
642.01	414.27
642.16	468.11
642.31	444.70
642.45	381.51
642.60	390.87
642.75	397.89
642.90	496.19
643.04	428.32
643.19	367.46
643.34	395.55
643.48	374.49
643.63	414.27
643.78	369.80
643.93	428.32
644.07	449.38
644.22	465.77
644.37	414.27
644.51	397.89
644.66	440.02
644.81	458.74
644.95	472.79
645.10	423.64
645.25	451.72
645.39	416.62
645.54	470.45
645.69	479.81
645.83	386.19
645.98	451.72
646.13	404.91
646.27	339.38
646.42	369.80
646.57	449.38
646.71	416.62
646.86	404.91
647.00	393.21
647.15	421.30
647.30	444.70
647.44	447.04
647.59	418.96
647.74	393.21
647.88	348.74
648.03	386.19
648.17	437.68
648.32	381.51
648.47	423.64
648.61	362.78
648.76	437.68
648.90	477.47
649.05	435.34
649.20	407.25
649.34	355.76
649.49	379.17
649.63	461.09
649.78	395.55
649.92	428.32
650.07	379.17
650.21	395.55
650.36	454.06
650.51	411.93
650.65	484.49
650.80	449.38
650.94	442.36
651.09	407.25
651.23	400.23
651.38	351.08
651.52	437.68
651.67	388.53
651.81	416.62
651.96	437.68
652.10	503.22
652.25	458.74
652.39	372.15
652.54	337.04
652.68	433.00
652.83	423.64
652.97	461.09
653.12	416.62
653.26	339.38
653.41	404.91
653.55	454.06
653.70	454.06
653.84	372.15
653.99	433.00
654.13	395.55
654.27	365.12
654.42	447.04
654.56	416.62
654.71	418.96
654.85	395.55
655.00	397.89
655.14	402.57
655.29	449.38
655.43	411.93
655.57	379.17
655.72	374.49
655.86	411.93
656.01	465.77
656.15	376.83
656.30	416.62
656.44	416.62
656.58	472.79
656.73	428.32
656.87	337.04
657.01	428.32
657.16	486.83
657.30	390.87
657.45	395.55
657.59	414.27
657.73	437.68
657.88	334.70
658.02	486.83
658.16	449.38
658.31	435.34
658.45	374.49
658.60	395.55
658.74	369.80
658.88	386.19
659.03	379.17
659.17	374.49
659.31	404.91
659.46	397.89
659.60	442.36
659.74	400.23
659.89	435.34
660.03	393.21
660.17	470.45
660.32	493.85
660.46	390.87
660.60	386.19
660.74	440.02
660.89	393.21
661.03	425.98
661.17	425.98
661.32	447.04
661.46	397.89
661.60	374.49
661.74	428.32
661.89	458.74
662.03	465.77
662.17	407.25
662.31	388.53
662.46	484.49
662.60	395.55
662.74	484.49
662.88	379.17
663.03	461.09
663.17	458.74
663.31	461.09
663.45	505.56
663.60	447.04
663.74	386.19
663.88	383.85
664.02	388.53
664.17	374.49
664.31	365.12
664.45	376.83
664.59	388.53
664.73	395.55
664.88	404.91
665.02	463.43
665.16	393.21
665.30	411.93
665.44	444.70
665.59	437.68
665.73	423.64
665.87	400.23
666.01	491.51
666.15	393.21
666.29	444.70
666.44	447.04
666.58	507.90
666.72	451.72
666.86	409.59
667.00	425.98
667.14	425.98
667.28	418.96
667.43	383.85
667.57	456.40
667.71	486.83
667.85	461.09
667.99	421.30
668.13	430.66
668.27	444.70
668.41	472.79
668.56	407.25
668.70	477.47
668.84	383.85
668.98	404.91
669.12	369.80
669.26	440.02
669.40	440.02
669.54	346.40
669.68	386.19
669.82	458.74
669.96	381.51
670.10	395.55
670.25	376.83
670.39	379.17
670.53	433.00
670.67	425.98
670.81	360.44
670.95	451.72
671.09	433.00
671.23	423.64
671.37	365.12
671.51	449.38
671.65	421.30
671.79	383.85
671.93	386.19
672.07	491.51
672.21	414.27
672.35	409.59
672.49	461.09
672.63	418.96
672.77	421.30
672.91	374.49
673.05	404.91
673.19	351.08
673.33	409.59
673.47	447.04
673.61	416.62
673.75	411.93
673.89	341.72
674.03	442.36
674.17	407.25
674.31	402.57
674.45	435.34
674.59	430.66
674.73	425.98
674.87	341.72
675.01	393.21
675.15	411.93
675.29	461.09
675.43	496.19
675.56	458.74
675.70	463.43
675.84	299.59
675.98	444.70
676.12	486.83
676.26	395.55
676.40	390.87
676.54	468.11
676.68	437.68
676.82	437.68
676.96	353.42
677.10	444.70
677.23	365.12
677.37	393.21
677.51	456.40
677.65	444.70
677.79	379.17
677.93	376.83
678.07	402.57
678.21	355.76
678.34	397.89
678.48	400.23
678.62	470.45
678.76	433.00
678.90	393.21
679.04	430.66
679.18	404.91
679.31	393.21
679.45	416.62
679.59	437.68
679.73	444.70
679.87	393.21
680.00	372.15
680.14	404.91
680.28	477.47
680.42	472.79
680.56	472.79
680.70	486.83
680.83	482.15
680.97	433.00
681.11	444.70
681.25	393.21
681.39	353.42
681.52	390.87
681.66	458.74
681.80	470.45
681.94	414.27
682.07	407.25
682.21	505.56
682.35	472.79
682.49	430.66
682.62	449.38
682.76	393.21
682.90	428.32
683.04	409.59
683.17	428.32
683.31	437.68
683.45	393.21
683.59	390.87
683.72	468.11
683.86	435.34
684.00	339.38
684.13	437.68
684.27	409.59
684.41	386.19
684.55	388.53
684.68	477.47
684.82	393.21
684.96	358.10
685.09	416.62
685.23	383.85
685.37	430.66
685.50	332.36
685.64	437.68
685.78	400.23
685.91	344.06
686.05	451.72
686.19	437.68
686.32	423.64
686.46	400.23
686.60	383.85
686.73	444.70
686.87	423.64
687.01	383.85
687.14	341.72
687.28	397.89
687.42	390.87
687.55	390.87
687.69	447.04
687.82	409.59
687.96	421.30
688.10	449.38
688.23	409.59
688.37	486.83
688.50	411.93
688.64	489.17
688.78	442.36
688.91	390.87
689.05	421.30
689.18	395.55
689.32	442.36
689.46	416.62
689.59	444.70
689.73	416.62
689.86	390.87
690.00	402.57
690.13	414.27
690.27	468.11
690.41	351.08
690.54	451.72
690.68	442.36
690.81	402.57
690.95	418.96
691.08	421.30
691.22	430.66
691.35	409.59
691.49	409.59
691.62	407.25
691.76	393.21
691.89	407.25
692.03	332.36
692.16	369.80
692.30	386.19
692.43	330.02
692.57	407.25
692.70	372.15
692.84	351.08
692.97	447.04
693.11	358.10
693.24	416.62
693.38	423.64
693.51	358.10
693.65	407.25
693.78	353.42
693.92	386.19
694.05	325.33
694.19	433.00
694.32	386.19
694.45	442.36
694.59	379.17
694.72	447.04
694.86	376.83
694.99	351.08
695.13	393.21
695.26	428.32
695.39	433.00
695.53	428.32
695.66	477.47
695.80	428.32
695.93	414.27
696.07	437.68
696.20	447.04
696.33	381.51
696.47	393.21
696.60	395.55
696.73	423.64
696.87	400.23
697.00	458.74
697.14	451.72
697.27	402.57
697.40	428.32
697.54	383.85
697.67	395.55
697.80	362.78
697.94	416.62
698.07	465.77
698.21	416.62
698.34	416.62
698.47	447.04
698.61	411.93
698.74	461.09
698.87	437.68
699.01	458.74
699.14	400.23
699.27	402.57
699.40	486.83
699.54	402.57
699.67	404.91
699.80	407.25
699.94	416.62
700.07	355.76
700.20	381.51
700.34	369.80
700.47	395.55
700.60	423.64
700.73	344.06
700.87	468.11
701.00	381.51
701.13	393.21
701.26	421.30
701.40	409.59
701.53	400.23
701.66	404.91
701.79	379.17
701.93	423.64
702.06	416.62
702.19	421.30
702.32	414.27
702.46	365.12
702.59	435.34
702.72	475.13
702.85	411.93
702.99	395.55
703.12	444.70
703.25	404.91
703.38	428.32
703.51	409.59
703.65	351.08
703.78	374.49
703.91	468.11
704.04	444.70
704.17	365.12
704.31	421.30
704.44	400.23
704.57	353.42
704.70	351.08
704.83	360.44
704.96	456.40
705.10	437.68
705.23	341.72
>>>>>End Processed Spectral Data<<<<<
