SpectraSuite Data File
++++++++++++++++++++++++++++++++++++
Date: Fri Oct 25 12:10:57 EDT 2013
User: price-jones
Dark Spectrum Present: No
Reference Spectrum Present: No
Number of Sampled Component Spectra: 1
Spectrometers: USB2+H05261
Integration Time (usec): 100000 (USB2+H05261)
Spectra Averaged: 1 (USB2+H05261)
Boxcar Smoothing: 0 (USB2+H05261)
Correct for Electrical Dark: No (USB2+H05261)
Strobe/Lamp Enabled: No (USB2+H05261)
Correct for Detector Non-linearity: No (USB2+H05261)
Correct for Stray Light: No (USB2+H05261)
Number of Pixels in Processed Spectrum: 2048
>>>>>Begin Processed Spectral Data<<<<<
365.73	367.46
365.92	367.46
366.12	367.46
366.32	229.37
366.52	264.48
366.72	259.80
366.91	266.82
367.11	177.88
367.31	280.86
367.51	229.37
367.70	269.16
367.90	220.01
368.10	198.95
368.30	238.73
368.49	222.35
368.69	170.86
368.89	278.52
369.09	264.48
369.28	266.82
369.48	276.18
369.68	229.37
369.87	231.71
370.07	332.36
370.27	308.95
370.47	255.12
370.66	334.70
370.86	402.57
371.06	440.02
371.25	381.51
371.45	369.80
371.65	341.72
371.84	433.00
372.04	381.51
372.24	411.93
372.44	465.77
372.63	386.19
372.83	362.78
373.03	372.15
373.22	369.80
373.42	374.49
373.62	360.44
373.81	440.02
374.01	442.36
374.21	395.55
374.40	433.00
374.60	435.34
374.79	435.34
374.99	367.46
375.19	444.70
375.38	477.47
375.58	414.27
375.78	430.66
375.97	416.62
376.17	423.64
376.37	416.62
376.56	428.32
376.76	367.46
376.95	421.30
377.15	374.49
377.35	397.89
377.54	458.74
377.74	409.59
377.93	374.49
378.13	365.12
378.33	393.21
378.52	362.78
378.72	425.98
378.91	409.59
379.11	440.02
379.31	390.87
379.50	475.13
379.70	353.42
379.89	470.45
380.09	442.36
380.28	383.85
380.48	421.30
380.68	390.87
380.87	365.12
381.07	402.57
381.26	461.09
381.46	404.91
381.65	383.85
381.85	435.34
382.04	416.62
382.24	404.91
382.43	433.00
382.63	294.91
382.83	362.78
383.02	414.27
383.22	400.23
383.41	395.55
383.61	407.25
383.80	390.87
384.00	461.09
384.19	358.10
384.39	477.47
384.58	440.02
384.78	409.59
384.97	388.53
385.17	402.57
385.36	465.77
385.56	486.83
385.75	397.89
385.95	390.87
386.14	458.74
386.34	397.89
386.53	449.38
386.72	365.12
386.92	430.66
387.11	358.10
387.31	437.68
387.50	435.34
387.70	376.83
387.89	451.72
388.09	376.83
388.28	337.04
388.48	472.79
388.67	395.55
388.86	416.62
389.06	386.19
389.25	421.30
389.45	397.89
389.64	390.87
389.84	477.47
390.03	461.09
390.22	447.04
390.42	477.47
390.61	334.70
390.81	418.96
391.00	477.47
391.19	367.46
391.39	482.15
391.58	456.40
391.78	400.23
391.97	451.72
392.16	449.38
392.36	416.62
392.55	447.04
392.75	428.32
392.94	393.21
393.13	423.64
393.33	393.21
393.52	414.27
393.71	479.81
393.91	428.32
394.10	428.32
394.29	428.32
394.49	393.21
394.68	355.76
394.88	397.89
395.07	400.23
395.26	428.32
395.46	468.11
395.65	407.25
395.84	393.21
396.04	468.11
396.23	404.91
396.42	404.91
396.62	409.59
396.81	449.38
397.00	411.93
397.19	376.83
397.39	379.17
397.58	444.70
397.77	447.04
397.97	372.15
398.16	334.70
398.35	440.02
398.55	440.02
398.74	425.98
398.93	463.43
399.12	337.04
399.32	425.98
399.51	416.62
399.70	442.36
399.90	320.65
400.09	458.74
400.28	414.27
400.47	395.55
400.67	379.17
400.86	369.80
401.05	477.47
401.24	486.83
401.44	390.87
401.63	484.49
401.82	376.83
402.01	353.42
402.21	416.62
402.40	425.98
402.59	416.62
402.78	433.00
402.97	374.49
403.17	407.25
403.36	489.17
403.55	409.59
403.74	383.85
403.93	442.36
404.13	418.96
404.32	381.51
404.51	468.11
404.70	425.98
404.89	381.51
405.09	449.38
405.28	416.62
405.47	430.66
405.66	449.38
405.85	468.11
406.05	362.78
406.24	330.02
406.43	451.72
406.62	486.83
406.81	475.13
407.00	421.30
407.20	362.78
407.39	440.02
407.58	491.51
407.77	367.46
407.96	388.53
408.15	468.11
408.34	430.66
408.54	411.93
408.73	416.62
408.92	397.89
409.11	400.23
409.30	390.87
409.49	344.06
409.68	465.77
409.87	433.00
410.07	379.17
410.26	362.78
410.45	444.70
410.64	400.23
410.83	461.09
411.02	430.66
411.21	402.57
411.40	472.79
411.59	449.38
411.78	409.59
411.98	376.83
412.17	386.19
412.36	379.17
412.55	365.12
412.74	447.04
412.93	428.32
413.12	486.83
413.31	498.53
413.50	383.85
413.69	435.34
413.88	444.70
414.07	468.11
414.26	393.21
414.45	409.59
414.64	395.55
414.83	390.87
415.02	463.43
415.22	449.38
415.41	437.68
415.60	461.09
415.79	341.72
415.98	418.96
416.17	390.87
416.36	470.45
416.55	454.06
416.74	440.02
416.93	433.00
417.12	402.57
417.31	414.27
417.50	386.19
417.69	468.11
417.88	393.21
418.07	418.96
418.26	339.38
418.45	435.34
418.64	372.15
418.83	444.70
419.02	397.89
419.21	379.17
419.39	411.93
419.58	409.59
419.77	379.17
419.96	421.30
420.15	390.87
420.34	395.55
420.53	428.32
420.72	379.17
420.91	390.87
421.10	418.96
421.29	430.66
421.48	390.87
421.67	465.77
421.86	435.34
422.05	395.55
422.24	411.93
422.43	454.06
422.61	362.78
422.80	421.30
422.99	365.12
423.18	404.91
423.37	397.89
423.56	411.93
423.75	433.00
423.94	379.17
424.13	379.17
424.32	423.64
424.50	402.57
424.69	447.04
424.88	416.62
425.07	404.91
425.26	440.02
425.45	402.57
425.64	395.55
425.83	379.17
426.01	447.04
426.20	486.83
426.39	402.57
426.58	388.53
426.77	407.25
426.96	386.19
427.15	428.32
427.33	400.23
427.52	381.51
427.71	409.59
427.90	435.34
428.09	423.64
428.28	447.04
428.46	388.53
428.65	379.17
428.84	379.17
429.03	447.04
429.22	435.34
429.40	416.62
429.59	407.25
429.78	451.72
429.97	470.45
430.16	404.91
430.34	411.93
430.53	386.19
430.72	360.44
430.91	430.66
431.10	407.25
431.28	442.36
431.47	369.80
431.66	414.27
431.85	461.09
432.03	458.74
432.22	400.23
432.41	418.96
432.60	493.85
432.79	423.64
432.97	416.62
433.16	376.83
433.35	421.30
433.54	416.62
433.72	444.70
433.91	360.44
434.10	388.53
434.28	402.57
434.47	388.53
434.66	470.45
434.85	334.70
435.03	388.53
435.22	402.57
435.41	447.04
435.59	421.30
435.78	475.13
435.97	379.17
436.16	351.08
436.34	388.53
436.53	400.23
436.72	430.66
436.90	470.45
437.09	409.59
437.28	402.57
437.46	341.72
437.65	409.59
437.84	379.17
438.02	416.62
438.21	395.55
438.40	369.80
438.58	362.78
438.77	416.62
438.96	442.36
439.14	365.12
439.33	404.91
439.52	341.72
439.70	411.93
439.89	372.15
440.08	463.43
440.26	393.21
440.45	411.93
440.63	456.40
440.82	393.21
441.01	409.59
441.19	402.57
441.38	402.57
441.57	381.51
441.75	482.15
441.94	442.36
442.12	390.87
442.31	383.85
442.50	428.32
442.68	416.62
442.87	383.85
443.05	379.17
443.24	372.15
443.43	355.76
443.61	428.32
443.80	376.83
443.98	444.70
444.17	390.87
444.35	428.32
444.54	414.27
444.73	414.27
444.91	437.68
445.10	416.62
445.28	414.27
445.47	395.55
445.65	337.04
445.84	325.33
446.02	411.93
446.21	440.02
446.39	393.21
446.58	393.21
446.77	423.64
446.95	327.68
447.14	418.96
447.32	496.19
447.51	468.11
447.69	442.36
447.88	383.85
448.06	444.70
448.25	454.06
448.43	447.04
448.62	383.85
448.80	444.70
448.99	397.89
449.17	440.02
449.36	358.10
449.54	482.15
449.73	404.91
449.91	416.62
450.10	407.25
450.28	447.04
450.46	484.49
450.65	416.62
450.83	428.32
451.02	440.02
451.20	449.38
451.39	397.89
451.57	418.96
451.76	395.55
451.94	362.78
452.13	344.06
452.31	447.04
452.49	402.57
452.68	393.21
452.86	369.80
453.05	437.68
453.23	374.49
453.42	484.49
453.60	369.80
453.78	397.89
453.97	365.12
454.15	367.46
454.34	372.15
454.52	365.12
454.70	458.74
454.89	461.09
455.07	468.11
455.26	430.66
455.44	416.62
455.62	348.74
455.81	421.30
455.99	454.06
456.17	416.62
456.36	374.49
456.54	372.15
456.73	353.42
456.91	423.64
457.09	440.02
457.28	440.02
457.46	400.23
457.64	383.85
457.83	416.62
458.01	337.04
458.19	372.15
458.38	430.66
458.56	442.36
458.74	444.70
458.93	472.79
459.11	372.15
459.29	433.00
459.48	468.11
459.66	454.06
459.84	414.27
460.03	489.17
460.21	514.92
460.39	442.36
460.57	404.91
460.76	430.66
460.94	472.79
461.12	470.45
461.31	416.62
461.49	416.62
461.67	400.23
461.85	355.76
462.04	404.91
462.22	760.67
462.40	505.56
462.59	454.06
462.77	376.83
462.95	414.27
463.13	461.09
463.32	479.81
463.50	437.68
463.68	365.12
463.86	390.87
464.05	421.30
464.23	386.19
464.41	400.23
464.59	376.83
464.78	337.04
464.96	442.36
465.14	447.04
465.32	411.93
465.50	369.80
465.69	386.19
465.87	376.83
466.05	407.25
466.23	341.72
466.41	341.72
466.60	433.00
466.78	292.57
466.96	437.68
467.14	435.34
467.32	454.06
467.51	397.89
467.69	465.77
467.87	463.43
468.05	463.43
468.23	477.47
468.41	423.64
468.60	437.68
468.78	475.13
468.96	414.27
469.14	388.53
469.32	346.40
469.50	388.53
469.69	416.62
469.87	449.38
470.05	428.32
470.23	411.93
470.41	414.27
470.59	477.47
470.77	451.72
470.95	433.00
471.14	468.11
471.32	461.09
471.50	407.25
471.68	409.59
471.86	456.40
472.04	418.96
472.22	437.68
472.40	425.98
472.58	393.21
472.77	404.91
472.95	374.49
473.13	444.70
473.31	386.19
473.49	365.12
473.67	365.12
473.85	374.49
474.03	418.96
474.21	367.46
474.39	430.66
474.57	465.77
474.75	416.62
474.93	383.85
475.12	454.06
475.30	475.13
475.48	447.04
475.66	454.06
475.84	447.04
476.02	374.49
476.20	461.09
476.38	475.13
476.56	477.47
476.74	421.30
476.92	379.17
477.10	437.68
477.28	430.66
477.46	395.55
477.64	423.64
477.82	400.23
478.00	421.30
478.18	390.87
478.36	423.64
478.54	386.19
478.72	433.00
478.90	395.55
479.08	372.15
479.26	390.87
479.44	454.06
479.62	355.76
479.80	397.89
479.98	397.89
480.16	423.64
480.34	383.85
480.52	414.27
480.70	404.91
480.88	381.51
481.06	435.34
481.24	423.64
481.41	428.32
481.59	437.68
481.77	351.08
481.95	400.23
482.13	397.89
482.31	379.17
482.49	353.42
482.67	379.17
482.85	395.55
483.03	444.70
483.21	397.89
483.39	444.70
483.57	393.21
483.74	421.30
483.92	428.32
484.10	393.21
484.28	435.34
484.46	454.06
484.64	428.32
484.82	400.23
485.00	416.62
485.18	414.27
485.35	442.36
485.53	386.19
485.71	428.32
485.89	423.64
486.07	379.17
486.25	458.74
486.43	475.13
486.61	433.00
486.78	409.59
486.96	437.68
487.14	400.23
487.32	423.64
487.50	395.55
487.68	395.55
487.85	402.57
488.03	468.11
488.21	472.79
488.39	435.34
488.57	416.62
488.75	395.55
488.92	507.90
489.10	447.04
489.28	409.59
489.46	456.40
489.64	411.93
489.81	425.98
489.99	458.74
490.17	372.15
490.35	451.72
490.53	409.59
490.70	444.70
490.88	421.30
491.06	362.78
491.24	388.53
491.41	386.19
491.59	367.46
491.77	416.62
491.95	416.62
492.13	418.96
492.30	379.17
492.48	428.32
492.66	407.25
492.84	428.32
493.01	451.72
493.19	376.83
493.37	416.62
493.54	451.72
493.72	428.32
493.90	332.36
494.08	390.87
494.25	393.21
494.43	367.46
494.61	425.98
494.79	374.49
494.96	407.25
495.14	428.32
495.32	442.36
495.49	409.59
495.67	376.83
495.85	393.21
496.02	444.70
496.20	433.00
496.38	468.11
496.55	423.64
496.73	449.38
496.91	407.25
497.09	442.36
497.26	362.78
497.44	465.77
497.62	421.30
497.79	458.74
497.97	465.77
498.14	449.38
498.32	430.66
498.50	423.64
498.67	365.12
498.85	430.66
499.03	393.21
499.20	402.57
499.38	433.00
499.56	421.30
499.73	470.45
499.91	393.21
500.08	507.90
500.26	496.19
500.44	428.32
500.61	465.77
500.79	407.25
500.97	482.15
501.14	449.38
501.32	390.87
501.49	437.68
501.67	372.15
501.84	421.30
502.02	435.34
502.20	465.77
502.37	416.62
502.55	428.32
502.72	411.93
502.90	444.70
503.07	393.21
503.25	449.38
503.43	409.59
503.60	421.30
503.78	418.96
503.95	327.68
504.13	472.79
504.30	442.36
504.48	407.25
504.65	423.64
504.83	433.00
505.01	383.85
505.18	498.53
505.36	372.15
505.53	425.98
505.71	447.04
505.88	470.45
506.06	388.53
506.23	376.83
506.41	407.25
506.58	418.96
506.76	451.72
506.93	477.47
507.11	475.13
507.28	411.93
507.46	411.93
507.63	376.83
507.81	463.43
507.98	390.87
508.16	407.25
508.33	407.25
508.50	437.68
508.68	503.22
508.85	477.47
509.03	369.80
509.20	365.12
509.38	416.62
509.55	461.09
509.73	402.57
509.90	458.74
510.08	386.19
510.25	479.81
510.42	421.30
510.60	468.11
510.77	482.15
510.95	430.66
511.12	430.66
511.30	418.96
511.47	383.85
511.64	409.59
511.82	404.91
511.99	383.85
512.17	353.42
512.34	404.91
512.51	386.19
512.69	430.66
512.86	449.38
513.04	451.72
513.21	397.89
513.38	390.87
513.56	430.66
513.73	449.38
513.90	458.74
514.08	444.70
514.25	346.40
514.43	402.57
514.60	381.51
514.77	388.53
514.95	346.40
515.12	379.17
515.29	442.36
515.47	442.36
515.64	348.74
515.81	428.32
515.99	484.49
516.16	430.66
516.33	479.81
516.51	421.30
516.68	414.27
516.85	458.74
517.03	386.19
517.20	428.32
517.37	444.70
517.54	482.15
517.72	379.17
517.89	397.89
518.06	472.79
518.24	484.49
518.41	468.11
518.58	409.59
518.75	332.36
518.93	416.62
519.10	416.62
519.27	465.77
519.45	372.15
519.62	418.96
519.79	369.80
519.96	486.83
520.14	360.44
520.31	437.68
520.48	400.23
520.65	430.66
520.83	442.36
521.00	440.02
521.17	475.13
521.34	454.06
521.52	433.00
521.69	407.25
521.86	482.15
522.03	411.93
522.20	458.74
522.38	465.77
522.55	425.98
522.72	402.57
522.89	409.59
523.07	449.38
523.24	433.00
523.41	376.83
523.58	475.13
523.75	468.11
523.92	411.93
524.10	407.25
524.27	400.23
524.44	468.11
524.61	437.68
524.78	379.17
524.96	402.57
525.13	360.44
525.30	468.11
525.47	397.89
525.64	369.80
525.81	388.53
525.98	416.62
526.16	400.23
526.33	402.57
526.50	477.47
526.67	416.62
526.84	383.85
527.01	365.12
527.18	372.15
527.36	409.59
527.53	428.32
527.70	379.17
527.87	390.87
528.04	374.49
528.21	379.17
528.38	470.45
528.55	386.19
528.72	386.19
528.89	479.81
529.07	465.77
529.24	388.53
529.41	484.49
529.58	425.98
529.75	369.80
529.92	418.96
530.09	390.87
530.26	437.68
530.43	372.15
530.60	472.79
530.77	383.85
530.94	454.06
531.11	456.40
531.28	376.83
531.46	416.62
531.63	397.89
531.80	440.02
531.97	407.25
532.14	489.17
532.31	369.80
532.48	374.49
532.65	498.53
532.82	388.53
532.99	395.55
533.16	421.30
533.33	425.98
533.50	388.53
533.67	437.68
533.84	421.30
534.01	435.34
534.18	409.59
534.35	330.02
534.52	428.32
534.69	376.83
534.86	372.15
535.03	482.15
535.20	390.87
535.37	451.72
535.54	376.83
535.71	414.27
535.88	365.12
536.05	454.06
536.22	404.91
536.38	355.76
536.55	465.77
536.72	430.66
536.89	444.70
537.06	440.02
537.23	369.80
537.40	411.93
537.57	395.55
537.74	463.43
537.91	456.40
538.08	376.83
538.25	454.06
538.42	411.93
538.59	437.68
538.75	409.59
538.92	449.38
539.09	437.68
539.26	386.19
539.43	435.34
539.60	386.19
539.77	489.17
539.94	388.53
540.11	435.34
540.28	458.74
540.44	454.06
540.61	437.68
540.78	449.38
540.95	444.70
541.12	386.19
541.29	414.27
541.46	409.59
541.62	435.34
541.79	409.59
541.96	407.25
542.13	397.89
542.30	372.15
542.47	376.83
542.63	451.72
542.80	454.06
542.97	444.70
543.14	402.57
543.31	458.74
543.48	440.02
543.64	374.49
543.81	435.34
543.98	402.57
544.15	421.30
544.32	486.83
544.48	486.83
544.65	421.30
544.82	334.70
544.99	458.74
545.16	451.72
545.32	430.66
545.49	444.70
545.66	348.74
545.83	510.24
546.00	358.10
546.16	428.32
546.33	393.21
546.50	435.34
546.67	376.83
546.83	440.02
547.00	351.08
547.17	430.66
547.34	390.87
547.50	421.30
547.67	367.46
547.84	351.08
548.00	411.93
548.17	393.21
548.34	451.72
548.51	400.23
548.67	379.17
548.84	437.68
549.01	402.57
549.18	395.55
549.34	416.62
549.51	423.64
549.68	475.13
549.84	381.51
550.01	404.91
550.18	470.45
550.34	475.13
550.51	418.96
550.68	458.74
550.84	505.56
551.01	416.62
551.18	437.68
551.34	461.09
551.51	390.87
551.68	407.25
551.84	367.46
552.01	414.27
552.18	407.25
552.34	475.13
552.51	353.42
552.68	435.34
552.84	512.58
553.01	454.06
553.18	376.83
553.34	451.72
553.51	414.27
553.67	393.21
553.84	437.68
554.01	425.98
554.17	479.81
554.34	428.32
554.51	463.43
554.67	400.23
554.84	470.45
555.00	449.38
555.17	472.79
555.33	444.70
555.50	397.89
555.67	449.38
555.83	465.77
556.00	423.64
556.16	468.11
556.33	425.98
556.50	430.66
556.66	458.74
556.83	435.34
556.99	416.62
557.16	393.21
557.32	388.53
557.49	484.49
557.65	433.00
557.82	381.51
557.98	339.38
558.15	346.40
558.32	409.59
558.48	379.17
558.65	402.57
558.81	423.64
558.98	414.27
559.14	433.00
559.31	416.62
559.47	437.68
559.64	454.06
559.80	470.45
559.97	440.02
560.13	440.02
560.30	421.30
560.46	374.49
560.63	440.02
560.79	430.66
560.96	404.91
561.12	447.04
561.29	372.15
561.45	409.59
561.61	444.70
561.78	461.09
561.94	484.49
562.11	421.30
562.27	437.68
562.44	489.17
562.60	433.00
562.77	358.10
562.93	470.45
563.10	475.13
563.26	416.62
563.42	477.47
563.59	416.62
563.75	407.25
563.92	465.77
564.08	442.36
564.24	482.15
564.41	381.51
564.57	369.80
564.74	383.85
564.90	430.66
565.07	433.00
565.23	390.87
565.39	414.27
565.56	449.38
565.72	454.06
565.88	414.27
566.05	390.87
566.21	433.00
566.38	428.32
566.54	479.81
566.70	440.02
566.87	442.36
567.03	397.89
567.19	346.40
567.36	395.55
567.52	418.96
567.68	433.00
567.85	470.45
568.01	390.87
568.17	360.44
568.34	374.49
568.50	381.51
568.66	407.25
568.83	440.02
568.99	456.40
569.15	444.70
569.32	400.23
569.48	437.68
569.64	344.06
569.81	482.15
569.97	500.87
570.13	479.81
570.30	379.17
570.46	388.53
570.62	456.40
570.78	388.53
570.95	433.00
571.11	428.32
571.27	437.68
571.43	372.15
571.60	393.21
571.76	404.91
571.92	386.19
572.09	339.38
572.25	388.53
572.41	388.53
572.57	440.02
572.74	510.24
572.90	397.89
573.06	430.66
573.22	484.49
573.38	472.79
573.55	404.91
573.71	444.70
573.87	379.17
574.03	477.47
574.20	400.23
574.36	451.72
574.52	416.62
574.68	360.44
574.84	479.81
575.01	430.66
575.17	355.76
575.33	440.02
575.49	433.00
575.65	423.64
575.82	472.79
575.98	461.09
576.14	414.27
576.30	365.12
576.46	414.27
576.62	496.19
576.79	454.06
576.95	440.02
577.11	435.34
577.27	390.87
577.43	390.87
577.59	435.34
577.75	414.27
577.92	376.83
578.08	402.57
578.24	449.38
578.40	451.72
578.56	428.32
578.72	535.98
578.88	440.02
579.04	454.06
579.21	491.51
579.37	472.79
579.53	423.64
579.69	423.64
579.85	414.27
580.01	407.25
580.17	360.44
580.33	379.17
580.49	472.79
580.65	395.55
580.82	421.30
580.98	437.68
581.14	386.19
581.30	479.81
581.46	489.17
581.62	411.93
581.78	416.62
581.94	409.59
582.10	360.44
582.26	404.91
582.42	472.79
582.58	465.77
582.74	315.97
582.90	379.17
583.06	372.15
583.22	491.51
583.38	383.85
583.54	435.34
583.70	397.89
583.86	400.23
584.02	433.00
584.18	472.79
584.34	416.62
584.50	388.53
584.66	447.04
584.82	442.36
584.98	421.30
585.14	390.87
585.30	397.89
585.46	519.60
585.62	451.72
585.78	402.57
585.94	486.83
586.10	418.96
586.26	322.99
586.42	421.30
586.58	390.87
586.74	472.79
586.90	423.64
587.06	393.21
587.22	498.53
587.38	351.08
587.54	411.93
587.70	435.34
587.86	433.00
588.02	318.31
588.18	447.04
588.34	383.85
588.49	430.66
588.65	498.53
588.81	390.87
588.97	416.62
589.13	337.04
589.29	397.89
589.45	482.15
589.61	463.43
589.77	442.36
589.93	444.70
590.08	470.45
590.24	339.38
590.40	404.91
590.56	423.64
590.72	355.76
590.88	369.80
591.04	449.38
591.20	381.51
591.35	479.81
591.51	421.30
591.67	411.93
591.83	407.25
591.99	447.04
592.15	489.17
592.31	477.47
592.46	376.83
592.62	437.68
592.78	400.23
592.94	437.68
593.10	461.09
593.26	447.04
593.41	393.21
593.57	418.96
593.73	468.11
593.89	421.30
594.05	463.43
594.20	397.89
594.36	442.36
594.52	433.00
594.68	449.38
594.84	458.74
594.99	463.43
595.15	423.64
595.31	533.64
595.47	435.34
595.62	437.68
595.78	463.43
595.94	409.59
596.10	440.02
596.25	414.27
596.41	470.45
596.57	404.91
596.73	437.68
596.88	404.91
597.04	339.38
597.20	374.49
597.36	440.02
597.51	404.91
597.67	428.32
597.83	381.51
597.99	393.21
598.14	451.72
598.30	449.38
598.46	437.68
598.61	449.38
598.77	414.27
598.93	411.93
599.09	367.46
599.24	437.68
599.40	414.27
599.56	470.45
599.71	423.64
599.87	381.51
600.03	383.85
600.18	440.02
600.34	395.55
600.50	376.83
600.65	372.15
600.81	397.89
600.97	447.04
601.12	447.04
601.28	416.62
601.44	407.25
601.59	393.21
601.75	421.30
601.91	456.40
602.06	444.70
602.22	514.92
602.37	397.89
602.53	437.68
602.69	428.32
602.84	423.64
603.00	482.15
603.16	465.77
603.31	435.34
603.47	437.68
603.62	418.96
603.78	461.09
603.94	468.11
604.09	454.06
604.25	390.87
604.40	400.23
604.56	358.10
604.71	425.98
604.87	360.44
605.03	383.85
605.18	367.46
605.34	393.21
605.49	376.83
605.65	451.72
605.80	425.98
605.96	393.21
606.12	521.94
606.27	418.96
606.43	402.57
606.58	435.34
606.74	479.81
606.89	351.08
607.05	482.15
607.20	425.98
607.36	463.43
607.51	425.98
607.67	400.23
607.82	428.32
607.98	444.70
608.13	416.62
608.29	440.02
608.44	449.38
608.60	425.98
608.75	470.45
608.91	400.23
609.06	395.55
609.22	409.59
609.37	339.38
609.53	397.89
609.68	393.21
609.84	454.06
609.99	346.40
610.15	376.83
610.30	402.57
610.46	472.79
610.61	449.38
610.76	423.64
610.92	510.24
611.07	383.85
611.23	505.56
611.38	425.98
611.54	362.78
611.69	390.87
611.84	376.83
612.00	430.66
612.15	388.53
612.31	451.72
612.46	442.36
612.62	402.57
612.77	390.87
612.92	454.06
613.08	402.57
613.23	369.80
613.39	416.62
613.54	383.85
613.69	416.62
613.85	468.11
614.00	404.91
614.15	465.77
614.31	395.55
614.46	404.91
614.62	351.08
614.77	397.89
614.92	425.98
615.08	390.87
615.23	404.91
615.38	428.32
615.54	397.89
615.69	409.59
615.84	437.68
616.00	468.11
616.15	425.98
616.30	463.43
616.46	437.68
616.61	458.74
616.76	353.42
616.92	437.68
617.07	355.76
617.22	381.51
617.37	433.00
617.53	397.89
617.68	428.32
617.83	402.57
617.99	397.89
618.14	451.72
618.29	402.57
618.45	404.91
618.60	430.66
618.75	491.51
618.90	433.00
619.06	390.87
619.21	512.58
619.36	437.68
619.51	388.53
619.67	400.23
619.82	433.00
619.97	383.85
620.12	416.62
620.28	409.59
620.43	437.68
620.58	451.72
620.73	393.21
620.89	444.70
621.04	470.45
621.19	416.62
621.34	433.00
621.49	376.83
621.65	402.57
621.80	435.34
621.95	358.10
622.10	411.93
622.25	433.00
622.41	435.34
622.56	393.21
622.71	353.42
622.86	388.53
623.01	400.23
623.16	418.96
623.32	421.30
623.47	425.98
623.62	447.04
623.77	414.27
623.92	346.40
624.07	421.30
624.23	407.25
624.38	433.00
624.53	407.25
624.68	337.04
624.83	491.51
624.98	418.96
625.13	397.89
625.29	447.04
625.44	454.06
625.59	479.81
625.74	388.53
625.89	407.25
626.04	465.77
626.19	456.40
626.34	365.12
626.49	430.66
626.65	411.93
626.80	421.30
626.95	411.93
627.10	390.87
627.25	421.30
627.40	423.64
627.55	416.62
627.70	388.53
627.85	421.30
628.00	479.81
628.15	386.19
628.30	428.32
628.45	404.91
628.60	369.80
628.76	407.25
628.91	484.49
629.06	428.32
629.21	451.72
629.36	435.34
629.51	447.04
629.66	390.87
629.81	383.85
629.96	388.53
630.11	365.12
630.26	456.40
630.41	416.62
630.56	421.30
630.71	360.44
630.86	458.74
631.01	409.59
631.16	472.79
631.31	468.11
631.46	362.78
631.61	376.83
631.76	411.93
631.91	379.17
632.06	409.59
632.21	425.98
632.36	428.32
632.51	437.68
632.66	456.40
632.81	433.00
632.96	425.98
633.10	475.13
633.25	421.30
633.40	395.55
633.55	400.23
633.70	416.62
633.85	449.38
634.00	423.64
634.15	421.30
634.30	414.27
634.45	383.85
634.60	418.96
634.75	379.17
634.90	386.19
635.05	472.79
635.19	475.13
635.34	390.87
635.49	475.13
635.64	430.66
635.79	470.45
635.94	358.10
636.09	381.51
636.24	409.59
636.39	400.23
636.53	498.53
636.68	390.87
636.83	437.68
636.98	463.43
637.13	360.44
637.28	411.93
637.43	397.89
637.57	433.00
637.72	383.85
637.87	442.36
638.02	402.57
638.17	365.12
638.32	451.72
638.46	437.68
638.61	423.64
638.76	421.30
638.91	379.17
639.06	423.64
639.20	374.49
639.35	454.06
639.50	360.44
639.65	379.17
639.80	418.96
639.94	461.09
640.09	430.66
640.24	425.98
640.39	409.59
640.54	437.68
640.68	496.19
640.83	463.43
640.98	447.04
641.13	444.70
641.27	404.91
641.42	358.10
641.57	435.34
641.72	442.36
641.86	322.99
642.01	409.59
642.16	430.66
642.31	430.66
642.45	461.09
642.60	404.91
642.75	423.64
642.90	376.83
643.04	397.89
643.19	444.70
643.34	386.19
643.48	458.74
643.63	369.80
643.78	500.87
643.93	379.17
644.07	442.36
644.22	442.36
644.37	409.59
644.51	435.34
644.66	461.09
644.81	433.00
644.95	421.30
645.10	388.53
645.25	440.02
645.39	423.64
645.54	355.76
645.69	418.96
645.83	337.04
645.98	423.64
646.13	330.02
646.27	416.62
646.42	381.51
646.57	411.93
646.71	479.81
646.86	465.77
647.00	416.62
647.15	397.89
647.30	362.78
647.44	379.17
647.59	351.08
647.74	402.57
647.88	454.06
648.03	449.38
648.17	404.91
648.32	411.93
648.47	484.49
648.61	365.12
648.76	400.23
648.90	458.74
649.05	404.91
649.20	360.44
649.34	472.79
649.49	369.80
649.63	388.53
649.78	381.51
649.92	458.74
650.07	423.64
650.21	425.98
650.36	442.36
650.51	369.80
650.65	423.64
650.80	397.89
650.94	409.59
651.09	390.87
651.23	461.09
651.38	393.21
651.52	381.51
651.67	449.38
651.81	468.11
651.96	407.25
652.10	428.32
652.25	411.93
652.39	395.55
652.54	404.91
652.68	430.66
652.83	428.32
652.97	428.32
653.12	414.27
653.26	367.46
653.41	535.98
653.55	458.74
653.70	390.87
653.84	477.47
653.99	493.85
654.13	449.38
654.27	470.45
654.42	442.36
654.56	451.72
654.71	543.00
654.85	470.45
655.00	411.93
655.14	393.21
655.29	369.80
655.43	409.59
655.57	388.53
655.72	369.80
655.86	461.09
656.01	411.93
656.15	393.21
656.30	482.15
656.44	348.74
656.58	404.91
656.73	430.66
656.87	465.77
657.01	456.40
657.16	449.38
657.30	400.23
657.45	531.30
657.59	444.70
657.73	465.77
657.88	386.19
658.02	430.66
658.16	421.30
658.31	397.89
658.45	418.96
658.60	433.00
658.74	407.25
658.88	407.25
659.03	428.32
659.17	423.64
659.31	388.53
659.46	358.10
659.60	409.59
659.74	461.09
659.89	444.70
660.03	411.93
660.17	500.87
660.32	496.19
660.46	433.00
660.60	468.11
660.74	360.44
660.89	440.02
661.03	374.49
661.17	418.96
661.32	430.66
661.46	461.09
661.60	358.10
661.74	440.02
661.89	428.32
662.03	395.55
662.17	479.81
662.31	379.17
662.46	372.15
662.60	433.00
662.74	463.43
662.88	358.10
663.03	344.06
663.17	433.00
663.31	348.74
663.45	461.09
663.60	425.98
663.74	388.53
663.88	374.49
664.02	400.23
664.17	447.04
664.31	395.55
664.45	505.56
664.59	416.62
664.73	428.32
664.88	454.06
665.02	430.66
665.16	381.51
665.30	421.30
665.44	472.79
665.59	505.56
665.73	416.62
665.87	454.06
666.01	461.09
666.15	416.62
666.29	383.85
666.44	346.40
666.58	507.90
666.72	437.68
666.86	372.15
667.00	454.06
667.14	503.22
667.28	421.30
667.43	479.81
667.57	390.87
667.71	393.21
667.85	475.13
667.99	376.83
668.13	404.91
668.27	383.85
668.41	425.98
668.56	407.25
668.70	458.74
668.84	372.15
668.98	353.42
669.12	404.91
669.26	421.30
669.40	416.62
669.54	475.13
669.68	477.47
669.82	430.66
669.96	475.13
670.10	447.04
670.25	379.17
670.39	458.74
670.53	442.36
670.67	390.87
670.81	388.53
670.95	449.38
671.09	379.17
671.23	458.74
671.37	444.70
671.51	421.30
671.65	418.96
671.79	430.66
671.93	414.27
672.07	444.70
672.21	454.06
672.35	447.04
672.49	449.38
672.63	407.25
672.77	416.62
672.91	407.25
673.05	447.04
673.19	421.30
673.33	411.93
673.47	447.04
673.61	435.34
673.75	421.30
673.89	437.68
674.03	428.32
674.17	437.68
674.31	402.57
674.45	437.68
674.59	407.25
674.73	433.00
674.87	388.53
675.01	447.04
675.15	409.59
675.29	437.68
675.43	416.62
675.56	447.04
675.70	477.47
675.84	468.11
675.98	421.30
676.12	428.32
676.26	482.15
676.40	393.21
676.54	470.45
676.68	383.85
676.82	451.72
676.96	360.44
677.10	458.74
677.23	386.19
677.37	402.57
677.51	433.00
677.65	430.66
677.79	327.68
677.93	369.80
678.07	449.38
678.21	430.66
678.34	381.51
678.48	449.38
678.62	461.09
678.76	400.23
678.90	393.21
679.04	367.46
679.18	503.22
679.31	360.44
679.45	433.00
679.59	365.12
679.73	447.04
679.87	442.36
680.00	379.17
680.14	416.62
680.28	407.25
680.42	447.04
680.56	372.15
680.70	383.85
680.83	339.38
680.97	428.32
681.11	386.19
681.25	390.87
681.39	416.62
681.52	468.11
681.66	440.02
681.80	430.66
681.94	393.21
682.07	456.40
682.21	409.59
682.35	437.68
682.49	409.59
682.62	465.77
682.76	388.53
682.90	353.42
683.04	400.23
683.17	376.83
683.31	428.32
683.45	430.66
683.59	447.04
683.72	397.89
683.86	416.62
684.00	383.85
684.13	421.30
684.27	468.11
684.41	451.72
684.55	404.91
684.68	447.04
684.82	358.10
684.96	425.98
685.09	353.42
685.23	430.66
685.37	428.32
685.50	477.47
685.64	395.55
685.78	430.66
685.91	435.34
686.05	379.17
686.19	395.55
686.32	482.15
686.46	411.93
686.60	348.74
686.73	458.74
686.87	348.74
687.01	397.89
687.14	388.53
687.28	362.78
687.42	437.68
687.55	416.62
687.69	372.15
687.82	428.32
687.96	472.79
688.10	449.38
688.23	393.21
688.37	407.25
688.50	400.23
688.64	428.32
688.78	416.62
688.91	372.15
689.05	486.83
689.18	416.62
689.32	456.40
689.46	421.30
689.59	400.23
689.73	418.96
689.86	442.36
690.00	407.25
690.13	390.87
690.27	355.76
690.41	470.45
690.54	465.77
690.68	383.85
690.81	470.45
690.95	428.32
691.08	425.98
691.22	486.83
691.35	430.66
691.49	423.64
691.62	456.40
691.76	444.70
691.89	461.09
692.03	465.77
692.16	330.02
692.30	397.89
692.43	400.23
692.57	456.40
692.70	484.49
692.84	484.49
692.97	435.34
693.11	369.80
693.24	440.02
693.38	367.46
693.51	397.89
693.65	461.09
693.78	493.85
693.92	390.87
694.05	430.66
694.19	397.89
694.32	451.72
694.45	409.59
694.59	463.43
694.72	454.06
694.86	421.30
694.99	479.81
695.13	423.64
695.26	423.64
695.39	425.98
695.53	454.06
695.66	362.78
695.80	447.04
695.93	414.27
696.07	416.62
696.20	395.55
696.33	423.64
696.47	362.78
696.60	365.12
696.73	346.40
696.87	330.02
697.00	461.09
697.14	386.19
697.27	383.85
697.40	477.47
697.54	456.40
697.67	437.68
697.80	386.19
697.94	444.70
698.07	425.98
698.21	393.21
698.34	442.36
698.47	393.21
698.61	411.93
698.74	332.36
698.87	397.89
699.01	372.15
699.14	421.30
699.27	470.45
699.40	461.09
699.54	421.30
699.67	374.49
699.80	407.25
699.94	383.85
700.07	409.59
700.20	428.32
700.34	447.04
700.47	339.38
700.60	379.17
700.73	472.79
700.87	447.04
701.00	428.32
701.13	388.53
701.26	418.96
701.40	379.17
701.53	374.49
701.66	379.17
701.79	341.72
701.93	440.02
702.06	381.51
702.19	430.66
702.32	435.34
702.46	411.93
702.59	461.09
702.72	425.98
702.85	423.64
702.99	402.57
703.12	489.17
703.25	404.91
703.38	404.91
703.51	444.70
703.65	449.38
703.78	430.66
703.91	404.91
704.04	353.42
704.17	449.38
704.31	428.32
704.44	372.15
704.57	358.10
704.70	402.57
704.83	362.78
704.96	355.76
705.10	428.32
705.23	397.89
>>>>>End Processed Spectral Data<<<<<
