SpectraSuite Data File
++++++++++++++++++++++++++++++++++++
Date: Fri Oct 25 10:43:56 EDT 2013
User: price-jones
Dark Spectrum Present: No
Reference Spectrum Present: No
Number of Sampled Component Spectra: 1
Spectrometers: USB2+H05261
Integration Time (usec): 100000 (USB2+H05261)
Spectra Averaged: 1 (USB2+H05261)
Boxcar Smoothing: 0 (USB2+H05261)
Correct for Electrical Dark: No (USB2+H05261)
Strobe/Lamp Enabled: No (USB2+H05261)
Correct for Detector Non-linearity: No (USB2+H05261)
Correct for Stray Light: No (USB2+H05261)
Number of Pixels in Processed Spectrum: 2048
>>>>>Begin Processed Spectral Data<<<<<
365.73	205.97
365.92	205.97
366.12	205.97
366.32	84.26
366.52	84.26
366.72	119.37
366.91	30.43
367.11	65.54
367.31	56.17
367.51	0.00
367.70	21.06
367.90	30.43
368.10	30.43
368.30	65.54
368.49	42.13
368.69	0.00
368.89	51.49
369.09	0.00
369.28	53.83
369.48	72.56
369.68	88.94
369.87	152.13
370.07	107.66
370.27	149.79
370.47	241.08
370.66	433.00
370.86	447.04
371.06	468.11
371.25	554.71
371.45	498.53
371.65	454.06
371.84	472.79
372.04	503.22
372.24	489.17
372.44	561.73
372.63	486.83
372.83	550.03
373.03	472.79
373.22	521.94
373.42	484.49
373.62	447.04
373.81	568.75
374.01	559.39
374.21	587.47
374.40	559.39
374.60	573.43
374.79	528.96
374.99	606.20
375.19	575.77
375.38	585.13
375.58	629.60
375.78	554.71
375.97	592.16
376.17	716.20
376.37	702.16
376.56	662.37
376.76	610.88
376.95	620.24
377.15	645.99
377.35	662.37
377.54	678.76
377.74	702.16
377.93	664.71
378.13	704.50
378.33	720.88
378.52	667.05
378.72	660.03
378.91	723.23
379.11	617.90
379.31	695.14
379.50	585.13
379.70	723.23
379.89	772.38
380.09	706.84
380.28	660.03
380.48	704.50
380.68	627.26
380.87	739.61
381.07	704.50
381.26	755.99
381.46	730.25
381.65	631.94
381.85	674.07
382.04	725.57
382.24	685.78
382.43	706.84
382.63	690.46
382.83	734.93
383.02	737.27
383.22	720.88
383.41	699.82
383.61	737.27
383.80	816.85
384.00	823.87
384.19	786.42
384.39	835.57
384.58	880.04
384.78	819.19
384.97	894.08
385.17	856.64
385.36	858.98
385.56	802.80
385.75	830.89
385.95	910.47
386.14	751.31
386.34	807.48
386.53	873.02
386.72	901.11
386.92	929.19
387.11	905.79
387.31	884.72
387.50	842.59
387.70	931.53
387.89	929.19
388.09	973.66
388.28	861.32
388.48	929.19
388.67	940.90
388.86	983.02
389.06	966.64
389.25	1029.84
389.45	1001.75
389.64	1048.56
389.84	933.87
390.03	1064.94
390.22	1095.37
390.42	1004.09
390.61	1025.15
390.81	1074.31
391.00	1137.50
391.19	1123.46
391.39	1071.97
391.58	1116.44
391.78	1100.05
391.97	1071.97
392.16	1025.15
392.36	1067.28
392.55	1060.26
392.75	1043.88
392.94	994.73
393.13	1097.71
393.33	1001.75
393.52	1057.92
393.71	1163.25
393.91	1163.25
394.10	1100.05
394.29	1205.38
394.49	1179.63
394.68	1193.67
394.88	1327.08
395.07	1296.66
395.26	1252.19
395.46	1240.48
395.65	1275.59
395.84	1284.95
396.04	1310.70
396.23	1217.08
396.42	1179.63
396.62	1245.16
396.81	1331.76
397.00	1186.65
397.19	1277.93
397.39	1416.02
397.58	1416.02
397.77	1495.60
397.97	1458.15
398.16	1483.90
398.35	1577.52
398.55	1469.86
398.74	1544.75
398.93	1633.69
399.12	1516.67
399.32	1554.12
399.51	1643.06
399.70	1682.85
399.90	1631.35
400.09	1537.73
400.28	1788.17
400.47	1666.46
400.67	1797.53
400.86	1708.59
401.05	1549.43
401.24	1736.68
401.44	1825.62
401.63	1844.34
401.82	1888.81
402.01	1720.29
402.21	1884.13
402.40	1788.17
402.59	1846.68
402.78	1839.66
402.97	1792.85
403.17	1874.77
403.36	1956.69
403.55	1851.36
403.74	2005.84
403.93	1846.68
404.13	1966.05
404.32	1937.96
404.51	1970.73
404.70	2015.20
404.89	1940.30
405.09	2022.22
405.28	2012.86
405.47	2010.52
405.66	2066.69
405.85	2069.03
406.05	1973.07
406.24	2136.91
406.43	2015.20
406.62	2165.00
406.81	2228.19
407.00	2218.83
407.20	2169.68
407.39	2153.29
407.58	2296.07
407.77	2272.66
407.96	2420.11
408.15	2289.04
408.34	2263.30
408.54	2420.11
408.73	2312.45
408.92	2256.28
409.11	2352.24
409.30	2455.22
409.49	2410.75
409.68	2394.37
409.87	2413.09
410.07	2359.26
410.26	2459.90
410.45	2546.50
410.64	2661.19
410.83	2452.88
411.02	2698.64
411.21	2794.60
411.40	2747.79
411.59	2710.34
411.78	2729.06
411.98	2684.59
412.17	2890.56
412.36	2684.59
412.55	2829.71
412.74	2780.56
412.93	2892.90
413.12	2818.00
413.31	3073.12
413.50	2869.50
413.69	2935.03
413.88	3002.91
414.07	3026.31
414.26	2967.80
414.45	3098.87
414.64	3054.40
414.83	3042.70
415.02	3117.59
415.22	3246.32
415.41	3321.22
415.60	3391.44
415.79	3342.28
415.98	3440.59
416.17	3358.67
416.36	3361.01
416.55	3321.22
416.74	3421.86
416.93	3309.52
417.12	3550.59
417.31	3510.80
417.50	3494.42
417.69	3552.93
417.88	3595.06
418.07	3482.72
418.26	3630.17
418.45	3611.45
418.64	3779.97
418.83	3574.00
419.02	3765.92
419.21	3761.24
419.39	3698.05
419.58	3707.41
419.77	3655.92
419.96	3751.88
420.15	3716.77
420.34	3730.81
420.53	3992.95
420.72	3971.89
420.91	3915.72
421.10	3941.46
421.29	4091.26
421.48	3843.16
421.67	3971.89
421.86	4016.36
422.05	3997.64
422.24	3885.29
422.43	3920.40
422.61	3999.98
422.80	4051.47
422.99	4009.34
423.18	4021.04
423.37	4126.36
423.56	4133.39
423.75	4250.41
423.94	4138.07
424.13	3857.20
424.32	3911.04
424.50	4140.41
424.69	4280.84
424.88	4105.30
425.07	4219.99
425.26	3999.98
425.45	4049.13
425.64	4053.81
425.83	4140.41
426.01	4306.59
426.20	4021.04
426.39	4117.00
426.58	4147.43
426.77	4002.32
426.96	4210.62
427.15	4166.15
427.33	4234.03
427.52	4194.24
427.71	4379.14
427.90	4416.59
428.09	4311.27
428.28	4311.27
428.46	4184.88
428.65	4320.63
428.84	4470.42
429.03	4472.76
429.22	4259.78
429.40	4334.67
429.59	4154.45
429.78	4100.62
429.97	4011.68
430.16	4222.33
430.34	4241.05
430.53	4304.25
430.72	4236.37
430.91	4365.10
431.10	4374.46
431.28	4814.48
431.47	4772.35
431.66	4835.55
431.85	4622.56
432.03	4650.64
432.22	4891.72
432.41	4837.89
432.60	5006.41
432.79	4830.87
432.97	5004.07
433.16	4842.57
433.35	4828.53
433.54	4744.27
433.72	4751.29
433.91	4975.98
434.10	4765.33
434.28	5102.37
434.47	5029.81
434.66	5146.84
434.85	5071.94
435.03	5231.10
435.22	5334.08
435.41	5247.48
435.59	5231.10
435.78	5268.55
435.97	5392.59
436.16	5284.93
436.34	5453.45
436.53	5373.87
436.72	5448.77
436.90	5217.05
437.09	5317.70
437.28	5303.65
437.46	5458.13
437.65	5568.13
437.84	5313.02
438.02	5355.15
438.21	5479.19
438.40	5174.92
438.58	5561.11
438.77	5645.37
438.96	5544.73
439.14	5668.78
439.33	6005.81
439.52	5809.21
439.70	5820.91
439.89	5877.09
440.08	5977.73
440.26	5909.85
440.45	5926.24
440.63	6153.27
440.82	6359.24
441.01	6059.65
441.19	6307.74
441.38	6473.92
441.57	6291.36
441.75	6574.56
441.94	6438.81
442.12	6581.59
442.31	6644.78
442.50	6717.34
442.68	6628.40
442.87	6675.21
443.05	6490.31
443.24	6675.21
443.43	6689.25
443.61	6817.98
443.80	6899.90
443.98	6551.16
444.17	6663.51
444.35	6787.55
444.54	6913.94
444.73	6677.55
444.91	6712.66
445.10	6757.13
445.28	6417.75
445.47	6567.54
445.65	6759.47
445.84	6654.14
446.02	6843.73
446.21	6696.27
446.39	6637.76
446.58	6874.15
446.77	6988.84
446.95	6916.28
447.14	6902.24
447.32	7126.93
447.51	6916.28
447.69	7096.50
447.88	7087.14
448.06	6977.14
448.25	6932.67
448.43	6897.56
448.62	7082.46
448.80	6899.90
448.99	7037.99
449.17	7190.13
449.36	7129.27
449.54	7435.88
449.73	7375.03
449.91	7421.84
450.10	7325.88
450.28	7548.23
450.46	7550.57
450.65	7489.71
450.83	7646.53
451.02	7524.82
451.20	7550.57
451.39	7328.22
451.57	7419.50
451.76	7522.48
451.94	7529.50
452.13	7716.75
452.31	7314.17
452.49	7370.35
452.68	7501.42
452.86	7463.97
453.05	7564.61
453.23	7742.49
453.42	7531.84
453.60	7644.19
453.78	7875.90
453.97	7674.62
454.15	7700.36
454.34	7681.64
454.52	7868.88
454.70	7906.33
454.89	7850.16
455.07	8002.29
455.26	8051.44
455.44	8011.65
455.62	8086.55
455.81	8006.97
455.99	8058.46
456.17	8098.25
456.36	8161.45
456.54	8255.07
456.73	8131.02
456.91	8444.65
457.09	8369.76
457.28	8615.51
457.46	8430.61
457.64	8482.10
457.83	8266.77
458.01	8250.39
458.19	8631.90
458.38	8402.52
458.56	8428.27
458.74	8500.83
458.93	8540.61
459.11	8662.32
459.29	8334.65
459.48	8585.08
459.66	8580.40
459.84	8704.45
460.03	9048.51
460.21	8870.63
460.39	8987.66
460.57	8798.07
460.76	8924.46
460.94	9078.94
461.12	8952.55
461.31	9060.21
461.49	8978.30
461.67	9090.64
461.85	9085.96
462.04	9275.54
462.22	9336.40
462.40	9146.81
462.59	9219.37
462.77	9380.87
462.95	9359.80
463.13	9224.05
463.32	9423.00
463.50	9240.44
463.68	9446.40
463.86	9413.63
464.05	9107.02
464.23	9242.78
464.41	9329.38
464.59	9303.63
464.78	9586.83
464.96	9474.49
465.14	9240.44
465.32	9474.49
465.50	9479.17
465.69	9729.61
465.87	9493.21
466.05	9462.79
466.23	9497.89
466.41	9490.87
466.60	9596.20
466.78	9528.32
466.96	9767.06
467.14	9624.28
467.32	9834.93
467.51	9745.99
467.69	9544.70
467.87	9687.48
468.05	9757.69
468.23	9715.56
468.41	9816.21
468.60	9919.19
468.78	10092.39
468.96	9898.13
469.14	10083.03
469.32	10040.90
469.50	9951.96
469.69	10106.43
469.87	10125.16
470.05	10242.18
470.23	10153.24
470.41	10218.78
470.59	10326.44
470.77	10181.33
470.95	10188.35
471.14	10473.90
471.32	10272.61
471.50	10614.33
471.68	10445.81
471.86	10839.02
472.04	10546.45
472.22	11087.12
472.40	10736.04
472.58	10672.84
472.77	11082.44
472.95	10761.78
473.13	11201.80
473.31	10888.17
473.49	10934.98
473.67	10911.58
473.85	11162.01
474.03	11293.08
474.21	11454.58
474.39	11531.82
474.57	11630.12
474.75	11503.73
474.93	11510.75
475.12	11627.78
475.30	11686.29
475.48	11761.19
475.66	11726.08
475.84	11817.36
476.02	11950.78
476.20	11473.31
476.38	12086.53
476.56	12393.14
476.74	12271.43
476.92	12194.19
477.10	12306.54
477.28	12367.39
477.46	12491.44
477.64	12702.09
477.82	12922.10
478.00	12919.76
478.18	13362.12
478.36	13015.72
478.54	13319.99
478.72	13394.89
478.90	13296.58
479.08	13692.13
479.26	13682.77
479.44	13741.29
479.62	13757.67
479.80	13659.37
479.98	14108.75
480.16	14190.67
480.34	14026.83
480.52	14267.91
480.70	14333.44
480.88	14101.73
481.06	14560.47
481.24	14492.60
481.41	14899.85
481.59	14946.66
481.77	14871.76
481.95	14927.94
482.13	15112.84
482.31	15115.18
482.49	15089.43
482.67	15499.03
482.85	15658.18
483.03	15688.61
483.21	16042.03
483.39	15609.03
483.57	15964.79
483.74	16159.06
483.92	15882.88
484.10	16133.31
484.28	16638.87
484.46	16655.25
484.64	16936.12
484.82	16704.40
485.00	16678.66
485.18	16830.79
485.35	16919.73
485.53	16570.99
485.71	16755.90
485.89	16905.69
486.07	16971.22
486.25	17352.73
486.43	17556.36
486.61	17549.34
486.78	17891.06
486.96	18050.21
487.14	18295.97
487.32	18230.43
487.50	18555.77
487.68	18815.57
487.85	19262.61
488.03	18857.70
488.21	19115.16
488.39	19154.94
488.57	19164.31
488.75	19318.78
488.92	19587.94
489.10	19976.47
489.28	19873.49
489.46	20180.10
489.64	20259.68
489.81	20856.51
489.99	20713.74
490.17	20968.86
490.35	21076.52
490.53	21153.76
490.70	21240.36
490.88	21060.14
491.06	21596.12
491.24	21415.90
491.41	21413.56
491.59	21284.83
491.77	21366.75
491.95	21734.21
492.13	22066.57
492.30	22281.90
492.48	22410.63
492.66	22588.51
492.84	22792.14
493.01	22841.29
493.19	22824.90
493.37	23084.70
493.54	22902.14
493.72	23285.99
493.90	23473.23
494.08	23688.56
494.25	23997.51
494.43	23749.42
494.61	24280.72
494.79	24491.37
494.96	24444.56
495.14	24196.46
495.32	24613.07
495.49	23992.83
495.67	24493.71
495.85	24903.30
496.02	24898.62
496.20	25050.75
496.38	25214.59
496.55	25401.83
496.73	26054.84
496.91	25329.28
497.09	26214.00
497.26	25977.61
497.44	25954.20
497.62	26036.12
497.79	26218.68
497.97	26017.40
498.14	25895.69
498.32	26691.47
498.50	26469.12
498.67	26747.64
498.85	26544.02
499.03	26827.22
499.20	27328.10
499.38	27229.79
499.56	27138.51
499.73	27543.42
499.91	27515.34
500.08	27473.21
500.26	27005.10
500.44	27435.76
500.61	27915.57
500.79	27391.29
500.97	27997.49
501.14	27871.10
501.32	28013.87
501.49	27927.27
501.67	27931.95
501.84	28556.88
502.02	28423.47
502.20	28238.56
502.37	28624.75
502.55	28601.35
502.72	28875.19
502.90	29137.33
503.07	28709.01
503.25	28847.10
503.43	28994.56
503.60	29179.46
503.78	29219.25
503.95	28893.91
504.13	29055.41
504.30	29593.73
504.48	29425.22
504.65	30232.70
504.83	29860.55
505.01	29905.02
505.18	30256.11
505.36	30600.16
505.53	30347.39
505.71	30768.68
505.88	30726.55
506.06	30270.15
506.23	30712.51
506.41	30459.73
506.58	30286.53
506.76	30923.16
506.93	30745.28
507.11	30831.88
507.28	30937.20
507.46	30829.54
507.63	30995.71
507.81	31335.09
507.98	31051.89
508.16	31295.30
508.33	31861.71
508.50	31971.72
508.68	31995.12
508.85	31721.28
509.03	32091.09
509.20	31945.97
509.38	32060.66
509.55	32149.60
509.73	32350.88
509.90	32481.95
510.08	32360.25
510.25	31936.61
510.42	32336.84
510.60	32884.53
510.77	32631.75
510.95	32938.36
511.12	33076.45
511.30	33308.16
511.47	33532.86
511.64	33567.96
511.82	33647.54
511.99	32952.40
512.17	33242.63
512.34	33521.15
512.51	33383.06
512.69	33516.47
512.86	33715.42
513.04	33724.78
513.21	33881.60
513.38	33319.87
513.56	33656.90
513.73	33766.91
513.90	34211.61
514.08	34052.45
514.25	34139.05
514.43	34342.68
514.60	34061.82
514.77	34092.24
514.95	34448.00
515.12	34139.05
515.29	34373.11
515.47	35152.51
515.64	35117.40
515.81	34721.85
515.99	34920.79
516.16	34883.34
516.33	34600.14
516.51	34429.28
516.68	33879.25
516.85	34199.91
517.03	34749.93
517.20	34878.66
517.37	35159.53
517.54	35505.93
517.72	35763.39
517.89	35042.50
518.06	34916.11
518.24	34550.99
518.41	34855.26
518.58	35941.27
518.75	35597.21
518.93	35903.82
519.10	35276.55
519.27	36250.22
519.45	36004.46
519.62	36257.24
519.79	36486.61
519.96	36009.14
520.14	36723.01
520.31	35952.97
520.48	36196.38
520.65	36442.14
520.83	37092.81
521.00	36971.10
521.17	36662.15
521.34	36926.63
521.52	37031.96
521.69	36980.46
521.86	37106.85
522.03	37563.26
522.20	37778.59
522.38	37113.87
522.55	37546.87
522.72	37352.61
522.89	37294.10
523.07	37642.84
523.24	37500.06
523.41	37715.39
523.58	37801.99
523.75	38394.15
523.92	38064.13
524.10	37998.60
524.27	38176.48
524.44	38492.45
524.61	38288.82
524.78	38527.56
524.96	38686.71
525.13	38401.17
525.30	39096.31
525.47	39030.77
525.64	38677.35
525.81	38349.68
525.98	38403.51
526.16	38522.88
526.33	37935.40
526.50	38134.35
526.67	38162.43
526.84	38366.06
527.01	38401.17
527.18	38667.99
527.36	39232.06
527.53	39285.89
527.70	39440.37
527.87	39330.36
528.04	39112.69
528.21	39606.55
528.38	39358.45
528.55	39536.33
528.72	39805.49
528.89	39962.31
529.07	39512.92
529.24	40109.76
529.41	40397.65
529.58	39543.35
529.75	39351.43
529.92	39831.24
530.09	40266.58
530.26	40467.86
530.43	40507.65
530.60	39983.37
530.77	40194.02
530.94	40231.47
531.11	40573.19
531.28	40463.18
531.46	40596.59
531.63	40587.23
531.80	40449.14
531.97	39964.65
532.14	40533.40
532.31	40006.78
532.48	39922.52
532.65	40591.91
532.82	40353.18
532.99	40973.42
533.16	40612.98
533.33	40847.03
533.50	41076.40
533.67	40982.78
533.84	40989.80
534.01	41549.19
534.18	40783.83
534.35	41289.39
534.52	40807.24
534.69	40999.16
534.86	41598.34
535.03	41507.06
535.20	41991.55
535.37	41317.48
535.54	41806.65
535.71	41724.73
535.88	41701.32
536.05	41287.05
536.22	42120.28
536.38	41331.52
536.55	41691.96
536.72	41947.08
536.89	41455.57
537.06	41823.03
537.23	42202.20
537.40	42253.69
537.57	41940.06
537.74	41853.46
537.91	42810.74
538.08	41923.68
538.25	41944.74
538.42	42438.59
538.59	42061.77
538.75	41984.53
538.92	42326.25
539.09	42412.85
539.26	42426.89
539.43	42230.29
539.60	42183.48
539.77	42410.51
539.94	42012.62
540.11	42181.13
540.28	42178.79
540.44	42469.02
540.61	42555.62
540.78	42464.34
540.95	42309.86
541.12	42670.31
541.29	42672.65
541.46	42824.78
541.62	42635.20
541.79	42939.47
541.96	42464.34
542.13	43056.50
542.30	43002.66
542.47	43377.15
542.63	43175.86
542.80	43208.63
542.97	43269.48
543.14	43461.41
543.31	43583.12
543.48	43452.05
543.64	44229.10
543.81	43775.04
543.98	43690.78
544.15	43983.35
544.32	44039.52
544.48	44060.58
544.65	44392.94
544.82	43775.04
544.99	43641.63
545.16	43887.39
545.32	44051.22
545.49	44325.07
545.66	44053.56
545.83	44126.12
546.00	44135.48
546.16	44194.00
546.33	43709.50
546.50	44233.78
546.67	44065.27
546.83	43723.55
547.00	44570.82
547.17	44308.68
547.34	43786.74
547.50	44081.65
547.67	44596.57
547.84	44285.28
548.00	44676.15
548.17	44847.00
548.34	44835.30
548.51	44591.89
548.67	44781.47
548.84	44542.74
549.01	44456.14
549.18	44931.26
549.34	44659.76
549.51	44863.39
549.68	44610.61
549.84	44783.81
550.01	44942.97
550.18	44814.24
550.34	44811.90
550.51	44746.36
550.68	44715.93
550.84	44275.91
551.01	45048.29
551.18	45275.32
551.34	45048.29
551.51	45191.06
551.68	45563.21
551.84	45408.73
552.01	45289.37
552.18	44973.39
552.34	44832.96
552.51	45525.76
552.68	45247.24
552.84	45790.24
553.01	45148.93
553.18	45469.59
553.34	45258.94
553.51	45336.18
553.67	45530.44
553.84	45764.49
554.01	45546.82
554.17	45940.04
554.34	45986.85
554.51	45621.72
554.67	45806.62
554.84	45839.39
555.00	45453.20
555.17	45478.95
555.33	45504.70
555.50	45467.25
555.67	45778.54
555.83	45752.79
556.00	45872.16
556.16	46274.73
556.33	45624.06
556.50	46087.49
556.66	45998.55
556.83	45705.98
556.99	45736.41
557.16	46323.88
557.32	45823.01
557.49	46188.13
557.65	46089.83
557.82	45940.04
557.98	46045.36
558.15	45956.42
558.32	46007.91
558.48	45844.07
558.65	46108.55
558.81	45567.89
558.98	46014.93
559.14	45808.96
559.31	45783.22
559.47	46361.33
559.64	46146.00
559.80	46036.00
559.97	46337.93
560.13	45888.54
560.30	46286.43
560.46	46469.00
560.63	46394.10
560.79	46089.83
560.96	46078.13
561.12	46033.66
561.29	46124.94
561.45	46302.82
561.61	46237.28
561.78	46422.19
561.94	46052.38
562.11	45764.49
562.27	46246.65
562.44	46398.78
562.60	46988.60
562.77	46508.79
562.93	46232.60
563.10	46609.43
563.26	45848.75
563.42	46494.74
563.59	46541.55
563.75	46108.55
563.92	46363.67
564.08	46843.48
564.24	46892.63
564.41	46384.74
564.57	46567.30
564.74	46700.71
564.90	46564.96
565.07	46768.58
565.23	46457.29
565.39	46293.46
565.56	46323.88
565.72	46344.95
565.88	45874.50
566.05	46330.90
566.21	46267.71
566.38	46185.79
566.54	46628.15
566.70	47084.56
566.87	46911.36
567.03	46752.20
567.19	47124.35
567.36	46548.57
567.52	47131.37
567.68	46679.64
567.85	46564.96
568.01	47208.61
568.17	46487.72
568.34	47253.08
568.50	46607.09
568.66	46902.00
568.83	46454.95
568.99	46445.59
569.15	46543.89
569.32	46672.62
569.48	46714.75
569.64	47063.49
569.81	46979.23
569.97	46653.90
570.13	46679.64
570.30	46384.74
570.46	46391.76
570.62	46576.66
570.78	46176.43
570.95	46234.94
571.11	46637.51
571.27	46808.37
571.43	46401.12
571.60	46806.03
571.76	46794.33
571.92	46719.43
572.09	46801.35
572.25	46749.86
572.41	46904.34
572.57	47131.37
572.74	47253.08
572.90	46916.04
573.06	47107.96
573.22	46775.61
573.38	46712.41
573.55	46534.53
573.71	47096.26
573.87	47292.86
574.03	46611.77
574.20	46941.78
574.36	46700.71
574.52	46845.82
574.68	46677.30
574.84	46852.84
575.01	46586.02
575.17	47009.66
575.33	46394.10
575.49	46885.61
575.65	47023.70
575.82	47161.79
575.98	46649.22
576.14	47269.46
576.30	46878.59
576.46	47009.66
576.62	46726.46
576.79	46506.44
576.95	46670.28
577.11	46593.04
577.27	46850.50
577.43	47061.15
577.59	46937.10
577.75	46749.86
577.92	46171.75
578.08	46799.01
578.24	46363.67
578.40	46766.24
578.56	46815.40
578.72	47138.39
578.88	46913.70
579.04	47199.24
579.21	46721.77
579.37	46698.37
579.53	47241.37
579.69	46646.88
579.85	46930.08
580.01	46873.91
580.17	46749.86
580.33	46810.71
580.49	46831.78
580.65	47084.56
580.82	46902.00
580.98	46885.61
581.14	46424.53
581.30	46820.08
581.46	47215.63
581.62	47068.17
581.78	47374.78
581.94	47304.57
582.10	46911.36
582.26	47222.65
582.42	47030.72
582.58	46883.27
582.74	47089.24
582.90	46857.52
583.06	47405.21
583.22	47330.31
583.38	47248.39
583.54	46967.53
583.70	47356.06
583.86	47065.83
584.02	46752.20
584.18	46878.59
584.34	46925.40
584.50	47084.56
584.66	46958.17
584.82	46972.21
584.98	46777.95
585.14	47061.15
585.30	46960.51
585.46	46796.67
585.62	46834.12
585.78	46890.29
585.94	46651.56
586.10	46829.44
586.26	46871.57
586.42	47012.00
586.58	47250.74
586.74	47166.48
586.90	47346.70
587.06	47098.60
587.22	47318.61
587.38	46897.31
587.54	46791.99
587.70	46997.96
587.86	47206.26
588.02	47058.81
588.18	47569.05
588.34	46419.84
588.49	46738.16
588.65	46110.89
588.81	46361.33
588.97	46609.43
589.13	46635.17
589.29	46869.23
589.45	47000.30
589.61	46646.88
589.77	47021.36
589.93	47215.63
590.08	47136.05
590.24	47657.99
590.40	47267.12
590.56	47213.29
590.72	47519.90
590.88	46836.46
591.04	47012.00
591.20	47468.40
591.35	47136.05
591.51	47428.62
591.67	47023.70
591.83	47021.36
591.99	47166.48
592.15	46583.68
592.31	47171.16
592.46	47482.45
592.62	46916.04
592.78	47131.37
592.94	47152.43
593.10	47040.09
593.26	47079.88
593.41	47199.24
593.57	46948.81
593.73	46911.36
593.89	47604.16
594.05	46937.10
594.20	47196.90
594.36	47346.70
594.52	46993.28
594.68	47147.75
594.84	46920.72
594.99	47253.08
595.15	46728.80
595.31	46941.78
595.47	47519.90
595.62	46934.76
595.78	47065.83
595.94	47243.71
596.10	47330.31
596.25	47419.25
596.41	47285.84
596.57	46948.81
596.73	47206.26
596.88	47093.92
597.04	47138.39
597.20	47227.33
597.36	46550.91
597.51	47428.62
597.67	46897.31
597.83	47138.39
597.99	47288.18
598.14	47353.72
598.30	46873.91
598.46	47173.50
598.61	47416.91
598.77	46799.01
598.93	46766.24
599.09	47217.97
599.24	47562.03
599.40	47196.90
599.56	46878.59
599.71	47171.16
599.87	47157.11
600.03	46904.34
600.18	47077.54
600.34	47192.22
600.50	47388.83
600.65	47227.33
600.81	47501.17
600.97	47374.78
601.12	46827.10
601.28	47243.71
601.44	47028.38
601.59	46902.00
601.75	47058.81
601.91	47047.11
602.06	47033.07
602.22	46965.19
602.37	47302.23
602.53	46972.21
602.69	47318.61
602.84	47030.72
603.00	47143.07
603.16	47185.20
603.31	47068.17
603.47	47547.98
603.62	47227.33
603.78	47299.89
603.94	46904.34
604.09	47042.43
604.25	46859.87
604.40	46838.80
604.56	46777.95
604.71	47241.37
604.87	46993.28
605.03	46934.76
605.18	47014.34
605.34	46698.37
605.49	46972.21
605.65	46913.70
605.80	46887.95
605.96	46859.87
606.12	46747.52
606.27	47096.26
606.43	46845.82
606.58	47229.67
606.74	46934.76
606.89	46960.51
607.05	46997.96
607.20	47030.72
607.36	47004.98
607.51	47051.79
607.67	47105.62
607.82	47037.75
607.98	47049.45
608.13	46639.86
608.29	46518.15
608.44	46749.86
608.60	46237.28
608.75	46426.87
608.91	46897.31
609.06	46597.73
609.22	46674.96
609.37	46066.42
609.53	46834.12
609.68	46794.33
609.84	46724.11
609.99	46326.22
610.15	46234.94
610.30	46389.42
610.46	46391.76
610.61	46120.26
610.76	46326.22
610.92	46707.73
611.07	46738.16
611.23	46787.31
611.38	46344.95
611.54	46171.75
611.69	46192.81
611.84	46005.57
612.00	45900.25
612.15	46160.05
612.31	46536.87
612.46	46232.60
612.62	46361.33
612.77	46354.31
612.92	46440.91
613.08	45736.41
613.23	46230.26
613.39	46075.79
613.54	45715.34
613.69	46047.70
613.85	45914.29
614.00	45680.24
614.15	46433.89
614.31	45787.90
614.46	45902.59
614.62	46260.69
614.77	45914.29
614.92	45986.85
615.08	45689.60
615.23	45581.93
615.38	45780.88
615.54	45600.66
615.69	45647.47
615.84	45748.11
616.00	45986.85
616.15	45666.19
616.30	45780.88
616.46	45441.50
616.61	45256.60
616.76	45579.59
616.92	44999.14
617.07	45371.28
617.22	45226.17
617.37	45240.21
617.53	45649.81
617.68	46127.28
617.83	45549.17
617.99	45357.24
618.14	45301.07
618.29	45216.81
618.45	44875.09
618.60	44992.12
618.75	44889.13
618.90	45272.98
619.06	45099.78
619.21	45338.52
619.36	45551.51
619.51	45333.84
619.67	45137.23
619.82	44776.79
619.97	45085.74
620.12	44732.32
620.28	44634.02
620.43	45017.86
620.58	44980.42
620.73	45097.44
620.89	44868.07
621.04	44788.49
621.19	45319.79
621.34	44928.92
621.49	44430.39
621.65	44598.91
621.80	44645.72
621.95	44472.52
622.10	44570.82
622.25	44285.28
622.41	44727.64
622.56	44622.31
622.71	44847.00
622.86	44512.31
623.01	44690.19
623.16	44561.46
623.32	44495.92
623.47	44362.51
623.62	44528.69
623.77	44229.10
623.92	44399.96
624.07	44556.78
624.23	43690.78
624.38	44334.43
624.53	44397.62
624.68	44261.87
624.83	44507.63
624.98	44107.40
625.13	43796.10
625.29	43845.26
625.44	43922.49
625.59	43955.26
625.74	43812.49
625.89	43306.93
626.04	43540.99
626.19	43842.92
626.34	43388.85
626.49	43948.24
626.65	44002.07
626.80	43770.36
626.95	43470.77
627.10	43578.43
627.25	43330.34
627.40	43344.38
627.55	43203.95
627.70	43271.82
627.85	43072.88
628.00	43297.57
628.15	43501.20
628.30	43203.95
628.45	43592.48
628.60	43342.04
628.76	43124.37
628.91	43227.35
629.06	43030.75
629.21	42913.72
629.36	42944.15
629.51	43145.44
629.66	42969.90
629.81	42820.10
629.96	43213.31
630.11	43033.09
630.26	43320.98
630.41	43395.87
630.56	42895.00
630.71	43377.15
630.86	43124.37
631.01	42946.49
631.16	42810.74
631.31	42532.22
631.46	42089.85
631.61	42969.90
631.76	42429.23
631.91	42691.37
632.06	42993.30
632.21	42810.74
632.36	42586.05
632.51	42375.40
632.66	42625.84
632.81	42436.25
632.96	42288.80
633.10	42536.90
633.25	42539.24
633.40	42473.70
633.55	42263.05
633.70	42447.96
633.85	42150.71
634.00	42258.37
634.15	42202.20
634.30	42108.58
634.45	42253.69
634.60	42139.00
634.75	42082.83
634.90	42103.90
635.05	42272.42
635.19	41605.36
635.34	42274.76
635.49	41872.18
635.64	41963.46
635.79	42281.78
635.94	42274.76
636.09	41741.11
636.24	41757.50
636.39	41825.37
636.53	41675.58
636.68	41790.27
636.83	41977.51
636.98	41900.27
637.13	42024.32
637.28	41869.84
637.43	41640.47
637.57	41783.24
637.72	41640.47
637.87	42078.15
638.02	41855.80
638.17	42190.50
638.32	41834.74
638.46	41525.78
638.61	41801.97
638.76	41354.93
638.91	41715.37
639.06	41469.61
639.20	41502.38
639.35	41986.87
639.50	41443.87
639.65	41680.26
639.80	41333.86
639.94	41202.79
640.09	41275.35
640.24	40931.29
640.39	41060.02
640.54	40964.06
640.68	41371.31
640.83	41034.27
640.98	40495.95
641.13	41083.42
641.27	41453.23
641.42	41181.73
641.57	40699.58
641.72	41216.83
641.86	40825.96
642.01	40781.49
642.16	40722.98
642.31	40308.71
642.45	40671.49
642.60	40708.94
642.75	40914.90
642.90	40973.42
643.04	41043.63
643.19	40376.58
643.34	40762.77
643.48	40762.77
643.63	40818.94
643.78	40390.62
643.93	40542.76
644.07	40322.75
644.22	40509.99
644.37	40488.93
644.51	40545.10
644.66	40612.98
644.81	40451.48
644.95	40966.40
645.10	40418.71
645.25	40809.58
645.39	40404.67
645.54	40069.97
645.69	40233.81
645.83	39826.56
645.98	40250.19
646.13	40079.33
646.27	40268.92
646.42	39873.37
646.57	39749.32
646.71	39386.54
646.86	40016.14
647.00	39828.90
647.15	40137.85
647.30	39817.19
647.44	39730.59
647.59	39660.38
647.74	39725.91
647.88	39875.71
648.03	40367.22
648.17	39700.17
648.32	39681.44
648.47	39541.01
648.61	39475.48
648.76	39849.96
648.90	39983.37
649.05	39494.20
649.20	39704.85
649.34	39667.40
649.49	38937.15
649.63	38916.09
649.78	39501.22
649.92	39435.69
650.07	39824.22
650.21	39342.06
650.36	39548.03
650.51	39442.71
650.65	39943.58
650.80	39800.81
650.94	40025.50
651.09	39541.01
651.23	39475.48
651.38	39194.61
651.52	38904.38
651.67	38990.98
651.81	38754.59
651.96	39005.03
652.10	38988.64
652.25	38646.93
652.39	38941.83
652.54	39030.77
652.68	38775.66
652.83	38981.62
652.97	38883.32
653.12	38904.38
653.26	38597.77
653.41	38330.95
653.55	38998.01
653.70	39093.97
653.84	38473.73
653.99	38773.31
654.13	38490.11
654.27	38244.35
654.42	38447.98
654.56	38490.11
654.71	39005.03
654.85	38277.12
655.00	38522.88
655.14	38485.43
655.29	37963.49
655.43	38141.37
655.57	37523.47
655.72	37574.96
655.86	37996.26
656.01	37893.27
656.15	37699.01
656.30	37666.24
656.44	37539.85
656.58	37649.86
656.73	37975.19
656.87	37872.21
657.01	37734.12
657.16	38089.88
657.30	37418.14
657.45	37179.41
657.59	37769.22
657.73	37883.91
657.88	38199.88
658.02	38223.29
658.16	37989.24
658.31	37942.42
658.45	37507.08
658.60	37659.22
658.74	37727.10
658.88	37961.15
659.03	37586.66
659.17	37745.82
659.31	37467.30
659.46	37170.05
659.60	37258.99
659.74	37347.93
659.89	36872.80
660.03	36783.86
660.17	37481.34
660.32	37432.19
660.46	37521.13
660.60	37195.79
660.74	37099.83
660.89	36975.78
661.03	36694.92
661.17	36549.81
661.32	36503.00
661.46	37186.43
661.60	37008.55
661.74	36437.46
661.89	36753.43
662.03	37013.23
662.17	36797.90
662.31	36863.44
662.46	36945.36
662.60	36407.03
662.74	36463.21
662.88	36711.30
663.03	36355.54
663.17	36243.20
663.31	36357.88
663.45	36315.75
663.60	36608.32
663.74	36275.96
663.88	35625.29
664.02	35889.77
664.17	36105.10
664.31	35529.33
664.45	35835.94
664.59	35763.39
664.73	35812.54
664.88	35873.39
665.02	35428.69
665.16	35431.03
665.30	35620.61
665.44	35049.52
665.59	35323.36
665.73	35391.24
665.87	35044.84
666.01	35098.67
666.15	35199.32
666.29	35374.86
666.44	35360.81
666.58	34796.74
666.72	35173.57
666.86	35143.14
667.00	35035.48
667.14	34726.53
667.28	34501.84
667.43	35028.46
667.57	34600.14
667.71	34553.33
667.85	34663.33
667.99	34361.40
668.13	34738.23
668.27	34597.80
668.41	34668.02
668.56	34415.24
668.70	34440.98
668.84	34136.71
668.98	33755.21
669.12	34291.19
669.26	33872.23
669.40	34010.32
669.54	33577.33
669.68	33551.58
669.82	33574.98
669.96	33717.76
670.10	33523.49
670.25	33605.41
670.39	33443.91
670.53	33551.58
670.67	33244.97
670.81	33886.28
670.95	33282.42
671.09	33088.15
671.23	33069.43
671.37	32889.21
671.51	33282.42
671.65	32971.13
671.79	32842.40
671.93	32800.27
672.07	32905.59
672.21	33024.96
672.35	32484.30
672.49	32521.74
672.63	32697.28
672.77	32655.15
672.91	32453.87
673.05	32142.58
673.19	32245.56
673.33	32048.96
673.47	32198.75
673.61	32226.84
673.75	31316.37
673.89	31782.13
674.03	31379.56
674.17	31772.77
674.31	31805.54
674.45	31847.67
674.59	31969.38
674.73	32016.19
674.87	31927.25
675.01	31129.12
675.15	31482.55
675.29	31180.62
675.43	30920.82
675.56	30960.61
675.70	31407.65
675.84	31124.44
675.98	29762.25
676.12	30916.14
676.26	31143.17
676.40	30986.35
676.54	30951.24
676.68	30876.35
676.82	30277.17
676.96	30644.63
677.10	30251.42
677.23	30312.28
677.37	30218.66
677.51	30223.34
677.65	29776.30
677.79	29528.20
677.93	29347.98
678.07	29495.43
678.21	29181.80
678.34	28725.39
678.48	29317.55
678.62	29036.69
678.76	28863.49
678.90	28819.02
679.04	28922.00
679.18	28704.33
679.31	28542.83
679.45	28694.97
679.59	28435.17
679.73	28421.13
679.87	27985.79
680.00	28568.58
680.14	28318.14
680.28	27992.81
680.42	28196.43
680.56	28088.77
680.70	28013.87
680.83	28079.41
680.97	27508.32
681.11	28163.67
681.25	27623.00
681.39	27693.22
681.52	27566.83
681.66	27709.60
681.80	27433.42
681.94	27000.42
682.07	27143.19
682.21	26794.45
682.35	27108.08
682.49	26696.15
682.62	26855.31
682.76	26506.57
682.90	26712.53
683.04	26438.69
683.17	26544.02
683.31	26382.52
683.45	26129.74
683.59	26036.12
683.72	26228.04
683.86	26082.93
684.00	26366.13
684.13	26141.44
684.27	25240.34
684.41	25579.71
684.55	25413.54
684.68	25518.86
684.82	25689.72
684.96	25214.59
685.09	25275.45
685.23	24797.98
685.37	24964.15
685.50	24915.00
685.64	25097.56
685.78	24732.44
685.91	24678.61
686.05	24191.78
686.19	24198.80
686.32	24545.20
686.46	23948.36
686.60	23854.74
686.73	23311.74
686.87	23435.78
687.01	23379.61
687.14	23171.30
687.28	23400.68
687.42	23403.02
687.55	23585.58
687.69	23384.29
687.82	23234.50
687.96	23358.55
688.10	23225.14
688.23	22918.53
688.37	22780.43
688.50	22754.69
688.64	22845.97
688.78	22499.57
688.91	22501.91
689.05	22459.78
689.18	22452.76
689.32	22235.09
689.46	22305.31
689.59	22457.44
689.73	22263.18
689.86	22038.48
690.00	21848.90
690.13	22078.27
690.27	21759.96
690.41	21727.19
690.54	21275.47
690.68	21699.11
690.81	21509.52
690.95	21394.84
691.08	21273.13
691.22	21371.43
691.35	21097.59
691.49	21018.01
691.62	21333.98
691.76	21032.05
691.89	21301.22
692.03	21060.14
692.16	20947.79
692.30	20376.70
692.43	20519.48
692.57	20173.08
692.70	20458.62
692.84	20152.01
692.97	20182.44
693.11	20121.59
693.24	20126.27
693.38	19709.65
693.51	19754.12
693.65	19679.22
693.78	19810.29
693.92	19889.87
694.05	19515.39
694.19	19625.39
694.32	19332.82
694.45	19407.72
694.59	19360.91
694.72	19241.54
694.86	19042.60
694.99	18923.23
695.13	19147.92
695.26	18876.42
695.39	18611.94
695.53	18911.53
695.66	18909.19
695.80	18867.06
695.93	18813.23
696.07	18513.64
696.20	18478.53
696.33	18647.05
696.47	18628.32
696.60	18101.70
696.73	18476.19
696.87	18061.91
697.00	17965.95
697.14	17649.98
697.27	17724.88
697.40	17872.33
697.54	17755.30
697.67	17858.29
697.80	17605.51
697.94	17231.02
698.07	17352.73
698.21	17226.34
698.34	17209.96
698.47	17165.49
698.61	16779.30
698.74	16781.64
698.87	17008.67
699.01	16732.49
699.14	16460.99
699.27	16535.88
699.40	16828.45
699.54	16540.57
699.67	16465.67
699.80	16400.13
699.94	16184.80
700.07	16255.02
700.20	15997.56
700.34	16133.31
700.47	16142.67
700.60	16175.44
700.73	16086.50
700.87	15983.52
701.00	15913.30
701.13	15761.17
701.26	15817.34
701.40	15571.58
701.53	15304.76
701.66	15484.98
701.79	15435.83
701.93	15264.97
702.06	15241.57
702.19	15044.96
702.32	15267.31
702.46	14972.41
702.59	15206.46
702.72	14993.47
702.85	14904.53
702.99	14881.13
703.12	14778.14
703.25	14541.75
703.38	14593.24
703.51	14869.42
703.65	14558.13
703.78	14345.14
703.91	14288.97
704.04	14080.66
704.17	14347.48
704.31	14150.88
704.44	14101.73
704.57	14153.22
704.70	13752.99
704.83	13909.80
704.96	13666.39
705.10	13715.54
705.23	13795.12
>>>>>End Processed Spectral Data<<<<<
