SpectraSuite Data File
++++++++++++++++++++++++++++++++++++
Date: Fri Oct 25 11:34:06 EDT 2013
User: price-jones
Dark Spectrum Present: No
Reference Spectrum Present: No
Number of Sampled Component Spectra: 1
Spectrometers: USB2+H05261
Integration Time (usec): 100000 (USB2+H05261)
Spectra Averaged: 1 (USB2+H05261)
Boxcar Smoothing: 0 (USB2+H05261)
Correct for Electrical Dark: No (USB2+H05261)
Strobe/Lamp Enabled: No (USB2+H05261)
Correct for Detector Non-linearity: No (USB2+H05261)
Correct for Stray Light: No (USB2+H05261)
Number of Pixels in Processed Spectrum: 2048
>>>>>Begin Processed Spectral Data<<<<<
365.73	271.50
365.92	271.50
366.12	271.50
366.32	266.82
366.52	184.90
366.72	175.54
366.91	184.90
367.11	147.45
367.31	161.50
367.51	163.84
367.70	110.01
367.90	182.56
368.10	161.50
368.30	222.35
368.49	119.37
368.69	177.88
368.89	245.76
369.09	217.67
369.28	161.50
369.48	128.73
369.68	269.16
369.87	229.37
370.07	250.44
370.27	264.48
370.47	334.70
370.66	510.24
370.86	519.60
371.06	580.45
371.25	540.66
371.45	451.72
371.65	533.64
371.84	547.69
372.04	535.98
372.24	641.31
372.44	624.92
372.63	596.84
372.83	543.00
373.03	545.34
373.22	662.37
373.42	606.20
373.62	657.69
373.81	706.84
374.01	676.41
374.21	592.16
374.40	622.58
374.60	617.90
374.79	585.13
374.99	678.76
375.19	615.56
375.38	667.05
375.58	638.97
375.78	650.67
375.97	702.16
376.17	711.52
376.37	629.60
376.56	660.03
376.76	667.05
376.95	638.97
377.15	667.05
377.35	662.37
377.54	678.76
377.74	620.24
377.93	664.71
378.13	737.27
378.33	720.88
378.52	657.69
378.72	741.95
378.91	713.86
379.11	650.67
379.31	697.48
379.50	744.29
379.70	795.78
379.89	765.36
380.09	702.16
380.28	657.69
380.48	702.16
380.68	664.71
380.87	685.78
381.07	676.41
381.26	814.51
381.46	840.25
381.65	760.67
381.85	706.84
382.04	730.25
382.24	763.01
382.43	779.40
382.63	720.88
382.83	751.31
383.02	809.83
383.22	854.30
383.41	770.04
383.61	800.46
383.80	849.61
384.00	739.61
384.19	767.70
384.39	819.19
384.58	779.40
384.78	795.78
384.97	912.81
385.17	744.29
385.36	784.08
385.56	788.76
385.75	767.70
385.95	844.93
386.14	870.68
386.34	837.91
386.53	826.21
386.72	760.67
386.92	793.44
387.11	973.66
387.31	828.55
387.50	849.61
387.70	837.91
387.89	830.89
388.09	842.59
388.28	976.00
388.48	898.77
388.67	755.99
388.86	828.55
389.06	891.74
389.25	912.81
389.45	976.00
389.64	915.15
389.84	905.79
390.03	994.73
390.22	884.72
390.42	950.26
390.61	844.93
390.81	966.64
391.00	976.00
391.19	990.05
391.39	985.37
391.58	1062.60
391.78	976.00
391.97	966.64
392.16	1050.90
392.36	985.37
392.55	1069.62
392.75	1022.81
392.94	1071.97
393.13	1015.79
393.33	1078.99
393.52	1048.56
393.71	1013.45
393.91	1064.94
394.10	1174.95
394.29	1104.73
394.49	1053.24
394.68	1081.33
394.88	1203.04
395.07	1235.80
395.26	1036.86
395.46	1135.16
395.65	1114.10
395.84	1153.88
396.04	1252.19
396.23	1163.25
396.42	1219.42
396.62	1200.69
396.81	1226.44
397.00	1160.91
397.19	1188.99
397.39	1280.27
397.58	1284.95
397.77	1249.85
397.97	1228.78
398.16	1320.06
398.35	1275.59
398.55	1296.66
398.74	1172.61
398.93	1289.64
399.12	1315.38
399.32	1146.86
399.51	1355.17
399.70	1308.36
399.90	1301.34
400.09	1306.02
400.28	1343.47
400.47	1392.62
400.67	1409.00
400.86	1446.45
401.05	1437.09
401.24	1458.15
401.44	1380.92
401.63	1394.96
401.82	1359.85
402.01	1404.32
402.21	1413.68
402.40	1362.19
402.59	1448.79
402.78	1444.11
402.97	1469.86
403.17	1474.54
403.36	1469.86
403.55	1526.03
403.74	1455.81
403.93	1565.82
404.13	1600.93
404.32	1640.72
404.51	1575.18
404.70	1687.53
404.89	1650.08
405.09	1769.44
405.28	1650.08
405.47	1603.27
405.66	1647.74
405.85	1671.14
406.05	1671.14
406.24	1706.25
406.43	1743.70
406.62	1760.08
406.81	1788.17
407.00	1673.48
407.20	1753.06
407.39	1743.70
407.58	1783.49
407.77	1785.83
407.96	1816.26
408.15	1839.66
408.34	1832.64
408.54	1874.77
408.73	1912.22
408.92	1909.88
409.11	1959.03
409.30	1935.62
409.49	1987.11
409.68	1980.09
409.87	1954.35
410.07	1994.14
410.26	1989.46
410.45	2069.03
410.64	2054.99
410.83	2024.56
411.02	1987.11
411.21	2139.25
411.40	2071.37
411.59	2148.61
411.78	2115.84
411.98	2172.02
412.17	2230.53
412.36	2232.87
412.55	2429.48
412.74	2317.13
412.93	2326.49
413.12	2260.96
413.31	2441.18
413.50	2403.73
413.69	2413.09
413.88	2504.37
414.07	2527.78
414.26	2445.86
414.45	2424.80
414.64	2469.27
414.83	2567.57
415.02	2487.99
415.22	2473.95
415.41	2717.36
415.60	2541.82
415.79	2562.89
415.98	2665.87
416.17	2686.94
416.36	2696.30
416.55	2682.25
416.74	2785.24
416.93	2642.46
417.12	2773.53
417.31	2892.90
417.50	2686.94
417.69	2916.31
417.88	2939.71
418.07	2876.52
418.26	2874.18
418.45	2855.45
418.64	2946.73
418.83	3054.40
419.02	2986.52
419.21	3115.25
419.39	3126.96
419.58	3045.04
419.77	2974.82
419.96	3054.40
420.15	3103.55
420.34	3194.83
420.53	3164.40
420.72	3173.77
420.91	3297.81
421.10	3164.40
421.29	3248.66
421.48	3171.43
421.67	3091.85
421.86	3162.06
422.05	3311.86
422.24	3194.83
422.43	3192.49
422.61	3178.45
422.80	3358.67
422.99	3314.20
423.18	3314.20
423.37	3407.82
423.56	3400.80
423.75	3208.87
423.94	3316.54
424.13	3035.67
424.32	3255.69
424.50	3384.41
424.69	3407.82
424.88	3466.33
425.07	3398.46
425.26	3276.75
425.45	3325.90
425.64	3405.48
425.83	3398.46
426.01	3346.97
426.20	3293.13
426.39	3344.63
426.58	3426.54
426.77	3480.38
426.96	3428.88
427.15	3475.70
427.33	3344.63
427.52	3538.89
427.71	3447.61
427.90	3559.95
428.09	3513.14
428.28	3620.81
428.46	3564.64
428.65	3705.07
428.84	3726.13
429.03	3641.87
429.22	3644.21
429.40	3606.77
429.59	3527.19
429.78	3480.38
429.97	3583.36
430.16	3728.47
430.34	3733.15
430.53	3763.58
430.72	3714.43
430.91	3803.37
431.10	3726.13
431.28	3861.88
431.47	3833.80
431.66	3911.04
431.85	3838.48
432.03	4072.53
432.22	3997.64
432.41	3927.42
432.60	4014.02
432.79	3922.74
432.97	4145.09
433.16	4023.38
433.35	4102.96
433.54	4060.83
433.72	4016.36
433.91	4067.85
434.10	4170.83
434.28	4098.28
434.47	4201.26
434.66	4074.87
434.85	4264.46
435.03	4264.46
435.22	4201.26
435.41	4379.14
435.59	4222.33
435.78	4278.50
435.97	4355.74
436.16	4219.99
436.34	4341.69
436.53	4241.05
436.72	4503.19
436.90	4358.08
437.09	4496.17
437.28	4554.68
437.46	4524.26
437.65	4327.65
437.84	4414.25
438.02	4521.92
438.21	4615.54
438.40	4550.00
438.58	4624.90
438.77	4788.74
438.96	4657.67
439.14	4723.20
439.33	4968.96
439.52	4725.54
439.70	4830.87
439.89	4844.91
440.08	4875.34
440.26	4975.98
440.45	5048.54
440.63	5060.24
440.82	5050.88
441.01	5109.39
441.19	4966.62
441.38	5170.24
441.57	5186.63
441.75	5146.84
441.94	5282.59
442.12	5219.39
442.31	5334.08
442.50	5540.05
442.68	5376.21
442.87	5387.91
443.05	5411.32
443.24	5411.32
443.43	5364.51
443.61	5434.72
443.80	5589.20
443.98	5378.55
444.17	5329.40
444.35	5437.06
444.54	5617.29
444.73	5444.09
444.91	5511.96
445.10	5551.75
445.28	5448.77
445.47	5518.98
445.65	5636.01
445.84	5582.18
446.02	5647.71
446.21	5495.58
446.39	5610.26
446.58	5694.52
446.77	5692.18
446.95	5526.00
447.14	5549.41
447.32	5584.52
447.51	5636.01
447.69	5603.24
447.88	5727.29
448.06	5664.10
448.25	5544.73
448.43	5720.27
448.62	5715.59
448.80	5710.91
448.99	5708.57
449.17	5851.34
449.36	5703.89
449.54	5858.36
449.73	5914.53
449.91	6003.47
450.10	5966.03
450.28	5970.71
450.46	5928.58
450.65	5951.98
450.83	6108.80
451.02	6099.44
451.20	6207.10
451.39	6008.16
451.57	6066.67
451.76	6043.26
451.94	6092.41
452.13	6214.12
452.31	5991.77
452.49	5949.64
452.68	6171.99
452.86	6179.01
453.05	6335.83
453.23	6202.42
453.42	6193.06
453.60	6321.79
453.78	6207.10
453.97	6244.55
454.15	6289.02
454.34	6136.88
454.52	6387.32
454.70	6345.19
454.89	6373.28
455.07	6415.41
455.26	6457.54
455.44	6621.38
455.62	6516.05
455.81	6612.01
455.99	6588.61
456.17	6506.69
456.36	6590.95
456.54	6843.73
456.73	6640.10
456.91	6916.28
457.09	6825.00
457.28	7049.69
457.46	6853.09
457.64	6932.67
457.83	6785.21
458.01	6935.01
458.19	7049.69
458.38	6993.52
458.56	6995.86
458.74	7140.97
458.93	7019.27
459.11	7229.91
459.29	7187.79
459.48	7155.02
459.66	6904.58
459.84	7222.89
460.03	7276.73
460.21	7157.36
460.39	7281.41
460.57	7358.64
460.76	7260.34
460.94	7424.18
461.12	7407.80
461.31	7297.79
461.49	7302.47
461.67	7360.98
461.85	7365.67
462.04	7330.56
462.22	7929.74
462.40	7590.36
462.59	7489.71
462.77	7595.04
462.95	7786.96
463.13	7672.28
463.32	7559.93
463.50	7644.19
463.68	7700.36
463.86	7665.25
464.05	7702.70
464.23	7676.96
464.41	7775.26
464.59	7688.66
464.78	7939.10
464.96	7859.52
465.14	7854.84
465.32	7981.23
465.50	7761.22
465.69	8128.68
465.87	8021.02
466.05	7981.23
466.23	8107.62
466.41	7976.55
466.60	8070.17
466.78	7878.24
466.96	7941.44
467.14	7903.99
467.32	8215.28
467.51	8210.60
467.69	8058.46
467.87	8004.63
468.05	8276.13
468.23	8177.83
468.41	8264.43
468.60	8346.35
468.78	8304.22
468.96	8285.50
469.14	8388.48
469.32	8400.18
469.50	8128.68
469.69	8578.06
469.87	8456.36
470.05	8517.21
470.23	8657.64
470.41	8711.47
470.59	8531.25
470.77	8753.60
470.95	8667.00
471.14	8915.10
471.32	8723.18
471.50	8835.52
471.68	8753.60
471.86	8947.87
472.04	8844.88
472.22	9062.55
472.40	8819.14
472.58	9170.22
472.77	9048.51
472.95	9317.67
473.13	9404.27
473.31	9160.86
473.49	9188.94
473.67	9137.45
473.85	9378.53
474.03	9652.37
474.21	9474.49
474.39	9392.57
474.57	9710.88
474.75	9502.58
474.93	9731.95
475.12	9731.95
475.30	9837.27
475.48	9846.63
475.66	9930.89
475.84	9816.21
476.02	10087.71
476.20	10045.58
476.38	10251.55
476.56	10307.72
476.74	10356.87
476.92	10260.91
477.10	10251.55
477.28	10455.17
477.46	10384.96
477.64	10476.24
477.82	10518.37
478.00	11105.84
478.18	11005.20
478.36	11026.26
478.54	11063.71
478.72	11000.52
478.90	11229.89
479.08	11330.53
479.26	11379.68
479.44	11307.13
479.62	11372.66
479.80	11653.53
479.98	11690.98
480.16	11988.22
480.34	11894.60
480.52	12058.44
480.70	12123.98
480.88	11913.33
481.06	11936.73
481.24	12250.36
481.41	12231.64
481.59	12458.67
481.77	12500.80
481.95	12411.86
482.13	12776.98
482.31	12784.01
482.49	13205.30
482.67	13043.81
482.85	13158.49
483.03	13350.42
483.21	13268.50
483.39	13500.21
483.57	13390.20
483.74	13659.37
483.92	13851.29
484.10	13642.98
484.28	13935.55
484.46	13980.02
484.64	14565.15
484.82	14260.88
485.00	14230.46
485.18	14553.45
485.35	14799.21
485.53	14733.67
485.71	14946.66
485.89	14897.51
486.07	15204.12
486.25	15019.22
486.43	15119.86
486.61	15316.47
486.78	15683.93
486.96	15480.30
487.14	15758.83
487.32	15534.14
487.50	16004.58
487.68	16189.49
487.85	16386.09
488.03	16472.69
488.21	16734.83
488.39	16264.38
488.57	16695.04
488.75	16704.40
488.92	16781.64
489.10	17242.73
489.28	17310.60
489.46	17418.27
489.64	17507.21
489.81	17673.39
489.99	17703.81
490.17	17638.28
490.35	17905.10
490.53	18054.89
490.70	18333.42
490.88	18331.08
491.06	18148.51
491.24	18398.95
491.41	18670.45
491.59	18841.31
491.77	18630.66
491.95	18965.36
492.13	18998.13
492.30	19178.35
492.48	19140.90
492.66	19112.81
492.84	19239.20
493.01	19449.85
493.19	19768.16
493.37	19606.67
493.54	20027.96
493.72	20166.06
493.90	20189.46
494.08	20510.11
494.25	20676.29
494.43	20357.98
494.61	20601.40
494.79	20868.22
494.96	20851.83
495.14	20950.14
495.32	21099.93
495.49	21158.44
495.67	21500.16
495.85	21575.06
496.02	21537.61
496.20	21935.50
496.38	21572.72
496.55	21774.00
496.73	22157.85
496.91	22246.79
497.09	22651.70
497.26	22848.31
497.44	22459.78
497.62	22640.00
497.79	22780.43
497.97	22829.59
498.14	22955.97
498.32	23250.88
498.50	22918.53
498.67	23269.61
498.85	23278.97
499.03	23583.24
499.20	23513.02
499.38	23545.79
499.56	23733.03
499.73	24217.52
499.91	24039.64
500.08	24109.86
500.26	24016.24
500.44	24484.34
500.61	24226.89
500.79	23885.17
500.97	24528.81
501.14	24812.02
501.32	24547.54
501.49	24830.74
501.67	24807.34
501.84	24959.47
502.02	25057.78
502.20	25193.53
502.37	25186.50
502.55	25336.30
502.72	25343.32
502.90	25109.27
503.07	25418.22
503.25	25507.16
503.43	25479.07
503.60	25806.75
503.78	25495.46
503.95	26199.96
504.13	25759.94
504.30	26148.46
504.48	26045.48
504.65	26185.91
504.83	26209.32
505.01	26429.33
505.18	26518.27
505.36	26740.62
505.53	26539.33
505.71	26937.23
505.88	26827.22
506.06	26925.52
506.23	27009.78
506.41	26827.22
506.58	26869.35
506.76	27026.17
506.93	27267.24
507.11	27407.67
507.28	27545.76
507.46	27590.24
507.63	27817.27
507.81	28095.79
507.98	27470.87
508.16	27672.15
508.33	27803.22
508.50	27957.70
508.68	28077.07
508.85	28362.61
509.03	28388.36
509.20	28219.84
509.38	28662.20
509.55	28276.01
509.73	28947.75
509.90	28577.94
510.08	28580.28
510.25	28865.83
510.42	28940.72
510.60	28851.78
510.77	29205.20
510.95	29209.89
511.12	29277.76
511.30	29095.20
511.47	29249.67
511.64	29268.40
511.82	29799.70
511.99	29584.37
512.17	29874.60
512.34	29617.14
512.51	30202.27
512.69	30075.88
512.86	29977.58
513.04	30209.29
513.21	29972.90
513.38	30455.05
513.56	30143.76
513.73	30113.33
513.90	30412.92
514.08	31054.23
514.25	30572.08
514.43	30904.43
514.60	30789.75
514.77	30834.22
514.95	30738.26
515.12	30934.86
515.29	31094.02
515.47	31264.88
515.64	31119.76
515.81	31276.58
515.99	31374.88
516.16	31730.64
516.33	31627.66
516.51	31548.08
516.68	31449.78
516.85	31550.42
517.03	31398.29
517.20	32105.13
517.37	31805.54
517.54	32313.44
517.72	31871.07
517.89	32128.53
518.06	32566.21
518.24	32070.02
518.41	32252.58
518.58	32240.88
518.75	32308.76
518.93	32641.11
519.10	32765.16
519.27	32149.60
519.45	32613.02
519.62	33125.60
519.79	32950.06
519.96	32929.00
520.14	33146.67
520.31	32767.50
520.48	33132.62
520.65	33237.95
520.83	33853.51
521.00	33593.71
521.17	33525.83
521.34	33837.12
521.52	33905.00
521.69	33387.74
521.86	33708.40
522.03	34164.80
522.20	33989.26
522.38	34448.00
522.55	34092.24
522.72	34291.19
522.89	34225.65
523.07	34646.95
523.24	34242.04
523.41	34398.85
523.58	34433.96
523.75	34541.63
523.92	34412.90
524.10	34506.52
524.27	34593.12
524.44	35213.36
524.61	35189.95
524.78	34881.00
524.96	35232.08
525.13	35112.72
525.30	35442.73
525.47	35082.29
525.64	35101.01
525.81	35503.59
525.98	35597.21
526.16	35332.73
526.33	35416.99
526.50	35754.02
526.67	35175.91
526.84	35573.80
527.01	35402.94
527.18	35878.07
527.36	36048.93
527.53	35859.35
527.70	36231.49
527.87	36037.23
528.04	36032.55
528.21	36481.93
528.38	36266.60
528.55	36573.21
528.72	36044.25
528.89	36077.02
529.07	36322.77
529.24	36161.28
529.41	36598.96
529.58	36561.51
529.75	36451.50
529.92	36762.79
530.09	36973.44
530.26	36746.41
530.43	36893.86
530.60	36966.42
530.77	36957.06
530.94	37219.20
531.11	36889.18
531.28	36959.40
531.46	37373.67
531.63	37373.67
531.80	37373.67
531.97	37172.39
532.14	37603.05
532.31	37439.21
532.48	37748.16
532.65	37834.76
532.82	37509.43
532.99	37879.23
533.16	37642.84
533.33	37954.13
533.50	38115.62
533.67	38216.27
533.84	37743.48
534.01	38134.35
534.18	37640.50
534.35	38115.62
534.52	38234.99
534.69	38394.15
534.86	38249.03
535.03	38398.83
535.20	38576.71
535.37	38422.23
535.54	38670.33
535.71	38756.93
535.88	38621.18
536.05	38831.83
536.22	38806.08
536.38	38953.54
536.55	38403.51
536.72	38843.53
536.89	38508.83
537.06	38873.96
537.23	39484.84
537.40	38899.70
537.57	38817.78
537.74	39175.89
537.91	39423.98
538.08	39201.63
538.25	38969.92
538.42	39388.88
538.59	39456.75
538.75	39482.50
538.92	39395.90
539.09	39831.24
539.26	39669.74
539.43	39728.25
539.60	39966.99
539.77	39899.11
539.94	40112.10
540.11	39880.39
540.28	39627.61
540.44	39613.57
540.61	40245.51
540.78	39667.40
540.95	39852.30
541.12	39732.93
541.29	39929.54
541.46	39725.91
541.62	40318.07
541.79	40219.77
541.96	39885.07
542.13	40018.48
542.30	39915.50
542.47	40266.58
542.63	40432.75
542.80	40804.90
542.97	40577.87
543.14	41397.06
543.31	40737.02
543.48	41045.97
543.64	41380.67
543.81	41139.60
543.98	40863.41
544.15	40980.44
544.32	40762.77
544.48	41661.54
544.65	41390.03
544.82	41188.75
544.99	40940.65
545.16	40985.12
545.32	41301.09
545.49	41371.31
545.66	41652.17
545.83	41530.47
546.00	41855.80
546.16	41574.94
546.33	41542.17
546.50	41099.81
546.67	41853.46
546.83	40978.10
547.00	41614.72
547.17	41638.13
547.34	42040.70
547.50	41715.37
547.67	42078.15
547.84	41968.15
548.00	42281.78
548.17	42518.17
548.34	42244.33
548.51	42532.22
548.67	42284.12
548.84	42141.35
549.01	42258.37
549.18	42106.24
549.34	42607.11
549.51	42611.79
549.68	42473.70
549.84	42616.47
550.01	42679.67
550.18	42337.95
550.34	42604.77
550.51	42927.77
550.68	42965.21
550.84	42237.31
551.01	42696.05
551.18	42621.16
551.34	42747.54
551.51	42841.17
551.68	42429.23
551.84	43028.41
552.01	42813.08
552.18	43033.09
552.34	42600.09
552.51	43112.67
552.68	42864.57
552.84	43196.93
553.01	43496.52
553.18	43346.72
553.34	43344.38
553.51	42815.42
553.67	43243.74
553.84	43372.47
554.01	43232.04
554.17	43225.01
554.34	43540.99
554.51	43569.07
554.67	43695.46
554.84	43742.27
555.00	43496.52
555.17	43632.27
555.33	43770.36
555.50	43278.85
555.67	43594.82
555.83	43096.28
556.00	43566.73
556.16	44315.70
556.33	44018.46
556.50	43964.62
556.66	43803.13
556.83	43475.45
556.99	43721.21
557.16	44186.97
557.32	43861.64
557.49	44039.52
557.65	43791.42
557.82	43901.43
557.98	44194.00
558.15	44540.39
558.32	44009.09
558.48	44147.18
558.65	44435.07
558.81	44470.18
558.98	44498.26
559.14	44329.75
559.31	44275.91
559.47	44114.42
559.64	44652.74
559.80	44575.50
559.97	44701.89
560.13	44247.83
560.30	44573.16
560.46	45076.38
560.63	44409.32
560.79	44350.81
560.96	44921.90
561.12	44416.35
561.29	44381.24
561.45	44708.91
561.61	44458.48
561.78	44828.28
561.94	45095.10
562.11	44596.57
562.27	44252.51
562.44	44669.12
562.60	44945.31
562.77	44968.71
562.93	45160.64
563.10	45003.82
563.26	44697.21
563.42	45610.02
563.59	44334.43
563.75	45160.64
563.92	44748.70
564.08	44940.63
564.24	44842.32
564.41	44987.44
564.57	45209.79
564.74	44954.67
564.90	45167.66
565.07	45069.36
565.23	45233.19
565.39	45186.38
565.56	45366.60
565.72	44954.67
565.88	44975.73
566.05	45326.81
566.21	45397.03
566.38	44980.42
566.54	45420.44
566.70	45123.19
566.87	45088.08
567.03	45390.01
567.19	45401.71
567.36	45158.30
567.52	45045.95
567.68	45542.14
567.85	45373.63
568.01	45703.64
568.17	45186.38
568.34	45771.52
568.50	45656.83
568.66	45514.06
568.83	45872.16
568.99	45015.52
569.15	45708.32
569.32	45249.58
569.48	45495.33
569.64	45617.04
569.81	45588.95
569.97	45497.67
570.13	45989.19
570.30	44907.86
570.46	45780.88
570.62	45677.90
570.78	44992.12
570.95	45310.43
571.11	45776.20
571.27	45722.37
571.43	45846.41
571.60	45972.80
571.76	45649.81
571.92	45368.94
572.09	45776.20
572.25	45750.45
572.41	45755.13
572.57	45776.20
572.74	46263.03
572.90	45886.20
573.06	46284.09
573.22	46220.90
573.38	45897.91
573.55	46075.79
573.71	46394.10
573.87	45923.65
574.03	45778.54
574.20	45975.14
574.36	45659.17
574.52	46164.73
574.68	45851.09
574.84	46351.97
575.01	45888.54
575.17	46117.92
575.33	45907.27
575.49	45727.05
575.65	45933.01
575.82	46227.92
575.98	45865.14
576.14	46014.93
576.30	46286.43
576.46	46183.45
576.62	45551.51
576.79	45853.44
576.95	45897.91
577.11	45867.48
577.27	46344.95
577.43	46272.39
577.59	45752.79
577.75	45694.28
577.92	45530.44
578.08	45902.59
578.24	46108.55
578.40	46471.34
578.56	46525.17
578.72	46021.95
578.88	46501.76
579.04	46344.95
579.21	45839.39
579.37	45759.81
579.53	46094.51
579.69	46019.61
579.85	45972.80
580.01	46312.18
580.17	45925.99
580.33	46160.05
580.49	46094.51
580.65	46169.41
580.82	46401.12
580.98	45914.29
581.14	45963.44
581.30	46447.93
581.46	45701.30
581.62	45752.79
581.78	46162.39
581.94	46534.53
582.10	46415.16
582.26	46241.96
582.42	46419.84
582.58	46426.87
582.74	46052.38
582.90	46281.75
583.06	46841.14
583.22	46405.80
583.38	46461.97
583.54	46433.89
583.70	46307.50
583.86	46450.27
584.02	45996.21
584.18	46796.67
584.34	46520.49
584.50	46408.14
584.66	46466.66
584.82	46391.76
584.98	46763.90
585.14	46419.84
585.30	46784.97
585.46	46520.49
585.62	46256.01
585.78	46377.72
585.94	46298.14
586.10	46564.96
586.26	46052.38
586.42	46316.86
586.58	46621.13
586.74	46553.26
586.90	46405.80
587.06	46204.52
587.22	46464.32
587.38	46246.65
587.54	46885.61
587.70	46768.58
587.86	46735.82
588.02	46625.81
588.18	46457.29
588.34	46518.15
588.49	46452.61
588.65	46227.92
588.81	46223.24
588.97	46340.27
589.13	46543.89
589.29	46721.77
589.45	47267.12
589.61	46670.28
589.77	46527.51
589.93	46862.21
590.08	46958.17
590.24	47229.67
590.40	46946.47
590.56	46576.66
590.72	47054.13
590.88	46387.08
591.04	47007.32
591.20	47187.54
591.35	47061.15
591.51	47129.03
591.67	47187.54
591.83	46979.23
591.99	46539.21
592.15	46555.60
592.31	46838.80
592.46	46932.42
592.62	46714.75
592.78	47126.69
592.94	47372.44
593.10	47320.95
593.26	47227.33
593.41	47175.84
593.57	47084.56
593.73	47194.56
593.89	47082.22
594.05	47634.58
594.20	46904.34
594.36	47175.84
594.52	46997.96
594.68	47309.25
594.84	46951.15
594.99	46829.44
595.15	46848.16
595.31	47384.15
595.47	47370.10
595.62	47274.14
595.78	47063.49
595.94	47313.93
596.10	47166.48
596.25	47033.07
596.41	47161.79
596.57	47175.84
596.73	47304.57
596.88	47239.03
597.04	47426.28
597.20	47281.16
597.36	46904.34
597.51	46944.12
597.67	46939.44
597.83	46969.87
597.99	46897.31
598.14	47323.29
598.30	47278.82
598.46	47283.50
598.61	47260.10
598.77	46934.76
598.93	47597.13
599.09	47313.93
599.24	47831.19
599.40	46852.84
599.56	47615.86
599.71	47526.92
599.87	47999.71
600.03	47810.12
600.18	47058.81
600.34	47456.70
600.50	47545.64
600.65	47466.06
600.81	47594.79
600.97	47622.88
601.12	47260.10
601.28	47224.99
601.44	47398.19
601.59	46988.60
601.75	47061.15
601.91	47264.78
602.06	47430.96
602.22	47414.57
602.37	47012.00
602.53	47606.50
602.69	47838.21
602.84	46939.44
603.00	47274.14
603.16	47496.49
603.31	47529.26
603.47	47437.98
603.62	47674.37
603.78	47152.43
603.94	47320.95
604.09	47304.57
604.25	47688.42
604.40	47267.12
604.56	47063.49
604.71	47716.50
604.87	47267.12
605.03	47100.94
605.18	47185.20
605.34	47735.23
605.49	47054.13
605.65	47262.44
605.80	46988.60
605.96	47372.44
606.12	47442.66
606.27	47592.45
606.43	47119.66
606.58	47463.72
606.74	47028.38
606.89	47288.18
607.05	47342.02
607.20	47093.92
607.36	47129.03
607.51	47323.29
607.67	47320.95
607.82	47461.38
607.98	47016.68
608.13	47367.76
608.29	47100.94
608.44	47938.85
608.60	46820.08
608.75	47180.52
608.91	47000.30
609.06	47019.02
609.22	47653.31
609.37	46904.34
609.53	47243.71
609.68	47274.14
609.84	47009.66
609.99	46887.95
610.15	46899.65
610.30	47264.78
610.46	46789.65
610.61	47100.94
610.76	46981.57
610.92	46831.78
611.07	46639.86
611.23	46813.05
611.38	46876.25
611.54	46941.78
611.69	47051.79
611.84	47236.69
612.00	46663.26
612.15	46920.72
612.31	46873.91
612.46	46555.60
612.62	46801.35
612.77	46777.95
612.92	47206.26
613.08	46738.16
613.23	46845.82
613.39	46628.15
613.54	46466.66
613.69	46487.72
613.85	46405.80
614.00	46834.12
614.15	46909.02
614.31	46473.68
614.46	46733.48
614.62	46349.63
614.77	46476.02
614.92	46548.57
615.08	46660.92
615.23	46693.69
615.38	46630.49
615.54	46557.94
615.69	46314.52
615.84	46738.16
616.00	46899.65
616.15	46515.81
616.30	46497.08
616.46	46588.36
616.61	46883.27
616.76	46363.67
616.92	46342.61
617.07	46450.27
617.22	46122.60
617.37	45893.22
617.53	46270.05
617.68	46021.95
617.83	46270.05
617.99	46447.93
618.14	46480.70
618.29	46146.00
618.45	45755.13
618.60	46167.07
618.75	45876.84
618.90	46267.71
619.06	46307.50
619.21	46071.10
619.36	46670.28
619.51	45900.25
619.67	46218.56
619.82	45799.60
619.97	46012.59
620.12	46010.25
620.28	45806.62
620.43	46230.26
620.58	45954.08
620.73	45848.75
620.89	45923.65
621.04	46567.30
621.19	45544.48
621.34	46061.74
621.49	45830.03
621.65	45860.46
621.80	46134.30
621.95	45818.33
622.10	45982.16
622.25	45500.01
622.41	45619.38
622.56	45701.30
622.71	45254.26
622.86	45865.14
623.01	46024.29
623.16	45724.71
623.32	45649.81
623.47	45242.56
623.62	45411.07
623.77	46195.15
623.92	45633.42
624.07	45256.60
624.23	45567.89
624.38	45691.94
624.53	45315.11
624.68	45415.76
624.83	45254.26
624.98	45340.86
625.13	44781.47
625.29	45120.85
625.44	45390.01
625.59	45619.38
625.74	45095.10
625.89	45055.31
626.04	45048.29
626.19	44657.42
626.34	45097.44
626.49	45125.53
626.65	44793.17
626.80	44863.39
626.95	44809.56
627.10	44804.88
627.25	44870.41
627.40	44786.15
627.55	44739.34
627.70	45057.65
627.85	45041.27
628.00	44971.05
628.15	44982.76
628.30	44694.87
628.45	44285.28
628.60	44535.71
628.76	44755.72
628.91	44596.57
629.06	44538.05
629.21	44308.68
629.36	44631.68
629.51	44584.86
629.66	44856.37
629.81	44491.24
629.96	44933.60
630.11	44767.43
630.26	44100.37
630.41	44149.53
630.56	44411.67
630.71	44748.70
630.86	44453.79
631.01	44278.25
631.16	44112.08
631.31	44208.04
631.46	43683.76
631.61	44786.15
631.76	44519.33
631.91	44315.70
632.06	44580.18
632.21	44683.17
632.36	44638.70
632.51	44046.54
632.66	44552.10
632.81	44154.21
632.96	43976.33
633.10	43751.63
633.25	44091.01
633.40	44041.86
633.55	44484.22
633.70	43821.85
633.85	43622.90
634.00	43672.06
634.15	43662.69
634.30	43531.62
634.45	43983.35
634.60	44081.65
634.75	44381.24
634.90	43885.04
635.05	43768.02
635.19	43889.73
635.34	44116.76
635.49	43557.37
635.64	43793.76
635.79	43910.79
635.94	43838.23
636.09	43686.10
636.24	43510.56
636.39	43508.22
636.53	43370.13
636.68	43091.60
636.83	43416.94
636.98	43100.97
637.13	43189.91
637.28	42878.61
637.43	43119.69
637.57	43578.43
637.72	43243.74
637.87	43470.77
638.02	43423.96
638.17	43180.54
638.32	43129.05
638.46	42988.62
638.61	43232.04
638.76	43257.78
638.91	43129.05
639.06	43096.28
639.20	42780.31
639.35	42756.91
639.50	42766.27
639.65	42913.72
639.80	43012.02
639.94	43065.86
640.09	43267.14
640.24	43100.97
640.39	42403.49
640.54	42583.71
640.68	43042.45
640.83	42813.08
640.98	42768.61
641.13	42445.62
641.27	42927.77
641.42	42742.86
641.57	42373.06
641.72	42562.64
641.86	42801.38
642.01	42267.73
642.16	42391.78
642.31	42277.10
642.45	42787.33
642.60	42312.20
642.75	42515.83
642.90	42462.00
643.04	42089.85
643.19	42216.24
643.34	42555.62
643.48	42026.66
643.63	41968.15
643.78	42038.36
643.93	42106.24
644.07	42342.63
644.22	42054.75
644.37	42246.67
644.51	42361.36
644.66	41914.31
644.81	41734.09
644.95	42525.19
645.10	42124.96
645.25	41853.46
645.39	42141.35
645.54	41816.01
645.69	41565.57
645.83	41790.27
645.98	41832.39
646.13	41668.56
646.27	41652.17
646.42	41060.02
646.57	42000.91
646.71	41958.78
646.86	41923.68
647.00	41762.18
647.15	41975.17
647.30	41518.76
647.44	41670.90
647.59	41507.06
647.74	41406.42
647.88	41893.25
648.03	41968.15
648.17	41600.68
648.32	41890.91
648.47	41954.10
648.61	41500.04
648.76	41628.77
648.90	41163.00
649.05	41308.11
649.20	41263.64
649.34	41111.51
649.49	41385.35
649.63	41811.33
649.78	41263.64
649.92	41242.58
650.07	41645.15
650.21	41563.23
650.36	41649.83
650.51	41490.68
650.65	41038.95
650.80	41270.67
650.94	41439.18
651.09	41535.15
651.23	40776.81
651.38	40910.22
651.52	40933.63
651.67	41055.34
651.81	40856.39
651.96	41404.08
652.10	40666.81
652.25	40844.69
652.39	41041.29
652.54	40762.77
652.68	40739.36
652.83	40891.50
652.97	41083.42
653.12	40744.05
653.26	40252.53
653.41	40624.68
653.55	40685.53
653.70	40835.33
653.84	40577.87
653.99	40634.04
654.13	40692.55
654.27	40287.64
654.42	40720.64
654.56	40636.38
654.71	40851.71
654.85	40802.56
655.00	40385.94
655.14	40634.04
655.29	40727.66
655.43	40802.56
655.57	40367.22
655.72	40280.62
655.86	39938.90
656.01	40285.30
656.15	40039.54
656.30	40133.17
656.44	40397.65
656.58	40556.80
656.73	40030.18
656.87	39775.06
657.01	39936.56
657.16	40076.99
657.30	40084.01
657.45	39969.33
657.59	39711.87
657.73	39611.23
657.88	40147.21
658.02	39819.53
658.16	39653.36
658.31	39885.07
658.45	40055.93
658.60	39386.54
658.74	39889.75
658.88	39777.40
659.03	39421.64
659.17	39299.94
659.31	39344.41
659.46	39342.06
659.60	39641.65
659.74	39564.42
659.89	38831.83
660.03	39098.65
660.17	39140.78
660.32	39292.91
660.46	39159.50
660.60	38974.60
660.74	38965.24
660.89	38967.58
661.03	39042.48
661.17	38913.75
661.32	38934.81
661.46	39150.14
661.60	38857.57
661.74	38749.91
661.89	38565.01
662.03	38653.95
662.17	38682.03
662.31	38424.57
662.46	38911.41
662.60	38529.90
662.74	37872.21
662.88	38024.34
663.03	38330.95
663.17	38057.11
663.31	37558.58
663.45	37935.40
663.60	38511.17
663.74	38277.12
663.88	38183.50
664.02	37511.77
664.17	37912.00
664.31	37596.03
664.45	37825.40
664.59	37773.91
664.73	37785.61
664.88	37813.70
665.02	37291.76
665.16	37926.04
665.30	37624.11
665.44	37684.97
665.59	37523.47
665.73	36994.51
665.87	37148.98
666.01	37467.30
666.15	37106.85
666.29	36875.14
666.44	37364.31
666.58	36999.19
666.72	36898.55
666.86	36575.55
667.00	36580.23
667.14	36678.54
667.28	36671.51
667.43	36877.48
667.57	36811.95
667.71	36720.66
667.85	36643.43
667.99	36875.14
668.13	36390.65
668.27	36470.23
668.41	36299.37
668.56	36086.38
668.70	35536.35
668.84	35880.41
668.98	35922.54
669.12	35683.81
669.26	35686.15
669.40	35555.08
669.54	35646.36
669.68	35611.25
669.82	35470.82
669.96	35285.92
670.10	34986.33
670.25	35042.50
670.39	35208.68
670.53	35569.12
670.67	35166.55
670.81	35229.74
670.95	35325.71
671.09	34700.78
671.23	35204.00
671.37	34782.70
671.51	35075.27
671.65	34457.37
671.79	35189.95
671.93	35248.47
672.07	34911.43
672.21	34005.64
672.35	34061.82
672.49	34323.96
672.63	34354.38
672.77	34370.77
672.91	33972.88
673.05	34391.83
673.19	34136.71
673.33	33736.48
673.47	33905.00
673.61	33919.04
673.75	33635.84
673.89	33654.56
674.03	33378.38
674.17	32643.45
674.31	33174.75
674.45	33102.20
674.59	33191.14
674.73	33193.48
674.87	32861.12
675.01	32783.88
675.15	32528.77
675.29	32924.32
675.43	32493.66
675.56	32772.18
675.70	32655.15
675.84	32584.94
675.98	31452.12
676.12	32224.50
676.26	32664.52
676.40	32435.14
676.54	32278.33
676.68	31782.13
676.82	31786.82
676.96	31634.68
677.10	31709.58
677.23	31653.40
677.37	31407.65
677.51	31213.38
677.65	31344.45
677.79	31103.38
677.93	31508.29
678.07	30984.01
678.21	30895.07
678.34	30897.41
678.48	30953.58
678.62	30764.00
678.76	30455.05
678.90	30356.75
679.04	30342.70
679.18	30637.61
679.31	29998.65
679.45	30169.51
679.59	29841.83
679.73	30033.75
679.87	29874.60
680.00	29645.23
680.14	29780.98
680.28	29621.82
680.42	29820.77
680.56	28989.88
680.70	29113.92
680.83	29170.10
680.97	28884.55
681.11	29095.20
681.25	28959.45
681.39	28673.90
681.52	28882.21
681.66	28460.91
681.80	28114.52
681.94	28444.53
682.07	28067.70
682.21	28278.35
682.35	27889.82
682.49	28290.06
682.62	27590.24
682.76	27845.35
682.90	27906.21
683.04	27784.50
683.17	27871.10
683.31	27520.02
683.45	27339.80
683.59	27157.24
683.72	26752.32
683.86	26967.65
684.00	26888.07
684.13	27047.23
684.27	26480.82
684.41	26780.41
684.55	26644.66
684.68	26616.57
684.82	25867.60
684.96	26171.87
685.09	26204.64
685.23	26438.69
685.37	26565.08
685.50	26539.33
685.64	25965.90
685.78	25788.02
685.91	26005.69
686.05	25104.59
686.19	24973.52
686.32	24790.95
686.46	24964.15
686.60	24926.71
686.73	25280.13
686.87	25205.23
687.01	24943.09
687.14	24781.59
687.28	24903.30
687.42	24669.25
687.55	24776.91
687.69	25046.07
687.82	24652.86
687.96	24044.32
688.10	24292.42
688.23	24343.91
688.37	24547.54
688.50	24154.33
688.64	23786.86
688.78	23990.49
688.91	24056.03
689.05	23606.64
689.18	23005.13
689.32	23330.46
689.46	23192.37
689.59	23073.00
689.73	23332.80
689.86	23477.91
690.00	23459.19
690.13	22817.88
690.27	22970.02
690.41	23040.23
690.54	22827.24
690.68	22429.35
690.81	22443.40
690.95	22658.73
691.08	21951.88
691.22	21844.22
691.35	21942.52
691.49	22024.44
691.62	22050.19
691.76	21476.76
691.89	21474.42
692.03	21216.96
692.16	21216.96
692.30	21392.50
692.43	21214.62
692.57	20854.17
692.70	21055.46
692.84	20957.16
692.97	20587.35
693.11	20917.37
693.24	20580.33
693.38	20725.44
693.51	20379.04
693.65	20641.18
693.78	20414.15
693.92	20147.33
694.05	20233.93
694.19	20159.03
694.32	20072.43
694.45	20552.24
694.59	20098.18
694.72	20121.59
694.86	19920.30
694.99	19819.66
695.13	19398.36
695.26	19288.35
695.39	19087.07
695.53	19447.51
695.66	19215.80
695.80	19159.63
695.93	19040.26
696.07	18998.13
696.20	18635.35
696.33	18534.70
696.47	18274.90
696.60	18277.24
696.73	18651.73
696.87	18520.66
697.00	18307.67
697.14	18272.56
697.27	18202.35
697.40	18153.20
697.54	18174.26
697.67	17717.86
697.80	18139.15
697.94	17956.59
698.07	17844.24
698.21	17661.68
698.34	17518.91
698.47	17612.53
698.61	16978.25
698.74	17273.15
698.87	17102.29
699.01	17085.91
699.14	17114.00
699.27	17137.40
699.40	16835.47
699.54	16629.51
699.67	16636.53
699.80	16840.15
699.94	16704.40
700.07	16575.67
700.20	16601.42
700.34	16301.83
700.47	16313.53
700.60	16477.37
700.73	16400.13
700.87	16072.46
701.00	16002.24
701.13	15873.51
701.26	15590.31
701.40	15833.72
701.53	15770.53
701.66	15775.21
701.79	15506.05
701.93	15250.93
702.06	15007.52
702.19	15286.04
702.32	15190.08
702.46	15386.68
702.59	15115.18
702.72	14977.09
702.85	15063.69
702.99	15159.65
703.12	14930.28
703.25	14743.03
703.38	14733.67
703.51	14583.88
703.65	14312.38
703.78	14232.80
703.91	14146.20
704.04	14263.22
704.17	14073.64
704.31	13975.34
704.44	14061.94
704.57	14162.58
704.70	13914.48
704.83	13703.84
704.96	13556.38
705.10	13671.07
705.23	13645.32
>>>>>End Processed Spectral Data<<<<<
