SpectraSuite Data File
++++++++++++++++++++++++++++++++++++
Date: Fri Oct 25 11:34:22 EDT 2013
User: price-jones
Dark Spectrum Present: No
Reference Spectrum Present: No
Number of Sampled Component Spectra: 1
Spectrometers: USB2+H05261
Integration Time (usec): 100000 (USB2+H05261)
Spectra Averaged: 1 (USB2+H05261)
Boxcar Smoothing: 0 (USB2+H05261)
Correct for Electrical Dark: No (USB2+H05261)
Strobe/Lamp Enabled: No (USB2+H05261)
Correct for Detector Non-linearity: No (USB2+H05261)
Correct for Stray Light: No (USB2+H05261)
Number of Pixels in Processed Spectrum: 2048
>>>>>Begin Processed Spectral Data<<<<<
365.73	248.10
365.92	248.10
366.12	248.10
366.32	166.18
366.52	154.48
366.72	217.67
366.91	182.56
367.11	224.69
367.31	119.37
367.51	138.09
367.70	227.03
367.90	215.33
368.10	187.24
368.30	135.75
368.49	140.43
368.69	252.78
368.89	203.63
369.09	184.90
369.28	205.97
369.48	220.01
369.68	243.42
369.87	276.18
370.07	337.04
370.27	215.33
370.47	346.40
370.66	425.98
370.86	456.40
371.06	510.24
371.25	566.41
371.45	587.47
371.65	547.69
371.84	519.60
372.04	500.87
372.24	575.77
372.44	526.62
372.63	507.90
372.83	578.11
373.03	622.58
373.22	561.73
373.42	564.07
373.62	629.60
373.81	594.50
374.01	692.80
374.21	662.37
374.40	582.79
374.60	624.92
374.79	732.59
374.99	603.86
375.19	603.86
375.38	730.25
375.58	662.37
375.78	709.18
375.97	650.67
376.17	688.12
376.37	660.03
376.56	610.88
376.76	683.44
376.95	601.52
377.15	655.35
377.35	678.76
377.54	655.35
377.74	676.41
377.93	655.35
378.13	660.03
378.33	678.76
378.52	662.37
378.72	739.61
378.91	727.91
379.11	744.29
379.31	587.47
379.50	718.54
379.70	753.65
379.89	695.14
380.09	718.54
380.28	702.16
380.48	753.65
380.68	643.65
380.87	678.76
381.07	692.80
381.26	706.84
381.46	730.25
381.65	779.40
381.85	706.84
382.04	720.88
382.24	767.70
382.43	716.20
382.63	704.50
382.83	739.61
383.02	730.25
383.22	751.31
383.41	746.63
383.61	788.76
383.80	791.10
384.00	795.78
384.19	791.10
384.39	816.85
384.58	807.48
384.78	751.31
384.97	856.64
385.17	826.21
385.36	896.43
385.56	765.36
385.75	835.57
385.95	830.89
386.14	936.21
386.34	901.11
386.53	880.04
386.72	840.25
386.92	812.17
387.11	828.55
387.31	795.78
387.50	889.40
387.70	877.70
387.89	912.81
388.09	873.02
388.28	898.77
388.48	875.36
388.67	971.32
388.86	938.55
389.06	945.58
389.25	898.77
389.45	992.39
389.64	933.87
389.84	978.34
390.03	1018.13
390.22	954.94
390.42	901.11
390.61	915.15
390.81	964.30
391.00	999.41
391.19	950.26
391.39	947.92
391.58	990.05
391.78	926.85
391.97	1057.92
392.16	1034.52
392.36	1039.20
392.55	980.68
392.75	985.37
392.94	1039.20
393.13	1011.11
393.33	1034.52
393.52	1067.28
393.71	1128.14
393.91	1076.65
394.10	1090.69
394.29	1121.12
394.49	1123.46
394.68	1046.22
394.88	957.28
395.07	1151.54
395.26	1132.82
395.46	1055.58
395.65	1163.25
395.84	1212.40
396.04	1196.01
396.23	1188.99
396.42	1177.29
396.62	1144.52
396.81	1224.10
397.00	1102.39
397.19	1233.46
397.39	1184.31
397.58	1261.55
397.77	1198.35
397.97	1167.93
398.16	1203.04
398.35	1240.48
398.55	1242.82
398.74	1263.89
398.93	1303.68
399.12	1350.49
399.32	1249.85
399.51	1320.06
399.70	1303.68
399.90	1210.06
400.09	1294.32
400.28	1263.89
400.47	1322.40
400.67	1387.94
400.86	1331.76
401.05	1418.36
401.24	1399.64
401.44	1376.24
401.63	1420.71
401.82	1427.73
402.01	1373.89
402.21	1509.65
402.40	1432.41
402.59	1451.13
402.78	1490.92
402.97	1418.36
403.17	1533.05
403.36	1556.46
403.55	1577.52
403.74	1586.88
403.93	1455.81
404.13	1610.29
404.32	1483.90
404.51	1533.05
404.70	1570.50
404.89	1521.35
405.09	1687.53
405.28	1659.44
405.47	1631.35
405.66	1694.55
405.85	1678.16
406.05	1666.46
406.24	1612.63
406.43	1640.72
406.62	1757.74
406.81	1689.87
407.00	1650.08
407.20	1696.89
407.39	1659.44
407.58	1785.83
407.77	1774.13
407.96	1900.52
408.15	1923.92
408.34	1741.36
408.54	1842.00
408.73	1820.94
408.92	1944.99
409.11	1879.45
409.30	1919.24
409.49	1867.75
409.68	1994.14
409.87	1963.71
410.07	1977.75
410.26	2078.40
410.45	1881.79
410.64	1987.11
410.83	2129.89
411.02	1935.62
411.21	2069.03
411.40	2108.82
411.59	2099.46
411.78	2190.74
411.98	2132.23
412.17	2153.29
412.36	2253.94
412.55	2228.19
412.74	2197.76
412.93	2221.17
413.12	2211.81
413.31	2401.39
413.50	2368.62
413.69	2289.04
413.88	2399.05
414.07	2445.86
414.26	2368.62
414.45	2459.90
414.64	2509.05
414.83	2509.05
415.02	2342.88
415.22	2389.69
415.41	2576.93
415.60	2555.86
415.79	2581.61
415.98	2675.23
416.17	2595.65
416.36	2656.51
416.55	2722.04
416.74	2642.46
416.93	2616.72
417.12	2651.83
417.31	2726.72
417.50	2761.83
417.69	2857.79
417.88	2815.66
418.07	2773.53
418.26	2878.86
418.45	2913.97
418.64	2965.46
418.83	2991.20
419.02	2949.08
419.21	3023.97
419.39	3049.72
419.58	2871.84
419.77	3063.76
419.96	3061.42
420.15	3052.06
420.34	3012.27
420.53	3019.29
420.72	3138.66
420.91	3185.47
421.10	3183.13
421.29	3253.34
421.48	3197.17
421.67	3218.24
421.86	3201.85
422.05	3164.40
422.24	3187.81
422.43	3112.91
422.61	3293.13
422.80	3311.86
422.99	3344.63
423.18	3136.32
423.37	3335.26
423.56	3236.96
423.75	3372.71
423.94	3295.47
424.13	3110.57
424.32	3220.58
424.50	3208.87
424.69	3379.73
424.88	3311.86
425.07	3267.39
425.26	3251.00
425.45	3293.13
425.64	3234.62
425.83	3274.41
426.01	3356.33
426.20	3403.14
426.39	3246.32
426.58	3321.22
426.77	3344.63
426.96	3311.86
427.15	3370.37
427.33	3346.97
427.52	3426.54
427.71	3569.32
427.90	3574.00
428.09	3534.21
428.28	3531.87
428.46	3541.23
428.65	3440.59
428.84	3613.79
429.03	3709.75
429.22	3459.31
429.40	3686.34
429.59	3499.10
429.78	3559.95
429.97	3557.61
430.16	3726.13
430.34	3700.39
430.53	3758.90
430.72	3836.14
430.91	3808.05
431.10	3782.31
431.28	3817.41
431.47	3737.84
431.66	3920.40
431.85	3695.71
432.03	3826.78
432.22	3929.76
432.41	3861.88
432.60	3941.46
432.79	3892.31
432.97	3936.78
433.16	3957.85
433.35	3892.31
433.54	3925.08
433.72	4028.06
433.91	4028.06
434.10	4145.09
434.28	3911.04
434.47	4154.45
434.66	4145.09
434.85	4039.76
435.03	4072.53
435.22	4222.33
435.41	4271.48
435.59	4236.37
435.78	4243.39
435.97	4283.18
436.16	4189.56
436.34	4203.60
436.53	4287.86
436.72	4454.04
436.90	4374.46
437.09	4362.76
437.28	4283.18
437.46	4402.55
437.65	4315.95
437.84	4447.02
438.02	4517.23
438.21	4451.70
438.40	4285.52
438.58	4573.41
438.77	4657.67
438.96	4578.09
439.14	4692.77
439.33	4760.65
439.52	4674.05
439.70	4784.06
439.89	4755.97
440.08	4713.84
440.26	4919.81
440.45	4751.29
440.63	4933.85
440.82	4954.91
441.01	4966.62
441.19	5074.28
441.38	5116.41
441.57	5212.37
441.75	5111.73
441.94	5247.48
442.12	5179.61
442.31	5256.84
442.50	5203.01
442.68	5188.97
442.87	5394.93
443.05	5350.46
443.24	5343.44
443.43	5444.09
443.61	5420.68
443.80	5486.22
443.98	5259.18
444.17	5132.79
444.35	5437.06
444.54	5481.53
444.73	5437.06
444.91	5540.05
445.10	5502.60
445.28	5563.45
445.47	5390.25
445.65	5453.45
445.84	5582.18
446.02	5561.11
446.21	5647.71
446.39	5451.11
446.58	5509.62
446.77	5558.77
446.95	5511.96
447.14	5593.88
447.32	5633.67
447.51	5636.01
447.69	5593.88
447.88	5628.99
448.06	5516.64
448.25	5462.81
448.43	5507.28
448.62	5516.64
448.80	5474.51
448.99	5767.08
449.17	5757.72
449.36	5607.92
449.54	5851.34
449.73	5781.12
449.91	5748.36
450.10	5731.97
450.28	5806.87
450.46	5949.64
450.65	6083.05
450.83	5895.81
451.02	5877.09
451.20	5980.07
451.39	5909.85
451.57	5954.32
451.76	5937.94
451.94	5959.00
452.13	6019.86
452.31	5987.09
452.49	5984.75
452.68	6040.92
452.86	6010.50
453.05	6167.31
453.23	6022.20
453.42	6204.76
453.60	6188.38
453.78	6026.88
453.97	6228.17
454.15	6193.06
454.34	6221.14
454.52	6335.83
454.70	6321.79
454.89	6253.91
455.07	6286.68
455.26	6361.58
455.44	6520.73
455.62	6342.85
455.81	6452.86
455.99	6546.48
456.17	6384.98
456.36	6417.75
456.54	6574.56
456.73	6651.80
456.91	6878.83
457.09	6672.87
457.28	6920.96
457.46	6768.83
457.64	6766.49
457.83	6707.98
458.01	6799.26
458.19	6942.03
458.38	6773.51
458.56	6930.33
458.74	7007.56
458.93	6892.88
459.11	6853.09
459.29	6867.13
459.48	6995.86
459.66	7094.16
459.84	7110.55
460.03	7206.51
460.21	7070.76
460.39	7047.35
460.57	7220.55
460.76	7169.06
460.94	7204.17
461.12	7136.29
461.31	7150.34
461.49	7140.97
461.67	7089.48
461.85	7300.13
462.04	7143.32
462.22	7712.07
462.40	7466.31
462.59	7435.88
462.77	7330.56
462.95	7566.95
463.13	7316.51
463.32	7627.81
463.50	7470.99
463.68	7623.12
463.86	7590.36
464.05	7513.12
464.23	7653.55
464.41	7683.98
464.59	7531.84
464.78	7660.57
464.96	7761.22
465.14	7623.12
465.32	7683.98
465.50	7932.08
465.69	7808.03
465.87	7847.82
466.05	7840.79
466.23	7901.65
466.41	7969.52
466.60	8154.43
466.78	7810.37
466.96	7808.03
467.14	7733.13
467.32	8058.46
467.51	8086.55
467.69	7836.11
467.87	7786.96
468.05	8013.99
468.23	8063.15
468.41	7859.52
468.60	7953.14
468.78	8334.65
468.96	8159.11
469.14	8170.81
469.32	8423.59
469.50	8121.66
469.69	8369.76
469.87	8430.61
470.05	8353.37
470.23	8365.07
470.41	8404.86
470.59	8622.53
470.77	8610.83
470.95	8526.57
471.14	8772.33
471.32	8568.70
471.50	8674.03
471.68	8812.12
471.86	8784.03
472.04	8739.56
472.22	8987.66
472.40	8704.45
472.58	8933.82
472.77	8905.74
472.95	9181.92
473.13	9455.76
473.31	8805.10
473.49	8812.12
473.67	9123.41
473.85	9268.52
474.03	9383.21
474.21	9289.59
474.39	9628.96
474.57	9460.45
474.75	9631.30
474.93	9582.15
475.12	9593.86
475.30	9635.99
475.48	9664.07
475.66	9647.69
475.84	9603.22
476.02	9626.62
476.20	9795.14
476.38	10174.31
476.56	10230.48
476.74	10190.69
476.92	10265.59
477.10	10120.48
477.28	10146.22
477.46	10441.13
477.64	10413.04
477.82	10654.12
478.00	10607.31
478.18	10745.40
478.36	10689.23
478.54	10843.70
478.72	10895.19
478.90	10932.64
479.08	11098.82
479.26	11300.11
479.44	11220.53
479.62	11154.99
479.80	11447.56
479.98	11543.52
480.16	11892.26
480.34	11815.02
480.52	11815.02
480.70	11595.01
480.88	11735.45
481.06	11786.94
481.24	12098.23
481.41	12035.03
481.59	12257.39
481.77	12147.38
481.95	12255.04
482.13	12556.97
482.31	12444.63
482.49	12858.90
482.67	12723.15
482.85	12945.50
483.03	13069.55
483.21	13247.43
483.39	13242.75
483.57	13242.75
483.74	13507.23
483.92	13345.73
484.10	13476.80
484.28	13514.25
484.46	13973.00
484.64	14209.39
484.82	13949.59
485.00	14071.30
485.18	14300.67
485.35	14429.40
485.53	14429.40
485.71	14717.29
485.89	14771.12
486.07	14785.16
486.25	14871.76
486.43	14682.18
486.61	15077.73
486.78	14984.11
486.96	15274.34
487.14	15515.41
487.32	15571.58
487.50	15681.59
487.68	15763.51
487.85	15953.09
488.03	16086.50
488.21	16283.11
488.39	16301.83
488.57	16585.04
488.75	16395.45
488.92	16673.98
489.10	16826.11
489.28	16741.85
489.46	16844.84
489.64	17219.32
489.81	17411.25
489.99	17282.52
490.17	17750.62
490.35	17479.12
490.53	17907.44
490.70	17926.16
490.88	17905.10
491.06	18075.96
491.24	18108.72
491.41	18368.52
491.59	18373.21
491.77	18534.70
491.95	18450.44
492.13	18675.13
492.30	18918.55
492.48	19178.35
492.66	18960.68
492.84	19300.06
493.01	19597.31
493.19	19035.58
493.37	19396.02
493.54	19611.35
493.72	20109.88
493.90	19737.74
494.08	19910.94
494.25	20266.70
494.43	20086.48
494.61	20283.08
494.79	20430.54
494.96	20308.83
495.14	20453.94
495.32	20720.76
495.49	21451.01
495.67	20739.49
495.85	21205.25
496.02	21514.20
496.20	21497.82
496.38	21369.09
496.55	21563.36
496.73	22052.53
496.91	21759.96
497.09	21970.61
497.26	22155.51
497.44	21895.71
497.62	22101.68
497.79	22445.74
497.97	22075.93
498.14	22817.88
498.32	22799.16
498.50	22948.95
498.67	22794.48
498.85	22719.58
499.03	23047.26
499.20	23508.34
499.38	23166.62
499.56	23501.32
499.73	23201.73
499.91	23503.66
500.08	23740.05
500.26	23520.04
500.44	23634.73
500.61	23939.00
500.79	23747.08
500.97	23985.81
501.14	24081.77
501.32	24372.00
501.49	24400.08
501.67	24383.70
501.84	24524.13
502.02	24287.74
502.20	24549.88
502.37	24704.35
502.55	24802.66
502.72	24788.61
502.90	24858.83
503.07	24765.21
503.25	25125.65
503.43	25055.43
503.60	25340.98
503.78	25415.88
503.95	25280.13
504.13	25333.96
504.30	25659.29
504.48	25450.99
504.65	25752.91
504.83	25696.74
505.01	26024.42
505.18	26022.08
505.36	26239.75
505.53	25979.95
505.71	26162.51
505.88	26691.47
506.06	26082.93
506.23	26710.19
506.41	26176.55
506.58	26335.71
506.76	26778.07
506.93	26747.64
507.11	26953.61
507.28	26913.82
507.46	26738.28
507.63	26953.61
507.81	27302.35
507.98	27297.67
508.16	27454.48
508.33	27449.80
508.50	27592.58
508.68	27604.28
508.85	28194.09
509.03	27861.74
509.20	27821.95
509.38	27943.66
509.55	28353.25
509.73	28067.70
509.90	28084.09
510.08	28512.41
510.25	28603.69
510.42	28521.77
510.60	28521.77
510.77	28877.53
510.95	29057.75
511.12	29064.77
511.30	28879.87
511.47	28638.80
511.64	28484.32
511.82	29010.94
511.99	28982.85
512.17	29591.39
512.34	29090.52
512.51	29965.88
512.69	29635.86
512.86	29652.25
513.04	29874.60
513.21	29804.38
513.38	29649.91
513.56	30221.00
513.73	29970.56
513.90	30164.82
514.08	29982.26
514.25	30197.59
514.43	30260.79
514.60	30433.99
514.77	30637.61
514.95	30656.34
515.12	30609.53
515.29	30223.34
515.47	30621.23
515.64	30836.56
515.81	30792.09
515.99	31234.45
516.16	31189.98
516.33	31370.20
516.51	31344.45
516.68	31215.72
516.85	31157.21
517.03	31255.51
517.20	31314.03
517.37	31515.31
517.54	31271.90
517.72	31522.34
517.89	31941.29
518.06	31639.36
518.24	31669.79
518.41	31880.44
518.58	31648.72
518.75	31747.03
518.93	31985.76
519.10	32070.02
519.27	31915.54
519.45	32201.09
519.62	32606.00
519.79	32568.55
519.96	32699.62
520.14	32388.33
520.31	32362.59
520.48	32704.31
520.65	32802.61
520.83	33366.68
521.00	32919.63
521.17	33181.77
521.34	32879.85
521.52	33170.07
521.69	33523.49
521.86	33263.69
522.03	33764.57
522.20	33497.75
522.38	33675.63
522.55	33497.75
522.72	33507.11
522.89	33687.33
523.07	33890.96
523.24	33968.19
523.41	33876.91
523.58	33989.26
523.75	34096.92
523.92	34366.09
524.10	34017.35
524.27	34281.83
524.44	34169.48
524.61	34440.98
524.78	34169.48
524.96	34459.71
525.13	34349.70
525.30	34375.45
525.47	34560.35
525.64	34501.84
525.81	35089.31
525.98	34796.74
526.16	35030.80
526.33	34972.28
526.50	34799.08
526.67	35091.65
526.84	34948.88
527.01	34845.90
527.18	35213.36
527.36	35328.05
527.53	35447.41
527.70	35646.36
527.87	35952.97
528.04	35662.74
528.21	35838.28
528.38	35674.45
528.55	35328.05
528.72	35283.58
528.89	36144.89
529.07	35945.95
529.24	35864.03
529.41	36156.60
529.58	35959.99
529.75	35978.72
529.92	36264.26
530.09	36009.14
530.26	36128.51
530.43	36084.04
530.60	35924.88
530.77	35868.71
530.94	36229.15
531.11	36102.76
531.28	36723.01
531.46	36519.38
531.63	36713.64
531.80	36460.87
531.97	36615.34
532.14	37113.87
532.31	36811.95
532.48	36903.23
532.65	36814.29
532.82	37069.40
532.99	37354.95
533.16	36985.15
533.33	37015.57
533.50	37043.66
533.67	37099.83
533.84	37380.70
534.01	37287.07
534.18	37621.77
534.35	37986.89
534.52	37642.84
534.69	38024.34
534.86	37549.21
535.03	37649.86
535.20	37766.88
535.37	37787.95
535.54	37860.51
535.71	37944.76
535.88	37944.76
536.05	37832.42
536.22	38328.61
536.38	38321.59
536.55	38251.38
536.72	38169.46
536.89	38033.71
537.06	37844.12
537.23	38576.71
537.40	38286.48
537.57	38225.63
537.74	38265.42
537.91	38838.85
538.08	38209.25
538.25	38164.78
538.42	38249.03
538.59	39072.90
538.75	38602.46
538.92	38869.28
539.09	38813.10
539.26	39140.78
539.43	38983.96
539.60	38948.85
539.77	38792.04
539.94	39061.20
540.11	38850.55
540.28	39119.71
540.44	39229.72
540.61	38775.66
540.78	39026.09
540.95	39754.00
541.12	39475.48
541.29	39196.95
541.46	39508.24
541.62	39634.63
541.79	39438.03
541.96	39386.54
542.13	39145.46
542.30	39800.81
542.47	39618.25
542.63	40046.57
542.80	39889.75
542.97	39952.94
543.14	39938.90
543.31	40208.06
543.48	40144.87
543.64	40776.81
543.81	40093.38
543.98	40390.62
544.15	40470.20
544.32	40711.28
544.48	40907.88
544.65	40727.66
544.82	40760.43
544.99	40451.48
545.16	40912.56
545.32	40772.13
545.49	41015.55
545.66	40879.80
545.83	40460.84
546.00	40856.39
546.16	41001.50
546.33	40622.34
546.50	41298.75
546.67	41310.46
546.83	40631.70
547.00	41251.94
547.17	40954.69
547.34	41083.42
547.50	41535.15
547.67	41607.70
547.84	40978.10
548.00	41649.83
548.17	41982.19
548.34	41612.38
548.51	41731.75
548.67	41469.61
548.84	41598.34
549.01	41677.92
549.18	41890.91
549.34	42047.72
549.51	41811.33
549.68	41785.58
549.84	41986.87
550.01	41654.51
550.18	41584.30
550.34	42206.88
550.51	42141.35
550.68	42038.36
550.84	41965.81
551.01	42057.09
551.18	41844.10
551.34	42007.94
551.51	42382.42
551.68	41965.81
551.84	41769.20
552.01	41741.11
552.18	42089.85
552.34	42440.93
552.51	42433.91
552.68	42052.41
552.84	42532.22
553.01	42548.60
553.18	42738.18
553.34	42136.66
553.51	42185.82
553.67	42447.96
553.84	42450.30
554.01	42976.92
554.17	42995.64
554.34	43068.20
554.51	42651.58
554.67	43122.03
554.84	42775.63
555.00	42890.32
555.17	42775.63
555.33	43313.95
555.50	42754.57
555.67	42859.89
555.83	43157.14
556.00	43274.16
556.16	43606.52
556.33	43487.15
556.50	43054.15
556.66	43194.59
556.83	42855.21
556.99	43161.82
557.16	43384.17
557.32	43217.99
557.49	43569.07
557.65	42801.38
557.82	43409.92
557.98	43161.82
558.15	43117.35
558.32	43690.78
558.48	43098.62
558.65	43590.14
558.81	43690.78
558.98	43552.69
559.14	43175.86
559.31	43409.92
559.47	43344.38
559.64	43878.02
559.80	43562.05
559.97	43833.55
560.13	43728.23
560.30	43674.40
560.46	44051.22
560.63	44182.29
560.79	44034.84
560.96	44315.70
561.12	43611.20
561.29	44137.82
561.45	43966.96
561.61	43824.19
561.78	43892.07
561.94	43655.67
562.11	43906.11
562.27	43838.23
562.44	44016.11
562.60	44278.25
562.77	44491.24
562.93	43751.63
563.10	43693.12
563.26	44509.97
563.42	44280.60
563.59	44488.90
563.75	43854.62
563.92	44261.87
564.08	43833.55
564.24	44203.36
564.41	43978.67
564.57	44336.77
564.74	44224.42
564.90	44451.45
565.07	44168.25
565.23	44116.76
565.39	44458.48
565.56	44788.49
565.72	44474.86
565.88	44357.83
566.05	44278.25
566.21	44502.95
566.38	44444.43
566.54	44554.44
566.70	44194.00
566.87	44472.52
567.03	44463.16
567.19	44996.80
567.36	44947.65
567.52	44676.15
567.68	45284.68
567.85	44664.44
568.01	44952.33
568.17	44903.18
568.34	44966.37
568.50	44662.10
568.66	44715.93
568.83	44727.64
568.99	44870.41
569.15	44751.04
569.32	44755.72
569.48	44844.66
569.64	45247.24
569.81	45167.66
569.97	44994.46
570.13	45329.16
570.30	44673.81
570.46	44697.21
570.62	44926.58
570.78	45411.07
570.95	44889.13
571.11	45312.77
571.27	45397.03
571.43	45319.79
571.60	45095.10
571.76	44594.23
571.92	44949.99
572.09	44917.22
572.25	44648.06
572.41	44994.46
572.57	45275.32
572.74	45488.31
572.90	45041.27
573.06	44706.57
573.22	44786.15
573.38	45375.97
573.55	44739.34
573.71	45359.58
573.87	45347.88
574.03	45134.89
574.20	45329.16
574.36	45057.65
574.52	45422.78
574.68	45546.82
574.84	45507.04
575.01	45539.80
575.17	45434.48
575.33	45638.11
575.49	45010.84
575.65	45167.66
575.82	45680.24
575.98	45361.92
576.14	45399.37
576.30	45649.81
576.46	45331.50
576.62	45378.31
576.79	45368.94
576.95	44800.19
577.11	45565.55
577.27	45111.49
577.43	45584.27
577.59	45336.18
577.75	45291.71
577.92	45059.99
578.08	45312.77
578.24	45617.04
578.40	45474.27
578.56	45605.34
578.72	45490.65
578.88	45703.64
579.04	45223.83
579.21	45153.62
579.37	45638.11
579.53	45397.03
579.69	45172.34
579.85	45399.37
580.01	45450.86
580.17	45492.99
580.33	45631.08
580.49	45455.54
580.65	45460.23
580.82	45708.32
580.98	45113.83
581.14	45162.98
581.30	45675.55
581.46	45317.45
581.62	45471.93
581.78	45439.16
581.94	45549.17
582.10	45249.58
582.26	45574.91
582.42	45724.71
582.58	45401.71
582.74	45696.62
582.90	45532.78
583.06	45516.40
583.22	45464.91
583.38	45675.55
583.54	45858.12
583.70	45904.93
583.86	45727.05
584.02	45563.21
584.18	46232.60
584.34	45567.89
584.50	46216.22
584.66	46375.37
584.82	45904.93
584.98	45895.56
585.14	45532.78
585.30	45837.05
585.46	45397.03
585.62	45375.97
585.78	46206.86
585.94	45361.92
586.10	45375.97
586.26	45256.60
586.42	45134.89
586.58	45446.18
586.74	45371.28
586.90	45511.72
587.06	45418.10
587.22	45799.60
587.38	45471.93
587.54	45804.28
587.70	45968.12
587.86	45687.26
588.02	45661.51
588.18	45523.42
588.34	45682.58
588.49	45570.23
588.65	45675.55
588.81	45539.80
588.97	46134.30
589.13	45710.66
589.29	45867.48
589.45	46230.26
589.61	46099.19
589.77	45621.72
589.93	46007.91
590.08	46382.40
590.24	46038.34
590.40	46286.43
590.56	46204.52
590.72	46546.23
590.88	45773.86
591.04	45762.15
591.20	45858.12
591.35	46185.79
591.51	46735.82
591.67	46403.46
591.83	46188.13
591.99	46043.02
592.15	46436.23
592.31	46230.26
592.46	46012.59
592.62	46225.58
592.78	46211.54
592.94	46689.01
593.10	46410.48
593.26	46433.89
593.41	46316.86
593.57	46050.04
593.73	46281.75
593.89	46677.30
594.05	46478.36
594.20	46506.44
594.36	46834.12
594.52	46761.56
594.68	46363.67
594.84	46286.43
594.99	46782.63
595.15	46579.00
595.31	46361.33
595.47	46312.18
595.62	46586.02
595.78	46363.67
595.94	46305.16
596.10	46534.53
596.25	46274.73
596.41	46188.13
596.57	46422.19
596.73	46375.37
596.88	46747.52
597.04	46611.77
597.20	46408.14
597.36	46621.13
597.51	46312.18
597.67	45968.12
597.83	46696.03
597.99	46658.58
598.14	46335.59
598.30	46452.61
598.46	45872.16
598.61	46981.57
598.77	46649.22
598.93	46714.75
599.09	46527.51
599.24	46941.78
599.40	46693.69
599.56	46281.75
599.71	47051.79
599.87	47044.77
600.03	46637.51
600.18	46698.37
600.34	46649.22
600.50	46419.84
600.65	46639.86
600.81	46689.01
600.97	46979.23
601.12	46555.60
601.28	46738.16
601.44	46403.46
601.59	46703.05
601.75	46660.92
601.91	46405.80
602.06	46445.59
602.22	47208.61
602.37	46925.40
602.53	46635.17
602.69	46979.23
602.84	46309.84
603.00	46497.08
603.16	46506.44
603.31	46155.36
603.47	46597.73
603.62	46574.32
603.78	46878.59
603.94	46759.22
604.09	46820.08
604.25	46541.55
604.40	46583.68
604.56	46698.37
604.71	47004.98
604.87	46773.27
605.03	46230.26
605.18	46546.23
605.34	46543.89
605.49	46363.67
605.65	46515.81
605.80	46136.64
605.96	46686.67
606.12	46567.30
606.27	46815.40
606.43	46621.13
606.58	46525.17
606.74	46211.54
606.89	46433.89
607.05	46712.41
607.20	46562.62
607.36	46124.94
607.51	46394.10
607.67	46251.33
607.82	46433.89
607.98	46045.36
608.13	46473.68
608.29	46197.49
608.44	46681.98
608.60	46616.45
608.75	46499.42
608.91	46057.06
609.06	46094.51
609.22	46443.25
609.37	46059.40
609.53	46522.83
609.68	46457.29
609.84	46457.29
609.99	46054.72
610.15	46483.04
610.30	46066.42
610.46	46054.72
610.61	46033.66
610.76	46501.76
610.92	46291.12
611.07	45907.27
611.23	45902.59
611.38	45965.78
611.54	46270.05
611.69	46391.76
611.84	46094.51
612.00	46092.17
612.15	46040.68
612.31	46092.17
612.46	45750.45
612.62	46078.13
612.77	46012.59
612.92	46082.81
613.08	46216.22
613.23	45998.55
613.39	46003.23
613.54	45846.41
613.69	46138.98
613.85	45666.19
614.00	46040.68
614.15	46192.81
614.31	45500.01
614.46	45951.74
614.62	45935.35
614.77	45263.62
614.92	45841.73
615.08	45734.07
615.23	46080.47
615.38	46153.02
615.54	46028.98
615.69	46443.25
615.84	45495.33
616.00	45827.69
616.15	45909.61
616.30	46092.17
616.46	45420.44
616.61	45888.54
616.76	45853.44
616.92	45408.73
617.07	45450.86
617.22	45324.47
617.37	45165.32
617.53	45155.96
617.68	45212.13
617.83	45743.43
617.99	45514.06
618.14	45593.64
618.29	45347.88
618.45	45256.60
618.60	45216.81
618.75	45036.59
618.90	45364.26
619.06	45605.34
619.21	45794.92
619.36	45759.81
619.51	45078.72
619.67	44926.58
619.82	45254.26
619.97	45333.84
620.12	44933.60
620.28	45216.81
620.43	45116.17
620.58	45343.20
620.73	45516.40
620.89	45551.51
621.04	45378.31
621.19	45408.73
621.34	44989.78
621.49	44814.24
621.65	45092.76
621.80	45319.79
621.95	44884.45
622.10	45399.37
622.25	44872.75
622.41	44905.52
622.56	44685.51
622.71	44931.26
622.86	45113.83
623.01	44891.48
623.16	44619.97
623.32	44790.83
623.47	44704.23
623.62	45179.36
623.77	44879.77
623.92	44802.53
624.07	45085.74
624.23	44699.55
624.38	44552.10
624.53	44870.41
624.68	44634.02
624.83	44540.39
624.98	44367.20
625.13	44821.26
625.29	44259.53
625.44	44414.01
625.59	44418.69
625.74	44465.50
625.89	44186.97
626.04	44072.29
626.19	44182.29
626.34	44568.48
626.49	44133.14
626.65	44367.20
626.80	44105.06
626.95	43957.60
627.10	43990.37
627.25	44240.81
627.40	44161.23
627.55	44524.01
627.70	43824.19
627.85	44119.10
628.00	44259.53
628.15	43871.00
628.30	44030.16
628.45	43676.74
628.60	43871.00
628.76	44238.47
628.91	43845.26
629.06	43744.61
629.21	43744.61
629.36	43636.95
629.51	44275.91
629.66	43899.09
629.81	44032.50
629.96	44002.07
630.11	43753.97
630.26	43133.73
630.41	43878.02
630.56	43697.80
630.71	43487.15
630.86	43419.28
631.01	43199.27
631.16	43583.12
631.31	43225.01
631.46	43578.43
631.61	43686.10
631.76	43604.18
631.91	43468.43
632.06	43927.17
632.21	43639.29
632.36	43936.54
632.51	43381.83
632.66	43557.37
632.81	43438.00
632.96	43299.91
633.10	43072.88
633.25	43393.53
633.40	43222.67
633.55	43248.42
633.70	43482.47
633.85	43044.79
634.00	43040.11
634.15	42857.55
634.30	42880.95
634.45	43143.09
634.60	42976.92
634.75	42948.83
634.90	43105.65
635.05	43105.65
635.19	43019.05
635.34	43131.39
635.49	43414.60
635.64	42969.90
635.79	42775.63
635.94	42534.56
636.09	43019.05
636.24	42986.28
636.39	43152.46
636.53	42845.85
636.68	42300.50
636.83	42380.08
636.98	42721.80
637.13	42230.29
637.28	42284.12
637.43	42312.20
637.57	42749.88
637.72	42457.32
637.87	42351.99
638.02	42330.93
638.17	42115.60
638.32	42417.53
638.46	42377.74
638.61	42539.24
638.76	42373.06
638.91	42581.37
639.06	42047.72
639.20	42153.05
639.35	41841.76
639.50	41766.86
639.65	42099.22
639.80	42232.63
639.94	42572.00
640.09	42183.48
640.24	41958.78
640.39	42085.17
640.54	41846.44
640.68	41968.15
640.83	42256.03
640.98	41827.71
641.13	41869.84
641.27	42415.19
641.42	42183.48
641.57	41588.98
641.72	41909.63
641.86	41350.24
642.01	41872.18
642.16	41837.08
642.31	41670.90
642.45	42043.04
642.60	41296.41
642.75	41865.16
642.90	41596.00
643.04	42059.43
643.19	41268.33
643.34	41689.62
643.48	41350.24
643.63	40999.16
643.78	41855.80
643.93	42075.81
644.07	41853.46
644.22	41429.82
644.37	41165.34
644.51	41698.98
644.66	41174.70
644.81	41422.80
644.95	41584.30
645.10	40992.14
645.25	40814.26
645.39	41076.40
645.54	40938.31
645.69	40732.34
645.83	40582.55
645.98	40706.60
646.13	40547.44
646.27	41254.28
646.42	41116.19
646.57	41024.91
646.71	40835.33
646.86	41329.18
647.00	41139.60
647.15	40938.31
647.30	41085.76
647.44	41181.73
647.59	40641.06
647.74	41095.13
647.88	40865.75
648.03	41469.61
648.17	40610.64
648.32	41179.39
648.47	41263.64
648.61	40369.56
648.76	40493.61
648.90	40502.97
649.05	40643.40
649.20	40952.35
649.34	40456.16
649.49	41015.55
649.63	40966.40
649.78	40442.12
649.92	41085.76
650.07	41235.56
650.21	40804.90
650.36	41216.83
650.51	40737.02
650.65	40451.48
650.80	40793.20
650.94	40547.44
651.09	40236.15
651.23	40091.04
651.38	40521.69
651.52	39555.05
651.67	39903.79
651.81	40603.61
651.96	40072.31
652.10	39922.52
652.25	39742.30
652.39	39901.45
652.54	40498.29
652.68	40203.38
652.83	40385.94
652.97	40137.85
653.12	40048.91
653.26	40023.16
653.41	40367.22
653.55	40222.11
653.70	40198.70
653.84	40187.00
653.99	40404.67
654.13	39639.31
654.27	39831.24
654.42	40009.12
654.56	39974.01
654.71	39763.36
654.85	39756.34
655.00	39428.66
655.14	40060.61
655.29	40058.27
655.43	39866.34
655.57	40051.25
655.72	39548.03
655.86	39480.16
656.01	39103.33
656.15	39543.35
656.30	39328.02
656.44	39210.99
656.58	39491.86
656.73	39374.83
656.87	39262.49
657.01	38749.91
657.16	39704.85
657.30	39283.55
657.45	39243.76
657.59	39454.41
657.73	38707.78
657.88	39133.76
658.02	39037.80
658.16	39346.75
658.31	39379.51
658.45	39023.75
658.60	38976.94
658.74	38944.17
658.88	39007.37
659.03	38625.86
659.17	38656.29
659.31	38986.30
659.46	38721.82
659.60	38630.54
659.74	38759.27
659.89	38195.20
660.03	38499.47
660.17	38707.78
660.32	38417.55
660.46	38279.46
660.60	37979.87
660.74	38288.82
660.89	38354.36
661.03	38286.48
661.17	38511.17
661.32	37919.02
661.46	38232.65
661.60	37914.34
661.74	38321.59
661.89	37656.88
662.03	37713.05
662.17	38003.28
662.31	37921.36
662.46	37598.37
662.60	37633.47
662.74	37392.40
662.88	37345.59
663.03	37287.07
663.17	37244.94
663.31	37191.11
663.45	37427.51
663.60	37397.08
663.74	37263.67
663.88	37294.10
664.02	37336.23
664.17	37310.48
664.31	37226.22
664.45	37006.21
664.59	36872.80
664.73	36893.86
664.88	37116.22
665.02	36540.44
665.16	36807.26
665.30	37106.85
665.44	36554.49
665.59	36435.12
665.73	36385.97
665.87	36027.87
666.01	36561.51
666.15	36868.12
666.29	36126.17
666.44	36566.19
666.58	36315.75
666.72	36512.36
666.86	36299.37
667.00	36034.89
667.14	36102.76
667.28	36460.87
667.43	35711.89
667.57	36250.22
667.71	36343.84
667.85	36116.81
667.99	35618.27
668.13	35494.22
668.27	35613.59
668.41	35648.70
668.56	35306.98
668.70	35428.69
668.84	34967.60
668.98	34747.59
669.12	35641.68
669.26	35063.57
669.40	34958.24
669.54	34850.58
669.68	35171.23
669.82	34808.45
669.96	34719.51
670.10	34483.11
670.25	34925.47
670.39	34670.36
670.53	34455.03
670.67	34576.73
670.81	34637.59
670.95	34529.92
671.09	34373.11
671.23	34356.72
671.37	34579.07
671.51	33933.09
671.65	34345.02
671.79	34410.56
671.93	34132.03
672.07	34272.46
672.21	34038.41
672.35	33860.53
672.49	33689.67
672.63	34127.35
672.77	33680.31
672.91	34015.01
673.05	33640.52
673.19	32914.95
673.33	33268.37
673.47	33137.30
673.61	32863.46
673.75	32933.68
673.89	32751.12
674.03	32645.79
674.17	32889.21
674.31	32514.72
674.45	32629.41
674.59	32322.80
674.73	32657.49
674.87	32617.71
675.01	32519.40
675.15	32046.62
675.29	31999.80
675.43	32261.94
675.56	32336.84
675.70	32208.11
675.84	32023.21
675.98	30995.71
676.12	31763.41
676.26	32196.41
676.40	31548.08
676.54	31613.62
676.68	31288.28
676.82	31009.76
676.96	31152.53
677.10	31218.07
677.23	31023.80
677.37	31250.83
677.51	30419.94
677.65	31021.46
677.79	30565.06
677.93	31058.91
678.07	30672.72
678.21	30698.47
678.34	30216.32
678.48	30057.16
678.62	30089.93
678.76	29701.40
678.90	30024.39
679.04	29893.32
679.18	30213.98
679.31	29816.08
679.45	29453.30
679.59	29275.42
679.73	29476.71
679.87	28985.19
680.00	29312.87
680.14	29546.92
680.28	29202.86
680.42	28716.03
680.56	28669.22
680.70	28819.02
680.83	28730.08
680.97	28720.71
681.11	28673.90
681.25	28357.93
681.39	28081.75
681.52	28346.23
681.66	27934.29
681.80	27623.00
681.94	27527.04
682.07	27431.08
682.21	27215.75
682.35	27580.87
682.49	27037.87
682.62	27246.18
682.76	27531.72
682.90	27431.08
683.04	27356.18
683.17	26981.70
683.31	26937.23
683.45	26726.58
683.59	26394.22
683.72	26555.72
683.86	26532.31
684.00	26160.17
684.13	26480.82
684.27	26197.62
684.41	26565.08
684.55	25895.69
684.68	26122.72
684.82	25708.44
684.96	25799.73
685.09	25682.70
685.23	26024.42
685.37	25940.16
685.50	25989.31
685.64	25872.28
685.78	25165.44
685.91	25289.49
686.05	24669.25
686.19	24584.99
686.32	24812.02
686.46	24615.41
686.60	24547.54
686.73	24561.58
686.87	24657.54
687.01	24484.34
687.14	24559.24
687.28	24121.56
687.42	24364.98
687.55	24203.48
687.69	24528.81
687.82	23882.83
687.96	23559.83
688.10	23810.27
688.23	23489.62
688.37	23988.15
688.50	23761.12
688.64	23431.10
688.78	23611.32
688.91	23325.78
689.05	23704.95
689.18	23021.51
689.32	22836.61
689.46	22979.38
689.59	22785.12
689.73	22878.74
689.86	22888.10
690.00	22419.99
690.13	23056.62
690.27	22508.93
690.41	22640.00
690.54	22270.20
690.68	21891.03
690.81	22045.51
690.95	21816.13
691.08	21832.52
691.22	21811.45
691.35	21528.25
691.49	21729.53
691.62	21542.29
691.76	21373.77
691.89	21170.15
692.03	20559.27
692.16	20879.92
692.30	20760.55
692.43	21032.05
692.57	20994.61
692.70	20652.89
692.84	20402.45
692.97	20486.71
693.11	20224.57
693.24	20060.73
693.38	20060.73
693.51	20177.76
693.65	20238.61
693.78	19822.00
693.92	19840.72
694.05	19873.49
694.19	19800.93
694.32	19686.25
694.45	19833.70
694.59	19726.04
694.72	19740.08
694.86	19543.47
694.99	19271.97
695.13	19091.75
695.26	18862.38
695.39	18904.51
695.53	18857.70
695.66	19005.15
695.80	18930.25
695.93	18920.89
696.07	18541.72
696.20	18183.62
696.33	18305.33
696.47	18127.45
696.60	17877.01
696.73	18415.34
696.87	18361.50
697.00	18302.99
697.14	17862.97
697.27	17774.03
697.40	17846.58
697.54	17877.01
697.67	17708.49
697.80	17544.66
697.94	17649.98
698.07	17397.20
698.21	17282.52
698.34	17411.25
698.47	17022.72
698.61	16765.26
698.74	16966.54
698.87	16840.15
699.01	16475.03
699.14	16854.20
699.27	16643.55
699.40	16491.41
699.54	16442.26
699.67	16468.01
699.80	16542.91
699.94	16269.06
700.07	16266.72
700.20	16135.65
700.34	16105.23
700.47	15847.77
700.60	16229.27
700.73	15948.41
700.87	15714.36
701.00	15658.18
701.13	15616.05
701.26	15337.53
701.40	15517.75
701.53	15393.70
701.66	15353.91
701.79	15332.85
701.93	15049.64
702.06	14897.51
702.19	15051.99
702.32	14934.96
702.46	14977.09
702.59	14984.11
702.72	14984.11
702.85	14691.54
702.99	14789.85
703.12	14459.83
703.25	14216.41
703.38	14377.91
703.51	14164.92
703.65	14434.08
703.78	14068.96
703.91	14010.45
704.04	13811.50
704.17	13867.67
704.31	13848.95
704.44	13958.96
704.57	13593.83
704.70	13844.27
704.83	13516.59
704.96	13495.53
705.10	13378.50
705.23	13184.24
>>>>>End Processed Spectral Data<<<<<
