SpectraSuite Data File
++++++++++++++++++++++++++++++++++++
Date: Fri Oct 25 11:33:31 EDT 2013
User: price-jones
Dark Spectrum Present: No
Reference Spectrum Present: No
Number of Sampled Component Spectra: 1
Spectrometers: USB2+H05261
Integration Time (usec): 100000 (USB2+H05261)
Spectra Averaged: 1 (USB2+H05261)
Boxcar Smoothing: 0 (USB2+H05261)
Correct for Electrical Dark: No (USB2+H05261)
Strobe/Lamp Enabled: No (USB2+H05261)
Correct for Detector Non-linearity: No (USB2+H05261)
Correct for Stray Light: No (USB2+H05261)
Number of Pixels in Processed Spectrum: 2048
>>>>>Begin Processed Spectral Data<<<<<
365.73	285.55
365.92	285.55
366.12	285.55
366.32	201.29
366.52	245.76
366.72	194.26
366.91	93.62
367.11	152.13
367.31	222.35
367.51	161.50
367.70	191.92
367.90	159.16
368.10	177.88
368.30	117.03
368.49	156.82
368.69	196.60
368.89	187.24
369.09	187.24
369.28	222.35
369.48	227.03
369.68	215.33
369.87	182.56
370.07	264.48
370.27	238.73
370.47	346.40
370.66	458.74
370.86	552.37
371.06	451.72
371.25	580.45
371.45	528.96
371.65	603.86
371.84	496.19
372.04	578.11
372.24	610.88
372.44	512.58
372.63	603.86
372.83	564.07
373.03	603.86
373.22	566.41
373.42	554.71
373.62	606.20
373.81	613.22
374.01	622.58
374.21	674.07
374.40	615.56
374.60	669.39
374.79	660.03
374.99	599.18
375.19	681.10
375.38	706.84
375.58	681.10
375.78	627.26
375.97	620.24
376.17	664.71
376.37	664.71
376.56	681.10
376.76	641.31
376.95	622.58
377.15	596.84
377.35	657.69
377.54	638.97
377.74	702.16
377.93	760.67
378.13	676.41
378.33	727.91
378.52	678.76
378.72	706.84
378.91	765.36
379.11	695.14
379.31	711.52
379.50	697.48
379.70	709.18
379.89	793.44
380.09	692.80
380.28	781.74
380.48	692.80
380.68	755.99
380.87	737.27
381.07	763.01
381.26	765.36
381.46	779.40
381.65	819.19
381.85	699.82
382.04	685.78
382.24	830.89
382.43	784.08
382.63	781.74
382.83	765.36
383.02	786.42
383.22	805.14
383.41	798.12
383.61	807.48
383.80	828.55
384.00	788.76
384.19	896.43
384.39	812.17
384.58	870.68
384.78	849.61
384.97	905.79
385.17	936.21
385.36	788.76
385.56	873.02
385.75	795.78
385.95	873.02
386.14	896.43
386.34	898.77
386.53	950.26
386.72	863.66
386.92	947.92
387.11	812.17
387.31	894.08
387.50	800.46
387.70	849.61
387.89	894.08
388.09	931.53
388.28	896.43
388.48	922.17
388.67	898.77
388.86	931.53
389.06	882.38
389.25	908.13
389.45	926.85
389.64	887.06
389.84	926.85
390.03	926.85
390.22	957.28
390.42	992.39
390.61	1041.54
390.81	999.41
391.00	980.68
391.19	1057.92
391.39	1081.33
391.58	945.58
391.78	1048.56
391.97	1027.50
392.16	1083.67
392.36	1081.33
392.55	1125.80
392.75	1039.20
392.94	1027.50
393.13	1067.28
393.33	1013.45
393.52	1081.33
393.71	1193.67
393.91	1118.78
394.10	1046.22
394.29	1076.65
394.49	1146.86
394.68	1090.69
394.88	1076.65
395.07	1116.44
395.26	1142.18
395.46	1114.10
395.65	1193.67
395.84	1170.27
396.04	1210.06
396.23	1177.29
396.42	1160.91
396.62	1167.93
396.81	1268.57
397.00	1228.78
397.19	1177.29
397.39	1163.25
397.58	1263.89
397.77	1167.93
397.97	1282.61
398.16	1334.11
398.35	1336.45
398.55	1299.00
398.74	1310.70
398.93	1291.98
399.12	1352.83
399.32	1196.01
399.51	1334.11
399.70	1275.59
399.90	1495.60
400.09	1406.66
400.28	1387.94
400.47	1383.26
400.67	1432.41
400.86	1458.15
401.05	1390.28
401.24	1437.09
401.44	1439.43
401.63	1427.73
401.82	1385.60
402.01	1385.60
402.21	1383.26
402.40	1423.05
402.59	1469.86
402.78	1472.20
402.97	1542.41
403.17	1519.01
403.36	1563.48
403.55	1600.93
403.74	1575.18
403.93	1554.12
404.13	1629.01
404.32	1521.35
404.51	1652.42
404.70	1629.01
404.89	1659.44
405.09	1713.27
405.28	1657.10
405.47	1715.61
405.66	1610.29
405.85	1724.97
406.05	1743.70
406.24	1902.86
406.43	1678.16
406.62	1809.23
406.81	1856.04
407.00	1776.47
407.20	1755.40
407.39	1837.32
407.58	1886.47
407.77	1891.15
407.96	1853.70
408.15	1797.53
408.34	1863.07
408.54	1909.88
408.73	1947.33
408.92	1982.43
409.11	2010.52
409.30	1966.05
409.49	1928.60
409.68	1975.41
409.87	2078.40
410.07	2146.27
410.26	2054.99
410.45	1989.46
410.64	1935.62
410.83	2094.78
411.02	2204.78
411.21	2148.61
411.40	2129.89
411.59	2235.21
411.78	2256.28
411.98	2218.83
412.17	2253.94
412.36	2197.76
412.55	2263.30
412.74	2298.41
412.93	2230.53
413.12	2338.20
413.31	2443.52
413.50	2373.30
413.69	2324.15
413.88	2368.62
414.07	2410.75
414.26	2492.67
414.45	2642.46
414.64	2537.14
414.83	2628.42
415.02	2626.08
415.22	2745.45
415.41	2738.43
415.60	2651.83
415.79	2712.68
415.98	2733.75
416.17	2738.43
416.36	2733.75
416.55	2726.72
416.74	2843.75
416.93	2766.51
417.12	2773.53
417.31	2850.77
417.50	2862.48
417.69	2911.63
417.88	2942.05
418.07	2895.24
418.26	2939.71
418.45	2965.46
418.64	3101.21
418.83	3063.76
419.02	3026.31
419.21	3115.25
419.39	3061.42
419.58	3133.98
419.77	3035.67
419.96	3183.13
420.15	3194.83
420.34	3077.80
420.53	3194.83
420.72	3300.16
420.91	3178.45
421.10	3311.86
421.29	3440.59
421.48	3171.43
421.67	3414.84
421.86	3206.53
422.05	3391.44
422.24	3283.77
422.43	3386.76
422.61	3295.47
422.80	3297.81
422.99	3454.63
423.18	3356.33
423.37	3487.40
423.56	3431.23
423.75	3428.88
423.94	3311.86
424.13	3283.77
424.32	3307.18
424.50	3506.12
424.69	3475.70
424.88	3459.31
425.07	3468.67
425.26	3475.70
425.45	3400.80
425.64	3517.83
425.83	3307.18
426.01	3562.30
426.20	3534.21
426.39	3461.65
426.58	3379.73
426.77	3559.95
426.96	3529.53
427.15	3506.12
427.33	3581.02
427.52	3541.23
427.71	3726.13
427.90	3665.28
428.09	3555.27
428.28	3646.55
428.46	3691.02
428.65	3688.68
428.84	3953.16
429.03	3817.41
429.22	3630.17
429.40	3763.58
429.59	3698.05
429.78	3637.19
429.97	3513.14
430.16	3758.90
430.34	3801.03
430.53	3786.99
430.72	3843.16
430.91	3873.59
431.10	3922.74
431.28	3925.08
431.47	3920.40
431.66	3941.46
431.85	3983.59
432.03	4007.00
432.22	4016.36
432.41	4194.24
432.60	4098.28
432.79	4152.11
432.97	4079.55
433.16	4112.32
433.35	4039.76
433.54	4145.09
433.72	4184.88
433.91	4133.39
434.10	4154.45
434.28	4203.60
434.47	4294.88
434.66	4278.50
434.85	4386.16
435.03	4325.31
435.22	4346.37
435.41	4290.20
435.59	4365.10
435.78	4454.04
435.97	4327.65
436.16	4372.12
436.34	4341.69
436.53	4585.11
436.72	4737.24
436.90	4390.84
437.09	4720.86
437.28	4374.46
437.46	4550.00
437.65	4479.79
437.84	4643.62
438.02	4674.05
438.21	4540.64
438.40	4655.33
438.58	4723.20
438.77	4795.76
438.96	4823.84
439.14	4791.08
439.33	5025.13
439.52	4868.31
439.70	4880.02
439.89	4971.30
440.08	5015.77
440.26	5057.90
440.45	5025.13
440.63	5132.79
440.82	5210.03
441.01	5132.79
441.19	5177.26
441.38	5322.38
441.57	5217.05
441.75	5282.59
441.94	5334.08
442.12	5479.19
442.31	5486.22
442.50	5458.13
442.68	5313.02
442.87	5385.57
443.05	5535.37
443.24	5458.13
443.43	5483.88
443.61	5624.31
443.80	5633.67
443.98	5380.89
444.17	5263.86
444.35	5715.59
444.54	5617.29
444.73	5497.92
444.91	5544.73
445.10	5603.24
445.28	5603.24
445.47	5523.66
445.65	5767.08
445.84	5664.10
446.02	5769.42
446.21	5671.12
446.39	5673.46
446.58	5776.44
446.77	5760.06
446.95	5518.98
447.14	5687.50
447.32	5753.04
447.51	5764.74
447.69	5734.31
447.88	5753.04
448.06	5841.98
448.25	5846.66
448.43	5865.38
448.62	5893.47
448.80	5783.46
448.99	5949.64
449.17	5893.47
449.36	5792.83
449.54	5963.68
449.73	6045.60
449.91	6298.38
450.10	6061.99
450.28	6216.46
450.46	6333.49
450.65	6209.44
450.83	6017.52
451.02	6214.12
451.20	6270.30
451.39	6155.61
451.57	6127.52
451.76	6106.46
451.94	6202.42
452.13	6244.55
452.31	6256.25
452.49	6162.63
452.68	6307.74
452.86	6134.54
453.05	6427.11
453.23	6504.35
453.42	6284.34
453.60	6352.21
453.78	6513.71
453.97	6354.55
454.15	6562.86
454.34	6392.00
454.52	6649.46
454.70	6532.44
454.89	6787.55
455.07	6621.38
455.26	6616.69
455.44	6684.57
455.62	6621.38
455.81	6850.75
455.99	6874.15
456.17	6778.19
456.36	6747.76
456.54	6787.55
456.73	7035.65
456.91	7129.27
457.09	7115.23
457.28	7080.12
457.46	6801.60
457.64	7185.44
457.83	7192.47
458.01	7124.59
458.19	7131.61
458.38	7070.76
458.56	7267.36
458.74	7297.79
458.93	7260.34
459.11	7248.64
459.29	7133.95
459.48	7222.89
459.66	7269.70
459.84	7375.03
460.03	7627.81
460.21	7449.93
460.39	7349.28
460.57	7283.75
460.76	7473.33
460.94	7503.76
461.12	7470.99
461.31	7536.52
461.49	7545.89
461.67	7447.58
461.85	7686.32
462.04	7463.97
462.22	8170.81
462.40	7765.90
462.59	7833.77
462.77	7679.30
462.95	7971.86
463.13	7660.57
463.32	7634.83
463.50	7770.58
463.68	7868.88
463.86	7894.63
464.05	7871.22
464.23	7829.09
464.41	7976.55
464.59	7595.04
464.78	8018.68
464.96	8086.55
465.14	7981.23
465.32	8166.13
465.50	8147.40
465.69	8325.29
465.87	8264.43
466.05	7999.95
466.23	8140.38
466.41	8114.64
466.60	8400.18
466.78	8056.12
466.96	8329.97
467.14	8259.75
467.32	8308.90
467.51	8358.05
467.69	8262.09
467.87	8360.39
468.05	8383.80
468.23	8360.39
468.41	8257.41
468.60	8496.14
468.78	8458.70
468.96	8528.91
469.14	8538.27
469.32	8554.66
469.50	8451.67
469.69	8779.35
469.87	8938.51
470.05	8762.97
470.23	8858.93
470.41	8915.10
470.59	8795.73
470.77	9095.32
470.95	8791.05
471.14	9102.34
471.32	8882.33
471.50	9083.62
471.68	8964.25
471.86	9055.53
472.04	9109.36
472.22	9357.46
472.40	9095.32
472.58	9130.43
472.77	9312.99
472.95	9437.04
473.13	9593.86
473.31	9291.93
473.49	9423.00
473.67	9404.27
473.85	9582.15
474.03	9727.27
474.21	9839.61
474.39	9923.87
474.57	9806.84
474.75	9961.32
474.93	10059.62
475.12	10052.60
475.30	10003.45
475.48	10345.17
475.66	9961.32
475.84	10141.54
476.02	10200.05
476.20	10204.74
476.38	10450.49
476.56	10630.71
476.74	10628.37
476.92	10438.79
477.10	10356.87
477.28	10733.70
477.46	10600.29
477.64	10832.00
477.82	10766.46
478.00	11300.11
478.18	11152.65
478.36	11183.08
478.54	11370.32
478.72	11536.50
478.90	11548.20
479.08	11573.95
479.26	11634.80
479.44	11840.77
479.62	11719.06
479.80	11995.25
479.98	12004.61
480.16	12255.04
480.34	12287.81
480.52	12248.02
480.70	12376.75
480.88	12191.85
481.06	12510.16
481.24	12273.77
481.41	12538.25
481.59	12688.04
481.77	12952.52
481.95	12849.54
482.13	13046.15
482.31	13121.04
482.49	13671.07
482.67	13268.50
482.85	13488.51
483.03	13467.44
483.21	13509.57
483.39	13757.67
483.57	13844.27
483.74	13951.93
483.92	14167.26
484.10	14003.43
484.28	14265.57
484.46	14417.70
484.64	14574.52
484.82	14581.54
485.00	14745.38
485.18	14944.32
485.35	15421.79
485.53	14993.47
485.71	15126.88
485.89	15618.39
486.07	15248.59
486.25	15447.54
486.43	15793.94
486.61	15845.43
486.78	15749.46
486.96	16058.42
487.14	16332.26
487.32	16088.84
487.50	16269.06
487.68	16306.51
487.85	16755.90
488.03	16578.01
488.21	16638.87
488.39	16744.19
488.57	17064.85
488.75	17301.24
488.92	17446.35
489.10	17406.56
489.28	17607.85
489.46	17635.94
489.64	17399.54
489.81	18195.32
489.99	18111.07
490.17	18326.39
490.35	18560.45
490.53	18778.12
490.70	18881.10
490.88	18562.79
491.06	18764.07
491.24	18906.85
491.41	19042.60
491.59	19286.01
491.77	19417.08
491.95	19396.02
492.13	19587.94
492.30	19817.32
492.48	19686.25
492.66	19702.63
492.84	20121.59
493.01	20283.08
493.19	20116.90
493.37	20294.79
493.54	20311.17
493.72	20706.72
493.90	20439.90
494.08	20786.30
494.25	21018.01
494.43	21034.39
494.61	21198.23
494.79	21689.74
494.96	21275.47
495.14	21582.08
495.32	21741.24
495.49	22015.08
495.67	21928.48
495.85	22181.26
496.02	21994.01
496.20	22396.59
496.38	22293.60
496.55	22576.81
496.73	23002.78
496.91	22434.03
497.09	22672.77
497.26	22672.77
497.44	23105.77
497.62	23314.08
497.79	23328.12
497.97	23580.90
498.14	23608.98
498.32	23826.65
498.50	23828.99
498.67	24346.25
498.85	23852.40
499.03	23969.43
499.20	24072.41
499.38	24219.86
499.56	24376.68
499.73	24540.52
499.91	24692.65
500.08	24907.98
500.26	24634.14
500.44	24926.71
500.61	24786.27
500.79	24706.70
500.97	25036.71
501.14	25191.19
501.32	25179.48
501.49	25429.92
501.67	25577.37
501.84	25832.49
502.02	25458.01
502.20	25596.10
502.37	25495.46
502.55	25500.14
502.72	25727.17
502.90	26162.51
503.07	25862.92
503.25	26150.81
503.43	26368.48
503.60	26450.39
503.78	26506.57
503.95	26455.08
504.13	26675.09
504.30	26632.96
504.48	26815.52
504.65	26939.57
504.83	27077.66
505.01	27070.64
505.18	27267.24
505.36	27742.37
505.53	27405.33
505.71	27243.84
505.88	27681.52
506.06	27112.77
506.23	27466.19
506.41	27850.03
506.58	27632.36
506.76	27948.34
506.93	27936.63
507.11	27934.29
507.28	27999.83
507.46	27826.63
507.63	28100.47
507.81	28503.04
507.98	28655.18
508.16	28922.00
508.33	28606.03
508.50	28411.76
508.68	28957.11
508.85	29008.60
509.03	28701.99
509.20	28989.88
509.38	29308.19
509.55	29556.28
509.73	29291.80
509.90	29385.43
510.08	29596.07
510.25	29773.95
510.42	29591.39
510.60	29776.30
510.77	29926.09
510.95	30382.49
511.12	30033.75
511.30	29951.84
511.47	30333.34
511.64	30029.07
511.82	30738.26
511.99	30684.42
512.17	30391.86
512.34	30314.62
512.51	30827.20
512.69	31012.10
512.86	30871.67
513.04	30955.93
513.21	31026.14
513.38	31133.81
513.56	31147.85
513.73	31063.59
513.90	31063.59
514.08	31234.45
514.25	31721.28
514.43	31384.24
514.60	31541.06
514.77	31742.35
514.95	31529.36
515.12	31725.96
515.29	31622.98
515.47	31985.76
515.64	32175.34
515.81	31887.46
515.99	32273.65
516.16	32655.15
516.33	32400.04
516.51	32418.76
516.68	32271.31
516.85	32463.23
517.03	32610.68
517.20	32694.94
517.37	32811.97
517.54	32800.27
517.72	33249.65
517.89	33141.99
518.06	33085.81
518.24	32954.74
518.41	33139.65
518.58	33151.35
518.75	33205.18
518.93	33448.60
519.10	32889.21
519.27	33326.89
519.45	33441.57
519.62	33809.04
519.79	33972.88
519.96	34099.26
520.14	34103.95
520.31	33851.17
520.48	34026.71
520.65	34015.01
520.83	34651.63
521.00	34607.16
521.17	34464.39
521.34	34574.39
521.52	34511.20
521.69	34534.60
521.86	34618.86
522.03	34787.38
522.20	34813.13
522.38	35248.47
522.55	35351.45
522.72	35318.68
522.89	35098.67
523.07	35583.16
523.24	35393.58
523.41	35632.32
523.58	35480.18
523.75	35421.67
523.92	35218.04
524.10	35688.49
524.27	35744.66
524.44	35971.69
524.61	35812.54
524.78	35707.21
524.96	36362.56
525.13	35704.87
525.30	36474.91
525.47	36175.32
525.64	36465.55
525.81	36423.42
525.98	36231.49
526.16	36584.91
526.33	36465.55
526.50	36769.82
526.67	36458.52
526.84	36591.94
527.01	36753.43
527.18	36652.79
527.36	36751.09
527.53	36638.75
527.70	37074.09
527.87	37385.38
528.04	37317.50
528.21	37399.42
528.38	37144.30
528.55	37542.19
528.72	36996.85
528.89	37425.17
529.07	36973.44
529.24	37340.91
529.41	37352.61
529.58	37771.57
529.75	37507.08
529.92	37869.87
530.09	37710.71
530.26	37729.44
530.43	37247.29
530.60	37371.33
530.77	37673.26
530.94	37979.87
531.11	37750.50
531.28	37928.38
531.46	38127.33
531.63	37921.36
531.80	38337.98
531.97	38366.06
532.14	38171.80
532.31	38258.40
532.48	38787.36
532.65	38918.43
532.82	38408.19
532.99	38532.24
533.16	38726.50
533.33	38995.67
533.50	38724.16
533.67	38663.31
533.84	38778.00
534.01	39203.97
534.18	38717.14
534.35	39082.27
534.52	38806.08
534.69	39538.67
534.86	39452.07
535.03	39178.23
535.20	39569.10
535.37	39433.35
535.54	39746.98
535.71	39524.63
535.88	39606.55
536.05	39721.23
536.22	40102.74
536.38	40144.87
536.55	39824.22
536.72	39728.25
536.89	39260.15
537.06	39901.45
537.23	39990.39
537.40	39545.69
537.57	39636.97
537.74	39882.73
537.91	40563.82
538.08	40184.66
538.25	40048.91
538.42	40156.57
538.59	40711.28
538.75	40287.64
538.92	40554.46
539.09	40779.15
539.26	40308.71
539.43	40233.81
539.60	40610.64
539.77	40367.22
539.94	41148.96
540.11	40542.76
540.28	40605.95
540.44	41027.25
540.61	40643.40
540.78	40718.30
540.95	40788.52
541.12	40882.14
541.29	40713.62
541.46	41249.60
541.62	41446.21
541.79	41230.88
541.96	41083.42
542.13	40882.14
542.30	40919.59
542.47	41361.95
542.63	41588.98
542.80	41432.16
542.97	42305.18
543.14	41832.39
543.31	41708.35
543.48	41961.12
543.64	42265.39
543.81	42199.86
543.98	41563.23
544.15	41926.02
544.32	42417.53
544.48	42588.39
544.65	42141.35
544.82	42497.11
544.99	42330.93
545.16	42080.49
545.32	42241.99
545.49	42841.17
545.66	42490.09
545.83	42007.94
546.00	42909.04
546.16	42983.94
546.33	42501.79
546.50	42366.04
546.67	42632.86
546.83	42300.50
547.00	42632.86
547.17	42359.02
547.34	42698.39
547.50	43040.11
547.67	43208.63
547.84	43063.52
548.00	43421.62
548.17	43447.36
548.34	43180.54
548.51	43379.49
548.67	43180.54
548.84	43648.65
549.01	43749.29
549.18	43454.39
549.34	43739.93
549.51	43463.75
549.68	43407.58
549.84	43351.40
550.01	43887.39
550.18	42775.63
550.34	43550.35
550.51	43395.87
550.68	43295.23
550.84	43234.38
551.01	43723.55
551.18	43976.33
551.34	43959.94
551.51	43470.77
551.68	43868.66
551.84	43721.21
552.01	43782.06
552.18	43889.73
552.34	44046.54
552.51	43775.04
552.68	43847.60
552.84	44165.91
553.01	44299.32
553.18	44112.08
553.34	44236.12
553.51	44315.70
553.67	44418.69
553.84	44505.29
554.01	44629.34
554.17	44236.12
554.34	44809.56
554.51	44437.41
554.67	44851.69
554.84	44498.26
555.00	44505.29
555.17	44472.52
555.33	44842.32
555.50	45006.16
555.67	44528.69
555.83	44729.98
556.00	44926.58
556.16	45333.84
556.33	45160.64
556.50	44980.42
556.66	44856.37
556.83	45104.46
556.99	45333.84
557.16	45291.71
557.32	45097.44
557.49	44917.22
557.65	45013.18
557.82	44917.22
557.98	45127.87
558.15	45177.02
558.32	45432.14
558.48	45202.77
558.65	45022.54
558.81	45338.52
558.98	44959.35
559.14	45354.90
559.31	45048.29
559.47	45172.34
559.64	45488.31
559.80	45507.04
559.97	45483.63
560.13	45165.32
560.30	45343.20
560.46	45755.13
560.63	45937.69
560.79	45830.03
560.96	45759.81
561.12	45968.12
561.29	46127.28
561.45	45811.31
561.61	45659.17
561.78	45806.62
561.94	45605.34
562.11	45717.68
562.27	46213.88
562.44	45755.13
562.60	45909.61
562.77	46337.93
562.93	46127.28
563.10	46038.34
563.26	45895.56
563.42	46227.92
563.59	45755.13
563.75	45918.97
563.92	46101.53
564.08	45708.32
564.24	46520.49
564.41	45858.12
564.57	46155.36
564.74	46394.10
564.90	46326.22
565.07	46300.48
565.23	46129.62
565.39	46361.33
565.56	46230.26
565.72	46019.61
565.88	46174.09
566.05	46272.39
566.21	46373.03
566.38	46167.07
566.54	46555.60
566.70	46103.87
566.87	46520.49
567.03	46169.41
567.19	46461.97
567.36	46588.36
567.52	46052.38
567.68	46487.72
567.85	46447.93
568.01	46972.21
568.17	46253.67
568.34	46803.69
568.50	46590.70
568.66	46059.40
568.83	46787.31
568.99	46581.34
569.15	46562.62
569.32	46555.60
569.48	46724.11
569.64	46799.01
569.81	46780.29
569.97	46745.18
570.13	46653.90
570.30	46258.35
570.46	46398.78
570.62	46820.08
570.78	46707.73
570.95	46220.90
571.11	46752.20
571.27	46878.59
571.43	46546.23
571.60	47133.71
571.76	46843.48
571.92	46632.83
572.09	46534.53
572.25	46728.80
572.41	46263.03
572.57	47075.19
572.74	47409.89
572.90	46934.76
573.06	46981.57
573.22	47344.36
573.38	46845.82
573.55	46667.94
573.71	47327.97
573.87	47061.15
574.03	47166.48
574.20	47370.10
574.36	47122.01
574.52	47033.07
574.68	46794.33
574.84	47302.23
575.01	47599.47
575.17	47091.58
575.33	46894.97
575.49	47100.94
575.65	47091.58
575.82	47449.68
575.98	47000.30
576.14	47391.17
576.30	47119.66
576.46	47262.44
576.62	47086.90
576.79	47524.58
576.95	46639.86
577.11	47117.32
577.27	46967.53
577.43	47201.58
577.59	47164.14
577.75	47105.62
577.92	46883.27
578.08	47210.95
578.24	47014.34
578.40	47201.58
578.56	47253.08
578.72	47227.33
578.88	47157.11
579.04	47222.65
579.21	46827.10
579.37	46995.62
579.53	47269.46
579.69	47138.39
579.85	46639.86
580.01	47040.09
580.17	46988.60
580.33	47473.09
580.49	47320.95
580.65	47386.49
580.82	47222.65
580.98	46997.96
581.14	46983.91
581.30	47086.90
581.46	47466.06
581.62	47147.75
581.78	46927.74
581.94	47325.63
582.10	47215.63
582.26	47421.59
582.42	47021.36
582.58	47192.22
582.74	47250.74
582.90	47632.24
583.06	47599.47
583.22	47253.08
583.38	47445.00
583.54	47360.74
583.70	47246.05
583.86	47555.00
584.02	46892.63
584.18	47716.50
584.34	47746.93
584.50	47381.80
584.66	47847.57
584.82	47510.53
584.98	47608.84
585.14	47711.82
585.30	47072.85
585.46	46969.87
585.62	47683.73
585.78	47192.22
585.94	47304.57
586.10	47409.89
586.26	47208.61
586.42	47445.00
586.58	47620.54
586.74	47503.51
586.90	47000.30
587.06	47470.75
587.22	47547.98
587.38	47531.60
587.54	47861.61
587.70	47915.45
587.86	47920.13
588.02	47503.51
588.18	47332.65
588.34	47327.97
588.49	47688.42
588.65	47484.79
588.81	47739.91
588.97	47908.43
589.13	47573.73
589.29	47433.30
589.45	47669.69
589.61	47955.24
589.77	47468.40
589.93	47555.00
590.08	47957.58
590.24	47957.58
590.40	48287.59
590.56	47985.66
590.72	48175.25
590.88	47772.67
591.04	47983.32
591.20	48011.41
591.35	48069.92
591.51	48725.27
591.67	47995.03
591.83	48233.76
591.99	47992.68
592.15	47997.37
592.31	47826.51
592.46	48301.64
592.62	48072.26
592.78	48119.07
592.94	48318.02
593.10	47973.96
593.26	48362.49
593.41	48123.75
593.57	48069.92
593.73	48128.44
593.89	48355.47
594.05	48362.49
594.20	48266.53
594.36	48374.19
594.52	48322.70
594.68	48154.18
594.84	47913.11
594.99	47973.96
595.15	47824.17
595.31	48053.54
595.47	47978.64
595.62	48327.38
595.78	48219.72
595.94	48165.88
596.10	48208.01
596.25	47941.19
596.41	48406.96
596.57	48130.78
596.73	48617.61
596.88	48224.40
597.04	48144.82
597.20	48306.32
597.36	48259.51
597.51	48446.75
597.67	47849.91
597.83	48025.45
597.99	48289.93
598.14	48655.06
598.30	48280.57
598.46	48273.55
598.61	48570.80
598.77	48463.13
598.93	48240.78
599.09	47852.25
599.24	48465.47
599.40	48538.03
599.56	48481.86
599.71	48736.98
599.87	48732.29
600.03	48816.55
600.18	48666.76
600.34	48451.43
600.50	48289.93
600.65	48257.17
600.81	48772.08
600.97	48388.24
601.12	48357.81
601.28	48425.68
601.44	48266.53
601.59	48261.85
601.75	48605.91
601.91	48839.96
602.06	48296.95
602.22	48516.96
602.37	48311.00
602.53	48238.44
602.69	48470.15
602.84	48123.75
603.00	48327.38
603.16	48179.93
603.31	48278.23
603.47	48610.59
603.62	48498.24
603.78	48783.79
603.94	48383.55
604.09	48357.81
604.25	48320.36
604.40	48306.32
604.56	48678.46
604.71	48610.59
604.87	48554.41
605.03	47906.08
605.18	48690.16
605.34	48470.15
605.49	48161.20
605.65	48460.79
605.80	48353.13
605.96	48259.51
606.12	47973.96
606.27	48210.35
606.43	47962.26
606.58	48858.68
606.74	48458.45
606.89	48336.74
607.05	48519.31
607.20	48678.46
607.36	48231.42
607.51	48051.20
607.67	48090.99
607.82	48390.58
607.98	48282.91
608.13	48009.07
608.29	48311.00
608.44	48060.56
608.60	48186.95
608.75	48165.88
608.91	48303.98
609.06	48034.81
609.22	48388.24
609.37	48018.43
609.53	48369.51
609.68	48037.16
609.84	48163.54
609.99	48245.46
610.15	47948.21
610.30	48011.41
610.46	48039.50
610.61	47873.32
610.76	47999.71
610.92	47646.29
611.07	47950.56
611.23	48098.01
611.38	48011.41
611.54	47838.21
611.69	48236.10
611.84	48065.24
612.00	47760.97
612.15	47407.55
612.31	47667.35
612.46	47695.44
612.62	47988.00
612.77	47770.33
612.92	48231.42
613.08	47538.62
613.23	47859.27
613.39	47409.89
613.54	47657.99
613.69	47924.81
613.85	47938.85
614.00	47952.90
614.15	48058.22
614.31	47306.91
614.46	47601.82
614.62	47590.11
614.77	47721.18
614.92	47845.23
615.08	47627.56
615.23	47437.98
615.38	47999.71
615.54	47714.16
615.69	47796.08
615.84	47255.42
616.00	47927.15
616.15	47945.87
616.30	47627.56
616.46	47489.47
616.61	47545.64
616.76	47643.94
616.92	47461.38
617.07	47166.48
617.22	47452.02
617.37	46972.21
617.53	47648.63
617.68	47679.05
617.83	47360.74
617.99	47550.32
618.14	47199.24
618.29	47217.97
618.45	46602.41
618.60	47028.38
618.75	47334.99
618.90	47257.76
619.06	47288.18
619.21	47332.65
619.36	48039.50
619.51	46902.00
619.67	47082.22
619.82	46925.40
619.97	47313.93
620.12	46665.60
620.28	46976.89
620.43	47367.76
620.58	47377.12
620.73	47168.82
620.89	47145.41
621.04	47360.74
621.19	47220.31
621.34	47105.62
621.49	47089.24
621.65	47042.43
621.80	47295.21
621.95	46754.54
622.10	47093.92
622.25	46550.91
622.41	46897.31
622.56	46681.98
622.71	47285.84
622.86	47234.35
623.01	46967.53
623.16	46513.47
623.32	46787.31
623.47	46644.54
623.62	46721.77
623.77	46827.10
623.92	46256.01
624.07	46543.89
624.23	46679.64
624.38	46609.43
624.53	46796.67
624.68	46707.73
624.83	46621.13
624.98	46286.43
625.13	46258.35
625.29	46342.61
625.44	46684.33
625.59	46052.38
625.74	46071.10
625.89	46270.05
626.04	46429.21
626.19	46220.90
626.34	46192.81
626.49	45837.05
626.65	46064.08
626.80	46358.99
626.95	46028.98
627.10	45485.97
627.25	46160.05
627.40	46206.86
627.55	45991.53
627.70	46054.72
627.85	46382.40
628.00	46071.10
628.15	46183.45
628.30	45916.63
628.45	45502.35
628.60	45624.06
628.76	45839.39
628.91	46230.26
629.06	45418.10
629.21	45544.48
629.36	45628.74
629.51	45698.96
629.66	45830.03
629.81	45537.46
629.96	45144.25
630.11	46087.49
630.26	45485.97
630.41	44968.71
630.56	45605.34
630.71	45888.54
630.86	45675.55
631.01	45130.21
631.16	45436.82
631.31	45584.27
631.46	45336.18
631.61	45457.88
631.76	45546.82
631.91	45382.99
632.06	45558.53
632.21	45558.53
632.36	45687.26
632.51	44985.10
632.66	45666.19
632.81	45020.20
632.96	45570.23
633.10	45390.01
633.25	45123.19
633.40	45371.28
633.55	45642.79
633.70	45111.49
633.85	44655.08
634.00	44961.69
634.15	45076.38
634.30	44935.95
634.45	45052.97
634.60	44793.17
634.75	45134.89
634.90	45146.59
635.05	45441.50
635.19	44800.19
635.34	45006.16
635.49	44966.37
635.64	44985.10
635.79	45022.54
635.94	45069.36
636.09	45151.27
636.24	44800.19
636.39	44926.58
636.53	44842.32
636.68	44273.57
636.83	44030.16
636.98	44453.79
637.13	44041.86
637.28	44692.53
637.43	44304.00
637.57	44332.09
637.72	44369.54
637.87	44229.10
638.02	44594.23
638.17	44268.89
638.32	44414.01
638.46	44020.80
638.61	44247.83
638.76	44128.46
638.91	44081.65
639.06	43903.77
639.20	43737.59
639.35	43800.79
639.50	43798.44
639.65	44135.48
639.80	44243.15
639.94	44126.12
640.09	44332.09
640.24	44076.97
640.39	43866.32
640.54	43803.13
640.68	44161.23
640.83	44147.18
640.98	43723.55
641.13	43742.27
641.27	44034.84
641.42	43601.84
641.57	43873.34
641.72	44282.94
641.86	43992.71
642.01	43405.23
642.16	43604.18
642.31	42939.47
642.45	43372.47
642.60	43885.04
642.75	43807.81
642.90	43526.94
643.04	43653.33
643.19	43360.76
643.34	42707.76
643.48	43119.69
643.63	43150.12
643.78	43250.76
643.93	43501.20
644.07	43234.38
644.22	43276.51
644.37	43346.72
644.51	43201.61
644.66	43634.61
644.81	43234.38
644.95	43826.53
645.10	43225.01
645.25	42878.61
645.39	42815.42
645.54	42752.23
645.69	42501.79
645.83	42721.80
645.98	42911.38
646.13	42644.56
646.27	42801.38
646.42	42850.53
646.57	43241.40
646.71	43136.07
646.86	43014.37
647.00	43051.81
647.15	43220.33
647.30	42780.31
647.44	43086.92
647.59	42600.09
647.74	42869.25
647.88	43182.88
648.03	42979.26
648.17	43220.33
648.32	42906.70
648.47	42607.11
648.61	42291.14
648.76	42792.01
648.90	42553.28
649.05	42134.32
649.20	42923.08
649.34	42351.99
649.49	42782.65
649.63	42440.93
649.78	42962.87
649.92	42667.97
650.07	42838.83
650.21	42588.39
650.36	42511.15
650.51	42567.32
650.65	43098.62
650.80	42560.30
650.94	42204.54
651.09	41874.52
651.23	41535.15
651.38	42078.15
651.52	41663.88
651.67	42047.72
651.81	42401.14
651.96	41996.23
652.10	41907.29
652.25	41970.49
652.39	41930.70
652.54	42096.88
652.68	42106.24
652.83	41783.24
652.97	42220.92
653.12	42073.47
653.26	41771.54
653.41	41642.81
653.55	41797.29
653.70	41975.17
653.84	41745.80
653.99	42150.71
654.13	42038.36
654.27	41673.24
654.42	41270.67
654.56	42010.28
654.71	41677.92
654.85	41876.86
655.00	41888.57
655.14	41848.78
655.29	41851.12
655.43	41668.56
655.57	41799.63
655.72	41174.70
655.86	41500.04
656.01	41045.97
656.15	40837.67
656.30	41427.48
656.44	42033.68
656.58	41497.70
656.73	41298.75
656.87	40781.49
657.01	40947.67
657.16	41486.00
657.30	41170.02
657.45	41024.91
657.59	40985.12
657.73	41071.72
657.88	41015.55
658.02	41900.27
658.16	41345.56
658.31	40692.55
658.45	40985.12
658.60	40491.27
658.74	41155.98
658.88	40725.32
659.03	40823.62
659.17	40498.29
659.31	40423.39
659.46	40013.80
659.60	40734.68
659.74	40666.81
659.89	40023.16
660.03	39667.40
660.17	40409.35
660.32	40058.27
660.46	40219.77
660.60	39840.60
660.74	39997.41
660.89	40594.25
661.03	39655.70
661.17	39620.59
661.32	39945.92
661.46	39672.08
661.60	39672.08
661.74	40194.02
661.89	40142.53
662.03	39641.65
662.17	39548.03
662.31	39531.65
662.46	39725.91
662.60	39693.15
662.74	39629.95
662.88	39096.31
663.03	39395.90
663.17	39000.35
663.31	39016.73
663.45	38848.21
663.60	39433.35
663.74	39086.95
663.88	38930.13
664.02	38621.18
664.17	39239.08
664.31	38602.46
664.45	38909.07
664.59	38934.81
664.73	38139.03
664.88	38728.84
665.02	38541.60
665.16	38190.52
665.30	38403.51
665.44	38286.48
665.59	38249.03
665.73	38642.24
665.87	37984.55
666.01	38014.98
666.15	38099.24
666.29	38190.52
666.44	38192.86
666.58	38345.00
666.72	37813.70
666.86	37696.67
667.00	37811.35
667.14	38022.00
667.28	37518.79
667.43	37570.28
667.57	37830.08
667.71	37886.25
667.85	38141.37
667.99	37441.55
668.13	37282.39
668.27	37060.04
668.41	37326.86
668.56	36828.33
668.70	37081.11
668.84	36549.81
668.98	36795.56
669.12	37010.89
669.26	36683.22
669.40	37008.55
669.54	37144.30
669.68	36985.15
669.82	36364.90
669.96	36568.53
670.10	36140.21
670.25	36367.24
670.39	36432.78
670.53	36570.87
670.67	36495.97
670.81	36994.51
670.95	36259.58
671.09	36472.57
671.23	36009.14
671.37	36107.44
671.51	35849.99
671.65	35826.58
671.79	36187.02
671.93	35969.35
672.07	35697.85
672.21	35887.43
672.35	35335.07
672.49	35372.52
672.63	35452.09
672.77	35297.62
672.91	35395.92
673.05	35084.63
673.19	34778.02
673.33	34918.45
673.47	34918.45
673.61	34888.03
673.75	34703.12
673.89	34646.95
674.03	34459.71
674.17	34185.86
674.31	34036.07
674.45	34146.08
674.59	34015.01
674.73	34047.77
674.87	33619.46
675.01	33743.50
675.15	33825.42
675.29	33921.38
675.43	33834.78
675.56	33830.10
675.70	33696.69
675.84	33378.38
675.98	32458.55
676.12	33221.56
676.26	33839.47
676.40	33001.55
676.54	32821.33
676.68	33202.84
676.82	32437.48
676.96	32966.45
677.10	32790.91
677.23	32645.79
677.37	33013.26
677.51	32620.05
677.65	32327.48
677.79	32217.47
677.93	32238.54
678.07	31789.16
678.21	31615.96
678.34	31679.15
678.48	31716.60
678.62	31569.15
678.76	31407.65
678.90	31178.28
679.04	31304.67
679.18	31639.36
679.31	31255.51
679.45	30824.86
679.59	30749.96
679.73	30841.24
679.87	30546.33
680.00	31103.38
680.14	30588.46
680.28	30623.57
680.42	30478.46
680.56	30188.23
680.70	30045.46
680.83	30029.07
680.97	30204.61
681.11	30211.64
681.25	29448.62
681.39	29694.38
681.52	29624.16
681.66	29338.62
681.80	29345.64
681.94	28613.05
682.07	28610.71
682.21	28769.86
682.35	29039.03
682.49	28528.79
682.62	28730.08
682.76	28636.45
682.90	28905.62
683.04	28444.53
683.17	28765.18
683.31	28236.22
683.45	28100.47
683.59	28116.86
683.72	27995.15
683.86	27943.66
684.00	27859.40
684.13	27704.92
684.27	27538.74
684.41	27592.58
684.55	27344.48
684.68	27330.44
684.82	26778.07
684.96	27096.38
685.09	27103.40
685.23	27182.98
685.37	27573.85
685.50	27363.20
685.64	27030.85
685.78	26597.85
685.91	26902.12
686.05	26237.41
686.19	25776.32
686.32	26291.24
686.46	25708.44
686.60	25593.76
686.73	25790.36
686.87	25631.21
687.01	26019.74
687.14	25659.29
687.28	25685.04
687.42	25340.98
687.55	25252.04
687.69	25458.01
687.82	24533.50
687.96	25139.69
688.10	24999.26
688.23	24945.43
688.37	25348.00
688.50	25027.35
688.64	24606.05
688.78	24723.08
688.91	24526.47
689.05	24713.72
689.18	24166.03
689.32	24009.22
689.46	23676.86
689.59	23751.76
689.73	24004.53
689.86	23845.38
690.00	23515.36
690.13	23714.31
690.27	23447.49
690.41	23716.65
690.54	23026.19
690.68	23246.20
690.81	22925.55
690.95	23023.85
691.08	22860.01
691.22	22689.15
691.35	23012.15
691.49	22946.61
691.62	22785.12
691.76	22635.32
691.89	22115.72
692.03	21804.43
692.16	22054.87
692.30	21986.99
692.43	22087.64
692.57	21755.28
692.70	21724.85
692.84	21577.40
692.97	21738.90
693.11	21598.46
693.24	21282.49
693.38	21376.11
693.51	21102.27
693.65	21078.86
693.78	21118.65
693.92	20968.86
694.05	20453.94
694.19	20802.68
694.32	20889.28
694.45	20563.95
694.59	20695.02
694.72	20563.95
694.86	20222.23
694.99	20219.89
695.13	20198.82
695.26	19564.54
695.39	19917.96
695.53	19824.34
695.66	20238.61
695.80	19449.85
695.93	19676.88
696.07	19520.07
696.20	19293.04
696.33	18885.78
696.47	18888.12
696.60	19117.50
696.73	19295.38
696.87	19281.33
697.00	18623.64
697.14	18895.14
697.27	18441.08
697.40	18583.85
697.54	18614.28
697.67	18541.72
697.80	18499.59
697.94	18251.50
698.07	18251.50
698.21	17881.69
698.34	18192.98
698.47	17816.16
698.61	17465.08
698.74	17614.87
698.87	17727.22
699.01	17577.42
699.14	17338.69
699.27	17612.53
699.40	17757.64
699.54	17305.92
699.67	17310.60
699.80	17184.21
699.94	17064.85
700.07	17060.16
700.20	17029.74
700.34	16744.19
700.47	16734.83
700.60	17099.95
700.73	16554.61
700.87	16655.25
701.00	16327.58
701.13	16126.29
701.26	16226.93
701.40	16142.67
701.53	15946.07
701.66	15932.03
701.79	16140.33
701.93	15934.37
702.06	15482.64
702.19	15587.97
702.32	15707.34
702.46	15845.43
702.59	15892.24
702.72	15492.01
702.85	15435.83
702.99	15445.20
703.12	15096.46
703.25	15234.55
703.38	15157.31
703.51	15019.22
703.65	15274.34
703.78	14806.23
703.91	14523.02
704.04	14473.87
704.17	14438.76
704.31	14579.20
704.44	14473.87
704.57	14420.04
704.70	14054.92
704.83	14178.97
704.96	14143.86
705.10	14218.75
705.23	14057.26
>>>>>End Processed Spectral Data<<<<<
