SpectraSuite Data File
++++++++++++++++++++++++++++++++++++
Date: Fri Oct 25 11:34:40 EDT 2013
User: price-jones
Dark Spectrum Present: No
Reference Spectrum Present: No
Number of Sampled Component Spectra: 1
Spectrometers: USB2+H05261
Integration Time (usec): 100000 (USB2+H05261)
Spectra Averaged: 1 (USB2+H05261)
Boxcar Smoothing: 0 (USB2+H05261)
Correct for Electrical Dark: No (USB2+H05261)
Strobe/Lamp Enabled: No (USB2+H05261)
Correct for Detector Non-linearity: No (USB2+H05261)
Correct for Stray Light: No (USB2+H05261)
Number of Pixels in Processed Spectrum: 2048
>>>>>Begin Processed Spectral Data<<<<<
365.73	318.31
365.92	318.31
366.12	318.31
366.32	156.82
366.52	149.79
366.72	175.54
366.91	154.48
367.11	145.11
367.31	201.29
367.51	168.52
367.70	180.22
367.90	229.37
368.10	119.37
368.30	147.45
368.49	126.39
368.69	173.20
368.89	234.05
369.09	224.69
369.28	170.86
369.48	224.69
369.68	208.31
369.87	194.26
370.07	194.26
370.27	271.50
370.47	262.14
370.66	430.66
370.86	484.49
371.06	533.64
371.25	571.09
371.45	463.43
371.65	559.39
371.84	547.69
372.04	582.79
372.24	571.09
372.44	535.98
372.63	711.52
372.83	641.31
373.03	650.67
373.22	610.88
373.42	589.82
373.62	601.52
373.81	648.33
374.01	578.11
374.21	627.26
374.40	601.52
374.60	615.56
374.79	631.94
374.99	617.90
375.19	676.41
375.38	629.60
375.58	676.41
375.78	674.07
375.97	592.16
376.17	748.97
376.37	751.31
376.56	741.95
376.76	585.13
376.95	688.12
377.15	711.52
377.35	751.31
377.54	692.80
377.74	690.46
377.93	601.52
378.13	758.33
378.33	697.48
378.52	631.94
378.72	711.52
378.91	723.23
379.11	702.16
379.31	683.44
379.50	688.12
379.70	692.80
379.89	702.16
380.09	695.14
380.28	716.20
380.48	709.18
380.68	763.01
380.87	713.86
381.07	685.78
381.26	720.88
381.46	807.48
381.65	812.17
381.85	744.29
382.04	777.06
382.24	716.20
382.43	753.65
382.63	662.37
382.83	784.08
383.02	772.38
383.22	779.40
383.41	758.33
383.61	772.38
383.80	805.14
384.00	835.57
384.19	763.01
384.39	798.12
384.58	835.57
384.78	812.17
384.97	861.32
385.17	755.99
385.36	760.67
385.56	788.76
385.75	781.74
385.95	819.19
386.14	812.17
386.34	763.01
386.53	830.89
386.72	858.98
386.92	870.68
387.11	929.19
387.31	816.85
387.50	777.06
387.70	755.99
387.89	908.13
388.09	894.08
388.28	830.89
388.48	833.23
388.67	884.72
388.86	870.68
389.06	964.30
389.25	936.21
389.45	868.34
389.64	957.28
389.84	999.41
390.03	903.45
390.22	954.94
390.42	961.96
390.61	915.15
390.81	880.04
391.00	924.51
391.19	1043.88
391.39	1043.88
391.58	968.98
391.78	959.62
391.97	961.96
392.16	1041.54
392.36	1018.13
392.55	1041.54
392.75	1006.43
392.94	1043.88
393.13	1032.18
393.33	1011.11
393.52	1123.46
393.71	1121.12
393.91	1121.12
394.10	992.39
394.29	1034.52
394.49	992.39
394.68	1029.84
394.88	1111.75
395.07	1062.60
395.26	1144.52
395.46	1095.37
395.65	1158.57
395.84	1203.04
396.04	1170.27
396.23	1214.74
396.42	1076.65
396.62	1137.50
396.81	1177.29
397.00	1177.29
397.19	1214.74
397.39	1123.46
397.58	1196.01
397.77	1242.82
397.97	1233.46
398.16	1167.93
398.35	1212.40
398.55	1224.10
398.74	1233.46
398.93	1226.44
399.12	1247.51
399.32	1233.46
399.51	1179.63
399.70	1235.80
399.90	1287.29
400.09	1350.49
400.28	1362.19
400.47	1313.04
400.67	1315.38
400.86	1423.05
401.05	1357.51
401.24	1310.70
401.44	1357.51
401.63	1380.92
401.82	1324.74
402.01	1397.30
402.21	1411.34
402.40	1406.66
402.59	1355.17
402.78	1423.05
402.97	1434.75
403.17	1392.62
403.36	1481.56
403.55	1427.73
403.74	1462.83
403.93	1448.79
404.13	1619.65
404.32	1486.24
404.51	1577.52
404.70	1626.67
404.89	1528.37
405.09	1624.33
405.28	1666.46
405.47	1537.73
405.66	1654.76
405.85	1586.88
406.05	1671.14
406.24	1650.08
406.43	1629.01
406.62	1673.48
406.81	1696.89
407.00	1647.74
407.20	1654.76
407.39	1633.69
407.58	1816.26
407.77	1755.40
407.96	1746.04
408.15	1823.28
408.34	1755.40
408.54	1830.30
408.73	1804.55
408.92	1872.43
409.11	1996.48
409.30	1956.69
409.49	1888.81
409.68	1846.68
409.87	1928.60
410.07	1942.64
410.26	1998.82
410.45	1900.52
410.64	2001.16
410.83	1926.26
411.02	1902.86
411.21	2167.34
411.40	2022.22
411.59	1996.48
411.78	2160.31
411.98	2090.10
412.17	2059.67
412.36	2136.91
412.55	2270.32
412.74	2291.38
412.93	2183.72
413.12	2157.97
413.31	2342.88
413.50	2256.28
413.69	2328.83
413.88	2305.43
414.07	2394.37
414.26	2427.14
414.45	2387.35
414.64	2434.16
414.83	2455.22
415.02	2436.50
415.22	2476.29
415.41	2485.65
415.60	2574.59
415.79	2644.81
415.98	2647.15
416.17	2593.31
416.36	2600.34
416.55	2665.87
416.74	2729.06
416.93	2682.25
417.12	2665.87
417.31	2731.41
417.50	2715.02
417.69	2782.90
417.88	2874.18
418.07	2813.32
418.26	2818.00
418.45	2874.18
418.64	2930.35
418.83	2843.75
419.02	2963.12
419.21	2970.14
419.39	2937.37
419.58	2904.60
419.77	2909.29
419.96	2923.33
420.15	3129.30
420.34	3059.08
420.53	2939.71
420.72	3063.76
420.91	3089.51
421.10	3236.96
421.29	3159.72
421.48	2988.86
421.67	3157.38
421.86	3105.89
422.05	3042.70
422.24	3166.74
422.43	3260.37
422.61	3150.36
422.80	3194.83
422.99	3197.17
423.18	3187.81
423.37	3295.47
423.56	3169.09
423.75	3234.62
423.94	3159.72
424.13	2981.84
424.32	3183.13
424.50	3311.86
424.69	3311.86
424.88	3377.39
425.07	3208.87
425.26	3183.13
425.45	3279.09
425.64	3272.07
425.83	3253.34
426.01	3234.62
426.20	3337.60
426.39	3335.26
426.58	3251.00
426.77	3290.79
426.96	3485.06
427.15	3332.92
427.33	3461.65
427.52	3459.31
427.71	3552.93
427.90	3529.53
428.09	3442.93
428.28	3478.04
428.46	3548.25
428.65	3541.23
428.84	3611.45
429.03	3700.39
429.22	3515.48
429.40	3581.02
429.59	3564.64
429.78	3543.57
429.97	3487.40
430.16	3508.46
430.34	3737.84
430.53	3599.74
430.72	3669.96
430.91	3545.91
431.10	3646.55
431.28	3803.37
431.47	3758.90
431.66	3866.56
431.85	3789.33
432.03	3815.07
432.22	3918.06
432.41	3775.28
432.60	3801.03
432.79	3941.46
432.97	3927.42
433.16	3770.60
433.35	3922.74
433.54	3918.06
433.72	3913.38
433.91	3962.53
434.10	4018.70
434.28	3992.95
434.47	3978.91
434.66	4128.70
434.85	4042.11
435.03	4203.60
435.22	4189.56
435.41	4269.14
435.59	4065.51
435.78	4236.37
435.97	4219.99
436.16	4257.43
436.34	4236.37
436.53	4245.73
436.72	4313.61
436.90	4177.86
437.09	4285.52
437.28	4266.80
437.46	4283.18
437.65	4297.22
437.84	4430.63
438.02	4411.91
438.21	4444.68
438.40	4475.10
438.58	4390.84
438.77	4519.57
438.96	4468.08
439.14	4727.88
439.33	4568.73
439.52	4510.21
439.70	4669.37
439.89	4849.59
440.08	4833.21
440.26	4669.37
440.45	4753.63
440.63	4926.83
440.82	4889.38
441.01	4894.06
441.19	4821.50
441.38	5071.94
441.57	4922.15
441.75	5111.73
441.94	5165.56
442.12	5116.41
442.31	5305.99
442.50	5043.85
442.68	5170.24
442.87	5125.77
443.05	5219.39
443.24	5331.74
443.43	5221.74
443.61	5219.39
443.80	5404.30
443.98	5018.11
444.17	4973.64
444.35	5224.08
444.54	5416.00
444.73	5287.27
444.91	5434.72
445.10	5448.77
445.28	5507.28
445.47	5327.06
445.65	5338.76
445.84	5614.95
446.02	5441.75
446.21	5476.85
446.39	5404.30
446.58	5341.10
446.77	5645.37
446.95	5378.55
447.14	5448.77
447.32	5493.24
447.51	5460.47
447.69	5430.04
447.88	5533.03
448.06	5420.68
448.25	5401.96
448.43	5600.90
448.62	5591.54
448.80	5558.77
448.99	5593.88
449.17	5462.81
449.36	5577.50
449.54	5570.48
449.73	5741.33
449.91	5846.66
450.10	5778.78
450.28	5633.67
450.46	5832.62
450.65	5631.33
450.83	5858.36
451.02	5802.19
451.20	6017.52
451.39	5802.19
451.57	5877.09
451.76	5715.59
451.94	6019.86
452.13	6017.52
452.31	5813.89
452.49	5888.79
452.68	5930.92
452.86	5900.49
453.05	5973.05
453.23	5914.53
453.42	6040.92
453.60	5961.34
453.78	6080.71
453.97	6031.56
454.15	6104.12
454.34	6033.90
454.52	6148.59
454.70	6171.99
454.89	6193.06
455.07	6258.59
455.26	6389.66
455.44	6480.94
455.62	6232.85
455.81	6181.35
455.99	6317.11
456.17	6289.02
456.36	6263.27
456.54	6462.22
456.73	6586.27
456.91	6602.65
457.09	6569.88
457.28	6752.45
457.46	6530.09
457.64	6616.69
457.83	6593.29
458.01	6693.93
458.19	6808.62
458.38	6715.00
458.56	6789.89
458.74	6764.15
458.93	6682.23
459.11	6773.51
459.29	7061.40
459.48	6892.88
459.66	6913.94
459.84	6979.48
460.03	7131.61
460.21	6974.80
460.39	7028.63
460.57	6916.28
460.76	7159.70
460.94	7272.04
461.12	7124.59
461.31	7049.69
461.49	7176.08
461.67	7143.32
461.85	7155.02
462.04	7080.12
462.22	7623.12
462.40	7407.80
462.59	7103.53
462.77	7269.70
462.95	7485.03
463.13	7234.60
463.32	7499.08
463.50	7515.46
463.68	7466.31
463.86	7452.27
464.05	7302.47
464.23	7304.81
464.41	7616.10
464.59	7424.18
464.78	7749.51
464.96	7438.22
465.14	7447.58
465.32	7555.25
465.50	7728.45
465.69	7943.78
465.87	7679.30
466.05	7700.36
466.23	7754.19
466.41	7880.58
466.60	7857.18
466.78	7599.72
466.96	7782.28
467.14	7815.05
467.32	7932.08
467.51	7960.16
467.69	7728.45
467.87	7936.76
468.05	7901.65
468.23	7866.54
468.41	7908.67
468.60	7873.56
468.78	8177.83
468.96	7903.99
469.14	8135.70
469.32	8271.45
469.50	7969.52
469.69	8421.25
469.87	8262.09
470.05	8184.85
470.23	8297.20
470.41	8351.03
470.59	8301.88
470.77	8336.99
470.95	8393.16
471.14	8512.53
471.32	8212.94
471.50	8641.26
471.68	8671.68
471.86	8678.71
472.04	8594.45
472.22	8856.59
472.40	8599.13
472.58	8741.90
472.77	8905.74
472.95	8903.40
473.13	9303.63
473.31	8896.38
473.49	8912.76
473.67	8971.27
473.85	8943.19
474.03	9338.74
474.21	9217.03
474.39	9350.44
474.57	9387.89
474.75	9214.69
474.93	9341.08
475.12	9324.69
475.30	9502.58
475.48	9298.95
475.66	9460.45
475.84	9570.45
476.02	9799.82
476.20	9696.84
476.38	9755.35
476.56	9860.68
476.74	9977.70
476.92	10015.15
477.10	9898.13
477.28	10129.84
477.46	10260.91
477.64	10054.94
477.82	10160.27
478.00	10640.08
478.18	10520.71
478.36	10452.83
478.54	10677.52
478.72	10548.79
478.90	10843.70
479.08	10890.51
479.26	10843.70
479.44	10918.60
479.62	11124.57
479.80	11087.12
479.98	11669.91
480.16	11566.93
480.34	11426.50
480.52	11557.57
480.70	11452.24
480.88	11421.81
481.06	11534.16
481.24	11623.10
481.41	12175.47
481.59	11953.12
481.77	12109.93
481.95	12287.81
482.13	12369.73
482.31	12334.62
482.49	12718.47
482.67	12453.99
482.85	12865.92
483.03	12791.03
483.21	12744.22
483.39	12922.10
483.57	12950.18
483.74	13331.69
483.92	13111.68
484.10	13291.90
484.28	13441.70
484.46	13717.88
484.64	14101.73
484.82	13804.48
485.00	13715.54
485.18	14363.87
485.35	14314.72
485.53	14127.47
485.71	14200.03
485.89	14546.43
486.07	14501.96
486.25	14607.28
486.43	14590.90
486.61	14864.74
486.78	14946.66
486.96	14878.79
487.14	15267.31
487.32	15281.36
487.50	15424.13
487.68	15494.35
487.85	15470.94
488.03	15716.70
488.21	16086.50
488.39	16067.78
488.57	16166.08
488.75	16290.13
488.92	16533.54
489.10	16510.14
489.28	16570.99
489.46	16713.77
489.64	16725.47
489.81	17198.26
489.99	16793.34
490.17	17193.58
490.35	17958.93
490.53	17495.50
490.70	17397.20
490.88	17331.67
491.06	17816.16
491.24	17816.16
491.41	17916.80
491.59	18115.75
491.77	18160.22
491.95	18256.18
492.13	18286.61
492.30	18661.09
492.48	18499.59
492.66	18944.30
492.84	18527.68
493.01	18988.77
493.19	18780.46
493.37	18974.72
493.54	19239.20
493.72	19597.31
493.90	19466.24
494.08	19367.93
494.25	19927.32
494.43	19939.02
494.61	20011.58
494.79	20006.90
494.96	20013.92
495.14	20280.74
495.32	20688.00
495.49	20432.88
495.67	20704.38
495.85	20947.79
496.02	21151.42
496.20	21006.31
496.38	20779.28
496.55	21228.66
496.73	21539.95
496.91	21010.99
497.09	21549.31
497.26	21329.30
497.44	21720.17
497.62	21757.62
497.79	22155.51
497.97	21886.35
498.14	21898.05
498.32	22396.59
498.50	22209.34
498.67	22483.19
498.85	22705.54
499.03	22469.14
499.20	22794.48
499.38	22742.99
499.56	22794.48
499.73	23101.09
499.91	22857.67
500.08	23311.74
500.26	23208.75
500.44	23477.91
500.61	23372.59
500.79	23358.55
500.97	23779.84
501.14	24009.22
501.32	23953.04
501.49	23655.79
501.67	23819.63
501.84	24498.39
502.02	24341.57
502.20	23838.36
502.37	24046.66
502.55	23974.11
502.72	24381.36
502.90	24514.77
503.07	24753.51
503.25	24807.34
503.43	24175.39
503.60	24655.20
503.78	24971.18
503.95	24952.45
504.13	25158.42
504.30	25027.35
504.48	25406.52
504.65	25165.44
504.83	25551.63
505.01	25504.82
505.18	25439.28
505.36	25748.23
505.53	25282.47
505.71	25881.64
505.88	25968.24
506.06	26073.57
506.23	26148.46
506.41	25832.49
506.58	25886.32
506.76	26363.79
506.93	26658.70
507.11	26614.23
507.28	26597.85
507.46	26438.69
507.63	26293.58
507.81	26946.59
507.98	26333.37
508.16	27065.96
508.33	27192.34
508.50	27171.28
508.68	26958.29
508.85	27094.04
509.03	27133.83
509.20	27227.45
509.38	27723.65
509.55	27515.34
509.73	27768.12
509.90	27831.31
510.08	27456.82
510.25	27763.43
510.42	28201.11
510.60	28098.13
510.77	28161.33
510.95	28463.25
511.12	27927.27
511.30	28119.20
511.47	28322.82
511.64	28283.03
511.82	28882.21
511.99	28577.94
512.17	28594.32
512.34	28835.40
512.51	29102.22
512.69	28706.67
512.86	29170.10
513.04	28973.49
513.21	28971.15
513.38	29097.54
513.56	29291.80
513.73	29228.61
513.90	29497.77
514.08	29495.43
514.25	30412.92
514.43	29291.80
514.60	29439.26
514.77	29914.39
514.95	29776.30
515.12	29956.52
515.29	29989.28
515.47	30171.85
515.64	30319.30
515.81	29972.90
515.99	30387.18
516.16	30714.85
516.33	30373.13
516.51	30403.56
516.68	30525.27
516.85	30398.88
517.03	30941.88
517.20	31140.83
517.37	30787.41
517.54	30948.90
517.72	30656.34
517.89	30661.02
518.06	31154.87
518.24	31101.04
518.41	31585.53
518.58	31487.23
518.75	31512.97
518.93	31431.05
519.10	31353.82
519.27	31304.67
519.45	31356.16
519.62	31974.06
519.79	31983.42
519.96	31732.98
520.14	32149.60
520.31	32046.62
520.48	31852.35
520.65	32137.90
520.83	32938.36
521.00	32556.85
521.17	32355.57
521.34	32725.37
521.52	32627.07
521.69	32783.88
521.86	32788.56
522.03	32800.27
522.20	32919.63
522.38	33282.42
522.55	33188.80
522.72	33003.89
522.89	32987.51
523.07	33528.17
523.24	33170.07
523.41	33331.57
523.58	33298.80
523.75	33631.16
523.92	33151.35
524.10	33811.38
524.27	33354.97
524.44	33837.12
524.61	34036.07
524.78	33876.91
524.96	34258.42
525.13	33846.49
525.30	34349.70
525.47	34153.10
525.64	34487.79
525.81	34005.64
525.98	34569.71
526.16	34464.39
526.33	34195.23
526.50	34291.19
526.67	34415.24
526.84	34469.07
527.01	34455.03
527.18	34588.44
527.36	34649.29
527.53	34558.01
527.70	34916.11
527.87	35075.27
528.04	35075.27
528.21	34653.97
528.38	34948.88
528.55	35225.06
528.72	34773.34
528.89	35058.88
529.07	34944.20
529.24	35068.25
529.41	35136.12
529.58	35487.20
529.75	34962.92
529.92	35239.11
530.09	35566.78
530.26	35683.81
530.43	35505.93
530.60	35580.82
530.77	35405.28
530.94	35557.42
531.11	35665.08
531.28	35377.20
531.46	35725.94
531.63	35882.75
531.80	35957.65
531.97	35849.99
532.14	36271.28
532.31	35875.73
532.48	36292.35
532.65	36680.88
532.82	36156.60
532.99	36353.20
533.16	36503.00
533.33	36421.08
533.50	36264.26
533.67	36329.80
533.84	36308.73
534.01	36540.44
534.18	36657.47
534.35	37230.90
534.52	37354.95
534.69	36865.78
534.86	37031.96
535.03	36903.23
535.20	37202.82
535.37	37209.84
535.54	37102.17
535.71	36985.15
535.88	37329.20
536.05	37287.07
536.22	37474.32
536.38	37748.16
536.55	37060.04
536.72	37493.04
536.89	37385.38
537.06	37581.98
537.23	38036.05
537.40	37153.66
537.57	37881.57
537.74	37518.79
537.91	38017.32
538.08	37668.58
538.25	37277.71
538.42	37853.48
538.59	37944.76
538.75	38220.95
538.92	37865.19
539.09	38218.61
539.26	38192.86
539.43	38347.34
539.60	38197.54
539.77	38302.87
539.94	38120.31
540.11	38408.19
540.28	38387.13
540.44	38422.23
540.61	38094.56
540.78	38574.37
540.95	38932.47
541.12	38576.71
541.29	38174.14
541.46	38550.96
541.62	38588.41
541.79	39143.12
541.96	38649.27
542.13	38862.26
542.30	38988.64
542.47	38871.62
542.63	38941.83
542.80	39084.61
542.97	39414.62
543.14	39548.03
543.31	39414.62
543.48	39908.47
543.64	39522.29
543.81	39765.70
543.98	39800.81
544.15	39735.27
544.32	39859.32
544.48	39948.26
544.65	39974.01
544.82	39632.29
544.99	39739.96
545.16	39873.37
545.32	40224.45
545.49	39978.69
545.66	40301.68
545.83	40245.51
546.00	39929.54
546.16	40259.55
546.33	40280.62
546.50	39952.94
546.67	40531.06
546.83	39688.46
547.00	40210.40
547.17	40299.34
547.34	40292.32
547.50	40678.51
547.67	41010.87
547.84	40294.66
548.00	40755.75
548.17	41282.37
548.34	40655.11
548.51	41008.53
548.67	40989.80
548.84	40610.64
549.01	40432.75
549.18	40842.35
549.34	41092.79
549.51	41469.61
549.68	41209.81
549.84	41069.38
550.01	41371.31
550.18	41010.87
550.34	41024.91
550.51	41509.40
550.68	41434.50
550.84	41118.53
551.01	41331.52
551.18	41088.10
551.34	41174.70
551.51	41469.61
551.68	41373.65
551.84	41174.70
552.01	41401.74
552.18	41460.25
552.34	41493.02
552.51	41668.56
552.68	41537.49
552.84	42113.26
553.01	41930.70
553.18	41460.25
553.34	41717.71
553.51	41284.71
553.67	41862.82
553.84	41970.49
554.01	41743.45
554.17	42174.11
554.34	42424.55
554.51	41794.95
554.67	42419.87
554.84	42354.33
555.00	41855.80
555.17	42047.72
555.33	42148.37
555.50	42036.02
555.67	42092.19
555.83	42265.39
556.00	42462.00
556.16	43028.41
556.33	42518.17
556.50	42511.15
556.66	42373.06
556.83	42129.64
556.99	42532.22
557.16	42941.81
557.32	42546.26
557.49	42768.61
557.65	42623.50
557.82	42239.65
557.98	42483.06
558.15	42672.65
558.32	42913.72
558.48	42756.91
558.65	43192.25
558.81	42497.11
558.98	42733.50
559.14	42485.40
559.31	42717.12
559.47	43056.50
559.64	43164.16
559.80	42831.80
559.97	43021.39
560.13	42745.20
560.30	42997.98
560.46	43438.00
560.63	43028.41
560.79	43089.26
560.96	43648.65
561.12	43194.59
561.29	43023.73
561.45	43320.98
561.61	43175.86
561.78	42969.90
561.94	43201.61
562.11	43196.93
562.27	43704.82
562.44	43079.90
562.60	43311.61
562.77	43524.60
562.93	43409.92
563.10	43430.98
563.26	43421.62
563.42	43636.95
563.59	43325.66
563.75	43803.13
563.92	43187.56
564.08	43196.93
564.24	43611.20
564.41	43271.82
564.57	43601.84
564.74	43587.80
564.90	43445.02
565.07	43461.41
565.23	43529.28
565.39	43803.13
565.56	43873.34
565.72	43742.27
565.88	43707.16
566.05	43756.32
566.21	43985.69
566.38	43746.95
566.54	43789.08
566.70	43952.92
566.87	43840.57
567.03	44006.75
567.19	44252.51
567.36	44133.14
567.52	43981.01
567.68	44406.98
567.85	43922.49
568.01	44451.45
568.17	44109.74
568.34	44201.02
568.50	43999.73
568.66	43817.17
568.83	43812.49
568.99	44133.14
569.15	43941.22
569.32	43915.47
569.48	43894.41
569.64	44023.14
569.81	44238.47
569.97	44093.35
570.13	44406.98
570.30	44065.27
570.46	43702.48
570.62	44318.04
570.78	44507.63
570.95	44140.16
571.11	44362.51
571.27	44395.28
571.43	44020.80
571.60	44229.10
571.76	44002.07
571.92	44224.42
572.09	44048.88
572.25	44053.56
572.41	44168.25
572.57	44531.03
572.74	44594.23
572.90	44257.19
573.06	44502.95
573.22	44285.28
573.38	44706.57
573.55	44821.26
573.71	44498.26
573.87	44531.03
574.03	44430.39
574.20	44449.11
574.36	44460.82
574.52	44470.18
574.68	44844.66
574.84	44570.82
575.01	44835.30
575.17	44779.13
575.33	45015.52
575.49	44397.62
575.65	44760.40
575.82	44580.18
575.98	44446.77
576.14	44608.27
576.30	45083.40
576.46	44140.16
576.62	44505.29
576.79	44535.71
576.95	44006.75
577.11	44451.45
577.27	44170.59
577.43	44769.77
577.59	44411.67
577.75	44189.31
577.92	44238.47
578.08	44540.39
578.24	44554.44
578.40	45045.95
578.56	44968.71
578.72	44404.64
578.88	44233.78
579.04	44659.76
579.21	44498.26
579.37	44964.03
579.53	44697.21
579.69	44706.57
579.85	44355.49
580.01	44598.91
580.17	44409.32
580.33	44879.77
580.49	44856.37
580.65	44744.02
580.82	44875.09
580.98	44390.60
581.14	44563.80
581.30	44910.20
581.46	44582.52
581.62	44481.88
581.78	44669.12
581.94	44437.41
582.10	45104.46
582.26	44814.24
582.42	44662.10
582.58	45029.57
582.74	44662.10
582.90	44917.22
583.06	44715.93
583.22	44519.33
583.38	44619.97
583.54	44765.09
583.70	44776.79
583.86	44641.04
584.02	44802.53
584.18	44811.90
584.34	45015.52
584.50	45404.05
584.66	45188.72
584.82	44669.12
584.98	45083.40
585.14	45017.86
585.30	44608.27
585.46	45027.23
585.62	44486.56
585.78	44835.30
585.94	44524.01
586.10	44994.46
586.26	44430.39
586.42	44809.56
586.58	45298.73
586.74	44945.31
586.90	44875.09
587.06	44772.11
587.22	45228.51
587.38	44837.64
587.54	44919.56
587.70	45249.58
587.86	45331.50
588.02	44594.23
588.18	44945.31
588.34	44797.85
588.49	44636.36
588.65	44905.52
588.81	44814.24
588.97	44940.63
589.13	45078.72
589.29	44882.11
589.45	45439.16
589.61	44673.81
589.77	45097.44
589.93	45111.49
590.08	45055.31
590.24	45537.46
590.40	45160.64
590.56	45333.84
590.72	45434.48
590.88	44758.06
591.04	45181.70
591.20	45832.37
591.35	45689.60
591.51	45490.65
591.67	45375.97
591.83	45223.83
591.99	45490.65
592.15	45165.32
592.31	45722.37
592.46	45294.05
592.62	45043.61
592.78	45626.40
592.94	45881.52
593.10	45759.81
593.26	45762.15
593.41	45593.64
593.57	45312.77
593.73	45727.05
593.89	46045.36
594.05	45968.12
594.20	45523.42
594.36	45996.21
594.52	45787.90
594.68	45504.70
594.84	45521.08
594.99	45605.34
595.15	45263.62
595.31	45797.26
595.47	45181.70
595.62	45652.15
595.78	45705.98
595.94	45614.70
596.10	45605.34
596.25	45837.05
596.41	45909.61
596.57	45640.45
596.73	45502.35
596.88	45528.10
597.04	45525.76
597.20	45603.00
597.36	45535.12
597.51	45717.68
597.67	45495.33
597.83	45500.01
597.99	46007.91
598.14	45165.32
598.30	45720.02
598.46	45944.72
598.61	45858.12
598.77	45902.59
598.93	45937.69
599.09	45743.43
599.24	45661.51
599.40	45605.34
599.56	45275.32
599.71	46045.36
599.87	46457.29
600.03	46045.36
600.18	46052.38
600.34	45619.38
600.50	45970.46
600.65	45645.13
600.81	46213.88
600.97	46057.06
601.12	46164.73
601.28	46092.17
601.44	46019.61
601.59	45860.46
601.75	45970.46
601.91	45801.94
602.06	45867.48
602.22	45750.45
602.37	45731.73
602.53	45773.86
602.69	45989.19
602.84	45970.46
603.00	45581.93
603.16	46101.53
603.31	45617.04
603.47	45834.71
603.62	45808.96
603.78	46113.23
603.94	45862.80
604.09	45799.60
604.25	45893.22
604.40	45216.81
604.56	45977.48
604.71	45584.27
604.87	45628.74
605.03	45682.58
605.18	45549.17
605.34	45619.38
605.49	45553.85
605.65	46033.66
605.80	45457.88
605.96	45689.60
606.12	45572.57
606.27	45628.74
606.43	45188.72
606.58	45460.23
606.74	45586.61
606.89	45729.39
607.05	45839.39
607.20	45937.69
607.36	45500.01
607.51	45352.56
607.67	45422.78
607.82	45523.42
607.98	45469.59
608.13	45457.88
608.29	45745.77
608.44	45801.94
608.60	45584.27
608.75	45481.29
608.91	45539.80
609.06	45167.66
609.22	45406.39
609.37	45408.73
609.53	45467.25
609.68	45715.34
609.84	45345.54
609.99	45666.19
610.15	45734.07
610.30	45303.41
610.46	45722.37
610.61	45450.86
610.76	45450.86
610.92	45158.30
611.07	45713.00
611.23	45085.74
611.38	45003.82
611.54	45574.91
611.69	45673.21
611.84	45640.45
612.00	45766.84
612.15	45045.95
612.31	45577.25
612.46	45240.21
612.62	45446.18
612.77	44949.99
612.92	45233.19
613.08	45155.96
613.23	45642.79
613.39	45071.70
613.54	45141.91
613.69	45441.50
613.85	44657.42
614.00	45432.14
614.15	45464.91
614.31	45177.02
614.46	45177.02
614.62	44734.66
614.77	45083.40
614.92	45074.04
615.08	45287.03
615.23	45010.84
615.38	45357.24
615.54	44985.10
615.69	45013.18
615.84	44659.76
616.00	44942.97
616.15	44947.65
616.30	45256.60
616.46	44903.18
616.61	44978.07
616.76	44804.88
616.92	44561.46
617.07	44484.22
617.22	44594.23
617.37	44322.72
617.53	44608.27
617.68	44795.51
617.83	44968.71
617.99	45088.08
618.14	45228.51
618.29	44332.09
618.45	44109.74
618.60	44514.65
618.75	44439.75
618.90	44552.10
619.06	44203.36
619.21	44847.00
619.36	44584.86
619.51	44591.89
619.67	44362.51
619.82	44739.34
619.97	44645.72
620.12	44423.37
620.28	44252.51
620.43	44069.95
620.58	44650.40
620.73	44182.29
620.89	44346.13
621.04	44655.08
621.19	44573.16
621.34	44304.00
621.49	44531.03
621.65	44259.53
621.80	44531.03
621.95	44245.49
622.10	44573.16
622.25	44535.71
622.41	43889.73
622.56	44222.08
622.71	44463.16
622.86	44285.28
623.01	44493.58
623.16	44481.88
623.32	43894.41
623.47	43782.06
623.62	43805.47
623.77	44236.12
623.92	44091.01
624.07	43880.36
624.23	44009.09
624.38	43903.77
624.53	44013.77
624.68	44172.93
624.83	43737.59
624.98	44051.22
625.13	43730.57
625.29	43459.07
625.44	43868.66
625.59	43295.23
625.74	43468.43
625.89	43529.28
626.04	43529.28
626.19	43969.30
626.34	43648.65
626.49	43540.99
626.65	43454.39
626.80	43386.51
626.95	43136.07
627.10	42710.10
627.25	43498.86
627.40	43611.20
627.55	43260.12
627.70	43342.04
627.85	43337.36
628.00	43210.97
628.15	43241.40
628.30	42714.78
628.45	42595.41
628.60	42761.59
628.76	43330.34
628.91	43068.20
629.06	42878.61
629.21	43157.14
629.36	42770.95
629.51	42883.30
629.66	43084.58
629.81	43061.18
629.96	43379.49
630.11	42803.72
630.26	42646.90
630.41	43051.81
630.56	42740.52
630.71	42848.19
630.86	42749.88
631.01	42071.13
631.16	42691.37
631.31	42754.57
631.46	42637.54
631.61	42698.39
631.76	42696.05
631.91	42677.33
632.06	42944.15
632.21	43089.26
632.36	42974.58
632.51	42380.08
632.66	42431.57
632.81	42815.42
632.96	42689.03
633.10	42286.46
633.25	42689.03
633.40	42265.39
633.55	42705.41
633.70	42904.36
633.85	42670.31
634.00	42019.64
634.15	42024.32
634.30	42113.26
634.45	41797.29
634.60	42092.19
634.75	42433.91
634.90	42298.16
635.05	42480.72
635.19	42167.09
635.34	41911.97
635.49	42218.58
635.64	42155.39
635.79	42370.72
635.94	42129.64
636.09	42436.25
636.24	41736.43
636.39	41895.59
636.53	42174.11
636.68	41453.23
636.83	41310.46
636.98	41752.82
637.13	41588.98
637.28	41734.09
637.43	42101.56
637.57	41984.53
637.72	41397.06
637.87	41668.56
638.02	41486.00
638.17	41322.16
638.32	41633.45
638.46	41596.00
638.61	41411.10
638.76	41282.37
638.91	41621.75
639.06	41050.66
639.20	41439.18
639.35	41256.62
639.50	40811.92
639.65	41331.52
639.80	41394.71
639.94	41565.57
640.09	41167.68
640.24	41163.00
640.39	41139.60
640.54	41076.40
640.68	41294.07
640.83	41443.87
640.98	41022.57
641.13	41034.27
641.27	41514.08
641.42	41153.64
641.57	40961.72
641.72	41081.08
641.86	40973.42
642.01	40538.08
642.16	40877.46
642.31	40713.62
642.45	41298.75
642.60	40687.87
642.75	40914.90
642.90	40786.18
643.04	40975.76
643.19	40744.05
643.34	40584.89
643.48	40332.11
643.63	40416.37
643.78	40631.70
643.93	40786.18
644.07	40627.02
644.22	40905.54
644.37	40603.61
644.51	40776.81
644.66	41111.51
644.81	40652.76
644.95	40620.00
645.10	40053.59
645.25	40327.43
645.39	40086.36
645.54	40458.50
645.69	40020.82
645.83	39878.05
645.98	40168.27
646.13	40704.26
646.27	40472.54
646.42	40390.62
646.57	40404.67
646.71	40238.49
646.86	40432.75
647.00	40133.17
647.15	40395.31
647.30	40498.29
647.44	40528.72
647.59	40388.28
647.74	40053.59
647.88	40437.44
648.03	40336.79
648.17	40088.70
648.32	40362.54
648.47	40109.76
648.61	39962.31
648.76	39683.78
648.90	40081.67
649.05	40105.08
649.20	39791.45
649.34	39580.80
649.49	39732.93
649.63	40088.70
649.78	39777.40
649.92	39962.31
650.07	40348.50
650.21	39952.94
650.36	39957.63
650.51	40088.70
650.65	39503.56
650.80	39978.69
650.94	39721.23
651.09	39761.02
651.23	39262.49
651.38	39456.75
651.52	39431.01
651.67	39480.16
651.81	39522.29
651.96	39409.94
652.10	39297.59
652.25	39494.20
652.39	39330.36
652.54	39576.12
652.68	39131.42
652.83	39047.16
652.97	39580.80
653.12	39246.10
653.26	38789.70
653.41	39182.91
653.55	39117.37
653.70	39264.83
653.84	39328.02
653.99	39353.77
654.13	39086.95
654.27	39089.29
654.42	39103.33
654.56	38927.79
654.71	39171.21
654.85	38850.55
655.00	38693.74
655.14	39461.43
655.29	39548.03
655.43	39091.63
655.57	38394.15
655.72	38869.28
655.86	38969.92
656.01	38684.37
656.15	38471.39
656.30	38447.98
656.44	38871.62
656.58	39372.49
656.73	38588.41
656.87	38574.37
657.01	38412.87
657.16	38504.15
657.30	38763.95
657.45	38515.86
657.59	38337.98
657.73	38361.38
657.88	38373.08
658.02	38501.81
658.16	38590.75
658.31	38094.56
658.45	38471.39
658.60	38263.08
658.74	38337.98
658.88	38073.49
659.03	38520.54
659.17	37900.29
659.31	38052.43
659.46	37656.88
659.60	38036.05
659.74	38061.79
659.89	37570.28
660.03	37567.94
660.17	37998.60
660.32	37790.29
660.46	37830.08
660.60	37205.16
660.74	37603.05
660.89	37605.39
661.03	37432.19
661.17	37090.47
661.32	36921.95
661.46	37448.57
661.60	37345.59
661.74	36947.70
661.89	37205.16
662.03	37088.13
662.17	36795.56
662.31	36905.57
662.46	37338.57
662.60	36301.71
662.74	36629.38
662.88	36601.30
663.03	36304.05
663.17	36442.14
663.31	36353.20
663.45	36804.92
663.60	36980.46
663.74	36671.51
663.88	36713.64
664.02	36526.40
664.17	36715.98
664.31	36376.61
664.45	35938.93
664.59	36247.88
664.73	36306.39
664.88	36500.65
665.02	35618.27
665.16	36060.63
665.30	36196.38
665.44	36140.21
665.59	35784.45
665.73	35800.83
665.87	36020.84
666.01	35777.43
666.15	35854.67
666.29	35854.67
666.44	36133.19
666.58	35395.92
666.72	35381.88
666.86	35339.75
667.00	35225.06
667.14	35260.17
667.28	35133.78
667.43	35229.74
667.57	35505.93
667.71	35154.85
667.85	35618.27
667.99	35101.01
668.13	35271.87
668.27	34911.43
668.41	34920.79
668.56	34445.66
668.70	34167.14
668.84	34396.51
668.98	34452.69
669.12	34553.33
669.26	34548.65
669.40	34445.66
669.54	34380.13
669.68	34794.40
669.82	34274.80
669.96	33813.72
670.10	33855.85
670.25	34281.83
670.39	33968.19
670.53	33926.07
670.67	33905.00
670.81	34080.54
670.95	33902.66
671.09	34043.09
671.23	33734.14
671.37	33495.41
671.51	33291.78
671.65	33359.66
671.79	33376.04
671.93	33413.49
672.07	33518.81
672.21	33179.43
672.35	33120.92
672.49	33329.23
672.63	33205.18
672.77	33076.45
672.91	32952.40
673.05	32708.99
673.19	32350.88
673.33	32772.18
673.47	32451.53
673.61	32613.02
673.75	32114.49
673.89	32385.99
674.03	31957.67
674.17	32063.00
674.31	32165.98
674.45	31798.52
674.59	31952.99
674.73	32011.51
674.87	31519.99
675.01	31831.29
675.15	31402.97
675.29	31384.24
675.43	31363.18
675.56	31489.57
675.70	31641.70
675.84	31304.67
675.98	30536.97
676.12	30855.28
676.26	31421.69
676.40	31648.72
676.54	30946.56
676.68	30602.50
676.82	30455.05
676.96	30370.79
677.10	30412.92
677.23	30719.53
677.37	30433.99
677.51	30085.25
677.65	30349.73
677.79	29900.34
677.93	30122.69
678.07	29940.13
678.21	29673.31
678.34	29628.84
678.48	29696.72
678.62	29476.71
678.76	29610.12
678.90	29017.96
679.04	29434.58
679.18	29422.87
679.31	28692.63
679.45	28772.21
679.59	28570.92
679.73	29062.43
679.87	28629.43
680.00	28748.80
680.14	28706.67
680.28	28641.14
680.42	28575.60
680.56	28168.35
680.70	27992.81
680.83	28107.49
680.97	27910.89
681.11	28032.60
681.25	27311.71
681.39	27824.29
681.52	27400.65
681.66	27009.78
681.80	27049.57
681.94	27204.05
682.07	26934.88
682.21	27234.47
682.35	26719.56
682.49	27166.60
682.62	26948.93
682.76	26958.29
682.90	26487.84
683.04	26562.74
683.17	26499.55
683.31	26363.79
683.45	26335.71
683.59	25830.15
683.72	26122.72
683.86	25720.15
684.00	25813.77
684.13	26225.70
684.27	25528.22
684.41	25458.01
684.55	25612.48
684.68	25600.78
684.82	25036.71
684.96	25149.06
685.09	25411.20
685.23	25111.61
685.37	25095.22
685.50	25233.32
685.64	25294.17
685.78	24875.21
685.91	24844.79
686.05	24231.57
686.19	23838.36
686.32	24210.50
686.46	24100.50
686.60	23683.88
686.73	24402.43
686.87	23875.80
687.01	23967.09
687.14	23836.02
687.28	23651.11
687.42	23639.41
687.55	23681.54
687.69	23555.15
687.82	23311.74
687.96	23325.78
688.10	23351.52
688.23	23449.83
688.37	23351.52
688.50	23417.06
688.64	22923.21
688.78	22707.88
688.91	22988.74
689.05	22630.64
689.18	22452.76
689.32	22164.87
689.46	22347.44
689.59	22204.66
689.73	22405.95
689.86	22691.49
690.00	22249.13
690.13	22279.56
690.27	22029.12
690.41	21781.03
690.54	21724.85
690.68	21752.94
690.81	21645.27
690.95	21525.91
691.08	21275.47
691.22	21001.63
691.35	20940.77
691.49	21483.78
691.62	21331.64
691.76	21046.10
691.89	20638.84
692.03	20489.05
692.16	20290.10
692.30	20575.65
692.43	20519.48
692.57	20130.95
692.70	20236.27
692.84	20058.39
692.97	19871.15
693.11	19927.32
693.24	19770.51
693.38	19992.86
693.51	19751.78
693.65	19733.06
693.78	19583.26
693.92	19328.14
694.05	19442.83
694.19	19555.18
694.32	19534.11
694.45	19557.52
694.59	19583.26
694.72	19349.21
694.86	18979.40
694.99	18967.70
695.13	18754.71
695.26	18630.66
695.39	18541.72
695.53	18534.70
695.66	18434.06
695.80	18417.68
695.93	18515.98
696.07	18242.14
696.20	17757.64
696.33	17717.86
696.47	18015.10
696.60	17907.44
696.73	17928.50
696.87	17940.21
697.00	17642.96
697.14	17497.84
697.27	17322.30
697.40	17268.47
697.54	17448.69
697.67	17200.60
697.80	17294.22
697.94	17282.52
698.07	17284.86
698.21	16809.73
698.34	16936.12
698.47	16622.48
698.61	16442.26
698.74	16400.13
698.87	16458.65
699.01	16161.40
699.14	16559.29
699.27	16259.70
699.40	16091.18
699.54	16332.26
699.67	15899.26
699.80	15941.39
699.94	15721.38
700.07	16020.97
700.20	15807.98
700.34	15840.75
700.47	15740.10
700.60	15829.04
700.73	15461.58
700.87	15440.51
701.00	15211.14
701.13	15199.44
701.26	15147.95
701.40	15197.10
701.53	14904.53
701.66	14906.87
701.79	15063.69
701.93	14897.51
702.06	14448.13
702.19	14764.10
702.32	14499.62
702.46	15005.17
702.59	14319.40
702.72	14883.47
702.85	14431.74
702.99	14530.05
703.12	14216.41
703.25	14047.90
703.38	13916.83
703.51	14244.50
703.65	13884.06
703.78	13696.82
703.91	13748.31
704.04	13661.71
704.17	13446.38
704.31	13528.30
704.44	13195.94
704.57	13671.07
704.70	13160.83
704.83	13205.30
704.96	13474.46
705.10	13319.99
705.23	13130.41
>>>>>End Processed Spectral Data<<<<<
