SpectraSuite Data File
++++++++++++++++++++++++++++++++++++
Date: Fri Oct 25 10:44:44 EDT 2013
User: price-jones
Dark Spectrum Present: No
Reference Spectrum Present: No
Number of Sampled Component Spectra: 1
Spectrometers: USB2+H05261
Integration Time (usec): 100000 (USB2+H05261)
Spectra Averaged: 1 (USB2+H05261)
Boxcar Smoothing: 0 (USB2+H05261)
Correct for Electrical Dark: No (USB2+H05261)
Strobe/Lamp Enabled: No (USB2+H05261)
Correct for Detector Non-linearity: No (USB2+H05261)
Correct for Stray Light: No (USB2+H05261)
Number of Pixels in Processed Spectrum: 2048
>>>>>Begin Processed Spectral Data<<<<<
365.73	86.60
365.92	86.60
366.12	86.60
366.32	0.00
366.52	21.06
366.72	65.54
366.91	88.94
367.11	25.75
367.31	25.75
367.51	32.77
367.70	28.09
367.90	49.15
368.10	0.00
368.30	0.00
368.49	0.00
368.69	46.81
368.89	98.30
369.09	77.24
369.28	63.19
369.48	42.13
369.68	98.30
369.87	74.90
370.07	65.54
370.27	133.41
370.47	142.77
370.66	372.15
370.86	404.91
371.06	482.15
371.25	540.66
371.45	423.64
371.65	428.32
371.84	348.74
372.04	479.81
372.24	535.98
372.44	559.39
372.63	479.81
372.83	554.71
373.03	507.90
373.22	505.56
373.42	517.26
373.62	449.38
373.81	514.92
374.01	484.49
374.21	491.51
374.40	512.58
374.60	510.24
374.79	535.98
374.99	615.56
375.19	594.50
375.38	503.22
375.58	587.47
375.78	596.84
375.97	592.16
376.17	608.54
376.37	510.24
376.56	564.07
376.76	554.71
376.95	521.94
377.15	531.30
377.35	645.99
377.54	585.13
377.74	596.84
377.93	568.75
378.13	634.29
378.33	587.47
378.52	608.54
378.72	641.31
378.91	681.10
379.11	580.45
379.31	638.97
379.50	596.84
379.70	681.10
379.89	737.27
380.09	585.13
380.28	674.07
380.48	648.33
380.68	573.43
380.87	683.44
381.07	648.33
381.26	674.07
381.46	671.73
381.65	650.67
381.85	645.99
382.04	746.63
382.24	653.01
382.43	657.69
382.63	641.31
382.83	608.54
383.02	727.91
383.22	741.95
383.41	568.75
383.61	725.57
383.80	716.20
384.00	760.67
384.19	748.97
384.39	709.18
384.58	695.14
384.78	709.18
384.97	777.06
385.17	734.93
385.36	758.33
385.56	760.67
385.75	678.76
385.95	765.36
386.14	755.99
386.34	835.57
386.53	767.70
386.72	807.48
386.92	746.63
387.11	837.91
387.31	741.95
387.50	781.74
387.70	837.91
387.89	751.31
388.09	753.65
388.28	922.17
388.48	795.78
388.67	819.19
388.86	814.51
389.06	821.53
389.25	868.34
389.45	891.74
389.64	854.30
389.84	964.30
390.03	854.30
390.22	976.00
390.42	954.94
390.61	938.55
390.81	950.26
391.00	1022.81
391.19	933.87
391.39	936.21
391.58	997.07
391.78	1048.56
391.97	980.68
392.16	922.17
392.36	992.39
392.55	978.34
392.75	940.90
392.94	959.62
393.13	978.34
393.33	884.72
393.52	1029.84
393.71	1076.65
393.91	1062.60
394.10	1048.56
394.29	1050.90
394.49	1069.62
394.68	1107.07
394.88	1043.88
395.07	1160.91
395.26	1151.54
395.46	1116.44
395.65	1111.75
395.84	1088.35
396.04	1153.88
396.23	1121.12
396.42	1165.59
396.62	1177.29
396.81	1071.97
397.00	1146.86
397.19	1179.63
397.39	1219.42
397.58	1331.76
397.77	1217.08
397.97	1270.91
398.16	1238.14
398.35	1259.21
398.55	1299.00
398.74	1308.36
398.93	1376.24
399.12	1359.85
399.32	1425.39
399.51	1458.15
399.70	1401.98
399.90	1362.19
400.09	1355.17
400.28	1378.58
400.47	1352.83
400.67	1441.77
400.86	1444.11
401.05	1523.69
401.24	1504.96
401.44	1493.26
401.63	1610.29
401.82	1427.73
402.01	1472.20
402.21	1516.67
402.40	1563.48
402.59	1596.25
402.78	1530.71
402.97	1563.48
403.17	1572.84
403.36	1565.82
403.55	1643.06
403.74	1654.76
403.93	1605.61
404.13	1664.12
404.32	1593.90
404.51	1654.76
404.70	1736.68
404.89	1680.50
405.09	1739.02
405.28	1741.36
405.47	1802.21
405.66	1792.85
405.85	1942.64
406.05	1813.92
406.24	1813.92
406.43	1914.56
406.62	1865.41
406.81	1867.75
407.00	1977.75
407.20	1851.36
407.39	1867.75
407.58	1923.92
407.77	2015.20
407.96	1982.43
408.15	2012.86
408.34	2017.54
408.54	1912.22
408.73	1991.80
408.92	2026.90
409.11	2134.57
409.30	2031.58
409.49	2106.48
409.68	2062.01
409.87	2106.48
410.07	2069.03
410.26	2253.94
410.45	2146.27
410.64	2209.47
410.83	2204.78
411.02	2242.23
411.21	2275.00
411.40	2237.55
411.59	2335.85
411.78	2370.96
411.98	2200.10
412.17	2319.47
412.36	2359.26
412.55	2511.39
412.74	2504.37
412.93	2487.99
413.12	2394.37
413.31	2504.37
413.50	2558.21
413.69	2595.65
413.88	2663.53
414.07	2689.28
414.26	2656.51
414.45	2621.40
414.64	2691.62
414.83	2752.47
415.02	2726.72
415.22	2813.32
415.41	2808.64
415.60	2829.71
415.79	2829.71
415.98	2930.35
416.17	2986.52
416.36	2869.50
416.55	2874.18
416.74	2946.73
416.93	2937.37
417.12	2937.37
417.31	2963.12
417.50	2963.12
417.69	3068.44
417.88	3087.17
418.07	3098.87
418.26	3173.77
418.45	3141.00
418.64	3197.17
418.83	3173.77
419.02	3206.53
419.21	3180.79
419.39	3279.09
419.58	3300.16
419.77	3246.32
419.96	3370.37
420.15	3356.33
420.34	3365.69
420.53	3372.71
420.72	3417.18
420.91	3618.47
421.10	3468.67
421.29	3597.40
421.48	3363.35
421.67	3365.69
421.86	3417.18
422.05	3534.21
422.24	3496.76
422.43	3517.83
422.61	3368.03
422.80	3480.38
422.99	3524.85
423.18	3543.57
423.37	3630.17
423.56	3463.99
423.75	3515.48
423.94	3529.53
424.13	3321.22
424.32	3421.86
424.50	3597.40
424.69	3550.59
424.88	3686.34
425.07	3454.63
425.26	3468.67
425.45	3602.08
425.64	3583.36
425.83	3557.61
426.01	3719.11
426.20	3625.49
426.39	3754.22
426.58	3566.98
426.77	3676.98
426.96	3571.66
427.15	3637.19
427.33	3655.92
427.52	3721.45
427.71	3896.99
427.90	3730.81
428.09	3789.33
428.28	3765.92
428.46	3803.37
428.65	3794.01
428.84	3887.63
429.03	3962.53
429.22	3810.39
429.40	3857.20
429.59	3714.43
429.78	3691.02
429.97	3592.72
430.16	3782.31
430.34	3805.71
430.53	3833.80
430.72	3906.35
430.91	3850.18
431.10	3866.56
431.28	4065.51
431.47	4135.73
431.66	4208.28
431.85	4117.00
432.03	4191.90
432.22	4236.37
432.41	4276.16
432.60	4395.53
432.79	4311.27
432.97	4428.29
433.16	4304.25
433.35	4241.05
433.54	4149.77
433.72	4353.40
433.91	4280.84
434.10	4374.46
434.28	4390.84
434.47	4519.57
434.66	4582.77
434.85	4484.47
435.03	4470.42
435.22	4332.33
435.41	4711.50
435.59	4535.96
435.78	4655.33
435.97	4568.73
436.16	4662.35
436.34	4599.15
436.53	4610.86
436.72	4718.52
436.90	4660.01
437.09	4802.78
437.28	4496.17
437.46	4631.92
437.65	4758.31
437.84	4854.27
438.02	4755.97
438.21	4739.58
438.40	4697.46
438.58	5095.35
438.77	5008.75
438.96	5029.81
439.14	5067.26
439.33	5071.94
439.52	5093.01
439.70	5102.37
439.89	5111.73
440.08	5298.97
440.26	4957.25
440.45	5104.71
440.63	5212.37
440.82	5362.17
441.01	5233.44
441.19	5425.36
441.38	5504.94
441.57	5406.64
441.75	5507.28
441.94	5722.61
442.12	5710.91
442.31	5921.56
442.50	5783.46
442.68	5832.62
442.87	5783.46
443.05	5823.25
443.24	6036.24
443.43	5870.06
443.61	5813.89
443.80	6078.37
443.98	5664.10
444.17	5600.90
444.35	5872.40
444.54	6111.14
444.73	6031.56
444.91	5968.37
445.10	5954.32
445.28	5818.57
445.47	5849.00
445.65	5947.30
445.84	5724.95
446.02	5989.43
446.21	5898.15
446.39	5806.87
446.58	5980.07
446.77	6099.44
446.95	5902.83
447.14	6078.37
447.32	6031.56
447.51	6059.65
447.69	6047.94
447.88	6066.67
448.06	6026.88
448.25	6066.67
448.43	6073.69
448.62	5991.77
448.80	6174.33
448.99	6230.51
449.17	6333.49
449.36	6141.57
449.54	6359.24
449.73	6389.66
449.91	6431.79
450.10	6324.13
450.28	6473.92
450.46	6523.07
450.65	6462.22
450.83	6443.49
451.02	6422.43
451.20	6523.07
451.39	6691.59
451.57	6567.54
451.76	6434.13
451.94	6502.01
452.13	6679.89
452.31	6441.15
452.49	6328.81
452.68	6609.67
452.86	6576.91
453.05	6628.40
453.23	6579.25
453.42	6658.82
453.60	6670.53
453.78	6724.36
453.97	6691.59
454.15	6630.74
454.34	6787.55
454.52	6796.92
454.70	6834.36
454.89	6890.54
455.07	6874.15
455.26	6977.14
455.44	7082.46
455.62	6902.24
455.81	7075.44
455.99	7014.59
456.17	7276.73
456.36	7124.59
456.54	7119.91
456.73	7377.37
456.91	7276.73
457.09	7456.95
457.28	7466.31
457.46	7208.85
457.64	7365.67
457.83	7344.60
458.01	7342.26
458.19	7529.50
458.38	7463.97
458.56	7571.63
458.74	7440.56
458.93	7569.29
459.11	7503.76
459.29	7487.37
459.48	7555.25
459.66	7623.12
459.84	7606.74
460.03	7878.24
460.21	7803.35
460.39	7658.23
460.57	7796.32
460.76	7588.02
460.94	7793.98
461.12	7873.56
461.31	7873.56
461.49	7812.71
461.67	7925.05
461.85	8102.93
462.04	7829.09
462.22	7974.21
462.40	8112.30
462.59	8030.38
462.77	8070.17
462.95	8037.40
463.13	8175.49
463.32	8042.08
463.50	8126.34
463.68	8229.32
463.86	8180.17
464.05	8170.81
464.23	8128.68
464.41	8273.79
464.59	8131.02
464.78	8327.63
464.96	7983.57
465.14	8276.13
465.32	8341.67
465.50	8381.46
465.69	8432.95
465.87	8486.78
466.05	8320.60
466.23	8346.35
466.41	8442.31
466.60	8559.34
466.78	8571.04
466.96	8573.38
467.14	8475.08
467.32	8566.36
467.51	8582.74
467.69	8461.04
467.87	8545.30
468.05	8725.52
468.23	8706.79
468.41	8746.58
468.60	8826.16
468.78	8798.07
468.96	8896.38
469.14	8924.46
469.32	8833.18
469.50	8648.28
469.69	9085.96
469.87	9198.31
470.05	8908.08
470.23	8961.91
470.41	9149.15
470.59	8992.34
470.77	9083.62
470.95	9107.02
471.14	9329.38
471.32	9067.24
471.50	9324.69
471.68	9355.12
471.86	9406.61
472.04	9483.85
472.22	9575.13
472.40	9188.94
472.58	9343.42
472.77	9530.66
472.95	9617.26
473.13	9982.38
473.31	9741.31
473.49	9596.20
473.67	9558.75
473.85	9895.78
474.03	10029.20
474.21	10061.96
474.39	10174.31
474.57	9973.02
474.75	10169.63
474.93	10281.97
475.12	10223.46
475.30	10270.27
475.48	10253.89
475.66	10471.56
475.84	10303.04
476.02	10455.17
476.20	10710.29
476.38	10600.29
476.56	11012.22
476.74	10703.27
476.92	10670.50
477.10	10726.68
477.28	11037.97
477.46	11124.57
477.64	11147.97
477.82	11489.69
478.00	11449.90
478.18	11426.50
478.36	11318.83
478.54	11606.72
478.72	11693.32
478.90	11833.75
479.08	11859.49
479.26	11913.33
479.44	12074.82
479.62	12278.45
479.80	12269.09
479.98	12280.79
480.16	12734.85
480.34	12727.83
480.52	12624.85
480.70	12751.24
480.88	12556.97
481.06	12795.71
481.24	12533.57
481.41	13046.15
481.59	12954.87
481.77	13252.11
481.95	13343.39
482.13	13254.45
482.31	13399.57
482.49	13638.30
482.67	13462.76
482.85	13603.19
483.03	13851.29
483.21	14024.49
483.39	14235.14
483.57	14019.81
483.74	14295.99
483.92	14256.20
484.10	14183.65
484.28	14677.50
484.46	14609.62
484.64	14977.09
484.82	14918.57
485.00	14853.04
485.18	15016.88
485.35	15332.85
485.53	15021.56
485.71	15084.75
485.89	15236.89
486.07	15297.74
486.25	15620.74
486.43	15318.81
486.61	15763.51
486.78	15850.11
486.96	16428.22
487.14	16212.89
487.32	16489.07
487.50	16561.63
487.68	16727.81
487.85	16957.18
488.03	17170.17
488.21	17334.01
488.39	17273.15
488.57	17167.83
488.75	17481.46
488.92	17783.39
489.10	18031.49
489.28	17731.90
489.46	18099.36
489.64	18031.49
489.81	18405.97
489.99	18387.25
490.17	18726.63
490.35	18904.51
490.53	18745.35
490.70	19073.03
490.88	18927.91
491.06	19424.11
491.24	19054.30
491.41	19246.23
491.59	19381.98
491.77	19557.52
491.95	19470.92
492.13	19379.64
492.30	19594.96
492.48	20128.61
492.66	20088.82
492.84	20285.42
493.01	20402.45
493.19	20353.30
493.37	20695.02
493.54	21060.14
493.72	21067.16
493.90	21029.71
494.08	21123.33
494.25	21298.88
494.43	21605.49
494.61	21514.20
494.79	21867.63
494.96	21568.04
495.14	21621.87
495.32	21727.19
495.49	21935.50
495.67	21968.27
495.85	22260.84
496.02	22260.84
496.20	22501.91
496.38	23012.15
496.55	22895.12
496.73	23201.73
496.91	22944.27
497.09	23201.73
497.26	22974.70
497.44	22984.06
497.62	23639.41
497.79	23506.00
497.97	23288.33
498.14	23885.17
498.32	23812.61
498.50	23861.76
498.67	24245.61
498.85	23976.45
499.03	24292.42
499.20	24875.21
499.38	24624.78
499.56	24680.95
499.73	24393.06
499.91	24767.55
500.08	24636.48
500.26	24648.18
500.44	24790.95
500.61	25029.69
500.79	24879.89
500.97	24992.24
501.14	25790.36
501.32	25399.49
501.49	25364.39
501.67	24952.45
501.84	25270.76
502.02	25575.03
502.20	26031.44
502.37	26089.95
502.55	25930.80
502.72	26111.02
502.90	25954.20
503.07	26228.04
503.25	26185.91
503.43	26113.36
503.60	26237.41
503.78	26312.30
503.95	26108.68
504.13	26616.57
504.30	26597.85
504.48	26558.06
504.65	27332.78
504.83	27157.24
505.01	27517.68
505.18	26991.06
505.36	27063.61
505.53	27292.99
505.71	27871.10
505.88	27496.61
506.06	27520.02
506.23	27882.80
506.41	27304.69
506.58	27871.10
506.76	28168.35
506.93	27927.27
507.11	28261.97
507.28	27962.38
507.46	28196.43
507.63	27934.29
507.81	28397.72
507.98	28472.62
508.16	28533.47
508.33	28601.35
508.50	28514.75
508.68	28620.07
508.85	28870.51
509.03	28816.68
509.20	29214.57
509.38	29469.69
509.55	29268.40
509.73	29268.40
509.90	29142.01
510.08	29352.66
510.25	29249.67
510.42	29443.94
510.60	29603.10
510.77	29874.60
510.95	29876.94
511.12	29694.38
511.30	30209.29
511.47	30082.91
511.64	30279.51
511.82	30167.16
511.99	30380.15
512.17	30045.46
512.34	30387.18
512.51	30644.63
512.69	30969.97
512.86	30745.28
513.04	30785.07
513.21	30719.53
513.38	30733.57
513.56	30852.94
513.73	30457.39
513.90	31042.53
514.08	30972.31
514.25	31304.67
514.43	31075.29
514.60	31314.03
514.77	31168.91
514.95	31613.62
515.12	31791.50
515.29	31412.33
515.47	31742.35
515.64	32091.09
515.81	31875.76
515.99	31803.20
516.16	31798.52
516.33	32072.36
516.51	32257.26
516.68	31859.37
516.85	31391.26
517.03	31960.02
517.20	31777.45
517.37	32039.59
517.54	32259.60
517.72	32414.08
517.89	32322.80
518.06	31969.38
518.24	32414.08
518.41	32320.46
518.58	32708.99
518.75	32217.47
518.93	32992.19
519.10	32947.72
519.27	32732.39
519.45	32982.83
519.62	33188.80
519.79	32795.59
519.96	33102.20
520.14	33668.61
520.31	33394.76
520.48	33790.31
520.65	33329.23
520.83	33305.82
521.00	33937.77
521.17	33380.72
521.34	33605.41
521.52	34031.39
521.69	34136.71
521.86	34220.97
522.03	34293.53
522.20	34302.89
522.38	34483.11
522.55	34487.79
522.72	34249.06
522.89	34471.41
523.07	34459.71
523.24	34679.72
523.41	34579.07
523.58	34522.90
523.75	35285.92
523.92	35049.52
524.10	35316.34
524.27	34937.18
524.44	35257.83
524.61	35456.78
524.78	35290.60
524.96	35494.22
525.13	35388.90
525.30	35608.91
525.47	35765.73
525.64	35770.41
525.81	35924.88
525.98	35232.08
526.16	35304.64
526.33	35489.54
526.50	35711.89
526.67	35269.53
526.84	35601.89
527.01	35770.41
527.18	35463.80
527.36	35847.64
527.53	36088.72
527.70	36339.16
527.87	36587.25
528.04	35931.90
528.21	36425.76
528.38	36404.69
528.55	36615.34
528.72	36589.59
528.89	36376.61
529.07	36369.58
529.24	36329.80
529.41	36835.35
529.58	36889.18
529.75	36744.07
529.92	36943.02
530.09	36893.86
530.26	36809.61
530.43	37530.49
530.60	36491.29
530.77	37050.68
530.94	37186.43
531.11	37095.15
531.28	37017.91
531.46	37572.62
531.63	37495.38
531.80	37118.56
531.97	37308.14
532.14	37432.19
532.31	37092.81
532.48	37160.69
532.65	37797.31
532.82	37589.00
532.99	37544.53
533.16	38066.47
533.33	37652.20
533.50	38094.56
533.67	37886.25
533.84	37649.86
534.01	37841.78
534.18	38000.94
534.35	37956.47
534.52	38199.88
534.69	38129.67
534.86	38227.97
535.03	38368.40
535.20	38225.63
535.37	38731.18
535.54	38960.56
535.71	38546.28
535.88	38485.43
536.05	38326.27
536.22	38682.03
536.38	38665.65
536.55	38433.94
536.72	38962.90
536.89	38457.34
537.06	38447.98
537.23	38609.48
537.40	39131.42
537.57	38972.26
537.74	38958.22
537.91	39470.79
538.08	39636.97
538.25	38829.49
538.42	39014.39
538.59	39173.55
538.75	38707.78
538.92	39182.91
539.09	39515.26
539.26	39168.87
539.43	39285.89
539.60	39201.63
539.77	39253.12
539.94	39243.76
540.11	39545.69
540.28	39662.72
540.44	39108.01
540.61	39718.89
540.78	39639.31
540.95	39716.55
541.12	39700.17
541.29	39931.88
541.46	39739.96
541.62	39592.50
541.79	40353.18
541.96	39625.27
542.13	39480.16
542.30	40027.84
542.47	39943.58
542.63	40201.04
542.80	40041.88
542.97	40231.47
543.14	40830.65
543.31	40025.50
543.48	40306.37
543.64	41029.59
543.81	40776.81
543.98	40755.75
544.15	40694.89
544.32	41048.32
544.48	40767.45
544.65	40734.68
544.82	40891.50
544.99	40385.94
545.16	40776.81
545.32	40861.07
545.49	41071.72
545.66	41612.38
545.83	41228.54
546.00	41574.94
546.16	41383.01
546.33	40933.63
546.50	40671.49
546.67	41095.13
546.83	41034.27
547.00	41478.97
547.17	41125.55
547.34	41734.09
547.50	41762.18
547.67	41701.32
547.84	41455.57
548.00	41294.07
548.17	41979.85
548.34	41514.08
548.51	41467.27
548.67	41827.71
548.84	41876.86
549.01	41841.76
549.18	41811.33
549.34	41752.82
549.51	42031.34
549.68	42209.22
549.84	42181.13
550.01	41982.19
550.18	41563.23
550.34	42328.59
550.51	42209.22
550.68	41570.25
550.84	41420.46
551.01	41837.08
551.18	41553.87
551.34	42277.10
551.51	42157.73
551.68	42270.08
551.84	42361.36
552.01	42366.04
552.18	42314.55
552.34	42129.64
552.51	42120.28
552.68	42293.48
552.84	42459.66
553.01	42637.54
553.18	42698.39
553.34	42553.28
553.51	42572.00
553.67	42691.37
553.84	42885.64
554.01	42792.01
554.17	42689.03
554.34	42738.18
554.51	42738.18
554.67	43126.71
554.84	42679.67
555.00	42651.58
555.17	42967.55
555.33	42466.68
555.50	43007.34
555.67	42878.61
555.83	42822.44
556.00	42995.64
556.16	43232.04
556.33	43278.85
556.50	42986.28
556.66	43288.21
556.83	42955.85
556.99	43182.88
557.16	43222.67
557.32	43384.17
557.49	43250.76
557.65	42866.91
557.82	43250.76
557.98	43295.23
558.15	43203.95
558.32	43271.82
558.48	43196.93
558.65	43426.30
558.81	43129.05
558.98	43452.05
559.14	43213.31
559.31	43007.34
559.47	43330.34
559.64	43124.37
559.80	43620.56
559.97	43826.53
560.13	43042.45
560.30	42897.34
560.46	43538.65
560.63	43557.37
560.79	43772.70
560.96	43983.35
561.12	43578.43
561.29	43604.18
561.45	43863.98
561.61	43636.95
561.78	43433.32
561.94	42808.40
562.11	44095.69
562.27	43487.15
562.44	43323.32
562.60	43985.69
562.77	43913.13
562.93	43842.92
563.10	43871.00
563.26	43552.69
563.42	43892.07
563.59	43143.09
563.75	43812.49
563.92	43777.38
564.08	44046.54
564.24	44172.93
564.41	43929.51
564.57	43899.09
564.74	44009.09
564.90	43466.09
565.07	44079.31
565.23	43784.40
565.39	43758.66
565.56	43861.64
565.72	43962.28
565.88	44205.70
566.05	44238.47
566.21	43992.71
566.38	43899.09
566.54	44154.21
566.70	44201.02
566.87	44559.12
567.03	44109.74
567.19	44584.86
567.36	44105.06
567.52	44236.12
567.68	44694.87
567.85	44018.46
568.01	43807.81
568.17	44271.23
568.34	44048.88
568.50	44261.87
568.66	44102.71
568.83	44212.72
568.99	44093.35
569.15	44226.76
569.32	44184.63
569.48	44158.89
569.64	44591.89
569.81	44140.16
569.97	44416.35
570.13	44009.09
570.30	43927.17
570.46	43763.34
570.62	44074.63
570.78	43782.06
570.95	44051.22
571.11	44011.43
571.27	44591.89
571.43	44226.76
571.60	44030.16
571.76	44479.54
571.92	44128.46
572.09	43999.73
572.25	44414.01
572.41	44076.97
572.57	44458.48
572.74	44711.25
572.90	44168.25
573.06	44367.20
573.22	44282.94
573.38	44208.04
573.55	44151.87
573.71	44905.52
573.87	44509.97
574.03	44196.34
574.20	44488.90
574.36	44624.65
574.52	44458.48
574.68	44484.22
574.84	44287.62
575.01	44526.35
575.17	44285.28
575.33	44458.48
575.49	44158.89
575.65	44765.09
575.82	44732.32
575.98	44390.60
576.14	44769.77
576.30	45067.02
576.46	44182.29
576.62	44491.24
576.79	44416.35
576.95	43985.69
577.11	44266.55
577.27	44388.26
577.43	44584.86
577.59	44311.02
577.75	44144.84
577.92	43833.55
578.08	44308.68
578.24	43906.11
578.40	44179.95
578.56	44961.69
578.72	44406.98
578.88	44835.30
579.04	44704.23
579.21	44341.45
579.37	44542.74
579.53	44402.30
579.69	44119.10
579.85	44519.33
580.01	44762.75
580.17	44671.46
580.33	44727.64
580.49	44243.15
580.65	44879.77
580.82	44308.68
580.98	44809.56
581.14	44439.75
581.30	45036.59
581.46	44697.21
581.62	44598.91
581.78	44526.35
581.94	44722.96
582.10	44643.38
582.26	44884.45
582.42	44355.49
582.58	44685.51
582.74	44659.76
582.90	44769.77
583.06	44367.20
583.22	45006.16
583.38	44952.33
583.54	44765.09
583.70	44830.62
583.86	44701.89
584.02	44376.56
584.18	44425.71
584.34	44631.68
584.50	44699.55
584.66	44591.89
584.82	44376.56
584.98	44739.34
585.14	44645.72
585.30	44252.51
585.46	44952.33
585.62	44432.73
585.78	44573.16
585.94	44135.48
586.10	44470.18
586.26	44619.97
586.42	44718.28
586.58	44437.41
586.74	44760.40
586.90	44287.62
587.06	44289.96
587.22	44905.52
587.38	44343.79
587.54	44580.18
587.70	44800.19
587.86	44374.22
588.02	45008.50
588.18	44737.00
588.34	44371.88
588.49	44231.44
588.65	44446.77
588.81	44409.32
588.97	44329.75
589.13	44325.07
589.29	44552.10
589.45	44772.11
589.61	44519.33
589.77	44715.93
589.93	45050.63
590.08	44952.33
590.24	45397.03
590.40	44947.65
590.56	44928.92
590.72	45102.12
590.88	45020.20
591.04	45195.74
591.20	45083.40
591.35	44809.56
591.51	45366.60
591.67	44676.15
591.83	45062.33
591.99	44727.64
592.15	45099.78
592.31	45240.21
592.46	44996.80
592.62	44933.60
592.78	45357.24
592.94	45132.55
593.10	44762.75
593.26	44982.76
593.41	44697.21
593.57	44648.06
593.73	44577.84
593.89	45385.33
594.05	45083.40
594.20	44942.97
594.36	44837.64
594.52	44828.28
594.68	44994.46
594.84	44865.73
594.99	44992.12
595.15	44924.24
595.31	45165.32
595.47	44903.18
595.62	45045.95
595.78	45282.34
595.94	45413.41
596.10	44800.19
596.25	45104.46
596.41	44870.41
596.57	45155.96
596.73	45165.32
596.88	44921.90
597.04	45331.50
597.20	44755.72
597.36	45174.68
597.51	45158.30
597.67	45191.06
597.83	45177.02
597.99	45179.36
598.14	45036.59
598.30	44968.71
598.46	44636.36
598.61	44987.44
598.77	44669.12
598.93	44865.73
599.09	44989.78
599.24	45471.93
599.40	45170.00
599.56	45083.40
599.71	44727.64
599.87	45282.34
600.03	45270.64
600.18	44928.92
600.34	44851.69
600.50	45422.78
600.65	45088.08
600.81	45511.72
600.97	45298.73
601.12	45074.04
601.28	45125.53
601.44	44711.25
601.59	44879.77
601.75	44591.89
601.91	45289.37
602.06	44711.25
602.22	44980.42
602.37	44903.18
602.53	45324.47
602.69	45170.00
602.84	44917.22
603.00	44666.78
603.16	45158.30
603.31	44905.52
603.47	44608.27
603.62	45132.55
603.78	45127.87
603.94	44954.67
604.09	45755.13
604.25	45254.26
604.40	45514.06
604.56	45118.51
604.71	45151.27
604.87	44591.89
605.03	44793.17
605.18	44842.32
605.34	45052.97
605.49	44641.04
605.65	45092.76
605.80	45165.32
605.96	45118.51
606.12	44793.17
606.27	45055.31
606.43	44849.35
606.58	44872.75
606.74	44903.18
606.89	44765.09
607.05	44863.39
607.20	44809.56
607.36	44729.98
607.51	44844.66
607.67	44643.38
607.82	45130.21
607.98	44942.97
608.13	44680.83
608.29	44505.29
608.44	44470.18
608.60	44655.08
608.75	44587.21
608.91	44575.50
609.06	44203.36
609.22	44861.05
609.37	44575.50
609.53	44383.58
609.68	44566.14
609.84	44481.88
609.99	44765.09
610.15	44179.95
610.30	44133.14
610.46	44395.28
610.61	44371.88
610.76	44526.35
610.92	44561.46
611.07	44676.15
611.23	44687.85
611.38	44397.62
611.54	44350.81
611.69	44346.13
611.84	44392.94
612.00	44367.20
612.15	43786.74
612.31	44271.23
612.46	44278.25
612.62	44268.89
612.77	43948.24
612.92	44690.19
613.08	43945.90
613.23	44467.84
613.39	44191.65
613.54	43992.71
613.69	43952.92
613.85	44282.94
614.00	44397.62
614.15	44308.68
614.31	44327.41
614.46	44158.89
614.62	43840.57
614.77	43662.69
614.92	43800.79
615.08	43915.47
615.23	43976.33
615.38	43955.26
615.54	43831.21
615.69	43704.82
615.84	43704.82
616.00	43742.27
616.15	43475.45
616.30	44095.69
616.46	43615.88
616.61	43948.24
616.76	43739.93
616.92	42747.54
617.07	42855.21
617.22	43299.91
617.37	43531.62
617.53	43583.12
617.68	43667.37
617.83	43749.29
617.99	43690.78
618.14	43538.65
618.29	43241.40
618.45	43103.31
618.60	43051.81
618.75	43606.52
618.90	43452.05
619.06	43777.38
619.21	43428.64
619.36	43819.51
619.51	43531.62
619.67	43257.78
619.82	43735.25
619.97	43367.79
620.12	43206.29
620.28	43239.06
620.43	43079.90
620.58	42953.51
620.73	43150.12
620.89	43171.18
621.04	42880.95
621.19	43119.69
621.34	43037.77
621.49	43405.23
621.65	42354.33
621.80	42916.06
621.95	42862.23
622.10	42756.91
622.25	42649.24
622.41	42405.83
622.56	42574.34
622.71	42717.12
622.86	43150.12
623.01	42754.57
623.16	42707.76
623.32	43171.18
623.47	42897.34
623.62	42904.36
623.77	42462.00
623.92	42555.62
624.07	42454.98
624.23	42576.69
624.38	42391.78
624.53	41926.02
624.68	42244.33
624.83	42057.09
624.98	42394.12
625.13	41930.70
625.29	42274.76
625.44	42192.84
625.59	42176.45
625.74	41621.75
625.89	41537.49
626.04	41984.53
626.19	42169.43
626.34	42155.39
626.49	42183.48
626.65	41900.27
626.80	42213.90
626.95	41900.27
627.10	42089.85
627.25	41698.98
627.40	41841.76
627.55	41596.00
627.70	41134.92
627.85	41322.16
628.00	41591.32
628.15	41563.23
628.30	41572.60
628.45	41928.36
628.60	41649.83
628.76	41797.29
628.91	41666.22
629.06	41560.89
629.21	41895.59
629.36	41462.59
629.51	41448.55
629.66	41780.90
629.81	41633.45
629.96	40947.67
630.11	41439.18
630.26	41263.64
630.41	41359.61
630.56	41694.30
630.71	41682.60
630.86	41148.96
631.01	41256.62
631.16	41125.55
631.31	41109.17
631.46	40933.63
631.61	41275.35
631.76	40921.93
631.91	41235.56
632.06	41188.75
632.21	41359.61
632.36	41029.59
632.51	40865.75
632.66	40807.24
632.81	40683.19
632.96	41031.93
633.10	40488.93
633.25	40987.46
633.40	40935.97
633.55	41177.04
633.70	40898.52
633.85	40753.41
634.00	40793.20
634.15	40566.16
634.30	40645.74
634.45	40627.02
634.60	40435.10
634.75	40123.80
634.90	40793.20
635.05	40713.62
635.19	40488.93
635.34	40594.25
635.49	40034.86
635.64	40399.99
635.79	40488.93
635.94	40692.55
636.09	40535.74
636.24	40100.40
636.39	40161.25
636.53	39791.45
636.68	39878.05
636.83	40079.33
636.98	40053.59
637.13	39908.47
637.28	39782.09
637.43	40313.39
637.57	40446.80
637.72	39969.33
637.87	40023.16
638.02	40009.12
638.17	40453.82
638.32	40294.66
638.46	39943.58
638.61	39702.51
638.76	39627.61
638.91	39878.05
639.06	40402.33
639.20	40147.21
639.35	40240.83
639.50	39983.37
639.65	40404.67
639.80	40133.17
639.94	40030.18
640.09	40177.64
640.24	39370.15
640.39	39604.20
640.54	39770.38
640.68	39959.97
640.83	39723.57
640.98	39543.35
641.13	38995.67
641.27	39615.91
641.42	39653.36
641.57	39358.45
641.72	39407.60
641.86	39243.76
642.01	39250.78
642.16	39606.55
642.31	38827.15
642.45	39426.32
642.60	39201.63
642.75	39267.17
642.90	39344.41
643.04	39019.07
643.19	38733.53
643.34	39267.17
643.48	38815.44
643.63	38946.51
643.78	39147.80
643.93	38625.86
644.07	39091.63
644.22	38925.45
644.37	38707.78
644.51	38700.76
644.66	38806.08
644.81	39185.25
644.95	38932.47
645.10	39246.10
645.25	39503.56
645.39	39199.29
645.54	38871.62
645.69	38778.00
645.83	38990.98
645.98	38653.95
646.13	39016.73
646.27	38684.37
646.42	38513.52
646.57	39033.11
646.71	38536.92
646.86	38644.59
647.00	38492.45
647.15	39035.45
647.30	38897.36
647.44	38043.07
647.59	38543.94
647.74	38810.76
647.88	38555.64
648.03	38431.60
648.17	38363.72
648.32	38033.71
648.47	38473.73
648.61	38239.67
648.76	37904.98
648.90	38302.87
649.05	38644.59
649.20	38347.34
649.34	38557.99
649.49	37837.10
649.63	37703.69
649.78	38225.63
649.92	38162.43
650.07	38352.02
650.21	38052.43
650.36	38026.68
650.51	37734.12
650.65	38494.79
650.80	38071.15
650.94	38293.50
651.09	37757.52
651.23	37731.78
651.38	37846.46
651.52	37801.99
651.67	37710.71
651.81	37427.51
651.96	37153.66
652.10	37771.57
652.25	37322.18
652.39	37813.70
652.54	37661.56
652.68	37717.73
652.83	38181.16
652.97	37827.74
653.12	38040.73
653.26	37448.57
653.41	37537.51
653.55	37266.01
653.70	37067.06
653.84	37675.60
653.99	37867.53
654.13	37294.10
654.27	37184.09
654.42	36896.20
654.56	36842.37
654.71	37376.01
654.85	36872.80
655.00	37296.44
655.14	37099.83
655.29	36783.86
655.43	37165.37
655.57	37046.00
655.72	36840.03
655.86	36737.05
656.01	36692.58
656.15	36348.52
656.30	36652.79
656.44	36886.84
656.58	36458.52
656.73	36657.47
656.87	36713.64
657.01	36926.63
657.16	36889.18
657.30	36613.00
657.45	36287.67
657.59	36638.75
657.73	36535.76
657.88	36767.48
658.02	36795.56
658.16	36685.56
658.31	36598.96
658.45	36662.15
658.60	36268.94
658.74	36582.57
658.88	36290.01
659.03	36566.19
659.17	35936.59
659.31	36095.74
659.46	35985.74
659.60	36222.13
659.74	36196.38
659.89	35967.01
660.03	36411.71
660.17	36168.30
660.32	35578.48
660.46	35889.77
660.60	36098.08
660.74	36151.91
660.89	36573.21
661.03	35543.38
661.17	35585.50
661.32	35049.52
661.46	35491.88
661.60	35440.39
661.74	35639.34
661.89	35615.93
662.03	35688.49
662.17	35587.85
662.31	35236.77
662.46	35344.43
662.60	36034.89
662.74	35143.14
662.88	35386.56
663.03	34876.32
663.17	34696.10
663.31	35026.12
663.45	35152.51
663.60	34967.60
663.74	34534.60
663.88	34969.94
664.02	34717.17
664.17	34799.08
664.31	34618.86
664.45	34511.20
664.59	34675.04
664.73	34330.98
664.88	34712.49
665.02	34073.52
665.16	34316.93
665.30	34099.26
665.44	34473.75
665.59	34071.18
665.73	34160.12
665.87	34260.76
666.01	34415.24
666.15	34068.84
666.29	33930.75
666.44	34134.37
666.58	33834.78
666.72	33783.29
666.86	33684.99
667.00	33722.44
667.14	33649.88
667.28	33811.38
667.43	33202.84
667.57	33748.18
667.71	33472.00
667.85	33479.02
667.99	33163.05
668.13	32898.57
668.27	33249.65
668.41	32905.59
668.56	33284.76
668.70	33230.93
668.84	33261.35
668.98	33069.43
669.12	32931.34
669.26	32910.27
669.40	32519.40
669.54	32371.95
669.68	32320.46
669.82	32446.85
669.96	32407.06
670.10	32753.46
670.25	32655.15
670.39	32191.73
670.53	31945.97
670.67	32236.20
670.81	32219.81
670.95	32442.17
671.09	32016.19
671.23	32086.40
671.37	32147.26
671.51	31922.57
671.65	31660.43
671.79	32126.19
671.93	31566.81
672.07	31702.56
672.21	32013.85
672.35	31653.40
672.49	31842.99
672.63	31885.12
672.77	31349.14
672.91	31351.48
673.05	31168.91
673.19	31541.06
673.33	31278.92
673.47	31129.12
673.61	31225.09
673.75	30953.58
673.89	30810.81
674.03	30623.57
674.17	31187.64
674.31	30469.09
674.45	30857.62
674.59	31101.04
674.73	30920.82
674.87	30721.87
675.01	30590.80
675.15	30567.40
675.29	30691.44
675.43	30305.26
675.56	30600.16
675.70	29982.26
675.84	29876.94
675.98	29603.10
676.12	29654.59
676.26	29778.64
676.40	29724.80
676.54	29785.66
676.68	29722.46
676.82	29109.24
676.96	29645.23
677.10	29172.44
677.23	29436.92
677.37	29383.09
677.51	29158.39
677.65	28940.72
677.79	28563.90
677.93	28575.60
678.07	28648.16
678.21	28311.12
678.34	28376.66
678.48	28273.67
678.62	28290.06
678.76	27953.02
678.90	28086.43
679.04	27948.34
679.18	27821.95
679.31	27882.80
679.45	27529.38
679.59	27374.91
679.73	27360.86
679.87	27395.97
680.00	27630.02
680.14	27445.12
680.28	27215.75
680.42	27243.84
680.56	27353.84
680.70	27072.98
680.83	27407.67
680.97	27077.66
681.11	27072.98
681.25	26700.83
681.39	26630.62
681.52	26410.60
681.66	26431.67
681.80	26389.54
681.94	26384.86
682.07	26382.52
682.21	26419.97
682.35	25935.48
682.49	25881.64
682.62	26001.01
682.76	25984.63
682.90	25998.67
683.04	25722.49
683.17	25659.29
683.31	25317.57
683.45	25663.97
683.59	25062.46
683.72	25125.65
683.86	24907.98
684.00	25350.34
684.13	25095.22
684.27	25022.67
684.41	24599.03
684.55	24762.87
684.68	24456.26
684.82	24425.83
684.96	24458.60
685.09	24563.92
685.23	24446.90
685.37	24283.06
685.50	23707.29
685.64	24233.91
685.78	24037.30
685.91	23723.67
686.05	23798.57
686.19	23618.35
686.32	23782.18
686.46	23131.51
686.60	23330.46
686.73	23136.20
686.87	22869.37
687.01	23211.09
687.14	22831.93
687.28	22979.38
687.42	22867.03
687.55	22588.51
687.69	23246.20
687.82	22963.00
687.96	22537.02
688.10	22871.72
688.23	22583.83
688.37	22752.35
688.50	22527.66
688.64	21951.88
688.78	22134.45
688.91	22115.72
689.05	22097.00
689.18	21876.99
689.32	21774.00
689.46	21696.77
689.59	21783.37
689.73	21813.79
689.86	21504.84
690.00	21462.71
690.13	21280.15
690.27	21214.62
690.41	21231.00
690.54	21057.80
690.68	21118.65
690.81	21022.69
690.95	20938.43
691.08	21032.05
691.22	20648.21
691.35	20582.67
691.49	21015.67
691.62	20685.65
691.76	20343.94
691.89	20510.11
692.03	20247.97
692.16	20341.60
692.30	19992.86
692.43	19962.43
692.57	19943.70
692.70	19784.55
692.84	19676.88
692.97	19793.91
693.11	19541.13
693.24	19349.21
693.38	19412.40
693.51	19494.32
693.65	19609.01
693.78	19447.51
693.92	19569.22
694.05	19232.18
694.19	19124.52
694.32	19040.26
694.45	18827.27
694.59	18375.55
694.72	18384.91
694.86	18771.10
694.99	18625.98
695.13	18363.84
695.26	18539.38
695.39	18300.65
695.53	18590.88
695.66	18532.36
695.80	18312.35
695.93	18300.65
696.07	18284.26
696.20	18204.69
696.33	17785.73
696.47	17649.98
696.60	17720.20
696.73	17525.93
696.87	17610.19
697.00	17593.81
697.14	17266.13
697.27	17500.19
697.40	17209.96
697.54	17467.42
697.67	17341.03
697.80	17069.53
697.94	16748.87
698.07	16620.14
698.21	16449.28
698.34	16863.56
698.47	16769.94
698.61	16397.79
698.74	16573.33
698.87	16381.41
699.01	16224.59
699.14	16154.38
699.27	16037.35
699.40	15836.06
699.54	15829.04
699.67	15932.03
699.80	15864.15
699.94	15756.49
700.07	15683.93
700.20	16039.69
700.34	15534.14
700.47	15747.12
700.60	15932.03
700.73	15843.09
700.87	15702.65
701.00	15424.13
701.13	15475.62
701.26	15398.38
701.40	15019.22
701.53	15344.55
701.66	15260.29
701.79	14850.70
701.93	14958.36
702.06	14827.29
702.19	14846.02
702.32	14647.07
702.46	14436.42
702.59	14478.55
702.72	14740.69
702.85	14579.20
702.99	14604.94
703.12	14712.61
703.25	14242.16
703.38	14127.47
703.51	13970.66
703.65	14047.90
703.78	14111.09
703.91	13996.40
704.04	14022.15
704.17	13900.44
704.31	13933.21
704.44	13633.62
704.57	13614.90
704.70	13724.90
704.83	13680.43
704.96	13708.52
705.10	13217.01
705.23	13224.03
>>>>>End Processed Spectral Data<<<<<
