SpectraSuite Data File
++++++++++++++++++++++++++++++++++++
Date: Fri Oct 25 10:43:59 EDT 2013
User: price-jones
Dark Spectrum Present: No
Reference Spectrum Present: No
Number of Sampled Component Spectra: 1
Spectrometers: USB2+H05261
Integration Time (usec): 100000 (USB2+H05261)
Spectra Averaged: 1 (USB2+H05261)
Boxcar Smoothing: 0 (USB2+H05261)
Correct for Electrical Dark: No (USB2+H05261)
Strobe/Lamp Enabled: No (USB2+H05261)
Correct for Detector Non-linearity: No (USB2+H05261)
Correct for Stray Light: No (USB2+H05261)
Number of Pixels in Processed Spectrum: 2048
>>>>>Begin Processed Spectral Data<<<<<
365.73	86.60
365.92	86.60
366.12	86.60
366.32	37.45
366.52	77.24
366.72	74.90
366.91	0.00
367.11	44.47
367.31	9.36
367.51	18.72
367.70	35.11
367.90	9.36
368.10	51.49
368.30	42.13
368.49	49.15
368.69	25.75
368.89	16.38
369.09	7.02
369.28	14.04
369.48	25.75
369.68	74.90
369.87	107.66
370.07	58.51
370.27	42.13
370.47	194.26
370.66	393.21
370.86	463.43
371.06	496.19
371.25	535.98
371.45	475.13
371.65	505.56
371.84	449.38
372.04	409.59
372.24	416.62
372.44	519.60
372.63	503.22
372.83	573.43
373.03	514.92
373.22	540.66
373.42	559.39
373.62	517.26
373.81	493.85
374.01	528.96
374.21	550.03
374.40	566.41
374.60	482.15
374.79	657.69
374.99	622.58
375.19	582.79
375.38	636.63
375.58	545.34
375.78	610.88
375.97	627.26
376.17	669.39
376.37	634.29
376.56	617.90
376.76	589.82
376.95	578.11
377.15	599.18
377.35	664.71
377.54	636.63
377.74	730.25
377.93	685.78
378.13	688.12
378.33	648.33
378.52	683.44
378.72	650.67
378.91	704.50
379.11	660.03
379.31	620.24
379.50	653.01
379.70	744.29
379.89	711.52
380.09	662.37
380.28	678.76
380.48	751.31
380.68	777.06
380.87	720.88
381.07	718.54
381.26	791.10
381.46	678.76
381.65	713.86
381.85	681.10
382.04	706.84
382.24	645.99
382.43	788.76
382.63	648.33
382.83	704.50
383.02	697.48
383.22	791.10
383.41	699.82
383.61	688.12
383.80	774.72
384.00	819.19
384.19	772.38
384.39	840.25
384.58	828.55
384.78	842.59
384.97	823.87
385.17	805.14
385.36	807.48
385.56	788.76
385.75	814.51
385.95	795.78
386.14	795.78
386.34	887.06
386.53	812.17
386.72	835.57
386.92	929.19
387.11	837.91
387.31	866.00
387.50	882.38
387.70	830.89
387.89	884.72
388.09	929.19
388.28	873.02
388.48	943.24
388.67	947.92
388.86	947.92
389.06	954.94
389.25	947.92
389.45	1032.18
389.64	994.73
389.84	1029.84
390.03	924.51
390.22	950.26
390.42	968.98
390.61	1020.47
390.81	1128.14
391.00	1107.07
391.19	1064.94
391.39	999.41
391.58	1151.54
391.78	1111.75
391.97	1020.47
392.16	1027.50
392.36	1076.65
392.55	1071.97
392.75	1032.18
392.94	959.62
393.13	959.62
393.33	978.34
393.52	1022.81
393.71	1167.93
393.91	1179.63
394.10	1205.38
394.29	1219.42
394.49	1090.69
394.68	1245.16
394.88	1174.95
395.07	1287.29
395.26	1181.97
395.46	1256.87
395.65	1242.82
395.84	1233.46
396.04	1235.80
396.23	1165.59
396.42	1165.59
396.62	1245.16
396.81	1242.82
397.00	1214.74
397.19	1287.29
397.39	1231.12
397.58	1453.47
397.77	1413.68
397.97	1355.17
398.16	1399.64
398.35	1579.86
398.55	1350.49
398.74	1530.71
398.93	1603.27
399.12	1542.41
399.32	1598.59
399.51	1516.67
399.70	1556.46
399.90	1540.07
400.09	1680.50
400.28	1650.08
400.47	1577.52
400.67	1636.03
400.86	1769.44
401.05	1614.97
401.24	1713.27
401.44	1774.13
401.63	1717.95
401.82	1820.94
402.01	1734.34
402.21	1813.92
402.40	1743.70
402.59	1778.81
402.78	1710.93
402.97	1788.17
403.17	1696.89
403.36	1743.70
403.55	1788.17
403.74	1893.49
403.93	1877.11
404.13	1865.41
404.32	1914.56
404.51	2003.50
404.70	1944.99
404.89	1975.41
405.09	2113.50
405.28	1998.82
405.47	1952.01
405.66	2017.54
405.85	2010.52
406.05	1994.14
406.24	2111.16
406.43	1961.37
406.62	2022.22
406.81	2186.06
407.00	2150.95
407.20	2022.22
407.39	2033.93
407.58	2141.59
407.77	2153.29
407.96	2319.47
408.15	2265.64
408.34	2197.76
408.54	2349.90
408.73	2331.17
408.92	2282.02
409.11	2293.72
409.30	2258.62
409.49	2183.72
409.68	2338.20
409.87	2310.11
410.07	2382.67
410.26	2293.72
410.45	2485.65
410.64	2612.04
410.83	2438.84
411.02	2626.08
411.21	2691.62
411.40	2593.31
411.59	2710.34
411.78	2607.36
411.98	2532.46
412.17	2651.83
412.36	2572.25
412.55	2642.46
412.74	2677.57
412.93	2860.13
413.12	2686.94
413.31	2967.80
413.50	2841.41
413.69	2888.22
413.88	2836.73
414.07	3035.67
414.26	3012.27
414.45	3012.27
414.64	3063.76
414.83	3009.93
415.02	3023.97
415.22	3112.91
415.41	3094.19
415.60	3122.27
415.79	3220.58
415.98	3344.63
416.17	3304.84
416.36	3276.75
416.55	3346.97
416.74	3241.64
416.93	3370.37
417.12	3251.00
417.31	3536.55
417.50	3361.01
417.69	3449.95
417.88	3414.84
418.07	3431.23
418.26	3503.78
418.45	3527.19
418.64	3646.55
418.83	3632.51
419.02	3648.90
419.21	3595.06
419.39	3548.25
419.58	3616.13
419.77	3536.55
419.96	3705.07
420.15	3662.94
420.34	3709.75
420.53	3702.73
420.72	3925.08
420.91	3880.61
421.10	3948.48
421.29	3880.61
421.48	3859.54
421.67	3936.78
421.86	3871.25
422.05	3805.71
422.24	3836.14
422.43	3889.97
422.61	3681.66
422.80	4140.41
422.99	3941.46
423.18	4105.30
423.37	4117.00
423.56	3957.85
423.75	3953.16
423.94	3946.14
424.13	3730.81
424.32	3850.18
424.50	3936.78
424.69	3962.53
424.88	4133.39
425.07	3967.21
425.26	3880.61
425.45	4004.66
425.64	3779.97
425.83	3913.38
426.01	4018.70
426.20	3997.64
426.39	4084.23
426.58	4032.74
426.77	4058.49
426.96	3957.85
427.15	4037.42
427.33	4016.36
427.52	4107.64
427.71	4156.79
427.90	4227.01
428.09	4285.52
428.28	4203.60
428.46	4166.15
428.65	4131.05
428.84	4229.35
429.03	4327.65
429.22	4107.64
429.40	4243.39
429.59	4056.15
429.78	4004.66
429.97	3985.93
430.16	4105.30
430.34	4156.79
430.53	4184.88
430.72	4205.94
430.91	4348.72
431.10	4400.21
431.28	4409.57
431.47	4631.92
431.66	4828.53
431.85	4561.70
432.03	4662.35
432.22	4821.50
432.41	4564.04
432.60	4685.75
432.79	4807.46
432.97	4784.06
433.16	4835.55
433.35	4540.64
433.54	4758.31
433.72	4830.87
433.91	4624.90
434.10	4793.42
434.28	4882.36
434.47	4887.04
434.66	5022.79
434.85	4865.97
435.03	4919.81
435.22	4990.02
435.41	5259.18
435.59	5210.03
435.78	5109.39
435.97	5198.33
436.16	5287.27
436.34	5025.13
436.53	5266.21
436.72	5158.54
436.90	5256.84
437.09	5186.63
437.28	5259.18
437.46	5205.35
437.65	5284.93
437.84	5123.43
438.02	5273.23
438.21	5165.56
438.40	5093.01
438.58	5387.91
438.77	5416.00
438.96	5305.99
439.14	5568.13
439.33	5619.63
439.52	5544.73
439.70	5483.88
439.89	5891.13
440.08	5652.39
440.26	5774.10
440.45	5731.97
440.63	6059.65
440.82	6033.90
441.01	5970.71
441.19	6033.90
441.38	6094.76
441.57	6104.12
441.75	6296.04
441.94	6392.00
442.12	6490.31
442.31	6448.18
442.50	6356.90
442.68	6368.60
442.87	6413.07
443.05	6354.55
443.24	6534.78
443.43	6485.62
443.61	6523.07
443.80	6546.48
443.98	6289.02
444.17	6282.00
444.35	6623.72
444.54	6635.42
444.73	6691.59
444.91	6483.28
445.10	6656.48
445.28	6431.79
445.47	6310.08
445.65	6469.24
445.84	6698.61
446.02	6707.98
446.21	6675.21
446.39	6574.56
446.58	6656.48
446.77	6672.87
446.95	6553.50
447.14	6846.07
447.32	6848.41
447.51	6675.21
447.69	6832.02
447.88	6703.29
448.06	6869.47
448.25	6635.42
448.43	6757.13
448.62	6623.72
448.80	6810.96
448.99	7000.54
449.17	6815.64
449.36	6754.79
449.54	6958.41
449.73	7133.95
449.91	7047.35
450.10	7096.50
450.28	7246.30
450.46	7283.75
450.65	7342.26
450.83	7241.62
451.02	7208.85
451.20	7279.07
451.39	7180.76
451.57	7131.61
451.76	7143.32
451.94	7227.57
452.13	7393.75
452.31	7368.01
452.49	7267.36
452.68	7267.36
452.86	7250.98
453.05	7192.47
453.23	7375.03
453.42	7375.03
453.60	7452.27
453.78	7571.63
453.97	7604.40
454.15	7543.55
454.34	7372.69
454.52	7590.36
454.70	7496.74
454.89	7599.72
455.07	7564.61
455.26	7562.27
455.44	7831.43
455.62	7868.88
455.81	7866.54
455.99	7786.96
456.17	7747.17
456.36	7939.10
456.54	8149.75
456.73	8049.10
456.91	8159.11
457.09	8461.04
457.28	8264.43
457.46	8128.68
457.64	8102.93
457.83	8203.58
458.01	8088.89
458.19	8538.27
458.38	8182.51
458.56	8194.22
458.74	8180.17
458.93	8383.80
459.11	8402.52
459.29	8545.30
459.48	8425.93
459.66	8468.06
459.84	8496.14
460.03	8585.08
460.21	8571.04
460.39	8744.24
460.57	8542.96
460.76	8585.08
460.94	8671.68
461.12	8865.95
461.31	8746.58
461.49	8458.70
461.67	8828.50
461.85	8999.36
462.04	9008.72
462.22	8973.61
462.40	9022.77
462.59	9053.19
462.77	9114.05
462.95	8936.17
463.13	8884.67
463.32	9081.28
463.50	9114.05
463.68	9195.96
463.86	9057.87
464.05	8877.65
464.23	9186.60
464.41	9121.07
464.59	8961.91
464.78	9350.44
464.96	9245.12
465.14	9200.65
465.32	9261.50
465.50	9259.16
465.69	9434.70
465.87	9397.25
466.05	9060.21
466.23	9231.07
466.41	9184.26
466.60	9518.96
466.78	9240.44
466.96	9144.47
467.14	9245.12
467.32	9455.76
467.51	9598.54
467.69	9296.61
467.87	9497.89
468.05	9729.61
468.23	9549.39
468.41	9390.23
468.60	9668.75
468.78	10015.15
468.96	9731.95
469.14	9804.50
469.32	9928.55
469.50	9582.15
469.69	9795.14
469.87	9909.83
470.05	9879.40
470.23	10022.17
470.41	9870.04
470.59	10134.52
470.77	9996.43
470.95	10076.01
471.14	10139.20
471.32	10090.05
471.50	10352.19
471.68	10637.73
471.86	10485.60
472.04	10370.91
472.22	10754.76
472.40	10434.11
472.58	10443.47
472.77	10509.01
472.95	10827.32
473.13	10871.79
473.31	10457.51
473.49	10782.85
473.67	10637.73
473.85	10813.28
474.03	10927.96
474.21	10979.45
474.39	10977.11
474.57	11091.80
474.75	11496.71
474.93	11480.33
475.12	11281.38
475.30	11363.30
475.48	11028.60
475.66	11342.24
475.84	11255.64
476.02	11604.38
476.20	11536.50
476.38	11712.04
476.56	12049.08
476.74	12107.59
476.92	12042.06
477.10	12109.93
477.28	12114.61
477.46	12343.99
477.64	12299.52
477.82	12461.01
478.00	12578.04
478.18	12781.67
478.36	12683.36
478.54	12851.88
478.72	12758.26
478.90	13118.70
479.08	12982.95
479.26	13226.37
479.44	13202.96
479.62	13338.71
479.80	13453.40
479.98	13540.00
480.16	13689.79
480.34	13851.29
480.52	14160.24
480.70	13996.40
480.88	13951.93
481.06	14125.13
481.24	14188.33
481.41	14415.36
481.59	14633.03
481.77	14588.56
481.95	14530.05
482.13	14796.87
482.31	14785.16
482.49	15000.49
482.67	15094.11
482.85	15197.10
483.03	15370.30
483.21	15314.13
483.39	15735.42
483.57	15426.47
483.74	15550.52
483.92	15662.86
484.10	15716.70
484.28	16051.39
484.46	15946.07
484.64	16617.80
484.82	16262.04
485.00	16283.11
485.18	16744.19
485.35	16709.08
485.53	16318.22
485.71	16538.23
485.89	16393.11
486.07	16610.78
486.25	16730.15
486.43	17003.99
486.61	17209.96
486.78	17334.01
486.96	17547.00
487.14	17722.54
487.32	17891.06
487.50	18157.88
487.68	18469.17
487.85	18686.84
488.03	18373.21
488.21	18607.26
488.39	18635.35
488.57	18553.43
488.75	19061.32
488.92	19332.82
489.10	19412.40
489.28	19716.67
489.46	19957.75
489.64	19740.08
489.81	20233.93
489.99	20116.90
490.17	20545.22
490.35	20362.66
490.53	20858.85
490.70	20854.17
490.88	20723.10
491.06	20807.36
491.24	21020.35
491.41	21081.21
491.59	21069.50
491.77	20807.36
491.95	21404.20
492.13	21240.36
492.30	21731.87
492.48	21710.81
492.66	21769.32
492.84	21972.95
493.01	22288.92
493.19	22422.33
493.37	21986.99
493.54	22733.62
493.72	22906.82
493.90	22778.09
494.08	23068.32
494.25	23358.55
494.43	23421.74
494.61	23283.65
494.79	23590.26
494.96	23566.85
495.14	23779.84
495.32	23826.65
495.49	23981.13
495.67	23981.13
495.85	24500.73
496.02	24339.23
496.20	24369.66
496.38	24725.42
496.55	25097.56
496.73	25406.52
496.91	25015.65
497.09	25640.57
497.26	24821.38
497.44	25254.38
497.62	25460.35
497.79	25680.36
497.97	25352.68
498.14	25928.45
498.32	25645.25
498.50	26068.89
498.67	26225.70
498.85	26328.69
499.03	26604.87
499.20	26363.79
499.38	26551.04
499.56	26541.68
499.73	26569.76
499.91	26780.41
500.08	26862.33
500.26	26511.25
500.44	26775.73
500.61	26630.62
500.79	26771.05
500.97	27068.30
501.14	27552.79
501.32	27075.32
501.49	27402.99
501.67	27377.25
501.84	27491.93
502.02	27662.79
502.20	27885.14
502.37	28006.85
502.55	27882.80
502.72	28016.21
502.90	28278.35
503.07	28474.96
503.25	28594.32
503.43	28254.95
503.60	28395.38
503.78	28313.46
503.95	28673.90
504.13	28716.03
504.30	28751.14
504.48	28898.59
504.65	29331.59
504.83	29371.38
505.01	29488.41
505.18	29310.53
505.36	29855.87
505.53	29509.47
505.71	30029.07
505.88	29970.56
506.06	29479.05
506.23	29890.98
506.41	29670.97
506.58	30118.01
506.76	30066.52
506.93	29942.47
507.11	29717.78
507.28	30616.55
507.46	30433.99
507.63	30192.91
507.81	30649.32
507.98	30403.56
508.16	30476.12
508.33	31084.65
508.50	30974.65
508.68	31087.00
508.85	31564.46
509.03	30972.31
509.20	31250.83
509.38	31246.15
509.55	31749.37
509.73	31592.55
509.90	31934.27
510.08	31695.53
510.25	31796.18
510.42	31850.01
510.60	31697.88
510.77	32149.60
510.95	31892.14
511.12	32278.33
511.30	32498.34
511.47	32545.15
511.64	32645.79
511.82	32671.54
511.99	32432.80
512.17	32484.30
512.34	32664.52
512.51	32547.49
512.69	33039.00
512.86	33251.99
513.04	33174.75
513.21	33092.83
513.38	33099.86
513.56	33343.27
513.73	33352.63
513.90	33432.21
514.08	33301.14
514.25	33490.73
514.43	33404.13
514.60	33476.68
514.77	33572.64
514.95	34017.35
515.12	33614.77
515.29	34022.03
515.47	34623.54
515.64	33963.51
515.81	33806.70
515.99	34071.18
516.16	34164.80
516.33	33659.24
516.51	33897.98
516.68	33619.46
516.85	33827.76
517.03	33802.02
517.20	34106.29
517.37	34408.22
517.54	34536.94
517.72	34312.25
517.89	34487.79
518.06	34265.44
518.24	34218.63
518.41	34597.80
518.58	34768.66
518.75	34827.17
518.93	34962.92
519.10	35089.31
519.27	35351.45
519.45	35578.48
519.62	35517.63
519.79	35178.25
519.96	35311.66
520.14	35779.77
520.31	35718.92
520.48	35651.04
520.65	35793.81
520.83	36013.82
521.00	36133.19
521.17	36009.14
521.34	36034.89
521.52	36631.72
521.69	36804.92
521.86	36823.65
522.03	36641.09
522.20	36563.85
522.38	36423.42
522.55	36582.57
522.72	36491.29
522.89	36898.55
523.07	37137.28
523.24	36732.37
523.41	37479.00
523.58	37188.77
523.75	37563.26
523.92	37322.18
524.10	37221.54
524.27	37624.11
524.44	37659.22
524.61	37694.33
524.78	37640.50
524.96	37411.12
525.13	38181.16
525.30	37670.92
525.47	38066.47
525.64	38036.05
525.81	38043.07
525.98	37933.06
526.16	37305.80
526.33	37766.88
526.50	37881.57
526.67	37834.76
526.84	37661.56
527.01	37996.26
527.18	37806.67
527.36	38258.40
527.53	38124.99
527.70	38761.61
527.87	38604.80
528.04	38422.23
528.21	38909.07
528.38	38590.75
528.55	39014.39
528.72	39342.06
528.89	39377.17
529.07	39021.41
529.24	39225.04
529.41	39250.78
529.58	39108.01
529.75	38962.90
529.92	39283.55
530.09	39416.96
530.26	39452.07
530.43	40226.79
530.60	39445.05
530.77	39508.24
530.94	39955.29
531.11	39445.05
531.28	39578.46
531.46	39711.87
531.63	40339.13
531.80	40072.31
531.97	39508.24
532.14	39793.79
532.31	39246.10
532.48	39768.04
532.65	39803.15
532.82	40084.01
532.99	40060.61
533.16	40060.61
533.33	40151.89
533.50	40154.23
533.67	40601.27
533.84	40182.32
534.01	40928.95
534.18	40397.65
534.35	40219.77
534.52	40243.17
534.69	40612.98
534.86	40755.75
535.03	40832.99
535.20	41174.70
535.37	41383.01
535.54	41027.25
535.71	41378.33
535.88	41301.09
536.05	40622.34
536.22	41097.47
536.38	40821.28
536.55	41235.56
536.72	41076.40
536.89	40865.75
537.06	41050.66
537.23	41551.53
537.40	41242.58
537.57	41359.61
537.74	41186.41
537.91	41558.55
538.08	41722.39
538.25	41383.01
538.42	41600.68
538.59	41691.96
538.75	41111.51
538.92	41420.46
539.09	41689.62
539.26	41811.33
539.43	41694.30
539.60	42073.47
539.77	41715.37
539.94	41717.71
540.11	41904.95
540.28	41441.53
540.44	41663.88
540.61	41652.17
540.78	41268.33
540.95	41949.42
541.12	41860.48
541.29	41710.69
541.46	42206.88
541.62	42319.23
541.79	42527.53
541.96	41888.57
542.13	42183.48
542.30	42293.48
542.47	42391.78
542.63	41872.18
542.80	42801.38
542.97	42801.38
543.14	42869.25
543.31	42855.21
543.48	43171.18
543.64	43243.74
543.81	43012.02
543.98	43306.93
544.15	43157.14
544.32	42897.34
544.48	43421.62
544.65	43428.64
544.82	43019.05
544.99	42967.55
545.16	43220.33
545.32	43597.16
545.49	43250.76
545.66	43665.03
545.83	43629.93
546.00	43342.04
546.16	43559.71
546.33	43103.31
546.50	43285.87
546.67	43225.01
546.83	43058.84
547.00	43313.95
547.17	43693.12
547.34	43419.28
547.50	43606.52
547.67	44388.26
547.84	43845.26
548.00	44549.76
548.17	44098.03
548.34	43674.40
548.51	44542.74
548.67	44198.68
548.84	44144.84
549.01	43983.35
549.18	44062.93
549.34	43915.47
549.51	44339.11
549.68	44254.85
549.84	44406.98
550.01	44472.52
550.18	44072.29
550.34	44439.75
550.51	44247.83
550.68	44341.45
550.84	43768.02
551.01	44399.96
551.18	44477.20
551.34	44296.98
551.51	44502.95
551.68	44561.46
551.84	44552.10
552.01	44552.10
552.18	44816.58
552.34	44217.40
552.51	44458.48
552.68	44406.98
552.84	44584.86
553.01	44839.98
553.18	44664.44
553.34	44767.43
553.51	44928.92
553.67	45059.99
553.84	45633.42
554.01	44849.35
554.17	45017.86
554.34	45329.16
554.51	45113.83
554.67	45282.34
554.84	45184.04
555.00	44933.60
555.17	44804.88
555.33	44919.56
555.50	45221.49
555.67	45038.93
555.83	44779.13
556.00	45151.27
556.16	45701.30
556.33	45184.04
556.50	45219.15
556.66	45226.17
556.83	45090.42
556.99	45364.26
557.16	45511.72
557.32	45303.41
557.49	45230.85
557.65	45399.37
557.82	45160.64
557.98	45478.95
558.15	44933.60
558.32	45708.32
558.48	44982.76
558.65	45249.58
558.81	45411.07
558.98	45659.17
559.14	45045.95
559.31	45319.79
559.47	45792.58
559.64	45556.19
559.80	45523.42
559.97	45666.19
560.13	45860.46
560.30	45668.53
560.46	45834.71
560.63	45614.70
560.79	45607.68
560.96	45951.74
561.12	45619.38
561.29	45443.84
561.45	45556.19
561.61	45972.80
561.78	45757.47
561.94	45258.94
562.11	45539.80
562.27	45287.03
562.44	45722.37
562.60	45736.41
562.77	45947.06
562.93	46192.81
563.10	45647.47
563.26	45635.77
563.42	45846.41
563.59	45844.07
563.75	45776.20
563.92	45834.71
564.08	46284.09
564.24	46525.17
564.41	46075.79
564.57	46052.38
564.74	45528.10
564.90	46251.33
565.07	45977.48
565.23	45949.40
565.39	45680.24
565.56	46291.12
565.72	45188.72
565.88	46195.15
566.05	46192.81
566.21	45965.78
566.38	46073.45
566.54	46012.59
566.70	46206.86
566.87	46562.62
567.03	46321.54
567.19	46527.51
567.36	46089.83
567.52	46099.19
567.68	46319.20
567.85	45572.57
568.01	46136.64
568.17	46071.10
568.34	46424.53
568.50	46342.61
568.66	46241.96
568.83	45921.31
568.99	45804.28
569.15	46335.59
569.32	45963.44
569.48	46064.08
569.64	46674.96
569.81	46122.60
569.97	46110.89
570.13	45998.55
570.30	46143.66
570.46	46024.29
570.62	45645.13
570.78	45968.12
570.95	45904.93
571.11	46405.80
571.27	45949.40
571.43	45617.04
571.60	46335.59
571.76	46281.75
571.92	46375.37
572.09	45823.01
572.25	46169.41
572.41	46761.56
572.57	46307.50
572.74	46848.16
572.90	46295.80
573.06	45984.51
573.22	46162.39
573.38	46291.12
573.55	46260.69
573.71	46438.57
573.87	46791.99
574.03	46571.98
574.20	46623.47
574.36	46038.34
574.52	45979.82
574.68	46019.61
574.84	46576.66
575.01	46150.68
575.17	46314.52
575.33	46211.54
575.49	46398.78
575.65	46422.19
575.82	46628.15
575.98	46436.23
576.14	46508.79
576.30	46394.10
576.46	46363.67
576.62	46459.63
576.79	46436.23
576.95	45897.91
577.11	46539.21
577.27	46363.67
577.43	46586.02
577.59	46403.46
577.75	46007.91
577.92	45893.22
578.08	46021.95
578.24	46000.89
578.40	46054.72
578.56	46337.93
578.72	46382.40
578.88	46665.60
579.04	47009.66
579.21	46103.87
579.37	46412.82
579.53	46384.74
579.69	46234.94
579.85	46202.18
580.01	46492.40
580.17	46347.29
580.33	46382.40
580.49	46609.43
580.65	46719.43
580.82	45727.05
580.98	46361.33
581.14	46562.62
581.30	46799.01
581.46	46351.97
581.62	46719.43
581.78	46497.08
581.94	46602.41
582.10	46454.95
582.26	46188.13
582.42	46508.79
582.58	46515.81
582.74	46550.91
582.90	46848.16
583.06	46700.71
583.22	46614.11
583.38	46529.85
583.54	46366.01
583.70	46461.97
583.86	46513.47
584.02	46637.51
584.18	46623.47
584.34	46281.75
584.50	46169.41
584.66	46459.63
584.82	46073.45
584.98	46333.24
585.14	46522.83
585.30	46436.23
585.46	46546.23
585.62	46213.88
585.78	45869.82
585.94	46052.38
586.10	46504.10
586.26	46408.14
586.42	46469.00
586.58	46485.38
586.74	46681.98
586.90	46567.30
587.06	46190.47
587.22	46576.66
587.38	46300.48
587.54	46820.08
587.70	46824.76
587.86	46562.62
588.02	46270.05
588.18	46529.85
588.34	46134.30
588.49	46052.38
588.65	45921.31
588.81	46127.28
588.97	46113.23
589.13	46047.70
589.29	46344.95
589.45	46506.44
589.61	46351.97
589.77	46712.41
589.93	46670.28
590.08	46534.53
590.24	46892.63
590.40	46969.87
590.56	46883.27
590.72	46309.84
590.88	46415.16
591.04	46883.27
591.20	47061.15
591.35	46918.38
591.51	47243.71
591.67	46600.07
591.83	46740.50
591.99	46536.87
592.15	46412.82
592.31	46443.25
592.46	46646.88
592.62	46873.91
592.78	46916.04
592.94	46918.38
593.10	46623.47
593.26	46869.23
593.41	46628.15
593.57	46431.55
593.73	46344.95
593.89	46628.15
594.05	46845.82
594.20	46677.30
594.36	46878.59
594.52	46499.42
594.68	46445.59
594.84	45975.14
594.99	46834.12
595.15	46632.83
595.31	46672.62
595.47	46525.17
595.62	47058.81
595.78	46810.71
595.94	46967.53
596.10	46880.93
596.25	47051.79
596.41	46784.97
596.57	46660.92
596.73	47040.09
596.88	46230.26
597.04	46391.76
597.20	46536.87
597.36	46878.59
597.51	46635.17
597.67	47058.81
597.83	46543.89
597.99	46803.69
598.14	46806.03
598.30	46433.89
598.46	46384.74
598.61	46483.04
598.77	46714.75
598.93	46770.93
599.09	46733.48
599.24	47437.98
599.40	46934.76
599.56	47049.45
599.71	46791.99
599.87	46852.84
600.03	46726.46
600.18	46642.20
600.34	46787.31
600.50	46897.31
600.65	46394.10
600.81	46845.82
600.97	46759.22
601.12	46483.04
601.28	46890.29
601.44	46656.24
601.59	46265.37
601.75	46466.66
601.91	46368.35
602.06	45998.55
602.22	46646.88
602.37	46667.94
602.53	46539.21
602.69	46813.05
602.84	46438.57
603.00	46443.25
603.16	46302.82
603.31	46483.04
603.47	46700.71
603.62	46600.07
603.78	46829.44
603.94	46705.39
604.09	46571.98
604.25	46176.43
604.40	46515.81
604.56	46337.93
604.71	46588.36
604.87	46408.14
605.03	46358.99
605.18	46377.72
605.34	46595.38
605.49	45991.53
605.65	46277.07
605.80	46639.86
605.96	46487.72
606.12	46843.48
606.27	46747.52
606.43	46358.99
606.58	46539.21
606.74	46342.61
606.89	46651.56
607.05	46431.55
607.20	46424.53
607.36	46366.01
607.51	46763.90
607.67	46380.06
607.82	46494.74
607.98	46167.07
608.13	46333.24
608.29	46087.49
608.44	45888.54
608.60	45851.09
608.75	46068.76
608.91	46469.00
609.06	45879.18
609.22	46108.55
609.37	46230.26
609.53	46234.94
609.68	46066.42
609.84	46230.26
609.99	45914.29
610.15	45691.94
610.30	45670.87
610.46	45890.88
610.61	45818.33
610.76	45652.15
610.92	46129.62
611.07	46199.83
611.23	45979.82
611.38	45647.47
611.54	45804.28
611.69	45951.74
611.84	45858.12
612.00	45595.98
612.15	45610.02
612.31	45710.66
612.46	45745.77
612.62	45759.81
612.77	45811.31
612.92	45867.48
613.08	45687.26
613.23	45198.09
613.39	45514.06
613.54	45170.00
613.69	45474.27
613.85	45312.77
614.00	45656.83
614.15	45989.19
614.31	45263.62
614.46	45914.29
614.62	45502.35
614.77	45542.14
614.92	45207.45
615.08	45132.55
615.23	45146.59
615.38	45429.80
615.54	45179.36
615.69	44949.99
615.84	45010.84
616.00	45670.87
616.15	45071.70
616.30	45132.55
616.46	44966.37
616.61	44999.14
616.76	44626.99
616.92	44690.19
617.07	44587.21
617.22	45081.06
617.37	44938.29
617.53	45460.23
617.68	45312.77
617.83	44945.31
617.99	44919.56
618.14	44547.42
618.29	44432.73
618.45	44629.34
618.60	44540.39
618.75	44713.59
618.90	44540.39
619.06	44622.31
619.21	44844.66
619.36	45324.47
619.51	44823.60
619.67	44540.39
619.82	44727.64
619.97	44648.06
620.12	44493.58
620.28	44289.96
620.43	44217.40
620.58	44474.86
620.73	44479.54
620.89	44612.95
621.04	44390.60
621.19	44472.52
621.34	44800.19
621.49	44346.13
621.65	44315.70
621.80	44762.75
621.95	44388.26
622.10	44346.13
622.25	44114.42
622.41	44219.74
622.56	44091.01
622.71	44577.84
622.86	44353.15
623.01	44013.77
623.16	43765.68
623.32	44140.16
623.47	44034.84
623.62	44009.09
623.77	44009.09
623.92	44210.38
624.07	43887.39
624.23	43889.73
624.38	43653.33
624.53	43878.02
624.68	43955.26
624.83	43768.02
624.98	43613.54
625.13	43260.12
625.29	43878.02
625.44	43379.49
625.59	43115.01
625.74	43262.46
625.89	43332.68
626.04	43077.56
626.19	43320.98
626.34	43564.39
626.49	43580.78
626.65	43421.62
626.80	43931.86
626.95	43309.27
627.10	43171.18
627.25	43002.66
627.40	42972.24
627.55	42721.80
627.70	42595.41
627.85	43054.15
628.00	42738.18
628.15	43702.48
628.30	43023.73
628.45	42777.97
628.60	42440.93
628.76	42911.38
628.91	42974.58
629.06	42703.07
629.21	42738.18
629.36	42382.42
629.51	42586.05
629.66	42541.58
629.81	42607.11
629.96	42899.68
630.11	42803.72
630.26	42569.66
630.41	43117.35
630.56	42761.59
630.71	42216.24
630.86	42609.45
631.01	42368.38
631.16	42564.98
631.31	42429.23
631.46	42040.70
631.61	42281.78
631.76	42658.60
631.91	42174.11
632.06	42756.91
632.21	42534.56
632.36	42513.49
632.51	41890.91
632.66	42274.76
632.81	41902.61
632.96	41752.82
633.10	41979.85
633.25	42155.39
633.40	42227.95
633.55	42089.85
633.70	42314.55
633.85	41961.12
634.00	41963.46
634.15	42124.96
634.30	41897.93
634.45	41785.58
634.60	41813.67
634.75	41907.29
634.90	42000.91
635.05	41684.94
635.19	41244.92
635.34	41989.21
635.49	42019.64
635.64	41560.89
635.79	41399.40
635.94	41762.18
636.09	41855.80
636.24	41254.28
636.39	41270.67
636.53	41324.50
636.68	41820.69
636.83	41364.29
636.98	41799.63
637.13	40938.31
637.28	41855.80
637.43	41710.69
637.57	41841.76
637.72	41364.29
637.87	41258.96
638.02	41553.87
638.17	41347.90
638.32	41116.19
638.46	41308.11
638.61	41441.53
638.76	41394.71
638.91	41584.30
639.06	41434.50
639.20	41537.49
639.35	41186.41
639.50	41294.07
639.65	41174.70
639.80	41060.02
639.94	40837.67
640.09	40938.31
640.24	40779.15
640.39	40615.32
640.54	40779.15
640.68	41069.38
640.83	40371.90
640.98	40715.96
641.13	40634.04
641.27	41078.74
641.42	40215.08
641.57	40390.62
641.72	40835.33
641.86	40322.75
642.01	40294.66
642.16	40011.46
642.31	40046.57
642.45	40278.28
642.60	40147.21
642.75	40561.48
642.90	40474.88
643.04	40584.89
643.19	40289.98
643.34	40357.86
643.48	40175.30
643.63	40205.72
643.78	40236.15
643.93	40531.06
644.07	40229.13
644.22	39945.92
644.37	39938.90
644.51	39894.43
644.66	40116.78
644.81	40264.24
644.95	40154.23
645.10	39852.30
645.25	40315.73
645.39	40484.25
645.54	39807.83
645.69	39849.96
645.83	40175.30
645.98	40044.23
646.13	39611.23
646.27	40027.84
646.42	39428.66
646.57	39587.82
646.71	39466.11
646.86	40060.61
647.00	40044.23
647.15	39723.57
647.30	39583.14
647.44	39210.99
647.59	39440.37
647.74	39658.04
647.88	39592.50
648.03	39866.34
648.17	39510.58
648.32	39070.56
648.47	39079.92
648.61	39239.08
648.76	39531.65
648.90	39332.70
649.05	39239.08
649.20	39351.43
649.34	39234.40
649.49	39215.68
649.63	38986.30
649.78	39468.45
649.92	39112.69
650.07	39466.11
650.21	38754.59
650.36	39173.55
650.51	39093.97
650.65	39606.55
650.80	39651.02
650.94	39075.24
651.09	38892.68
651.23	39138.44
651.38	39283.55
651.52	38473.73
651.67	38731.18
651.81	38628.20
651.96	38719.48
652.10	38707.78
652.25	38962.90
652.39	39138.44
652.54	38925.45
652.68	38724.16
652.83	38693.74
652.97	39035.45
653.12	38651.61
653.26	38314.57
653.41	38220.95
653.55	37968.17
653.70	38410.53
653.84	38508.83
653.99	38211.59
654.13	38120.31
654.27	38167.12
654.42	38036.05
654.56	38089.88
654.71	38345.00
654.85	38246.69
655.00	38237.33
655.14	37954.13
655.29	38043.07
655.43	38033.71
655.57	37846.46
655.72	37914.34
655.86	37357.29
656.01	37556.24
656.15	37741.14
656.30	37720.07
656.44	37689.65
656.58	37425.17
656.73	37773.91
656.87	37947.11
657.01	37874.55
657.16	37593.68
657.30	37198.13
657.45	36875.14
657.59	37408.78
657.73	37434.53
657.88	37890.93
658.02	37874.55
658.16	37841.78
658.31	38101.58
658.45	37324.52
658.60	37251.97
658.74	37813.70
658.88	37446.23
659.03	37291.76
659.17	37216.86
659.31	37221.54
659.46	36940.68
659.60	37523.47
659.74	37282.39
659.89	36861.10
660.03	36458.52
660.17	37038.98
660.32	36896.20
660.46	37060.04
660.60	37097.49
660.74	36598.96
660.89	36753.43
661.03	36474.91
661.17	36486.61
661.32	36392.99
661.46	36835.35
661.60	36671.51
661.74	36613.00
661.89	36032.55
662.03	36814.29
662.17	36306.39
662.31	36311.07
662.46	36584.91
662.60	36685.56
662.74	36301.71
662.88	36217.45
663.03	36030.21
663.17	35819.56
663.31	35906.16
663.45	35845.30
663.60	35622.95
663.74	35529.33
663.88	35625.29
664.02	35426.35
664.17	36037.23
664.31	35562.10
664.45	35756.36
664.59	35068.25
664.73	35419.33
664.88	35751.68
665.02	35234.42
665.16	35377.20
665.30	35459.12
665.44	35625.29
665.59	35030.80
665.73	34845.90
665.87	34794.40
666.01	34838.87
666.15	35063.57
666.29	35386.56
666.44	35328.05
666.58	34740.57
666.72	34937.18
666.86	34740.57
667.00	35136.12
667.14	34225.65
667.28	34335.66
667.43	34419.92
667.57	34309.91
667.71	34445.66
667.85	34546.31
667.99	34258.42
668.13	34036.07
668.27	34431.62
668.41	34356.72
668.56	34178.84
668.70	34174.16
668.84	33694.35
668.98	33565.62
669.12	33926.07
669.26	33572.64
669.40	33837.12
669.54	33703.71
669.68	33415.83
669.82	33734.14
669.96	33095.18
670.10	33603.07
670.25	33408.81
670.39	33195.82
670.53	32947.72
670.67	33118.58
670.81	33460.30
670.95	33001.55
671.09	33003.89
671.23	32973.47
671.37	32893.89
671.51	32694.94
671.65	32821.33
671.79	32580.26
671.93	32716.01
672.07	32720.69
672.21	32570.90
672.35	31995.12
672.49	32503.02
672.63	32503.02
672.77	32659.84
672.91	32397.70
673.05	32182.37
673.19	31945.97
673.33	32034.91
673.47	31732.98
673.61	31866.39
673.75	31536.38
673.89	31854.69
674.03	31232.11
674.17	31882.78
674.31	31325.73
674.45	31400.63
674.59	31641.70
674.73	31819.58
674.87	31454.46
675.01	31094.02
675.15	31112.74
675.29	31220.41
675.43	30735.92
675.56	31180.62
675.70	30974.65
675.84	30443.35
675.98	30085.25
676.12	30471.43
676.26	30689.10
676.40	30668.04
676.54	30611.87
676.68	30700.81
676.82	29823.11
676.96	30417.60
677.10	30340.36
677.23	30031.41
677.37	29605.44
677.51	29710.76
677.65	29692.04
677.79	29436.92
677.93	29139.67
678.07	29392.45
678.21	28891.57
678.34	29071.79
678.48	28952.43
678.62	28882.21
678.76	28783.91
678.90	28631.77
679.04	28381.34
679.18	28720.71
679.31	28304.10
679.45	28098.13
679.59	28257.29
679.73	27899.19
679.87	27962.38
680.00	28018.55
680.14	28030.26
680.28	28048.98
680.42	27901.53
680.56	27967.06
680.70	27894.50
680.83	28006.85
680.97	27868.76
681.11	27271.92
681.25	27440.44
681.39	27454.48
681.52	27204.05
681.66	27070.64
681.80	27023.83
681.94	26874.03
682.07	27274.26
682.21	26675.09
682.35	26455.08
682.49	26803.82
682.62	26766.37
682.76	26331.03
682.90	26656.36
683.04	26288.90
683.17	26188.25
683.31	26047.82
683.45	25949.52
683.59	26068.89
683.72	25844.20
683.86	26005.69
684.00	25783.34
684.13	25647.59
684.27	25202.89
684.41	25443.96
684.55	25348.00
684.68	25226.29
684.82	25296.51
684.96	25008.62
685.09	24989.90
685.23	25092.88
685.37	24816.70
685.50	24992.24
685.64	24975.86
685.78	24180.07
685.91	24449.24
686.05	24240.93
686.19	24006.87
686.32	23882.83
686.46	23714.31
686.60	23410.04
686.73	23793.89
686.87	23262.58
687.01	23108.11
687.14	23323.44
687.28	23068.32
687.42	23325.78
687.55	23204.07
687.69	23314.08
687.82	23033.21
687.96	23424.08
688.10	22951.29
688.23	22838.95
688.37	22696.17
688.50	22775.75
688.64	22583.83
688.78	22551.06
688.91	22560.42
689.05	22544.04
689.18	22288.92
689.32	21876.99
689.46	22113.38
689.59	22742.99
689.73	22403.61
689.86	22359.14
690.00	21851.24
690.13	21886.35
690.27	21832.52
690.41	21624.21
690.54	21425.26
690.68	21193.55
690.81	21046.10
690.95	21584.42
691.08	21294.19
691.22	21380.79
691.35	21408.88
691.49	21348.03
691.62	20936.09
691.76	20973.54
691.89	20826.09
692.03	20615.44
692.16	20933.75
692.30	20545.22
692.43	20140.31
692.57	20414.15
692.70	20175.42
692.84	20306.49
692.97	20147.33
693.11	20149.67
693.24	19775.19
693.38	19943.70
693.51	19983.49
693.65	19836.04
693.78	19939.02
693.92	19910.94
694.05	19428.79
694.19	19442.83
694.32	19150.26
694.45	19061.32
694.59	19349.21
694.72	19091.75
694.86	18965.36
694.99	18848.33
695.13	19166.65
695.26	18644.71
695.39	18764.07
695.53	18831.95
695.66	18735.99
695.80	18497.25
695.93	18654.07
696.07	18464.49
696.20	18368.52
696.33	18700.88
696.47	18232.77
696.60	18452.78
696.73	17851.27
696.87	17989.36
697.00	17907.44
697.14	17762.33
697.27	17919.14
697.40	17671.04
697.54	17392.52
697.67	17530.61
697.80	17294.22
697.94	17202.94
698.07	16828.45
698.21	17186.55
698.34	17254.43
698.47	17029.74
698.61	16844.84
698.74	16840.15
698.87	16594.40
699.01	16468.01
699.14	16248.00
699.27	16280.77
699.40	16372.05
699.54	16367.37
699.67	16425.88
699.80	16341.62
699.94	16060.76
700.07	16056.08
700.20	16194.17
700.34	16046.71
700.47	16081.82
700.60	16222.25
700.73	16016.29
700.87	15941.39
701.00	15906.28
701.13	15414.77
701.26	15639.46
701.40	15435.83
701.53	15253.27
701.66	15477.96
701.79	15276.68
701.93	15002.83
702.06	15000.49
702.19	15049.64
702.32	14899.85
702.46	15000.49
702.59	14878.79
702.72	14918.57
702.85	14796.87
702.99	14712.61
703.12	14808.57
703.25	14712.61
703.38	14445.79
703.51	14295.99
703.65	14321.74
703.78	14324.08
703.91	14139.18
704.04	14216.41
704.17	14031.51
704.31	14232.80
704.44	13881.72
704.57	13839.59
704.70	13806.82
704.83	13846.61
704.96	13769.37
705.10	13872.36
705.23	13628.94
>>>>>End Processed Spectral Data<<<<<
