SpectraSuite Data File
++++++++++++++++++++++++++++++++++++
Date: Fri Oct 25 10:43:40 EDT 2013
User: price-jones
Dark Spectrum Present: No
Reference Spectrum Present: No
Number of Sampled Component Spectra: 1
Spectrometers: USB2+H05261
Integration Time (usec): 100000 (USB2+H05261)
Spectra Averaged: 1 (USB2+H05261)
Boxcar Smoothing: 0 (USB2+H05261)
Correct for Electrical Dark: No (USB2+H05261)
Strobe/Lamp Enabled: No (USB2+H05261)
Correct for Detector Non-linearity: No (USB2+H05261)
Correct for Stray Light: No (USB2+H05261)
Number of Pixels in Processed Spectrum: 2048
>>>>>Begin Processed Spectral Data<<<<<
365.73	180.22
365.92	180.22
366.12	180.22
366.32	53.83
366.52	0.00
366.72	56.17
366.91	0.00
367.11	0.00
367.31	0.00
367.51	79.58
367.70	98.30
367.90	102.98
368.10	44.47
368.30	25.75
368.49	0.00
368.69	100.64
368.89	44.47
369.09	35.11
369.28	72.56
369.48	32.77
369.68	79.58
369.87	145.11
370.07	63.19
370.27	121.71
370.47	231.71
370.66	390.87
370.86	418.96
371.06	435.34
371.25	491.51
371.45	402.57
371.65	447.04
371.84	447.04
372.04	409.59
372.24	540.66
372.44	552.37
372.63	496.19
372.83	526.62
373.03	510.24
373.22	507.90
373.42	566.41
373.62	517.26
373.81	545.34
374.01	596.84
374.21	585.13
374.40	472.79
374.60	479.81
374.79	561.73
374.99	580.45
375.19	578.11
375.38	613.22
375.58	594.50
375.78	531.30
375.97	608.54
376.17	608.54
376.37	559.39
376.56	690.46
376.76	620.24
376.95	557.05
377.15	624.92
377.35	657.69
377.54	589.82
377.74	608.54
377.93	669.39
378.13	657.69
378.33	678.76
378.52	690.46
378.72	727.91
378.91	650.67
379.11	624.92
379.31	634.29
379.50	664.71
379.70	720.88
379.89	676.41
380.09	727.91
380.28	737.27
380.48	734.93
380.68	697.48
380.87	704.50
381.07	692.80
381.26	737.27
381.46	706.84
381.65	716.20
381.85	716.20
382.04	664.71
382.24	645.99
382.43	753.65
382.63	685.78
382.83	676.41
383.02	730.25
383.22	802.80
383.41	674.07
383.61	671.73
383.80	774.72
384.00	692.80
384.19	772.38
384.39	877.70
384.58	856.64
384.78	821.53
384.97	798.12
385.17	784.08
385.36	744.29
385.56	755.99
385.75	793.44
385.95	779.40
386.14	828.55
386.34	786.42
386.53	854.30
386.72	868.34
386.92	842.59
387.11	826.21
387.31	758.33
387.50	828.55
387.70	823.87
387.89	877.70
388.09	905.79
388.28	922.17
388.48	940.90
388.67	901.11
388.86	943.24
389.06	961.96
389.25	1008.77
389.45	973.66
389.64	994.73
389.84	1109.41
390.03	1086.01
390.22	1013.45
390.42	978.34
390.61	1039.20
390.81	1048.56
391.00	1022.81
391.19	1086.01
391.39	1093.03
391.58	1184.31
391.78	1008.77
391.97	1025.15
392.16	1029.84
392.36	1011.11
392.55	999.41
392.75	1060.26
392.94	861.32
393.13	1088.35
393.33	987.71
393.52	1013.45
393.71	1088.35
393.91	1125.80
394.10	1090.69
394.29	1170.27
394.49	1245.16
394.68	1203.04
394.88	1184.31
395.07	1263.89
395.26	1261.55
395.46	1294.32
395.65	1259.21
395.84	1254.53
396.04	1259.21
396.23	1165.59
396.42	1165.59
396.62	1219.42
396.81	1235.80
397.00	1245.16
397.19	1343.47
397.39	1345.81
397.58	1313.04
397.77	1336.45
397.97	1432.41
398.16	1458.15
398.35	1469.86
398.55	1547.09
398.74	1519.01
398.93	1507.30
399.12	1455.81
399.32	1633.69
399.51	1511.99
399.70	1575.18
399.90	1605.61
400.09	1678.16
400.28	1650.08
400.47	1591.56
400.67	1708.59
400.86	1682.85
401.05	1645.40
401.24	1799.87
401.44	1785.83
401.63	1710.93
401.82	1727.32
402.01	1741.36
402.21	1750.72
402.40	1818.60
402.59	1699.23
402.78	1769.44
402.97	1888.81
403.17	1827.96
403.36	1849.02
403.55	1834.98
403.74	1823.28
403.93	1851.36
404.13	1865.41
404.32	1797.53
404.51	1870.09
404.70	1942.64
404.89	1888.81
405.09	2092.44
405.28	1923.92
405.47	1963.71
405.66	2008.18
405.85	2040.95
406.05	2003.50
406.24	2029.24
406.43	2094.78
406.62	2080.74
406.81	2132.23
407.00	2101.80
407.20	2022.22
407.39	2076.06
407.58	2169.68
407.77	2172.02
407.96	2314.79
408.15	2380.32
408.34	2186.06
408.54	2270.32
408.73	2284.36
408.92	2413.09
409.11	2286.70
409.30	2495.01
409.49	2380.32
409.68	2260.96
409.87	2363.94
410.07	2406.07
410.26	2469.27
410.45	2349.90
410.64	2282.02
410.83	2560.55
411.02	2572.25
411.21	2747.79
411.40	2504.37
411.59	2621.40
411.78	2562.89
411.98	2539.48
412.17	2696.30
412.36	2724.38
412.55	2789.92
412.74	2864.82
412.93	2782.90
413.12	2698.64
413.31	2916.31
413.50	2860.13
413.69	2839.07
413.88	2920.99
414.07	2895.24
414.26	2937.37
414.45	2949.08
414.64	3016.95
414.83	3021.63
415.02	3148.02
415.22	3262.71
415.41	3155.04
415.60	3117.59
415.79	3265.05
415.98	3361.01
416.17	3447.61
416.36	3328.24
416.55	3337.60
416.74	3353.99
416.93	3246.32
417.12	3342.28
417.31	3403.14
417.50	3281.43
417.69	3438.25
417.88	3337.60
418.07	3489.74
418.26	3485.06
418.45	3555.27
418.64	3775.28
418.83	3482.72
419.02	3578.68
419.21	3545.91
419.39	3541.23
419.58	3676.98
419.77	3639.53
419.96	3700.39
420.15	3595.06
420.34	3751.88
420.53	3831.46
420.72	3786.99
420.91	3904.01
421.10	3960.19
421.29	3978.91
421.48	3824.44
421.67	3962.53
421.86	3789.33
422.05	3808.05
422.24	3829.12
422.43	3866.56
422.61	3899.33
422.80	3866.56
422.99	3976.57
423.18	3822.09
423.37	4145.09
423.56	4088.92
423.75	3964.87
423.94	3906.35
424.13	3744.86
424.32	3822.09
424.50	4035.08
424.69	4084.23
424.88	4107.64
425.07	3906.35
425.26	3981.25
425.45	3875.93
425.64	4046.79
425.83	3974.23
426.01	4098.28
426.20	4138.07
426.39	4074.87
426.58	4065.51
426.77	3990.61
426.96	4074.87
427.15	4215.30
427.33	4219.99
427.52	4138.07
427.71	4184.88
427.90	4133.39
428.09	4215.30
428.28	4201.26
428.46	4306.59
428.65	4241.05
428.84	4346.37
429.03	4308.93
429.22	4163.81
429.40	4117.00
429.59	4191.90
429.78	4072.53
429.97	3946.14
430.16	4107.64
430.34	4042.11
430.53	4332.33
430.72	4161.47
430.91	4365.10
431.10	4526.60
431.28	4610.86
431.47	4690.43
431.66	4774.69
431.85	4627.24
432.03	4636.60
432.22	4814.48
432.41	4676.39
432.60	4718.52
432.79	4685.75
432.97	4926.83
433.16	4734.90
433.35	4662.35
433.54	4805.12
433.72	4704.48
433.91	4695.11
434.10	4734.90
434.28	4835.55
434.47	4971.30
434.66	4966.62
434.85	4945.55
435.03	4957.25
435.22	5139.82
435.41	5149.18
435.59	5137.48
435.78	5174.92
435.97	5245.14
436.16	5151.52
436.34	5303.65
436.53	5191.31
436.72	5413.66
436.90	5193.65
437.09	5287.27
437.28	5163.22
437.46	5198.33
437.65	5174.92
437.84	5399.62
438.02	5214.71
438.21	5252.16
438.40	5184.29
438.58	5348.12
438.77	5430.04
438.96	5418.34
439.14	5554.09
439.33	5717.93
439.52	5769.42
439.70	5633.67
439.89	5682.82
440.08	5760.06
440.26	5837.30
440.45	5624.31
440.63	5858.36
440.82	6113.48
441.01	6120.50
441.19	6190.72
441.38	6291.36
441.57	6188.38
441.75	6200.08
441.94	6420.09
442.12	6457.54
442.31	6422.43
442.50	6448.18
442.68	6396.68
442.87	6424.77
443.05	6445.84
443.24	6560.52
443.43	6513.71
443.61	6471.58
443.80	6864.79
443.98	6363.92
444.17	6193.06
444.35	6658.82
444.54	6623.72
444.73	6658.82
444.91	6539.46
445.10	6558.18
445.28	6569.88
445.47	6572.22
445.65	6462.22
445.84	6569.88
446.02	6656.48
446.21	6588.61
446.39	6745.42
446.58	6846.07
446.77	6693.93
446.95	6520.73
447.14	6813.30
447.32	6803.94
447.51	6925.65
447.69	6682.23
447.88	6827.34
448.06	6897.56
448.25	6766.49
448.43	6906.92
448.62	6848.41
448.80	6850.75
448.99	6857.77
449.17	6960.75
449.36	7021.61
449.54	7148.00
449.73	7098.84
449.91	7131.61
450.10	7218.21
450.28	7375.03
450.46	7276.73
450.65	7222.89
450.83	7133.95
451.02	7274.38
451.20	7363.33
451.39	7258.00
451.57	7325.88
451.76	7173.74
451.94	7332.90
452.13	7321.20
452.31	7330.56
452.49	7063.74
452.68	7236.94
452.86	7330.56
453.05	7382.05
453.23	7513.12
453.42	7337.58
453.60	7637.17
453.78	7555.25
453.97	7447.58
454.15	7489.71
454.34	7400.77
454.52	7667.60
454.70	7522.48
454.89	7562.27
455.07	7716.75
455.26	7613.76
455.44	7796.32
455.62	7929.74
455.81	7726.11
455.99	7908.67
456.17	7978.89
456.36	8011.65
456.54	8180.17
456.73	7971.86
456.91	8248.05
457.09	8201.24
457.28	8498.49
457.46	8060.80
457.64	8308.90
457.83	8285.50
458.01	8166.13
458.19	8322.94
458.38	8360.39
458.56	8334.65
458.74	8287.84
458.93	8161.45
459.11	8264.43
459.29	8512.53
459.48	8512.53
459.66	8402.52
459.84	8517.21
460.03	8573.38
460.21	8395.50
460.39	8727.86
460.57	8376.78
460.76	8547.64
460.94	8767.65
461.12	8784.03
461.31	8833.18
461.49	8814.46
461.67	8643.60
461.85	8961.91
462.04	8894.04
462.22	9561.09
462.40	9130.43
462.59	9039.15
462.77	9039.15
462.95	9095.32
463.13	8971.27
463.32	9008.72
463.50	9195.96
463.68	9057.87
463.86	9242.78
464.05	8987.66
464.23	9048.51
464.41	9202.99
464.59	8978.30
464.78	9249.80
464.96	9137.45
465.14	9149.15
465.32	9502.58
465.50	9556.41
465.69	9462.79
465.87	9329.38
466.05	9289.59
466.23	9181.92
466.41	9179.58
466.60	9364.48
466.78	9317.67
466.96	9263.84
467.14	9247.46
467.32	9554.07
467.51	9540.02
467.69	9336.40
467.87	9455.76
468.05	9624.28
468.23	9418.32
468.41	9598.54
468.60	9617.26
468.78	9865.36
468.96	9687.48
469.14	9820.89
469.32	9935.57
469.50	9514.28
469.69	9830.25
469.87	9804.50
470.05	10047.92
470.23	9710.88
470.41	9963.66
470.59	9961.32
470.77	9989.41
470.95	10066.64
471.14	10340.49
471.32	10122.82
471.50	10415.38
471.68	10469.22
471.86	10513.69
472.04	10445.81
472.22	10520.71
472.40	10387.30
472.58	10628.37
472.77	10649.44
472.95	10850.72
473.13	10911.58
473.31	10609.65
473.49	10497.30
473.67	10633.05
473.85	10803.91
474.03	10731.36
474.21	11075.42
474.39	10958.39
474.57	11318.83
474.75	11346.92
474.93	11396.07
475.12	11145.63
475.30	11421.81
475.48	11243.93
475.66	11318.83
475.84	11260.32
476.02	11763.53
476.20	11637.14
476.38	11702.68
476.56	11992.90
476.74	11822.05
476.92	11899.28
477.10	11698.00
477.28	12231.64
477.46	12173.13
477.64	12252.70
477.82	12486.76
478.00	12805.07
478.18	12709.11
478.36	12624.85
478.54	12723.15
478.72	12781.67
478.90	13092.96
479.08	13184.24
479.26	13191.26
479.44	13263.82
479.62	13263.82
479.80	13626.60
479.98	13771.71
480.16	13820.86
480.34	13933.21
480.52	14223.44
480.70	13673.41
480.88	13935.55
481.06	13865.33
481.24	14190.67
481.41	14382.59
481.59	14637.71
481.77	14576.86
481.95	14368.55
482.13	14759.42
482.31	14752.40
482.49	15293.06
482.67	15028.58
482.85	15318.81
483.03	15349.23
483.21	15150.29
483.39	15618.39
483.57	15379.66
483.74	15723.72
483.92	15564.56
484.10	15709.68
484.28	15702.65
484.46	15946.07
484.64	16341.62
484.82	16149.70
485.00	16182.46
485.18	16711.42
485.35	16772.28
485.53	16238.64
485.71	16369.71
485.89	16521.84
486.07	16641.21
486.25	16781.64
486.43	16966.54
486.61	17013.35
486.78	17657.00
486.96	17600.83
487.14	17869.99
487.32	17671.04
487.50	18228.09
487.68	18279.58
487.85	18604.92
488.03	18520.66
488.21	18752.37
488.39	18476.19
488.57	19126.86
488.75	18787.48
488.92	19143.24
489.10	19131.54
489.28	19646.46
489.46	19889.87
489.64	19735.40
489.81	20552.24
489.99	20341.60
490.17	20418.83
490.35	20840.13
490.53	20585.01
490.70	20744.17
490.88	20554.58
491.06	21284.83
491.24	20886.94
491.41	21165.46
491.59	21415.90
491.77	21036.74
491.95	21256.75
492.13	21312.92
492.30	21764.64
492.48	22085.30
492.66	22141.47
492.84	22061.89
493.01	22560.42
493.19	22239.77
493.37	22644.68
493.54	22511.27
493.72	22724.26
493.90	22609.58
494.08	23386.63
494.25	23307.05
494.43	23309.40
494.61	24081.77
494.79	23637.07
494.96	23758.78
495.14	23704.95
495.32	23812.61
495.49	23950.70
495.67	24372.00
495.85	24261.99
496.02	24299.44
496.20	24219.86
496.38	24781.59
496.55	24680.95
496.73	25448.64
496.91	25303.53
497.09	24915.00
497.26	25305.87
497.44	25357.36
497.62	25355.02
497.79	26068.89
497.97	25254.38
498.14	25860.58
498.32	25942.50
498.50	25860.58
498.67	26066.55
498.85	26274.85
499.03	26183.57
499.20	26525.29
499.38	26714.87
499.56	26522.95
499.73	27058.93
499.91	26689.13
500.08	26506.57
500.26	26562.74
500.44	27042.55
500.61	26892.76
500.79	26726.58
500.97	26857.65
501.14	27318.73
501.32	27578.53
501.49	27538.74
501.67	27332.78
501.84	27562.15
502.02	27803.22
502.20	27976.42
502.37	28280.69
502.55	27880.46
502.72	28088.77
502.90	28428.15
503.07	28266.65
503.25	28414.10
503.43	28175.37
503.60	28496.02
503.78	28175.37
503.95	28484.32
504.13	28364.95
504.30	29057.75
504.48	28655.18
504.65	29242.65
504.83	29469.69
505.01	29439.26
505.18	29294.14
505.36	29848.85
505.53	29806.72
505.71	29694.38
505.88	29619.48
506.06	29778.64
506.23	29785.66
506.41	29813.74
506.58	30155.46
506.76	30405.90
506.93	30059.50
507.11	30108.65
507.28	30141.42
507.46	30370.79
507.63	30211.64
507.81	30614.21
507.98	30511.22
508.16	30703.15
508.33	30869.33
508.50	30948.90
508.68	31068.27
508.85	31417.01
509.03	31042.53
509.20	31122.10
509.38	31426.37
509.55	31548.08
509.73	31545.74
509.90	31896.82
510.08	31248.49
510.25	31374.88
510.42	31721.28
510.60	31892.14
510.77	31981.08
510.95	32144.92
511.12	32224.50
511.30	32463.23
511.47	32903.25
511.64	32388.33
511.82	32460.89
511.99	32594.30
512.17	32385.99
512.34	32659.84
512.51	32659.84
512.69	33219.22
512.86	32999.21
513.04	33244.97
513.21	33331.57
513.38	32870.48
513.56	33062.41
513.73	32678.56
513.90	33116.24
514.08	33165.39
514.25	33230.93
514.43	33364.34
514.60	33748.18
514.77	33647.54
514.95	33914.36
515.12	33596.05
515.29	34007.98
515.47	34244.38
515.64	34164.80
515.81	34225.65
515.99	34321.62
516.16	34258.42
516.33	34057.14
516.51	34052.45
516.68	33902.66
516.85	33464.98
517.03	33425.19
517.20	34305.23
517.37	34691.42
517.54	34869.30
517.72	34178.84
517.89	34005.64
518.06	34223.31
518.24	34330.98
518.41	34422.26
518.58	34747.59
518.75	34244.38
518.93	34759.30
519.10	35026.12
519.27	35316.34
519.45	35489.54
519.62	35655.72
519.79	35786.79
519.96	35379.54
520.14	35431.03
520.31	35147.82
520.48	35955.31
520.65	35821.90
520.83	35924.88
521.00	35849.99
521.17	36308.73
521.34	36524.06
521.52	35985.74
521.69	36505.34
521.86	36772.16
522.03	36524.06
522.20	36491.29
522.38	36760.45
522.55	36517.04
522.72	36657.47
522.89	36605.98
523.07	36732.37
523.24	36975.78
523.41	36954.72
523.58	36978.12
523.75	37427.51
523.92	37242.60
524.10	37450.91
524.27	37757.52
524.44	37804.33
524.61	37394.74
524.78	37954.13
524.96	37940.08
525.13	38038.39
525.30	37904.98
525.47	38134.35
525.64	37794.97
525.81	37661.56
525.98	37556.24
526.16	37528.15
526.33	37612.41
526.50	37703.69
526.67	37567.94
526.84	37663.90
527.01	37876.89
527.18	38239.67
527.36	38120.31
527.53	38553.30
527.70	38579.05
527.87	38508.83
528.04	38815.44
528.21	38651.61
528.38	38796.72
528.55	39056.52
528.72	39056.52
528.89	39332.70
529.07	38930.13
529.24	38635.22
529.41	39147.80
529.58	38836.51
529.75	39168.87
529.92	39559.73
530.09	39133.76
530.26	39250.78
530.43	39536.33
530.60	39423.98
530.77	39501.22
530.94	39906.13
531.11	39695.49
531.28	39576.12
531.46	39915.50
531.63	39854.64
531.80	40076.99
531.97	39861.66
532.14	39316.32
532.31	39215.68
532.48	39709.53
532.65	39655.70
532.82	40086.36
532.99	40069.97
533.16	40643.40
533.33	40219.77
533.50	40694.89
533.67	40329.77
533.84	40463.18
534.01	40371.90
534.18	40273.60
534.35	40737.02
534.52	40650.42
534.69	40404.67
534.86	40903.20
535.03	40790.86
535.20	40751.07
535.37	41422.80
535.54	40809.58
535.71	40704.26
535.88	40931.29
536.05	41226.20
536.22	40980.44
536.38	40783.83
536.55	41151.30
536.72	41366.63
536.89	41085.76
537.06	41221.52
537.23	41448.55
537.40	40947.67
537.57	41275.35
537.74	41495.36
537.91	41347.90
538.08	41904.95
538.25	41165.34
538.42	41340.88
538.59	41989.21
538.75	40942.99
538.92	41420.46
539.09	41495.36
539.26	41378.33
539.43	41401.74
539.60	41806.65
539.77	41656.85
539.94	41514.08
540.11	41486.00
540.28	42225.60
540.44	42066.45
540.61	41544.51
540.78	41324.50
540.95	41954.10
541.12	41745.80
541.29	41965.81
541.46	42220.92
541.62	42103.90
541.79	42174.11
541.96	41986.87
542.13	41996.23
542.30	42653.92
542.47	42122.62
542.63	42361.36
542.80	42359.02
542.97	42773.29
543.14	42679.67
543.31	42834.14
543.48	43065.86
543.64	42944.15
543.81	42988.62
543.98	43002.66
544.15	43143.09
544.32	42740.52
544.48	43620.56
544.65	42948.83
544.82	43665.03
544.99	43292.89
545.16	42864.57
545.32	42845.85
545.49	43536.30
545.66	43910.79
545.83	43901.43
546.00	43337.36
546.16	43140.75
546.33	43037.77
546.50	43173.52
546.67	43398.21
546.83	43423.96
547.00	43463.75
547.17	43246.08
547.34	43271.82
547.50	43367.79
547.67	43641.63
547.84	43885.04
548.00	44175.27
548.17	44184.63
548.34	43945.90
548.51	44261.87
548.67	44353.15
548.84	44016.11
549.01	43824.19
549.18	44306.34
549.34	44027.82
549.51	43894.41
549.68	44065.27
549.84	44058.24
550.01	44245.49
550.18	43519.92
550.34	44353.15
550.51	44315.70
550.68	43793.76
550.84	44112.08
551.01	44638.70
551.18	43908.45
551.34	44231.44
551.51	44549.76
551.68	44535.71
551.84	44610.61
552.01	44568.48
552.18	44421.03
552.34	44184.63
552.51	44406.98
552.68	44786.15
552.84	44968.71
553.01	45132.55
553.18	44706.57
553.34	44711.25
553.51	44531.03
553.67	45050.63
553.84	44945.31
554.01	44978.07
554.17	45031.91
554.34	45495.33
554.51	45265.96
554.67	45230.85
554.84	45184.04
555.00	45050.63
555.17	44987.44
555.33	44779.13
555.50	45109.14
555.67	45160.64
555.83	44842.32
556.00	45151.27
556.16	45584.27
556.33	45071.70
556.50	45127.87
556.66	45067.02
556.83	44760.40
556.99	45233.19
557.16	45261.28
557.32	45083.40
557.49	45471.93
557.65	44769.77
557.82	45263.62
557.98	45546.82
558.15	45308.09
558.32	45539.80
558.48	45212.13
558.65	45263.62
558.81	44917.22
558.98	45492.99
559.14	45071.70
559.31	45045.95
559.47	45462.57
559.64	45244.90
559.80	45476.61
559.97	45497.67
560.13	45294.05
560.30	45794.92
560.46	45677.90
560.63	45441.50
560.79	45556.19
560.96	46071.10
561.12	45595.98
561.29	45200.43
561.45	45280.00
561.61	45591.30
561.78	45361.92
561.94	45734.07
562.11	45340.86
562.27	45675.55
562.44	45455.54
562.60	45617.04
562.77	45862.80
562.93	45724.71
563.10	46263.03
563.26	45294.05
563.42	46333.24
563.59	45460.23
563.75	45675.55
563.92	46078.13
564.08	46068.76
564.24	46106.21
564.41	45668.53
564.57	45799.60
564.74	45851.09
564.90	45965.78
565.07	46040.68
565.23	46138.98
565.39	45752.79
565.56	45900.25
565.72	45572.57
565.88	45797.26
566.05	45446.18
566.21	45691.94
566.38	46036.00
566.54	46103.87
566.70	46307.50
566.87	46412.82
567.03	46075.79
567.19	46230.26
567.36	46129.62
567.52	45965.78
567.68	46258.35
567.85	46033.66
568.01	46124.94
568.17	45837.05
568.34	46080.47
568.50	45888.54
568.66	45918.97
568.83	46148.34
568.99	45736.41
569.15	45961.10
569.32	46073.45
569.48	46239.62
569.64	46129.62
569.81	46471.34
569.97	46211.54
570.13	46195.15
570.30	45834.71
570.46	45691.94
570.62	45481.29
570.78	45769.18
570.95	45708.32
571.11	45858.12
571.27	46045.36
571.43	45514.06
571.60	46045.36
571.76	46328.56
571.92	46115.58
572.09	45937.69
572.25	46380.06
572.41	46239.62
572.57	46340.27
572.74	46246.65
572.90	46286.43
573.06	46323.88
573.22	46553.26
573.38	45979.82
573.55	46216.22
573.71	46422.19
573.87	46747.52
574.03	46115.58
574.20	46237.28
574.36	46363.67
574.52	46284.09
574.68	46644.54
574.84	46487.72
575.01	46258.35
575.17	45930.67
575.33	46174.09
575.49	46045.36
575.65	46511.13
575.82	46756.88
575.98	46553.26
576.14	46202.18
576.30	46724.11
576.46	45902.59
576.62	46185.79
576.79	46213.88
576.95	46202.18
577.11	46309.84
577.27	45954.08
577.43	46258.35
577.59	46043.02
577.75	45895.56
577.92	45921.31
578.08	45656.83
578.24	45921.31
578.40	46274.73
578.56	46447.93
578.72	46782.63
578.88	46550.91
579.04	46335.59
579.21	46082.81
579.37	46302.82
579.53	46265.37
579.69	46143.66
579.85	45935.35
580.01	46354.31
580.17	46293.46
580.33	46068.76
580.49	46490.06
580.65	46415.16
580.82	45947.06
580.98	46167.07
581.14	46150.68
581.30	46707.73
581.46	46129.62
581.62	46148.34
581.78	46277.07
581.94	46838.80
582.10	46766.24
582.26	46305.16
582.42	46337.93
582.58	46263.03
582.74	46288.77
582.90	46799.01
583.06	46213.88
583.22	46351.97
583.38	46873.91
583.54	46656.24
583.70	46681.98
583.86	46602.41
584.02	45787.90
584.18	46693.69
584.34	46057.06
584.50	46129.62
584.66	46263.03
584.82	45794.92
584.98	45928.33
585.14	46553.26
585.30	45865.14
585.46	46358.99
585.62	46351.97
585.78	46408.14
585.94	45647.47
586.10	46143.66
586.26	46260.69
586.42	46574.32
586.58	46494.74
586.74	46389.42
586.90	46499.42
587.06	46438.57
587.22	46614.11
587.38	45701.30
587.54	46124.94
587.70	46361.33
587.86	46672.62
588.02	46232.60
588.18	46806.03
588.34	45823.01
588.49	46248.99
588.65	45663.85
588.81	46108.55
588.97	46103.87
589.13	46047.70
589.29	45897.91
589.45	46120.26
589.61	46438.57
589.77	46260.69
589.93	46138.98
590.08	46539.21
590.24	46719.43
590.40	46803.69
590.56	46672.62
590.72	46731.14
590.88	46316.86
591.04	46899.65
591.20	46866.89
591.35	46424.53
591.51	46319.20
591.67	46349.63
591.83	46384.74
591.99	46110.89
592.15	46366.01
592.31	46700.71
592.46	46103.87
592.62	46843.48
592.78	46557.94
592.94	46265.37
593.10	46473.68
593.26	46831.78
593.41	46595.38
593.57	46621.13
593.73	46351.97
593.89	46426.87
594.05	46204.52
594.20	46579.00
594.36	47033.07
594.52	46539.21
594.68	46251.33
594.84	46164.73
594.99	46358.99
595.15	46630.49
595.31	46419.84
595.47	46550.91
595.62	46487.72
595.78	46632.83
595.94	46712.41
596.10	46663.26
596.25	46569.64
596.41	46387.08
596.57	46197.49
596.73	46651.56
596.88	46452.61
597.04	46658.58
597.20	46522.83
597.36	46431.55
597.51	46972.21
597.67	46361.33
597.83	46677.30
597.99	46700.71
598.14	46473.68
598.30	46738.16
598.46	46686.67
598.61	46560.28
598.77	46038.34
598.93	46527.51
599.09	46625.81
599.24	46836.46
599.40	46506.44
599.56	46581.34
599.71	46487.72
599.87	46410.48
600.03	46286.43
600.18	46625.81
600.34	46607.09
600.50	46288.77
600.65	46508.79
600.81	47028.38
600.97	46841.14
601.12	47007.32
601.28	46031.32
601.44	46307.50
601.59	45968.12
601.75	46396.44
601.91	46082.81
602.06	46639.86
602.22	46244.30
602.37	46541.55
602.53	46794.33
602.69	47044.77
602.84	46291.12
603.00	46113.23
603.16	46443.25
603.31	46279.41
603.47	46450.27
603.62	46167.07
603.78	46911.36
603.94	46571.98
604.09	46787.31
604.25	46366.01
604.40	46588.36
604.56	46382.40
604.71	46169.41
604.87	46314.52
605.03	46328.56
605.18	46562.62
605.34	46134.30
605.49	46370.69
605.65	46412.82
605.80	46160.05
605.96	46300.48
606.12	46445.59
606.27	46628.15
606.43	46321.54
606.58	46351.97
606.74	46213.88
606.89	45708.32
607.05	46075.79
607.20	46223.24
607.36	46672.62
607.51	46366.01
607.67	46216.22
607.82	46490.06
607.98	45935.35
608.13	46178.77
608.29	45979.82
608.44	45766.84
608.60	45427.46
608.75	46431.55
608.91	46176.43
609.06	46007.91
609.22	46188.13
609.37	45848.75
609.53	46064.08
609.68	46160.05
609.84	46300.48
609.99	45771.52
610.15	45935.35
610.30	45713.00
610.46	46078.13
610.61	45654.49
610.76	46260.69
610.92	46115.58
611.07	45947.06
611.23	45612.36
611.38	46150.68
611.54	45844.07
611.69	45324.47
611.84	45755.13
612.00	45825.35
612.15	45392.35
612.31	46064.08
612.46	45572.57
612.62	45881.52
612.77	45619.38
612.92	45713.00
613.08	45563.21
613.23	45490.65
613.39	45354.90
613.54	45109.14
613.69	45404.05
613.85	45308.09
614.00	45689.60
614.15	45610.02
614.31	45593.64
614.46	45563.21
614.62	45462.57
614.77	45450.86
614.92	45420.44
615.08	45179.36
615.23	45071.70
615.38	44701.89
615.54	44596.57
615.69	45354.90
615.84	45277.66
616.00	45184.04
616.15	45057.65
616.30	44854.03
616.46	44699.55
616.61	44699.55
616.76	44559.12
616.92	44865.73
617.07	44776.79
617.22	44825.94
617.37	44854.03
617.53	45525.76
617.68	44847.00
617.83	45305.75
617.99	44598.91
618.14	45162.98
618.29	44737.00
618.45	44245.49
618.60	44474.86
618.75	44369.54
618.90	44514.65
619.06	44748.70
619.21	44758.06
619.36	44456.14
619.51	44744.02
619.67	44769.77
619.82	44210.38
619.97	44807.22
620.12	44020.80
620.28	44196.34
620.43	44421.03
620.58	44610.61
620.73	44470.18
620.89	44559.12
621.04	44313.36
621.19	44610.61
621.34	44156.55
621.49	44025.48
621.65	44165.91
621.80	44315.70
621.95	44194.00
622.10	44137.82
622.25	43903.77
622.41	44325.07
622.56	43819.51
622.71	44486.56
622.86	43702.48
623.01	43959.94
623.16	43812.49
623.32	43632.27
623.47	43721.21
623.62	43871.00
623.77	43608.86
623.92	43791.42
624.07	43533.96
624.23	43545.67
624.38	43695.46
624.53	43627.59
624.68	43840.57
624.83	43711.84
624.98	43571.41
625.13	43388.85
625.29	43077.56
625.44	43515.24
625.59	43234.38
625.74	42777.97
625.89	43430.98
626.04	42976.92
626.19	43002.66
626.34	43452.05
626.49	43288.21
626.65	42801.38
626.80	43311.61
626.95	42611.79
627.10	43271.82
627.25	43419.28
627.40	42686.69
627.55	43065.86
627.70	42789.67
627.85	43075.22
628.00	43129.05
628.15	43573.75
628.30	42557.96
628.45	43257.78
628.60	42749.88
628.76	42670.31
628.91	42557.96
629.06	42506.47
629.21	42415.19
629.36	42408.17
629.51	42593.07
629.66	42703.07
629.81	42417.53
629.96	42649.24
630.11	42871.59
630.26	42754.57
630.41	42586.05
630.56	42436.25
630.71	42588.39
630.86	42508.81
631.01	42267.73
631.16	42277.10
631.31	41631.11
631.46	42190.50
631.61	42831.80
631.76	42192.84
631.91	42164.75
632.06	42279.44
632.21	42370.72
632.36	42356.67
632.51	41755.16
632.66	42029.00
632.81	42036.02
632.96	42342.63
633.10	42377.74
633.25	41961.12
633.40	42267.73
633.55	42351.99
633.70	41888.57
633.85	41858.14
634.00	41869.84
634.15	41762.18
634.30	41586.64
634.45	41867.50
634.60	41221.52
634.75	41661.54
634.90	41521.10
635.05	41715.37
635.19	41436.84
635.34	41825.37
635.49	41078.74
635.64	41682.60
635.79	41406.42
635.94	41109.17
636.09	41191.09
636.24	41738.77
636.39	40722.98
636.53	41801.97
636.68	41598.34
636.83	41200.45
636.98	41624.09
637.13	41195.77
637.28	41750.48
637.43	41706.01
637.57	41539.83
637.72	41174.70
637.87	41467.27
638.02	41380.67
638.17	41195.77
638.32	41165.34
638.46	40662.13
638.61	41296.41
638.76	40542.76
638.91	41329.18
639.06	41109.17
639.20	41375.99
639.35	40807.24
639.50	40898.52
639.65	40844.69
639.80	40755.75
639.94	40601.27
640.09	40636.38
640.24	40648.08
640.39	40786.18
640.54	40685.53
640.68	40641.06
640.83	40849.37
640.98	39997.41
641.13	40538.08
641.27	40938.31
641.42	40460.84
641.57	40524.04
641.72	40407.01
641.86	40378.92
642.01	40428.07
642.16	40545.10
642.31	40144.87
642.45	40484.25
642.60	40109.76
642.75	39903.79
642.90	40275.94
643.04	40680.85
643.19	40315.73
643.34	40069.97
643.48	40367.22
643.63	40210.40
643.78	40395.31
643.93	40561.48
644.07	39950.60
644.22	40025.50
644.37	39936.56
644.51	40088.70
644.66	40280.62
644.81	39896.77
644.95	39941.24
645.10	40107.42
645.25	39826.56
645.39	40098.06
645.54	39629.95
645.69	39555.05
645.83	39856.98
645.98	39835.92
646.13	39894.43
646.27	39878.05
646.42	39412.28
646.57	39428.66
646.71	39295.25
646.86	39622.93
647.00	39945.92
647.15	39550.37
647.30	39608.89
647.44	39316.32
647.59	39475.48
647.74	39330.36
647.88	39248.44
648.03	39271.85
648.17	39030.77
648.32	39250.78
648.47	38909.07
648.61	39143.12
648.76	39222.70
648.90	39086.95
649.05	39239.08
649.20	38859.91
649.34	39426.32
649.49	38590.75
649.63	38803.74
649.78	39103.33
649.92	39201.63
650.07	39360.79
650.21	38719.48
650.36	38576.71
650.51	39026.09
650.65	39435.69
650.80	39714.21
650.94	38857.57
651.09	38906.73
651.23	38698.42
651.38	38834.17
651.52	38000.94
651.67	38218.61
651.81	38698.42
651.96	38658.63
652.10	38525.22
652.25	38361.38
652.39	38426.92
652.54	38625.86
652.68	38485.43
652.83	38885.66
652.97	38911.41
653.12	38574.37
653.26	38148.39
653.41	38096.90
653.55	38047.75
653.70	38291.16
653.84	38113.28
653.99	38251.38
654.13	38373.08
654.27	38382.45
654.42	38319.25
654.56	38326.27
654.71	38251.38
654.85	37738.80
655.00	38256.06
655.14	37759.86
655.29	37563.26
655.43	37563.26
655.57	37560.92
655.72	37350.27
655.86	37060.04
656.01	37247.29
656.15	36818.97
656.30	37392.40
656.44	37530.49
656.58	37354.95
656.73	37523.47
656.87	37509.43
657.01	37336.23
657.16	37429.85
657.30	36746.41
657.45	37134.94
657.59	37071.75
657.73	37502.40
657.88	37191.11
658.02	37539.85
658.16	37780.93
658.31	37291.76
658.45	37603.05
658.60	36975.78
658.74	37460.27
658.88	37422.83
659.03	37134.94
659.17	37083.45
659.31	36840.03
659.46	36776.84
659.60	37097.49
659.74	37130.26
659.89	36814.29
660.03	36474.91
660.17	37092.81
660.32	37057.70
660.46	37097.49
660.60	36912.59
660.74	36304.05
660.89	36369.58
661.03	36290.01
661.17	36322.77
661.32	36425.76
661.46	36362.56
661.60	36500.65
661.74	36460.87
661.89	36463.21
662.03	35885.09
662.17	35969.35
662.31	36519.38
662.46	36755.77
662.60	35810.20
662.74	36318.09
662.88	35995.10
663.03	35786.79
663.17	35857.01
663.31	35571.46
663.45	35407.62
663.60	35721.26
663.74	35660.40
663.88	35522.31
664.02	35515.29
664.17	35765.73
664.31	34845.90
664.45	35206.34
664.59	35180.59
664.73	35494.22
664.88	34873.98
665.02	34735.89
665.16	34665.67
665.30	35051.86
665.44	34958.24
665.59	34614.18
665.73	34937.18
665.87	34635.25
666.01	34803.77
666.15	34806.11
666.29	34866.96
666.44	35054.20
666.58	34660.99
666.72	34794.40
666.86	34520.56
667.00	34438.64
667.14	33998.62
667.28	34417.58
667.43	34237.36
667.57	34426.94
667.71	34450.35
667.85	34422.26
667.99	33935.43
668.13	34274.80
668.27	34565.03
668.41	34295.87
668.56	33652.22
668.70	33841.81
668.84	33214.54
668.98	33443.91
669.12	33795.00
669.26	34094.58
669.40	33560.94
669.54	33343.27
669.68	33331.57
669.82	33209.86
669.96	33207.52
670.10	32961.76
670.25	32856.44
670.39	33186.46
670.53	33144.33
670.67	33242.63
670.81	32957.08
670.95	33015.60
671.09	32767.50
671.23	32575.58
671.37	32627.07
671.51	32325.14
671.65	32549.83
671.79	32711.33
671.93	32470.25
672.07	32275.99
672.21	32002.14
672.35	32051.30
672.49	32577.92
672.63	32329.82
672.77	32275.99
672.91	32175.34
673.05	31559.78
673.19	31709.58
673.33	31700.22
673.47	31742.35
673.61	31653.40
673.75	31206.36
673.89	31248.49
674.03	31257.85
674.17	31260.20
674.31	30981.67
674.45	31290.62
674.59	31480.21
674.73	31515.31
674.87	31243.81
675.01	30522.93
675.15	30925.50
675.29	30726.55
675.43	30932.52
675.56	30677.40
675.70	30829.54
675.84	30593.14
675.98	29972.90
676.12	30274.83
676.26	30607.19
676.40	30689.10
676.54	30665.70
676.68	30553.35
676.82	29937.79
676.96	30031.41
677.10	29977.58
677.23	29385.43
677.37	29797.36
677.51	29785.66
677.65	29324.57
677.79	28669.22
677.93	29151.37
678.07	29284.78
678.21	28868.17
678.34	29008.60
678.48	28723.05
678.62	28758.16
678.76	28472.62
678.90	28077.07
679.04	28308.78
679.18	28905.62
679.31	28196.43
679.45	28231.54
679.59	28107.49
679.73	28357.93
679.87	28187.07
680.00	28149.62
680.14	28081.75
680.28	27686.20
680.42	27946.00
680.56	27435.76
680.70	27307.03
680.83	27599.60
680.97	27377.25
681.11	27253.20
681.25	27325.75
681.39	27218.09
681.52	27316.39
681.66	26981.70
681.80	27089.36
681.94	26658.70
682.07	26740.62
682.21	26291.24
682.35	26553.38
682.49	26759.34
682.62	26185.91
682.76	26335.71
682.90	26319.32
683.04	26324.01
683.17	26045.48
683.31	26024.42
683.45	25811.43
683.59	25830.15
683.72	26127.40
683.86	26146.12
684.00	25972.92
684.13	25312.89
684.27	25111.61
684.41	25235.66
684.55	25221.61
684.68	25287.15
684.82	24999.26
684.96	25104.59
685.09	24802.66
685.23	24748.82
685.37	24926.71
685.50	24676.27
685.64	24601.37
685.78	24526.47
685.91	24460.94
686.05	24482.00
686.19	23807.93
686.32	23803.25
686.46	23662.82
686.60	23131.51
686.73	23316.42
686.87	23421.74
687.01	23084.70
687.14	23199.39
687.28	22745.33
687.42	22895.12
687.55	22995.76
687.69	23159.60
687.82	23103.43
687.96	22948.95
688.10	22998.10
688.23	22658.73
688.37	22473.82
688.50	22948.95
688.64	22537.02
688.78	22242.11
688.91	22008.06
689.05	21902.73
689.18	21867.63
689.32	22125.08
689.46	22265.52
689.59	22466.80
689.73	22412.97
689.86	21898.05
690.00	21752.94
690.13	21961.25
690.27	21460.37
690.41	21326.96
690.54	21544.63
690.68	21357.39
690.81	21329.30
690.95	21345.69
691.08	21050.78
691.22	21188.87
691.35	21214.62
691.49	21034.39
691.62	21029.71
691.76	20603.74
691.89	20823.75
692.03	20655.23
692.16	20606.08
692.30	20475.01
692.43	20365.00
692.57	20065.41
692.70	20379.04
692.84	19946.05
692.97	19960.09
693.11	19889.87
693.24	19632.41
693.38	19487.30
693.51	19604.33
693.65	19723.69
693.78	19683.91
693.92	19772.85
694.05	19290.70
694.19	19569.22
694.32	19260.27
694.45	19304.74
694.59	19030.90
694.72	19206.44
694.86	18775.78
694.99	18827.27
695.13	18728.97
695.26	18707.90
695.39	18808.54
695.53	18607.26
695.66	18733.65
695.80	18623.64
695.93	18366.18
696.07	18485.55
696.20	18314.69
696.33	18160.22
696.47	18197.67
696.60	17886.37
696.73	18017.44
696.87	17713.17
697.00	17652.32
697.14	17598.49
697.27	17547.00
697.40	17376.14
697.54	17343.37
697.67	17263.79
697.80	17195.92
697.94	17275.49
698.07	17043.78
698.21	16919.73
698.34	16961.86
698.47	17097.61
698.61	16746.53
698.74	16758.24
698.87	17003.99
699.01	16615.46
699.14	16470.35
699.27	16353.32
699.40	16514.82
699.54	16140.33
699.67	16135.65
699.80	16322.90
699.94	15915.64
700.07	16259.70
700.20	16240.98
700.34	15761.17
700.47	15857.13
700.60	16072.46
700.73	15988.20
700.87	15686.27
701.00	15665.21
701.13	15482.64
701.26	15466.26
701.40	15332.85
701.53	15456.90
701.66	15246.25
701.79	15159.65
701.93	15171.35
702.06	15089.43
702.19	14810.91
702.32	15021.56
702.46	15042.62
702.59	14878.79
702.72	14892.83
702.85	14808.57
702.99	14949.00
703.12	14750.06
703.25	14335.78
703.38	14401.32
703.51	14494.94
703.65	14459.83
703.78	14169.60
703.91	14017.47
704.04	14176.62
704.17	13874.70
704.31	13994.06
704.44	13811.50
704.57	13771.71
704.70	13811.50
704.83	13689.79
704.96	13706.18
705.10	13724.90
705.23	13582.13
>>>>>End Processed Spectral Data<<<<<
