SpectraSuite Data File
++++++++++++++++++++++++++++++++++++
Date: Fri Oct 25 10:43:29 EDT 2013
User: price-jones
Dark Spectrum Present: No
Reference Spectrum Present: No
Number of Sampled Component Spectra: 1
Spectrometers: USB2+H05261
Integration Time (usec): 100000 (USB2+H05261)
Spectra Averaged: 1 (USB2+H05261)
Boxcar Smoothing: 0 (USB2+H05261)
Correct for Electrical Dark: No (USB2+H05261)
Strobe/Lamp Enabled: No (USB2+H05261)
Correct for Detector Non-linearity: No (USB2+H05261)
Correct for Stray Light: No (USB2+H05261)
Number of Pixels in Processed Spectrum: 2048
>>>>>Begin Processed Spectral Data<<<<<
365.73	93.62
365.92	93.62
366.12	93.62
366.32	28.09
366.52	58.51
366.72	28.09
366.91	77.24
367.11	49.15
367.31	58.51
367.51	4.68
367.70	79.58
367.90	25.75
368.10	67.88
368.30	60.85
368.49	0.00
368.69	35.11
368.89	70.22
369.09	58.51
369.28	0.00
369.48	0.00
369.68	53.83
369.87	74.90
370.07	70.22
370.27	46.81
370.47	187.24
370.66	386.19
370.86	409.59
371.06	416.62
371.25	465.77
371.45	442.36
371.65	407.25
371.84	393.21
372.04	528.96
372.24	486.83
372.44	470.45
372.63	533.64
372.83	489.17
373.03	512.58
373.22	519.60
373.42	465.77
373.62	571.09
373.81	578.11
374.01	514.92
374.21	535.98
374.40	463.43
374.60	533.64
374.79	528.96
374.99	528.96
375.19	601.52
375.38	606.20
375.58	667.05
375.78	599.18
375.97	662.37
376.17	613.22
376.37	521.94
376.56	606.20
376.76	573.43
376.95	617.90
377.15	596.84
377.35	589.82
377.54	596.84
377.74	683.44
377.93	580.45
378.13	655.35
378.33	688.12
378.52	674.07
378.72	671.73
378.91	587.47
379.11	601.52
379.31	653.01
379.50	657.69
379.70	709.18
379.89	660.03
380.09	629.60
380.28	744.29
380.48	704.50
380.68	685.78
380.87	692.80
381.07	627.26
381.26	744.29
381.46	688.12
381.65	697.48
381.85	657.69
382.04	641.31
382.24	653.01
382.43	685.78
382.63	788.76
382.83	671.73
383.02	744.29
383.22	751.31
383.41	692.80
383.61	770.04
383.80	851.96
384.00	805.14
384.19	772.38
384.39	854.30
384.58	807.48
384.78	863.66
384.97	774.72
385.17	713.86
385.36	770.04
385.56	858.98
385.75	807.48
385.95	828.55
386.14	854.30
386.34	854.30
386.53	847.27
386.72	856.64
386.92	894.08
387.11	812.17
387.31	910.47
387.50	753.65
387.70	823.87
387.89	870.68
388.09	870.68
388.28	866.00
388.48	856.64
388.67	919.83
388.86	968.98
389.06	919.83
389.25	1015.79
389.45	931.53
389.64	933.87
389.84	1053.24
390.03	952.60
390.22	959.62
390.42	943.24
390.61	990.05
390.81	1043.88
391.00	1032.18
391.19	1081.33
391.39	1114.10
391.58	1071.97
391.78	1067.28
391.97	1081.33
392.16	990.05
392.36	1046.22
392.55	1029.84
392.75	997.07
392.94	971.32
393.13	947.92
393.33	966.64
393.52	1050.90
393.71	1022.81
393.91	1078.99
394.10	1139.84
394.29	1062.60
394.49	1151.54
394.68	1116.44
394.88	1261.55
395.07	1341.13
395.26	1205.38
395.46	1179.63
395.65	1219.42
395.84	1226.44
396.04	1219.42
396.23	1217.08
396.42	1132.82
396.62	1071.97
396.81	1224.10
397.00	1179.63
397.19	1256.87
397.39	1331.76
397.58	1357.51
397.77	1301.34
397.97	1472.20
398.16	1371.55
398.35	1437.09
398.55	1329.42
398.74	1380.92
398.93	1607.95
399.12	1528.37
399.32	1376.24
399.51	1448.79
399.70	1589.22
399.90	1472.20
400.09	1556.46
400.28	1556.46
400.47	1488.58
400.67	1680.50
400.86	1650.08
401.05	1582.20
401.24	1753.06
401.44	1638.38
401.63	1682.85
401.82	1668.80
402.01	1769.44
402.21	1781.15
402.40	1696.89
402.59	1764.76
402.78	1748.38
402.97	1734.34
403.17	1774.13
403.36	1750.72
403.55	1884.13
403.74	1853.70
403.93	1879.45
404.13	1930.94
404.32	1802.21
404.51	1851.36
404.70	1898.17
404.89	1839.66
405.09	1966.05
405.28	1937.96
405.47	1933.28
405.66	1923.92
405.85	1888.81
406.05	2005.84
406.24	1909.88
406.43	2012.86
406.62	2139.25
406.81	2136.91
407.00	1963.71
407.20	2085.42
407.39	2073.71
407.58	2143.93
407.77	2209.47
407.96	2186.06
408.15	2167.34
408.34	2251.60
408.54	2223.51
408.73	2267.98
408.92	2305.43
409.11	2312.45
409.30	2300.75
409.49	2338.20
409.68	2263.30
409.87	2303.09
410.07	2356.92
410.26	2349.90
410.45	2396.71
410.64	2328.83
410.83	2431.82
411.02	2509.05
411.21	2602.68
411.40	2448.20
411.59	2658.85
411.78	2483.31
411.98	2534.80
412.17	2708.00
412.36	2626.08
412.55	2696.30
412.74	2726.72
412.93	2745.45
413.12	2679.91
413.31	2855.45
413.50	2775.88
413.69	2785.24
413.88	2913.97
414.07	2881.20
414.26	2801.62
414.45	2888.22
414.64	3049.72
414.83	3028.65
415.02	2967.80
415.22	3098.87
415.41	3171.43
415.60	3150.36
415.79	3166.74
415.98	3194.83
416.17	3267.39
416.36	3190.15
416.55	3141.00
416.74	3187.81
416.93	3314.20
417.12	3342.28
417.31	3314.20
417.50	3246.32
417.69	3361.01
417.88	3435.91
418.07	3405.48
418.26	3440.59
418.45	3412.50
418.64	3644.21
418.83	3562.30
419.02	3461.65
419.21	3606.77
419.39	3480.38
419.58	3569.32
419.77	3478.04
419.96	3723.79
420.15	3531.87
420.34	3571.66
420.53	3630.17
420.72	3763.58
420.91	3758.90
421.10	3674.64
421.29	3843.16
421.48	3695.71
421.67	3786.99
421.86	3791.67
422.05	3686.34
422.24	3658.26
422.43	3777.62
422.61	3887.63
422.80	3889.97
422.99	3868.91
423.18	3751.88
423.37	4056.15
423.56	3955.51
423.75	3887.63
423.94	3819.75
424.13	3709.75
424.32	3747.20
424.50	3889.97
424.69	4100.62
424.88	4009.34
425.07	3859.54
425.26	3861.88
425.45	3852.52
425.64	3978.91
425.83	3836.14
426.01	4067.85
426.20	3983.59
426.39	3941.46
426.58	3971.89
426.77	3836.14
426.96	3882.95
427.15	3950.82
427.33	4135.73
427.52	4004.66
427.71	4161.47
427.90	4184.88
428.09	4145.09
428.28	4205.94
428.46	4142.75
428.65	4060.83
428.84	4159.13
429.03	4238.71
429.22	4032.74
429.40	4250.41
429.59	4060.83
429.78	3967.21
429.97	3899.33
430.16	4114.66
430.34	4074.87
430.53	4236.37
430.72	4147.43
430.91	4245.73
431.10	4315.95
431.28	4435.32
431.47	4542.98
431.66	4599.15
431.85	4468.08
432.03	4566.39
432.22	4697.46
432.41	4669.37
432.60	4615.54
432.79	4676.39
432.97	4765.33
433.16	4755.97
433.35	4622.56
433.54	4634.26
433.72	4643.62
433.91	4545.32
434.10	4765.33
434.28	4748.95
434.47	4847.25
434.66	4945.55
434.85	5078.96
435.03	4931.51
435.22	4819.16
435.41	5036.83
435.59	5153.86
435.78	4926.83
435.97	5193.65
436.16	4997.04
436.34	5135.14
436.53	5085.98
436.72	5224.08
436.90	4945.55
437.09	5102.37
437.28	5090.67
437.46	5273.23
437.65	5156.20
437.84	5088.32
438.02	4994.70
438.21	5156.20
438.40	5032.15
438.58	5315.36
438.77	5373.87
438.96	5451.11
439.14	5458.13
439.33	5343.44
439.52	5540.05
439.70	5537.71
439.89	5586.86
440.08	5577.50
440.26	5619.63
440.45	5678.14
440.63	5753.04
440.82	5825.59
441.01	5987.09
441.19	5926.24
441.38	5933.26
441.57	6087.73
441.75	6080.71
441.94	6162.63
442.12	6174.33
442.31	6270.30
442.50	6445.84
442.68	6218.80
442.87	6356.90
443.05	6370.94
443.24	6448.18
443.43	6375.62
443.61	6424.77
443.80	6626.06
443.98	6338.17
444.17	6366.26
444.35	6518.39
444.54	6604.99
444.73	6644.78
444.91	6384.98
445.10	6705.63
445.28	6476.26
445.47	6284.34
445.65	6317.11
445.84	6384.98
446.02	6441.15
446.21	6511.37
446.39	6537.12
446.58	6530.09
446.77	6654.14
446.95	6298.38
447.14	6483.28
447.32	6731.38
447.51	6478.60
447.69	6544.14
447.88	6553.50
448.06	6574.56
448.25	6654.14
448.43	6707.98
448.62	6595.63
448.80	6649.46
448.99	6778.19
449.17	6771.17
449.36	6679.89
449.54	6834.36
449.73	6878.83
449.91	6874.15
450.10	7049.69
450.28	7241.62
450.46	7094.16
450.65	7218.21
450.83	7353.96
451.02	7119.91
451.20	7012.24
451.39	7178.42
451.57	7185.44
451.76	7105.87
451.94	7192.47
452.13	7229.91
452.31	7152.68
452.49	7087.14
452.68	7232.26
452.86	7150.34
453.05	7302.47
453.23	7155.02
453.42	7262.68
453.60	7115.23
453.78	7300.13
453.97	7501.42
454.15	7304.81
454.34	7211.19
454.52	7426.52
454.70	7543.55
454.89	7466.31
455.07	7494.40
455.26	7707.38
455.44	7620.78
455.62	7623.12
455.81	7662.91
455.99	7779.94
456.17	7695.68
456.36	7719.09
456.54	7922.71
456.73	7906.33
456.91	8053.78
457.09	7906.33
457.28	8285.50
457.46	7878.24
457.64	8039.74
457.83	8119.32
458.01	8079.53
458.19	8297.20
458.38	8100.59
458.56	8088.89
458.74	8177.83
458.93	8177.83
459.11	8236.35
459.29	8177.83
459.48	8212.94
459.66	8091.23
459.84	8458.70
460.03	8409.54
460.21	8482.10
460.39	8336.99
460.57	8348.69
460.76	8676.37
460.94	8446.99
461.12	8437.63
461.31	8451.67
461.49	8589.77
461.67	8514.87
461.85	8854.25
462.04	8695.09
462.22	9144.47
462.40	8847.22
462.59	8748.92
462.77	8842.54
462.95	8926.80
463.13	8765.31
463.32	8968.93
463.50	8812.12
463.68	8908.08
463.86	8870.63
464.05	8912.76
464.23	8819.14
464.41	9055.53
464.59	8744.24
464.78	9200.65
464.96	9060.21
465.14	9083.62
465.32	9097.66
465.50	9298.95
465.69	9322.35
465.87	9193.62
466.05	9057.87
466.23	9142.13
466.41	9324.69
466.60	9329.38
466.78	8894.04
466.96	8943.19
467.14	9172.56
467.32	9362.14
467.51	9401.93
467.69	9006.38
467.87	9329.38
468.05	9490.87
468.23	9327.03
468.41	9224.05
468.60	9600.88
468.78	9785.78
468.96	9514.28
469.14	9404.27
469.32	9640.67
469.50	9446.40
469.69	9647.69
469.87	9624.28
470.05	9706.20
470.23	9638.33
470.41	9764.72
470.59	9940.26
470.77	9680.46
470.95	9907.49
471.14	10094.73
471.32	9874.72
471.50	10188.35
471.68	10361.55
471.86	10279.63
472.04	10183.67
472.22	10523.05
472.40	10274.95
472.58	10354.53
472.77	10441.13
472.95	10490.28
473.13	10932.64
473.31	10186.01
473.49	10714.97
473.67	10345.17
473.85	10546.45
474.03	10946.69
474.21	10991.16
474.39	11159.67
474.57	10944.34
474.75	11157.33
474.93	11014.56
475.12	10846.04
475.30	11091.80
475.48	11183.08
475.66	11372.66
475.84	11410.11
476.02	11229.89
476.20	11487.35
476.38	11641.82
476.56	11756.51
476.74	11644.17
476.92	11637.14
477.10	11925.03
477.28	12060.78
477.46	11896.94
477.64	12088.87
477.82	12332.28
478.00	12498.46
478.18	12318.24
478.36	12442.29
478.54	12493.78
478.72	12519.53
478.90	12849.54
479.08	12875.29
479.26	12922.10
479.44	12851.88
479.62	12989.97
479.80	12952.52
479.98	13174.88
480.16	13607.87
480.34	13486.17
480.52	13544.68
480.70	13673.41
480.88	13462.76
481.06	13666.39
481.24	14099.39
481.41	14195.35
481.59	13984.70
481.77	14244.50
481.95	14295.99
482.13	14696.22
482.31	14618.99
482.49	14766.44
482.67	14766.44
482.85	14686.86
483.03	15103.48
483.21	15260.29
483.39	15272.00
483.57	15276.68
483.74	15374.98
483.92	15803.30
484.10	15489.67
484.28	15765.85
484.46	15901.60
484.64	16271.40
484.82	16027.99
485.00	15941.39
485.18	16264.38
485.35	16409.50
485.53	15707.34
485.71	15997.56
485.89	16332.26
486.07	16393.11
486.25	16732.49
486.43	16840.15
486.61	17006.33
486.78	16975.91
486.96	17181.87
487.14	17453.37
487.32	17530.61
487.50	17947.23
487.68	17884.03
487.85	18148.51
488.03	18324.05
488.21	18576.83
488.39	18450.44
488.57	18661.09
488.75	18785.14
488.92	19204.10
489.10	19208.78
489.28	19365.59
489.46	19386.66
489.64	19644.12
489.81	20149.67
489.99	19971.79
490.17	20245.63
490.35	20222.23
490.53	20074.77
490.70	20748.85
490.88	20357.98
491.06	20657.57
491.24	20423.51
491.41	20622.46
491.59	20758.21
491.77	20577.99
491.95	21174.83
492.13	21074.18
492.30	21589.10
492.48	21568.04
492.66	21612.51
492.84	21687.40
493.01	22094.66
493.19	21816.13
493.37	22136.79
493.54	22192.96
493.72	22616.60
493.90	22522.98
494.08	22899.80
494.25	23145.56
494.43	23096.41
494.61	23480.25
494.79	23524.72
494.96	23381.95
495.14	23321.10
495.32	23484.94
495.49	23414.72
495.67	23817.29
495.85	23967.09
496.02	23995.17
496.20	24147.31
496.38	24018.58
496.55	24484.34
496.73	24893.94
496.91	24547.54
497.09	24943.09
497.26	25050.75
497.44	24727.76
497.62	24919.68
497.79	25034.37
497.97	25296.51
498.14	25181.82
498.32	25458.01
498.50	25769.30
498.67	25837.17
498.85	25991.65
499.03	26326.35
499.20	25752.91
499.38	26132.08
499.56	26113.36
499.73	26279.54
499.91	26064.21
500.08	26298.26
500.26	26258.47
500.44	26462.10
500.61	26228.04
500.79	26560.40
500.97	26539.33
501.14	27204.05
501.32	26712.53
501.49	26855.31
501.67	26710.19
501.84	27157.24
502.02	27129.15
502.20	27489.59
502.37	27735.35
502.55	27655.77
502.72	27737.69
502.90	27697.90
503.07	28203.46
503.25	27941.32
503.43	27440.44
503.60	28077.07
503.78	27644.07
503.95	28048.98
504.13	28180.05
504.30	28425.81
504.48	28348.57
504.65	28643.48
504.83	28690.29
505.01	28744.12
505.18	28907.96
505.36	29390.11
505.53	29064.77
505.71	29834.81
505.88	29647.57
506.06	29216.91
506.23	29240.31
506.41	29619.48
506.58	29174.78
506.76	29783.32
506.93	29926.09
507.11	29633.52
507.28	29462.66
507.46	29682.67
507.63	29509.47
507.81	29771.61
507.98	29898.00
508.16	30665.70
508.33	30333.34
508.50	30560.37
508.68	30579.10
508.85	30740.60
509.03	30520.59
509.20	30487.82
509.38	30965.29
509.55	31108.06
509.73	30976.99
509.90	31122.10
510.08	31133.81
510.25	31115.08
510.42	31365.52
510.60	31597.23
510.77	31395.95
510.95	31578.51
511.12	31782.13
511.30	31622.98
511.47	32144.92
511.64	32020.87
511.82	31967.04
511.99	32065.34
512.17	32020.87
512.34	32350.88
512.51	32065.34
512.69	32219.81
512.86	32552.17
513.04	32809.63
513.21	32481.95
513.38	32793.25
513.56	32615.37
513.73	32444.51
513.90	32863.46
514.08	32762.82
514.25	32657.49
514.43	33235.61
514.60	33310.50
514.77	32912.61
514.95	33523.49
515.12	33369.02
515.29	33418.17
515.47	33897.98
515.64	33605.41
515.81	33399.44
515.99	33954.15
516.16	33268.37
516.33	33343.27
516.51	33294.12
516.68	33076.45
516.85	32907.93
517.03	33177.09
517.20	33640.52
517.37	34068.84
517.54	34440.98
517.72	34106.29
517.89	33787.97
518.06	33724.78
518.24	33415.83
518.41	34064.16
518.58	34291.19
518.75	34501.84
518.93	34478.43
519.10	34670.36
519.27	34946.54
519.45	34890.37
519.62	34820.15
519.79	35365.49
519.96	35262.51
520.14	35002.71
520.31	34960.58
520.48	35079.95
520.65	34845.90
520.83	35639.34
521.00	35503.59
521.17	35604.23
521.34	35840.62
521.52	35658.06
521.69	35756.36
521.86	36210.43
522.03	36479.59
522.20	35845.30
522.38	36161.28
522.55	36161.28
522.72	35882.75
522.89	36318.09
523.07	36147.23
523.24	36369.58
523.41	36584.91
523.58	36858.76
523.75	37071.75
523.92	37095.15
524.10	36898.55
524.27	36931.31
524.44	36889.18
524.61	37184.09
524.78	37359.63
524.96	37319.84
525.13	37251.97
525.30	37188.77
525.47	37572.62
525.64	37062.38
525.81	37277.71
525.98	37158.34
526.16	37509.43
526.33	36884.50
526.50	37291.76
526.67	36907.91
526.84	36940.68
527.01	37111.53
527.18	37273.03
527.36	37680.28
527.53	38361.38
527.70	38202.22
527.87	38017.32
528.04	38326.27
528.21	38026.68
528.38	38319.25
528.55	38579.05
528.72	38639.90
528.89	38745.23
529.07	38405.85
529.24	38464.36
529.41	38632.88
529.58	38522.88
529.75	38316.91
529.92	39051.84
530.09	39175.89
530.26	38653.95
530.43	39093.97
530.60	38934.81
530.77	38799.06
530.94	38976.94
531.11	38979.28
531.28	39229.72
531.46	38988.64
531.63	39285.89
531.80	39431.01
531.97	39150.14
532.14	39147.80
532.31	38595.43
532.48	39147.80
532.65	39119.71
532.82	39342.06
532.99	39681.44
533.16	39271.85
533.33	39566.76
533.50	39915.50
533.67	39653.36
533.84	39688.46
534.01	39824.22
534.18	39606.55
534.35	40182.32
534.52	39969.33
534.69	40444.46
534.86	40301.68
535.03	40210.40
535.20	40287.64
535.37	40783.83
535.54	40666.81
535.71	40182.32
535.88	40301.68
536.05	40767.45
536.22	40601.27
536.38	40568.51
536.55	40371.90
536.72	40147.21
536.89	40058.27
537.06	40423.39
537.23	40687.87
537.40	40608.29
537.57	40524.04
537.74	41006.19
537.91	41083.42
538.08	40713.62
538.25	41036.61
538.42	41099.81
538.59	41092.79
538.75	40488.93
538.92	41034.27
539.09	40947.67
539.26	41104.49
539.43	41125.55
539.60	41013.21
539.77	41141.94
539.94	41256.62
540.11	41076.40
540.28	41345.56
540.44	41521.10
540.61	41411.10
540.78	41450.89
540.95	41294.07
541.12	41439.18
541.29	41130.23
541.46	41563.23
541.62	41120.87
541.79	41783.24
541.96	41495.36
542.13	41642.81
542.30	41581.96
542.47	42021.98
542.63	41794.95
542.80	41874.52
542.97	42253.69
543.14	42483.06
543.31	42120.28
543.48	42029.00
543.64	42759.25
543.81	42373.06
543.98	42344.97
544.15	42464.34
544.32	42417.53
544.48	42843.51
544.65	42593.07
544.82	42672.65
544.99	41979.85
545.16	42501.79
545.32	42562.64
545.49	43271.82
545.66	42368.38
545.83	42328.59
546.00	42958.19
546.16	42564.98
546.33	43077.56
546.50	42581.37
546.67	42906.70
546.83	42635.20
547.00	43124.37
547.17	43206.29
547.34	42667.97
547.50	42674.99
547.67	43239.06
547.84	43007.34
548.00	43115.01
548.17	43379.49
548.34	43695.46
548.51	43835.89
548.67	43601.84
548.84	43423.96
549.01	43475.45
549.18	43381.83
549.34	43629.93
549.51	43442.68
549.68	43536.30
549.84	43725.89
550.01	43962.28
550.18	43482.47
550.34	43938.88
550.51	43789.08
550.68	43739.93
550.84	43124.37
551.01	43964.62
551.18	43660.35
551.34	44098.03
551.51	43702.48
551.68	43892.07
551.84	43695.46
552.01	43351.40
552.18	44165.91
552.34	43571.41
552.51	43854.62
552.68	43718.87
552.84	44215.06
553.01	44446.77
553.18	43824.19
553.34	44364.85
553.51	43784.40
553.67	44582.52
553.84	44814.24
554.01	44765.09
554.17	44371.88
554.34	44327.41
554.51	44650.40
554.67	44392.94
554.84	44346.13
555.00	44161.23
555.17	44411.67
555.33	44531.03
555.50	44383.58
555.67	44287.62
555.83	44608.27
556.00	44758.06
556.16	44753.38
556.33	44671.46
556.50	44737.00
556.66	44570.82
556.83	44322.72
556.99	44879.77
557.16	44406.98
557.32	44727.64
557.49	44769.77
557.65	44744.02
557.82	44751.04
557.98	45015.52
558.15	44603.59
558.32	45106.80
558.48	44498.26
558.65	44671.46
558.81	44591.89
558.98	44720.62
559.14	44531.03
559.31	44516.99
559.47	44825.94
559.64	45024.89
559.80	44594.23
559.97	44971.05
560.13	44498.26
560.30	44797.85
560.46	45102.12
560.63	45116.17
560.79	45067.02
560.96	45202.77
561.12	45233.19
561.29	44933.60
561.45	45308.09
561.61	45205.11
561.78	45258.94
561.94	44547.42
562.11	44985.10
562.27	44868.07
562.44	45305.75
562.60	45572.57
562.77	44982.76
562.93	45696.62
563.10	45132.55
563.26	44769.77
563.42	45432.14
563.59	44989.78
563.75	45553.85
563.92	45027.23
564.08	45263.62
564.24	45287.03
564.41	45450.86
564.57	45303.41
564.74	45523.42
564.90	45350.22
565.07	45570.23
565.23	45406.39
565.39	45214.47
565.56	45081.06
565.72	44947.65
565.88	45359.58
566.05	45184.04
566.21	45694.28
566.38	45481.29
566.54	45244.90
566.70	45160.64
566.87	46160.05
567.03	45219.15
567.19	46012.59
567.36	45895.56
567.52	45528.10
567.68	45858.12
567.85	44910.20
568.01	45773.86
568.17	45717.68
568.34	45638.11
568.50	45785.56
568.66	45298.73
568.83	45610.02
568.99	45345.54
569.15	45741.09
569.32	45436.82
569.48	45586.61
569.64	45738.75
569.81	45647.47
569.97	45595.98
570.13	45598.32
570.30	45478.95
570.46	45045.95
570.62	45404.05
570.78	44938.29
570.95	45436.82
571.11	45661.51
571.27	45584.27
571.43	45294.05
571.60	45853.44
571.76	45713.00
571.92	45713.00
572.09	45560.87
572.25	45888.54
572.41	45937.69
572.57	45638.11
572.74	46607.09
572.90	45869.82
573.06	45801.94
573.22	46267.71
573.38	45832.37
573.55	45628.74
573.71	45811.31
573.87	45979.82
574.03	45698.96
574.20	45876.84
574.36	45551.51
574.52	45886.20
574.68	45614.70
574.84	45886.20
575.01	45287.03
575.17	45806.62
575.33	45006.16
575.49	45352.56
575.65	46157.70
575.82	46117.92
575.98	45488.31
576.14	46043.02
576.30	45785.56
576.46	45570.23
576.62	45755.13
576.79	45614.70
576.95	45799.60
577.11	45991.53
577.27	45696.62
577.43	45661.51
577.59	45212.13
577.75	45584.27
577.92	45483.63
578.08	45429.80
578.24	45333.84
578.40	45361.92
578.56	45350.22
578.72	45420.44
578.88	46052.38
579.04	45375.97
579.21	45059.99
579.37	45595.98
579.53	45567.89
579.69	45415.76
579.85	45551.51
580.01	45654.49
580.17	45614.70
580.33	46206.86
580.49	46003.23
580.65	45872.16
580.82	46038.34
580.98	45731.73
581.14	45624.06
581.30	45738.75
581.46	45867.48
581.62	45897.91
581.78	45420.44
581.94	46445.59
582.10	45338.52
582.26	45682.58
582.42	45893.22
582.58	45759.81
582.74	45996.21
582.90	46387.08
583.06	46146.00
583.22	46057.06
583.38	45832.37
583.54	45918.97
583.70	45563.21
583.86	46155.36
584.02	45867.48
584.18	45647.47
584.34	45949.40
584.50	45715.34
584.66	46167.07
584.82	45539.80
584.98	45933.01
585.14	45956.42
585.30	45495.33
585.46	45794.92
585.62	45673.21
585.78	45595.98
585.94	45516.40
586.10	46129.62
586.26	45661.51
586.42	45862.80
586.58	46263.03
586.74	46323.88
586.90	45551.51
587.06	45731.73
587.22	45834.71
587.38	45764.49
587.54	46176.43
587.70	45977.48
587.86	45422.78
588.02	45336.18
588.18	46078.13
588.34	45450.86
588.49	45710.66
588.65	45214.47
588.81	45766.84
588.97	45495.33
589.13	45127.87
589.29	45296.39
589.45	45312.77
589.61	45991.53
589.77	46277.07
589.93	45785.56
590.08	45771.52
590.24	45771.52
590.40	46101.53
590.56	46227.92
590.72	45724.71
590.88	45593.64
591.04	46433.89
591.20	46403.46
591.35	46036.00
591.51	46504.10
591.67	45680.24
591.83	45855.78
591.99	45481.29
592.15	45811.31
592.31	45792.58
592.46	45951.74
592.62	46131.96
592.78	46155.36
592.94	46085.15
593.10	45708.32
593.26	46366.01
593.41	46256.01
593.57	45918.97
593.73	45729.39
593.89	45759.81
594.05	46274.73
594.20	46038.34
594.36	46314.52
594.52	45663.85
594.68	46274.73
594.84	45748.11
594.99	46555.60
595.15	45930.67
595.31	46080.47
595.47	45958.76
595.62	46270.05
595.78	45790.24
595.94	46433.89
596.10	46351.97
596.25	46012.59
596.41	46356.65
596.57	45947.06
596.73	45921.31
596.88	45766.84
597.04	45813.65
597.20	45820.67
597.36	46040.68
597.51	46326.22
597.67	46028.98
597.83	45715.34
597.99	46422.19
598.14	45893.22
598.30	46424.53
598.46	45895.56
598.61	46717.09
598.77	45909.61
598.93	46138.98
599.09	46419.84
599.24	46307.50
599.40	46319.20
599.56	46064.08
599.71	46106.21
599.87	46604.75
600.03	46239.62
600.18	46171.75
600.34	46419.84
600.50	46007.91
600.65	45897.91
600.81	46012.59
600.97	45860.46
601.12	46199.83
601.28	45956.42
601.44	46293.46
601.59	45813.65
601.75	45827.69
601.91	45769.18
602.06	45792.58
602.22	46206.86
602.37	46052.38
602.53	45982.16
602.69	46206.86
602.84	45853.44
603.00	45984.51
603.16	45759.81
603.31	45848.75
603.47	45603.00
603.62	45970.46
603.78	46485.38
603.94	45787.90
604.09	46244.30
604.25	46059.40
604.40	45713.00
604.56	46223.24
604.71	46295.80
604.87	45860.46
605.03	45787.90
605.18	45811.31
605.34	46012.59
605.49	45827.69
605.65	45738.75
605.80	46248.99
605.96	45881.52
606.12	45769.18
606.27	45888.54
606.43	45834.71
606.58	45720.02
606.74	45902.59
606.89	45420.44
607.05	46078.13
607.20	45909.61
607.36	45862.80
607.51	45691.94
607.67	45944.72
607.82	45860.46
607.98	45471.93
608.13	45354.90
608.29	45677.90
608.44	45240.21
608.60	45497.67
608.75	45727.05
608.91	46094.51
609.06	45207.45
609.22	45865.14
609.37	45759.81
609.53	45731.73
609.68	45675.55
609.84	45691.94
609.99	45336.18
610.15	45553.85
610.30	45385.33
610.46	45595.98
610.61	45289.37
610.76	45563.21
610.92	45530.44
611.07	45439.16
611.23	45214.47
611.38	45436.82
611.54	45172.34
611.69	45158.30
611.84	45340.86
612.00	45226.17
612.15	45202.77
612.31	45382.99
612.46	44905.52
612.62	45244.90
612.77	45191.06
612.92	45549.17
613.08	44715.93
613.23	45097.44
613.39	44914.88
613.54	44573.16
613.69	44708.91
613.85	44715.93
614.00	44896.16
614.15	45013.18
614.31	44629.34
614.46	44949.99
614.62	44989.78
614.77	44594.23
614.92	44992.12
615.08	45031.91
615.23	44669.12
615.38	44800.19
615.54	44327.41
615.69	44636.36
615.84	44811.90
616.00	44484.22
616.15	44636.36
616.30	44610.61
616.46	44519.33
616.61	44205.70
616.76	44315.70
616.92	44144.84
617.07	44432.73
617.22	44612.95
617.37	44687.85
617.53	44605.93
617.68	44687.85
617.83	44622.31
617.99	44348.47
618.14	44526.35
618.29	44201.02
618.45	44081.65
618.60	44020.80
618.75	43814.83
618.90	43941.22
619.06	44074.63
619.21	44140.16
619.36	44287.62
619.51	43735.25
619.67	44224.42
619.82	43702.48
619.97	44105.06
620.12	43758.66
620.28	43789.08
620.43	43721.21
620.58	44053.56
620.73	43716.53
620.89	43688.44
621.04	43555.03
621.19	44304.00
621.34	44030.16
621.49	43328.00
621.65	43487.15
621.80	44112.08
621.95	43636.95
622.10	44023.14
622.25	43239.06
622.41	43342.04
622.56	43608.86
622.71	43531.62
622.86	43318.64
623.01	43402.89
623.16	43753.97
623.32	43122.03
623.47	43117.35
623.62	43253.10
623.77	43395.87
623.92	43618.22
624.07	42862.23
624.23	42974.58
624.38	43119.69
624.53	42770.95
624.68	43580.78
624.83	43311.61
624.98	42990.96
625.13	42777.97
625.29	42871.59
625.44	43192.25
625.59	43002.66
625.74	42803.72
625.89	42834.14
626.04	42541.58
626.19	42796.70
626.34	43054.15
626.49	43030.75
626.65	43007.34
626.80	42696.05
626.95	42485.40
627.10	42419.87
627.25	42686.69
627.40	42377.74
627.55	42639.88
627.70	42071.13
627.85	42646.90
628.00	42639.88
628.15	42527.53
628.30	42700.73
628.45	42370.72
628.60	42651.58
628.76	42976.92
628.91	42349.65
629.06	42148.37
629.21	42351.99
629.36	42185.82
629.51	42305.18
629.66	42131.98
629.81	42183.48
629.96	42115.60
630.11	42169.43
630.26	42272.42
630.41	42012.62
630.56	42270.08
630.71	42033.68
630.86	42157.73
631.01	41846.44
631.16	41940.06
631.31	41696.64
631.46	41474.29
631.61	41642.81
631.76	42010.28
631.91	42209.22
632.06	42122.62
632.21	41872.18
632.36	41698.98
632.51	41371.31
632.66	41717.71
632.81	41282.37
632.96	41780.90
633.10	41434.50
633.25	41610.04
633.40	41577.28
633.55	41528.13
633.70	41748.14
633.85	41315.14
634.00	41876.86
634.15	41823.03
634.30	41139.60
634.45	41453.23
634.60	41301.09
634.75	41034.27
634.90	41064.70
635.05	40989.80
635.19	40825.96
635.34	41511.74
635.49	41324.50
635.64	41462.59
635.79	40849.37
635.94	41200.45
636.09	41209.81
636.24	40854.05
636.39	40528.72
636.53	41083.42
636.68	40502.97
636.83	40865.75
636.98	40825.96
637.13	40872.78
637.28	41214.49
637.43	41076.40
637.57	41312.80
637.72	40481.91
637.87	40816.60
638.02	41050.66
638.17	41118.53
638.32	40996.82
638.46	40528.72
638.61	40392.97
638.76	40322.75
638.91	40568.51
639.06	40353.18
639.20	40706.60
639.35	41031.93
639.50	40664.47
639.65	40847.03
639.80	40158.91
639.94	40615.32
640.09	40568.51
640.24	40519.35
640.39	40191.68
640.54	40156.57
640.68	40093.38
640.83	39791.45
640.98	40191.68
641.13	39672.08
641.27	40240.83
641.42	39988.05
641.57	40428.07
641.72	40552.12
641.86	40172.96
642.01	39962.31
642.16	40004.44
642.31	39529.31
642.45	40034.86
642.60	39353.77
642.75	39842.94
642.90	40217.43
643.04	40016.14
643.19	39442.71
643.34	40041.88
643.48	39882.73
643.63	39672.08
643.78	39683.78
643.93	40034.86
644.07	39222.70
644.22	39054.18
644.37	39739.96
644.51	39496.54
644.66	39344.41
644.81	39735.27
644.95	39548.03
645.10	39655.70
645.25	39498.88
645.39	39306.96
645.54	39421.64
645.69	39463.77
645.83	39461.43
645.98	39054.18
646.13	39028.43
646.27	39248.44
646.42	39075.24
646.57	39171.21
646.71	39117.37
646.86	38897.36
647.00	39035.45
647.15	39325.68
647.30	38799.06
647.44	39005.03
647.59	38667.99
647.74	38548.62
647.88	39037.80
648.03	38845.87
648.17	38796.72
648.32	38581.39
648.47	38745.23
648.61	38440.96
648.76	38993.32
648.90	38707.78
649.05	38677.35
649.20	38822.47
649.34	38979.28
649.49	38445.64
649.63	38644.59
649.78	38747.57
649.92	37951.79
650.07	38469.04
650.21	39157.16
650.36	38473.73
650.51	38593.09
650.65	38653.95
650.80	39246.10
650.94	38628.20
651.09	38272.44
651.23	38092.22
651.38	38143.71
651.52	38230.31
651.67	38167.12
651.81	38071.15
651.96	38398.83
652.10	37801.99
652.25	38120.31
652.39	38450.32
652.54	38485.43
652.68	38110.94
652.83	38267.76
652.97	38511.17
653.12	38293.50
653.26	37846.46
653.41	37715.39
653.55	38246.69
653.70	38082.86
653.84	37897.95
653.99	37909.66
654.13	37890.93
654.27	37996.26
654.42	37989.24
654.56	37797.31
654.71	37933.06
654.85	37897.95
655.00	38012.64
655.14	38057.11
655.29	37214.52
655.43	37443.89
655.57	37256.65
655.72	37268.35
655.86	37024.93
656.01	36584.91
656.15	36858.76
656.30	37090.47
656.44	36961.74
656.58	36971.10
656.73	37174.73
656.87	36334.48
657.01	36790.88
657.16	36968.76
657.30	36512.36
657.45	36847.05
657.59	36858.76
657.73	36905.57
657.88	37015.57
658.02	37338.57
658.16	37659.22
658.31	37001.53
658.45	36898.55
658.60	37184.09
658.74	36992.17
658.88	37167.71
659.03	36552.15
659.17	36753.43
659.31	36973.44
659.46	36016.16
659.60	36987.49
659.74	36732.37
659.89	36184.68
660.03	36374.27
660.17	36584.91
660.32	36566.19
660.46	36236.17
660.60	36133.19
660.74	36182.34
660.89	36332.14
661.03	36074.68
661.17	36084.04
661.32	36048.93
661.46	35974.03
661.60	35812.54
661.74	36039.57
661.89	36091.06
662.03	35761.05
662.17	35948.29
662.31	35866.37
662.46	36643.43
662.60	35899.14
662.74	35812.54
662.88	35896.80
663.03	35321.02
663.17	35826.58
663.31	35164.21
663.45	35974.03
663.60	35510.61
663.74	35026.12
663.88	35379.54
664.02	35487.20
664.17	35569.12
664.31	34955.90
664.45	34827.17
664.59	35033.14
664.73	34555.67
664.88	34991.01
665.02	34185.86
665.16	34459.71
665.30	34300.55
665.44	34597.80
665.59	34373.11
665.73	34391.83
665.87	34295.87
666.01	34319.28
666.15	34843.56
666.29	34089.90
666.44	35049.52
666.58	34838.87
666.72	34398.85
666.86	34511.20
667.00	34316.93
667.14	34239.70
667.28	34010.32
667.43	34204.59
667.57	34326.30
667.71	33680.31
667.85	33972.88
667.99	34148.42
668.13	34017.35
668.27	33893.30
668.41	33944.79
668.56	33532.86
668.70	33532.86
668.84	33261.35
668.98	33090.49
669.12	33184.12
669.26	33195.82
669.40	33301.14
669.54	32790.91
669.68	33106.88
669.82	32945.38
669.96	32954.74
670.10	32210.45
670.25	33001.55
670.39	32711.33
670.53	32919.63
670.67	32952.40
670.81	32776.86
670.95	32524.08
671.09	32765.16
671.23	32449.19
671.37	32224.50
671.51	32362.59
671.65	32210.45
671.79	31594.89
671.93	32294.71
672.07	32037.25
672.21	31866.39
672.35	31569.15
672.49	32011.51
672.63	32201.09
672.77	31695.53
672.91	31711.92
673.05	31477.86
673.19	31749.37
673.33	31089.34
673.47	31541.06
673.61	31239.13
673.75	31054.23
673.89	31164.23
674.03	30740.60
674.17	31044.87
674.31	30948.90
674.45	30972.31
674.59	31414.67
674.73	31290.62
674.87	30677.40
675.01	30515.90
675.15	30616.55
675.29	30761.66
675.43	30408.24
675.56	30595.48
675.70	30623.57
675.84	30728.89
675.98	29301.17
676.12	30429.30
676.26	30595.48
676.40	30490.16
676.54	30202.27
676.68	29802.04
676.82	29172.44
676.96	30050.14
677.10	29970.56
677.23	29408.83
677.37	29586.71
677.51	29390.11
677.65	29195.84
677.79	29109.24
677.93	29223.93
678.07	28524.11
678.21	28842.42
678.34	28570.92
678.48	28496.02
678.62	28444.53
678.76	28357.93
678.90	28215.16
679.04	28678.58
679.18	28489.00
679.31	27690.88
679.45	27920.25
679.59	28002.17
679.73	27924.93
679.87	27803.22
680.00	27639.39
680.14	27765.78
680.28	27433.42
680.42	27620.66
680.56	27318.73
680.70	27269.58
680.83	27356.18
680.97	27248.52
681.11	27082.34
681.25	27150.21
681.39	26946.59
681.52	27171.28
681.66	27000.42
681.80	26817.86
681.94	26417.63
682.07	26623.59
682.21	26356.77
682.35	26466.78
682.49	26354.43
682.62	26059.52
682.76	25942.50
682.90	25881.64
683.04	25879.30
683.17	25933.14
683.31	25872.28
683.45	25785.68
683.59	25465.03
683.72	25385.45
683.86	25680.36
684.00	25139.69
684.13	25240.34
684.27	24776.91
684.41	24774.57
684.55	24545.20
684.68	24868.19
684.82	24912.66
684.96	25006.28
685.09	24496.05
685.23	24613.07
685.37	24922.02
685.50	24505.41
685.64	24643.50
685.78	24151.99
685.91	24081.77
686.05	24407.11
686.19	23576.22
686.32	23653.45
686.46	23775.16
686.60	23119.81
686.73	23314.08
686.87	22836.61
687.01	23197.05
687.14	23009.81
687.28	22647.02
687.42	22860.01
687.55	22551.06
687.69	22918.53
687.82	22611.92
687.96	23007.47
688.10	22218.71
688.23	22338.07
688.37	22462.12
688.50	22485.53
688.64	22595.53
688.78	22288.92
688.91	21975.29
689.05	21776.34
689.18	21589.10
689.32	21699.11
689.46	22223.39
689.59	21834.86
689.73	22005.72
689.86	21481.44
690.00	21575.06
690.13	21465.05
690.27	21296.53
690.41	21109.29
690.54	20987.58
690.68	21142.06
690.81	21048.44
690.95	21111.63
691.08	21006.31
691.22	20903.32
691.35	20835.45
691.49	20924.39
691.62	20781.62
691.76	20795.66
691.89	20725.44
692.03	20559.27
692.16	20170.74
692.30	19929.66
692.43	20189.46
692.57	20341.60
692.70	19665.18
692.84	19688.59
692.97	19796.25
693.11	19594.96
693.24	19510.71
693.38	19346.87
693.51	19538.79
693.65	19527.09
693.78	19349.21
693.92	19068.34
694.05	19269.63
694.19	19346.87
694.32	19187.71
694.45	19183.03
694.59	18984.09
694.72	19192.39
694.86	18874.08
694.99	19157.28
695.13	18558.11
695.26	18576.83
695.39	18305.33
695.53	18637.69
695.66	18157.88
695.80	18363.84
695.93	17982.34
696.07	18305.33
696.20	18281.92
696.33	18183.62
696.47	17834.88
696.60	17895.74
696.73	17872.33
696.87	17748.28
697.00	17645.30
697.14	17710.83
697.27	17352.73
697.40	17184.21
697.54	17081.23
697.67	17088.25
697.80	17123.36
697.94	17069.53
698.07	16877.60
698.21	16882.28
698.34	17104.64
698.47	17233.36
698.61	16783.98
698.74	16690.36
698.87	16849.52
699.01	16498.44
699.14	16248.00
699.27	16304.17
699.40	16360.34
699.54	16173.10
699.67	16025.65
699.80	16037.35
699.94	16058.42
700.07	15974.16
700.20	15981.18
700.34	15910.96
700.47	15658.18
700.60	15761.17
700.73	15524.77
700.87	15730.74
701.00	15482.64
701.13	15653.50
701.26	15159.65
701.40	15269.66
701.53	15154.97
701.66	15241.57
701.79	15178.37
701.93	14984.11
702.06	14771.12
702.19	14588.56
702.32	14759.42
702.46	14541.75
702.59	14590.90
702.72	14794.53
702.85	14941.98
702.99	14595.58
703.12	14525.36
703.25	14448.13
703.38	14335.78
703.51	14352.16
703.65	14083.00
703.78	14054.92
703.91	13731.92
704.04	13837.25
704.17	13919.17
704.31	13855.97
704.44	13893.42
704.57	13823.20
704.70	13565.74
704.83	13427.65
704.96	13642.98
705.10	13593.83
705.23	13427.65
>>>>>End Processed Spectral Data<<<<<
