SpectraSuite Data File
++++++++++++++++++++++++++++++++++++
Date: Fri Oct 25 10:44:30 EDT 2013
User: price-jones
Dark Spectrum Present: No
Reference Spectrum Present: No
Number of Sampled Component Spectra: 1
Spectrometers: USB2+H05261
Integration Time (usec): 100000 (USB2+H05261)
Spectra Averaged: 1 (USB2+H05261)
Boxcar Smoothing: 0 (USB2+H05261)
Correct for Electrical Dark: No (USB2+H05261)
Strobe/Lamp Enabled: No (USB2+H05261)
Correct for Detector Non-linearity: No (USB2+H05261)
Correct for Stray Light: No (USB2+H05261)
Number of Pixels in Processed Spectrum: 2048
>>>>>Begin Processed Spectral Data<<<<<
365.73	100.64
365.92	100.64
366.12	100.64
366.32	0.00
366.52	0.00
366.72	9.36
366.91	56.17
367.11	11.70
367.31	16.38
367.51	0.00
367.70	58.51
367.90	0.00
368.10	9.36
368.30	11.70
368.49	18.72
368.69	93.62
368.89	32.77
369.09	21.06
369.28	56.17
369.48	58.51
369.68	53.83
369.87	126.39
370.07	100.64
370.27	159.16
370.47	154.48
370.66	365.12
370.86	404.91
371.06	407.25
371.25	442.36
371.45	425.98
371.65	491.51
371.84	376.83
372.04	458.74
372.24	458.74
372.44	444.70
372.63	475.13
372.83	421.30
373.03	533.64
373.22	510.24
373.42	416.62
373.62	610.88
373.81	477.47
374.01	552.37
374.21	503.22
374.40	547.69
374.60	500.87
374.79	500.87
374.99	589.82
375.19	587.47
375.38	540.66
375.58	580.45
375.78	585.13
375.97	587.47
376.17	606.20
376.37	615.56
376.56	636.63
376.76	650.67
376.95	589.82
377.15	620.24
377.35	643.65
377.54	601.52
377.74	653.01
377.93	620.24
378.13	685.78
378.33	657.69
378.52	631.94
378.72	613.22
378.91	648.33
379.11	566.41
379.31	601.52
379.50	596.84
379.70	638.97
379.89	617.90
380.09	627.26
380.28	699.82
380.48	732.59
380.68	676.41
380.87	699.82
381.07	674.07
381.26	685.78
381.46	741.95
381.65	753.65
381.85	657.69
382.04	678.76
382.24	765.36
382.43	683.44
382.63	697.48
382.83	660.03
383.02	678.76
383.22	779.40
383.41	645.99
383.61	755.99
383.80	755.99
384.00	781.74
384.19	767.70
384.39	781.74
384.58	751.31
384.78	716.20
384.97	802.80
385.17	723.23
385.36	704.50
385.56	826.21
385.75	779.40
385.95	791.10
386.14	819.19
386.34	795.78
386.53	826.21
386.72	784.08
386.92	755.99
387.11	786.42
387.31	758.33
387.50	896.43
387.70	896.43
387.89	880.04
388.09	826.21
388.28	866.00
388.48	875.36
388.67	938.55
388.86	877.70
389.06	938.55
389.25	868.34
389.45	884.72
389.64	973.66
389.84	983.02
390.03	873.02
390.22	915.15
390.42	1001.75
390.61	1029.84
390.81	922.17
391.00	1022.81
391.19	980.68
391.39	1011.11
391.58	926.85
391.78	1062.60
391.97	1057.92
392.16	961.96
392.36	1060.26
392.55	1006.43
392.75	961.96
392.94	936.21
393.13	1029.84
393.33	971.32
393.52	994.73
393.71	1060.26
393.91	994.73
394.10	968.98
394.29	1118.78
394.49	1151.54
394.68	1160.91
394.88	1235.80
395.07	1231.12
395.26	1158.57
395.46	1196.01
395.65	1219.42
395.84	1188.99
396.04	1207.72
396.23	1193.67
396.42	1102.39
396.62	1156.22
396.81	1160.91
397.00	1107.07
397.19	1151.54
397.39	1224.10
397.58	1366.87
397.77	1308.36
397.97	1387.94
398.16	1277.93
398.35	1390.28
398.55	1387.94
398.74	1458.15
398.93	1411.34
399.12	1451.13
399.32	1423.05
399.51	1479.22
399.70	1507.30
399.90	1446.45
400.09	1540.07
400.28	1507.30
400.47	1530.71
400.67	1631.35
400.86	1614.97
401.05	1542.41
401.24	1570.50
401.44	1549.43
401.63	1633.69
401.82	1675.82
402.01	1654.76
402.21	1638.38
402.40	1584.54
402.59	1603.27
402.78	1600.93
402.97	1774.13
403.17	1708.59
403.36	1696.89
403.55	1645.40
403.74	1717.95
403.93	1748.38
404.13	1834.98
404.32	1853.70
404.51	1767.10
404.70	1851.36
404.89	1797.53
405.09	1755.40
405.28	1722.63
405.47	1827.96
405.66	1912.22
405.85	1877.11
406.05	1872.43
406.24	2003.50
406.43	1846.68
406.62	1956.69
406.81	2052.65
407.00	1886.47
407.20	1893.49
407.39	1923.92
407.58	2001.16
407.77	2022.22
407.96	2090.10
408.15	2176.70
408.34	2017.54
408.54	2097.12
408.73	2125.21
408.92	2080.74
409.11	2139.25
409.30	2125.21
409.49	2148.61
409.68	2181.38
409.87	2214.15
410.07	2270.32
410.26	2282.02
410.45	2270.32
410.64	2172.02
410.83	2267.98
411.02	2394.37
411.21	2438.84
411.40	2476.29
411.59	2588.63
411.78	2363.94
411.98	2511.39
412.17	2464.58
412.36	2574.59
412.55	2588.63
412.74	2546.50
412.93	2710.34
413.12	2583.95
413.31	2738.43
413.50	2569.91
413.69	2698.64
413.88	2862.48
414.07	2621.40
414.26	2803.96
414.45	2801.62
414.64	2918.65
414.83	2761.83
415.02	2923.33
415.22	2796.94
415.41	3026.31
415.60	2928.01
415.79	3066.10
415.98	3164.40
416.17	3180.79
416.36	3084.83
416.55	3166.74
416.74	3157.38
416.93	3080.14
417.12	3108.23
417.31	3103.55
417.50	3185.47
417.69	3253.34
417.88	3103.55
418.07	3211.22
418.26	3365.69
418.45	3337.60
418.64	3468.67
418.83	3496.76
419.02	3370.37
419.21	3361.01
419.39	3410.16
419.58	3337.60
419.77	3351.65
419.96	3562.30
420.15	3583.36
420.34	3527.19
420.53	3726.13
420.72	3658.26
420.91	3522.51
421.10	3485.06
421.29	3655.92
421.48	3569.32
421.67	3585.70
421.86	3632.51
422.05	3641.87
422.24	3658.26
422.43	3674.64
422.61	3723.79
422.80	3747.20
422.99	3632.51
423.18	3709.75
423.37	3744.86
423.56	3669.96
423.75	3639.53
423.94	3646.55
424.13	3588.04
424.32	3702.73
424.50	3599.74
424.69	3875.93
424.88	3840.82
425.07	3791.67
425.26	3763.58
425.45	3721.45
425.64	3702.73
425.83	3838.48
426.01	3742.52
426.20	3789.33
426.39	3850.18
426.58	3695.71
426.77	3707.41
426.96	3733.15
427.15	3765.92
427.33	3840.82
427.52	3784.65
427.71	4088.92
427.90	3894.65
428.09	3873.59
428.28	3840.82
428.46	3967.21
428.65	4060.83
428.84	4091.26
429.03	4180.20
429.22	3866.56
429.40	3927.42
429.59	3922.74
429.78	3777.62
429.97	3786.99
430.16	3845.50
430.34	4028.06
430.53	3960.19
430.72	4070.19
430.91	4117.00
431.10	4201.26
431.28	4259.78
431.47	4409.57
431.66	4365.10
431.85	4376.80
432.03	4360.42
432.22	4435.32
432.41	4440.00
432.60	4589.79
432.79	4325.31
432.97	4407.23
433.16	4472.76
433.35	4482.13
433.54	4528.94
433.72	4580.43
433.91	4475.10
434.10	4610.86
434.28	4606.17
434.47	4566.39
434.66	4648.30
434.85	4692.77
435.03	4781.71
435.22	4755.97
435.41	4798.10
435.59	4823.84
435.78	4812.14
435.97	4816.82
436.16	4894.06
436.34	4889.38
436.53	5083.64
436.72	4905.76
436.90	4842.57
437.09	4856.61
437.28	4877.68
437.46	4943.21
437.65	5090.67
437.84	4889.38
438.02	4868.31
438.21	4950.23
438.40	5036.83
438.58	5174.92
438.77	5291.95
438.96	5170.24
439.14	5331.74
439.33	5432.38
439.52	5298.97
439.70	5268.55
439.89	5556.43
440.08	5547.07
440.26	5495.58
440.45	5434.72
440.63	5624.31
440.82	5673.46
441.01	5598.56
441.19	5507.28
441.38	5781.12
441.57	5802.19
441.75	5762.40
441.94	5991.77
442.12	5877.09
442.31	6071.35
442.50	6092.41
442.68	5996.45
442.87	5991.77
443.05	5912.19
443.24	6146.25
443.43	6176.67
443.61	6104.12
443.80	6253.91
443.98	6097.10
444.17	5980.07
444.35	6361.58
444.54	6382.64
444.73	5937.94
444.91	6061.99
445.10	6225.82
445.28	6127.52
445.47	6160.29
445.65	5919.21
445.84	6193.06
446.02	6363.92
446.21	6310.08
446.39	6207.10
446.58	6256.25
446.77	6298.38
446.95	6150.93
447.14	6340.51
447.32	6546.48
447.51	6396.68
447.69	6303.06
447.88	6466.90
448.06	6394.34
448.25	6431.79
448.43	6492.65
448.62	6471.58
448.80	6356.90
448.99	6450.52
449.17	6361.58
449.36	6471.58
449.54	6782.87
449.73	6677.55
449.91	6677.55
450.10	6719.68
450.28	6834.36
450.46	6820.32
450.65	6843.73
450.83	6810.96
451.02	6644.78
451.20	6949.05
451.39	6759.47
451.57	6972.46
451.76	6768.83
451.94	6853.09
452.13	7185.44
452.31	6911.60
452.49	6715.00
452.68	6913.94
452.86	6970.12
453.05	6764.15
453.23	7049.69
453.42	7035.65
453.60	6970.12
453.78	7075.44
453.97	6960.75
454.15	6953.73
454.34	7255.66
454.52	7248.64
454.70	7066.08
454.89	7201.83
455.07	7105.87
455.26	7197.15
455.44	7424.18
455.62	7557.59
455.81	7421.84
455.99	7398.43
456.17	7487.37
456.36	7281.41
456.54	7536.52
456.73	7644.19
456.91	7634.83
457.09	7698.02
457.28	7889.95
457.46	7566.95
457.64	7974.21
457.83	7719.09
458.01	7480.35
458.19	7866.54
458.38	7545.89
458.56	7936.76
458.74	7775.26
458.93	7770.58
459.11	7772.92
459.29	7922.71
459.48	7803.35
459.66	8163.79
459.84	8177.83
460.03	7833.77
460.21	8187.19
460.39	8297.20
460.57	8021.02
460.76	8088.89
460.94	8219.96
461.12	8322.94
461.31	8313.58
461.49	8140.38
461.67	8280.82
461.85	8322.94
462.04	8313.58
462.22	8636.58
462.40	8517.21
462.59	8341.67
462.77	8454.02
462.95	8255.07
463.13	8388.48
463.32	8578.06
463.50	8699.77
463.68	8662.32
463.86	8603.81
464.05	8519.55
464.23	8587.43
464.41	8514.87
464.59	8489.12
464.78	8737.22
464.96	8793.39
465.14	8823.82
465.32	8809.78
465.50	8603.81
465.69	8699.77
465.87	8943.19
466.05	8786.37
466.23	8676.37
466.41	8830.84
466.60	9055.53
466.78	8777.01
466.96	9062.55
467.14	8912.76
467.32	8856.59
467.51	8975.95
467.69	8713.81
467.87	8973.61
468.05	8990.00
468.23	8830.84
468.41	9046.17
468.60	8975.95
468.78	9151.49
468.96	9399.59
469.14	9355.12
469.32	9392.57
469.50	8917.44
469.69	9270.86
469.87	9341.08
470.05	9193.62
470.23	9362.14
470.41	9465.13
470.59	9551.73
470.77	9439.38
470.95	9652.37
471.14	9518.96
471.32	9474.49
471.50	9797.48
471.68	9722.59
471.86	9565.77
472.04	9935.57
472.22	10164.95
472.40	9856.00
472.58	10031.54
472.77	9907.49
472.95	10141.54
473.13	10441.13
473.31	9792.80
473.49	10008.13
473.67	10125.16
473.85	10352.19
474.03	10305.38
474.21	10506.66
474.39	10534.75
474.57	10602.63
474.75	10677.52
474.93	10661.14
475.12	10686.89
475.30	10677.52
475.48	10644.76
475.66	10869.45
475.84	10721.99
476.02	10808.59
476.20	10995.84
476.38	10979.45
476.56	11353.94
476.74	11330.53
476.92	11286.06
477.10	11220.53
477.28	11438.20
477.46	11740.13
477.64	11597.35
477.82	11695.66
478.00	12011.63
478.18	11880.56
478.36	11985.88
478.54	12170.79
478.72	11988.22
478.90	12390.80
479.08	12343.99
479.26	12250.36
479.44	12681.02
479.62	12774.64
479.80	12912.74
479.98	12760.60
480.16	13069.55
480.34	12908.05
480.52	12868.27
480.70	13163.17
480.88	13125.72
481.06	12999.34
481.24	13486.17
481.41	13378.50
481.59	13511.91
481.77	13706.18
481.95	13640.64
482.13	14068.96
482.31	14015.13
482.49	14019.81
482.67	14101.73
482.85	14321.74
483.03	14373.23
483.21	14775.80
483.39	14752.40
483.57	14787.50
483.74	14913.89
483.92	14951.34
484.10	14864.74
484.28	15328.17
484.46	15140.93
484.64	15793.94
484.82	15403.07
485.00	15461.58
485.18	15885.22
485.35	15824.36
485.53	15585.63
485.71	15487.32
485.89	15812.66
486.07	15690.95
486.25	15728.40
486.43	16313.53
486.61	16430.56
486.78	16601.42
486.96	16496.10
487.14	16830.79
487.32	17022.72
487.50	17385.50
487.68	17275.49
487.85	17860.63
488.03	17816.16
488.21	17965.95
488.39	17680.41
488.57	17654.66
488.75	17958.93
488.92	18448.10
489.10	18553.43
489.28	18487.89
489.46	18789.82
489.64	18904.51
489.81	19154.94
489.99	19234.52
490.17	19566.88
490.35	19506.02
490.53	19571.56
490.70	19496.66
490.88	19487.30
491.06	19985.83
491.24	19985.83
491.41	19906.26
491.59	20135.63
491.77	20283.08
491.95	20397.77
492.13	20655.23
492.30	20599.05
492.48	20868.22
492.66	20776.94
492.84	21060.14
493.01	21186.53
493.19	21120.99
493.37	21460.37
493.54	21406.54
493.72	21869.97
493.90	21528.25
494.08	21907.41
494.25	22211.68
494.43	22162.53
494.61	22448.08
494.79	22572.13
494.96	22389.56
495.14	22569.79
495.32	22808.52
495.49	22869.37
495.67	22852.99
495.85	23417.06
496.02	23264.92
496.20	23396.00
496.38	23475.57
496.55	23800.91
496.73	23814.95
496.91	23826.65
497.09	24264.33
497.26	24182.42
497.44	23885.17
497.62	24203.48
497.79	24400.08
497.97	24364.98
498.14	24376.68
498.32	24491.37
498.50	24573.28
498.67	24840.11
498.85	24636.48
499.03	25238.00
499.20	24900.96
499.38	25160.76
499.56	25692.06
499.73	25317.57
499.91	25745.89
500.08	25324.60
500.26	25598.44
500.44	25876.96
500.61	25806.75
500.79	25685.04
500.97	26003.35
501.14	25970.58
501.32	26349.75
501.49	26036.12
501.67	26171.87
501.84	26553.38
502.02	26370.82
502.20	27098.72
502.37	26574.44
502.55	26717.22
502.72	26909.14
502.90	27276.60
503.07	26977.01
503.25	27187.66
503.43	27136.17
503.60	27314.05
503.78	27147.87
503.95	27410.01
504.13	27311.71
504.30	27154.90
504.48	27683.86
504.65	27838.33
504.83	27985.79
505.01	28247.93
505.18	27931.95
505.36	28364.95
505.53	28376.66
505.71	28512.41
505.88	28376.66
506.06	28322.82
506.23	28765.18
506.41	28973.49
506.58	28608.37
506.76	28711.35
506.93	28950.09
507.11	28959.45
507.28	29003.92
507.46	28950.09
507.63	28982.85
507.81	29244.99
507.98	29219.25
508.16	29352.66
508.33	29963.54
508.50	29675.65
508.68	29797.36
508.85	29940.13
509.03	30008.01
509.20	29883.96
509.38	30256.11
509.55	30099.29
509.73	30101.63
509.90	30155.46
510.08	30036.09
510.25	30441.01
510.42	30677.40
510.60	30780.39
510.77	30632.93
510.95	31187.64
511.12	30658.68
511.30	31278.92
511.47	31239.13
511.64	31208.70
511.82	31044.87
511.99	31199.34
512.17	31307.01
512.34	31063.59
512.51	31777.45
512.69	31695.53
512.86	31531.70
513.04	31962.36
513.21	31833.63
513.38	31159.55
513.56	31971.72
513.73	31665.11
513.90	32128.53
514.08	31976.40
514.25	32142.58
514.43	31981.08
514.60	32105.13
514.77	32217.47
514.95	32343.86
515.12	32414.08
515.29	32713.67
515.47	32732.39
515.64	32973.47
515.81	32538.13
515.99	32659.84
516.16	32800.27
516.33	32669.20
516.51	32563.87
516.68	32308.76
516.85	32598.98
517.03	32484.30
517.20	32620.05
517.37	33001.55
517.54	33359.66
517.72	33106.88
517.89	33067.09
518.06	33015.60
518.24	33277.74
518.41	33315.19
518.58	33303.48
518.75	33619.46
518.93	33975.22
519.10	33806.70
519.27	34153.10
519.45	33897.98
519.62	34148.42
519.79	34384.81
519.96	34127.35
520.14	34415.24
520.31	33965.85
520.48	34075.86
520.65	34602.48
520.83	34829.51
521.00	35035.48
521.17	34848.24
521.34	35030.80
521.52	34895.05
521.69	34946.54
521.86	35323.36
522.03	35445.07
522.20	35470.82
522.38	34979.31
522.55	35381.88
522.72	35817.22
522.89	35651.04
523.07	35992.76
523.24	35639.34
523.41	36023.19
523.58	35662.74
523.75	36006.80
523.92	35971.69
524.10	36184.68
524.27	35915.52
524.44	36137.87
524.61	36254.90
524.78	36357.88
524.96	36353.20
525.13	36823.65
525.30	36271.28
525.47	36886.84
525.64	36854.08
525.81	36346.18
525.98	36549.81
526.16	36463.21
526.33	36378.95
526.50	36715.98
526.67	36360.22
526.84	36755.77
527.01	36701.94
527.18	36891.52
527.36	37233.24
527.53	37088.13
527.70	37420.48
527.87	37450.91
528.04	37317.50
528.21	37312.82
528.38	37488.36
528.55	37684.97
528.72	37741.14
528.89	37862.85
529.07	37647.52
529.24	37794.97
529.41	38024.34
529.58	37411.12
529.75	37303.46
529.92	38092.22
530.09	37699.01
530.26	37699.01
530.43	38134.35
530.60	38143.71
530.77	37940.08
530.94	38361.38
531.11	38340.32
531.28	38382.45
531.46	38623.52
531.63	38574.37
531.80	38611.82
531.97	38616.50
532.14	38714.80
532.31	38036.05
532.48	38562.67
532.65	38756.93
532.82	38724.16
532.99	38799.06
533.16	38586.07
533.33	38932.47
533.50	38941.83
533.67	38660.97
533.84	38838.85
534.01	39192.27
534.18	38897.36
534.35	39056.52
534.52	39124.40
534.69	39519.95
534.86	39250.78
535.03	39367.81
535.20	39494.20
535.37	39725.91
535.54	40091.04
535.71	39461.43
535.88	39562.08
536.05	39585.48
536.22	39913.16
536.38	39576.12
536.55	39817.19
536.72	39372.49
536.89	39578.46
537.06	39859.32
537.23	39751.66
537.40	40034.86
537.57	39250.78
537.74	39831.24
537.91	40123.80
538.08	40116.78
538.25	40161.25
538.42	39948.26
538.59	40222.11
538.75	40156.57
538.92	40444.46
539.09	40266.58
539.26	39852.30
539.43	40107.42
539.60	40006.78
539.77	40109.76
539.94	40444.46
540.11	40325.09
540.28	40252.53
540.44	40299.34
540.61	40151.89
540.78	40444.46
540.95	40730.00
541.12	40751.07
541.29	40526.38
541.46	41010.87
541.62	40851.71
541.79	40437.44
541.96	40598.93
542.13	41235.56
542.30	40629.36
542.47	40704.26
542.63	40980.44
542.80	41256.62
542.97	41291.73
543.14	41773.88
543.31	41893.25
543.48	41647.49
543.64	41841.76
543.81	41900.27
543.98	42218.58
544.15	41949.42
544.32	41858.14
544.48	41954.10
544.65	42167.09
544.82	41628.77
544.99	41975.17
545.16	41893.25
545.32	41757.50
545.49	42459.66
545.66	42284.12
545.83	42071.13
546.00	42431.57
546.16	41785.58
546.33	42000.91
546.50	42012.62
546.67	42405.83
546.83	41984.53
547.00	42347.31
547.17	42038.36
547.34	42286.46
547.50	42518.17
547.67	42703.07
547.84	42127.30
548.00	42899.68
548.17	42408.17
548.34	42845.85
548.51	42841.17
548.67	42862.23
548.84	42447.96
549.01	42405.83
549.18	43079.90
549.34	42375.40
549.51	43225.01
549.68	42803.72
549.84	43126.71
550.01	42946.49
550.18	42719.46
550.34	42962.87
550.51	43044.79
550.68	42574.34
550.84	42792.01
551.01	43555.03
551.18	42993.30
551.34	42873.93
551.51	42801.38
551.68	43365.45
551.84	43313.95
552.01	43157.14
552.18	43323.32
552.34	42880.95
552.51	43538.65
552.68	43405.23
552.84	43599.50
553.01	43653.33
553.18	43407.58
553.34	43765.68
553.51	43379.49
553.67	43393.53
553.84	43716.53
554.01	43875.68
554.17	43440.34
554.34	43833.55
554.51	43828.87
554.67	43784.40
554.84	44009.09
555.00	43739.93
555.17	43770.36
555.33	43372.47
555.50	43636.95
555.67	43957.60
555.83	43742.27
556.00	44142.50
556.16	44222.08
556.33	43770.36
556.50	43356.08
556.66	43929.51
556.83	43976.33
556.99	44418.69
557.16	44505.29
557.32	44144.84
557.49	44105.06
557.65	43756.32
557.82	44030.16
557.98	44460.82
558.15	44399.96
558.32	44254.85
558.48	43814.83
558.65	44135.48
558.81	44083.99
558.98	43995.05
559.14	44175.27
559.31	44280.60
559.47	44301.66
559.64	44626.99
559.80	44458.48
559.97	44402.30
560.13	44002.07
560.30	44411.67
560.46	44388.26
560.63	44570.82
560.79	44669.12
560.96	44804.88
561.12	44554.44
561.29	44128.46
561.45	44549.76
561.61	44318.04
561.78	44615.29
561.94	44275.91
562.11	44554.44
562.27	44238.47
562.44	44823.60
562.60	44945.31
562.77	44683.17
562.93	44341.45
563.10	44886.79
563.26	44409.32
563.42	44753.38
563.59	44456.14
563.75	44488.90
563.92	45010.84
564.08	44584.86
564.24	45261.28
564.41	44781.47
564.57	45006.16
564.74	44996.80
564.90	44753.38
565.07	44727.64
565.23	44910.20
565.39	44737.00
565.56	44807.22
565.72	44765.09
565.88	44577.84
566.05	44837.64
566.21	44793.17
566.38	44612.95
566.54	45010.84
566.70	44928.92
566.87	45289.37
567.03	44879.77
567.19	45404.05
567.36	45038.93
567.52	44516.99
567.68	45003.82
567.85	45010.84
568.01	45120.85
568.17	44772.11
568.34	45125.53
568.50	44987.44
568.66	44924.24
568.83	45193.40
568.99	44378.90
569.15	44924.24
569.32	45043.61
569.48	44952.33
569.64	44994.46
569.81	45502.35
569.97	45045.95
570.13	45074.04
570.30	44488.90
570.46	45043.61
570.62	44851.69
570.78	44811.90
570.95	45127.87
571.11	45338.52
571.27	44706.57
571.43	45067.02
571.60	44772.11
571.76	44788.49
571.92	45160.64
572.09	45006.16
572.25	45240.21
572.41	44959.35
572.57	45294.05
572.74	45687.26
572.90	45165.32
573.06	45523.42
573.22	45062.33
573.38	45488.31
573.55	45170.00
573.71	45696.62
573.87	45621.72
574.03	45088.08
574.20	45088.08
574.36	45251.92
574.52	45272.98
574.68	45296.39
574.84	45310.43
575.01	45184.04
575.17	44755.72
575.33	45118.51
575.49	44865.73
575.65	45097.44
575.82	45500.01
575.98	45450.86
576.14	45464.91
576.30	45095.10
576.46	45013.18
576.62	45095.10
576.79	45303.41
576.95	45155.96
577.11	44938.29
577.27	45024.89
577.43	45305.75
577.59	45242.56
577.75	44966.37
577.92	45228.51
578.08	44865.73
578.24	45074.04
578.40	45116.17
578.56	45130.21
578.72	45118.51
578.88	45603.00
579.04	45619.38
579.21	45429.80
579.37	45411.07
579.53	45251.92
579.69	45237.87
579.85	45074.04
580.01	45708.32
580.17	45750.45
580.33	45748.11
580.49	45497.67
580.65	45165.32
580.82	45052.97
580.98	45507.04
581.14	45350.22
581.30	45698.96
581.46	45551.51
581.62	45862.80
581.78	45635.77
581.94	45605.34
582.10	45404.05
582.26	45228.51
582.42	45359.58
582.58	45687.26
582.74	45310.43
582.90	45668.53
583.06	45799.60
583.22	45834.71
583.38	45647.47
583.54	45755.13
583.70	45656.83
583.86	45464.91
584.02	45436.82
584.18	45713.00
584.34	45233.19
584.50	45364.26
584.66	45392.35
584.82	44823.60
584.98	45844.07
585.14	45893.22
585.30	45677.90
585.46	45439.16
585.62	45235.53
585.78	45258.94
585.94	44769.77
586.10	45588.95
586.26	45394.69
586.42	45544.48
586.58	45308.09
586.74	45329.16
586.90	45354.90
587.06	45612.36
587.22	45535.12
587.38	44926.58
587.54	45256.60
587.70	45759.81
587.86	45647.47
588.02	45624.06
588.18	45832.37
588.34	45137.23
588.49	45120.85
588.65	45055.31
588.81	44905.52
588.97	45249.58
589.13	44996.80
589.29	45242.56
589.45	45446.18
589.61	45085.74
589.77	45350.22
589.93	45748.11
590.08	45904.93
590.24	45705.98
590.40	45876.84
590.56	45790.24
590.72	45940.04
590.88	45191.06
591.04	45682.58
591.20	45729.39
591.35	45797.26
591.51	45752.79
591.67	46024.29
591.83	45462.57
591.99	45663.85
592.15	45570.23
592.31	45500.01
592.46	45677.90
592.62	45481.29
592.78	45223.83
592.94	45724.71
593.10	45586.61
593.26	45507.04
593.41	45263.62
593.57	45532.78
593.73	45776.20
593.89	45741.09
594.05	45387.67
594.20	45272.98
594.36	45755.13
594.52	45544.48
594.68	45642.79
594.84	45024.89
594.99	45986.85
595.15	45464.91
595.31	45825.35
595.47	45591.30
595.62	45911.95
595.78	45500.01
595.94	46050.04
596.10	45748.11
596.25	45778.54
596.41	45933.01
596.57	45574.91
596.73	45963.44
596.88	45563.21
597.04	45647.47
597.20	45244.90
597.36	45895.56
597.51	46096.85
597.67	46454.95
597.83	46274.73
597.99	46307.50
598.14	46033.66
598.30	46017.27
598.46	45720.02
598.61	45778.54
598.77	45387.67
598.93	45677.90
599.09	45586.61
599.24	46286.43
599.40	45570.23
599.56	46141.32
599.71	46174.09
599.87	46000.89
600.03	45958.76
600.18	45516.40
600.34	45464.91
600.50	45530.44
600.65	45750.45
600.81	46213.88
600.97	46064.08
601.12	46094.51
601.28	45705.98
601.44	45696.62
601.59	45605.34
601.75	45490.65
601.91	45668.53
602.06	45933.01
602.22	45439.16
602.37	46115.58
602.53	45420.44
602.69	45848.75
602.84	45776.20
603.00	45511.72
603.16	45799.60
603.31	45380.65
603.47	45521.08
603.62	45375.97
603.78	46010.25
603.94	46007.91
604.09	45968.12
604.25	45851.09
604.40	45684.92
604.56	46258.35
604.71	45698.96
604.87	45488.31
605.03	45364.26
605.18	45251.92
605.34	45240.21
605.49	45432.14
605.65	46295.80
605.80	45478.95
605.96	45759.81
606.12	46199.83
606.27	45663.85
606.43	45354.90
606.58	45790.24
606.74	45464.91
606.89	45670.87
607.05	45457.88
607.20	45762.15
607.36	45528.10
607.51	45303.41
607.67	45689.60
607.82	45394.69
607.98	45340.86
608.13	45289.37
608.29	45188.72
608.44	45462.57
608.60	44973.39
608.75	45034.25
608.91	44542.74
609.06	45059.99
609.22	45556.19
609.37	45113.83
609.53	45296.39
609.68	45436.82
609.84	45223.83
609.99	44788.49
610.15	45263.62
610.30	44809.56
610.46	45141.91
610.61	45425.12
610.76	45336.18
610.92	45106.80
611.07	45331.50
611.23	44947.65
611.38	44959.35
611.54	45123.19
611.69	45179.36
611.84	44706.57
612.00	44753.38
612.15	44877.43
612.31	44903.18
612.46	44666.78
612.62	45153.62
612.77	45223.83
612.92	45081.06
613.08	44856.37
613.23	44900.84
613.39	44910.20
613.54	44659.76
613.69	44339.11
613.85	44861.05
614.00	44996.80
614.15	44746.36
614.31	44851.69
614.46	45247.24
614.62	45076.38
614.77	44250.17
614.92	45055.31
615.08	44666.78
615.23	44411.67
615.38	44610.61
615.54	43915.47
615.69	44711.25
615.84	43981.01
616.00	44065.27
616.15	44266.55
616.30	44369.54
616.46	44053.56
616.61	44044.20
616.76	44149.53
616.92	43606.52
617.07	43730.57
617.22	43592.48
617.37	44083.99
617.53	44069.95
617.68	44442.09
617.83	44844.66
617.99	44027.82
618.14	44318.04
618.29	44533.37
618.45	43775.04
618.60	44093.35
618.75	43576.09
618.90	43889.73
619.06	44435.07
619.21	44186.97
619.36	44374.22
619.51	43789.08
619.67	43751.63
619.82	44191.65
619.97	44336.77
620.12	44144.84
620.28	43753.97
620.43	43690.78
620.58	43655.67
620.73	43454.39
620.89	43732.91
621.04	43746.95
621.19	43641.63
621.34	43583.12
621.49	43531.62
621.65	43473.11
621.80	43557.37
621.95	43264.80
622.10	43459.07
622.25	42773.29
622.41	43056.50
622.56	42871.59
622.71	43395.87
622.86	43243.74
623.01	43318.64
623.16	43054.15
623.32	43107.99
623.47	43423.96
623.62	43175.86
623.77	42845.85
623.92	43323.32
624.07	42733.50
624.23	43143.09
624.38	43009.68
624.53	42953.51
624.68	42997.98
624.83	42553.28
624.98	43063.52
625.13	42866.91
625.29	43047.13
625.44	42972.24
625.59	42440.93
625.74	42288.80
625.89	42476.04
626.04	42260.71
626.19	42843.51
626.34	42841.17
626.49	42609.45
626.65	42749.88
626.80	42794.36
626.95	42880.95
627.10	42660.94
627.25	42429.23
627.40	42124.96
627.55	42071.13
627.70	41947.08
627.85	42134.32
628.00	42106.24
628.15	42485.40
628.30	42263.05
628.45	42328.59
628.60	42139.00
628.76	42595.41
628.91	42424.55
629.06	42169.43
629.21	42059.43
629.36	41970.49
629.51	41565.57
629.66	41996.23
629.81	41734.09
629.96	41794.95
630.11	42003.25
630.26	41855.80
630.41	42007.94
630.56	41951.76
630.71	41811.33
630.86	41940.06
631.01	41560.89
631.16	41933.04
631.31	41696.64
631.46	41198.11
631.61	41701.32
631.76	41727.07
631.91	41694.30
632.06	41881.55
632.21	42342.63
632.36	41783.24
632.51	41764.52
632.66	41574.94
632.81	41008.53
632.96	41244.92
633.10	41177.04
633.25	41408.76
633.40	41273.01
633.55	41425.14
633.70	41368.97
633.85	41277.69
634.00	41399.40
634.15	41287.05
634.30	41350.24
634.45	41034.27
634.60	41146.62
634.75	41336.20
634.90	41247.26
635.05	41130.23
635.19	41038.95
635.34	41127.89
635.49	41441.53
635.64	40758.09
635.79	41067.04
635.94	40734.68
636.09	40947.67
636.24	40968.74
636.39	40570.85
636.53	40882.14
636.68	40203.38
636.83	40978.10
636.98	41111.51
637.13	40371.90
637.28	40994.48
637.43	40748.73
637.57	41097.47
637.72	40587.23
637.87	40692.55
638.02	40758.09
638.17	40327.43
638.32	40444.46
638.46	40334.45
638.61	40559.14
638.76	39938.90
638.91	40278.28
639.06	40168.27
639.20	40605.95
639.35	40367.22
639.50	40514.67
639.65	40299.34
639.80	40982.78
639.94	40182.32
640.09	40481.91
640.24	40114.44
640.39	40219.77
640.54	39856.98
640.68	40105.08
640.83	40112.10
640.98	39812.51
641.13	39615.91
641.27	40477.22
641.42	39676.76
641.57	39864.00
641.72	40112.10
641.86	39377.17
642.01	39662.72
642.16	39655.70
642.31	39697.83
642.45	39803.15
642.60	39807.83
642.75	39901.45
642.90	39782.09
643.04	39501.22
643.19	39512.92
643.34	39428.66
643.48	39337.38
643.63	39122.05
643.78	39545.69
643.93	39232.06
644.07	39131.42
644.22	39508.24
644.37	39290.57
644.51	39243.76
644.66	39480.16
644.81	39271.85
644.95	39730.59
645.10	39690.80
645.25	39576.12
645.39	39508.24
645.54	39976.35
645.69	39058.86
645.83	39152.48
645.98	38986.30
646.13	39613.57
646.27	38967.58
646.42	39236.74
646.57	39428.66
646.71	39091.63
646.86	39585.48
647.00	39201.63
647.15	39157.16
647.30	38883.32
647.44	39016.73
647.59	39185.25
647.74	38749.91
647.88	38595.43
648.03	38899.70
648.17	38785.02
648.32	38733.53
648.47	38705.44
648.61	38583.73
648.76	39033.11
648.90	38948.85
649.05	38925.45
649.20	38754.59
649.34	38679.69
649.49	38249.03
649.63	38691.40
649.78	38440.96
649.92	38602.46
650.07	38902.04
650.21	38211.59
650.36	38265.42
650.51	38176.48
650.65	39014.39
650.80	38834.17
650.94	38672.67
651.09	38253.72
651.23	38473.73
651.38	38504.15
651.52	38087.54
651.67	38075.84
651.81	38085.20
651.96	38061.79
652.10	38073.49
652.25	37661.56
652.39	38195.20
652.54	38628.20
652.68	38270.10
652.83	38113.28
652.97	38567.35
653.12	38019.66
653.26	37897.95
653.41	37874.55
653.55	37642.84
653.70	37523.47
653.84	37926.04
653.99	37542.19
654.13	37670.92
654.27	38068.81
654.42	37708.37
654.56	37706.03
654.71	37488.36
654.85	37757.52
655.00	37701.35
655.14	37638.15
655.29	37158.34
655.43	37462.61
655.57	37130.26
655.72	37022.59
655.86	36889.18
656.01	37186.43
656.15	37067.06
656.30	36823.65
656.44	37088.13
656.58	36968.76
656.73	37186.43
656.87	37188.77
657.01	36811.95
657.16	37235.58
657.30	37378.36
657.45	36935.99
657.59	37146.64
657.73	36753.43
657.88	36982.80
658.02	37141.96
658.16	37312.82
658.31	36905.57
658.45	37092.81
658.60	36598.96
658.74	37057.70
658.88	36739.39
659.03	36664.49
659.17	36133.19
659.31	36559.17
659.46	36727.69
659.60	36320.43
659.74	36837.69
659.89	36507.68
660.03	36369.58
660.17	36577.89
660.32	36161.28
660.46	36549.81
660.60	36666.83
660.74	36264.26
660.89	36554.49
661.03	36093.40
661.17	36020.84
661.32	35859.35
661.46	35878.07
661.60	35861.69
661.74	35819.56
661.89	36098.08
662.03	35655.72
662.17	35887.43
662.31	35274.21
662.46	36119.15
662.60	36172.98
662.74	35943.61
662.88	35653.38
663.03	35365.49
663.17	35470.82
663.31	35360.81
663.45	35075.27
663.60	35522.31
663.74	35552.74
663.88	35419.33
664.02	35019.10
664.17	35285.92
664.31	34576.73
664.45	34494.82
664.59	35049.52
664.73	35012.07
664.88	35360.81
665.02	34417.58
665.16	35133.78
665.30	34588.44
665.44	34485.45
665.59	34852.92
665.73	34480.77
665.87	34768.66
666.01	34202.25
666.15	33795.00
666.29	34382.47
666.44	34265.44
666.58	34410.56
666.72	34586.10
666.86	34457.37
667.00	34508.86
667.14	33734.14
667.28	34052.45
667.43	33830.10
667.57	34160.12
667.71	34150.76
667.85	33486.04
667.99	33507.11
668.13	33631.16
668.27	33500.09
668.41	33881.60
668.56	33212.20
668.70	33879.25
668.84	33574.98
668.98	33221.56
669.12	33088.15
669.26	33165.39
669.40	32851.76
669.54	32833.04
669.68	33050.70
669.82	32601.32
669.96	32879.85
670.10	32606.00
670.25	33195.82
670.39	32891.55
670.53	32727.71
670.67	32554.51
670.81	32730.05
670.95	32664.52
671.09	32711.33
671.23	32725.37
671.37	32723.03
671.51	32706.65
671.65	32273.65
671.79	31929.59
671.93	32128.53
672.07	32055.98
672.21	32215.13
672.35	32334.50
672.49	32048.96
672.63	32280.67
672.77	31735.32
672.91	32100.45
673.05	32259.60
673.19	31690.85
673.33	31721.28
673.47	31732.98
673.61	31122.10
673.75	31391.26
673.89	31143.17
674.03	30953.58
674.17	31477.86
674.31	31211.04
674.45	31019.12
674.59	31271.90
674.73	31328.07
674.87	31065.93
675.01	30824.86
675.15	30988.69
675.29	30766.34
675.43	30408.24
675.56	30824.86
675.70	30646.97
675.84	30462.07
675.98	29579.69
676.12	30464.41
676.26	30356.75
676.40	30181.21
676.54	30033.75
676.68	30340.36
676.82	29715.44
676.96	30118.01
677.10	29685.01
677.23	29816.08
677.37	29785.66
677.51	29041.37
677.65	29350.32
677.79	28858.81
677.93	28739.44
678.07	29106.90
678.21	28769.86
678.34	28687.95
678.48	28371.97
678.62	28257.29
678.76	27768.12
678.90	28283.03
679.04	27735.35
679.18	28243.24
679.31	28273.67
679.45	28016.21
679.59	27239.15
679.73	27875.78
679.87	27899.19
680.00	27236.81
680.14	27545.76
680.28	27274.26
680.42	27522.36
680.56	27742.37
680.70	27229.79
680.83	27875.78
680.97	27489.59
681.11	27023.83
681.25	27007.44
681.39	26796.79
681.52	27213.41
681.66	26473.80
681.80	26773.39
681.94	26824.88
682.07	26728.92
682.21	26167.19
682.35	26536.99
682.49	26553.38
682.62	26515.93
682.76	26466.78
682.90	26415.29
683.04	25820.79
683.17	26235.06
683.31	25514.18
683.45	25385.45
683.59	25549.29
683.72	25446.30
683.86	25469.71
684.00	25167.78
684.13	25448.64
684.27	25270.76
684.41	25090.54
684.55	24849.47
684.68	24713.72
684.82	24725.42
684.96	24996.92
685.09	24428.17
685.23	24353.27
685.37	24648.18
685.50	24692.65
685.64	24444.56
685.78	24355.61
685.91	24229.23
686.05	23784.52
686.19	23716.65
686.32	23431.10
686.46	23513.02
686.60	23318.76
686.73	23396.00
686.87	23332.80
687.01	23494.30
687.14	23009.81
687.28	23215.77
687.42	22941.93
687.55	23222.80
687.69	22836.61
687.82	22684.47
687.96	22920.87
688.10	23019.17
688.23	22724.26
688.37	22712.56
688.50	21905.07
688.64	22326.37
688.78	22113.38
688.91	21900.39
689.05	22443.40
689.18	22345.09
689.32	21958.91
689.46	21752.94
689.59	22045.51
689.73	22132.11
689.86	22054.87
690.00	21303.56
690.13	21558.67
690.27	21624.21
690.41	21738.90
690.54	21102.27
690.68	21043.76
690.81	21315.26
690.95	21298.88
691.08	21158.44
691.22	21158.44
691.35	20971.20
691.49	21029.71
691.62	21128.02
691.76	20659.91
691.89	21041.42
692.03	20362.66
692.16	20491.39
692.30	20205.84
692.43	20255.00
692.57	19880.51
692.70	20077.12
692.84	20018.60
692.97	19749.44
693.11	19889.87
693.24	19880.51
693.38	20002.22
693.51	19398.36
693.65	19576.24
693.78	19379.64
693.92	19648.80
694.05	19264.95
694.19	19260.27
694.32	18939.62
694.45	19187.71
694.59	18738.33
694.72	18714.92
694.86	18853.02
694.99	18881.10
695.13	18654.07
695.26	18876.42
695.39	18558.11
695.53	18338.10
695.66	18806.20
695.80	18476.19
695.93	18293.63
696.07	18235.11
696.20	18295.97
696.33	18136.81
696.47	17741.26
696.60	17940.21
696.73	17657.00
696.87	17806.80
697.00	17788.07
697.14	17701.47
697.27	17699.13
697.40	17687.43
697.54	17486.14
697.67	17399.54
697.80	17104.64
697.94	16870.58
698.07	16952.50
698.21	17179.53
698.34	16678.66
698.47	16758.24
698.61	16519.50
698.74	16460.99
698.87	16765.26
699.01	16262.04
699.14	16273.74
699.27	16327.58
699.40	16255.02
699.54	16210.55
699.67	16156.72
699.80	16100.55
699.94	16053.73
700.07	16315.87
700.20	15784.57
700.34	15983.52
700.47	15962.45
700.60	16142.67
700.73	16290.13
700.87	15620.74
701.00	15473.28
701.13	15515.41
701.26	15632.44
701.40	15520.09
701.53	15152.63
701.66	15346.89
701.79	14855.38
701.93	15232.21
702.06	15213.48
702.19	14923.26
702.32	15068.37
702.46	14937.30
702.59	14623.67
702.72	14586.22
702.85	14958.36
702.99	14871.76
703.12	14647.07
703.25	14167.26
703.38	14450.47
703.51	14471.53
703.65	14361.53
703.78	14111.09
703.91	14150.88
704.04	14211.73
704.17	14008.11
704.31	13743.63
704.44	14178.97
704.57	13975.34
704.70	13586.81
704.83	13671.07
704.96	13635.96
705.10	13870.01
705.23	13645.32
>>>>>End Processed Spectral Data<<<<<
