SpectraSuite Data File
++++++++++++++++++++++++++++++++++++
Date: Fri Oct 25 10:47:53 EDT 2013
User: price-jones
Dark Spectrum Present: No
Reference Spectrum Present: No
Number of Sampled Component Spectra: 1
Spectrometers: USB2+H05261
Integration Time (usec): 100000 (USB2+H05261)
Spectra Averaged: 1 (USB2+H05261)
Boxcar Smoothing: 0 (USB2+H05261)
Correct for Electrical Dark: No (USB2+H05261)
Strobe/Lamp Enabled: No (USB2+H05261)
Correct for Detector Non-linearity: No (USB2+H05261)
Correct for Stray Light: No (USB2+H05261)
Number of Pixels in Processed Spectrum: 2048
>>>>>Begin Processed Spectral Data<<<<<
365.73	170.86
365.92	170.86
366.12	170.86
366.32	81.92
366.52	11.70
366.72	56.17
366.91	51.49
367.11	53.83
367.31	4.68
367.51	46.81
367.70	14.04
367.90	51.49
368.10	65.54
368.30	124.05
368.49	39.79
368.69	170.86
368.89	126.39
369.09	53.83
369.28	84.26
369.48	86.60
369.68	30.43
369.87	58.51
370.07	201.29
370.27	121.71
370.47	180.22
370.66	369.80
370.86	444.70
371.06	489.17
371.25	465.77
371.45	423.64
371.65	430.66
371.84	491.51
372.04	454.06
372.24	463.43
372.44	386.19
372.63	486.83
372.83	561.73
373.03	524.28
373.22	430.66
373.42	531.30
373.62	547.69
373.81	561.73
374.01	554.71
374.21	496.19
374.40	519.60
374.60	587.47
374.79	587.47
374.99	603.86
375.19	559.39
375.38	531.30
375.58	617.90
375.78	575.77
375.97	552.37
376.17	690.46
376.37	596.84
376.56	568.75
376.76	622.58
376.95	559.39
377.15	634.29
377.35	596.84
377.54	645.99
377.74	554.71
377.93	566.41
378.13	723.23
378.33	627.26
378.52	638.97
378.72	622.58
378.91	636.63
379.11	606.20
379.31	603.86
379.50	629.60
379.70	692.80
379.89	627.26
380.09	613.22
380.28	716.20
380.48	636.63
380.68	631.94
380.87	685.78
381.07	674.07
381.26	681.10
381.46	688.12
381.65	678.76
381.85	697.48
382.04	662.37
382.24	653.01
382.43	678.76
382.63	671.73
382.83	685.78
383.02	716.20
383.22	727.91
383.41	678.76
383.61	767.70
383.80	716.20
384.00	758.33
384.19	765.36
384.39	770.04
384.58	795.78
384.78	716.20
384.97	765.36
385.17	816.85
385.36	858.98
385.56	793.44
385.75	802.80
385.95	816.85
386.14	763.01
386.34	784.08
386.53	779.40
386.72	823.87
386.92	816.85
387.11	748.97
387.31	807.48
387.50	770.04
387.70	816.85
387.89	765.36
388.09	880.04
388.28	814.51
388.48	858.98
388.67	943.24
388.86	866.00
389.06	800.46
389.25	875.36
389.45	847.27
389.64	840.25
389.84	978.34
390.03	957.28
390.22	910.47
390.42	905.79
390.61	964.30
390.81	938.55
391.00	891.74
391.19	1027.50
391.39	978.34
391.58	976.00
391.78	926.85
391.97	992.39
392.16	987.71
392.36	1078.99
392.55	966.64
392.75	954.94
392.94	976.00
393.13	894.08
393.33	945.58
393.52	966.64
393.71	980.68
393.91	1036.86
394.10	1029.84
394.29	1029.84
394.49	1060.26
394.68	1015.79
394.88	1137.50
395.07	1184.31
395.26	1149.20
395.46	1046.22
395.65	1118.78
395.84	1210.06
396.04	1156.22
396.23	1177.29
396.42	1144.52
396.62	1151.54
396.81	1184.31
397.00	1043.88
397.19	1139.84
397.39	1146.86
397.58	1217.08
397.77	1196.01
397.97	1256.87
398.16	1338.79
398.35	1266.23
398.55	1301.34
398.74	1296.66
398.93	1366.87
399.12	1277.93
399.32	1282.61
399.51	1317.72
399.70	1390.28
399.90	1425.39
400.09	1359.85
400.28	1399.64
400.47	1345.81
400.67	1348.15
400.86	1437.09
401.05	1483.90
401.24	1434.75
401.44	1420.71
401.63	1535.39
401.82	1439.43
402.01	1540.07
402.21	1612.63
402.40	1474.54
402.59	1598.59
402.78	1488.58
402.97	1481.56
403.17	1568.16
403.36	1486.24
403.55	1558.80
403.74	1629.01
403.93	1739.02
404.13	1624.33
404.32	1582.20
404.51	1785.83
404.70	1589.22
404.89	1715.61
405.09	1717.95
405.28	1643.06
405.47	1708.59
405.66	1724.97
405.85	1795.19
406.05	1650.08
406.24	1743.70
406.43	1729.66
406.62	1865.41
406.81	2015.20
407.00	1905.20
407.20	1802.21
407.39	1762.42
407.58	1860.73
407.77	1919.24
407.96	1895.83
408.15	1905.20
408.34	1888.81
408.54	1987.11
408.73	2062.01
408.92	2015.20
409.11	1989.46
409.30	2129.89
409.49	2008.18
409.68	1940.30
409.87	2040.95
410.07	1982.43
410.26	2181.38
410.45	2073.71
410.64	2136.91
410.83	2275.00
411.02	2139.25
411.21	2188.40
411.40	2230.53
411.59	2380.32
411.78	2230.53
411.98	2214.15
412.17	2394.37
412.36	2363.94
412.55	2424.80
412.74	2509.05
412.93	2324.15
413.12	2392.03
413.31	2504.37
413.50	2548.84
413.69	2436.50
413.88	2466.92
414.07	2609.70
414.26	2605.02
414.45	2616.72
414.64	2597.99
414.83	2724.38
415.02	2612.04
415.22	2761.83
415.41	2806.30
415.60	2754.81
415.79	2696.30
415.98	2888.22
416.17	2897.58
416.36	2829.71
416.55	2789.92
416.74	2998.23
416.93	2988.86
417.12	2904.60
417.31	3075.46
417.50	2923.33
417.69	3150.36
417.88	3145.68
418.07	3070.78
418.26	3112.91
418.45	3019.29
418.64	3173.77
418.83	3220.58
419.02	3052.06
419.21	3269.73
419.39	3077.80
419.58	3138.66
419.77	3255.69
419.96	3258.03
420.15	3274.41
420.34	3304.84
420.53	3241.64
420.72	3412.50
420.91	3435.91
421.10	3384.41
421.29	3496.76
421.48	3398.46
421.67	3321.22
421.86	3323.56
422.05	3473.36
422.24	3248.66
422.43	3463.99
422.61	3461.65
422.80	3632.51
422.99	3431.23
423.18	3562.30
423.37	3534.21
423.56	3494.42
423.75	3599.74
423.94	3496.76
424.13	3321.22
424.32	3335.26
424.50	3581.02
424.69	3501.44
424.88	3559.95
425.07	3468.67
425.26	3396.12
425.45	3571.66
425.64	3447.61
425.83	3602.08
426.01	3676.98
426.20	3660.60
426.39	3562.30
426.58	3562.30
426.77	3506.12
426.96	3691.02
427.15	3620.81
427.33	3742.52
427.52	3597.40
427.71	3660.60
427.90	3801.03
428.09	3749.54
428.28	3782.31
428.46	3896.99
428.65	3852.52
428.84	3911.04
429.03	4016.36
429.22	3838.48
429.40	3934.44
429.59	3735.50
429.78	3599.74
429.97	3730.81
430.16	3735.50
430.34	3801.03
430.53	3801.03
430.72	3857.20
430.91	3866.56
431.10	3971.89
431.28	4121.68
431.47	3955.51
431.66	4175.52
431.85	4081.89
432.03	4175.52
432.22	4266.80
432.41	4196.58
432.60	4264.46
432.79	4243.39
432.97	4348.72
433.16	4173.18
433.35	4276.16
433.54	4205.94
433.72	4383.82
433.91	4315.95
434.10	4292.54
434.28	4229.35
434.47	4318.29
434.66	4344.03
434.85	4432.97
435.03	4437.66
435.22	4451.70
435.41	4620.22
435.59	4524.26
435.78	4697.46
435.97	4535.96
436.16	4496.17
436.34	4667.03
436.53	4741.93
436.72	4779.37
436.90	4517.23
437.09	4648.30
437.28	4540.64
437.46	4788.74
437.65	4730.22
437.84	4603.83
438.02	4674.05
438.21	4681.07
438.40	4580.43
438.58	4795.76
438.77	5055.56
438.96	4985.34
439.14	5083.64
439.33	5071.94
439.52	4997.04
439.70	4997.04
439.89	5097.69
440.08	5217.05
440.26	5263.86
440.45	5060.24
440.63	5308.34
440.82	5350.46
441.01	5235.78
441.19	5315.36
441.38	5401.96
441.57	5472.17
441.75	5469.83
441.94	5490.90
442.12	5746.02
442.31	5638.35
442.50	5621.97
442.68	5537.71
442.87	5610.26
443.05	5750.70
443.24	5715.59
443.43	5715.59
443.61	5680.48
443.80	5905.17
443.98	5731.97
444.17	5535.37
444.35	5738.99
444.54	5891.13
444.73	5891.13
444.91	5790.49
445.10	5699.20
445.28	5760.06
445.47	5710.91
445.65	5724.95
445.84	5865.38
446.02	5827.93
446.21	5895.81
446.39	5916.87
446.58	5921.56
446.77	6026.88
446.95	5769.42
447.14	6099.44
447.32	6076.03
447.51	5937.94
447.69	6012.84
447.88	5856.02
448.06	5886.45
448.25	6031.56
448.43	6099.44
448.62	6015.18
448.80	5991.77
448.99	6054.97
449.17	6005.81
449.36	6045.60
449.54	6214.12
449.73	6331.15
449.91	6216.46
450.10	6258.59
450.28	6473.92
450.46	6497.33
450.65	6434.13
450.83	6361.58
451.02	6413.07
451.20	6389.66
451.39	6466.90
451.57	6436.47
451.76	6230.51
451.94	6445.84
452.13	6548.82
452.31	6459.88
452.49	6485.62
452.68	6647.12
452.86	6413.07
453.05	6511.37
453.23	6607.33
453.42	6511.37
453.60	6434.13
453.78	6717.34
453.97	6443.49
454.15	6700.95
454.34	6616.69
454.52	6822.66
454.70	6654.14
454.89	6815.64
455.07	6813.30
455.26	6827.34
455.44	6927.99
455.62	6864.79
455.81	6942.03
455.99	7070.76
456.17	6892.88
456.36	7009.90
456.54	7194.81
456.73	7070.76
456.91	7274.38
457.09	7335.24
457.28	7339.92
457.46	7281.41
457.64	7370.35
457.83	7300.13
458.01	7124.59
458.19	7323.54
458.38	7297.79
458.56	7403.11
458.74	7424.18
458.93	7281.41
459.11	7396.09
459.29	7342.26
459.48	7356.30
459.66	7478.01
459.84	7716.75
460.03	7630.15
460.21	7786.96
460.39	7543.55
460.57	7662.91
460.76	7658.23
460.94	7770.58
461.12	7683.98
461.31	7737.81
461.49	7878.24
461.67	7833.77
461.85	7896.97
462.04	7889.95
462.22	8332.31
462.40	8201.24
462.59	8016.33
462.77	8067.83
462.95	7929.74
463.13	8063.15
463.32	7976.55
463.50	8116.98
463.68	8079.53
463.86	7974.21
464.05	7990.59
464.23	8189.53
464.41	8203.58
464.59	8051.44
464.78	8231.66
464.96	8285.50
465.14	8074.85
465.32	8423.59
465.50	8383.80
465.69	8269.11
465.87	8294.86
466.05	8519.55
466.23	8229.32
466.41	8439.97
466.60	8514.87
466.78	8325.29
466.96	8372.10
467.14	8432.95
467.32	8692.75
467.51	8643.60
467.69	8201.24
467.87	8730.20
468.05	8582.74
468.23	8425.93
468.41	8423.59
468.60	8538.27
468.78	8739.56
468.96	8437.63
469.14	8676.37
469.32	8777.01
469.50	8674.03
469.69	8919.78
469.87	8915.10
470.05	8856.59
470.23	8959.57
470.41	8957.23
470.59	9057.87
470.77	8933.82
470.95	9172.56
471.14	9146.81
471.32	8990.00
471.50	9350.44
471.68	9233.41
471.86	9263.84
472.04	9048.51
472.22	9596.20
472.40	9170.22
472.58	9371.50
472.77	9465.13
472.95	9626.62
473.13	9884.08
473.31	9493.21
473.49	9645.35
473.67	9455.76
473.85	9717.90
474.03	9956.64
474.21	9825.57
474.39	10008.13
474.57	10174.31
474.75	9963.66
474.93	10249.21
475.12	10026.86
475.30	10228.14
475.48	10033.88
475.66	10258.57
475.84	10111.11
476.02	10443.47
476.20	10384.96
476.38	10572.20
476.56	10504.32
476.74	10621.35
476.92	10768.80
477.10	10649.44
477.28	10951.37
477.46	10834.34
477.64	10883.49
477.82	11176.06
478.00	11133.93
478.18	11442.88
478.36	11405.43
478.54	11536.50
478.72	11513.10
478.90	11578.63
479.08	11761.19
479.26	11768.21
479.44	11955.46
479.62	12243.34
479.80	12093.55
479.98	12016.31
480.16	12030.35
480.34	12528.89
480.52	12332.28
480.70	12301.86
480.88	12292.49
481.06	12634.21
481.24	12781.67
481.41	12858.90
481.59	13029.76
481.77	13238.07
481.95	13069.55
482.13	13336.37
482.31	13167.85
482.49	13617.24
482.67	13710.86
482.85	13530.64
483.03	14015.13
483.21	13577.45
483.39	13973.00
483.57	14071.30
483.74	14127.47
483.92	14256.20
484.10	14333.44
484.28	14307.69
484.46	14143.86
484.64	14988.79
484.82	14661.12
485.00	14913.89
485.18	15152.63
485.35	15199.44
485.53	15119.86
485.71	15215.82
485.89	15159.65
486.07	14956.02
486.25	15323.49
486.43	15499.03
486.61	15604.35
486.78	15768.19
486.96	16081.82
487.14	16470.35
487.32	16318.22
487.50	16435.24
487.68	16297.15
487.85	16798.02
488.03	16973.56
488.21	16812.07
488.39	16861.22
488.57	16901.01
488.75	17184.21
488.92	17544.66
489.10	17514.23
489.28	17804.46
489.46	17898.08
489.64	18010.42
489.81	18356.82
489.99	18312.35
490.17	18363.84
490.35	18693.86
490.53	18340.44
490.70	18951.32
490.88	18853.02
491.06	19061.32
491.24	18890.46
491.41	19073.03
491.59	18958.34
491.77	19197.07
491.95	19365.59
492.13	19499.00
492.30	19726.04
492.48	19906.26
492.66	19810.29
492.84	19857.10
493.01	20037.33
493.19	20215.21
493.37	20320.53
493.54	20702.04
493.72	20727.78
493.90	20725.44
494.08	20697.36
494.25	21301.22
494.43	21603.14
494.61	21483.78
494.79	21792.73
494.96	21490.80
495.14	21191.21
495.32	21841.88
495.49	21792.73
495.67	21748.26
495.85	21872.31
496.02	22228.07
496.20	22375.52
496.38	22527.66
496.55	22429.35
496.73	23002.78
496.91	22689.15
497.09	22586.17
497.26	22995.76
497.44	22829.59
497.62	23075.34
497.79	23688.56
497.97	23379.61
498.14	23206.41
498.32	23468.55
498.50	23545.79
498.67	23885.17
498.85	23749.42
499.03	24243.27
499.20	24088.79
499.38	24159.01
499.56	24463.28
499.73	24166.03
499.91	24191.78
500.08	24575.62
500.26	24554.56
500.44	24463.28
500.61	24863.51
500.79	24851.81
500.97	24968.84
501.14	25301.19
501.32	25076.50
501.49	25425.24
501.67	25123.31
501.84	25565.67
502.02	25441.62
502.20	25479.07
502.37	25799.73
502.55	25713.13
502.72	25912.07
502.90	25769.30
503.07	25900.37
503.25	25914.41
503.43	26422.31
503.60	26012.71
503.78	26464.44
503.95	26324.01
504.13	26251.45
504.30	26576.78
504.48	26497.20
504.65	26836.58
504.83	26946.59
505.01	27157.24
505.18	26761.69
505.36	27307.03
505.53	27208.73
505.71	27463.85
505.88	27412.35
506.06	27021.48
506.23	27349.16
506.41	27489.59
506.58	27459.16
506.76	27725.99
506.93	27927.27
507.11	27908.55
507.28	27718.96
507.46	27651.09
507.63	27927.27
507.81	28119.20
507.98	28163.67
508.16	28037.28
508.33	28723.05
508.50	28156.64
508.68	28470.28
508.85	28711.35
509.03	28783.91
509.20	28381.34
509.38	29064.77
509.55	29165.42
509.73	28872.85
509.90	29109.24
510.08	28718.37
510.25	28849.44
510.42	29331.59
510.60	29710.76
510.77	29687.36
510.95	29795.02
511.12	29788.00
511.30	29673.31
511.47	29778.64
511.64	29647.57
511.82	30218.66
511.99	29954.18
512.17	29855.87
512.34	29940.13
512.51	30305.26
512.69	30408.24
512.86	30436.33
513.04	30806.13
513.21	30576.76
513.38	30677.40
513.56	30775.70
513.73	30815.49
513.90	30684.42
514.08	30670.38
514.25	30960.61
514.43	31096.36
514.60	30955.93
514.77	31246.15
514.95	31126.78
515.12	31370.20
515.29	31299.98
515.47	31613.62
515.64	31735.32
515.81	31356.16
515.99	31639.36
516.16	32016.19
516.33	31459.14
516.51	31929.59
516.68	31847.67
516.85	31571.49
517.03	31604.25
517.20	31936.61
517.37	31632.34
517.54	32048.96
517.72	31793.84
517.89	32283.01
518.06	32364.93
518.24	32149.60
518.41	32189.39
518.58	32348.54
518.75	32629.41
518.93	32713.67
519.10	32582.60
519.27	33024.96
519.45	33001.55
519.62	33284.76
519.79	32851.76
519.96	32938.36
520.14	33284.76
520.31	33354.97
520.48	33514.13
520.65	33287.10
520.83	33530.51
521.00	33387.74
521.17	33537.54
521.34	33462.64
521.52	33572.64
521.69	33668.61
521.86	33715.42
522.03	33460.30
522.20	33923.72
522.38	34143.74
522.55	34117.99
522.72	33741.16
522.89	34005.64
523.07	34565.03
523.24	33919.04
523.41	34745.25
523.58	34155.44
523.75	34827.17
523.92	34827.17
524.10	34871.64
524.27	34721.85
524.44	35250.81
524.61	35143.14
524.78	35037.82
524.96	34981.65
525.13	35674.45
525.30	35524.65
525.47	35765.73
525.64	35473.16
525.81	35463.80
525.98	35381.88
526.16	35440.39
526.33	35358.47
526.50	35601.89
526.67	35353.79
526.84	35175.91
527.01	35438.05
527.18	35459.12
527.36	35976.37
527.53	36208.09
527.70	36474.91
527.87	35959.99
528.04	35803.17
528.21	35847.64
528.38	35786.79
528.55	36713.64
528.72	36217.45
528.89	36425.76
529.07	36360.22
529.24	36470.23
529.41	36615.34
529.58	36458.52
529.75	36573.21
529.92	36350.86
530.09	37078.77
530.26	36568.53
530.43	37074.09
530.60	36765.14
530.77	36994.51
530.94	37071.75
531.11	36971.10
531.28	37258.99
531.46	37099.83
531.63	37146.64
531.80	37226.22
531.97	36727.69
532.14	37111.53
532.31	37287.07
532.48	37600.71
532.65	37479.00
532.82	37331.54
532.99	37448.57
533.16	37113.87
533.33	37469.64
533.50	37724.75
533.67	37703.69
533.84	37572.62
534.01	37734.12
534.18	37546.87
534.35	38267.76
534.52	37741.14
534.69	38026.68
534.86	38171.80
535.03	38197.54
535.20	38415.21
535.37	38873.96
535.54	38689.06
535.71	38096.90
535.88	38307.55
536.05	38003.28
536.22	38302.87
536.38	38560.33
536.55	38431.60
536.72	38724.16
536.89	38527.56
537.06	38747.57
537.23	39058.86
537.40	38281.80
537.57	38483.09
537.74	38658.63
537.91	39192.27
538.08	39295.25
538.25	38356.70
538.42	38880.98
538.59	39103.33
538.75	38541.60
538.92	39232.06
539.09	39379.51
539.26	39143.12
539.43	39140.78
539.60	39501.22
539.77	39435.69
539.94	39475.48
540.11	39117.37
540.28	39370.15
540.44	39512.92
540.61	39519.95
540.78	39461.43
540.95	39136.10
541.12	39700.17
541.29	39700.17
541.46	39232.06
541.62	40142.53
541.79	39995.07
541.96	39704.85
542.13	40032.52
542.30	39695.49
542.47	40259.55
542.63	39756.34
542.80	40055.93
542.97	40444.46
543.14	40891.50
543.31	40458.50
543.48	40254.87
543.64	40921.93
543.81	40959.38
543.98	40884.48
544.15	40882.14
544.32	40730.00
544.48	41031.93
544.65	40692.55
544.82	40706.60
544.99	40687.87
545.16	40840.01
545.32	40809.58
545.49	41022.57
545.66	40987.46
545.83	40821.28
546.00	41226.20
546.16	40978.10
546.33	41099.81
546.50	40781.49
546.67	40893.84
546.83	40900.86
547.00	41177.04
547.17	41167.68
547.34	41003.85
547.50	41287.05
547.67	41691.96
547.84	41132.57
548.00	41645.15
548.17	41792.61
548.34	41263.64
548.51	41453.23
548.67	41626.43
548.84	42007.94
549.01	41762.18
549.18	41818.35
549.34	41869.84
549.51	41729.41
549.68	41794.95
549.84	41813.67
550.01	42003.25
550.18	41804.31
550.34	41872.18
550.51	41310.46
550.68	41933.04
550.84	41240.24
551.01	42169.43
551.18	41916.65
551.34	42017.30
551.51	42108.58
551.68	42232.63
551.84	42141.35
552.01	42288.80
552.18	42164.75
552.34	42082.83
552.51	42417.53
552.68	42412.85
552.84	42541.58
553.01	42349.65
553.18	42541.58
553.34	42520.51
553.51	42471.36
553.67	42447.96
553.84	42480.72
554.01	42625.84
554.17	42810.74
554.34	42817.76
554.51	42787.33
554.67	42665.63
554.84	42820.10
555.00	42445.62
555.17	42447.96
555.33	42780.31
555.50	42962.87
555.67	42705.41
555.83	42499.45
556.00	43157.14
556.16	43082.24
556.33	43051.81
556.50	42820.10
556.66	43129.05
556.83	42749.88
556.99	43021.39
557.16	43772.70
557.32	43166.50
557.49	43337.36
557.65	42880.95
557.82	42944.15
557.98	43150.12
558.15	43246.08
558.32	43620.56
558.48	43349.06
558.65	43461.41
558.81	43377.15
558.98	43267.14
559.14	43690.78
559.31	43299.91
559.47	43758.66
559.64	43629.93
559.80	43592.48
559.97	43447.36
560.13	43681.42
560.30	43182.88
560.46	43526.94
560.63	43749.29
560.79	43344.38
560.96	43765.68
561.12	43363.11
561.29	43810.15
561.45	43412.26
561.61	43260.12
561.78	43660.35
561.94	43295.23
562.11	43468.43
562.27	43803.13
562.44	43686.10
562.60	44013.77
562.77	43707.16
562.93	43662.69
563.10	44247.83
563.26	43777.38
563.42	43910.79
563.59	43763.34
563.75	43746.95
563.92	43529.28
564.08	44259.53
564.24	44105.06
564.41	44027.82
564.57	43927.17
564.74	44051.22
564.90	43878.02
565.07	43800.79
565.23	43871.00
565.39	44046.54
565.56	44154.21
565.72	43447.36
565.88	43999.73
566.05	44311.02
566.21	44208.04
566.38	43716.53
566.54	44002.07
566.70	43856.96
566.87	44584.86
567.03	44652.74
567.19	44170.59
567.36	44114.42
567.52	44154.21
567.68	44598.91
567.85	43894.41
568.01	43945.90
568.17	44020.80
568.34	44039.52
568.50	44065.27
568.66	43768.02
568.83	44273.57
568.99	43854.62
569.15	44360.17
569.32	44421.03
569.48	43863.98
569.64	44222.08
569.81	44215.06
569.97	44191.65
570.13	44369.54
570.30	43938.88
570.46	43885.04
570.62	43997.39
570.78	44098.03
570.95	44577.84
571.11	44603.59
571.27	44435.07
571.43	44074.63
571.60	44278.25
571.76	44634.02
571.92	44252.51
572.09	44472.52
572.25	44093.35
572.41	44313.36
572.57	43997.39
572.74	45071.70
572.90	44472.52
573.06	44631.68
573.22	44568.48
573.38	44851.69
573.55	44116.76
573.71	44449.11
573.87	44247.83
574.03	44301.66
574.20	44435.07
574.36	44584.86
574.52	44577.84
574.68	44868.07
574.84	44638.70
575.01	44226.76
575.17	44318.04
575.33	44346.13
575.49	44509.97
575.65	44952.33
575.82	44526.35
575.98	44453.79
576.14	44921.90
576.30	44516.99
576.46	44385.92
576.62	44224.42
576.79	44477.20
576.95	43838.23
577.11	44390.60
577.27	44725.30
577.43	44772.11
577.59	44348.47
577.75	44409.32
577.92	44416.35
578.08	44266.55
578.24	44292.30
578.40	44399.96
578.56	44800.19
578.72	44414.01
578.88	44783.81
579.04	44755.72
579.21	44154.21
579.37	44514.65
579.53	44512.31
579.69	44992.12
579.85	44273.57
580.01	44725.30
580.17	44596.57
580.33	45118.51
580.49	45127.87
580.65	44184.63
580.82	44701.89
580.98	44856.37
581.14	44769.77
581.30	45038.93
581.46	44596.57
581.62	44516.99
581.78	44638.70
581.94	45125.53
582.10	44664.44
582.26	44847.00
582.42	44732.32
582.58	44907.86
582.74	44538.05
582.90	44945.31
583.06	44966.37
583.22	45261.28
583.38	45113.83
583.54	45041.27
583.70	44701.89
583.86	44835.30
584.02	44250.17
584.18	44751.04
584.34	44891.48
584.50	44837.64
584.66	44856.37
584.82	44664.44
584.98	45062.33
585.14	45059.99
585.30	44559.12
585.46	44828.28
585.62	44559.12
585.78	44706.57
585.94	44402.30
586.10	44456.14
586.26	44781.47
586.42	45223.83
586.58	44870.41
586.74	44945.31
586.90	44783.81
587.06	44687.85
587.22	44896.16
587.38	44577.84
587.54	45162.98
587.70	44711.25
587.86	44685.51
588.02	44938.29
588.18	45439.16
588.34	44825.94
588.49	44933.60
588.65	44591.89
588.81	44514.65
588.97	44921.90
589.13	44636.36
589.29	44507.63
589.45	44591.89
589.61	45186.38
589.77	44760.40
589.93	44872.75
590.08	45287.03
590.24	44877.43
590.40	45263.62
590.56	45139.57
590.72	44994.46
590.88	45022.54
591.04	44587.21
591.20	45172.34
591.35	45059.99
591.51	45284.68
591.67	45137.23
591.83	44619.97
591.99	44947.65
592.15	44893.82
592.31	45364.26
592.46	44907.86
592.62	45099.78
592.78	45265.96
592.94	44882.11
593.10	44921.90
593.26	45354.90
593.41	44781.47
593.57	45120.85
593.73	45109.14
593.89	45347.88
594.05	45109.14
594.20	44992.12
594.36	45319.79
594.52	45371.28
594.68	45059.99
594.84	44807.22
594.99	45717.68
595.15	45144.25
595.31	45378.31
595.47	45296.39
595.62	45214.47
595.78	45371.28
595.94	45329.16
596.10	44734.66
596.25	45343.20
596.41	44898.50
596.57	45162.98
596.73	44879.77
596.88	44875.09
597.04	44669.12
597.20	45071.70
597.36	45258.94
597.51	45652.15
597.67	45045.95
597.83	45167.66
597.99	45390.01
598.14	45118.51
598.30	44861.05
598.46	44949.99
598.61	45123.19
598.77	45022.54
598.93	45219.15
599.09	44828.28
599.24	45710.66
599.40	45415.76
599.56	45174.68
599.71	44938.29
599.87	44989.78
600.03	45151.27
600.18	45312.77
600.34	45191.06
600.50	45095.10
600.65	45088.08
600.81	45113.83
600.97	45492.99
601.12	45354.90
601.28	45230.85
601.44	45235.53
601.59	45228.51
601.75	45137.23
601.91	45125.53
602.06	44828.28
602.22	45177.02
602.37	45057.65
602.53	44823.60
602.69	45406.39
602.84	45277.66
603.00	45198.09
603.16	45230.85
603.31	45017.86
603.47	44945.31
603.62	44758.06
603.78	45408.73
603.94	45345.54
604.09	45460.23
604.25	45432.14
604.40	44856.37
604.56	44744.02
604.71	44980.42
604.87	44949.99
605.03	45198.09
605.18	45055.31
605.34	45003.82
605.49	44294.64
605.65	44781.47
605.80	45195.74
605.96	45560.87
606.12	45177.02
606.27	45380.65
606.43	44973.39
606.58	45411.07
606.74	44921.90
606.89	44992.12
607.05	45261.28
607.20	44748.70
607.36	45048.29
607.51	44725.30
607.67	44912.54
607.82	44947.65
607.98	44825.94
608.13	44753.38
608.29	44524.01
608.44	44381.24
608.60	44364.85
608.75	44509.97
608.91	44926.58
609.06	44814.24
609.22	44772.11
609.37	44584.86
609.53	44278.25
609.68	44591.89
609.84	44889.13
609.99	44921.90
610.15	44938.29
610.30	44428.05
610.46	43824.19
610.61	44521.67
610.76	44671.46
610.92	44741.68
611.07	44706.57
611.23	44657.42
611.38	44753.38
611.54	44559.12
611.69	44224.42
611.84	43976.33
612.00	44545.08
612.15	44304.00
612.31	44825.94
612.46	44573.16
612.62	45034.25
612.77	44442.09
612.92	44479.54
613.08	44437.41
613.23	44163.57
613.39	43922.49
613.54	44376.56
613.69	44168.25
613.85	44079.31
614.00	44158.89
614.15	44772.11
614.31	44416.35
614.46	44332.09
614.62	44545.08
614.77	43763.34
614.92	44332.09
615.08	43938.88
615.23	43856.96
615.38	43997.39
615.54	43646.31
615.69	43330.34
615.84	44051.22
616.00	44266.55
616.15	43873.34
616.30	43985.69
616.46	43700.14
616.61	43592.48
616.76	43454.39
616.92	43913.13
617.07	43414.60
617.22	43564.39
617.37	43510.56
617.53	43730.57
617.68	43611.20
617.83	43973.98
617.99	43873.34
618.14	43838.23
618.29	43676.74
618.45	43433.32
618.60	43496.52
618.75	43728.23
618.90	43641.63
619.06	43533.96
619.21	43606.52
619.36	43744.61
619.51	43697.80
619.67	43447.36
619.82	44051.22
619.97	43599.50
620.12	43480.13
620.28	42909.04
620.43	43075.22
620.58	43386.51
620.73	43173.52
620.89	43115.01
621.04	43194.59
621.19	43496.52
621.34	43100.97
621.49	43171.18
621.65	42897.34
621.80	43267.14
621.95	43145.44
622.10	43278.85
622.25	42623.50
622.41	43140.75
622.56	42892.66
622.71	43164.16
622.86	43091.60
623.01	43182.88
623.16	42920.74
623.32	43012.02
623.47	43126.71
623.62	43030.75
623.77	42433.91
623.92	43276.51
624.07	42665.63
624.23	42801.38
624.38	42572.00
624.53	42541.58
624.68	42850.53
624.83	42548.60
624.98	42602.43
625.13	42660.94
625.29	42705.41
625.44	42321.57
625.59	42321.57
625.74	42251.35
625.89	41993.89
626.04	42309.86
626.19	42291.14
626.34	42892.66
626.49	42080.49
626.65	42614.13
626.80	42698.39
626.95	42340.29
627.10	42506.47
627.25	41907.29
627.40	41486.00
627.55	41750.48
627.70	41701.32
627.85	41935.38
628.00	42029.00
628.15	42139.00
628.30	41806.65
628.45	42494.77
628.60	42146.03
628.76	42080.49
628.91	42312.20
629.06	41549.19
629.21	41736.43
629.36	41731.75
629.51	41677.92
629.66	41160.66
629.81	41507.06
629.96	41706.01
630.11	41928.36
630.26	42253.69
630.41	41942.40
630.56	41530.47
630.71	41525.78
630.86	41567.91
631.01	41457.91
631.16	41603.02
631.31	41151.30
631.46	41020.23
631.61	41567.91
631.76	41441.53
631.91	41834.74
632.06	41069.38
632.21	41303.43
632.36	41504.72
632.51	41698.98
632.66	41464.93
632.81	41361.95
632.96	41113.85
633.10	40854.05
633.25	40971.08
633.40	40917.25
633.55	41289.39
633.70	40872.78
633.85	41146.62
634.00	40718.30
634.15	40722.98
634.30	41134.92
634.45	40940.65
634.60	41076.40
634.75	40704.26
634.90	40648.08
635.05	40854.05
635.19	40926.61
635.34	41277.69
635.49	40573.19
635.64	40559.14
635.79	40552.12
635.94	40479.57
636.09	40877.46
636.24	40980.44
636.39	40346.15
636.53	40720.64
636.68	39864.00
636.83	40708.94
636.98	40690.21
637.13	40076.99
637.28	40165.93
637.43	40772.13
637.57	40711.28
637.72	40720.64
637.87	40645.74
638.02	40587.23
638.17	40231.47
638.32	39927.20
638.46	39873.37
638.61	40006.78
638.76	40266.58
638.91	40116.78
639.06	39927.20
639.20	40069.97
639.35	40463.18
639.50	40044.23
639.65	40313.39
639.80	40472.54
639.94	40261.90
640.09	39957.63
640.24	39697.83
640.39	39510.58
640.54	39777.40
640.68	39814.85
640.83	39952.94
640.98	39866.34
641.13	39646.33
641.27	39737.62
641.42	39718.89
641.57	39665.06
641.72	39566.76
641.86	39517.60
642.01	39342.06
642.16	39321.00
642.31	38731.18
642.45	39634.63
642.60	39285.89
642.75	39028.43
642.90	39590.16
643.04	38785.02
643.19	39391.22
643.34	39309.30
643.48	39445.05
643.63	39358.45
643.78	39220.36
643.93	39470.79
644.07	38609.48
644.22	39194.61
644.37	38733.53
644.51	39016.73
644.66	39337.38
644.81	39332.70
644.95	39292.91
645.10	39709.53
645.25	39124.40
645.39	39108.01
645.54	38822.47
645.69	39056.52
645.83	38866.94
645.98	39143.12
646.13	39416.96
646.27	39002.69
646.42	38983.96
646.57	39051.84
646.71	39033.11
646.86	39173.55
647.00	39145.46
647.15	39269.51
647.30	38686.71
647.44	39100.99
647.59	38572.03
647.74	38913.75
647.88	38703.10
648.03	38349.68
648.17	38845.87
648.32	38440.96
648.47	38251.38
648.61	38447.98
648.76	38663.31
648.90	38525.22
649.05	38728.84
649.20	38553.30
649.34	38927.79
649.49	38513.52
649.63	38316.91
649.78	38300.53
649.92	38733.53
650.07	38569.69
650.21	38286.48
650.36	38401.17
650.51	38513.52
650.65	38745.23
650.80	38857.57
650.94	38691.40
651.09	38398.83
651.23	37944.76
651.38	38307.55
651.52	37703.69
651.67	37837.10
651.81	38003.28
651.96	37883.91
652.10	38181.16
652.25	37778.59
652.39	38127.33
652.54	37961.15
652.68	37982.21
652.83	38061.79
652.97	37879.23
653.12	38122.65
653.26	37708.37
653.41	37986.89
653.55	37776.25
653.70	37448.57
653.84	37769.22
653.99	37544.53
654.13	37479.00
654.27	37364.31
654.42	37904.98
654.56	37970.51
654.71	37565.60
654.85	37567.94
655.00	37251.97
655.14	37326.86
655.29	37134.94
655.43	37158.34
655.57	36924.29
655.72	37071.75
655.86	36765.14
656.01	36861.10
656.15	36910.25
656.30	36889.18
656.44	37205.16
656.58	37102.17
656.73	36608.32
656.87	36699.60
657.01	36634.06
657.16	36547.47
657.30	37031.96
657.45	36428.10
657.59	36821.31
657.73	36863.44
657.88	36840.03
658.02	36568.53
658.16	36662.15
658.31	37043.66
658.45	36725.35
658.60	36928.97
658.74	37003.87
658.88	36376.61
659.03	36730.03
659.17	36697.26
659.31	36367.24
659.46	36009.14
659.60	36659.81
659.74	36121.49
659.89	35765.73
660.03	36364.90
660.17	36486.61
660.32	36268.94
660.46	36535.76
660.60	36400.01
660.74	36313.41
660.89	36172.98
661.03	35929.56
661.17	35861.69
661.32	35278.89
661.46	35587.85
661.60	35978.72
661.74	35487.20
661.89	35777.43
662.03	35536.35
662.17	35714.23
662.31	35248.47
662.46	35842.96
662.60	35667.42
662.74	35260.17
662.88	35311.66
663.03	35330.39
663.17	35147.82
663.31	35262.51
663.45	35194.64
663.60	35234.42
663.74	35253.15
663.88	35065.91
664.02	34902.07
664.17	34815.47
664.31	34553.33
664.45	34993.35
664.59	35187.61
664.73	35063.57
664.88	34689.08
665.02	34330.98
665.16	34424.60
665.30	34752.27
665.44	34794.40
665.59	34122.67
665.73	34473.75
665.87	34209.27
666.01	34408.22
666.15	34251.40
666.29	34153.10
666.44	34478.43
666.58	34501.84
666.72	34298.21
666.86	34267.78
667.00	34422.26
667.14	33879.25
667.28	33947.13
667.43	33809.04
667.57	33539.88
667.71	33542.22
667.85	33584.35
667.99	33649.88
668.13	32767.50
668.27	33408.81
668.41	33645.20
668.56	33406.47
668.70	33233.27
668.84	33439.23
668.98	33369.02
669.12	33200.50
669.26	32975.81
669.40	32835.38
669.54	32535.79
669.68	33205.18
669.82	33031.98
669.96	32844.74
670.10	32821.33
670.25	33287.10
670.39	32641.11
670.53	32762.82
670.67	32570.90
670.81	33233.27
670.95	32449.19
671.09	32795.59
671.23	32973.47
671.37	32737.07
671.51	32467.91
671.65	31981.08
671.79	32137.90
671.93	32098.11
672.07	32280.67
672.21	32133.21
672.35	31833.63
672.49	31917.89
672.63	32102.79
672.77	32158.96
672.91	31658.09
673.05	31578.51
673.19	31433.39
673.33	31742.35
673.47	31201.68
673.61	31435.74
673.75	31398.29
673.89	31433.39
674.03	30752.30
674.17	30979.33
674.31	31087.00
674.45	30675.06
674.59	31007.42
674.73	31229.77
674.87	30738.26
675.01	30761.66
675.15	30967.63
675.29	30689.10
675.43	30553.35
675.56	30504.20
675.70	30277.17
675.84	30078.22
675.98	29542.24
676.12	30206.95
676.26	30178.87
676.40	29647.57
676.54	29624.16
676.68	29809.06
676.82	29532.88
676.96	29284.78
677.10	29252.02
677.23	29380.74
677.37	29174.78
677.51	29088.18
677.65	29415.85
677.79	29380.74
677.93	29188.82
678.07	28905.62
678.21	28423.47
678.34	28694.97
678.48	28524.11
678.62	28800.29
678.76	28451.55
678.90	28512.41
679.04	28683.27
679.18	28545.17
679.31	27999.83
679.45	28346.23
679.59	27440.44
679.73	28130.90
679.87	28161.33
680.00	27730.67
680.14	27688.54
680.28	27653.43
680.42	27388.95
680.56	27391.29
680.70	27491.93
680.83	27220.43
680.97	26965.31
681.11	26998.08
681.25	26904.46
681.39	26771.05
681.52	26630.62
681.66	26892.76
681.80	26829.56
681.94	26291.24
682.07	26462.10
682.21	26206.98
682.35	26239.75
682.49	26389.54
682.62	26525.29
682.76	26375.50
682.90	25802.07
683.04	25764.62
683.17	26309.96
683.31	25806.75
683.45	25673.34
683.59	25930.80
683.72	25163.10
683.86	25242.68
684.00	25731.85
684.13	25324.60
684.27	25118.63
684.41	25228.63
684.55	24891.60
684.68	24889.26
684.82	24622.44
684.96	24730.10
685.09	24606.05
685.23	24596.69
685.37	24390.72
685.50	24563.92
685.64	24451.58
685.78	24180.07
685.91	24201.14
686.05	24320.51
686.19	23871.12
686.32	24081.77
686.46	23730.69
686.60	23489.62
686.73	23431.10
686.87	23517.70
687.01	23183.01
687.14	23215.77
687.28	23026.19
687.42	23246.20
687.55	22693.83
687.69	23007.47
687.82	22909.16
687.96	22920.87
688.10	22911.50
688.23	22546.38
688.37	22574.47
688.50	22127.42
688.64	22218.71
688.78	22242.11
688.91	22211.68
689.05	22139.13
689.18	22338.07
689.32	21500.16
689.46	22354.46
689.59	22363.82
689.73	22258.49
689.86	21483.78
690.00	21724.85
690.13	22047.85
690.27	21682.72
690.41	21411.22
690.54	21223.98
690.68	21247.38
690.81	21050.78
690.95	20891.62
691.08	21074.18
691.22	21284.83
691.35	21223.98
691.49	20980.56
691.62	20959.50
691.76	20596.71
691.89	20945.45
692.03	20638.84
692.16	20535.86
692.30	20341.60
692.43	20346.28
692.57	20273.72
692.70	20093.50
692.84	20100.52
692.97	19950.73
693.11	19625.39
693.24	19807.95
693.38	19843.06
693.51	19606.67
693.65	19513.05
693.78	19499.00
693.92	19391.34
694.05	19410.06
694.19	19262.61
694.32	19194.73
694.45	19332.82
694.59	19014.51
694.72	18937.27
694.86	18726.63
694.99	18679.82
695.13	18515.98
695.26	18382.57
695.39	18125.11
695.53	18387.25
695.66	18380.23
695.80	18239.79
695.93	18104.04
696.07	18036.17
696.20	18319.37
696.33	18298.31
696.47	17921.48
696.60	18043.19
696.73	18097.02
696.87	17818.50
697.00	17727.22
697.14	17762.33
697.27	17483.80
697.40	17565.72
697.54	17202.94
697.67	17261.45
697.80	17453.37
697.94	17266.13
698.07	17029.74
698.21	16837.81
698.34	16814.41
698.47	16910.37
698.61	16325.24
698.74	16702.06
698.87	16755.90
699.01	16465.67
699.14	16367.37
699.27	16264.38
699.40	16306.51
699.54	16259.70
699.67	16276.09
699.80	16180.12
699.94	16184.80
700.07	16137.99
700.20	16004.58
700.34	15646.48
700.47	15927.35
700.60	16222.25
700.73	16035.01
700.87	15754.15
701.00	15557.54
701.13	15566.90
701.26	15438.17
701.40	15351.57
701.53	15410.09
701.66	15080.07
701.79	15096.46
701.93	14972.41
702.06	14829.63
702.19	14794.53
702.32	14787.50
702.46	14565.15
702.59	14686.86
702.72	14846.02
702.85	14485.58
702.99	14651.75
703.12	14899.85
703.25	14626.01
703.38	14389.61
703.51	14026.83
703.65	14101.73
703.78	14101.73
703.91	13996.40
704.04	14047.90
704.17	14029.17
704.31	14188.33
704.44	13734.26
704.57	13406.59
704.70	13495.53
704.83	13755.33
704.96	13839.59
705.10	13731.92
705.23	13696.82
>>>>>End Processed Spectral Data<<<<<
