SpectraSuite Data File
++++++++++++++++++++++++++++++++++++
Date: Fri Oct 25 11:34:49 EDT 2013
User: price-jones
Dark Spectrum Present: No
Reference Spectrum Present: No
Number of Sampled Component Spectra: 1
Spectrometers: USB2+H05261
Integration Time (usec): 100000 (USB2+H05261)
Spectra Averaged: 1 (USB2+H05261)
Boxcar Smoothing: 0 (USB2+H05261)
Correct for Electrical Dark: No (USB2+H05261)
Strobe/Lamp Enabled: No (USB2+H05261)
Correct for Detector Non-linearity: No (USB2+H05261)
Correct for Stray Light: No (USB2+H05261)
Number of Pixels in Processed Spectrum: 2048
>>>>>Begin Processed Spectral Data<<<<<
365.73	271.50
365.92	271.50
366.12	271.50
366.32	208.31
366.52	175.54
366.72	124.05
366.91	189.58
367.11	210.65
367.31	105.32
367.51	201.29
367.70	198.95
367.90	208.31
368.10	112.35
368.30	182.56
368.49	173.20
368.69	170.86
368.89	224.69
369.09	182.56
369.28	170.86
369.48	238.73
369.68	222.35
369.87	175.54
370.07	299.59
370.27	297.25
370.47	346.40
370.66	507.90
370.86	496.19
371.06	528.96
371.25	507.90
371.45	559.39
371.65	507.90
371.84	535.98
372.04	552.37
372.24	554.71
372.44	594.50
372.63	634.29
372.83	566.41
373.03	631.94
373.22	578.11
373.42	573.43
373.62	608.54
373.81	685.78
374.01	681.10
374.21	585.13
374.40	631.94
374.60	638.97
374.79	645.99
374.99	620.24
375.19	641.31
375.38	650.67
375.58	657.69
375.78	650.67
375.97	650.67
376.17	704.50
376.37	688.12
376.56	725.57
376.76	643.65
376.95	606.20
377.15	723.23
377.35	730.25
377.54	727.91
377.74	713.86
377.93	737.27
378.13	704.50
378.33	683.44
378.52	770.04
378.72	723.23
378.91	655.35
379.11	683.44
379.31	688.12
379.50	711.52
379.70	723.23
379.89	730.25
380.09	643.65
380.28	727.91
380.48	704.50
380.68	669.39
380.87	636.63
381.07	662.37
381.26	720.88
381.46	774.72
381.65	767.70
381.85	744.29
382.04	760.67
382.24	711.52
382.43	739.61
382.63	688.12
382.83	690.46
383.02	718.54
383.22	802.80
383.41	741.95
383.61	779.40
383.80	786.42
384.00	748.97
384.19	856.64
384.39	751.31
384.58	802.80
384.78	861.32
384.97	793.44
385.17	891.74
385.36	795.78
385.56	849.61
385.75	842.59
385.95	837.91
386.14	807.48
386.34	819.19
386.53	873.02
386.72	858.98
386.92	805.14
387.11	842.59
387.31	851.96
387.50	835.57
387.70	826.21
387.89	830.89
388.09	835.57
388.28	830.89
388.48	842.59
388.67	919.83
388.86	856.64
389.06	891.74
389.25	898.77
389.45	863.66
389.64	891.74
389.84	938.55
390.03	903.45
390.22	978.34
390.42	978.34
390.61	929.19
390.81	910.47
391.00	903.45
391.19	971.32
391.39	976.00
391.58	1076.65
391.78	954.94
391.97	917.49
392.16	1025.15
392.36	1060.26
392.55	938.55
392.75	1041.54
392.94	924.51
393.13	992.39
393.33	1020.47
393.52	1020.47
393.71	1018.13
393.91	1050.90
394.10	999.41
394.29	1146.86
394.49	954.94
394.68	1100.05
394.88	1064.94
395.07	1102.39
395.26	1076.65
395.46	1118.78
395.65	1071.97
395.84	1114.10
396.04	1137.50
396.23	1165.59
396.42	1203.04
396.62	1137.50
396.81	1118.78
397.00	1245.16
397.19	1217.08
397.39	1165.59
397.58	1235.80
397.77	1158.57
397.97	1259.21
398.16	1093.03
398.35	1249.85
398.55	1214.74
398.74	1196.01
398.93	1404.32
399.12	1277.93
399.32	1289.64
399.51	1174.95
399.70	1338.79
399.90	1289.64
400.09	1401.98
400.28	1322.40
400.47	1310.70
400.67	1373.89
400.86	1371.55
401.05	1390.28
401.24	1406.66
401.44	1394.96
401.63	1357.51
401.82	1416.02
402.01	1411.34
402.21	1420.71
402.40	1357.51
402.59	1399.64
402.78	1523.69
402.97	1401.98
403.17	1495.60
403.36	1373.89
403.55	1514.33
403.74	1579.86
403.93	1657.10
404.13	1638.38
404.32	1509.65
404.51	1528.37
404.70	1619.65
404.89	1551.78
405.09	1589.22
405.28	1614.97
405.47	1528.37
405.66	1591.56
405.85	1795.19
406.05	1732.00
406.24	1675.82
406.43	1631.35
406.62	1673.48
406.81	1767.10
407.00	1664.12
407.20	1673.48
407.39	1668.80
407.58	1717.95
407.77	1771.79
407.96	1727.32
408.15	1764.76
408.34	1785.83
408.54	1813.92
408.73	1783.49
408.92	1832.64
409.11	1827.96
409.30	1907.54
409.49	1844.34
409.68	1870.09
409.87	1944.99
410.07	1886.47
410.26	1935.62
410.45	2064.35
410.64	1891.15
410.83	1902.86
411.02	2026.90
411.21	2129.89
411.40	2050.31
411.59	2043.29
411.78	2118.18
411.98	2080.74
412.17	2111.16
412.36	2148.61
412.55	2310.11
412.74	2094.78
412.93	2197.76
413.12	2256.28
413.31	2387.35
413.50	2284.36
413.69	2181.38
413.88	2298.41
414.07	2331.17
414.26	2345.22
414.45	2434.16
414.64	2356.92
414.83	2310.11
415.02	2516.08
415.22	2429.48
415.41	2408.41
415.60	2523.10
415.79	2473.95
415.98	2565.23
416.17	2633.10
416.36	2609.70
416.55	2548.84
416.74	2700.98
416.93	2626.08
417.12	2609.70
417.31	2640.12
417.50	2670.55
417.69	2850.77
417.88	2885.88
418.07	2766.51
418.26	2832.05
418.45	2750.13
418.64	2946.73
418.83	2871.84
419.02	2874.18
419.21	2986.52
419.39	2944.39
419.58	2911.63
419.77	2794.60
419.96	3000.57
420.15	3073.12
420.34	3089.51
420.53	2937.37
420.72	2965.46
420.91	3162.06
421.10	3098.87
421.29	3075.46
421.48	2995.89
421.67	3094.19
421.86	3110.57
422.05	3180.79
422.24	3126.96
422.43	3218.24
422.61	3208.87
422.80	3199.51
422.99	3269.73
423.18	3213.56
423.37	3213.56
423.56	3124.62
423.75	3178.45
423.94	3159.72
424.13	2974.82
424.32	3096.53
424.50	3258.03
424.69	3208.87
424.88	3265.05
425.07	3119.93
425.26	3169.09
425.45	3213.56
425.64	3187.81
425.83	3251.00
426.01	3318.88
426.20	3206.53
426.39	3281.43
426.58	3204.19
426.77	3407.82
426.96	3419.52
427.15	3342.28
427.33	3368.03
427.52	3396.12
427.71	3510.80
427.90	3323.56
428.09	3478.04
428.28	3349.31
428.46	3445.27
428.65	3421.86
428.84	3496.76
429.03	3578.68
429.22	3438.25
429.40	3478.04
429.59	3583.36
429.78	3513.14
429.97	3361.01
430.16	3541.23
430.34	3679.32
430.53	3784.65
430.72	3728.47
430.91	3707.41
431.10	3712.09
431.28	3639.53
431.47	3854.86
431.66	3733.15
431.85	3667.62
432.03	3866.56
432.22	3840.82
432.41	3763.58
432.60	3913.38
432.79	3843.16
432.97	3777.62
433.16	3864.22
433.35	3831.46
433.54	3845.50
433.72	3882.95
433.91	3960.19
434.10	4011.68
434.28	3920.40
434.47	4131.05
434.66	4030.40
434.85	4004.66
435.03	4044.45
435.22	4046.79
435.41	4215.30
435.59	4142.75
435.78	3969.55
435.97	4154.45
436.16	4287.86
436.34	4095.94
436.53	4241.05
436.72	4292.54
436.90	4198.92
437.09	4278.50
437.28	4231.69
437.46	4154.45
437.65	4264.46
437.84	4542.98
438.02	4318.29
438.21	4278.50
438.40	4306.59
438.58	4414.25
438.77	4589.79
438.96	4638.94
439.14	4664.69
439.33	4678.73
439.52	4603.83
439.70	4634.26
439.89	4765.33
440.08	4620.22
440.26	4779.37
440.45	4704.48
440.63	4800.44
440.82	4833.21
441.01	4779.37
441.19	4858.95
441.38	5006.41
441.57	5048.54
441.75	4945.55
441.94	5217.05
442.12	5020.45
442.31	5224.08
442.50	5071.94
442.68	5174.92
442.87	5156.20
443.05	5310.68
443.24	5261.52
443.43	5210.03
443.61	5116.41
443.80	5352.81
443.98	5245.14
444.17	4983.00
444.35	5336.42
444.54	5504.94
444.73	5408.98
444.91	5144.50
445.10	5434.72
445.28	5376.21
445.47	5336.42
445.65	5458.13
445.84	5437.06
446.02	5329.40
446.21	5313.02
446.39	5280.25
446.58	5446.43
446.77	5446.43
446.95	5270.89
447.14	5364.51
447.32	5448.77
447.51	5416.00
447.69	5446.43
447.88	5483.88
448.06	5593.88
448.25	5418.34
448.43	5542.39
448.62	5675.80
448.80	5556.43
448.99	5547.07
449.17	5603.24
449.36	5486.22
449.54	5701.54
449.73	5621.97
449.91	5603.24
450.10	5685.16
450.28	5715.59
450.46	5720.27
450.65	5703.89
450.83	5849.00
451.02	5724.95
451.20	5849.00
451.39	5874.74
451.57	5806.87
451.76	5799.85
451.94	5799.85
452.13	5860.70
452.31	5970.71
452.49	6059.65
452.68	5989.43
452.86	5902.83
453.05	6012.84
453.23	6071.35
453.42	5923.90
453.60	5844.32
453.78	6132.20
453.97	6087.73
454.15	6108.80
454.34	5895.81
454.52	6150.93
454.70	6193.06
454.89	6104.12
455.07	6228.17
455.26	6253.91
455.44	6368.60
455.62	6389.66
455.81	6333.49
455.99	6272.64
456.17	6317.11
456.36	6326.47
456.54	6541.80
456.73	6387.32
456.91	6607.33
457.09	6719.68
457.28	6644.78
457.46	6619.04
457.64	6651.80
457.83	6520.73
458.01	6427.11
458.19	6766.49
458.38	6754.79
458.56	6787.55
458.74	6857.77
458.93	6729.04
459.11	6752.45
459.29	6876.49
459.48	6876.49
459.66	6937.35
459.84	6881.18
460.03	7054.37
460.21	7000.54
460.39	7012.24
460.57	6993.52
460.76	6787.55
460.94	6937.35
461.12	7115.23
461.31	7260.34
461.49	6846.07
461.67	7089.48
461.85	7243.96
462.04	7019.27
462.22	7279.07
462.40	7286.09
462.59	7279.07
462.77	7356.30
462.95	7267.36
463.13	7377.37
463.32	7328.22
463.50	7609.08
463.68	7557.59
463.86	7384.39
464.05	7454.61
464.23	7480.35
464.41	7651.21
464.59	7344.60
464.78	7463.97
464.96	7658.23
465.14	7583.34
465.32	7576.31
465.50	7625.47
465.69	7637.17
465.87	7693.34
466.05	7482.69
466.23	7641.85
466.41	7861.86
466.60	7726.11
466.78	7641.85
466.96	7609.08
467.14	7859.52
467.32	7836.11
467.51	7878.24
467.69	7712.07
467.87	7845.48
468.05	7941.44
468.23	7751.85
468.41	7873.56
468.60	7815.05
468.78	7915.69
468.96	8161.45
469.14	8262.09
469.32	8210.60
469.50	8095.91
469.69	8088.89
469.87	8353.37
470.05	8306.56
470.23	8372.10
470.41	8341.67
470.59	8250.39
470.77	8297.20
470.95	8437.63
471.14	8383.80
471.32	8208.26
471.50	8554.66
471.68	8489.12
471.86	8505.51
472.04	8641.26
472.22	8718.50
472.40	8643.60
472.58	8830.84
472.77	8889.35
472.95	8755.94
473.13	9076.60
473.31	8830.84
473.49	8887.01
473.67	8826.16
473.85	9039.15
474.03	9022.77
474.21	9151.49
474.39	9198.31
474.57	9277.88
474.75	9369.16
474.93	9425.34
475.12	9423.00
475.30	9509.60
475.48	9399.59
475.66	9652.37
475.84	9551.73
476.02	9523.64
476.20	9652.37
476.38	9750.67
476.56	9991.75
476.74	10026.86
476.92	9832.59
477.10	9797.48
477.28	10146.22
477.46	10146.22
477.64	10097.07
477.82	10312.40
478.00	10492.62
478.18	10572.20
478.36	10546.45
478.54	10843.70
478.72	10714.97
478.90	10963.07
479.08	10740.72
479.26	10946.69
479.44	11040.31
479.62	11197.12
479.80	11311.81
479.98	11377.34
480.16	11452.24
480.34	11571.61
480.52	11503.73
480.70	11456.92
480.88	11410.11
481.06	11655.87
481.24	11735.45
481.41	11838.43
481.59	12067.80
481.77	12138.02
481.95	12166.10
482.13	12250.36
482.31	12166.10
482.49	12470.37
482.67	12659.96
482.85	12610.81
483.03	12575.70
483.21	12929.12
483.39	12917.42
483.57	12688.04
483.74	12879.97
483.92	12987.63
484.10	13177.22
484.28	13376.16
484.46	13685.11
484.64	13937.89
484.82	13701.50
485.00	13820.86
485.18	14101.73
485.35	14288.97
485.53	13970.66
485.71	14267.91
485.89	14382.59
486.07	14508.98
486.25	14546.43
486.43	14504.30
486.61	14892.83
486.78	14904.53
486.96	14736.01
487.14	15108.16
487.32	15049.64
487.50	15468.60
487.68	15433.49
487.85	15604.35
488.03	15527.11
488.21	15896.92
488.39	15889.90
488.57	16016.29
488.75	16486.73
488.92	16222.25
489.10	16350.98
489.28	16493.76
489.46	16875.26
489.64	16601.42
489.81	16884.62
489.99	17135.06
490.17	17142.08
490.35	17465.08
490.53	17294.22
490.70	17645.30
490.88	17542.32
491.06	17851.27
491.24	17645.30
491.41	17972.97
491.59	17745.94
491.77	18118.09
491.95	18288.95
492.13	18401.29
492.30	18396.61
492.48	18525.34
492.66	18740.67
492.84	18750.03
493.01	18824.93
493.19	19019.19
493.37	19307.08
493.54	19047.28
493.72	19363.25
493.90	19274.31
494.08	19332.82
494.25	19854.76
494.43	19875.83
494.61	19910.94
494.79	19796.25
494.96	20247.97
495.14	20060.73
495.32	20505.43
495.49	20514.80
495.67	20372.02
495.85	20718.42
496.02	20861.19
496.20	21123.33
496.38	21071.84
496.55	21352.71
496.73	21832.52
496.91	21315.26
497.09	21640.59
497.26	21612.51
497.44	21654.64
497.62	21823.16
497.79	21998.70
497.97	21912.10
498.14	22230.41
498.32	22150.83
498.50	22281.90
498.67	22368.50
498.85	22202.32
499.03	22328.71
499.20	22445.74
499.38	22651.70
499.56	22787.46
499.73	22803.84
499.91	22993.42
500.08	23295.35
500.26	23185.35
500.44	22937.25
500.61	23285.99
500.79	22974.70
500.97	23351.52
501.14	23377.27
501.32	23307.05
501.49	23859.42
501.67	24077.09
501.84	23910.91
502.02	24219.86
502.20	23903.89
502.37	24271.36
502.55	24442.21
502.72	24170.71
502.90	24161.35
503.07	24498.39
503.25	24566.26
503.43	24198.80
503.60	24875.21
503.78	24844.79
503.95	24706.70
504.13	25006.28
504.30	25153.74
504.48	25097.56
504.65	25111.61
504.83	25174.80
505.01	25483.75
505.18	25394.81
505.36	25572.69
505.53	25607.80
505.71	25621.84
505.88	26075.91
506.06	25905.05
506.23	26012.71
506.41	25858.24
506.58	26176.55
506.76	26057.18
506.93	26534.65
507.11	26153.15
507.28	26211.66
507.46	26263.15
507.63	26036.12
507.81	26799.13
507.98	26529.97
508.16	26405.92
508.33	26672.74
508.50	26916.16
508.68	26855.31
508.85	27068.30
509.03	27126.81
509.20	27552.79
509.38	27658.11
509.55	27606.62
509.73	27260.22
509.90	27576.19
510.08	27445.12
510.25	27648.75
510.42	27714.28
510.60	27922.59
510.77	27718.96
510.95	28573.26
511.12	28189.41
511.30	28264.31
511.47	27978.76
511.64	28273.67
511.82	28542.83
511.99	28603.69
512.17	28772.21
512.34	28755.82
512.51	28772.21
512.69	29048.39
512.86	28706.67
513.04	28959.45
513.21	28922.00
513.38	29212.23
513.56	29556.28
513.73	29406.49
513.90	29317.55
514.08	29340.96
514.25	29521.18
514.43	29565.65
514.60	29720.12
514.77	29420.53
514.95	30050.14
515.12	29582.03
515.29	29893.32
515.47	29923.75
515.64	30345.05
515.81	30129.72
515.99	30181.21
516.16	30487.82
516.33	30646.97
516.51	30389.52
516.68	30499.52
516.85	30375.47
517.03	30670.38
517.20	30637.61
517.37	30684.42
517.54	30731.23
517.72	30911.46
517.89	31166.57
518.06	30988.69
518.24	31449.78
518.41	31016.78
518.58	30829.54
518.75	30995.71
518.93	31185.30
519.10	31395.95
519.27	31164.23
519.45	31227.43
519.62	31908.52
519.79	31543.40
519.96	31585.53
520.14	31688.51
520.31	32095.77
520.48	31669.79
520.65	31892.14
520.83	32187.05
521.00	32051.30
521.17	32257.26
521.34	32601.32
521.52	32294.71
521.69	32830.69
521.86	32418.76
522.03	32732.39
522.20	32826.01
522.38	33090.49
522.55	32816.65
522.72	32917.29
522.89	32973.47
523.07	33083.47
523.24	33118.58
523.41	32833.04
523.58	33050.70
523.75	33422.85
523.92	33324.55
524.10	33577.33
524.27	33280.08
524.44	33244.97
524.61	33703.71
524.78	33804.36
524.96	33848.83
525.13	33677.97
525.30	34202.25
525.47	34019.69
525.64	33577.33
525.81	34136.71
525.98	34120.33
526.16	34204.59
526.33	34120.33
526.50	34415.24
526.67	34199.91
526.84	34817.81
527.01	34188.21
527.18	34352.04
527.36	34595.46
527.53	34693.76
527.70	34527.58
527.87	34876.32
528.04	34457.37
528.21	34838.87
528.38	34799.08
528.55	34993.35
528.72	34471.41
528.89	34859.94
529.07	34394.17
529.24	34759.30
529.41	35236.77
529.58	35613.59
529.75	35618.27
529.92	35529.33
530.09	35363.15
530.26	35562.10
530.43	35505.93
530.60	35398.26
530.77	35627.63
530.94	35395.92
531.11	35641.68
531.28	35625.29
531.46	35927.22
531.63	35772.75
531.80	35833.60
531.97	35990.42
532.14	35868.71
532.31	36025.53
532.48	36245.54
532.65	36278.30
532.82	36229.15
532.99	36163.62
533.16	35894.46
533.33	36706.62
533.50	36266.60
533.67	36072.34
533.84	36243.20
534.01	36507.68
534.18	36430.44
534.35	36851.73
534.52	36697.26
534.69	36907.91
534.86	36596.62
535.03	36823.65
535.20	36706.62
535.37	37008.55
535.54	37067.06
535.71	36662.15
535.88	36884.50
536.05	37249.63
536.22	37090.47
536.38	37598.37
536.55	37207.50
536.72	37125.58
536.89	37188.77
537.06	37085.79
537.23	37708.37
537.40	37221.54
537.57	37322.18
537.74	37202.82
537.91	37848.80
538.08	37656.88
538.25	37104.51
538.42	37881.57
538.59	38146.05
538.75	37902.64
538.92	37738.80
539.09	38029.02
539.26	38176.48
539.43	38122.65
539.60	38480.75
539.77	38082.86
539.94	38330.95
540.11	38216.27
540.28	38562.67
540.44	38546.28
540.61	38274.78
540.78	38195.20
540.95	38497.13
541.12	38792.04
541.29	38581.39
541.46	38426.92
541.62	38085.20
541.79	39014.39
541.96	38614.16
542.13	38529.90
542.30	38284.14
542.47	38843.53
542.63	38799.06
542.80	39592.50
542.97	39566.76
543.14	39463.77
543.31	38918.43
543.48	39419.30
543.64	39974.01
543.81	39751.66
543.98	39246.10
544.15	39524.63
544.32	39386.54
544.48	39906.13
544.65	39526.97
544.82	39622.93
544.99	39295.25
545.16	39927.20
545.32	39683.78
545.49	40126.14
545.66	39983.37
545.83	40306.37
546.00	40140.19
546.16	40142.53
546.33	39868.69
546.50	39915.50
546.67	40163.59
546.83	39548.03
547.00	40175.30
547.17	40037.20
547.34	39924.86
547.50	40165.93
547.67	40772.13
547.84	40748.73
548.00	40313.39
548.17	40842.35
548.34	40423.39
548.51	40690.21
548.67	40453.82
548.84	40538.08
549.01	40856.39
549.18	40622.34
549.34	41078.74
549.51	40612.98
549.68	40971.08
549.84	40947.67
550.01	40793.20
550.18	40680.85
550.34	41050.66
550.51	41062.36
550.68	40767.45
550.84	41170.02
551.01	41205.13
551.18	41284.71
551.34	41130.23
551.51	41235.56
551.68	41230.88
551.84	41177.04
552.01	41083.42
552.18	41600.68
552.34	40950.01
552.51	41457.91
552.68	40950.01
552.84	41277.69
553.01	41481.31
553.18	41532.81
553.34	41846.44
553.51	41338.54
553.67	41528.13
553.84	41591.32
554.01	41937.72
554.17	41895.59
554.34	42082.83
554.51	41631.11
554.67	42150.71
554.84	41748.14
555.00	41586.64
555.17	41560.89
555.33	41954.10
555.50	42129.64
555.67	41949.42
555.83	41970.49
556.00	42127.30
556.16	42380.08
556.33	42272.42
556.50	41904.95
556.66	42307.52
556.83	41993.89
556.99	42347.31
557.16	42373.06
557.32	42106.24
557.49	42593.07
557.65	42483.06
557.82	42501.79
557.98	42113.26
558.15	42344.97
558.32	42249.01
558.48	42768.61
558.65	42534.56
558.81	42698.39
558.98	42459.66
559.14	42539.24
559.31	42387.10
559.47	42773.29
559.64	42733.50
559.80	42822.44
559.97	43012.02
560.13	43028.41
560.30	42653.92
560.46	43023.73
560.63	42628.18
560.79	42899.68
560.96	43217.99
561.12	43257.78
561.29	42932.45
561.45	43112.67
561.61	42621.16
561.78	43187.56
561.94	43161.82
562.11	42909.04
562.27	43138.41
562.44	42717.12
562.60	43463.75
562.77	43049.47
562.93	42754.57
563.10	43346.72
563.26	42934.79
563.42	43863.98
563.59	42990.96
563.75	43056.50
563.92	43187.56
564.08	43091.60
564.24	43540.99
564.41	42918.40
564.57	42909.04
564.74	43746.95
564.90	43033.09
565.07	43438.00
565.23	43522.26
565.39	43332.68
565.56	43351.40
565.72	43208.63
565.88	43480.13
566.05	43555.03
566.21	43421.62
566.38	43562.05
566.54	43791.42
566.70	44023.14
566.87	43824.19
567.03	43641.63
567.19	43639.29
567.36	43166.50
567.52	43335.02
567.68	43901.43
567.85	43517.58
568.01	43910.79
568.17	43433.32
568.34	43660.35
568.50	43866.32
568.66	43648.65
568.83	43658.01
568.99	44156.55
569.15	43730.57
569.32	43878.02
569.48	43489.49
569.64	44179.95
569.81	43608.86
569.97	44006.75
570.13	44233.78
570.30	43924.83
570.46	44046.54
570.62	44177.61
570.78	44189.31
570.95	44137.82
571.11	44266.55
571.27	43653.33
571.43	43845.26
571.60	43746.95
571.76	43817.17
571.92	44076.97
572.09	43959.94
572.25	44027.82
572.41	43798.44
572.57	44217.40
572.74	44107.40
572.90	43962.28
573.06	44098.03
573.22	44547.42
573.38	44069.95
573.55	44046.54
573.71	44797.85
573.87	44437.41
574.03	44514.65
574.20	44381.24
574.36	44516.99
574.52	44116.76
574.68	44390.60
574.84	44149.53
575.01	44722.96
575.17	44231.44
575.33	44177.61
575.49	43875.68
575.65	44116.76
575.82	44201.02
575.98	44069.95
576.14	44804.88
576.30	44491.24
576.46	44282.94
576.62	44074.63
576.79	44055.90
576.95	44182.29
577.11	44119.10
577.27	44065.27
577.43	44369.54
577.59	44151.87
577.75	44371.88
577.92	44385.92
578.08	44573.16
578.24	44477.20
578.40	44250.17
578.56	44392.94
578.72	44512.31
578.88	44477.20
579.04	44184.63
579.21	44208.04
579.37	44739.34
579.53	44350.81
579.69	44481.88
579.85	44521.67
580.01	44545.08
580.17	44186.97
580.33	44788.49
580.49	44559.12
580.65	44622.31
580.82	44933.60
580.98	44296.98
581.14	44376.56
581.30	44446.77
581.46	44449.11
581.62	44009.09
581.78	44573.16
581.94	44533.37
582.10	44432.73
582.26	44369.54
582.42	44914.88
582.58	44432.73
582.74	44821.26
582.90	44732.32
583.06	44683.17
583.22	44430.39
583.38	44531.03
583.54	44463.16
583.70	44465.50
583.86	44818.92
584.02	44737.00
584.18	44755.72
584.34	44577.84
584.50	44931.26
584.66	44809.56
584.82	44711.25
584.98	45043.61
585.14	44538.05
585.30	44493.58
585.46	44498.26
585.62	44488.90
585.78	44807.22
585.94	44467.84
586.10	44673.81
586.26	44201.02
586.42	43950.58
586.58	44870.41
586.74	44687.85
586.90	44610.61
587.06	44516.99
587.22	45235.53
587.38	44245.49
587.54	44964.03
587.70	45151.27
587.86	44823.60
588.02	45132.55
588.18	44746.36
588.34	44612.95
588.49	44933.60
588.65	44659.76
588.81	44669.12
588.97	45078.72
589.13	44790.83
589.29	45017.86
589.45	45104.46
589.61	45247.24
589.77	44882.11
589.93	44879.77
590.08	45373.63
590.24	44816.58
590.40	45530.44
590.56	45277.66
590.72	45340.86
590.88	45095.10
591.04	44964.03
591.20	45284.68
591.35	45064.67
591.51	45317.45
591.67	44964.03
591.83	45680.24
591.99	45141.91
592.15	45170.00
592.31	44814.24
592.46	44893.82
592.62	45078.72
592.78	45523.42
592.94	45319.79
593.10	45329.16
593.26	45565.55
593.41	45708.32
593.57	45617.04
593.73	44994.46
593.89	45722.37
594.05	45673.21
594.20	45289.37
594.36	45214.47
594.52	45385.33
594.68	45521.08
594.84	45240.21
594.99	45530.44
595.15	45331.50
595.31	45804.28
595.47	45184.04
595.62	45521.08
595.78	45308.09
595.94	45380.65
596.10	45331.50
596.25	45666.19
596.41	45450.86
596.57	45045.95
596.73	45666.19
596.88	45523.42
597.04	45525.76
597.20	45485.97
597.36	45530.44
597.51	45439.16
597.67	45155.96
597.83	45116.17
597.99	45556.19
598.14	45141.91
598.30	45230.85
598.46	45205.11
598.61	45844.07
598.77	45340.86
598.93	45448.52
599.09	45841.73
599.24	46007.91
599.40	45696.62
599.56	45600.66
599.71	45963.44
599.87	46141.32
600.03	45755.13
600.18	45401.71
600.34	45677.90
600.50	45418.10
600.65	45539.80
600.81	45933.01
600.97	45748.11
601.12	45762.15
601.28	46122.60
601.44	45579.59
601.59	45610.02
601.75	45289.37
601.91	45422.78
602.06	45600.66
602.22	45731.73
602.37	44912.54
602.53	45394.69
602.69	45633.42
602.84	45289.37
603.00	45507.04
603.16	45560.87
603.31	45635.77
603.47	45610.02
603.62	45930.67
603.78	45879.18
603.94	45586.61
604.09	45319.79
604.25	45617.04
604.40	45350.22
604.56	45500.01
604.71	45523.42
604.87	45422.78
605.03	45034.25
605.18	45467.25
605.34	45216.81
605.49	45453.20
605.65	45851.09
605.80	45485.97
605.96	44800.19
606.12	45282.34
606.27	45729.39
606.43	45326.81
606.58	45467.25
606.74	45490.65
606.89	45216.81
607.05	45574.91
607.20	46000.89
607.36	45626.40
607.51	45085.74
607.67	45240.21
607.82	44989.78
607.98	45319.79
608.13	45240.21
608.29	45368.94
608.44	45610.02
608.60	45345.54
608.75	45244.90
608.91	44982.76
609.06	45177.02
609.22	45336.18
609.37	45095.10
609.53	45420.44
609.68	45352.56
609.84	44952.33
609.99	45038.93
610.15	45256.60
610.30	45179.36
610.46	45090.42
610.61	44680.83
610.76	45544.48
610.92	44708.91
611.07	44692.53
611.23	44839.98
611.38	45069.36
611.54	45441.50
611.69	45556.19
611.84	45275.32
612.00	44917.22
612.15	45064.67
612.31	45340.86
612.46	44858.71
612.62	44919.56
612.77	45057.65
612.92	45406.39
613.08	45109.14
613.23	45071.70
613.39	44924.24
613.54	44884.45
613.69	44945.31
613.85	44942.97
614.00	44919.56
614.15	45006.16
614.31	44406.98
614.46	44432.73
614.62	44243.15
614.77	45214.47
614.92	44980.42
615.08	44626.99
615.23	44844.66
615.38	44858.71
615.54	44863.39
615.69	44931.26
615.84	44692.53
616.00	44720.62
616.15	44779.13
616.30	44694.87
616.46	44456.14
616.61	44701.89
616.76	44889.13
616.92	44451.45
617.07	44353.15
617.22	44854.03
617.37	44474.86
617.53	44123.78
617.68	44435.07
617.83	44339.11
617.99	44877.43
618.14	44594.23
618.29	44526.35
618.45	43901.43
618.60	44191.65
618.75	44046.54
618.90	44191.65
619.06	44198.68
619.21	44432.73
619.36	44311.02
619.51	44233.78
619.67	44170.59
619.82	44100.37
619.97	44465.50
620.12	44065.27
620.28	44147.18
620.43	44807.22
620.58	44524.01
620.73	44147.18
620.89	44306.34
621.04	44055.90
621.19	44123.78
621.34	43955.26
621.49	44100.37
621.65	44083.99
621.80	44332.09
621.95	44238.47
622.10	44095.69
622.25	43702.48
622.41	44009.09
622.56	43749.29
622.71	43866.32
622.86	44013.77
623.01	44114.42
623.16	43686.10
623.32	43622.90
623.47	43838.23
623.62	44030.16
623.77	43866.32
623.92	43936.54
624.07	44041.86
624.23	43566.73
624.38	44030.16
624.53	43775.04
624.68	43309.27
624.83	43349.06
624.98	43613.54
625.13	42651.58
625.29	43676.74
625.44	43569.07
625.59	43714.19
625.74	43260.12
625.89	43302.25
626.04	43140.75
626.19	43297.57
626.34	43292.89
626.49	43274.16
626.65	43023.73
626.80	43232.04
626.95	43117.35
627.10	42829.46
627.25	43199.27
627.40	43217.99
627.55	43508.22
627.70	43002.66
627.85	43496.52
628.00	43119.69
628.15	43323.32
628.30	42309.86
628.45	42820.10
628.60	42995.64
628.76	42848.19
628.91	42717.12
629.06	42747.54
629.21	42536.90
629.36	42466.68
629.51	42770.95
629.66	42969.90
629.81	42249.01
629.96	42541.58
630.11	42909.04
630.26	42738.18
630.41	42885.64
630.56	42518.17
630.71	42469.02
630.86	42316.89
631.01	42473.70
631.16	42251.35
631.31	42653.92
631.46	42281.78
631.61	42920.74
631.76	42869.25
631.91	42639.88
632.06	42710.10
632.21	42876.27
632.36	42871.59
632.51	42553.28
632.66	42375.40
632.81	42579.03
632.96	42347.31
633.10	42480.72
633.25	42398.80
633.40	42295.82
633.55	42672.65
633.70	41722.39
633.85	42117.94
634.00	42061.77
634.15	42064.11
634.30	41869.84
634.45	42241.99
634.60	42127.30
634.75	42241.99
634.90	42401.14
635.05	41935.38
635.19	41907.29
635.34	42213.90
635.49	41624.09
635.64	41729.41
635.79	41970.49
635.94	41645.15
636.09	41851.12
636.24	41745.80
636.39	41390.03
636.53	41808.99
636.68	41284.71
636.83	41764.52
636.98	41125.55
637.13	41542.17
637.28	41584.30
637.43	41443.87
637.57	41926.02
637.72	41003.85
637.87	41256.62
638.02	41663.88
638.17	41120.87
638.32	41177.04
638.46	40985.12
638.61	41195.77
638.76	41179.39
638.91	41493.02
639.06	41366.63
639.20	40821.28
639.35	41186.41
639.50	40989.80
639.65	41418.12
639.80	40858.73
639.94	41411.10
640.09	41045.97
640.24	41305.77
640.39	40973.42
640.54	40872.78
640.68	41170.02
640.83	41326.84
640.98	40814.26
641.13	40727.66
641.27	41392.37
641.42	40957.03
641.57	40863.41
641.72	40708.94
641.86	40528.72
642.01	40589.57
642.16	40657.45
642.31	40229.13
642.45	40973.42
642.60	40517.01
642.75	41006.19
642.90	40676.17
643.04	40591.91
643.19	40519.35
643.34	40512.33
643.48	40236.15
643.63	39948.26
643.78	40837.67
643.93	40519.35
644.07	40620.00
644.22	40561.48
644.37	40727.66
644.51	40388.28
644.66	40664.47
644.81	40149.55
644.95	40390.62
645.10	40409.35
645.25	40116.78
645.39	40020.82
645.54	40313.39
645.69	39754.00
645.83	39833.58
645.98	40390.62
646.13	39714.21
646.27	39779.74
646.42	39821.87
646.57	39625.27
646.71	40187.00
646.86	40229.13
647.00	40418.71
647.15	39999.76
647.30	40013.80
647.44	39910.82
647.59	40034.86
647.74	39789.11
647.88	39878.05
648.03	39981.03
648.17	40069.97
648.32	40025.50
648.47	39784.43
648.61	39697.83
648.76	39878.05
648.90	39283.55
649.05	39438.03
649.20	39868.69
649.34	39660.38
649.49	39988.05
649.63	39639.31
649.78	39484.84
649.92	39824.22
650.07	40055.93
650.21	39620.59
650.36	40100.40
650.51	39367.81
650.65	39725.91
650.80	39576.12
650.94	39517.60
651.09	39370.15
651.23	39484.84
651.38	39304.62
651.52	38958.22
651.67	38766.29
651.81	38955.88
651.96	39496.54
652.10	39269.51
652.25	38958.22
652.39	38843.53
652.54	39051.84
652.68	39222.70
652.83	39091.63
652.97	39267.17
653.12	39002.69
653.26	38904.38
653.41	38852.89
653.55	38817.78
653.70	38986.30
653.84	38848.21
653.99	39295.25
654.13	38902.04
654.27	38834.17
654.42	38787.36
654.56	38960.56
654.71	38855.23
654.85	38785.02
655.00	39328.02
655.14	39040.14
655.29	39079.92
655.43	38962.90
655.57	38618.84
655.72	38667.99
655.86	38691.40
656.01	38569.69
656.15	38328.61
656.30	38529.90
656.44	38644.59
656.58	38529.90
656.73	38211.59
656.87	38124.99
657.01	38129.67
657.16	38291.16
657.30	38347.34
657.45	38143.71
657.59	38045.41
657.73	37837.10
657.88	37996.26
658.02	38476.07
658.16	38316.91
658.31	38307.55
658.45	38185.84
658.60	37816.04
658.74	38370.74
658.88	38251.38
659.03	37722.41
659.17	37457.93
659.31	37949.45
659.46	37565.60
659.60	37745.82
659.74	37453.25
659.89	37380.70
660.03	37015.57
660.17	37471.98
660.32	37556.24
660.46	37404.10
660.60	37326.86
660.74	37600.71
660.89	37661.56
661.03	36952.38
661.17	36903.23
661.32	36694.92
661.46	37729.44
661.60	36858.76
661.74	37315.16
661.89	37024.93
662.03	36863.44
662.17	37230.90
662.31	36687.90
662.46	37022.59
662.60	36533.42
662.74	36505.34
662.88	36617.68
663.03	36318.09
663.17	36268.94
663.31	35990.42
663.45	36484.27
663.60	36603.64
663.74	36318.09
663.88	36521.72
664.02	35999.78
664.17	36683.22
664.31	35861.69
664.45	35761.05
664.59	36032.55
664.73	36112.13
664.88	35934.24
665.02	35674.45
665.16	35718.92
665.30	35824.24
665.44	35885.09
665.59	35637.00
665.73	35508.27
665.87	35496.56
666.01	35873.39
666.15	35660.40
666.29	35290.60
666.44	35655.72
666.58	35468.48
666.72	35047.18
666.86	35269.53
667.00	35047.18
667.14	35159.53
667.28	35042.50
667.43	34948.88
667.57	35318.68
667.71	34946.54
667.85	35021.44
667.99	34852.92
668.13	34803.77
668.27	34422.26
668.41	34328.64
668.56	34003.30
668.70	34220.97
668.84	34398.85
668.98	34443.32
669.12	34066.50
669.26	34522.90
669.40	34485.45
669.54	34026.71
669.68	34064.16
669.82	33722.44
669.96	33839.47
670.10	33734.14
670.25	33642.86
670.39	33802.02
670.53	34085.22
670.67	33539.88
670.81	33338.59
670.95	33752.87
671.09	33364.34
671.23	33198.16
671.37	33570.30
671.51	33392.42
671.65	33202.84
671.79	33270.72
671.93	33259.01
672.07	33525.83
672.21	33331.57
672.35	32936.02
672.49	32872.82
672.63	33118.58
672.77	32568.55
672.91	32807.29
673.05	32863.46
673.19	32629.41
673.33	32245.56
673.47	32465.57
673.61	32084.06
673.75	31789.16
673.89	32126.19
674.03	32027.89
674.17	31772.77
674.31	31775.11
674.45	31625.32
674.59	31906.18
674.73	31735.32
674.87	31807.88
675.01	31606.59
675.15	31211.04
675.29	31255.51
675.43	31082.31
675.56	31218.07
675.70	31402.97
675.84	30967.63
675.98	30375.47
676.12	30754.64
676.26	30993.37
676.40	30888.05
676.54	30415.26
676.68	30127.38
676.82	30321.64
676.96	30326.32
677.10	30244.40
677.23	30061.84
677.37	30171.85
677.51	30286.53
677.65	29961.20
677.79	29851.19
677.93	29575.01
678.07	29593.73
678.21	29661.61
678.34	29200.52
678.48	29291.80
678.62	29448.62
678.76	29235.63
678.90	28996.90
679.04	29266.06
679.18	29216.91
679.31	28835.40
679.45	28872.85
679.59	28610.71
679.73	28620.07
679.87	28662.20
680.00	28758.16
680.14	28292.40
680.28	28215.16
680.42	28400.06
680.56	27978.76
680.70	27695.56
680.83	27468.53
680.97	27946.00
681.11	27536.40
681.25	27559.81
681.39	27300.01
681.52	27381.93
681.66	27239.15
681.80	26991.06
681.94	26808.50
682.07	27117.45
682.21	26909.14
682.35	26946.59
682.49	26647.00
682.62	26471.46
682.76	27194.68
682.90	26391.88
683.04	26298.26
683.17	26331.03
683.31	26434.01
683.45	26221.02
683.59	25862.92
683.72	25621.84
683.86	26001.01
684.00	25848.88
684.13	25647.59
684.27	25458.01
684.41	25425.24
684.55	25678.02
684.68	25415.88
684.82	25167.78
684.96	25280.13
685.09	25020.33
685.23	25261.40
685.37	25362.04
685.50	24980.54
685.64	25074.16
685.78	24521.79
685.91	24643.50
686.05	24271.36
686.19	24109.86
686.32	24011.56
686.46	23674.52
686.60	23742.39
686.73	24149.65
686.87	23814.95
687.01	23943.68
687.14	23880.49
687.28	23976.45
687.42	23616.01
687.55	23267.27
687.69	23374.93
687.82	22958.31
687.96	23005.13
688.10	23030.87
688.23	23463.87
688.37	23199.39
688.50	23295.35
688.64	22937.25
688.78	22972.36
688.91	22658.73
689.05	22654.05
689.18	22628.30
689.32	22178.92
689.46	22108.70
689.59	22199.98
689.73	22373.18
689.86	22228.07
690.00	22171.89
690.13	22045.51
690.27	21656.98
690.41	22309.99
690.54	21752.94
690.68	21621.87
690.81	21525.91
690.95	21160.78
691.08	21240.36
691.22	20971.20
691.35	21116.31
691.49	20978.22
691.62	21092.91
691.76	20734.81
691.89	20781.62
692.03	20123.93
692.16	20144.99
692.30	20783.96
692.43	20606.08
692.57	20285.42
692.70	19824.34
692.84	20128.61
692.97	19782.21
693.11	19810.29
693.24	19730.72
693.38	19585.60
693.51	19744.76
693.65	19491.98
693.78	19468.58
693.92	19227.50
694.05	19391.34
694.19	19204.10
694.32	18972.38
694.45	19489.64
694.59	19398.36
694.72	19152.60
694.86	18944.30
694.99	18572.15
695.13	18518.32
695.26	18469.17
695.39	18422.36
695.53	18412.99
695.66	18504.28
695.80	18295.97
695.93	17994.04
696.07	18291.29
696.20	18099.36
696.33	17848.93
696.47	17848.93
696.60	17963.61
696.73	17848.93
696.87	17741.26
697.00	17572.74
697.14	17193.58
697.27	17151.45
697.40	17390.18
697.54	17544.66
697.67	17188.89
697.80	17252.09
697.94	16840.15
698.07	17025.06
698.21	16912.71
698.34	16908.03
698.47	16648.23
698.61	16318.22
698.74	16472.69
698.87	16507.80
699.01	16037.35
699.14	16290.13
699.27	16245.66
699.40	16102.89
699.54	16093.52
699.67	15974.16
699.80	15941.39
699.94	15964.79
700.07	15908.62
700.20	15676.91
700.34	15716.70
700.47	15587.97
700.60	15461.58
700.73	15482.64
700.87	15365.62
701.00	15178.37
701.13	15035.60
701.26	14995.81
701.40	15344.55
701.53	14878.79
701.66	14878.79
701.79	14934.96
701.93	14642.39
702.06	14368.55
702.19	14527.71
702.32	14525.36
702.46	14413.02
702.59	14602.60
702.72	14640.05
702.85	14441.11
702.99	14354.51
703.12	14083.00
703.25	14223.44
703.38	14134.50
703.51	14083.00
703.65	13954.27
703.78	13525.96
703.91	13518.93
704.04	13699.16
704.17	13610.22
704.31	13252.11
704.44	13547.02
704.57	13282.54
704.70	13390.20
704.83	13207.64
704.96	13364.46
705.10	13125.72
705.23	12964.23
>>>>>End Processed Spectral Data<<<<<
