SpectraSuite Data File
++++++++++++++++++++++++++++++++++++
Date: Fri Oct 25 11:33:21 EDT 2013
User: price-jones
Dark Spectrum Present: No
Reference Spectrum Present: No
Number of Sampled Component Spectra: 1
Spectrometers: USB2+H05261
Integration Time (usec): 100000 (USB2+H05261)
Spectra Averaged: 1 (USB2+H05261)
Boxcar Smoothing: 0 (USB2+H05261)
Correct for Electrical Dark: No (USB2+H05261)
Strobe/Lamp Enabled: No (USB2+H05261)
Correct for Detector Non-linearity: No (USB2+H05261)
Correct for Stray Light: No (USB2+H05261)
Number of Pixels in Processed Spectrum: 2048
>>>>>Begin Processed Spectral Data<<<<<
365.73	220.01
365.92	220.01
366.12	220.01
366.32	140.43
366.52	142.77
366.72	194.26
366.91	184.90
367.11	198.95
367.31	114.69
367.51	166.18
367.70	198.95
367.90	224.69
368.10	189.58
368.30	191.92
368.49	67.88
368.69	180.22
368.89	318.31
369.09	95.96
369.28	224.69
369.48	212.99
369.68	212.99
369.87	262.14
370.07	241.08
370.27	304.27
370.47	304.27
370.66	479.81
370.86	519.60
371.06	573.43
371.25	543.00
371.45	528.96
371.65	559.39
371.84	568.75
372.04	603.86
372.24	566.41
372.44	587.47
372.63	594.50
372.83	613.22
373.03	582.79
373.22	554.71
373.42	627.26
373.62	587.47
373.81	589.82
374.01	660.03
374.21	681.10
374.40	645.99
374.60	681.10
374.79	643.65
374.99	615.56
375.19	624.92
375.38	592.16
375.58	615.56
375.78	741.95
375.97	683.44
376.17	746.63
376.37	641.31
376.56	636.63
376.76	613.22
376.95	685.78
377.15	671.73
377.35	723.23
377.54	592.16
377.74	636.63
377.93	683.44
378.13	702.16
378.33	671.73
378.52	667.05
378.72	702.16
378.91	674.07
379.11	732.59
379.31	753.65
379.50	653.01
379.70	734.93
379.89	692.80
380.09	713.86
380.28	711.52
380.48	805.14
380.68	709.18
380.87	727.91
381.07	758.33
381.26	781.74
381.46	816.85
381.65	767.70
381.85	748.97
382.04	793.44
382.24	833.23
382.43	725.57
382.63	809.83
382.83	709.18
383.02	805.14
383.22	727.91
383.41	702.16
383.61	758.33
383.80	819.19
384.00	847.27
384.19	786.42
384.39	837.91
384.58	866.00
384.78	774.72
384.97	873.02
385.17	753.65
385.36	835.57
385.56	884.72
385.75	880.04
385.95	856.64
386.14	868.34
386.34	847.27
386.53	894.08
386.72	805.14
386.92	889.40
387.11	840.25
387.31	826.21
387.50	910.47
387.70	896.43
387.89	903.45
388.09	809.83
388.28	908.13
388.48	858.98
388.67	896.43
388.86	863.66
389.06	940.90
389.25	1025.15
389.45	992.39
389.64	910.47
389.84	971.32
390.03	978.34
390.22	964.30
390.42	954.94
390.61	980.68
390.81	933.87
391.00	1032.18
391.19	1076.65
391.39	987.71
391.58	1006.43
391.78	1008.77
391.97	1081.33
392.16	1020.47
392.36	1027.50
392.55	1081.33
392.75	1132.82
392.94	1041.54
393.13	1083.67
393.33	1074.31
393.52	1160.91
393.71	1102.39
393.91	1081.33
394.10	1109.41
394.29	1095.37
394.49	1074.31
394.68	1125.80
394.88	1163.25
395.07	1217.08
395.26	1048.56
395.46	1032.18
395.65	1151.54
395.84	1179.63
396.04	1212.40
396.23	1233.46
396.42	1235.80
396.62	1226.44
396.81	1226.44
397.00	1214.74
397.19	1221.76
397.39	1130.48
397.58	1266.23
397.77	1287.29
397.97	1203.04
398.16	1399.64
398.35	1334.11
398.55	1275.59
398.74	1172.61
398.93	1331.76
399.12	1352.83
399.32	1331.76
399.51	1483.90
399.70	1357.51
399.90	1352.83
400.09	1310.70
400.28	1263.89
400.47	1406.66
400.67	1437.09
400.86	1378.58
401.05	1434.75
401.24	1453.47
401.44	1441.77
401.63	1369.21
401.82	1462.83
402.01	1437.09
402.21	1479.22
402.40	1554.12
402.59	1476.88
402.78	1535.39
402.97	1469.86
403.17	1523.69
403.36	1481.56
403.55	1577.52
403.74	1640.72
403.93	1591.56
404.13	1614.97
404.32	1619.65
404.51	1577.52
404.70	1645.40
404.89	1699.23
405.09	1741.36
405.28	1722.63
405.47	1619.65
405.66	1778.81
405.85	1748.38
406.05	1654.76
406.24	1645.40
406.43	1722.63
406.62	1736.68
406.81	1804.55
407.00	1715.61
407.20	1746.04
407.39	1724.97
407.58	1830.30
407.77	1909.88
407.96	1895.83
408.15	1937.96
408.34	1816.26
408.54	1909.88
408.73	1984.77
408.92	1949.67
409.11	1970.73
409.30	1991.80
409.49	1977.75
409.68	1956.69
409.87	2043.29
410.07	2085.42
410.26	2059.67
410.45	2078.40
410.64	2080.74
410.83	2188.40
411.02	2218.83
411.21	2237.55
411.40	2279.68
411.59	2286.70
411.78	2148.61
411.98	2209.47
412.17	2253.94
412.36	2314.79
412.55	2392.03
412.74	2492.67
412.93	2370.96
413.12	2324.15
413.31	2455.22
413.50	2413.09
413.69	2338.20
413.88	2492.67
414.07	2640.12
414.26	2558.21
414.45	2502.03
414.64	2485.65
414.83	2586.29
415.02	2677.57
415.22	2672.89
415.41	2700.98
415.60	2565.23
415.79	2782.90
415.98	2832.05
416.17	2759.49
416.36	2750.13
416.55	2747.79
416.74	2857.79
416.93	2871.84
417.12	2885.88
417.31	2902.26
417.50	2860.13
417.69	2984.18
417.88	3014.61
418.07	2920.99
418.26	2965.46
418.45	3052.06
418.64	3047.38
418.83	2995.89
419.02	3108.23
419.21	2995.89
419.39	3047.38
419.58	3124.62
419.77	3119.93
419.96	3117.59
420.15	3183.13
420.34	3194.83
420.53	3199.51
420.72	3239.30
420.91	3300.16
421.10	3323.56
421.29	3272.07
421.48	3358.67
421.67	3262.71
421.86	3356.33
422.05	3375.05
422.24	3293.13
422.43	3300.16
422.61	3513.14
422.80	3386.76
422.99	3361.01
423.18	3513.14
423.37	3435.91
423.56	3379.73
423.75	3368.03
423.94	3321.22
424.13	3302.50
424.32	3293.13
424.50	3304.84
424.69	3576.34
424.88	3492.08
425.07	3478.04
425.26	3459.31
425.45	3426.54
425.64	3485.06
425.83	3389.10
426.01	3398.46
426.20	3478.04
426.39	3585.70
426.58	3461.65
426.77	3517.83
426.96	3566.98
427.15	3510.80
427.33	3492.08
427.52	3426.54
427.71	3669.96
427.90	3538.89
428.09	3597.40
428.28	3721.45
428.46	3794.01
428.65	3761.24
428.84	3843.16
429.03	3873.59
429.22	3838.48
429.40	3784.65
429.59	3859.54
429.78	3611.45
429.97	3606.77
430.16	3908.69
430.34	3859.54
430.53	3880.61
430.72	3880.61
430.91	3925.08
431.10	3861.88
431.28	4065.51
431.47	4004.66
431.66	3906.35
431.85	3887.63
432.03	4112.32
432.22	4168.49
432.41	4025.72
432.60	4219.99
432.79	4060.83
432.97	4180.20
433.16	4280.84
433.35	4173.18
433.54	4142.75
433.72	4245.73
433.91	4124.02
434.10	4159.13
434.28	4152.11
434.47	4198.92
434.66	4348.72
434.85	4355.74
435.03	4447.02
435.22	4248.07
435.41	4423.61
435.59	4449.36
435.78	4379.14
435.97	4395.53
436.16	4538.30
436.34	4463.40
436.53	4503.19
436.72	4566.39
436.90	4507.87
437.09	4486.81
437.28	4636.60
437.46	4566.39
437.65	4568.73
437.84	4643.62
438.02	4542.98
438.21	4606.17
438.40	4425.95
438.58	4865.97
438.77	4915.12
438.96	4737.24
439.14	4910.44
439.33	5008.75
439.52	4887.04
439.70	5015.77
439.89	5008.75
440.08	4997.04
440.26	5121.09
440.45	5135.14
440.63	5025.13
440.82	5163.22
441.01	5118.75
441.19	5149.18
441.38	5240.46
441.57	5397.28
441.75	5488.56
441.94	5439.40
442.12	5383.23
442.31	5366.85
442.50	5486.22
442.68	5284.93
442.87	5416.00
443.05	5437.06
443.24	5729.63
443.43	5593.88
443.61	5631.33
443.80	5804.53
443.98	5617.29
444.17	5221.74
444.35	5692.18
444.54	5870.06
444.73	5722.61
444.91	5626.65
445.10	5727.29
445.28	5657.07
445.47	5582.18
445.65	5802.19
445.84	5638.35
446.02	5771.76
446.21	5968.37
446.39	5872.40
446.58	5678.14
446.77	5867.72
446.95	5551.75
447.14	5767.08
447.32	5858.36
447.51	5727.29
447.69	5713.25
447.88	5825.59
448.06	5902.83
448.25	5930.92
448.43	6010.50
448.62	5734.31
448.80	5731.97
448.99	5809.21
449.17	5804.53
449.36	5921.56
449.54	6225.82
449.73	6125.18
449.91	6118.16
450.10	6038.58
450.28	6284.34
450.46	6129.86
450.65	6169.65
450.83	6033.90
451.02	6345.19
451.20	6333.49
451.39	6069.01
451.57	6150.93
451.76	6064.33
451.94	6317.11
452.13	6443.49
452.31	6509.03
452.49	6221.14
452.68	6363.92
452.86	6319.45
453.05	6300.72
453.23	6328.81
453.42	6342.85
453.60	6342.85
453.78	6399.02
453.97	6384.98
454.15	6506.69
454.34	6462.22
454.52	6551.16
454.70	6619.04
454.89	6406.05
455.07	6689.25
455.26	6677.55
455.44	6637.76
455.62	6843.73
455.81	6715.00
455.99	6637.76
456.17	6939.69
456.36	7030.97
456.54	6988.84
456.73	6876.49
456.91	7204.17
457.09	7096.50
457.28	7075.44
457.46	6942.03
457.64	7073.10
457.83	7258.00
458.01	7148.00
458.19	7286.09
458.38	7166.72
458.56	7302.47
458.74	7323.54
458.93	7311.83
459.11	7157.36
459.29	7375.03
459.48	7440.56
459.66	7250.98
459.84	7353.96
460.03	7527.16
460.21	7356.30
460.39	7393.75
460.57	7384.39
460.76	7555.25
460.94	7683.98
461.12	7573.97
461.31	7555.25
461.49	7428.86
461.67	7658.23
461.85	7461.63
462.04	7641.85
462.22	8060.80
462.40	7775.26
462.59	7836.11
462.77	7833.77
462.95	7737.81
463.13	7803.35
463.32	7901.65
463.50	7658.23
463.68	8016.33
463.86	8051.44
464.05	7943.78
464.23	7953.14
464.41	8084.21
464.59	7786.96
464.78	8215.28
464.96	8116.98
465.14	7906.33
465.32	8088.89
465.50	8119.32
465.69	8088.89
465.87	8266.77
466.05	8210.60
466.23	8243.37
466.41	8224.64
466.60	8430.61
466.78	8222.30
466.96	8353.37
467.14	8191.88
467.32	8243.37
467.51	8416.57
467.69	8257.41
467.87	8456.36
468.05	8578.06
468.23	8292.52
468.41	8395.50
468.60	8561.68
468.78	8400.18
468.96	8498.49
469.14	8542.96
469.32	8781.69
469.50	8414.23
469.69	8741.90
469.87	8788.71
470.05	8872.97
470.23	8840.20
470.41	8910.42
470.59	9020.42
470.77	8945.53
470.95	9139.79
471.14	9092.98
471.32	8912.76
471.50	9008.72
471.68	9198.31
471.86	9184.26
472.04	9249.80
472.22	9394.91
472.40	9060.21
472.58	9291.93
472.77	9167.88
472.95	9551.73
473.13	9820.89
473.31	9460.45
473.49	9488.53
473.67	9315.33
473.85	9530.66
474.03	9795.14
474.21	9769.40
474.39	9949.62
474.57	9577.47
474.75	9937.91
474.93	9958.98
475.12	9954.30
475.30	10024.51
475.48	10146.22
475.66	10239.84
475.84	10017.49
476.02	10380.28
476.20	10258.57
476.38	10366.23
476.56	10846.04
476.74	10530.07
476.92	10724.33
477.10	10644.76
477.28	10771.15
477.46	10843.70
477.64	10974.77
477.82	11012.22
478.00	11267.34
478.18	11300.11
478.36	11234.57
478.54	11440.54
478.72	11463.94
478.90	11726.08
479.08	11595.01
479.26	12056.10
479.44	11733.11
479.62	12051.42
479.80	11932.05
479.98	12084.19
480.16	12208.23
480.34	12203.55
480.52	12397.82
480.70	12301.86
480.88	12245.68
481.06	12472.71
481.24	12472.71
481.41	12856.56
481.59	12882.31
481.77	12762.94
481.95	12912.74
482.13	13413.61
482.31	12945.50
482.49	13472.12
482.67	13383.18
482.85	13607.87
483.03	13685.11
483.21	13570.43
483.39	14125.13
483.57	13949.59
483.74	14005.77
483.92	14017.47
484.10	14092.37
484.28	14303.01
484.46	14876.44
484.64	15169.01
484.82	14429.40
485.00	14782.82
485.18	14857.72
485.35	14979.43
485.53	15222.84
485.71	15346.89
485.89	15573.92
486.07	15339.87
486.25	15536.48
486.43	15576.27
486.61	15988.20
486.78	15941.39
486.96	15917.98
487.14	16269.06
487.32	16023.31
487.50	16353.32
487.68	16182.46
487.85	16800.37
488.03	16943.14
488.21	17174.85
488.39	17291.88
488.57	17055.48
488.75	17277.83
488.92	17408.90
489.10	17715.51
489.28	17923.82
489.46	18050.21
489.64	17982.34
489.81	18359.16
489.99	18164.90
490.17	18239.79
490.35	18808.54
490.53	18558.11
490.70	18771.10
490.88	18803.86
491.06	19042.60
491.24	19019.19
491.41	19082.39
491.59	19232.18
491.77	19288.35
491.95	19749.44
492.13	19676.88
492.30	19763.48
492.48	19824.34
492.66	20226.91
492.84	20236.27
493.01	20217.55
493.19	20049.03
493.37	20524.16
493.54	20685.65
493.72	21048.44
493.90	20819.07
494.08	20999.29
494.25	21013.33
494.43	21315.26
494.61	21537.61
494.79	21378.45
494.96	21521.23
495.14	21654.64
495.32	22026.78
495.49	21881.67
495.67	21795.07
495.85	22038.48
496.02	22574.47
496.20	22569.79
496.38	22565.10
496.55	22586.17
496.73	22960.66
496.91	22913.84
497.09	22792.14
497.26	23087.04
497.44	23150.24
497.62	23311.74
497.79	23887.51
497.97	23667.50
498.14	23728.35
498.32	23946.02
498.50	23924.96
498.67	24238.59
498.85	24041.98
499.03	24542.86
499.20	24226.89
499.38	24294.76
499.56	24512.43
499.73	24877.55
499.91	24601.37
500.08	25053.09
500.26	25067.14
500.44	24943.09
500.61	24992.24
500.79	25277.79
500.97	25539.93
501.14	25626.53
501.32	25729.51
501.49	25443.96
501.67	25497.80
501.84	25940.16
502.02	25898.03
502.20	25710.78
502.37	26017.40
502.55	26017.40
502.72	25965.90
502.90	26270.17
503.07	26333.37
503.25	26419.97
503.43	26206.98
503.60	26457.42
503.78	26876.37
503.95	26340.39
504.13	27271.92
504.30	26775.73
504.48	26946.59
504.65	26932.54
504.83	27246.18
505.01	27229.79
505.18	27206.39
505.36	27332.78
505.53	27342.14
505.71	27824.29
505.88	27763.43
506.06	27433.42
506.23	27807.90
506.41	27566.83
506.58	27931.95
506.76	27990.47
506.93	28451.55
507.11	28119.20
507.28	28254.95
507.46	28357.93
507.63	28430.49
507.81	28676.24
507.98	28496.02
508.16	28517.09
508.33	28716.03
508.50	29024.98
508.68	29387.77
508.85	29053.07
509.03	28877.53
509.20	29174.78
509.38	29481.39
509.55	29621.82
509.73	29567.99
509.90	29792.68
510.08	29406.49
510.25	29914.39
510.42	30000.99
510.60	29905.02
510.77	29930.77
510.95	30338.02
511.12	30029.07
511.30	30155.46
511.47	30258.45
511.64	30256.11
511.82	30808.47
511.99	30642.29
512.17	30775.70
512.34	31119.76
512.51	31089.34
512.69	30724.21
512.86	30906.77
513.04	31576.17
513.21	31484.89
513.38	31484.89
513.56	31042.53
513.73	31498.93
513.90	31173.60
514.08	31409.99
514.25	31756.39
514.43	32137.90
514.60	31630.00
514.77	32027.89
514.95	32271.31
515.12	32105.13
515.29	32215.13
515.47	32301.73
515.64	32313.44
515.81	32505.36
515.99	32299.39
516.16	32458.55
516.33	32498.34
516.51	32519.40
516.68	32622.39
516.85	32725.37
517.03	32910.27
517.20	32297.05
517.37	32818.99
517.54	32964.10
517.72	33284.76
517.89	33324.55
518.06	33149.01
518.24	33214.54
518.41	33343.27
518.58	33149.01
518.75	33263.69
518.93	33544.56
519.10	33483.70
519.27	33764.57
519.45	33951.81
519.62	33919.04
519.79	34031.39
519.96	34033.73
520.14	33820.74
520.31	34036.07
520.48	33958.83
520.65	34314.59
520.83	34609.50
521.00	34771.00
521.17	34363.75
521.34	34878.66
521.52	34871.64
521.69	34927.81
521.86	35131.44
522.03	34747.59
522.20	35363.15
522.38	35756.36
522.55	35124.42
522.72	35072.93
522.89	35484.86
523.07	35597.21
523.24	35723.60
523.41	35519.97
523.58	35218.04
523.75	35714.23
523.92	35683.81
524.10	35803.17
524.27	35831.26
524.44	36116.81
524.61	36048.93
524.78	36224.47
524.96	36828.33
525.13	36292.35
525.30	36624.70
525.47	36725.35
525.64	36444.48
525.81	36397.67
525.98	36744.07
526.16	36811.95
526.33	36746.41
526.50	37097.49
526.67	36563.85
526.84	36486.61
527.01	36727.69
527.18	37048.34
527.36	36804.92
527.53	37188.77
527.70	37514.11
527.87	37249.63
528.04	37853.48
528.21	37626.45
528.38	37354.95
528.55	37448.57
528.72	37060.04
528.89	37694.33
529.07	37167.71
529.24	37303.46
529.41	37811.35
529.58	37912.00
529.75	37539.85
529.92	37888.59
530.09	37972.85
530.26	37605.39
530.43	38445.64
530.60	37907.32
530.77	38059.45
530.94	38216.27
531.11	38029.02
531.28	38515.86
531.46	38543.94
531.63	38644.59
531.80	38628.20
531.97	38508.83
532.14	38373.08
532.31	38525.22
532.48	39129.08
532.65	38974.60
532.82	38646.93
532.99	38534.58
533.16	38895.02
533.33	39100.99
533.50	39276.53
533.67	39358.45
533.84	38873.96
534.01	39236.74
534.18	39199.29
534.35	39391.22
534.52	39318.66
534.69	39433.35
534.86	39625.27
535.03	39313.98
535.20	39496.54
535.37	39948.26
535.54	40030.18
535.71	39683.78
535.88	39873.37
536.05	39779.74
536.22	40126.14
536.38	39749.32
536.55	39978.69
536.72	39828.90
536.89	40238.49
537.06	40245.51
537.23	40444.46
537.40	40023.16
537.57	39768.04
537.74	40451.48
537.91	40563.82
538.08	40416.37
538.25	40423.39
538.42	40222.11
538.59	40896.18
538.75	40591.91
538.92	40390.62
539.09	40863.41
539.26	40744.05
539.43	40882.14
539.60	41095.13
539.77	41041.29
539.94	41289.39
540.11	41146.62
540.28	40973.42
540.44	40678.51
540.61	41060.02
540.78	41422.80
540.95	41249.60
541.12	41083.42
541.29	40629.36
541.46	41317.48
541.62	41399.40
541.79	41724.73
541.96	40917.25
542.13	41240.24
542.30	41464.93
542.47	41385.35
542.63	41635.79
542.80	42171.77
542.97	42316.89
543.14	42054.75
543.31	42389.44
543.48	42120.28
543.64	42202.20
543.81	42642.22
543.98	42211.56
544.15	42204.54
544.32	42586.05
544.48	42862.23
544.65	42513.49
544.82	42871.59
544.99	42574.34
545.16	42340.29
545.32	42389.44
545.49	42759.25
545.66	43562.05
545.83	42890.32
546.00	43449.70
546.16	42993.30
546.33	42717.12
546.50	42674.99
546.67	43229.69
546.83	43030.75
547.00	42880.95
547.17	42988.62
547.34	42862.23
547.50	43313.95
547.67	43894.41
547.84	43243.74
548.00	43267.14
548.17	43175.86
548.34	43662.69
548.51	43814.83
548.67	43522.26
548.84	43627.59
549.01	43665.03
549.18	43936.54
549.34	43328.00
549.51	43892.07
549.68	43592.48
549.84	44051.22
550.01	44107.40
550.18	43903.77
550.34	43798.44
550.51	43988.03
550.68	43936.54
550.84	43849.94
551.01	44081.65
551.18	44215.06
551.34	44011.43
551.51	44289.96
551.68	44531.03
551.84	44275.91
552.01	44037.18
552.18	44114.42
552.34	43922.49
552.51	44619.97
552.68	43981.01
552.84	44376.56
553.01	44765.09
553.18	44486.56
553.34	45027.23
553.51	44439.75
553.67	44634.02
553.84	44830.62
554.01	44751.04
554.17	44624.65
554.34	44907.86
554.51	44788.49
554.67	45340.86
554.84	44816.58
555.00	44975.73
555.17	45207.45
555.33	45137.23
555.50	44800.19
555.67	44947.65
555.83	45214.47
556.00	45195.74
556.16	45682.58
556.33	45265.96
556.50	45013.18
556.66	45453.20
556.83	44753.38
556.99	45338.52
557.16	45455.54
557.32	45633.42
557.49	45406.39
557.65	45329.16
557.82	45457.88
557.98	45687.26
558.15	45741.09
558.32	45624.06
558.48	45710.66
558.65	45521.08
558.81	45563.21
558.98	45462.57
559.14	45385.33
559.31	45661.51
559.47	45181.70
559.64	45921.31
559.80	45921.31
559.97	45790.24
560.13	45993.87
560.30	45284.68
560.46	45577.25
560.63	46127.28
560.79	46267.71
560.96	46110.89
561.12	45916.63
561.29	46234.94
561.45	46028.98
561.61	45785.56
561.78	46087.49
561.94	45925.99
562.11	45750.45
562.27	46087.49
562.44	46195.15
562.60	46218.56
562.77	46024.29
562.93	46096.85
563.10	46799.01
563.26	46171.75
563.42	46593.04
563.59	46298.14
563.75	46005.57
563.92	46293.46
564.08	46321.54
564.24	46340.27
564.41	46241.96
564.57	46340.27
564.74	46335.59
564.90	46356.65
565.07	46691.35
565.23	46199.83
565.39	46677.30
565.56	46380.06
565.72	46557.94
565.88	46550.91
566.05	46941.78
566.21	46515.81
566.38	46422.19
566.54	46417.50
566.70	46344.95
566.87	46436.23
567.03	46256.01
567.19	46674.96
567.36	46504.10
567.52	46803.69
567.68	46876.25
567.85	46609.43
568.01	47110.30
568.17	46457.29
568.34	46801.35
568.50	47075.19
568.66	46866.89
568.83	47194.56
568.99	46780.29
569.15	46717.09
569.32	46897.31
569.48	46665.60
569.64	47201.58
569.81	46958.17
569.97	47014.34
570.13	46894.97
570.30	46651.56
570.46	46546.23
570.62	46930.08
570.78	47143.07
570.95	46904.34
571.11	46871.57
571.27	46801.35
571.43	46883.27
571.60	46932.42
571.76	46529.85
571.92	47105.62
572.09	46897.31
572.25	46721.77
572.41	46892.63
572.57	47285.84
572.74	47672.03
572.90	47072.85
573.06	47271.80
573.22	47243.71
573.38	47505.85
573.55	47428.62
573.71	47477.77
573.87	47049.45
574.03	47533.94
574.20	47349.04
574.36	47435.64
574.52	47749.27
574.68	47555.00
574.84	47648.63
575.01	47849.91
575.17	47114.98
575.33	47255.42
575.49	47257.76
575.65	47517.56
575.82	47721.18
575.98	47271.80
576.14	47793.74
576.30	47482.45
576.46	47529.26
576.62	47517.56
576.79	47760.97
576.95	46866.89
577.11	47405.21
577.27	47456.70
577.43	47234.35
577.59	47248.39
577.75	47346.70
577.92	47239.03
578.08	47337.33
578.24	47323.29
578.40	47496.49
578.56	47318.61
578.72	47414.57
578.88	47395.85
579.04	47683.73
579.21	47428.62
579.37	47461.38
579.53	47709.48
579.69	47697.78
579.85	47512.88
580.01	47709.48
580.17	47470.75
580.33	47601.82
580.49	47400.53
580.65	47632.24
580.82	47409.89
580.98	47217.97
581.14	47058.81
581.30	47725.86
581.46	47367.76
581.62	47571.39
581.78	47524.58
581.94	47468.40
582.10	47686.07
582.26	47716.50
582.42	47625.22
582.58	47559.69
582.74	47796.08
582.90	47636.92
583.06	48025.45
583.22	47686.07
583.38	48011.41
583.54	47550.32
583.70	47641.60
583.86	47625.22
584.02	47454.36
584.18	47903.74
584.34	47915.45
584.50	47650.97
584.66	47721.18
584.82	47964.60
584.98	47997.37
585.14	47660.33
585.30	47494.15
585.46	47423.93
585.62	47351.38
585.78	47945.87
585.94	47416.91
586.10	47760.97
586.26	47646.29
586.42	47695.44
586.58	47730.54
586.74	47662.67
586.90	47643.94
587.06	47505.85
587.22	47838.21
587.38	47594.79
587.54	47873.32
587.70	48226.74
587.86	48123.75
588.02	47674.37
588.18	47840.55
588.34	47793.74
588.49	47835.87
588.65	47728.20
588.81	48067.58
588.97	47908.43
589.13	47957.58
589.29	48006.73
589.45	47927.15
589.61	47681.39
589.77	47927.15
589.93	47950.56
590.08	48053.54
590.24	48175.25
590.40	48718.25
590.56	48348.45
590.72	48224.40
590.88	48055.88
591.04	47779.70
591.20	48413.98
591.35	48444.41
591.51	48339.08
591.67	48020.77
591.83	48624.63
591.99	48081.63
592.15	48154.18
592.31	48144.82
592.46	48238.44
592.62	48247.80
592.78	48172.91
592.94	48603.56
593.10	48858.68
593.26	48423.34
593.41	48655.06
593.57	48121.41
593.73	48423.34
593.89	48638.67
594.05	48479.52
594.20	48343.77
594.36	49111.46
594.52	48767.40
594.68	48456.11
594.84	48257.17
594.99	48540.37
595.15	48458.45
595.31	48428.02
595.47	48587.18
595.62	48353.13
595.78	48238.44
595.94	48619.95
596.10	48275.89
596.25	48596.54
596.41	48722.93
596.57	48102.69
596.73	49015.50
596.88	48257.17
597.04	48430.36
597.20	48758.04
597.36	48432.71
597.51	48577.82
597.67	48217.38
597.83	48374.19
597.99	48451.43
598.14	48547.39
598.30	48430.36
598.46	48383.55
598.61	49113.80
598.77	48751.02
598.93	48547.39
599.09	48479.52
599.24	49001.46
599.40	48736.98
599.56	48690.16
599.71	48767.40
599.87	49160.61
600.03	48531.01
600.18	48453.77
600.34	48846.98
600.50	48568.46
600.65	48793.15
600.81	48954.64
600.97	49017.84
601.12	48516.96
601.28	48516.96
601.44	48163.54
601.59	48725.27
601.75	48523.99
601.91	48891.45
602.06	48673.78
602.22	49027.20
602.37	48287.59
602.53	48575.48
602.69	48865.70
602.84	48697.19
603.00	48619.95
603.16	48732.29
603.31	48776.76
603.47	48861.02
603.62	48601.22
603.78	48409.30
603.94	48802.51
604.09	48533.35
604.25	48430.36
604.40	48369.51
604.56	48879.75
604.71	49013.16
604.87	48528.67
605.03	48341.42
605.18	48523.99
605.34	48519.31
605.49	48147.16
605.65	48736.98
605.80	48367.17
605.96	48374.19
606.12	48591.86
606.27	48842.30
606.43	48432.71
606.58	48765.06
606.74	48315.68
606.89	48470.15
607.05	48446.75
607.20	48626.97
607.36	48449.09
607.51	48725.27
607.67	48341.42
607.82	48271.21
607.98	48348.45
608.13	48172.91
608.29	48449.09
608.44	48671.44
608.60	48065.24
608.75	48341.42
608.91	48421.00
609.06	47903.74
609.22	48807.19
609.37	48154.18
609.53	48479.52
609.68	48666.76
609.84	48727.61
609.99	48332.06
610.15	48523.99
610.30	48273.55
610.46	48004.39
610.61	48563.78
610.76	48205.67
610.92	48102.69
611.07	48343.77
611.23	48383.55
611.38	48006.73
611.54	48542.71
611.69	48193.97
611.84	48655.06
612.00	48282.91
612.15	48051.20
612.31	48409.30
612.46	47749.27
612.62	48044.18
612.77	47955.24
612.92	48271.21
613.08	48231.42
613.23	48638.67
613.39	48135.46
613.54	47910.77
613.69	47999.71
613.85	48240.78
614.00	48037.16
614.15	48238.44
614.31	48098.01
614.46	47863.96
614.62	47913.11
614.77	47878.00
614.92	47770.33
615.08	47976.30
615.23	48589.52
615.38	47985.66
615.54	48156.52
615.69	48112.05
615.84	47791.40
616.00	48105.03
616.15	47667.35
616.30	47786.72
616.46	47985.66
616.61	47648.63
616.76	47824.17
616.92	48020.77
617.07	48002.05
617.22	48060.56
617.37	47508.19
617.53	47384.15
617.68	47707.14
617.83	47716.50
617.99	48163.54
618.14	47611.18
618.29	47196.90
618.45	47728.20
618.60	47421.59
618.75	47363.08
618.90	47295.21
619.06	47515.22
619.21	47540.96
619.36	47419.25
619.51	47330.31
619.67	47063.49
619.82	47065.83
619.97	47241.37
620.12	47632.24
620.28	46894.97
620.43	47669.69
620.58	47562.03
620.73	47423.93
620.89	47452.02
621.04	47732.89
621.19	47283.50
621.34	47150.09
621.49	47150.09
621.65	47327.97
621.80	47267.12
621.95	47475.43
622.10	47309.25
622.25	47344.36
622.41	46843.48
622.56	46679.64
622.71	47023.70
622.86	47290.52
623.01	47129.03
623.16	47299.89
623.32	47004.98
623.47	46796.67
623.62	46674.96
623.77	46857.52
623.92	47114.98
624.07	46789.65
624.23	46897.31
624.38	46768.58
624.53	46719.43
624.68	46644.54
624.83	46382.40
624.98	46546.23
625.13	46431.55
625.29	46761.56
625.44	46447.93
625.59	46660.92
625.74	46604.75
625.89	46281.75
626.04	46473.68
626.19	46232.60
626.34	46316.86
626.49	45790.24
626.65	46103.87
626.80	46604.75
626.95	46052.38
627.10	45748.11
627.25	46733.48
627.40	46450.27
627.55	46220.90
627.70	46124.94
627.85	46155.36
628.00	46501.76
628.15	46138.98
628.30	45865.14
628.45	46096.85
628.60	45490.65
628.76	45872.16
628.91	45895.56
629.06	45485.97
629.21	45797.26
629.36	45783.22
629.51	46024.29
629.66	45794.92
629.81	45626.40
629.96	46188.13
630.11	46057.06
630.26	45563.21
630.41	46054.72
630.56	45874.50
630.71	45911.95
630.86	45401.71
631.01	45666.19
631.16	45336.18
631.31	45846.41
631.46	45799.60
631.61	45680.24
631.76	45308.09
631.91	45603.00
632.06	46026.63
632.21	45598.32
632.36	45970.46
632.51	45361.92
632.66	45509.38
632.81	45249.58
632.96	45572.57
633.10	45261.28
633.25	45649.81
633.40	45294.05
633.55	45951.74
633.70	45539.80
633.85	44847.00
634.00	45181.70
634.15	45305.75
634.30	45062.33
634.45	45221.49
634.60	44900.84
634.75	45628.74
634.90	44868.07
635.05	45518.74
635.19	45130.21
635.34	45233.19
635.49	44793.17
635.64	45226.17
635.79	45120.85
635.94	45172.34
636.09	45439.16
636.24	45263.62
636.39	45055.31
636.53	44828.28
636.68	44973.39
636.83	44685.51
636.98	44641.04
637.13	44495.92
637.28	44999.14
637.43	44282.94
637.57	44891.48
637.72	44512.31
637.87	44451.45
638.02	44858.71
638.17	44355.49
638.32	44133.14
638.46	44882.11
638.61	44594.23
638.76	44327.41
638.91	44259.53
639.06	44491.24
639.20	44093.35
639.35	44617.63
639.50	44238.47
639.65	44271.23
639.80	44177.61
639.94	44292.30
640.09	43824.19
640.24	44664.44
640.39	44212.72
640.54	43812.49
640.68	43885.04
640.83	44034.84
640.98	44151.87
641.13	43969.30
641.27	44835.30
641.42	43826.53
641.57	44233.78
641.72	44044.20
641.86	43531.62
642.01	43463.75
642.16	43845.26
642.31	43323.32
642.45	44002.07
642.60	43667.37
642.75	43697.80
642.90	43405.23
643.04	43690.78
643.19	44018.46
643.34	43620.56
643.48	43189.91
643.63	43803.13
643.78	43384.17
643.93	43976.33
644.07	43306.93
644.22	43655.67
644.37	43330.34
644.51	43873.34
644.66	43475.45
644.81	43426.30
644.95	43796.10
645.10	43531.62
645.25	43533.96
645.39	43129.05
645.54	43475.45
645.69	42937.13
645.83	42986.28
645.98	42993.30
646.13	42937.13
646.27	43515.24
646.42	43124.37
646.57	43051.81
646.71	43215.65
646.86	43398.21
647.00	42646.90
647.15	43255.44
647.30	43124.37
647.44	43140.75
647.59	42960.53
647.74	42902.02
647.88	43358.42
648.03	43566.73
648.17	43269.48
648.32	42878.61
648.47	43292.89
648.61	42637.54
648.76	42883.30
648.90	42738.18
649.05	43012.02
649.20	42780.31
649.34	42506.47
649.49	42710.10
649.63	42775.63
649.78	43044.79
649.92	43007.34
650.07	43438.00
650.21	42569.66
650.36	43154.80
650.51	42499.45
650.65	42761.59
650.80	42962.87
650.94	42614.13
651.09	42260.71
651.23	42543.92
651.38	41818.35
651.52	42195.18
651.67	42429.23
651.81	42600.09
651.96	42373.06
652.10	41715.37
652.25	41867.50
652.39	41811.33
652.54	42436.25
652.68	42206.88
652.83	42021.98
652.97	42438.59
653.12	42251.35
653.26	42043.04
653.41	42005.59
653.55	41890.91
653.70	42426.89
653.84	42211.56
653.99	42305.18
654.13	42103.90
654.27	41837.08
654.42	42026.66
654.56	41656.85
654.71	42143.69
654.85	42061.77
655.00	41940.06
655.14	41844.10
655.29	42050.06
655.43	42389.44
655.57	41390.03
655.72	41640.47
655.86	41443.87
656.01	41574.94
656.15	41471.95
656.30	41326.84
656.44	41537.49
656.58	41565.57
656.73	41486.00
656.87	40840.01
657.01	40779.15
657.16	41357.27
657.30	41596.00
657.45	41584.30
657.59	40996.82
657.73	41158.32
657.88	41261.30
658.02	41415.78
658.16	41305.77
658.31	41116.19
658.45	41223.86
658.60	41347.90
658.74	40652.76
658.88	41015.55
659.03	40950.01
659.17	40992.14
659.31	40886.82
659.46	40968.74
659.60	41081.08
659.74	40591.91
659.89	40282.96
660.03	40474.88
660.17	40369.56
660.32	40175.30
660.46	40491.27
660.60	40294.66
660.74	40407.01
660.89	40612.98
661.03	40184.66
661.17	39725.91
661.32	40301.68
661.46	40062.95
661.60	40072.31
661.74	40194.02
661.89	39959.97
662.03	39660.38
662.17	39634.63
662.31	39508.24
662.46	40037.20
662.60	39548.03
662.74	39388.88
662.88	39934.22
663.03	39358.45
663.17	39285.89
663.31	38972.26
663.45	39309.30
663.60	39473.13
663.74	39346.75
663.88	39330.36
664.02	39246.10
664.17	39805.49
664.31	39519.95
664.45	39236.74
664.59	39096.31
664.73	38857.57
664.88	38998.01
665.02	38401.17
665.16	38649.27
665.30	39257.81
665.44	39065.88
665.59	38471.39
665.73	38356.70
665.87	38024.34
666.01	38124.99
666.15	38192.86
666.29	38274.78
666.44	38590.75
666.58	38227.97
666.72	38031.36
666.86	38347.34
667.00	37570.28
667.14	38007.96
667.28	37965.83
667.43	37713.05
667.57	38277.12
667.71	38026.68
667.85	38143.71
667.99	38061.79
668.13	37577.30
668.27	36928.97
668.41	37586.66
668.56	37240.26
668.70	37237.92
668.84	37095.15
668.98	36964.08
669.12	37141.96
669.26	37078.77
669.40	37266.01
669.54	36854.08
669.68	37134.94
669.82	36940.68
669.96	36802.58
670.10	36591.94
670.25	36538.10
670.39	36243.20
670.53	36723.01
670.67	36208.09
670.81	36900.89
670.95	36451.50
671.09	36301.71
671.23	35983.40
671.37	36741.73
671.51	36491.29
671.65	35798.49
671.79	35868.71
671.93	35756.36
672.07	35835.94
672.21	36091.06
672.35	35477.84
672.49	35796.15
672.63	35604.23
672.77	35615.93
672.91	35742.32
673.05	35412.31
673.19	35201.66
673.33	34991.01
673.47	35061.22
673.61	35084.63
673.75	34789.72
673.89	34843.56
674.03	34693.76
674.17	34731.21
674.31	34792.06
674.45	34361.40
674.59	34181.18
674.73	34298.21
674.87	34373.11
675.01	33867.55
675.15	34038.41
675.29	33766.91
675.43	33757.55
675.56	33738.82
675.70	33525.83
675.84	33675.63
675.98	32591.96
676.12	33666.27
676.26	33457.96
676.40	33324.55
676.54	33003.89
676.68	32701.96
676.82	32624.73
676.96	32650.47
677.10	32919.63
677.23	33099.86
677.37	32821.33
677.51	32835.38
677.65	32610.68
677.79	32343.86
677.93	32531.11
678.07	32133.21
678.21	31941.29
678.34	31763.41
678.48	31534.04
678.62	31833.63
678.76	31524.68
678.90	31599.57
679.04	31367.86
679.18	31555.10
679.31	31152.53
679.45	31531.70
679.59	31168.91
679.73	30543.99
679.87	31063.59
680.00	30625.91
680.14	30525.27
680.28	30492.50
680.42	30951.24
680.56	30663.36
680.70	30518.25
680.83	30462.07
680.97	29930.77
681.11	30204.61
681.25	30073.54
681.39	29881.62
681.52	29741.19
681.66	29303.51
681.80	29123.29
681.94	28861.15
682.07	29050.73
682.21	29228.61
682.35	28900.94
682.49	28945.41
682.62	29352.66
682.76	29134.99
682.90	28774.55
683.04	28402.40
683.17	28669.22
683.31	28507.72
683.45	28327.50
683.59	28034.94
683.72	27992.81
683.86	27969.40
684.00	28079.41
684.13	27814.93
684.27	28058.34
684.41	27601.94
684.55	27889.82
684.68	27592.58
684.82	27220.43
684.96	27431.08
685.09	27323.41
685.23	27080.00
685.37	27618.32
685.50	27393.63
685.64	26834.24
685.78	26625.93
685.91	26529.97
686.05	26092.29
686.19	25928.45
686.32	26167.19
686.46	26057.18
686.60	25830.15
686.73	26160.17
686.87	26010.37
687.01	25891.01
687.14	26010.37
687.28	25486.09
687.42	25694.40
687.55	25507.16
687.69	25317.57
687.82	25273.10
687.96	25177.14
688.10	25158.42
688.23	24739.46
688.37	25106.93
688.50	25158.42
688.64	25055.43
688.78	24746.48
688.91	24442.21
689.05	24467.96
689.18	23922.62
689.32	23843.04
689.46	24173.05
689.59	23903.89
689.73	24327.53
689.86	24201.14
690.00	24053.69
690.13	23864.10
690.27	23847.72
690.41	24051.34
690.54	23278.97
690.68	23410.04
690.81	22995.76
690.95	23180.67
691.08	22937.25
691.22	22911.50
691.35	22726.60
691.49	22850.65
691.62	22897.46
691.76	22333.39
691.89	22354.46
692.03	22108.70
692.16	22235.09
692.30	22111.04
692.43	22141.47
692.57	21949.54
692.70	21635.91
692.84	21781.03
692.97	21516.54
693.11	21331.64
693.24	21198.23
693.38	21149.08
693.51	21589.10
693.65	21109.29
693.78	21167.80
693.92	20961.84
694.05	21172.49
694.19	20999.29
694.32	20629.48
694.45	20950.14
694.59	21118.65
694.72	20699.70
694.86	20479.69
694.99	20196.48
695.13	20456.28
695.26	20297.13
695.39	19901.58
695.53	19728.38
695.66	19913.28
695.80	19693.27
695.93	19878.17
696.07	19241.54
696.20	19098.77
696.33	19421.77
696.47	19403.04
696.60	19253.25
696.73	19171.33
696.87	19047.28
697.00	19215.80
697.14	19080.05
697.27	18663.43
697.40	18537.04
697.54	18658.75
697.67	18789.82
697.80	18724.29
697.94	18586.19
698.07	18265.54
698.21	18394.27
698.34	18452.78
698.47	18125.11
698.61	17755.30
698.74	17738.92
698.87	17596.15
699.01	17947.23
699.14	17671.04
699.27	17607.85
699.40	17575.08
699.54	17303.58
699.67	17591.47
699.80	17521.25
699.94	17238.05
700.07	17329.33
700.20	16985.27
700.34	17090.59
700.47	16922.07
700.60	16891.65
700.73	17050.80
700.87	16585.04
701.00	16535.88
701.13	16280.77
701.26	16304.17
701.40	16306.51
701.53	16084.16
701.66	16105.23
701.79	15789.25
701.93	15772.87
702.06	15798.62
702.19	15730.74
702.32	15730.74
702.46	15414.77
702.59	15665.21
702.72	15843.09
702.85	15913.30
702.99	15920.32
703.12	15353.91
703.25	15356.25
703.38	15389.02
703.51	14941.98
703.65	14831.97
703.78	14883.47
703.91	14459.83
704.04	14600.26
704.17	14686.86
704.31	14504.30
704.44	14523.02
704.57	14375.57
704.70	14356.85
704.83	14277.27
704.96	14310.04
705.10	14132.15
705.23	14115.77
>>>>>End Processed Spectral Data<<<<<
