SpectraSuite Data File
++++++++++++++++++++++++++++++++++++
Date: Fri Oct 25 10:47:01 EDT 2013
User: price-jones
Dark Spectrum Present: No
Reference Spectrum Present: No
Number of Sampled Component Spectra: 1
Spectrometers: USB2+H05261
Integration Time (usec): 100000 (USB2+H05261)
Spectra Averaged: 1 (USB2+H05261)
Boxcar Smoothing: 0 (USB2+H05261)
Correct for Electrical Dark: No (USB2+H05261)
Strobe/Lamp Enabled: No (USB2+H05261)
Correct for Detector Non-linearity: No (USB2+H05261)
Correct for Stray Light: No (USB2+H05261)
Number of Pixels in Processed Spectrum: 2048
>>>>>Begin Processed Spectral Data<<<<<
365.73	152.13
365.92	152.13
366.12	152.13
366.32	79.58
366.52	60.85
366.72	81.92
366.91	21.06
367.11	0.00
367.31	23.41
367.51	25.75
367.70	58.51
367.90	65.54
368.10	16.38
368.30	25.75
368.49	86.60
368.69	88.94
368.89	51.49
369.09	39.79
369.28	51.49
369.48	105.32
369.68	30.43
369.87	46.81
370.07	25.75
370.27	152.13
370.47	201.29
370.66	344.06
370.86	409.59
371.06	526.62
371.25	468.11
371.45	449.38
371.65	465.77
371.84	507.90
372.04	468.11
372.24	479.81
372.44	535.98
372.63	493.85
372.83	456.40
373.03	435.34
373.22	456.40
373.42	449.38
373.62	540.66
373.81	606.20
374.01	592.16
374.21	547.69
374.40	498.53
374.60	657.69
374.79	547.69
374.99	596.84
375.19	573.43
375.38	645.99
375.58	540.66
375.78	524.28
375.97	580.45
376.17	667.05
376.37	606.20
376.56	557.05
376.76	596.84
376.95	608.54
377.15	631.94
377.35	592.16
377.54	664.71
377.74	641.31
377.93	667.05
378.13	660.03
378.33	662.37
378.52	692.80
378.72	744.29
378.91	655.35
379.11	711.52
379.31	653.01
379.50	599.18
379.70	650.67
379.89	674.07
380.09	683.44
380.28	676.41
380.48	629.60
380.68	737.27
380.87	615.56
381.07	653.01
381.26	732.59
381.46	737.27
381.65	702.16
381.85	711.52
382.04	741.95
382.24	688.12
382.43	664.71
382.63	688.12
382.83	641.31
383.02	751.31
383.22	720.88
383.41	695.14
383.61	704.50
383.80	816.85
384.00	723.23
384.19	688.12
384.39	765.36
384.58	755.99
384.78	858.98
384.97	767.70
385.17	713.86
385.36	746.63
385.56	844.93
385.75	767.70
385.95	812.17
386.14	858.98
386.34	805.14
386.53	809.83
386.72	915.15
386.92	793.44
387.11	894.08
387.31	793.44
387.50	821.53
387.70	896.43
387.89	858.98
388.09	866.00
388.28	758.33
388.48	905.79
388.67	933.87
388.86	901.11
389.06	905.79
389.25	840.25
389.45	936.21
389.64	931.53
389.84	1022.81
390.03	964.30
390.22	994.73
390.42	896.43
390.61	959.62
390.81	976.00
391.00	999.41
391.19	1027.50
391.39	966.64
391.58	1001.75
391.78	943.24
391.97	976.00
392.16	905.79
392.36	1097.71
392.55	1015.79
392.75	999.41
392.94	1064.94
393.13	1008.77
393.33	1001.75
393.52	957.28
393.71	1062.60
393.91	1048.56
394.10	1008.77
394.29	1069.62
394.49	1062.60
394.68	1060.26
394.88	1022.81
395.07	1193.67
395.26	1221.76
395.46	1198.35
395.65	1235.80
395.84	1212.40
396.04	1170.27
396.23	1146.86
396.42	1102.39
396.62	1109.41
396.81	1233.46
397.00	1207.72
397.19	1263.89
397.39	1184.31
397.58	1266.23
397.77	1310.70
397.97	1399.64
398.16	1289.64
398.35	1378.58
398.55	1294.32
398.74	1437.09
398.93	1369.21
399.12	1394.96
399.32	1376.24
399.51	1359.85
399.70	1500.28
399.90	1357.51
400.09	1455.81
400.28	1390.28
400.47	1446.45
400.67	1530.71
400.86	1507.30
401.05	1434.75
401.24	1584.54
401.44	1458.15
401.63	1589.22
401.82	1516.67
402.01	1500.28
402.21	1542.41
402.40	1493.26
402.59	1591.56
402.78	1678.16
402.97	1526.03
403.17	1610.29
403.36	1659.44
403.55	1678.16
403.74	1664.12
403.93	1715.61
404.13	1736.68
404.32	1671.14
404.51	1701.57
404.70	1827.96
404.89	1795.19
405.09	1844.34
405.28	1792.85
405.47	1685.19
405.66	1823.28
405.85	1860.73
406.05	1825.62
406.24	1877.11
406.43	1905.20
406.62	1949.67
406.81	1961.37
407.00	1853.70
407.20	1853.70
407.39	1937.96
407.58	2057.33
407.77	1940.30
407.96	1930.94
408.15	2026.90
408.34	1970.73
408.54	1994.14
408.73	2073.71
408.92	2146.27
409.11	2106.48
409.30	2092.44
409.49	2122.87
409.68	2094.78
409.87	2083.08
410.07	2251.60
410.26	2223.51
410.45	2253.94
410.64	2221.17
410.83	2246.91
411.02	2366.28
411.21	2413.09
411.40	2293.72
411.59	2413.09
411.78	2452.88
411.98	2340.54
412.17	2422.45
412.36	2464.58
412.55	2513.74
412.74	2518.42
412.93	2537.14
413.12	2469.27
413.31	2602.68
413.50	2448.20
413.69	2635.44
413.88	2729.06
414.07	2773.53
414.26	2679.91
414.45	2663.53
414.64	2785.24
414.83	2799.28
415.02	2832.05
415.22	2841.41
415.41	2911.63
415.60	2902.26
415.79	2899.92
415.98	2970.14
416.17	2932.69
416.36	3035.67
416.55	3002.91
416.74	3045.04
416.93	3007.59
417.12	3145.68
417.31	3211.22
417.50	3063.76
417.69	3201.85
417.88	3211.22
418.07	3133.98
418.26	3077.80
418.45	3222.92
418.64	3382.07
418.83	3246.32
419.02	3218.24
419.21	3393.78
419.39	3368.03
419.58	3337.60
419.77	3293.13
419.96	3293.13
420.15	3339.94
420.34	3461.65
420.53	3538.89
420.72	3590.38
420.91	3412.50
421.10	3494.42
421.29	3679.32
421.48	3485.06
421.67	3576.34
421.86	3604.42
422.05	3574.00
422.24	3658.26
422.43	3520.17
422.61	3592.72
422.80	3681.66
422.99	3637.19
423.18	3655.92
423.37	3831.46
423.56	3611.45
423.75	3595.06
423.94	3482.72
424.13	3548.25
424.32	3489.74
424.50	3637.19
424.69	3768.26
424.88	3590.38
425.07	3548.25
425.26	3604.42
425.45	3688.68
425.64	3749.54
425.83	3817.41
426.01	3791.67
426.20	3761.24
426.39	3740.18
426.58	3660.60
426.77	3866.56
426.96	3632.51
427.15	3740.18
427.33	3861.88
427.52	3768.26
427.71	3918.06
427.90	3988.27
428.09	3920.40
428.28	3918.06
428.46	3960.19
428.65	3978.91
428.84	3953.16
429.03	4018.70
429.22	3756.56
429.40	3927.42
429.59	3946.14
429.78	3810.39
429.97	3691.02
430.16	3789.33
430.34	3918.06
430.53	4077.21
430.72	3946.14
430.91	3920.40
431.10	4175.52
431.28	4241.05
431.47	4266.80
431.66	4407.23
431.85	4388.50
432.03	4266.80
432.22	4325.31
432.41	4327.65
432.60	4308.93
432.79	4320.63
432.97	4355.74
433.16	4402.55
433.35	4425.95
433.54	4280.84
433.72	4397.87
433.91	4365.10
434.10	4447.02
434.28	4463.40
434.47	4482.13
434.66	4669.37
434.85	4648.30
435.03	4648.30
435.22	4655.33
435.41	4732.56
435.59	4723.20
435.78	4723.20
435.97	4828.53
436.16	4772.35
436.34	4739.58
436.53	4732.56
436.72	4997.04
436.90	4791.08
437.09	4823.84
437.28	4704.48
437.46	4800.44
437.65	4891.72
437.84	4901.08
438.02	4919.81
438.21	4734.90
438.40	4823.84
438.58	5181.95
438.77	5233.44
438.96	4919.81
439.14	5207.69
439.33	5170.24
439.52	5280.25
439.70	5238.12
439.89	5305.99
440.08	5371.53
440.26	5305.99
440.45	5207.69
440.63	5577.50
440.82	5540.05
441.01	5441.75
441.19	5469.83
441.38	5624.31
441.57	5701.54
441.75	5603.24
441.94	5734.31
442.12	5731.97
442.31	5940.28
442.50	5856.02
442.68	5708.57
442.87	5856.02
443.05	5863.04
443.24	5944.96
443.43	6010.50
443.61	5963.68
443.80	6176.67
443.98	5825.59
444.17	5827.93
444.35	6094.76
444.54	6164.97
444.73	5898.15
444.91	6087.73
445.10	6136.88
445.28	5947.30
445.47	5771.76
445.65	5886.45
445.84	6108.80
446.02	6083.05
446.21	6258.59
446.39	6076.03
446.58	6153.27
446.77	6293.70
446.95	6174.33
447.14	6352.21
447.32	6230.51
447.51	6216.46
447.69	6186.04
447.88	6069.01
448.06	6162.63
448.25	6310.08
448.43	6342.85
448.62	6328.81
448.80	6181.35
448.99	6506.69
449.17	6361.58
449.36	6422.43
449.54	6487.96
449.73	6420.09
449.91	6602.65
450.10	6637.76
450.28	6750.10
450.46	6794.58
450.65	6633.08
450.83	6593.29
451.02	6731.38
451.20	6834.36
451.39	6916.28
451.57	6850.75
451.76	6635.42
451.94	6600.31
452.13	6806.28
452.31	6604.99
452.49	6588.61
452.68	6803.94
452.86	6808.62
453.05	6743.08
453.23	6998.20
453.42	6815.64
453.60	6752.45
453.78	6958.41
453.97	6766.49
454.15	6956.07
454.34	6885.86
454.52	7056.72
454.70	7096.50
454.89	6960.75
455.07	7014.59
455.26	7201.83
455.44	7133.95
455.62	7098.84
455.81	7201.83
455.99	7286.09
456.17	7363.33
456.36	7569.29
456.54	7456.95
456.73	7379.71
456.91	7517.80
457.09	7541.21
457.28	7793.98
457.46	7501.42
457.64	7705.04
457.83	7550.57
458.01	7438.22
458.19	7644.19
458.38	7609.08
458.56	7714.41
458.74	7611.42
458.93	7751.85
459.11	7730.79
459.29	7590.36
459.48	7845.48
459.66	7775.26
459.84	7964.84
460.03	7985.91
460.21	7852.50
460.39	7889.95
460.57	7981.23
460.76	8021.02
460.94	8154.43
461.12	8140.38
461.31	7971.86
461.49	8032.72
461.67	8051.44
461.85	8194.22
462.04	8107.62
462.22	8868.29
462.40	8507.85
462.59	8507.85
462.77	8156.77
462.95	8229.32
463.13	8226.98
463.32	8245.71
463.50	8292.52
463.68	8596.79
463.86	8486.78
464.05	8332.31
464.23	8416.57
464.41	8451.67
464.59	8397.84
464.78	8645.94
464.96	8559.34
465.14	8468.06
465.32	8746.58
465.50	8659.98
465.69	8702.11
465.87	8706.79
466.05	8519.55
466.23	8622.53
466.41	8674.03
466.60	8856.59
466.78	8767.65
466.96	8627.21
467.14	8454.02
467.32	8908.08
467.51	8748.92
467.69	8655.30
467.87	8919.78
468.05	9060.21
468.23	8884.67
468.41	8748.92
468.60	8837.86
468.78	9090.64
468.96	8734.88
469.14	9083.62
469.32	9085.96
469.50	9041.49
469.69	9081.28
469.87	9186.60
470.05	9263.84
470.23	9432.36
470.41	9277.88
470.59	9483.85
470.77	9446.40
470.95	9371.50
471.14	9628.96
471.32	9528.32
471.50	9647.69
471.68	9661.73
471.86	9659.39
472.04	9710.88
472.22	9937.91
472.40	9813.87
472.58	9989.41
472.77	9926.21
472.95	9881.74
473.13	10050.26
473.31	9813.87
473.49	10045.58
473.67	9827.91
473.85	10012.81
474.03	10403.68
474.21	10380.28
474.39	10408.36
474.57	10380.28
474.75	10511.35
474.93	10633.05
475.12	10621.35
475.30	10663.48
475.48	10523.05
475.66	10876.47
475.84	10626.03
476.02	10834.34
476.20	10754.76
476.38	11157.33
476.56	11194.78
476.74	11042.65
476.92	11391.39
477.10	11049.67
477.28	11412.45
477.46	11396.07
477.64	11714.38
477.82	11639.48
478.00	11861.84
478.18	11541.18
478.36	11920.35
478.54	11927.37
478.72	11988.22
478.90	12159.08
479.08	12402.50
479.26	12489.10
479.44	12318.24
479.62	12531.23
479.80	12334.62
479.98	12540.59
480.16	12992.31
480.34	12961.89
480.52	12877.63
480.70	13053.17
480.88	12744.22
481.06	12999.34
481.24	13268.50
481.41	13252.11
481.59	13415.95
481.77	13619.58
481.95	13589.15
482.13	13687.45
482.31	13654.69
482.49	14085.34
482.67	14125.13
482.85	14106.41
483.03	14544.09
483.21	14558.13
483.39	14707.93
483.57	14420.04
483.74	14700.90
483.92	14651.75
484.10	14679.84
484.28	15358.60
484.46	15398.38
484.64	15417.11
484.82	15183.06
485.00	15304.76
485.18	15484.98
485.35	15894.58
485.53	15393.70
485.71	15454.56
485.89	15531.80
486.07	15728.40
486.25	16058.42
486.43	15838.41
486.61	16411.84
486.78	16465.67
486.96	16404.81
487.14	16819.09
487.32	16664.61
487.50	17158.47
487.68	17135.06
487.85	17238.05
488.03	17591.47
488.21	17600.83
488.39	17752.96
488.57	17664.02
488.75	17935.53
488.92	18087.66
489.10	18129.79
489.28	18647.05
489.46	18607.26
489.64	18370.86
489.81	19063.66
489.99	18867.06
490.17	18923.23
490.35	19447.51
490.53	19286.01
490.70	19740.08
490.88	19489.64
491.06	19721.35
491.24	19391.34
491.41	19749.44
491.59	19700.29
491.77	19850.08
491.95	20236.27
492.13	20219.89
492.30	20531.18
492.48	20498.41
492.66	20765.23
492.84	20849.49
493.01	20765.23
493.19	20973.54
493.37	21305.90
493.54	21315.26
493.72	21631.23
493.90	21231.00
494.08	21284.83
494.25	22052.53
494.43	21862.94
494.61	22097.00
494.79	22270.20
494.96	22167.21
495.14	22204.66
495.32	22459.78
495.49	22717.24
495.67	22768.73
495.85	22960.66
496.02	22988.74
496.20	22733.62
496.38	23211.09
496.55	23297.69
496.73	23686.22
496.91	23601.96
497.09	23592.60
497.26	23866.44
497.44	23473.23
497.62	23950.70
497.79	24063.05
497.97	24423.49
498.14	24154.33
498.32	24243.27
498.50	24559.24
498.67	24734.78
498.85	24711.38
499.03	25261.40
499.20	24882.24
499.38	24996.92
499.56	25149.06
499.73	25228.63
499.91	25392.47
500.08	25373.75
500.26	25167.78
500.44	25067.14
500.61	25696.74
500.79	25177.14
500.97	25750.57
501.14	25982.29
501.32	25928.45
501.49	26181.23
501.67	25799.73
501.84	26251.45
502.02	26197.62
502.20	26218.68
502.37	26665.72
502.55	26448.05
502.72	26434.01
502.90	26941.91
503.07	26944.25
503.25	26621.25
503.43	26672.74
503.60	26927.86
503.78	26974.67
503.95	27103.40
504.13	27101.06
504.30	27470.87
504.48	27056.59
504.65	27569.17
504.83	27377.25
505.01	27922.59
505.18	27653.43
505.36	28009.19
505.53	28121.54
505.71	28606.03
505.88	28297.08
506.06	28039.62
506.23	28259.63
506.41	28486.66
506.58	28741.78
506.76	28533.47
506.93	28521.77
507.11	28706.67
507.28	28531.13
507.46	29034.35
507.63	28547.51
507.81	28968.81
507.98	28907.96
508.16	29120.95
508.33	29326.91
508.50	29174.78
508.68	29642.88
508.85	30127.38
509.03	30202.27
509.20	29378.40
509.38	29909.71
509.55	30066.52
509.73	30118.01
509.90	29970.56
510.08	29951.84
510.25	30483.14
510.42	29923.75
510.60	30373.13
510.77	30485.48
510.95	30984.01
511.12	30331.00
511.30	30637.61
511.47	30600.16
511.64	30749.96
511.82	31302.32
511.99	30719.53
512.17	30916.14
512.34	31012.10
512.51	31281.26
512.69	31466.16
512.86	31267.22
513.04	31779.79
513.21	31480.21
513.38	31632.34
513.56	31529.36
513.73	31402.97
513.90	31662.77
514.08	31702.56
514.25	31543.40
514.43	31943.63
514.60	31857.03
514.77	32037.25
514.95	32463.23
515.12	32655.15
515.29	32187.05
515.47	32606.00
515.64	32364.93
515.81	31850.01
515.99	32449.19
516.16	32500.68
516.33	32645.79
516.51	32484.30
516.68	32247.90
516.85	32666.86
517.03	32432.80
517.20	32830.69
517.37	33207.52
517.54	33134.96
517.72	32774.52
517.89	33057.73
518.06	32989.85
518.24	33172.41
518.41	33326.89
518.58	33111.56
518.75	33266.03
518.93	33923.72
519.10	33621.80
519.27	33916.70
519.45	33738.82
519.62	33897.98
519.79	33837.12
519.96	34061.82
520.14	34209.27
520.31	33780.95
520.48	34590.78
520.65	34162.46
520.83	34859.94
521.00	34457.37
521.17	34782.70
521.34	34857.60
521.52	34885.68
521.69	35049.52
521.86	34911.43
522.03	34656.31
522.20	34382.47
522.38	35232.08
522.55	35089.31
522.72	34944.20
522.89	34658.65
523.07	34937.18
523.24	35196.98
523.41	34981.65
523.58	35639.34
523.75	35880.41
523.92	35737.64
524.10	35814.88
524.27	35772.75
524.44	35749.34
524.61	36245.54
524.78	36184.68
524.96	36325.11
525.13	36233.83
525.30	36514.70
525.47	36746.41
525.64	36409.37
525.81	36161.28
525.98	36353.20
526.16	36521.72
526.33	36311.07
526.50	36355.54
526.67	36301.71
526.84	36863.44
527.01	36278.30
527.18	36591.94
527.36	36554.49
527.53	37067.06
527.70	36999.19
527.87	37055.36
528.04	37195.79
528.21	37078.77
528.38	36940.68
528.55	37572.62
528.72	37102.17
528.89	37404.10
529.07	37514.11
529.24	37249.63
529.41	37394.74
529.58	37525.81
529.75	37415.80
529.92	37738.80
530.09	37827.74
530.26	37666.24
530.43	38309.89
530.60	37787.95
530.77	37677.94
530.94	38291.16
531.11	38148.39
531.28	38780.34
531.46	38148.39
531.63	37926.04
531.80	38057.11
531.97	38527.56
532.14	38213.93
532.31	37757.52
532.48	38452.66
532.65	38703.10
532.82	38450.32
532.99	38293.50
533.16	38431.60
533.33	38904.38
533.50	38754.59
533.67	38986.30
533.84	38572.03
534.01	38859.91
534.18	38895.02
534.35	39077.58
534.52	38944.17
534.69	39342.06
534.86	39337.38
535.03	38871.62
535.20	39222.70
535.37	39421.64
535.54	40100.40
535.71	39388.88
535.88	39601.86
536.05	39189.93
536.22	39974.01
536.38	39152.48
536.55	39761.02
536.72	39423.98
536.89	39290.57
537.06	39480.16
537.23	39248.44
537.40	39475.48
537.57	39639.31
537.74	39725.91
537.91	40388.28
538.08	39868.69
538.25	39875.71
538.42	39569.10
538.59	40088.70
538.75	39945.92
538.92	40275.94
539.09	40371.90
539.26	39557.39
539.43	40584.89
539.60	40257.21
539.77	40055.93
539.94	40486.59
540.11	40465.52
540.28	39990.39
540.44	40098.06
540.61	40425.73
540.78	40140.19
540.95	40886.82
541.12	40385.94
541.29	40341.47
541.46	40706.60
541.62	40350.84
541.79	41219.17
541.96	40718.30
542.13	41228.54
542.30	40975.76
542.47	41118.53
542.63	41020.23
542.80	40786.18
542.97	41518.76
543.14	41703.67
543.31	41579.62
543.48	41354.93
543.64	41731.75
543.81	42024.32
543.98	41544.51
544.15	41509.40
544.32	41954.10
544.48	41965.81
544.65	41827.71
544.82	42230.29
544.99	41493.02
545.16	41792.61
545.32	41792.61
545.49	41846.44
545.66	42227.95
545.83	41757.50
546.00	42178.79
546.16	42052.41
546.33	42234.97
546.50	41617.07
546.67	42038.36
546.83	41776.22
547.00	41923.68
547.17	42260.71
547.34	41933.04
547.50	42583.71
547.67	42625.84
547.84	42232.63
548.00	42593.07
548.17	42183.48
548.34	42541.58
548.51	42880.95
548.67	42527.53
548.84	42454.98
549.01	42911.38
549.18	42728.82
549.34	42735.84
549.51	42738.18
549.68	43002.66
549.84	42918.40
550.01	43086.92
550.18	42630.52
550.34	42831.80
550.51	42983.94
550.68	42515.83
550.84	42405.83
551.01	43175.86
551.18	43203.95
551.34	43030.75
551.51	42887.98
551.68	42911.38
551.84	43203.95
552.01	42850.53
552.18	43222.67
552.34	42986.28
552.51	43346.72
552.68	43313.95
552.84	43440.34
553.01	43339.70
553.18	43496.52
553.34	43491.83
553.51	42607.11
553.67	43611.20
553.84	43407.58
554.01	43524.60
554.17	43672.06
554.34	43519.92
554.51	43894.41
554.67	44013.77
554.84	43751.63
555.00	43756.32
555.17	43613.54
555.33	43845.26
555.50	43810.15
555.67	43945.90
555.83	43618.22
556.00	44062.93
556.16	44381.24
556.33	44217.40
556.50	43885.04
556.66	44161.23
556.83	44067.61
556.99	44114.42
557.16	44320.38
557.32	43856.96
557.49	44360.17
557.65	43573.75
557.82	44341.45
557.98	44030.16
558.15	43817.17
558.32	44261.87
558.48	44076.97
558.65	43889.73
558.81	44704.23
558.98	44350.81
559.14	44027.82
559.31	44259.53
559.47	43959.94
559.64	44519.33
559.80	44453.79
559.97	44142.50
560.13	44128.46
560.30	43782.06
560.46	44477.20
560.63	44301.66
560.79	44903.18
560.96	44783.81
561.12	44753.38
561.29	44383.58
561.45	44594.23
561.61	44285.28
561.78	44486.56
561.94	44182.29
562.11	44406.98
562.27	44474.86
562.44	44659.76
562.60	44360.17
562.77	45008.50
562.93	44470.18
563.10	44676.15
563.26	44460.82
563.42	45205.11
563.59	44598.91
563.75	44418.69
563.92	45059.99
564.08	45031.91
564.24	44999.14
564.41	45099.78
564.57	45158.30
564.74	44385.92
564.90	45020.20
565.07	44638.70
565.23	44917.22
565.39	44610.61
565.56	45038.93
565.72	44643.38
565.88	44823.60
566.05	45010.84
566.21	45067.02
566.38	44858.71
566.54	44687.85
566.70	45219.15
566.87	45404.05
567.03	45221.49
567.19	45345.54
567.36	45427.46
567.52	45050.63
567.68	45151.27
567.85	44708.91
568.01	45221.49
568.17	45024.89
568.34	45244.90
568.50	45041.27
568.66	45177.02
568.83	45198.09
568.99	44935.95
569.15	44872.75
569.32	44949.99
569.48	45193.40
569.64	45558.53
569.81	45170.00
569.97	45043.61
570.13	45457.88
570.30	44460.82
570.46	44502.95
570.62	44957.01
570.78	44844.66
570.95	45008.50
571.11	45287.03
571.27	44767.43
571.43	45420.44
571.60	45251.92
571.76	45123.19
571.92	45102.12
572.09	44598.91
572.25	44957.01
572.41	45240.21
572.57	45453.20
572.74	45713.00
572.90	45567.89
573.06	45193.40
573.22	45312.77
573.38	45123.19
573.55	44767.43
573.71	45455.54
573.87	45390.01
574.03	45256.60
574.20	45219.15
574.36	45518.74
574.52	45717.68
574.68	45329.16
574.84	45195.74
575.01	45277.66
575.17	45275.32
575.33	45020.20
575.49	45104.46
575.65	45488.31
575.82	45600.66
575.98	45155.96
576.14	45715.34
576.30	44914.88
576.46	44957.01
576.62	45186.38
576.79	45254.26
576.95	45251.92
577.11	45254.26
577.27	45347.88
577.43	45343.20
577.59	45294.05
577.75	45382.99
577.92	45237.87
578.08	45027.23
578.24	45195.74
578.40	45132.55
578.56	45165.32
578.72	45677.90
578.88	45492.99
579.04	45698.96
579.21	45558.53
579.37	45324.47
579.53	45181.70
579.69	44989.78
579.85	45298.73
580.01	45202.77
580.17	45579.59
580.33	45317.45
580.49	45993.87
580.65	45595.98
580.82	45675.55
580.98	45422.78
581.14	45457.88
581.30	45544.48
581.46	45640.45
581.62	45411.07
581.78	45560.87
581.94	45888.54
582.10	45516.40
582.26	45727.05
582.42	45401.71
582.58	45551.51
582.74	45474.27
582.90	45532.78
583.06	45605.34
583.22	45392.35
583.38	45762.15
583.54	45633.42
583.70	45720.02
583.86	45804.28
584.02	45301.07
584.18	45574.91
584.34	45551.51
584.50	45879.18
584.66	45827.69
584.82	45329.16
584.98	45872.16
585.14	45628.74
585.30	45748.11
585.46	45624.06
585.62	45624.06
585.78	45455.54
585.94	44914.88
586.10	45502.35
586.26	45429.80
586.42	45308.09
586.58	45600.66
586.74	45579.59
586.90	45394.69
587.06	45401.71
587.22	45811.31
587.38	45287.03
587.54	46064.08
587.70	46138.98
587.86	45710.66
588.02	45759.81
588.18	45689.60
588.34	45621.72
588.49	45188.72
588.65	45118.51
588.81	44959.35
588.97	45228.51
589.13	45404.05
589.29	45455.54
589.45	45492.99
589.61	45736.41
589.77	46033.66
589.93	45521.08
590.08	45998.55
590.24	46033.66
590.40	45359.58
590.56	45940.04
590.72	45251.92
590.88	45771.52
591.04	45556.19
591.20	46045.36
591.35	45581.93
591.51	45902.59
591.67	45801.94
591.83	45689.60
591.99	45528.10
592.15	45504.70
592.31	45771.52
592.46	45282.34
592.62	45656.83
592.78	45755.13
592.94	45865.14
593.10	45715.34
593.26	46064.08
593.41	45633.42
593.57	45937.69
593.73	45764.49
593.89	45720.02
594.05	45427.46
594.20	45909.61
594.36	45844.07
594.52	45783.22
594.68	45593.64
594.84	45982.16
594.99	46057.06
595.15	45542.14
595.31	46014.93
595.47	46045.36
595.62	46117.92
595.78	45670.87
595.94	45757.47
596.10	45935.35
596.25	45879.18
596.41	45404.05
596.57	45785.56
596.73	45970.46
596.88	45666.19
597.04	45703.64
597.20	46092.17
597.36	45977.48
597.51	45834.71
597.67	45874.50
597.83	45996.21
597.99	45902.59
598.14	46150.68
598.30	46148.34
598.46	45607.68
598.61	45720.02
598.77	45640.45
598.93	45815.99
599.09	45603.00
599.24	46146.00
599.40	45911.95
599.56	46529.85
599.71	46220.90
599.87	46223.24
600.03	45860.46
600.18	45841.73
600.34	45813.65
600.50	45820.67
600.65	45624.06
600.81	46293.46
600.97	45862.80
601.12	45928.33
601.28	45918.97
601.44	45778.54
601.59	45825.35
601.75	45668.53
601.91	46108.55
602.06	45916.63
602.22	46136.64
602.37	45958.76
602.53	45823.01
602.69	46272.39
602.84	45752.79
603.00	45663.85
603.16	46026.63
603.31	45556.19
603.47	46171.75
603.62	45663.85
603.78	45815.99
603.94	45844.07
604.09	46253.67
604.25	46096.85
604.40	46094.51
604.56	45886.20
604.71	45771.52
604.87	45546.82
605.03	45717.68
605.18	45705.98
605.34	45659.17
605.49	45731.73
605.65	45832.37
605.80	45521.08
605.96	45986.85
606.12	45979.82
606.27	46138.98
606.43	45790.24
606.58	45792.58
606.74	45617.04
606.89	45797.26
607.05	45574.91
607.20	45696.62
607.36	45722.37
607.51	46085.15
607.67	45443.84
607.82	45766.84
607.98	45703.64
608.13	45745.77
608.29	45940.04
608.44	45202.77
608.60	45041.27
608.75	45287.03
608.91	45111.49
609.06	45413.41
609.22	45694.28
609.37	45455.54
609.53	45331.50
609.68	45593.64
609.84	45233.19
609.99	45556.19
610.15	45041.27
610.30	45095.10
610.46	44786.15
610.61	45542.14
610.76	45525.76
610.92	44877.43
611.07	45251.92
611.23	44975.73
611.38	45338.52
611.54	44734.66
611.69	45240.21
611.84	45317.45
612.00	45034.25
612.15	45193.40
612.31	45280.00
612.46	45216.81
612.62	45017.86
612.77	44734.66
612.92	44839.98
613.08	44409.32
613.23	44978.07
613.39	44715.93
613.54	44865.73
613.69	45247.24
613.85	44631.68
614.00	45371.28
614.15	44851.69
614.31	45029.57
614.46	45577.25
614.62	44767.43
614.77	45022.54
614.92	44795.51
615.08	44643.38
615.23	44594.23
615.38	44985.10
615.54	44154.21
615.69	44463.16
615.84	44617.63
616.00	44570.82
616.15	44772.11
616.30	44776.79
616.46	44367.20
616.61	43983.35
616.76	44664.44
616.92	43618.22
617.07	44177.61
617.22	44058.24
617.37	44081.65
617.53	44767.43
617.68	44463.16
617.83	44428.05
617.99	44573.16
618.14	44428.05
618.29	44336.77
618.45	44189.31
618.60	43856.96
618.75	44425.71
618.90	44409.32
619.06	44879.77
619.21	43896.75
619.36	43950.58
619.51	43859.30
619.67	44048.88
619.82	44327.41
619.97	43990.37
620.12	44030.16
620.28	43878.02
620.43	44002.07
620.58	43477.79
620.73	43770.36
620.89	43929.51
621.04	44308.68
621.19	43824.19
621.34	43964.62
621.49	43903.77
621.65	43243.74
621.80	44140.16
621.95	43346.72
622.10	44140.16
622.25	43714.19
622.41	43217.99
622.56	43597.16
622.71	43990.37
622.86	43639.29
623.01	43538.65
623.16	43849.94
623.32	43973.98
623.47	43796.10
623.62	43557.37
623.77	43220.33
623.92	43447.36
624.07	42827.12
624.23	43370.13
624.38	43374.81
624.53	42911.38
624.68	43100.97
624.83	43580.78
624.98	43136.07
625.13	43363.11
625.29	43241.40
625.44	43206.29
625.59	42911.38
625.74	42838.83
625.89	42548.60
626.04	42693.71
626.19	43117.35
626.34	43100.97
626.49	43112.67
626.65	43005.00
626.80	43093.94
626.95	42590.73
627.10	42836.48
627.25	42607.11
627.40	42756.91
627.55	42342.63
627.70	42160.07
627.85	42454.98
628.00	42356.67
628.15	42965.21
628.30	42522.85
628.45	42447.96
628.60	42417.53
628.76	42478.38
628.91	42714.78
629.06	42478.38
629.21	42614.13
629.36	42333.27
629.51	42195.18
629.66	42115.60
629.81	42529.87
629.96	42328.59
630.11	42307.52
630.26	42218.58
630.41	42256.03
630.56	42410.51
630.71	42284.12
630.86	42576.69
631.01	41808.99
631.16	42541.58
631.31	41464.93
631.46	41509.40
631.61	42108.58
631.76	42148.37
631.91	41794.95
632.06	41869.84
632.21	42005.59
632.36	41977.51
632.51	41675.58
632.66	41848.78
632.81	41619.41
632.96	41645.15
633.10	41373.65
633.25	41427.48
633.40	41429.82
633.55	42017.30
633.70	41666.22
633.85	41813.67
634.00	41612.38
634.15	41567.91
634.30	41481.31
634.45	41581.96
634.60	41471.95
634.75	41532.81
634.90	41303.43
635.05	41228.54
635.19	41446.21
635.34	41911.97
635.49	41408.76
635.64	41343.22
635.79	41015.55
635.94	41008.53
636.09	41212.15
636.24	41085.76
636.39	40950.01
636.53	41085.76
636.68	41088.10
636.83	40776.81
636.98	41544.51
637.13	40950.01
637.28	41034.27
637.43	41134.92
637.57	40994.48
637.72	41043.63
637.87	40727.66
638.02	40662.13
638.17	41008.53
638.32	40608.29
638.46	40889.16
638.61	40818.94
638.76	40409.35
638.91	40435.10
639.06	40727.66
639.20	41340.88
639.35	40807.24
639.50	40322.75
639.65	40612.98
639.80	40926.61
639.94	40568.51
640.09	40399.99
640.24	40851.71
640.39	40348.50
640.54	40025.50
640.68	40451.48
640.83	40535.74
640.98	40430.41
641.13	40854.05
641.27	41116.19
641.42	40055.93
641.57	40416.37
641.72	40416.37
641.86	39910.82
642.01	40034.86
642.16	40147.21
642.31	39466.11
642.45	39842.94
642.60	39852.30
642.75	39969.33
642.90	40273.60
643.04	39948.26
643.19	39894.43
643.34	40376.58
643.48	40030.18
643.63	39730.59
643.78	39931.88
643.93	39730.59
644.07	39339.72
644.22	39700.17
644.37	39845.28
644.51	39592.50
644.66	39807.83
644.81	39503.56
644.95	39639.31
645.10	39569.10
645.25	40069.97
645.39	39470.79
645.54	39990.39
645.69	39578.46
645.83	39061.20
645.98	39407.60
646.13	39611.23
646.27	39154.82
646.42	39283.55
646.57	39491.86
646.71	39344.41
646.86	39313.98
647.00	39433.35
647.15	39257.81
647.30	39421.64
647.44	39482.50
647.59	38958.22
647.74	38979.28
647.88	38752.25
648.03	39414.62
648.17	39271.85
648.32	38768.63
648.47	39108.01
648.61	38621.18
648.76	39468.45
648.90	38958.22
649.05	39129.08
649.20	39056.52
649.34	39047.16
649.49	38944.17
649.63	38885.66
649.78	39108.01
649.92	38836.51
650.07	39161.84
650.21	38557.99
650.36	38967.58
650.51	38660.97
650.65	39271.85
650.80	38998.01
650.94	39117.37
651.09	38426.92
651.23	38447.98
651.38	38625.86
651.52	38199.88
651.67	38597.77
651.81	38258.40
651.96	38295.85
652.10	38604.80
652.25	38197.54
652.39	38361.38
652.54	38232.65
652.68	38878.64
652.83	38265.42
652.97	38752.25
653.12	38408.19
653.26	38017.32
653.41	38230.31
653.55	38265.42
653.70	38307.55
653.84	38244.35
653.99	38426.92
654.13	38230.31
654.27	38071.15
654.42	38394.15
654.56	38071.15
654.71	38146.05
654.85	37893.27
655.00	38157.75
655.14	37631.13
655.29	37556.24
655.43	37567.94
655.57	37710.71
655.72	37715.39
655.86	37317.50
656.01	37525.81
656.15	37511.77
656.30	37144.30
656.44	37462.61
656.58	37406.44
656.73	37202.82
656.87	37092.81
657.01	37347.93
657.16	37261.33
657.30	37095.15
657.45	36835.35
657.59	37479.00
657.73	37596.03
657.88	36992.17
658.02	37282.39
658.16	37301.12
658.31	37544.53
658.45	37352.61
658.60	36917.27
658.74	37198.13
658.88	37228.56
659.03	36772.16
659.17	36584.91
659.31	36624.70
659.46	36381.29
659.60	36809.61
659.74	36746.41
659.89	36430.44
660.03	36851.73
660.17	36840.03
660.32	36730.03
660.46	36816.63
660.60	36900.89
660.74	37013.23
660.89	36383.63
661.03	36694.92
661.17	36453.84
661.32	35517.63
661.46	36282.98
661.60	36079.36
661.74	35903.82
661.89	35948.29
662.03	36058.29
662.17	36177.66
662.31	35768.07
662.46	35981.06
662.60	36046.59
662.74	36201.07
662.88	35967.01
663.03	36020.84
663.17	36046.59
663.31	35543.38
663.45	35379.54
663.60	35737.64
663.74	35529.33
663.88	35204.00
664.02	35447.41
664.17	35323.36
664.31	35316.34
664.45	35260.17
664.59	35161.87
664.73	35007.39
664.88	35681.47
665.02	34838.87
665.16	35061.22
665.30	35218.04
665.44	35000.37
665.59	35138.46
665.73	34930.16
665.87	34700.78
666.01	34457.37
666.15	34609.50
666.29	34700.78
666.44	34576.73
666.58	34527.58
666.72	34366.09
666.86	34618.86
667.00	34321.62
667.14	34155.44
667.28	34609.50
667.43	34195.23
667.57	34436.30
667.71	34007.98
667.85	34127.35
667.99	34206.93
668.13	33867.55
668.27	34022.03
668.41	34108.63
668.56	33813.72
668.70	33926.07
668.84	33986.92
668.98	34017.35
669.12	33851.17
669.26	33766.91
669.40	33792.65
669.54	33727.12
669.68	33668.61
669.82	33399.44
669.96	33455.62
670.10	33041.34
670.25	33514.13
670.39	33460.30
670.53	33256.67
670.67	33149.01
670.81	33209.86
670.95	33528.17
671.09	33111.56
671.23	32914.95
671.37	32807.29
671.51	32315.78
671.65	32547.49
671.79	32100.45
671.93	32318.12
672.07	32584.94
672.21	32175.34
672.35	32081.72
672.49	32053.64
672.63	32393.01
672.77	32004.49
672.91	32091.09
673.05	32032.57
673.19	31812.56
673.33	31838.31
673.47	31859.37
673.61	31566.81
673.75	31356.16
673.89	31314.03
674.03	31122.10
674.17	31473.18
674.31	31466.16
674.45	31538.72
674.59	31288.28
674.73	31512.97
674.87	30932.52
675.01	31087.00
675.15	30979.33
675.29	31220.41
675.43	31248.49
675.56	31019.12
675.70	30946.56
675.84	30866.98
675.98	29563.31
676.12	30724.21
676.26	30288.87
676.40	30256.11
676.54	30272.49
676.68	30525.27
676.82	29130.31
676.96	30190.57
677.10	29668.63
677.23	29930.77
677.37	30110.99
677.51	29944.81
677.65	29469.69
677.79	29560.97
677.93	29371.38
678.07	28994.56
678.21	29319.89
678.34	29020.30
678.48	29284.78
678.62	28804.97
678.76	28957.11
678.90	28744.12
679.04	28786.25
679.18	28671.56
679.31	28704.33
679.45	28004.51
679.59	27988.13
679.73	28070.04
679.87	28224.52
680.00	27990.47
680.14	27892.16
680.28	28065.36
680.42	27564.49
680.56	28058.34
680.70	27718.96
680.83	27494.27
680.97	27225.11
681.11	27613.64
681.25	27084.68
681.39	27180.64
681.52	27138.51
681.66	27171.28
681.80	26941.91
681.94	26726.58
682.07	26904.46
682.21	26689.13
682.35	26366.13
682.49	26780.41
682.62	26520.61
682.76	26118.04
682.90	26211.66
683.04	26103.99
683.17	26513.59
683.31	26363.79
683.45	26061.87
683.59	25881.64
683.72	25757.60
683.86	25656.95
684.00	25261.40
684.13	25715.47
684.27	25479.07
684.41	25310.55
684.55	25156.08
684.68	25619.50
684.82	24589.67
684.96	25195.87
685.09	24924.36
685.23	24664.57
685.37	24833.08
685.50	24975.86
685.64	24336.89
685.78	24372.00
685.91	24790.95
686.05	24491.37
686.19	24067.73
686.32	24264.33
686.46	24105.18
686.60	23580.90
686.73	23704.95
686.87	23695.58
687.01	23796.23
687.14	23431.10
687.28	23119.81
687.42	23316.42
687.55	23384.29
687.69	23438.12
687.82	23187.69
687.96	23269.61
688.10	22845.97
688.23	22974.70
688.37	22579.15
688.50	22466.80
688.64	22852.99
688.78	22391.91
688.91	22508.93
689.05	22579.15
689.18	22611.92
689.32	22178.92
689.46	22513.61
689.59	22017.42
689.73	22398.93
689.86	21977.63
690.00	21673.36
690.13	22195.30
690.27	21860.60
690.41	21736.56
690.54	21432.29
690.68	21284.83
690.81	21329.30
690.95	21319.94
691.08	21322.28
691.22	20957.16
691.35	20938.43
691.49	21434.63
691.62	21266.11
691.76	20999.29
691.89	20992.26
692.03	20610.76
692.16	20332.23
692.30	20512.46
692.43	20397.77
692.57	20247.97
692.70	20226.91
692.84	20133.29
692.97	19990.52
693.11	19974.13
693.24	19866.47
693.38	19894.55
693.51	19953.07
693.65	19538.79
693.78	19941.36
693.92	19922.64
694.05	19751.78
694.19	19468.58
694.32	19365.59
694.45	19442.83
694.59	19143.24
694.72	19339.85
694.86	18998.13
694.99	19211.12
695.13	19108.13
695.26	18782.80
695.39	18628.32
695.53	18607.26
695.66	18663.43
695.80	18743.01
695.93	18492.57
696.07	17949.57
696.20	18324.05
696.33	18043.19
696.47	18342.78
696.60	17928.50
696.73	18293.63
696.87	18029.15
697.00	17757.64
697.14	17806.80
697.27	17598.49
697.40	17596.15
697.54	17687.43
697.67	17561.04
697.80	17731.90
697.94	17231.02
698.07	17179.53
698.21	17135.06
698.34	17245.07
698.47	17308.26
698.61	16826.11
698.74	16627.17
698.87	16608.44
699.01	16549.93
699.14	16641.21
699.27	16538.23
699.40	16751.21
699.54	16304.17
699.67	16222.25
699.80	16355.66
699.94	16248.00
700.07	16137.99
700.20	15978.84
700.34	16128.63
700.47	15899.26
700.60	16255.02
700.73	15812.66
700.87	16046.71
701.00	15707.34
701.13	15531.80
701.26	15520.09
701.40	15852.45
701.53	15199.44
701.66	15372.64
701.79	15241.57
701.93	15147.95
702.06	14974.75
702.19	14906.87
702.32	15035.60
702.46	15316.47
702.59	14906.87
702.72	14916.23
702.85	14696.22
702.99	14633.03
703.12	14576.86
703.25	14647.07
703.38	14574.52
703.51	14354.51
703.65	14558.13
703.78	14111.09
703.91	14216.41
704.04	14031.51
704.17	14024.49
704.31	14253.86
704.44	14029.17
704.57	13837.25
704.70	13678.09
704.83	13816.18
704.96	13848.95
705.10	13916.83
705.23	13851.29
>>>>>End Processed Spectral Data<<<<<
