SpectraSuite Data File
++++++++++++++++++++++++++++++++++++
Date: Fri Oct 25 10:44:49 EDT 2013
User: price-jones
Dark Spectrum Present: No
Reference Spectrum Present: No
Number of Sampled Component Spectra: 1
Spectrometers: USB2+H05261
Integration Time (usec): 100000 (USB2+H05261)
Spectra Averaged: 1 (USB2+H05261)
Boxcar Smoothing: 0 (USB2+H05261)
Correct for Electrical Dark: No (USB2+H05261)
Strobe/Lamp Enabled: No (USB2+H05261)
Correct for Detector Non-linearity: No (USB2+H05261)
Correct for Stray Light: No (USB2+H05261)
Number of Pixels in Processed Spectrum: 2048
>>>>>Begin Processed Spectral Data<<<<<
365.73	95.96
365.92	95.96
366.12	95.96
366.32	23.41
366.52	42.13
366.72	32.77
366.91	49.15
367.11	100.64
367.31	0.00
367.51	16.38
367.70	0.00
367.90	23.41
368.10	21.06
368.30	25.75
368.49	60.85
368.69	79.58
368.89	42.13
369.09	93.62
369.28	77.24
369.48	56.17
369.68	100.64
369.87	88.94
370.07	102.98
370.27	81.92
370.47	175.54
370.66	362.78
370.86	358.10
371.06	449.38
371.25	425.98
371.45	442.36
371.65	479.81
371.84	454.06
372.04	407.25
372.24	463.43
372.44	498.53
372.63	472.79
372.83	564.07
373.03	449.38
373.22	554.71
373.42	491.51
373.62	493.85
373.81	531.30
374.01	540.66
374.21	543.00
374.40	465.77
374.60	550.03
374.79	526.62
374.99	533.64
375.19	535.98
375.38	585.13
375.58	587.47
375.78	566.41
375.97	575.77
376.17	587.47
376.37	552.37
376.56	608.54
376.76	543.00
376.95	585.13
377.15	587.47
377.35	575.77
377.54	585.13
377.74	620.24
377.93	468.11
378.13	683.44
378.33	667.05
378.52	589.82
378.72	592.16
378.91	603.86
379.11	594.50
379.31	636.63
379.50	634.29
379.70	641.31
379.89	559.39
380.09	573.43
380.28	599.18
380.48	545.34
380.68	634.29
380.87	725.57
381.07	629.60
381.26	636.63
381.46	758.33
381.65	627.26
381.85	674.07
382.04	657.69
382.24	713.86
382.43	641.31
382.63	662.37
382.83	627.26
383.02	648.33
383.22	702.16
383.41	636.63
383.61	667.05
383.80	772.38
384.00	678.76
384.19	699.82
384.39	697.48
384.58	734.93
384.78	685.78
384.97	720.88
385.17	751.31
385.36	716.20
385.56	765.36
385.75	709.18
385.95	779.40
386.14	837.91
386.34	819.19
386.53	730.25
386.72	751.31
386.92	870.68
387.11	800.46
387.31	851.96
387.50	777.06
387.70	814.51
387.89	800.46
388.09	828.55
388.28	826.21
388.48	777.06
388.67	861.32
388.86	842.59
389.06	826.21
389.25	875.36
389.45	840.25
389.64	849.61
389.84	830.89
390.03	791.10
390.22	922.17
390.42	983.02
390.61	912.81
390.81	950.26
391.00	891.74
391.19	961.96
391.39	924.51
391.58	922.17
391.78	952.60
391.97	1008.77
392.16	992.39
392.36	1046.22
392.55	950.26
392.75	964.30
392.94	994.73
393.13	971.32
393.33	964.30
393.52	908.13
393.71	987.71
393.91	973.66
394.10	1027.50
394.29	1046.22
394.49	1013.45
394.68	1074.31
394.88	1149.20
395.07	1132.82
395.26	1107.07
395.46	1095.37
395.65	1076.65
395.84	1118.78
396.04	1170.27
396.23	1043.88
396.42	1125.80
396.62	1135.16
396.81	1179.63
397.00	1088.35
397.19	1083.67
397.39	1088.35
397.58	1193.67
397.77	1240.48
397.97	1224.10
398.16	1231.12
398.35	1357.51
398.55	1224.10
398.74	1254.53
398.93	1324.74
399.12	1268.57
399.32	1296.66
399.51	1294.32
399.70	1362.19
399.90	1369.21
400.09	1308.36
400.28	1362.19
400.47	1308.36
400.67	1434.75
400.86	1486.24
401.05	1488.58
401.24	1526.03
401.44	1437.09
401.63	1621.99
401.82	1483.90
402.01	1528.37
402.21	1509.65
402.40	1495.60
402.59	1514.33
402.78	1465.18
402.97	1558.80
403.17	1575.18
403.36	1600.93
403.55	1579.86
403.74	1598.59
403.93	1666.46
404.13	1652.42
404.32	1591.56
404.51	1575.18
404.70	1699.23
404.89	1694.55
405.09	1713.27
405.28	1617.31
405.47	1750.72
405.66	1797.53
405.85	1736.68
406.05	1706.25
406.24	1781.15
406.43	1893.49
406.62	1905.20
406.81	1970.73
407.00	1834.98
407.20	1830.30
407.39	1870.09
407.58	1891.15
407.77	1891.15
407.96	1902.86
408.15	2001.16
408.34	1846.68
408.54	1942.64
408.73	2005.84
408.92	1963.71
409.11	1944.99
409.30	1944.99
409.49	2104.14
409.68	1961.37
409.87	1977.75
410.07	2108.82
410.26	2069.03
410.45	2267.98
410.64	2195.42
410.83	2249.25
411.02	2134.57
411.21	2246.91
411.40	2202.44
411.59	2242.23
411.78	2333.51
411.98	2331.17
412.17	2354.58
412.36	2396.71
412.55	2401.39
412.74	2356.92
412.93	2420.11
413.12	2422.45
413.31	2551.18
413.50	2499.69
413.69	2504.37
413.88	2590.97
414.07	2544.16
414.26	2581.61
414.45	2612.04
414.64	2579.27
414.83	2731.41
415.02	2597.99
415.22	2715.02
415.41	2736.09
415.60	2696.30
415.79	2904.60
415.98	2869.50
416.17	2827.37
416.36	2897.58
416.55	2930.35
416.74	2920.99
416.93	2944.39
417.12	2885.88
417.31	3028.65
417.50	3002.91
417.69	3148.02
417.88	3192.49
418.07	3075.46
418.26	2993.55
418.45	3108.23
418.64	3194.83
418.83	3239.30
419.02	3110.57
419.21	3204.19
419.39	3225.26
419.58	3190.15
419.77	3309.52
419.96	3272.07
420.15	3272.07
420.34	3169.09
420.53	3349.31
420.72	3351.65
420.91	3382.07
421.10	3478.04
421.29	3475.70
421.48	3288.45
421.67	3426.54
421.86	3426.54
422.05	3417.18
422.24	3356.33
422.43	3482.72
422.61	3410.16
422.80	3471.01
422.99	3503.78
423.18	3660.60
423.37	3538.89
423.56	3620.81
423.75	3456.97
423.94	3496.76
424.13	3309.52
424.32	3309.52
424.50	3515.48
424.69	3524.85
424.88	3471.01
425.07	3592.72
425.26	3454.63
425.45	3452.29
425.64	3576.34
425.83	3471.01
426.01	3545.91
426.20	3627.83
426.39	3574.00
426.58	3503.78
426.77	3585.70
426.96	3557.61
427.15	3585.70
427.33	3662.94
427.52	3585.70
427.71	3655.92
427.90	3641.87
428.09	3824.44
428.28	3679.32
428.46	3700.39
428.65	3824.44
428.84	3712.09
429.03	3782.31
429.22	3716.77
429.40	3864.22
429.59	3756.56
429.78	3658.26
429.97	3639.53
430.16	3662.94
430.34	3833.80
430.53	3782.31
430.72	3929.76
430.91	3915.72
431.10	3929.76
431.28	4102.96
431.47	4191.90
431.66	4224.67
431.85	4079.55
432.03	4126.36
432.22	4276.16
432.41	4299.56
432.60	4332.33
432.79	4156.79
432.97	4308.93
433.16	4397.87
433.35	4140.41
433.54	4444.68
433.72	4145.09
433.91	4234.03
434.10	4423.61
434.28	4411.91
434.47	4353.40
434.66	4514.89
434.85	4484.47
435.03	4421.27
435.22	4315.95
435.41	4657.67
435.59	4713.84
435.78	4676.39
435.97	4554.68
436.16	4704.48
436.34	4681.07
436.53	4650.64
436.72	4718.52
436.90	4582.77
437.09	4622.56
437.28	4510.21
437.46	4681.07
437.65	4596.81
437.84	4870.65
438.02	4821.50
438.21	4720.86
438.40	4704.48
438.58	4929.17
438.77	4889.38
438.96	4821.50
439.14	5025.13
439.33	5043.85
439.52	4975.98
439.70	4887.04
439.89	5231.10
440.08	5207.69
440.26	5142.16
440.45	5048.54
440.63	5118.75
440.82	5448.77
441.01	5284.93
441.19	5383.23
441.38	5446.43
441.57	5465.15
441.75	5486.22
441.94	5701.54
442.12	5607.92
442.31	5771.76
442.50	5636.01
442.68	5579.84
442.87	5748.36
443.05	5706.23
443.24	5881.77
443.43	5738.99
443.61	5820.91
443.80	5921.56
443.98	5799.85
444.17	5645.37
444.35	5919.21
444.54	5846.66
444.73	5905.17
444.91	5912.19
445.10	5984.75
445.28	5900.49
445.47	5760.06
445.65	5706.23
445.84	5844.32
446.02	5942.62
446.21	5797.51
446.39	5877.09
446.58	6026.88
446.77	5982.41
446.95	5832.62
447.14	6078.37
447.32	5961.34
447.51	6038.58
447.69	6036.24
447.88	5968.37
448.06	5956.66
448.25	6078.37
448.43	5966.03
448.62	6045.60
448.80	6022.20
448.99	6010.50
449.17	6242.21
449.36	6104.12
449.54	6256.25
449.73	6209.44
449.91	6434.13
450.10	6431.79
450.28	6492.65
450.46	6525.41
450.65	6551.16
450.83	6548.82
451.02	6441.15
451.20	6670.53
451.39	6464.56
451.57	6296.04
451.76	6403.71
451.94	6401.37
452.13	6574.56
452.31	6600.31
452.49	6293.70
452.68	6583.93
452.86	6602.65
453.05	6614.35
453.23	6612.01
453.42	6715.00
453.60	6588.61
453.78	6743.08
453.97	6696.27
454.15	6604.99
454.34	6576.91
454.52	6909.26
454.70	6705.63
454.89	6836.70
455.07	6925.65
455.26	6942.03
455.44	6841.39
455.62	6773.51
455.81	6918.62
455.99	7159.70
456.17	7028.63
456.36	7094.16
456.54	7082.46
456.73	7283.75
456.91	7262.68
457.09	7211.19
457.28	7330.56
457.46	7330.56
457.64	7192.47
457.83	7250.98
458.01	7227.57
458.19	7396.09
458.38	7321.20
458.56	7576.31
458.74	7461.63
458.93	7508.44
459.11	7456.95
459.29	7552.91
459.48	7442.90
459.66	7382.05
459.84	7559.93
460.03	7655.89
460.21	7693.34
460.39	7737.81
460.57	7667.60
460.76	7599.72
460.94	7789.30
461.12	7707.38
461.31	7805.69
461.49	7871.22
461.67	7524.82
461.85	7967.18
462.04	7915.69
462.22	8124.00
462.40	8142.72
462.59	7999.95
462.77	8077.19
462.95	7969.52
463.13	8173.15
463.32	8002.29
463.50	8138.04
463.68	8196.56
463.86	8224.64
464.05	8091.23
464.23	8133.36
464.41	8210.60
464.59	7943.78
464.78	8210.60
464.96	8212.94
465.14	8044.42
465.32	8177.83
465.50	8407.20
465.69	8409.54
465.87	8400.18
466.05	8374.44
466.23	8311.24
466.41	8458.70
466.60	8411.89
466.78	8348.69
466.96	8418.91
467.14	8493.80
467.32	8564.02
467.51	8688.07
467.69	8355.71
467.87	8585.08
468.05	8521.89
468.23	8699.77
468.41	8842.54
468.60	8475.08
468.78	8732.54
468.96	8617.85
469.14	8847.22
469.32	8748.92
469.50	8643.60
469.69	8908.08
469.87	9022.77
470.05	8812.12
470.23	8889.35
470.41	8887.01
470.59	9032.13
470.77	8887.01
470.95	9050.85
471.14	9341.08
471.32	9062.55
471.50	9233.41
471.68	9202.99
471.86	9249.80
472.04	9341.08
472.22	9540.02
472.40	9266.18
472.58	9418.32
472.77	9444.06
472.95	9650.03
473.13	10012.81
473.31	9593.86
473.49	9399.59
473.67	9497.89
473.85	9589.17
474.03	9905.15
474.21	9771.74
474.39	9848.97
474.57	9916.85
474.75	10204.74
474.93	10373.25
475.12	10083.03
475.30	10284.31
475.48	10139.20
475.66	10370.91
475.84	10270.27
476.02	10476.24
476.20	10471.56
476.38	10452.83
476.56	10974.77
476.74	10841.36
476.92	10846.04
477.10	10916.26
477.28	10972.43
477.46	11012.22
477.64	11192.44
477.82	11353.94
478.00	11445.22
478.18	11412.45
478.36	11372.66
478.54	11578.63
478.72	11604.38
478.90	11808.00
479.08	11723.74
479.26	12011.63
479.44	12018.65
479.62	11903.96
479.80	12257.39
479.98	12248.02
480.16	12624.85
480.34	12351.01
480.52	12507.82
480.70	12444.63
480.88	12400.16
481.06	12720.81
481.24	12723.15
481.41	12781.67
481.59	12854.22
481.77	13076.57
481.95	13064.87
482.13	13083.59
482.31	13202.96
482.49	13509.57
482.67	13617.24
482.85	13895.76
483.03	13769.37
483.21	13923.85
483.39	14031.51
483.57	13872.36
483.74	14068.96
483.92	14408.34
484.10	14207.05
484.28	14665.80
484.46	14457.49
484.64	15056.67
484.82	14895.17
485.00	14995.81
485.18	15136.24
485.35	15367.96
485.53	14867.08
485.71	15066.03
485.89	15297.74
486.07	15215.82
486.25	15290.72
486.43	15559.88
486.61	15730.74
486.78	15803.30
486.96	15779.89
487.14	16067.78
487.32	16355.66
487.50	16477.37
487.68	16711.42
487.85	16645.89
488.03	16908.03
488.21	17069.53
488.39	17209.96
488.57	17298.90
488.75	17160.81
488.92	17649.98
489.10	17949.57
489.28	17617.21
489.46	17872.33
489.64	17844.24
489.81	18302.99
489.99	18445.76
490.17	18614.28
490.35	18771.10
490.53	18691.52
490.70	18864.72
490.88	18843.65
491.06	19241.54
491.24	19061.32
491.41	19117.50
491.59	19129.20
491.77	19339.85
491.95	19124.52
492.13	19543.47
492.30	19824.34
492.48	19859.45
492.66	19733.06
492.84	20086.48
493.01	20505.43
493.19	20198.82
493.37	20381.38
493.54	20360.32
493.72	20779.28
493.90	21027.37
494.08	20989.92
494.25	21322.28
494.43	21319.94
494.61	21624.21
494.79	21525.91
494.96	21827.84
495.14	21619.53
495.32	21530.59
495.49	21998.70
495.67	21886.35
495.85	22207.00
496.02	22209.34
496.20	22508.93
496.38	22338.07
496.55	22628.30
496.73	23070.66
496.91	22740.64
497.09	23225.14
497.26	23061.30
497.44	23183.01
497.62	23253.22
497.79	23384.29
497.97	23349.18
498.14	23590.26
498.32	23939.00
498.50	23484.94
498.67	23908.57
498.85	23946.02
499.03	24123.90
499.20	24259.65
499.38	23988.15
499.56	24699.67
499.73	24287.74
499.91	24823.72
500.08	24666.91
500.26	24613.07
500.44	24599.03
500.61	24879.89
500.79	24762.87
500.97	24863.51
501.14	25340.98
501.32	25118.63
501.49	25151.40
501.67	25289.49
501.84	25282.47
502.02	25619.50
502.20	25923.77
502.37	25692.06
502.55	25869.94
502.72	26022.08
502.90	26047.82
503.07	26022.08
503.25	26192.94
503.43	26153.15
503.60	26214.00
503.78	26373.16
503.95	26134.42
504.13	26211.66
504.30	26534.65
504.48	26375.50
504.65	26855.31
504.83	26988.72
505.01	27065.96
505.18	27229.79
505.36	27386.61
505.53	27325.75
505.71	27318.73
505.88	27393.63
506.06	27234.47
506.23	27517.68
506.41	27201.71
506.58	27775.14
506.76	27604.28
506.93	28182.39
507.11	28016.21
507.28	28250.27
507.46	27735.35
507.63	27882.80
507.81	28271.33
507.98	28404.74
508.16	28381.34
508.33	28758.16
508.50	28428.15
508.68	28538.15
508.85	28971.15
509.03	28947.75
509.20	28947.75
509.38	29261.38
509.55	29151.37
509.73	29200.52
509.90	29397.13
510.08	29219.25
510.25	29158.39
510.42	29415.85
510.60	29303.51
510.77	29497.77
510.95	29930.77
511.12	29764.59
511.30	30122.69
511.47	30012.69
511.64	29834.81
511.82	30333.34
511.99	30221.00
512.17	30171.85
512.34	30345.05
512.51	30565.06
512.69	30569.74
512.86	30609.53
513.04	30944.22
513.21	30525.27
513.38	30476.12
513.56	30986.35
513.73	30485.48
513.90	30635.27
514.08	30597.82
514.25	30806.13
514.43	31171.25
514.60	31454.46
514.77	31028.48
514.95	31386.58
515.12	31229.77
515.29	31372.54
515.47	31985.76
515.64	31398.29
515.81	31433.39
515.99	31812.56
516.16	31952.99
516.33	31356.16
516.51	32116.83
516.68	31613.62
516.85	31749.37
517.03	31632.34
517.20	31896.82
517.37	32074.70
517.54	32198.75
517.72	32044.27
517.89	31873.42
518.06	32243.22
518.24	32297.05
518.41	32149.60
518.58	32254.92
518.75	32559.19
518.93	32924.32
519.10	32500.68
519.27	32865.80
519.45	32652.81
519.62	32840.06
519.79	33172.41
519.96	33071.77
520.14	33057.73
520.31	33303.48
520.48	33446.26
520.65	33434.55
520.83	33565.62
521.00	33720.10
521.17	33521.15
521.34	33460.30
521.52	33603.07
521.69	33844.15
521.86	34265.44
522.03	34092.24
522.20	33965.85
522.38	34328.64
522.55	34242.04
522.72	34377.79
522.89	34494.82
523.07	34457.37
523.24	34513.54
523.41	34443.32
523.58	34635.25
523.75	35360.81
523.92	35079.95
524.10	34979.31
524.27	35147.82
524.44	34855.26
524.61	34878.66
524.78	35101.01
524.96	35459.12
525.13	35445.07
525.30	35510.61
525.47	35328.05
525.64	35658.06
525.81	35622.95
525.98	35339.75
526.16	35749.34
526.33	35548.06
526.50	35517.63
526.67	34976.97
526.84	35358.47
527.01	35274.21
527.18	36072.34
527.36	35763.39
527.53	36034.89
527.70	36350.86
527.87	36549.81
528.04	36109.78
528.21	36271.28
528.38	36135.53
528.55	36751.09
528.72	36655.13
528.89	36294.69
529.07	36411.71
529.24	36669.17
529.41	36467.89
529.58	36842.37
529.75	36575.55
529.92	36907.91
530.09	36954.72
530.26	36961.74
530.43	36746.41
530.60	36828.33
530.77	37069.40
530.94	37345.59
531.11	36676.19
531.28	37205.16
531.46	37631.13
531.63	37371.33
531.80	37221.54
531.97	37095.15
532.14	37532.83
532.31	37034.30
532.48	37296.44
532.65	37521.13
532.82	37654.54
532.99	37682.62
533.16	37188.77
533.33	37771.57
533.50	37535.17
533.67	37778.59
533.84	37837.10
534.01	37722.41
534.18	38136.69
534.35	37858.17
534.52	38178.82
534.69	37912.00
534.86	38286.48
535.03	38169.46
535.20	38555.64
535.37	38635.22
535.54	38677.35
535.71	38462.02
535.88	38085.20
536.05	38822.47
536.22	38227.97
536.38	38595.43
536.55	38611.82
536.72	38712.46
536.89	38230.31
537.06	38630.54
537.23	38682.03
537.40	38990.98
537.57	38752.25
537.74	38829.49
537.91	39262.49
538.08	38352.02
538.25	39007.37
538.42	39002.69
538.59	39346.75
538.75	39079.92
538.92	39108.01
539.09	39117.37
539.26	38871.62
539.43	39503.56
539.60	39304.62
539.77	39246.10
539.94	39030.77
540.11	39124.40
540.28	39522.29
540.44	39360.79
540.61	39295.25
540.78	39669.74
540.95	39459.09
541.12	39227.38
541.29	39639.31
541.46	39409.94
541.62	39250.78
541.79	39592.50
541.96	39398.24
542.13	39938.90
542.30	40041.88
542.47	39772.72
542.63	39594.84
542.80	40308.71
542.97	40407.01
543.14	40456.16
543.31	40533.40
543.48	40580.21
543.64	40816.60
543.81	40964.06
543.98	40594.25
544.15	40556.80
544.32	40865.75
544.48	40959.38
544.65	40603.61
544.82	41263.64
544.99	40339.13
545.16	40861.07
545.32	40634.04
545.49	40933.63
545.66	41352.58
545.83	41092.79
546.00	41202.79
546.16	40746.39
546.33	41284.71
546.50	40847.03
546.67	41060.02
546.83	40898.52
547.00	41317.48
547.17	40994.48
547.34	40870.43
547.50	41273.01
547.67	41893.25
547.84	41429.82
548.00	41869.84
548.17	41666.22
548.34	41909.63
548.51	41574.94
548.67	41816.01
548.84	41530.47
549.01	41614.72
549.18	41696.64
549.34	41354.93
549.51	41787.92
549.68	41916.65
549.84	41801.97
550.01	42234.97
550.18	41785.58
550.34	42124.96
550.51	41961.12
550.68	41778.56
550.84	41722.39
551.01	42272.42
551.18	42029.00
551.34	42284.12
551.51	42047.72
551.68	41942.40
551.84	42211.56
552.01	42038.36
552.18	42038.36
552.34	42373.06
552.51	42171.77
552.68	42241.99
552.84	42387.10
553.01	42817.76
553.18	42443.27
553.34	42635.20
553.51	42106.24
553.67	42195.18
553.84	43091.60
554.01	42494.77
554.17	42927.77
554.34	42597.75
554.51	42869.25
554.67	43051.81
554.84	42784.99
555.00	42586.05
555.17	42588.39
555.33	42672.65
555.50	42490.09
555.67	42885.64
555.83	42801.38
556.00	42997.98
556.16	43459.07
556.33	43194.59
556.50	42752.23
556.66	42852.87
556.83	42597.75
556.99	43213.31
557.16	43171.18
557.32	43239.06
557.49	42707.76
557.65	42951.17
557.82	43136.07
557.98	42953.51
558.15	43487.15
558.32	43421.62
558.48	43044.79
558.65	42913.72
558.81	43302.25
558.98	43098.62
559.14	43702.48
559.31	43049.47
559.47	43398.21
559.64	43889.73
559.80	43723.55
559.97	43543.33
560.13	43093.94
560.30	42920.74
560.46	43313.95
560.63	43409.92
560.79	43990.37
560.96	43931.86
561.12	43672.06
561.29	43920.15
561.45	43491.83
561.61	43597.16
561.78	43498.86
561.94	43239.06
562.11	43227.35
562.27	43620.56
562.44	43737.59
562.60	43934.20
562.77	43690.78
562.93	43622.90
563.10	43711.84
563.26	43512.90
563.42	43868.66
563.59	43405.23
563.75	43805.47
563.92	43868.66
564.08	44205.70
564.24	44369.54
564.41	43896.75
564.57	43370.13
564.74	43625.25
564.90	43674.40
565.07	43508.22
565.23	44140.16
565.39	44130.80
565.56	43973.98
565.72	43854.62
565.88	44004.41
566.05	43885.04
566.21	44009.09
566.38	43889.73
566.54	43896.75
566.70	44208.04
566.87	44467.84
567.03	44402.30
567.19	44435.07
567.36	43749.29
567.52	44074.63
567.68	44439.75
567.85	43838.23
568.01	44498.26
568.17	44135.48
568.34	44406.98
568.50	44271.23
568.66	44268.89
568.83	44105.06
568.99	43761.00
569.15	43735.25
569.32	44289.96
569.48	43838.23
569.64	44545.08
569.81	44596.57
569.97	44273.57
570.13	44299.32
570.30	43941.22
570.46	44027.82
570.62	43737.59
570.78	44027.82
570.95	43999.73
571.11	44107.40
571.27	44163.57
571.43	43915.47
571.60	44095.69
571.76	44289.96
571.92	44346.13
572.09	44619.97
572.25	44505.29
572.41	44243.15
572.57	44453.79
572.74	44449.11
572.90	44278.25
573.06	44619.97
573.22	44226.76
573.38	44442.09
573.55	44016.11
573.71	44278.25
573.87	44229.10
574.03	44430.39
574.20	44222.08
574.36	44119.10
574.52	44474.86
574.68	44374.22
574.84	44350.81
575.01	44149.53
575.17	44016.11
575.33	44105.06
575.49	44435.07
575.65	44650.40
575.82	44722.96
575.98	44231.44
576.14	44636.36
576.30	44526.35
576.46	44250.17
576.62	44402.30
576.79	44196.34
576.95	44486.56
577.11	44533.37
577.27	44268.89
577.43	44652.74
577.59	44364.85
577.75	44278.25
577.92	43798.44
578.08	43821.85
578.24	44268.89
578.40	44212.72
578.56	44835.30
578.72	44194.00
578.88	44402.30
579.04	44790.83
579.21	44573.16
579.37	44589.55
579.53	44399.96
579.69	44233.78
579.85	44346.13
580.01	44451.45
580.17	44554.44
580.33	44912.54
580.49	44507.63
580.65	45158.30
580.82	44701.89
580.98	44355.49
581.14	44163.57
581.30	44999.14
581.46	44425.71
581.62	44194.00
581.78	44968.71
581.94	44416.35
582.10	44151.87
582.26	44732.32
582.42	44580.18
582.58	44687.85
582.74	44062.93
582.90	44371.88
583.06	44409.32
583.22	44751.04
583.38	45170.00
583.54	44856.37
583.70	44753.38
583.86	44414.01
584.02	44390.60
584.18	44729.98
584.34	44507.63
584.50	44584.86
584.66	44641.04
584.82	44315.70
584.98	44844.66
585.14	44622.31
585.30	44392.94
585.46	44676.15
585.62	44533.37
585.78	44409.32
585.94	44086.33
586.10	44568.48
586.26	44374.22
586.42	44737.00
586.58	44711.25
586.74	44961.69
586.90	44456.14
587.06	44350.81
587.22	44362.51
587.38	44432.73
587.54	44615.29
587.70	44690.19
587.86	44685.51
588.02	44526.35
588.18	44973.39
588.34	44442.09
588.49	43927.17
588.65	44009.09
588.81	44388.26
588.97	44568.48
589.13	44210.38
589.29	44751.04
589.45	44809.56
589.61	44170.59
589.77	44685.51
589.93	44875.09
590.08	44847.00
590.24	44856.37
590.40	45158.30
590.56	45003.82
590.72	45162.98
590.88	44561.46
591.04	45052.97
591.20	45539.80
591.35	45057.65
591.51	45502.35
591.67	45256.60
591.83	44973.39
591.99	44673.81
592.15	44428.05
592.31	44921.90
592.46	44432.73
592.62	44711.25
592.78	45038.93
592.94	45076.38
593.10	45123.19
593.26	44940.63
593.41	44575.50
593.57	44776.79
593.73	44835.30
593.89	44781.47
594.05	45141.91
594.20	44886.79
594.36	45078.72
594.52	44734.66
594.68	44996.80
594.84	44465.50
594.99	45322.13
595.15	44889.13
595.31	45277.66
595.47	45155.96
595.62	45177.02
595.78	45240.21
595.94	45153.62
596.10	45380.65
596.25	44912.54
596.41	45165.32
596.57	44589.55
596.73	45464.91
596.88	44814.24
597.04	45074.04
597.20	45102.12
597.36	44865.73
597.51	45305.75
597.67	45387.67
597.83	45432.14
597.99	45083.40
598.14	44652.74
598.30	45331.50
598.46	44980.42
598.61	44856.37
598.77	44919.56
598.93	44870.41
599.09	45184.04
599.24	45549.17
599.40	45172.34
599.56	45492.99
599.71	45034.25
599.87	45382.99
600.03	44947.65
600.18	45361.92
600.34	45148.93
600.50	45186.38
600.65	44882.11
600.81	45064.67
600.97	44790.83
601.12	44788.49
601.28	45062.33
601.44	45031.91
601.59	44697.21
601.75	44949.99
601.91	44568.48
602.06	44741.68
602.22	45099.78
602.37	45137.23
602.53	44933.60
602.69	45258.94
602.84	44966.37
603.00	44879.77
603.16	45015.52
603.31	44912.54
603.47	45137.23
603.62	44889.13
603.78	45048.29
603.94	44561.46
604.09	44917.22
604.25	44774.45
604.40	44711.25
604.56	45052.97
604.71	45116.17
604.87	45024.89
605.03	44793.17
605.18	45219.15
605.34	44732.32
605.49	44130.80
605.65	44666.78
605.80	44655.08
605.96	44919.56
606.12	44800.19
606.27	45581.93
606.43	44900.84
606.58	44460.82
606.74	44538.05
606.89	45212.13
607.05	44776.79
607.20	44823.60
607.36	44861.05
607.51	44989.78
607.67	44865.73
607.82	44849.35
607.98	44694.87
608.13	44868.07
608.29	44662.10
608.44	44444.43
608.60	44493.58
608.75	44626.99
608.91	44498.26
609.06	44479.54
609.22	44825.94
609.37	44179.95
609.53	44655.08
609.68	44563.80
609.84	44772.11
609.99	44720.62
610.15	44409.32
610.30	44320.38
610.46	43786.74
610.61	44430.39
610.76	44186.97
610.92	44547.42
611.07	44531.03
611.23	44322.72
611.38	44360.17
611.54	44591.89
611.69	44622.31
611.84	43997.39
612.00	43978.67
612.15	44172.93
612.31	44390.60
612.46	44112.08
612.62	44451.45
612.77	44154.21
612.92	44105.06
613.08	43880.36
613.23	44002.07
613.39	44048.88
613.54	43835.89
613.69	44098.03
613.85	43868.66
614.00	43917.81
614.15	44406.98
614.31	43777.38
614.46	44135.48
614.62	44233.78
614.77	43983.35
614.92	43714.19
615.08	43887.39
615.23	43856.96
615.38	43920.15
615.54	43157.14
615.69	43978.67
615.84	43690.78
616.00	44023.14
616.15	43555.03
616.30	44041.86
616.46	43395.87
616.61	43482.47
616.76	43517.58
616.92	43033.09
617.07	43395.87
617.22	43246.08
617.37	43079.90
617.53	43613.54
617.68	43880.36
617.83	43714.19
617.99	43803.13
618.14	43346.72
618.29	43349.06
618.45	43051.81
618.60	43281.19
618.75	43384.17
618.90	43538.65
619.06	43210.97
619.21	43438.00
619.36	43618.22
619.51	43613.54
619.67	43313.95
619.82	43943.56
619.97	43306.93
620.12	43351.40
620.28	43196.93
620.43	42824.78
620.58	43225.01
620.73	43030.75
620.89	43213.31
621.04	42890.32
621.19	43370.13
621.34	43075.22
621.49	42878.61
621.65	42932.45
621.80	42906.70
621.95	42412.85
622.10	42789.67
622.25	42574.34
622.41	42225.60
622.56	42405.83
622.71	42557.96
622.86	42347.31
623.01	42569.66
623.16	42986.28
623.32	42756.91
623.47	42965.21
623.62	42972.24
623.77	42536.90
623.92	42473.70
624.07	42543.92
624.23	42532.22
624.38	42419.87
624.53	42391.78
624.68	42312.20
624.83	42508.81
624.98	42265.39
625.13	42473.70
625.29	42167.09
625.44	42155.39
625.59	42136.66
625.74	41968.15
625.89	41923.68
626.04	41773.88
626.19	42443.27
626.34	42328.59
626.49	41867.50
626.65	42361.36
626.80	42368.38
626.95	42178.79
627.10	41748.14
627.25	41947.08
627.40	41806.65
627.55	41673.24
627.70	41408.76
627.85	41504.72
628.00	41514.08
628.15	41748.14
628.30	41588.98
628.45	41933.04
628.60	41596.00
628.76	41476.63
628.91	41827.71
629.06	41558.55
629.21	41298.75
629.36	41493.02
629.51	41237.90
629.66	41497.70
629.81	41331.52
629.96	41633.45
630.11	41701.32
630.26	41570.25
630.41	41759.84
630.56	41397.06
630.71	41413.44
630.86	41539.83
631.01	40950.01
631.16	41205.13
631.31	40992.14
631.46	41071.72
631.61	40781.49
631.76	41432.16
631.91	41071.72
632.06	41450.89
632.21	41235.56
632.36	41415.78
632.51	40783.83
632.66	41095.13
632.81	40950.01
632.96	40407.01
633.10	41057.68
633.25	40872.78
633.40	40758.09
633.55	41193.43
633.70	40498.29
633.85	40577.87
634.00	40325.09
634.15	41120.87
634.30	40612.98
634.45	40697.24
634.60	40781.49
634.75	40535.74
634.90	40439.78
635.05	40453.82
635.19	40041.88
635.34	40589.57
635.49	40767.45
635.64	40346.15
635.79	39969.33
635.94	40385.94
636.09	40205.72
636.24	40446.80
636.39	40226.79
636.53	40030.18
636.68	40187.00
636.83	40121.46
636.98	40280.62
637.13	39943.58
637.28	40467.86
637.43	39992.73
637.57	40395.31
637.72	40093.38
637.87	40102.74
638.02	40058.27
638.17	40093.38
638.32	39971.67
638.46	39777.40
638.61	40175.30
638.76	40046.57
638.91	39571.44
639.06	40011.46
639.20	39754.00
639.35	39739.96
639.50	39917.84
639.65	39732.93
639.80	39920.18
639.94	39695.49
640.09	39538.67
640.24	39435.69
640.39	39140.78
640.54	39611.23
640.68	39082.27
640.83	39585.48
640.98	39592.50
641.13	39117.37
641.27	39770.38
641.42	39629.95
641.57	39215.68
641.72	39218.02
641.86	39332.70
642.01	38845.87
642.16	39370.15
642.31	39096.31
642.45	39215.68
642.60	39157.16
642.75	38883.32
642.90	39285.89
643.04	38902.04
643.19	39278.87
643.34	39140.78
643.48	38820.13
643.63	38574.37
643.78	39056.52
643.93	39040.14
644.07	38565.01
644.22	38838.85
644.37	38588.41
644.51	39161.84
644.66	38855.23
644.81	38731.18
644.95	39395.90
645.10	38815.44
645.25	39021.41
645.39	38817.78
645.54	38775.66
645.69	38799.06
645.83	39077.58
645.98	38265.42
646.13	38796.72
646.27	39072.90
646.42	38899.70
646.57	38803.74
646.71	38473.73
646.86	38707.78
647.00	39271.85
647.15	38588.41
647.30	38986.30
647.44	38651.61
647.59	38623.52
647.74	38447.98
647.88	38394.15
648.03	38581.39
648.17	38436.28
648.32	37928.38
648.47	38352.02
648.61	38258.40
648.76	38560.33
648.90	38415.21
649.05	38176.48
649.20	38202.22
649.34	38150.73
649.49	38038.39
649.63	38033.71
649.78	37860.51
649.92	38136.69
650.07	38148.39
650.21	38106.26
650.36	38239.67
650.51	38068.81
650.65	38024.34
650.80	38164.78
650.94	38263.08
651.09	37785.61
651.23	37825.40
651.38	37935.40
651.52	37495.38
651.67	37900.29
651.81	37914.34
651.96	37556.24
652.10	37233.24
652.25	37429.85
652.39	37696.67
652.54	37378.36
652.68	38307.55
652.83	38005.62
652.97	38031.36
653.12	37502.40
653.26	37677.94
653.41	37834.76
653.55	37350.27
653.70	37102.17
653.84	37537.51
653.99	37301.12
654.13	37453.25
654.27	37535.17
654.42	37354.95
654.56	37184.09
654.71	37387.72
654.85	37141.96
655.00	37350.27
655.14	37130.26
655.29	36725.35
655.43	36687.90
655.57	36971.10
655.72	36510.02
655.86	36699.60
656.01	36465.55
656.15	36755.77
656.30	36474.91
656.44	36751.09
656.58	36453.84
656.73	36809.61
656.87	36987.49
657.01	36620.02
657.16	36765.14
657.30	36863.44
657.45	36400.01
657.59	37010.89
657.73	36285.33
657.88	36971.10
658.02	36687.90
658.16	36622.36
658.31	36563.85
658.45	36512.36
658.60	36409.37
658.74	36172.98
658.88	36711.30
659.03	36116.81
659.17	36343.84
659.31	35784.45
659.46	36531.08
659.60	36271.28
659.74	36016.16
659.89	36247.88
660.03	36011.48
660.17	35854.67
660.32	36002.12
660.46	36282.98
660.60	35997.44
660.74	35805.52
660.89	35882.75
661.03	35550.40
661.17	35491.88
661.32	35480.18
661.46	35573.80
661.60	35992.76
661.74	36030.21
661.89	35735.30
662.03	35405.28
662.17	35407.62
662.31	34796.74
662.46	35409.96
662.60	35791.47
662.74	35159.53
662.88	34920.79
663.03	35007.39
663.17	34623.54
663.31	34906.75
663.45	35115.06
663.60	34782.70
663.74	35056.54
663.88	34986.33
664.02	34721.85
664.17	34426.94
664.31	34668.02
664.45	34415.24
664.59	34951.22
664.73	34698.44
664.88	34347.36
665.02	34473.75
665.16	34595.46
665.30	34323.96
665.44	34181.18
665.59	34059.48
665.73	34038.41
665.87	34370.77
666.01	33923.72
666.15	34129.69
666.29	33919.04
666.44	34314.59
666.58	34096.92
666.72	34258.42
666.86	33773.93
667.00	33975.22
667.14	33483.70
667.28	33820.74
667.43	33556.26
667.57	33778.61
667.71	33282.42
667.85	33645.20
667.99	33371.36
668.13	32837.72
668.27	33298.80
668.41	33493.07
668.56	32496.00
668.70	33490.73
668.84	33324.55
668.98	32591.96
669.12	33001.55
669.26	32996.87
669.40	32648.13
669.54	32746.44
669.68	33041.34
669.82	32645.79
669.96	32545.15
670.10	32100.45
670.25	32884.53
670.39	32538.13
670.53	31761.07
670.67	31805.54
670.81	32500.68
670.95	32334.50
671.09	32044.27
671.23	32561.53
671.37	31957.67
671.51	32020.87
671.65	31805.54
671.79	31679.15
671.93	31676.81
672.07	32109.81
672.21	32149.60
672.35	31709.58
672.49	31438.08
672.63	32177.68
672.77	31070.61
672.91	31344.45
673.05	31395.95
673.19	31065.93
673.33	30890.39
673.47	31206.36
673.61	31002.74
673.75	30881.03
673.89	30913.80
674.03	30899.75
674.17	30932.52
674.31	30745.28
674.45	30911.46
674.59	30866.98
674.73	30771.02
674.87	30412.92
675.01	30359.09
675.15	30630.59
675.29	30696.13
675.43	30572.08
675.56	30342.70
675.70	30122.69
675.84	29832.47
675.98	29567.99
676.12	29993.97
676.26	29975.24
676.40	29771.61
676.54	29649.91
676.68	29598.41
676.82	28804.97
676.96	29415.85
677.10	29347.98
677.23	29315.21
677.37	29130.31
677.51	28978.17
677.65	29158.39
677.79	28851.78
677.93	28924.34
678.07	28313.46
678.21	28409.42
678.34	28418.78
678.48	28180.05
678.62	28105.15
678.76	28051.32
678.90	27807.90
679.04	27892.16
679.18	27999.83
679.31	27714.28
679.45	27824.29
679.59	27597.26
679.73	27576.19
679.87	27447.46
680.00	27442.78
680.14	27447.46
680.28	27398.31
680.42	27505.98
680.56	27428.74
680.70	27014.46
680.83	27417.04
680.97	27168.94
681.11	27058.93
681.25	26829.56
681.39	26590.83
681.52	26829.56
681.66	26618.91
681.80	26490.18
681.94	26548.70
682.07	26164.85
682.21	26237.41
682.35	26127.40
682.49	26274.85
682.62	26398.90
682.76	25979.95
682.90	25553.97
683.04	25525.88
683.17	25355.02
683.31	25516.52
683.45	25446.30
683.59	25352.68
683.72	25336.30
683.86	25102.25
684.00	25245.02
684.13	24985.22
684.27	24842.45
684.41	24954.79
684.55	24479.66
684.68	24222.20
684.82	25034.37
684.96	24769.89
685.09	24519.45
685.23	24606.05
685.37	24379.02
685.50	24383.70
685.64	24421.15
685.78	24217.52
685.91	24116.88
686.05	23962.40
686.19	23538.77
686.32	23571.54
686.46	23267.27
686.60	23065.98
686.73	23145.56
686.87	23278.97
687.01	22860.01
687.14	23035.55
687.28	22906.82
687.42	23089.38
687.55	23197.05
687.69	22923.21
687.82	22712.56
687.96	22988.74
688.10	22740.64
688.23	22209.34
688.37	22150.83
688.50	22169.55
688.64	22270.20
688.78	22305.31
688.91	22129.77
689.05	22129.77
689.18	22082.95
689.32	21893.37
689.46	21397.18
689.59	21855.92
689.73	21764.64
689.86	21881.67
690.00	21610.17
690.13	21759.96
690.27	21238.02
690.41	21146.74
690.54	20917.37
690.68	21116.31
690.81	20893.96
690.95	21034.39
691.08	20723.10
691.22	21128.02
691.35	20966.52
691.49	21039.08
691.62	20781.62
691.76	20498.41
691.89	20313.51
692.03	20044.35
692.16	20294.79
692.30	19999.88
692.43	19852.42
692.57	19929.66
692.70	19658.16
692.84	19784.55
692.97	19723.69
693.11	19344.53
693.24	19475.60
693.38	19213.46
693.51	19096.43
693.65	19489.64
693.78	19606.67
693.92	19548.15
694.05	19482.62
694.19	19372.61
694.32	19318.78
694.45	18995.79
694.59	18520.66
694.72	18539.38
694.86	18724.29
694.99	18574.49
695.13	18497.25
695.26	18703.22
695.39	18155.54
695.53	18534.70
695.66	18092.34
695.80	18356.82
695.93	18235.11
696.07	17980.00
696.20	18104.04
696.33	18054.89
696.47	17895.74
696.60	17788.07
696.73	17621.89
696.87	17371.46
697.00	17727.22
697.14	17750.62
697.27	17429.97
697.40	17579.76
697.54	17530.61
697.67	17261.45
697.80	17064.85
697.94	16877.60
698.07	16758.24
698.21	16978.25
698.34	16959.52
698.47	16498.44
698.61	16374.39
698.74	16255.02
698.87	16650.57
699.01	15934.37
699.14	15861.81
699.27	16044.37
699.40	16049.05
699.54	15920.32
699.67	15948.41
699.80	15960.11
699.94	15997.56
700.07	15831.38
700.20	15594.99
700.34	15506.05
700.47	15740.10
700.60	15770.53
700.73	15817.34
700.87	15510.73
701.00	15630.10
701.13	15286.04
701.26	15272.00
701.40	15108.16
701.53	14970.07
701.66	15054.33
701.79	15056.67
701.93	14930.28
702.06	14977.09
702.19	14923.26
702.32	14913.89
702.46	14677.50
702.59	14511.32
702.72	14579.20
702.85	14621.33
702.99	14574.52
703.12	14324.08
703.25	14115.77
703.38	14382.59
703.51	14134.50
703.65	14125.13
703.78	13870.01
703.91	14066.62
704.04	13928.53
704.17	13877.04
704.31	13998.74
704.44	13806.82
704.57	13654.69
704.70	13715.54
704.83	13441.70
704.96	13764.69
705.10	13504.89
705.23	13577.45
>>>>>End Processed Spectral Data<<<<<
