SpectraSuite Data File
++++++++++++++++++++++++++++++++++++
Date: Fri Oct 25 10:46:55 EDT 2013
User: price-jones
Dark Spectrum Present: No
Reference Spectrum Present: No
Number of Sampled Component Spectra: 1
Spectrometers: USB2+H05261
Integration Time (usec): 100000 (USB2+H05261)
Spectra Averaged: 1 (USB2+H05261)
Boxcar Smoothing: 0 (USB2+H05261)
Correct for Electrical Dark: No (USB2+H05261)
Strobe/Lamp Enabled: No (USB2+H05261)
Correct for Detector Non-linearity: No (USB2+H05261)
Correct for Stray Light: No (USB2+H05261)
Number of Pixels in Processed Spectrum: 2048
>>>>>Begin Processed Spectral Data<<<<<
365.73	159.16
365.92	159.16
366.12	159.16
366.32	2.34
366.52	0.00
366.72	95.96
366.91	25.75
367.11	112.35
367.31	25.75
367.51	18.72
367.70	25.75
367.90	0.00
368.10	32.77
368.30	67.88
368.49	56.17
368.69	37.45
368.89	0.00
369.09	46.81
369.28	32.77
369.48	0.00
369.68	65.54
369.87	114.69
370.07	63.19
370.27	67.88
370.47	184.90
370.66	414.27
370.86	449.38
371.06	486.83
371.25	458.74
371.45	430.66
371.65	407.25
371.84	510.24
372.04	547.69
372.24	496.19
372.44	514.92
372.63	573.43
372.83	540.66
373.03	543.00
373.22	524.28
373.42	573.43
373.62	489.17
373.81	573.43
374.01	585.13
374.21	557.05
374.40	564.07
374.60	550.03
374.79	587.47
374.99	636.63
375.19	561.73
375.38	634.29
375.58	645.99
375.78	648.33
375.97	636.63
376.17	636.63
376.37	650.67
376.56	620.24
376.76	610.88
376.95	669.39
377.15	601.52
377.35	655.35
377.54	709.18
377.74	638.97
377.93	737.27
378.13	695.14
378.33	667.05
378.52	683.44
378.72	709.18
378.91	650.67
379.11	643.65
379.31	702.16
379.50	631.94
379.70	650.67
379.89	704.50
380.09	699.82
380.28	702.16
380.48	690.46
380.68	723.23
380.87	702.16
381.07	718.54
381.26	699.82
381.46	758.33
381.65	758.33
381.85	716.20
382.04	744.29
382.24	702.16
382.43	734.93
382.63	730.25
382.83	723.23
383.02	798.12
383.22	830.89
383.41	739.61
383.61	755.99
383.80	760.67
384.00	802.80
384.19	683.44
384.39	781.74
384.58	849.61
384.78	793.44
384.97	821.53
385.17	849.61
385.36	805.14
385.56	858.98
385.75	781.74
385.95	849.61
386.14	842.59
386.34	875.36
386.53	856.64
386.72	800.46
386.92	777.06
387.11	868.34
387.31	901.11
387.50	901.11
387.70	835.57
387.89	889.40
388.09	926.85
388.28	826.21
388.48	873.02
388.67	1039.20
388.86	968.98
389.06	894.08
389.25	1032.18
389.45	931.53
389.64	903.45
389.84	971.32
390.03	950.26
390.22	973.66
390.42	994.73
390.61	983.02
390.81	1011.11
391.00	1027.50
391.19	1083.67
391.39	1043.88
391.58	994.73
391.78	1025.15
391.97	1095.37
392.16	1032.18
392.36	1102.39
392.55	980.68
392.75	1022.81
392.94	1020.47
393.13	1076.65
393.33	985.37
393.52	1053.24
393.71	1125.80
393.91	1151.54
394.10	1151.54
394.29	1097.71
394.49	1128.14
394.68	1193.67
394.88	1233.46
395.07	1313.04
395.26	1200.69
395.46	1313.04
395.65	1221.76
395.84	1233.46
396.04	1268.57
396.23	1240.48
396.42	1249.85
396.62	1299.00
396.81	1207.72
397.00	1221.76
397.19	1256.87
397.39	1397.30
397.58	1376.24
397.77	1423.05
397.97	1416.02
398.16	1416.02
398.35	1465.18
398.55	1324.74
398.74	1437.09
398.93	1500.28
399.12	1507.30
399.32	1486.24
399.51	1568.16
399.70	1511.99
399.90	1516.67
400.09	1629.01
400.28	1647.74
400.47	1586.88
400.67	1565.82
400.86	1657.10
401.05	1692.21
401.24	1724.97
401.44	1640.72
401.63	1764.76
401.82	1605.61
402.01	1685.19
402.21	1762.42
402.40	1753.06
402.59	1614.97
402.78	1624.33
402.97	1771.79
403.17	1764.76
403.36	1806.89
403.55	1769.44
403.74	1844.34
403.93	1884.13
404.13	1844.34
404.32	1844.34
404.51	1853.70
404.70	1959.03
404.89	1975.41
405.09	2022.22
405.28	1914.56
405.47	1902.86
405.66	1921.58
405.85	2050.31
406.05	1912.22
406.24	1944.99
406.43	1949.67
406.62	2106.48
406.81	2108.82
407.00	1996.48
407.20	2003.50
407.39	1968.39
407.58	2207.13
407.77	2111.16
407.96	2132.23
408.15	2223.51
408.34	2200.10
408.54	2286.70
408.73	2249.25
408.92	2211.81
409.11	2321.81
409.30	2429.48
409.49	2356.92
409.68	2232.87
409.87	2354.58
410.07	2345.22
410.26	2272.66
410.45	2356.92
410.64	2401.39
410.83	2457.56
411.02	2361.60
411.21	2499.69
411.40	2579.27
411.59	2516.08
411.78	2605.02
411.98	2605.02
412.17	2593.31
412.36	2572.25
412.55	2679.91
412.74	2747.79
412.93	2686.94
413.12	2635.44
413.31	2759.49
413.50	2752.47
413.69	2855.45
413.88	2944.39
414.07	2850.77
414.26	2839.07
414.45	2946.73
414.64	3054.40
414.83	3005.25
415.02	2986.52
415.22	3054.40
415.41	2993.55
415.60	3033.33
415.79	3190.15
415.98	3229.94
416.17	3117.59
416.36	3148.02
416.55	3227.60
416.74	3272.07
416.93	3272.07
417.12	3225.26
417.31	3330.58
417.50	3398.46
417.69	3396.12
417.88	3435.91
418.07	3377.39
418.26	3435.91
418.45	3492.08
418.64	3585.70
418.83	3613.79
419.02	3440.59
419.21	3496.76
419.39	3571.66
419.58	3389.10
419.77	3421.86
419.96	3574.00
420.15	3609.11
420.34	3667.62
420.53	3775.28
420.72	3775.28
420.91	3775.28
421.10	3899.33
421.29	3765.92
421.48	3871.25
421.67	3882.95
421.86	3779.97
422.05	3782.31
422.24	3733.15
422.43	3686.34
422.61	3770.60
422.80	3861.88
422.99	3892.31
423.18	3950.82
423.37	3960.19
423.56	3885.29
423.75	3761.24
423.94	3894.65
424.13	3646.55
424.32	3740.18
424.50	3845.50
424.69	4011.68
424.88	3997.64
425.07	4004.66
425.26	3808.05
425.45	3836.14
425.64	4025.72
425.83	3836.14
426.01	4070.19
426.20	3992.95
426.39	4053.81
426.58	3957.85
426.77	3754.22
426.96	3985.93
427.15	4037.42
427.33	4088.92
427.52	4065.51
427.71	3875.93
427.90	4189.56
428.09	4060.83
428.28	4067.85
428.46	4042.11
428.65	4231.69
428.84	4112.32
429.03	4175.52
429.22	3974.23
429.40	4063.17
429.59	4072.53
429.78	3974.23
429.97	3927.42
430.16	4147.43
430.34	4159.13
430.53	4107.64
430.72	4262.12
430.91	4135.73
431.10	4283.18
431.28	4482.13
431.47	4440.00
431.66	4652.98
431.85	4475.10
432.03	4578.09
432.22	4674.05
432.41	4615.54
432.60	4660.01
432.79	4571.07
432.97	4847.25
433.16	4566.39
433.35	4533.62
433.54	4561.70
433.72	4620.22
433.91	4620.22
434.10	4552.34
434.28	4669.37
434.47	4737.24
434.66	4765.33
434.85	4791.08
435.03	4961.94
435.22	4833.21
435.41	5156.20
435.59	5004.07
435.78	5144.50
435.97	5146.84
436.16	5036.83
436.34	5025.13
436.53	5172.58
436.72	5231.10
436.90	5142.16
437.09	5076.62
437.28	4917.47
437.46	5153.86
437.65	5200.67
437.84	5053.22
438.02	5207.69
438.21	5160.88
438.40	5053.22
438.58	5336.42
438.77	5406.64
438.96	5432.38
439.14	5380.89
439.33	5514.30
439.52	5593.88
439.70	5638.35
439.89	5713.25
440.08	5544.73
440.26	5563.45
440.45	5575.16
440.63	5607.92
440.82	5905.17
441.01	5863.04
441.19	5865.38
441.38	6080.71
441.57	5949.64
441.75	6204.76
441.94	6263.27
442.12	6181.35
442.31	6239.87
442.50	6274.98
442.68	6204.76
442.87	6352.21
443.05	6232.85
443.24	6345.19
443.43	6389.66
443.61	6195.40
443.80	6492.65
443.98	6340.51
444.17	6033.90
444.35	6459.88
444.54	6438.81
444.73	6553.50
444.91	6408.39
445.10	6174.33
445.28	6282.00
445.47	6370.94
445.65	6307.74
445.84	6480.94
446.02	6544.14
446.21	6410.73
446.39	6427.11
446.58	6609.67
446.77	6506.69
446.95	6511.37
447.14	6555.84
447.32	6621.38
447.51	6555.84
447.69	6586.27
447.88	6462.22
448.06	6707.98
448.25	6700.95
448.43	6614.35
448.62	6670.53
448.80	6712.66
448.99	6698.61
449.17	6740.74
449.36	6874.15
449.54	6860.11
449.73	6927.99
449.91	6878.83
450.10	6946.71
450.28	7021.61
450.46	7082.46
450.65	7178.42
450.83	7241.62
451.02	7194.81
451.20	7117.57
451.39	7171.40
451.57	7129.27
451.76	7194.81
451.94	7236.94
452.13	7321.20
452.31	7236.94
452.49	7129.27
452.68	7138.63
452.86	7073.10
453.05	7272.04
453.23	7206.51
453.42	7042.67
453.60	7276.73
453.78	7400.77
453.97	7321.20
454.15	7470.99
454.34	7433.54
454.52	7499.08
454.70	7370.35
454.89	7541.21
455.07	7466.31
455.26	7683.98
455.44	7658.23
455.62	7599.72
455.81	7751.85
455.99	7899.31
456.17	7744.83
456.36	7852.50
456.54	7793.98
456.73	7925.05
456.91	7957.82
457.09	8091.23
457.28	8154.43
457.46	7864.20
457.64	8107.62
457.83	8112.30
458.01	7775.26
458.19	8168.47
458.38	8079.53
458.56	7950.80
458.74	7932.08
458.93	8004.63
459.11	8198.90
459.29	8241.03
459.48	8313.58
459.66	8386.14
459.84	8215.28
460.03	8262.09
460.21	8360.39
460.39	8477.42
460.57	8421.25
460.76	8634.24
460.94	8428.27
461.12	8493.80
461.31	8709.13
461.49	8514.87
461.67	8564.02
461.85	8863.61
462.04	8716.16
462.22	9170.22
462.40	8826.16
462.59	8847.22
462.77	8751.26
462.95	8781.69
463.13	9029.79
463.32	8788.71
463.50	8964.25
463.68	8997.02
463.86	8861.27
464.05	8669.34
464.23	8823.82
464.41	8676.37
464.59	8898.72
464.78	9200.65
464.96	8791.05
465.14	8847.22
465.32	9160.86
465.50	9228.73
465.69	9280.22
465.87	9200.65
466.05	9125.75
466.23	8980.64
466.41	9245.12
466.60	9371.50
466.78	9011.06
466.96	9327.03
467.14	9179.58
467.32	9172.56
467.51	9523.64
467.69	9036.81
467.87	9266.18
468.05	9329.38
468.23	9371.50
468.41	9298.95
468.60	9467.47
468.78	9441.72
468.96	9460.45
469.14	9537.68
469.32	9551.73
469.50	9584.49
469.69	9572.79
469.87	9650.03
470.05	9764.72
470.23	9792.80
470.41	9577.47
470.59	9942.60
470.77	9848.97
470.95	9753.01
471.14	9788.12
471.32	9755.35
471.50	10164.95
471.68	10057.28
471.86	10312.40
472.04	10251.55
472.22	10501.98
472.40	10101.75
472.58	10298.36
472.77	10396.66
472.95	10431.77
473.13	10771.15
473.31	10492.62
473.49	10406.02
473.67	10450.49
473.85	10747.74
474.03	10904.56
474.21	10785.19
474.39	10984.13
474.57	10817.96
474.75	11082.44
474.93	11101.16
475.12	10967.75
475.30	11180.74
475.48	11162.01
475.66	11140.95
475.84	11396.07
476.02	11405.43
476.20	11375.00
476.38	11496.71
476.56	11658.21
476.74	11510.75
476.92	11641.82
477.10	11887.58
477.28	11786.94
477.46	11868.86
477.64	12044.40
477.82	12369.73
478.00	12444.63
478.18	12540.59
478.36	12451.65
478.54	12496.12
478.72	12901.03
478.90	12807.41
479.08	12966.57
479.26	13282.54
479.44	13032.10
479.62	13160.83
479.80	13167.85
479.98	13078.91
480.16	13598.51
480.34	13348.08
480.52	13467.44
480.70	13631.28
480.88	13448.72
481.06	13626.60
481.24	14029.17
481.41	14284.29
481.59	14373.23
481.77	14328.76
481.95	14600.26
482.13	14197.69
482.31	14551.11
482.49	14663.46
482.67	14640.05
482.85	14691.54
483.03	15000.49
483.21	15234.55
483.39	15300.08
483.57	15424.13
483.74	15431.15
483.92	15477.96
484.10	15351.57
484.28	15683.93
484.46	16271.40
484.64	16159.06
484.82	15840.75
485.00	16189.49
485.18	16425.88
485.35	16472.69
485.53	16093.52
485.71	16297.15
485.89	16301.83
486.07	16343.96
486.25	16566.31
486.43	16772.28
486.61	17041.44
486.78	17067.19
486.96	17249.75
487.14	17614.87
487.32	17572.74
487.50	17811.48
487.68	17788.07
487.85	18328.74
488.03	18260.86
488.21	18574.49
488.39	18607.26
488.57	18443.42
488.75	18712.58
488.92	19049.62
489.10	19215.80
489.28	19250.91
489.46	19548.15
489.64	19314.10
489.81	19964.77
489.99	20027.96
490.17	20163.72
490.35	20425.86
490.53	20102.86
490.70	20669.27
490.88	20215.21
491.06	20929.07
491.24	20830.77
491.41	20659.91
491.59	20720.76
491.77	20872.90
491.95	21245.04
492.13	21046.10
492.30	21401.86
492.48	21764.64
492.66	21542.29
492.84	21806.77
493.01	21991.67
493.19	22221.05
493.37	21841.88
493.54	22370.84
493.72	22492.55
493.90	22588.51
494.08	23019.17
494.25	22637.66
494.43	22890.44
494.61	23012.15
494.79	23388.97
494.96	23058.96
495.14	23278.97
495.32	23239.18
495.49	23655.79
495.67	23686.22
495.85	23896.87
496.02	24081.77
496.20	23831.33
496.38	24013.90
496.55	24292.42
496.73	24978.20
496.91	24760.53
497.09	25118.63
497.26	24961.81
497.44	24886.92
497.62	24865.85
497.79	25193.53
497.97	25322.26
498.14	25640.57
498.32	25338.64
498.50	25259.06
498.67	25991.65
498.85	25434.60
499.03	26267.83
499.20	26218.68
499.38	26185.91
499.56	26199.96
499.73	26473.80
499.91	26235.06
500.08	26838.92
500.26	26356.77
500.44	26480.82
500.61	26504.23
500.79	26382.52
500.97	26766.37
501.14	26850.63
501.32	26831.90
501.49	26796.79
501.67	27194.68
501.84	27110.43
502.02	27166.60
502.20	27606.62
502.37	27384.27
502.55	27772.80
502.72	27807.90
502.90	28395.38
503.07	27777.48
503.25	28184.73
503.43	27854.72
503.60	28161.33
503.78	28034.94
503.95	28247.93
504.13	28371.97
504.30	28891.57
504.48	28699.65
504.65	28929.02
504.83	28730.08
505.01	29228.61
505.18	28938.38
505.36	29387.77
505.53	29207.55
505.71	29577.35
505.88	30092.27
506.06	29207.55
506.23	29221.59
506.41	29308.19
506.58	29631.18
506.76	29853.53
506.93	30054.82
507.11	29970.56
507.28	30141.42
507.46	29949.50
507.63	29729.48
507.81	30202.27
507.98	30188.23
508.16	30377.81
508.33	30183.55
508.50	30302.92
508.68	30834.22
508.85	31068.27
509.03	30890.39
509.20	30728.89
509.38	31147.85
509.55	31194.66
509.73	31639.36
509.90	31615.96
510.08	30993.37
510.25	31248.49
510.42	31370.20
510.60	31611.28
510.77	31653.40
510.95	32105.13
511.12	32002.14
511.30	31908.52
511.47	32252.58
511.64	32439.82
511.82	32418.76
511.99	32182.37
512.17	32233.86
512.34	32236.20
512.51	32690.26
512.69	32395.35
512.86	32868.14
513.04	32933.68
513.21	32818.99
513.38	32795.59
513.56	32704.31
513.73	32903.25
513.90	32811.97
514.08	33163.05
514.25	33174.75
514.43	33172.41
514.60	33467.32
514.77	33198.16
514.95	33759.89
515.12	34050.11
515.29	33577.33
515.47	33614.77
515.64	34422.26
515.81	33830.10
515.99	33584.35
516.16	33308.16
516.33	33535.20
516.51	33617.11
516.68	33647.54
516.85	33450.94
517.03	33677.97
517.20	33680.31
517.37	33942.45
517.54	34022.03
517.72	34359.06
517.89	34356.72
518.06	33907.34
518.24	34284.17
518.41	34286.51
518.58	34253.74
518.75	34459.71
518.93	34747.59
519.10	34890.37
519.27	35086.97
519.45	35204.00
519.62	35255.49
519.79	34890.37
519.96	35077.61
520.14	35690.83
520.31	35351.45
520.48	35164.21
520.65	35140.80
520.83	36095.74
521.00	35988.08
521.17	35597.21
521.34	36070.00
521.52	36723.01
521.69	36170.64
521.86	36259.58
522.03	36196.38
522.20	36456.18
522.38	35985.74
522.55	36411.71
522.72	36318.09
522.89	36533.42
523.07	36783.86
523.24	36725.35
523.41	36582.57
523.58	36481.93
523.75	37596.03
523.92	37338.57
524.10	37172.39
524.27	37078.77
524.44	37148.98
524.61	37329.20
524.78	37495.38
524.96	37694.33
525.13	37642.84
525.30	38185.84
525.47	38064.13
525.64	37811.35
525.81	37509.43
525.98	37895.61
526.16	37219.20
526.33	37504.74
526.50	37624.11
526.67	36940.68
526.84	37301.12
527.01	37214.52
527.18	37638.15
527.36	38033.71
527.53	38096.90
527.70	38630.54
527.87	38232.65
528.04	38447.98
528.21	38422.23
528.38	38515.86
528.55	38855.23
528.72	38682.03
528.89	38689.06
529.07	38735.87
529.24	38466.70
529.41	39105.67
529.58	38859.91
529.75	38834.17
529.92	38876.30
530.09	38705.44
530.26	38965.24
530.43	39433.35
530.60	39089.29
530.77	39089.29
530.94	39531.65
531.11	39360.79
531.28	39332.70
531.46	39466.11
531.63	39700.17
531.80	39445.05
531.97	39480.16
532.14	39466.11
532.31	39519.95
532.48	39613.57
532.65	39379.51
532.82	39278.87
532.99	39966.99
533.16	39335.04
533.33	40177.64
533.50	40002.10
533.67	40032.52
533.84	39981.03
534.01	40430.41
534.18	40142.53
534.35	40301.68
534.52	40292.32
534.69	40631.70
534.86	40329.77
535.03	40161.25
535.20	40566.16
535.37	40996.82
535.54	40517.01
535.71	40669.15
535.88	40566.16
536.05	40629.36
536.22	40687.87
536.38	41258.96
536.55	40624.68
536.72	40842.35
536.89	40786.18
537.06	40758.09
537.23	41048.32
537.40	40722.98
537.57	40526.38
537.74	41226.20
537.91	41394.71
538.08	41535.15
538.25	41212.15
538.42	41553.87
538.59	41422.80
538.75	41179.39
538.92	41521.10
539.09	41682.60
539.26	41715.37
539.43	41212.15
539.60	41469.61
539.77	41446.21
539.94	41209.81
540.11	41441.53
540.28	41586.64
540.44	41542.17
540.61	42052.41
540.78	41624.09
540.95	41858.14
541.12	41710.69
541.29	41762.18
541.46	41434.50
541.62	42038.36
541.79	41731.75
541.96	42043.04
542.13	42241.99
542.30	41984.53
542.47	42017.30
542.63	41888.57
542.80	42497.11
542.97	42724.14
543.14	42988.62
543.31	43124.37
543.48	42735.84
543.64	43367.79
543.81	42979.26
543.98	42595.41
544.15	43065.86
544.32	42859.89
544.48	43196.93
544.65	42962.87
544.82	42923.08
544.99	42665.63
545.16	43222.67
545.32	42733.50
545.49	43199.27
545.66	43330.34
545.83	43096.28
546.00	43405.23
546.16	42806.06
546.33	43089.26
546.50	42990.96
546.67	43342.04
546.83	43470.77
547.00	43650.99
547.17	43225.01
547.34	43480.13
547.50	43143.09
547.67	43756.32
547.84	43604.18
548.00	43756.32
548.17	43826.53
548.34	43810.15
548.51	44039.52
548.67	43966.96
548.84	43765.68
549.01	44016.11
549.18	43859.30
549.34	43283.53
549.51	44121.44
549.68	44046.54
549.84	44519.33
550.01	44680.83
550.18	44130.80
550.34	44673.81
550.51	44135.48
550.68	43821.85
550.84	44030.16
551.01	44472.52
551.18	43950.58
551.34	43955.26
551.51	44289.96
551.68	44577.84
551.84	44449.11
552.01	44065.27
552.18	44353.15
552.34	44350.81
552.51	43878.02
552.68	44650.40
552.84	44683.17
553.01	44921.90
553.18	44971.05
553.34	44470.18
553.51	44538.05
553.67	44528.69
553.84	45170.00
554.01	45216.81
554.17	45069.36
554.34	45200.43
554.51	44556.78
554.67	45198.09
554.84	44800.19
555.00	44893.82
555.17	44786.15
555.33	45226.17
555.50	45008.50
555.67	44938.29
555.83	44928.92
556.00	44774.45
556.16	44931.26
556.33	45069.36
556.50	44910.20
556.66	45418.10
556.83	45127.87
556.99	45256.60
557.16	45223.83
557.32	45125.53
557.49	45242.56
557.65	44694.87
557.82	45366.60
557.98	45013.18
558.15	45057.65
558.32	45141.91
558.48	44999.14
558.65	45427.46
558.81	45219.15
558.98	45195.74
559.14	45106.80
559.31	45015.52
559.47	45347.88
559.64	45628.74
559.80	45521.08
559.97	45862.80
560.13	45352.56
560.30	45492.99
560.46	45918.97
560.63	45698.96
560.79	45621.72
560.96	45570.23
561.12	45619.38
561.29	45420.44
561.45	45551.51
561.61	45532.78
561.78	45708.32
561.94	45380.65
562.11	45603.00
562.27	45467.25
562.44	45624.06
562.60	45844.07
562.77	45851.09
562.93	45703.64
563.10	45832.37
563.26	45474.27
563.42	46089.83
563.59	45956.42
563.75	46038.34
563.92	46569.64
564.08	45947.06
564.24	46241.96
564.41	45937.69
564.57	45755.13
564.74	45663.85
564.90	45741.09
565.07	45968.12
565.23	45815.99
565.39	45572.57
565.56	46113.23
565.72	45947.06
565.88	45729.39
566.05	45780.88
566.21	46075.79
566.38	45759.81
566.54	45930.67
566.70	46134.30
566.87	46529.85
567.03	45993.87
567.19	46377.72
567.36	46087.49
567.52	45801.94
567.68	46174.09
567.85	45729.39
568.01	46316.86
568.17	46073.45
568.34	46380.06
568.50	46246.65
568.66	46014.93
568.83	45975.14
568.99	45827.69
569.15	46241.96
569.32	45801.94
569.48	45801.94
569.64	46576.66
569.81	46026.63
569.97	46422.19
570.13	46211.54
570.30	46101.53
570.46	45682.58
570.62	45911.95
570.78	45979.82
570.95	46096.85
571.11	46038.34
571.27	45867.48
571.43	45888.54
571.60	46454.95
571.76	46244.30
571.92	45965.78
572.09	46199.83
572.25	46206.86
572.41	46356.65
572.57	46305.16
572.74	46646.88
572.90	46337.93
573.06	46101.53
573.22	46321.54
573.38	46146.00
573.55	46316.86
573.71	46579.00
573.87	46160.05
574.03	46211.54
574.20	46476.02
574.36	45893.22
574.52	46490.06
574.68	46059.40
574.84	46405.80
575.01	46274.73
575.17	46115.58
575.33	46218.56
575.49	45729.39
575.65	46466.66
575.82	46291.12
575.98	46546.23
576.14	46401.12
576.30	46607.09
576.46	46146.00
576.62	46202.18
576.79	46394.10
576.95	45951.74
577.11	46607.09
577.27	45940.04
577.43	46384.74
577.59	46536.87
577.75	46466.66
577.92	46087.49
578.08	46019.61
578.24	46263.03
578.40	46611.77
578.56	46560.28
578.72	46724.11
578.88	46419.84
579.04	46117.92
579.21	46579.00
579.37	46431.55
579.53	46469.00
579.69	46045.36
579.85	46658.58
580.01	46845.82
580.17	46106.21
580.33	46403.46
580.49	46583.68
580.65	46209.20
580.82	46483.04
580.98	46497.08
581.14	46185.79
581.30	46515.81
581.46	47009.66
581.62	46499.42
581.78	46183.45
581.94	46983.91
582.10	46632.83
582.26	46445.59
582.42	46220.90
582.58	46513.47
582.74	46246.65
582.90	46349.63
583.06	46754.54
583.22	46630.49
583.38	46646.88
583.54	46419.84
583.70	46674.96
583.86	46040.68
584.02	46181.11
584.18	46410.48
584.34	46822.42
584.50	46534.53
584.66	46396.44
584.82	46670.28
584.98	46660.92
585.14	46246.65
585.30	46553.26
585.46	46555.60
585.62	46548.57
585.78	46529.85
585.94	46094.51
586.10	46466.66
586.26	46232.60
586.42	46967.53
586.58	46639.86
586.74	46754.54
586.90	46300.48
587.06	46263.03
587.22	46562.62
587.38	46480.70
587.54	46646.88
587.70	46660.92
587.86	46728.80
588.02	46443.25
588.18	46649.22
588.34	46806.03
588.49	46483.04
588.65	45724.71
588.81	46167.07
588.97	46078.13
589.13	46110.89
589.29	46162.39
589.45	46571.98
589.61	46431.55
589.77	46859.87
589.93	46752.20
590.08	46731.14
590.24	47042.43
590.40	46951.15
590.56	46873.91
590.72	46864.55
590.88	46532.19
591.04	46429.21
591.20	46754.54
591.35	46691.35
591.51	47023.70
591.67	46717.09
591.83	46487.72
591.99	46630.49
592.15	46265.37
592.31	46960.51
592.46	46389.42
592.62	46525.17
592.78	47103.28
592.94	47208.61
593.10	46579.00
593.26	46962.85
593.41	46412.82
593.57	46986.25
593.73	46663.26
593.89	46628.15
594.05	46471.34
594.20	46326.22
594.36	46347.29
594.52	46256.01
594.68	46628.15
594.84	47030.72
594.99	47021.36
595.15	46791.99
595.31	46756.88
595.47	46831.78
595.62	47016.68
595.78	47185.20
595.94	46932.42
596.10	47072.85
596.25	46920.72
596.41	46546.23
596.57	46630.49
596.73	47124.35
596.88	46396.44
597.04	46630.49
597.20	46916.04
597.36	46756.88
597.51	46894.97
597.67	46791.99
597.83	46958.17
597.99	46913.70
598.14	46635.17
598.30	46611.77
598.46	46925.40
598.61	46550.91
598.77	46897.31
598.93	47131.37
599.09	47110.30
599.24	47372.44
599.40	47309.25
599.56	47035.41
599.71	46731.14
599.87	47056.47
600.03	46885.61
600.18	46808.37
600.34	47035.41
600.50	46754.54
600.65	46993.28
600.81	47196.90
600.97	47311.59
601.12	47594.79
601.28	47276.48
601.44	46831.78
601.59	46869.23
601.75	46548.57
601.91	47070.51
602.06	46834.12
602.22	46806.03
602.37	46508.79
602.53	46691.35
602.69	46955.83
602.84	46775.61
603.00	46492.40
603.16	46871.57
603.31	46384.74
603.47	46185.79
603.62	46375.37
603.78	46653.90
603.94	46810.71
604.09	46848.16
604.25	46574.32
604.40	46670.28
604.56	46813.05
604.71	46426.87
604.87	46246.65
605.03	47241.37
605.18	46595.38
605.34	46749.86
605.49	46705.39
605.65	46794.33
605.80	46597.73
605.96	46742.84
606.12	46274.73
606.27	46501.76
606.43	46169.41
606.58	46501.76
606.74	46431.55
606.89	46389.42
607.05	46932.42
607.20	46447.93
607.36	46836.46
607.51	47023.70
607.67	46756.88
607.82	46258.35
607.98	46492.40
608.13	46569.64
608.29	46358.99
608.44	45832.37
608.60	46064.08
608.75	46185.79
608.91	45598.32
609.06	45785.56
609.22	46543.89
609.37	45872.16
609.53	46167.07
609.68	46401.12
609.84	46120.26
609.99	46527.51
610.15	46052.38
610.30	45968.12
610.46	45610.02
610.61	46110.89
610.76	46216.22
610.92	46028.98
611.07	46237.28
611.23	46347.29
611.38	45890.88
611.54	45993.87
611.69	45612.36
611.84	45925.99
612.00	45860.46
612.15	45661.51
612.31	45975.14
612.46	45752.79
612.62	46066.42
612.77	45937.69
612.92	46075.79
613.08	45860.46
613.23	46160.05
613.39	45771.52
613.54	45701.30
613.69	45773.86
613.85	45734.07
614.00	45937.69
614.15	45729.39
614.31	45675.55
614.46	45675.55
614.62	45998.55
614.77	45530.44
614.92	45762.15
615.08	45647.47
615.23	45764.49
615.38	45673.21
615.54	45516.40
615.69	45584.27
615.84	45055.31
616.00	44964.03
616.15	45610.02
616.30	45139.57
616.46	45148.93
616.61	45132.55
616.76	45214.47
616.92	45198.09
617.07	44856.37
617.22	45109.14
617.37	44999.14
617.53	45399.37
617.68	45284.68
617.83	45052.97
617.99	45691.94
618.14	45404.05
618.29	45048.29
618.45	44989.78
618.60	45268.30
618.75	44996.80
618.90	44818.92
619.06	44896.16
619.21	44765.09
619.36	45059.99
619.51	45006.16
619.67	44683.17
619.82	44734.66
619.97	45141.91
620.12	44896.16
620.28	44601.25
620.43	44636.36
620.58	44725.30
620.73	44676.15
620.89	44507.63
621.04	44858.71
621.19	44123.78
621.34	44624.65
621.49	44722.96
621.65	44584.86
621.80	44596.57
621.95	44032.50
622.10	44446.77
622.25	44470.18
622.41	44025.48
622.56	44322.72
622.71	44329.75
622.86	43714.19
623.01	44418.69
623.16	44030.16
623.32	44521.67
623.47	44488.90
623.62	44320.38
623.77	43997.39
623.92	43875.68
624.07	44500.61
624.23	44116.76
624.38	43835.89
624.53	43466.09
624.68	44140.16
624.83	43695.46
624.98	43793.76
625.13	43936.54
625.29	43941.22
625.44	44091.01
625.59	43592.48
625.74	43580.78
625.89	43449.70
626.04	43686.10
626.19	43665.03
626.34	43772.70
626.49	43611.20
626.65	44025.48
626.80	43875.68
626.95	43445.02
627.10	43557.37
627.25	43615.88
627.40	43248.42
627.55	43173.52
627.70	43065.86
627.85	43049.47
628.00	42939.47
628.15	43339.70
628.30	43253.10
628.45	43299.91
628.60	43208.63
628.76	43501.20
628.91	43283.53
629.06	43309.27
629.21	42820.10
629.36	42667.97
629.51	42944.15
629.66	43047.13
629.81	42799.04
629.96	42799.04
630.11	42857.55
630.26	43353.74
630.41	43019.05
630.56	42927.77
630.71	43107.99
630.86	42796.70
631.01	42883.30
631.16	42806.06
631.31	42550.94
631.46	42380.08
631.61	42801.38
631.76	42827.12
631.91	42930.11
632.06	42225.60
632.21	42635.20
632.36	43168.84
632.51	42403.49
632.66	42862.23
632.81	42286.46
632.96	42752.23
633.10	41998.57
633.25	42752.23
633.40	42323.91
633.55	42344.97
633.70	42398.80
633.85	42361.36
634.00	42581.37
634.15	42260.71
634.30	42005.59
634.45	42321.57
634.60	42344.97
634.75	42789.67
634.90	41996.23
635.05	42064.11
635.19	41855.80
635.34	42469.02
635.49	42106.24
635.64	42223.26
635.79	42616.47
635.94	41888.57
636.09	41937.72
636.24	41539.83
636.39	41720.05
636.53	41839.42
636.68	41359.61
636.83	41626.43
636.98	41883.89
637.13	41752.82
637.28	41689.62
637.43	41736.43
637.57	41752.82
637.72	41816.01
637.87	42122.62
638.02	41624.09
638.17	41591.32
638.32	41895.59
638.46	41474.29
638.61	41556.21
638.76	41233.22
638.91	41151.30
639.06	41469.61
639.20	41596.00
639.35	41322.16
639.50	41570.25
639.65	41287.05
639.80	41420.46
639.94	41265.99
640.09	40942.99
640.24	41375.99
640.39	41198.11
640.54	41181.73
640.68	41394.71
640.83	40980.44
640.98	40662.13
641.13	40772.13
641.27	41385.35
641.42	41319.82
641.57	41102.15
641.72	40858.73
641.86	40591.91
642.01	40084.01
642.16	40584.89
642.31	40048.91
642.45	40561.48
642.60	40404.67
642.75	40470.20
642.90	40587.23
643.04	40538.08
643.19	40486.59
643.34	40718.30
643.48	40837.67
643.63	40472.54
643.78	40512.33
643.93	40472.54
644.07	40397.65
644.22	40622.34
644.37	40198.70
644.51	40580.21
644.66	40442.12
644.81	40013.80
644.95	40549.78
645.10	40165.93
645.25	40542.76
645.39	39885.07
645.54	40137.85
645.69	39978.69
645.83	40076.99
645.98	39840.60
646.13	40210.40
646.27	40006.78
646.42	40114.44
646.57	40360.20
646.71	40044.23
646.86	39817.19
647.00	39936.56
647.15	40594.25
647.30	39875.71
647.44	39892.09
647.59	39859.32
647.74	39739.96
647.88	39812.51
648.03	39934.22
648.17	39604.20
648.32	39655.70
648.47	39775.06
648.61	39608.89
648.76	39854.64
648.90	39885.07
649.05	39491.86
649.20	40095.72
649.34	40114.44
649.49	39180.57
649.63	39185.25
649.78	39695.49
649.92	39906.13
650.07	40020.82
650.21	39756.34
650.36	39789.11
650.51	39421.64
650.65	39473.13
650.80	39271.85
650.94	39494.20
651.09	39665.06
651.23	39239.08
651.38	39370.15
651.52	38944.17
651.67	39072.90
651.81	39372.49
651.96	38951.20
652.10	38925.45
652.25	38960.56
652.39	38998.01
652.54	39042.48
652.68	39313.98
652.83	39182.91
652.97	39494.20
653.12	38883.32
653.26	38527.56
653.41	38934.81
653.55	38822.47
653.70	38433.94
653.84	39283.55
653.99	38710.12
654.13	38340.32
654.27	38576.71
654.42	38382.45
654.56	38553.30
654.71	38831.83
654.85	38646.93
655.00	38405.85
655.14	38071.15
655.29	38251.38
655.43	38108.60
655.57	38094.56
655.72	38082.86
655.86	37874.55
656.01	37883.91
656.15	37509.43
656.30	37970.51
656.44	38148.39
656.58	37591.34
656.73	37551.56
656.87	37900.29
657.01	37708.37
657.16	37984.55
657.30	37979.87
657.45	37584.32
657.59	37855.82
657.73	37378.36
657.88	37581.98
658.02	37881.57
658.16	37818.38
658.31	38162.43
658.45	38101.58
658.60	37862.85
658.74	37916.68
658.88	37357.29
659.03	37642.84
659.17	37635.81
659.31	37343.25
659.46	37247.29
659.60	37502.40
659.74	37347.93
659.89	36982.80
660.03	36683.22
660.17	37184.09
660.32	37514.11
660.46	37258.99
660.60	37581.98
660.74	37397.08
660.89	37216.86
661.03	36634.06
661.17	36833.01
661.32	36748.75
661.46	36973.44
661.60	36844.71
661.74	36957.06
661.89	36493.63
662.03	37010.89
662.17	36369.58
662.31	36252.56
662.46	36818.97
662.60	36666.83
662.74	36914.93
662.88	36823.65
663.03	36346.18
663.17	36404.69
663.31	35997.44
663.45	36144.89
663.60	36404.69
663.74	35864.03
663.88	36196.38
664.02	35901.48
664.17	35990.42
664.31	35730.62
664.45	35716.58
664.59	35995.10
664.73	35178.25
664.88	35873.39
665.02	35728.28
665.16	35330.39
665.30	35264.85
665.44	35646.36
665.59	35342.09
665.73	35192.30
665.87	34913.77
666.01	35075.27
666.15	35168.89
666.29	35084.63
666.44	35351.45
666.58	34742.91
666.72	35187.61
666.86	35047.18
667.00	35585.50
667.14	34703.12
667.28	34991.01
667.43	34749.93
667.57	34841.21
667.71	34473.75
667.85	34555.67
667.99	34370.77
668.13	34096.92
668.27	34382.47
668.41	34838.87
668.56	34448.00
668.70	34604.82
668.84	34698.44
668.98	33813.72
669.12	33860.53
669.26	34366.09
669.40	34319.28
669.54	33886.28
669.68	34012.66
669.82	34218.63
669.96	33446.26
670.10	33628.82
670.25	33942.45
670.39	33797.34
670.53	33621.80
670.67	33720.10
670.81	33603.07
670.95	33289.44
671.09	33614.77
671.23	33446.26
671.37	33780.95
671.51	33500.09
671.65	32678.56
671.79	32893.89
671.93	32879.85
672.07	33270.72
672.21	33067.09
672.35	32622.39
672.49	32910.27
672.63	32968.79
672.77	32442.17
672.91	32163.64
673.05	32292.37
673.19	32336.84
673.33	32107.47
673.47	32507.70
673.61	31716.60
673.75	31981.08
673.89	31697.88
674.03	31875.76
674.17	31679.15
674.31	31653.40
674.45	32163.64
674.59	31810.22
674.73	31548.08
674.87	31545.74
675.01	31496.59
675.15	31054.23
675.29	31428.71
675.43	31363.18
675.56	31501.27
675.70	31522.34
675.84	31189.98
675.98	30356.75
676.12	31173.60
676.26	30995.71
676.40	30431.65
676.54	30602.50
676.68	30611.87
676.82	30192.91
676.96	30281.85
677.10	30134.40
677.23	30328.66
677.37	30066.52
677.51	30092.27
677.65	30054.82
677.79	29380.74
677.93	29837.15
678.07	29589.05
678.21	29460.32
678.34	29647.57
678.48	29558.63
678.62	29127.97
678.76	29172.44
678.90	29104.56
679.04	29153.71
679.18	28877.53
679.31	28985.19
679.45	28636.45
679.59	28617.73
679.73	28606.03
679.87	28622.41
680.00	28119.20
680.14	28151.96
680.28	27941.32
680.42	27866.42
680.56	28332.18
680.70	28231.54
680.83	27718.96
680.97	28039.62
681.11	28041.96
681.25	27604.28
681.39	27761.09
681.52	27838.33
681.66	27206.39
681.80	27763.43
681.94	27056.59
682.07	27592.58
682.21	26906.80
682.35	27096.38
682.49	26988.72
682.62	27147.87
682.76	26775.73
682.90	26728.92
683.04	26405.92
683.17	26513.59
683.31	26302.94
683.45	26602.53
683.59	26499.55
683.72	26141.44
683.86	26010.37
684.00	25619.50
684.13	26029.10
684.27	25766.96
684.41	25961.22
684.55	25635.89
684.68	25734.19
684.82	25476.73
684.96	25404.17
685.09	25184.16
685.23	25287.15
685.37	24945.43
685.50	25081.18
685.64	25193.53
685.78	24758.19
685.91	24936.07
686.05	24746.48
686.19	24215.18
686.32	24240.93
686.46	24112.20
686.60	24175.39
686.73	24032.62
686.87	23850.06
687.01	23840.70
687.14	23412.38
687.28	23756.44
687.42	23548.13
687.55	23220.45
687.69	23520.04
687.82	23489.62
687.96	23475.57
688.10	23564.51
688.23	23091.73
688.37	22906.82
688.50	22548.72
688.64	22752.35
688.78	22625.96
688.91	22888.10
689.05	22511.27
689.18	22408.29
689.32	22150.83
689.46	22497.23
689.59	22473.82
689.73	22345.09
689.86	22029.12
690.00	22101.68
690.13	22270.20
690.27	21893.37
690.41	22078.27
690.54	21355.05
690.68	21858.26
690.81	21343.35
690.95	21399.52
691.08	21397.18
691.22	21544.63
691.35	21179.51
691.49	21448.67
691.62	21570.38
691.76	21532.93
691.89	21312.92
692.03	20912.69
692.16	20905.66
692.30	20706.72
692.43	20489.05
692.57	20507.77
692.70	20390.75
692.84	20594.37
692.97	20079.46
693.11	20182.44
693.24	20219.89
693.38	20133.29
693.51	19950.73
693.65	20308.83
693.78	19681.56
693.92	20362.66
694.05	19934.34
694.19	19761.14
694.32	19737.74
694.45	19597.31
694.59	19309.42
694.72	19276.65
694.86	19428.79
694.99	19037.92
695.13	19073.03
695.26	19136.22
695.39	18890.46
695.53	18899.83
695.66	18586.19
695.80	18703.22
695.93	18637.69
696.07	18597.90
696.20	18869.40
696.33	18511.30
696.47	18656.41
696.60	18366.18
696.73	18195.32
696.87	18160.22
697.00	17757.64
697.14	17659.34
697.27	17912.12
697.40	18185.96
697.54	17823.18
697.67	17788.07
697.80	17659.34
697.94	17577.42
698.07	17652.32
698.21	17542.32
698.34	17748.28
698.47	17277.83
698.61	16793.34
698.74	17149.11
698.87	17195.92
699.01	17055.48
699.14	16982.93
699.27	16772.28
699.40	16587.38
699.54	16606.10
699.67	16465.67
699.80	16348.64
699.94	16606.10
700.07	16191.83
700.20	16318.22
700.34	16217.57
700.47	16070.12
700.60	16524.18
700.73	16479.71
700.87	16130.97
701.00	16035.01
701.13	15789.25
701.26	15693.29
701.40	15655.84
701.53	15695.63
701.66	15543.50
701.79	15335.19
701.93	15225.18
702.06	15419.45
702.19	15140.93
702.32	15419.45
702.46	15023.90
702.59	15199.44
702.72	14963.04
702.85	14963.04
702.99	14647.07
703.12	15012.20
703.25	14906.87
703.38	14937.30
703.51	14728.99
703.65	14618.99
703.78	14621.33
703.91	14518.34
704.04	14600.26
704.17	14305.35
704.31	14242.16
704.44	13940.23
704.57	14281.95
704.70	14129.81
704.83	14157.90
704.96	14143.86
705.10	14200.03
705.23	14026.83
>>>>>End Processed Spectral Data<<<<<
