SpectraSuite Data File
++++++++++++++++++++++++++++++++++++
Date: Fri Oct 25 10:43:33 EDT 2013
User: price-jones
Dark Spectrum Present: No
Reference Spectrum Present: No
Number of Sampled Component Spectra: 1
Spectrometers: USB2+H05261
Integration Time (usec): 100000 (USB2+H05261)
Spectra Averaged: 1 (USB2+H05261)
Boxcar Smoothing: 0 (USB2+H05261)
Correct for Electrical Dark: No (USB2+H05261)
Strobe/Lamp Enabled: No (USB2+H05261)
Correct for Detector Non-linearity: No (USB2+H05261)
Correct for Stray Light: No (USB2+H05261)
Number of Pixels in Processed Spectrum: 2048
>>>>>Begin Processed Spectral Data<<<<<
365.73	102.98
365.92	102.98
366.12	102.98
366.32	25.75
366.52	56.17
366.72	112.35
366.91	49.15
367.11	0.00
367.31	14.04
367.51	0.00
367.70	2.34
367.90	0.00
368.10	42.13
368.30	0.00
368.49	21.06
368.69	35.11
368.89	11.70
369.09	79.58
369.28	42.13
369.48	35.11
369.68	46.81
369.87	100.64
370.07	86.60
370.27	135.75
370.47	222.35
370.66	425.98
370.86	407.25
371.06	447.04
371.25	461.09
371.45	353.42
371.65	500.87
371.84	454.06
372.04	397.89
372.24	463.43
372.44	521.94
372.63	498.53
372.83	624.92
373.03	465.77
373.22	470.45
373.42	538.32
373.62	503.22
373.81	561.73
374.01	603.86
374.21	526.62
374.40	557.05
374.60	550.03
374.79	587.47
374.99	580.45
375.19	704.50
375.38	561.73
375.58	552.37
375.78	533.64
375.97	589.82
376.17	601.52
376.37	592.16
376.56	585.13
376.76	557.05
376.95	543.00
377.15	622.58
377.35	608.54
377.54	688.12
377.74	709.18
377.93	636.63
378.13	624.92
378.33	709.18
378.52	674.07
378.72	601.52
378.91	660.03
379.11	650.67
379.31	690.46
379.50	641.31
379.70	713.86
379.89	741.95
380.09	573.43
380.28	697.48
380.48	711.52
380.68	671.73
380.87	704.50
381.07	741.95
381.26	751.31
381.46	608.54
381.65	589.82
381.85	587.47
382.04	781.74
382.24	634.29
382.43	709.18
382.63	692.80
382.83	699.82
383.02	681.10
383.22	763.01
383.41	692.80
383.61	706.84
383.80	751.31
384.00	753.65
384.19	774.72
384.39	809.83
384.58	753.65
384.78	793.44
384.97	805.14
385.17	842.59
385.36	805.14
385.56	823.87
385.75	777.06
385.95	821.53
386.14	873.02
386.34	910.47
386.53	868.34
386.72	807.48
386.92	800.46
387.11	882.38
387.31	828.55
387.50	833.23
387.70	828.55
387.89	828.55
388.09	809.83
388.28	887.06
388.48	957.28
388.67	1001.75
388.86	947.92
389.06	903.45
389.25	910.47
389.45	985.37
389.64	999.41
389.84	1013.45
390.03	954.94
390.22	1006.43
390.42	1011.11
390.61	978.34
390.81	1022.81
391.00	1032.18
391.19	1057.92
391.39	1025.15
391.58	1114.10
391.78	997.07
391.97	1102.39
392.16	1029.84
392.36	1008.77
392.55	1029.84
392.75	999.41
392.94	1027.50
393.13	1015.79
393.33	919.83
393.52	1004.09
393.71	1071.97
393.91	1083.67
394.10	1203.04
394.29	1214.74
394.49	1160.91
394.68	1193.67
394.88	1235.80
395.07	1343.47
395.26	1212.40
395.46	1224.10
395.65	1158.57
395.84	1261.55
396.04	1254.53
396.23	1259.21
396.42	1114.10
396.62	1160.91
396.81	1277.93
397.00	1233.46
397.19	1275.59
397.39	1287.29
397.58	1341.13
397.77	1366.87
397.97	1317.72
398.16	1357.51
398.35	1465.18
398.55	1455.81
398.74	1507.30
398.93	1472.20
399.12	1577.52
399.32	1425.39
399.51	1558.80
399.70	1621.99
399.90	1561.14
400.09	1607.95
400.28	1729.66
400.47	1652.42
400.67	1621.99
400.86	1694.55
401.05	1629.01
401.24	1652.42
401.44	1675.82
401.63	1720.29
401.82	1741.36
402.01	1713.27
402.21	1813.92
402.40	1682.85
402.59	1727.32
402.78	1792.85
402.97	1792.85
403.17	1823.28
403.36	1954.35
403.55	1837.32
403.74	1886.47
403.93	1952.01
404.13	1919.24
404.32	1842.00
404.51	1905.20
404.70	1926.26
404.89	1914.56
405.09	2012.86
405.28	1900.52
405.47	1970.73
405.66	1987.11
405.85	2033.93
406.05	1973.07
406.24	2047.97
406.43	2050.31
406.62	2036.27
406.81	2230.53
407.00	2017.54
407.20	2108.82
407.39	2073.71
407.58	2153.29
407.77	2228.19
407.96	2267.98
408.15	2317.13
408.34	2230.53
408.54	2347.56
408.73	2282.02
408.92	2331.17
409.11	2413.09
409.30	2363.94
409.49	2305.43
409.68	2132.23
409.87	2363.94
410.07	2464.58
410.26	2427.14
410.45	2413.09
410.64	2366.28
410.83	2502.03
411.02	2509.05
411.21	2642.46
411.40	2588.63
411.59	2719.70
411.78	2619.06
411.98	2708.00
412.17	2736.09
412.36	2789.92
412.55	2736.09
412.74	2902.26
412.93	2942.05
413.12	2754.81
413.31	3002.91
413.50	2850.77
413.69	2963.12
413.88	2946.73
414.07	3009.93
414.26	2991.20
414.45	2937.37
414.64	3000.57
414.83	2860.13
415.02	3080.14
415.22	3101.21
415.41	3208.87
415.60	3199.51
415.79	3173.77
415.98	3307.18
416.17	3304.84
416.36	3084.83
416.55	3300.16
416.74	3269.73
416.93	3251.00
417.12	3300.16
417.31	3445.27
417.50	3492.08
417.69	3368.03
417.88	3442.93
418.07	3496.76
418.26	3454.63
418.45	3494.42
418.64	3632.51
418.83	3590.38
419.02	3459.31
419.21	3693.37
419.39	3698.05
419.58	3522.51
419.77	3719.11
419.96	3719.11
420.15	3655.92
420.34	3854.86
420.53	3754.22
420.72	3810.39
420.91	3758.90
421.10	3751.88
421.29	3857.20
421.48	4009.34
421.67	4002.32
421.86	3674.64
422.05	3845.50
422.24	3768.26
422.43	4039.76
422.61	3850.18
422.80	3857.20
422.99	3908.69
423.18	3995.29
423.37	4135.73
423.56	3971.89
423.75	3967.21
423.94	3995.29
424.13	3768.26
424.32	3852.52
424.50	4039.76
424.69	4107.64
424.88	3943.80
425.07	3836.14
425.26	3843.16
425.45	4053.81
425.64	3929.76
425.83	3964.87
426.01	4128.70
426.20	4126.36
426.39	4145.09
426.58	3999.98
426.77	3995.29
426.96	3976.57
427.15	3971.89
427.33	4079.55
427.52	4067.85
427.71	4259.78
427.90	4102.96
428.09	4156.79
428.28	4201.26
428.46	4105.30
428.65	4278.50
428.84	4257.43
429.03	4203.60
429.22	4159.13
429.40	4182.54
429.59	4149.77
429.78	4032.74
429.97	3927.42
430.16	4107.64
430.34	4023.38
430.53	4248.07
430.72	4306.59
430.91	4360.42
431.10	4325.31
431.28	4645.96
431.47	4542.98
431.66	4676.39
431.85	4564.04
432.03	4531.28
432.22	4730.22
432.41	4589.79
432.60	4652.98
432.79	4652.98
432.97	4851.93
433.16	4835.55
433.35	4706.82
433.54	4641.28
433.72	4634.26
433.91	4697.46
434.10	4891.72
434.28	4767.67
434.47	4849.59
434.66	4894.06
434.85	4894.06
435.03	4994.70
435.22	4926.83
435.41	5291.95
435.59	5228.76
435.78	5158.54
435.97	5153.86
436.16	5170.24
436.34	5137.48
436.53	5093.01
436.72	5352.81
436.90	5069.60
437.09	5259.18
437.28	5195.99
437.46	5254.50
437.65	5247.48
437.84	5221.74
438.02	5146.84
438.21	5177.26
438.40	5149.18
438.58	5451.11
438.77	5317.70
438.96	5481.53
439.14	5535.37
439.33	5568.13
439.52	5570.48
439.70	5577.50
439.89	5914.53
440.08	5776.44
440.26	5832.62
440.45	5841.98
440.63	5914.53
440.82	6157.95
441.01	6008.16
441.19	6207.10
441.38	6218.80
441.57	6101.78
441.75	6267.95
441.94	6249.23
442.12	6384.98
442.31	6387.32
442.50	6434.13
442.68	6324.13
442.87	6267.95
443.05	6443.49
443.24	6494.99
443.43	6436.47
443.61	6497.33
443.80	6691.59
443.98	6459.88
444.17	6366.26
444.35	6691.59
444.54	6782.87
444.73	6600.31
444.91	6579.25
445.10	6600.31
445.28	6480.94
445.47	6672.87
445.65	6417.75
445.84	6548.82
446.02	6642.44
446.21	6616.69
446.39	6747.76
446.58	6785.21
446.77	6710.32
446.95	6623.72
447.14	6691.59
447.32	6817.98
447.51	6576.91
447.69	6761.81
447.88	6696.27
448.06	6925.65
448.25	7005.22
448.43	6885.86
448.62	6745.42
448.80	6705.63
448.99	6775.85
449.17	6974.80
449.36	6778.19
449.54	6986.50
449.73	7199.49
449.91	7080.12
450.10	7021.61
450.28	7229.91
450.46	7323.54
450.65	7400.77
450.83	7178.42
451.02	7351.62
451.20	7442.90
451.39	7585.68
451.57	7419.50
451.76	7211.19
451.94	7351.62
452.13	7346.94
452.31	7243.96
452.49	7129.27
452.68	7318.86
452.86	7258.00
453.05	7431.20
453.23	7328.22
453.42	7400.77
453.60	7482.69
453.78	7637.17
453.97	7332.90
454.15	7459.29
454.34	7459.29
454.52	7421.84
454.70	7382.05
454.89	7824.41
455.07	7740.15
455.26	7775.26
455.44	7880.58
455.62	7868.88
455.81	7714.41
455.99	8166.13
456.17	7887.61
456.36	7943.78
456.54	7939.10
456.73	8119.32
456.91	8021.02
457.09	8271.45
457.28	8273.79
457.46	8006.97
457.64	8339.33
457.83	8388.48
458.01	8049.10
458.19	8372.10
458.38	8395.50
458.56	8348.69
458.74	8400.18
458.93	8177.83
459.11	8327.63
459.29	8248.05
459.48	8383.80
459.66	8348.69
459.84	8512.53
460.03	8587.43
460.21	8692.75
460.39	8507.85
460.57	8634.24
460.76	8732.54
460.94	8648.28
461.12	8819.14
461.31	8762.97
461.49	8692.75
461.67	8786.37
461.85	9008.72
462.04	8697.43
462.22	9418.32
462.40	9057.87
462.59	8917.44
462.77	8940.85
462.95	9048.51
463.13	8915.10
463.32	8940.85
463.50	9160.86
463.68	9076.60
463.86	9102.34
464.05	9102.34
464.23	9111.71
464.41	9057.87
464.59	8840.20
464.78	9156.18
464.96	9102.34
465.14	9137.45
465.32	9270.86
465.50	9415.98
465.69	9423.00
465.87	9390.23
466.05	9348.10
466.23	9254.48
466.41	9397.25
466.60	9514.28
466.78	9336.40
466.96	9502.58
467.14	9373.85
467.32	9537.68
467.51	9458.10
467.69	9352.78
467.87	9617.26
468.05	9483.85
468.23	9404.27
468.41	9535.34
468.60	9549.39
468.78	9809.19
468.96	9696.84
469.14	10017.49
469.32	9635.99
469.50	9523.64
469.69	9710.88
469.87	9947.28
470.05	9937.91
470.23	9977.70
470.41	9717.90
470.59	10047.92
470.77	9996.43
470.95	10087.71
471.14	10263.25
471.32	9956.64
471.50	10291.34
471.68	10349.85
471.86	10539.43
472.04	10544.11
472.22	10792.21
472.40	10396.66
472.58	10597.95
472.77	10462.19
472.95	10729.02
473.13	11026.26
473.31	10705.61
473.49	10602.63
473.67	10824.98
473.85	10679.86
474.03	11180.74
474.21	11131.59
474.39	11084.78
474.57	11133.93
474.75	11297.77
474.93	11351.60
475.12	11304.79
475.30	11456.92
475.48	11297.77
475.66	11236.91
475.84	11623.10
476.02	11398.41
476.20	11564.59
476.38	11737.79
476.56	11789.28
476.74	11843.11
476.92	12044.40
477.10	11597.35
477.28	12212.92
477.46	12166.10
477.64	12198.87
477.82	12343.99
478.00	12428.24
478.18	12578.04
478.36	12542.93
478.54	12861.24
478.72	13013.38
478.90	13088.28
479.08	13263.82
479.26	13219.35
479.44	13181.90
479.62	13209.98
479.80	13385.52
479.98	13437.02
480.16	13673.41
480.34	13650.00
480.52	13886.40
480.70	14043.21
480.88	13895.76
481.06	13928.53
481.24	14218.75
481.41	14235.14
481.59	14679.84
481.77	14717.29
481.95	14656.43
482.13	14689.20
482.31	14731.33
482.49	15028.58
482.67	14829.63
482.85	15002.83
483.03	15286.04
483.21	15353.91
483.39	15363.28
483.57	15407.75
483.74	15578.61
483.92	15873.51
484.10	15817.34
484.28	15882.88
484.46	16245.66
484.64	16423.54
484.82	16308.85
485.00	16290.13
485.18	16519.50
485.35	16390.77
485.53	16077.14
485.71	16372.05
485.89	16556.95
486.07	16432.90
486.25	16472.69
486.43	16868.24
486.61	17064.85
486.78	17303.58
486.96	17582.10
487.14	17977.65
487.32	17940.21
487.50	17788.07
487.68	18176.60
487.85	18508.96
488.03	18455.12
488.21	18735.99
488.39	18803.86
488.57	18967.70
488.75	18906.85
488.92	19548.15
489.10	19508.37
489.28	19676.88
489.46	19648.80
489.64	19845.40
489.81	20357.98
489.99	20229.25
490.17	20421.17
490.35	20255.00
490.53	20589.69
490.70	20606.08
490.88	20355.64
491.06	21298.88
491.24	20755.87
491.41	20985.24
491.59	20959.50
491.77	20762.89
491.95	21139.72
492.13	21088.23
492.30	21722.51
492.48	22061.89
492.66	22253.81
492.84	21825.50
493.01	22216.36
493.19	22295.94
493.37	22043.17
493.54	22607.23
493.72	22717.24
493.90	22764.05
494.08	22895.12
494.25	23159.60
494.43	23360.89
494.61	23625.37
494.79	23531.75
494.96	23466.21
495.14	23550.47
495.32	23672.18
495.49	23700.26
495.67	24016.24
495.85	24421.15
496.02	24238.59
496.20	24767.55
496.38	24713.72
496.55	24507.75
496.73	25252.04
496.91	24975.86
497.09	25261.40
497.26	25495.46
497.44	25312.89
497.62	25319.92
497.79	25832.49
497.97	25404.17
498.14	25694.40
498.32	25773.98
498.50	25703.76
498.67	26370.82
498.85	25982.29
499.03	26513.59
499.20	26300.60
499.38	26253.79
499.56	26742.96
499.73	26611.89
499.91	26859.99
500.08	26628.27
500.26	26178.89
500.44	26431.67
500.61	27094.04
500.79	26754.66
500.97	26909.14
501.14	26972.33
501.32	26906.80
501.49	27494.27
501.67	27229.79
501.84	26972.33
502.02	28091.11
502.20	27709.60
502.37	28046.64
502.55	27772.80
502.72	28119.20
502.90	28126.22
503.07	28116.86
503.25	28343.89
503.43	28168.35
503.60	28465.60
503.78	28247.93
503.95	28400.06
504.13	28332.18
504.30	29074.13
504.48	28847.10
504.65	28924.34
504.83	29193.50
505.01	29120.95
505.18	29099.88
505.36	29617.14
505.53	29415.85
505.71	29738.85
505.88	29996.31
506.06	29626.50
506.23	30178.87
506.41	29425.22
506.58	30384.83
506.76	30319.30
506.93	30146.10
507.11	30265.47
507.28	30010.35
507.46	30258.45
507.63	29790.34
507.81	30478.46
507.98	30157.80
508.16	30499.52
508.33	30780.39
508.50	30642.29
508.68	30881.03
508.85	31452.12
509.03	31281.26
509.20	31440.42
509.38	31281.26
509.55	31325.73
509.73	31524.68
509.90	31409.99
510.08	31295.30
510.25	31353.82
510.42	31922.57
510.60	31938.95
510.77	32369.61
510.95	31983.42
511.12	31990.44
511.30	32020.87
511.47	32636.43
511.64	32570.90
511.82	32837.72
511.99	32079.38
512.17	32215.13
512.34	32224.50
512.51	32692.60
512.69	33003.89
512.86	32781.54
513.04	32989.85
513.21	33184.12
513.38	32716.01
513.56	32826.01
513.73	32657.49
513.90	33343.27
514.08	33317.53
514.25	33081.13
514.43	33495.41
514.60	33226.24
514.77	33237.95
514.95	33827.76
515.12	33809.04
515.29	33858.19
515.47	33778.61
515.64	34298.21
515.81	34209.27
515.99	33846.49
516.16	33883.94
516.33	33603.07
516.51	33745.84
516.68	33434.55
516.85	33383.06
517.03	33755.21
517.20	34251.40
517.37	34375.45
517.54	34689.08
517.72	34225.65
517.89	33846.49
518.06	34075.86
518.24	33951.81
518.41	34663.33
518.58	34756.96
518.75	34609.50
518.93	35056.54
519.10	35126.76
519.27	35044.84
519.45	35171.23
519.62	35234.42
519.79	35442.73
519.96	35587.85
520.14	35747.00
520.31	35424.01
520.48	35765.73
520.65	35716.58
520.83	36247.88
521.00	36114.47
521.17	36044.25
521.34	35770.41
521.52	36191.70
521.69	36650.45
521.86	36847.05
522.03	36362.56
522.20	36325.11
522.38	36388.31
522.55	36854.08
522.72	36673.85
522.89	36657.47
523.07	36898.55
523.24	36664.49
523.41	37301.12
523.58	36912.59
523.75	37376.01
523.92	37642.84
524.10	37652.20
524.27	37003.87
524.44	37624.11
524.61	37500.06
524.78	37092.81
524.96	37544.53
525.13	37596.03
525.30	37958.81
525.47	38017.32
525.64	37699.01
525.81	37823.06
525.98	37469.64
526.16	37532.83
526.33	37574.96
526.50	37757.52
526.67	37628.79
526.84	37401.76
527.01	37743.48
527.18	37846.46
527.36	38354.36
527.53	38410.53
527.70	38885.66
527.87	38586.07
528.04	38066.47
528.21	38405.85
528.38	38742.89
528.55	39206.31
528.72	38770.97
528.89	38852.89
529.07	38972.26
529.24	38841.19
529.41	38637.56
529.58	38707.78
529.75	38998.01
529.92	39051.84
530.09	39533.99
530.26	39538.67
530.43	39533.99
530.60	38913.75
530.77	39234.40
530.94	39358.45
531.11	39505.90
531.28	39772.72
531.46	39597.18
531.63	39658.04
531.80	39957.63
531.97	39515.26
532.14	39353.77
532.31	39180.57
532.48	39463.77
532.65	39456.75
532.82	39278.87
532.99	39370.15
533.16	39784.43
533.33	39927.20
533.50	40144.87
533.67	39828.90
533.84	40130.83
534.01	40194.02
534.18	40236.15
534.35	40713.62
534.52	40297.00
534.69	40313.39
534.86	41148.96
535.03	40713.62
535.20	41013.21
535.37	41043.63
535.54	41530.47
535.71	41076.40
535.88	40851.71
536.05	40942.99
536.22	41275.35
536.38	40938.31
536.55	40641.06
536.72	41027.25
536.89	40570.85
537.06	40624.68
537.23	41045.97
537.40	41322.16
537.57	41294.07
537.74	40840.01
537.91	41467.27
538.08	41593.66
538.25	41060.02
538.42	41036.61
538.59	41808.99
538.75	41223.86
538.92	41254.28
539.09	41818.35
539.26	41544.51
539.43	41558.55
539.60	41446.21
539.77	41769.20
539.94	41567.91
540.11	40966.40
540.28	41640.47
540.44	41663.88
540.61	41418.12
540.78	41621.75
540.95	41684.94
541.12	41478.97
541.29	41701.32
541.46	41703.67
541.62	41682.60
541.79	41965.81
541.96	41591.32
542.13	42340.29
542.30	41846.44
542.47	42344.97
542.63	42564.98
542.80	42174.11
542.97	42684.35
543.14	42361.36
543.31	42059.43
543.48	42515.83
543.64	43166.50
543.81	43129.05
543.98	42829.46
544.15	42754.57
544.32	43030.75
544.48	43681.42
544.65	43299.91
544.82	42738.18
544.99	42679.67
545.16	42693.71
545.32	42789.67
545.49	43611.20
545.66	43283.53
545.83	43414.60
546.00	43466.09
546.16	43407.58
546.33	42904.36
546.50	42948.83
546.67	43491.83
546.83	42815.42
547.00	43491.83
547.17	43091.60
547.34	42913.72
547.50	43519.92
547.67	43283.53
547.84	43576.09
548.00	43739.93
548.17	43723.55
548.34	44079.31
548.51	44343.79
548.67	44313.36
548.84	43702.48
549.01	43650.99
549.18	43643.97
549.34	43859.30
549.51	44072.29
549.68	43845.26
549.84	44006.75
550.01	44032.50
550.18	44020.80
550.34	43988.03
550.51	43798.44
550.68	43821.85
550.84	43564.39
551.01	44144.84
551.18	44098.03
551.34	44072.29
551.51	44264.21
551.68	44301.66
551.84	44257.19
552.01	43938.88
552.18	44414.01
552.34	43892.07
552.51	44692.53
552.68	44453.79
552.84	44315.70
553.01	44470.18
553.18	44542.74
553.34	44528.69
553.51	44582.52
553.67	44350.81
553.84	45251.92
554.01	44905.52
554.17	44961.69
554.34	44898.50
554.51	44896.16
554.67	44945.31
554.84	44753.38
555.00	44641.04
555.17	44547.42
555.33	44914.88
555.50	44861.05
555.67	44854.03
555.83	44645.72
556.00	45258.94
556.16	44945.31
556.33	44957.01
556.50	45083.40
556.66	44886.79
556.83	44769.77
556.99	45048.29
557.16	45235.53
557.32	45146.59
557.49	45380.65
557.65	44832.96
557.82	45497.67
557.98	45326.81
558.15	45031.91
558.32	44917.22
558.48	45048.29
558.65	45191.06
558.81	45254.26
558.98	44903.18
559.14	45062.33
559.31	45195.74
559.47	45280.00
559.64	45656.83
559.80	45436.82
559.97	45090.42
560.13	44807.22
560.30	45205.11
560.46	45544.48
560.63	45443.84
560.79	45598.32
560.96	46239.62
561.12	45083.40
561.29	45013.18
561.45	45820.67
561.61	45427.46
561.78	45631.08
561.94	45228.51
562.11	44816.58
562.27	45378.31
562.44	45427.46
562.60	45584.27
562.77	45497.67
562.93	45764.49
563.10	46113.23
563.26	45141.91
563.42	45815.99
563.59	45177.02
563.75	45563.21
563.92	45649.81
564.08	45488.31
564.24	46040.68
564.41	45577.25
564.57	45956.42
564.74	45425.12
564.90	45715.34
565.07	45965.78
565.23	45628.74
565.39	45663.85
565.56	46188.13
565.72	45724.71
565.88	45612.36
566.05	45420.44
566.21	45708.32
566.38	45839.39
566.54	45881.52
566.70	45787.90
566.87	46504.10
567.03	45895.56
567.19	46330.90
567.36	46012.59
567.52	45752.79
567.68	46248.99
567.85	45492.99
568.01	45851.09
568.17	45748.11
568.34	46202.18
568.50	45668.53
568.66	45464.91
568.83	46131.96
568.99	45797.26
569.15	45378.31
569.32	45947.06
569.48	45380.65
569.64	45972.80
569.81	45769.18
569.97	46403.46
570.13	45743.43
570.30	45687.26
570.46	46153.02
570.62	45165.32
570.78	45481.29
570.95	45535.12
571.11	45668.53
571.27	45628.74
571.43	46005.57
571.60	45823.01
571.76	45996.21
571.92	45865.14
572.09	45916.63
572.25	45691.94
572.41	46351.97
572.57	46438.57
572.74	46253.67
572.90	46183.45
573.06	45972.80
573.22	46122.60
573.38	46061.74
573.55	45986.85
573.71	46658.58
573.87	46071.10
574.03	45869.82
574.20	45989.19
574.36	45951.74
574.52	46220.90
574.68	46188.13
574.84	45865.14
575.01	45731.73
575.17	46057.06
575.33	46085.15
575.49	45371.28
575.65	46244.30
575.82	46288.77
575.98	46031.32
576.14	45961.10
576.30	46504.10
576.46	46059.40
576.62	45907.27
576.79	45977.48
576.95	45776.20
577.11	46319.20
577.27	46064.08
577.43	45883.86
577.59	45741.09
577.75	46120.26
577.92	45535.12
578.08	45846.41
578.24	45535.12
578.40	46110.89
578.56	46066.42
578.72	46003.23
578.88	46567.30
579.04	46014.93
579.21	46253.67
579.37	46031.32
579.53	45968.12
579.69	45626.40
579.85	46445.59
580.01	46005.57
580.17	45722.37
580.33	46490.06
580.49	46433.89
580.65	46167.07
580.82	46518.15
580.98	46155.36
581.14	45785.56
581.30	46328.56
581.46	45965.78
581.62	46644.54
581.78	46178.77
581.94	46586.02
582.10	46085.15
582.26	46494.74
582.42	46368.35
582.58	46520.49
582.74	46401.12
582.90	46150.68
583.06	46340.27
583.22	46281.75
583.38	46398.78
583.54	46483.04
583.70	46220.90
583.86	46436.23
584.02	46398.78
584.18	46248.99
584.34	46216.22
584.50	46216.22
584.66	46518.15
584.82	46071.10
584.98	46113.23
585.14	46176.43
585.30	46003.23
585.46	45925.99
585.62	45713.00
585.78	46031.32
585.94	45879.18
586.10	46082.81
586.26	46089.83
586.42	46525.17
586.58	46438.57
586.74	46050.04
586.90	46141.32
587.06	46321.54
587.22	46323.88
587.38	46171.75
587.54	46382.40
587.70	46583.68
587.86	46321.54
588.02	46239.62
588.18	46499.42
588.34	46162.39
588.49	45450.86
588.65	45729.39
588.81	45736.41
588.97	45523.42
589.13	45670.87
589.29	45404.05
589.45	45928.33
589.61	45886.20
589.77	46270.05
589.93	46436.23
590.08	45977.48
590.24	46309.84
590.40	46344.95
590.56	46419.84
590.72	45799.60
590.88	45897.91
591.04	46227.92
591.20	46899.65
591.35	46665.60
591.51	46672.62
591.67	46349.63
591.83	46033.66
591.99	46291.12
592.15	46021.95
592.31	46394.10
592.46	46307.50
592.62	46471.34
592.78	46541.55
592.94	46288.77
593.10	46277.07
593.26	46405.80
593.41	46574.32
593.57	46073.45
593.73	46267.71
593.89	46581.34
594.05	46333.24
594.20	46021.95
594.36	46253.67
594.52	46244.30
594.68	46129.62
594.84	46213.88
594.99	46579.00
595.15	46185.79
595.31	46717.09
595.47	46534.53
595.62	46195.15
595.78	46579.00
595.94	46492.40
596.10	46300.48
596.25	46361.33
596.41	46181.11
596.57	46314.52
596.73	46127.28
596.88	46356.65
597.04	46433.89
597.20	46120.26
597.36	46298.14
597.51	46550.91
597.67	45998.55
597.83	46651.56
597.99	46618.79
598.14	46188.13
598.30	46295.80
598.46	46536.87
598.61	46611.77
598.77	46490.06
598.93	46368.35
599.09	46518.15
599.24	46691.35
599.40	46281.75
599.56	46382.40
599.71	46202.18
599.87	46955.83
600.03	46026.63
600.18	45844.07
600.34	46494.74
600.50	46344.95
600.65	46288.77
600.81	46326.22
600.97	46525.17
601.12	46836.46
601.28	46043.02
601.44	46106.21
601.59	46026.63
601.75	46518.15
601.91	46293.46
602.06	46497.08
602.22	46078.13
602.37	46209.20
602.53	46394.10
602.69	46806.03
602.84	46185.79
603.00	46665.60
603.16	46251.33
603.31	45682.58
603.47	46087.49
603.62	45860.46
603.78	46307.50
603.94	45954.08
604.09	46944.12
604.25	46335.59
604.40	45886.20
604.56	46146.00
604.71	46562.62
604.87	46241.96
605.03	45979.82
605.18	45858.12
605.34	46099.19
605.49	45720.02
605.65	46436.23
605.80	46321.54
605.96	46183.45
606.12	45715.34
606.27	46124.94
606.43	46101.53
606.58	46117.92
606.74	46199.83
606.89	45698.96
607.05	46115.58
607.20	46286.43
607.36	46012.59
607.51	46094.51
607.67	46256.01
607.82	45830.03
607.98	45766.84
608.13	46103.87
608.29	46241.96
608.44	45867.48
608.60	45801.94
608.75	45722.37
608.91	46094.51
609.06	45537.46
609.22	45867.48
609.37	45680.24
609.53	46237.28
609.68	46204.52
609.84	46153.02
609.99	45361.92
610.15	45542.14
610.30	45539.80
610.46	45411.07
610.61	45577.25
610.76	45492.99
610.92	45769.18
611.07	45680.24
611.23	45705.98
611.38	46099.19
611.54	45184.04
611.69	45567.89
611.84	45277.66
612.00	45567.89
612.15	45359.58
612.31	45675.55
612.46	45502.35
612.62	45647.47
612.77	45413.41
612.92	45579.59
613.08	45109.14
613.23	45420.44
613.39	44858.71
613.54	45020.20
613.69	45113.83
613.85	44978.07
614.00	45134.89
614.15	45191.06
614.31	45324.47
614.46	45467.25
614.62	45277.66
614.77	45462.57
614.92	45394.69
615.08	45326.81
615.23	45200.43
615.38	45013.18
615.54	44725.30
615.69	45045.95
615.84	44772.11
616.00	45443.84
616.15	44863.39
616.30	45352.56
616.46	44708.91
616.61	44727.64
616.76	44573.16
616.92	44905.52
617.07	44704.23
617.22	44755.72
617.37	44737.00
617.53	44975.73
617.68	44662.10
617.83	44816.58
617.99	44898.50
618.14	44748.70
618.29	44669.12
618.45	44128.46
618.60	44416.35
618.75	43922.49
618.90	44414.01
619.06	44561.46
619.21	44484.22
619.36	44432.73
619.51	44325.07
619.67	44060.58
619.82	44175.27
619.97	44336.77
620.12	44250.17
620.28	44076.97
620.43	44479.54
620.58	44287.62
620.73	44268.89
620.89	44208.04
621.04	44446.77
621.19	44339.11
621.34	44374.22
621.49	43899.09
621.65	44318.04
621.80	44161.23
621.95	44034.84
622.10	43805.47
622.25	43775.04
622.41	43887.39
622.56	43625.25
622.71	43910.79
622.86	43737.59
623.01	43739.93
623.16	43847.60
623.32	43634.61
623.47	44046.54
623.62	43812.49
623.77	43828.87
623.92	43973.98
624.07	43388.85
624.23	43667.37
624.38	43449.70
624.53	43276.51
624.68	43363.11
624.83	43632.27
624.98	43241.40
625.13	43030.75
625.29	43271.82
625.44	43206.29
625.59	42646.90
625.74	42892.66
625.89	43302.25
626.04	43243.74
626.19	42834.14
626.34	42810.74
626.49	43257.78
626.65	42831.80
626.80	43374.81
626.95	43002.66
627.10	42712.44
627.25	42714.78
627.40	42466.68
627.55	42363.70
627.70	42410.51
627.85	42525.19
628.00	42937.13
628.15	43288.21
628.30	43110.33
628.45	42707.76
628.60	42667.97
628.76	42667.97
628.91	42981.60
629.06	42398.80
629.21	42340.29
629.36	42518.17
629.51	42321.57
629.66	42719.46
629.81	42569.66
629.96	42747.54
630.11	42323.91
630.26	42679.67
630.41	42380.08
630.56	42146.03
630.71	42841.17
630.86	42440.93
631.01	41860.48
631.16	41687.28
631.31	42033.68
631.46	42202.20
631.61	42094.53
631.76	42155.39
631.91	41998.57
632.06	42270.08
632.21	42068.79
632.36	42199.86
632.51	41441.53
632.66	41745.80
632.81	41603.02
632.96	41860.48
633.10	41865.16
633.25	41984.53
633.40	41970.49
633.55	42183.48
633.70	42101.56
633.85	41825.37
634.00	41783.24
634.15	41888.57
634.30	41467.27
634.45	41682.60
634.60	41373.65
634.75	41455.57
634.90	41535.15
635.05	41528.13
635.19	41553.87
635.34	41902.61
635.49	41645.15
635.64	41750.48
635.79	41464.93
635.94	41495.36
636.09	40896.18
636.24	41404.08
636.39	40870.43
636.53	40924.27
636.68	40816.60
636.83	41181.73
636.98	41294.07
637.13	41275.35
637.28	41425.14
637.43	41745.80
637.57	40774.47
637.72	40966.40
637.87	40835.33
638.02	40744.05
638.17	41029.59
638.32	40575.53
638.46	40795.54
638.61	40474.88
638.76	40835.33
638.91	40264.24
639.06	40608.29
639.20	40985.12
639.35	41031.93
639.50	40540.42
639.65	41191.09
639.80	40484.25
639.94	40645.74
640.09	40896.18
640.24	40643.40
640.39	40608.29
640.54	40236.15
640.68	40629.36
640.83	40093.38
640.98	40781.49
641.13	40374.24
641.27	40292.32
641.42	40133.17
641.57	40165.93
641.72	40760.43
641.86	39899.11
642.01	40336.79
642.16	40224.45
642.31	39700.17
642.45	40411.69
642.60	39744.64
642.75	40051.25
642.90	40280.62
643.04	40294.66
643.19	39746.98
643.34	40177.64
643.48	39845.28
643.63	39910.82
643.78	39917.84
643.93	40325.09
644.07	39845.28
644.22	39236.74
644.37	40053.59
644.51	39917.84
644.66	39880.39
644.81	39990.39
644.95	39014.39
645.10	39997.41
645.25	39945.92
645.39	39849.96
645.54	39683.78
645.69	39864.00
645.83	39330.36
645.98	38925.45
646.13	39641.65
646.27	39468.45
646.42	39255.46
646.57	39023.75
646.71	39292.91
646.86	39218.02
647.00	39449.73
647.15	39030.77
647.30	38906.73
647.44	39440.37
647.59	38787.36
647.74	38937.15
647.88	39016.73
648.03	39009.71
648.17	39168.87
648.32	38745.23
648.47	39161.84
648.61	39023.75
648.76	38995.67
648.90	39117.37
649.05	38756.93
649.20	39103.33
649.34	39075.24
649.49	38518.20
649.63	39040.14
649.78	39131.42
649.92	39047.16
650.07	38995.67
650.21	38616.50
650.36	38866.94
650.51	38930.13
650.65	39414.62
650.80	39178.23
650.94	38740.55
651.09	38635.22
651.23	38260.74
651.38	37947.11
651.52	38305.21
651.67	37883.91
651.81	38190.52
651.96	38337.98
652.10	38740.55
652.25	38307.55
652.39	38476.07
652.54	38724.16
652.68	38609.48
652.83	38410.53
652.97	38735.87
653.12	38253.72
653.26	38335.63
653.41	38026.68
653.55	38270.10
653.70	38153.07
653.84	38429.26
653.99	38003.28
654.13	37792.63
654.27	38122.65
654.42	37759.86
654.56	37956.47
654.71	38150.73
654.85	37912.00
655.00	38368.40
655.14	37532.83
655.29	37418.14
655.43	37364.31
655.57	37148.98
655.72	37326.86
655.86	37156.00
656.01	36996.85
656.15	37048.34
656.30	36982.80
656.44	37076.43
656.58	37368.99
656.73	37460.27
656.87	36891.52
657.01	36952.38
657.16	37347.93
657.30	36891.52
657.45	37008.55
657.59	37010.89
657.73	37251.97
657.88	37490.70
658.02	37425.17
658.16	37237.92
658.31	37570.28
658.45	37429.85
658.60	37076.43
658.74	37387.72
658.88	37074.09
659.03	36800.24
659.17	36774.50
659.31	36414.05
659.46	36659.81
659.60	36830.67
659.74	36697.26
659.89	36383.63
660.03	36811.95
660.17	36713.64
660.32	36568.53
660.46	36510.02
660.60	36367.24
660.74	36641.09
660.89	36493.63
661.03	36364.90
661.17	36074.68
661.32	36650.45
661.46	36245.54
661.60	35882.75
661.74	36236.17
661.89	35739.98
662.03	36037.23
662.17	36144.89
662.31	36205.75
662.46	36566.19
662.60	36201.07
662.74	36055.95
662.88	35550.40
663.03	35770.41
663.17	35754.02
663.31	35637.00
663.45	35580.82
663.60	35395.92
663.74	35440.39
663.88	35550.40
664.02	35091.65
664.17	35580.82
664.31	35290.60
664.45	35292.94
664.59	34986.33
664.73	35140.80
664.88	34991.01
665.02	34906.75
665.16	34436.30
665.30	34855.26
665.44	34869.30
665.59	34574.39
665.73	34679.72
665.87	34546.31
666.01	34691.42
666.15	34808.45
666.29	34368.43
666.44	34855.26
666.58	34703.12
666.72	34527.58
666.86	34459.71
667.00	34220.97
667.14	33897.98
667.28	34101.61
667.43	34190.55
667.57	34363.75
667.71	34073.52
667.85	33940.11
667.99	34199.91
668.13	33935.43
668.27	34220.97
668.41	34719.51
668.56	33549.24
668.70	33378.38
668.84	33139.65
668.98	33514.13
669.12	33677.97
669.26	33523.49
669.40	33113.90
669.54	33467.32
669.68	33500.09
669.82	32760.48
669.96	33207.52
670.10	33146.67
670.25	33249.65
670.39	33205.18
670.53	32882.19
670.67	32779.20
670.81	32844.74
670.95	32694.94
671.09	32961.76
671.23	32664.52
671.37	32397.70
671.51	32369.61
671.65	31852.35
671.79	32421.10
671.93	32283.01
672.07	32266.63
672.21	32407.06
672.35	32048.96
672.49	32009.17
672.63	31927.25
672.77	31754.05
672.91	31707.24
673.05	31945.97
673.19	31826.60
673.33	31395.95
673.47	31360.84
673.61	31625.32
673.75	31742.35
673.89	31070.61
674.03	31700.22
674.17	31318.71
674.31	31103.38
674.45	31391.26
674.59	31618.30
674.73	31459.14
674.87	30965.29
675.01	31012.10
675.15	30881.03
675.29	30431.65
675.43	30504.20
675.56	31040.18
675.70	30614.21
675.84	30604.84
675.98	29394.79
676.12	30433.99
676.26	30494.84
676.40	30361.43
676.54	30106.31
676.68	30122.69
676.82	29699.06
676.96	29874.60
677.10	30146.10
677.23	29797.36
677.37	29500.11
677.51	29677.99
677.65	29617.14
677.79	28957.11
677.93	28641.14
678.07	28694.97
678.21	28570.92
678.34	28676.24
678.48	28924.34
678.62	28589.64
678.76	28950.09
678.90	28233.88
679.04	28301.76
679.18	28966.47
679.31	27730.67
679.45	28020.89
679.59	27950.68
679.73	28126.22
679.87	27866.42
680.00	27955.36
680.14	27700.24
680.28	27484.91
680.42	27594.92
680.56	27520.02
680.70	27714.28
680.83	27440.44
680.97	27267.24
681.11	27384.27
681.25	27302.35
681.39	27058.93
681.52	27002.76
681.66	26867.01
681.80	26867.01
681.94	26668.06
682.07	26532.31
682.21	26462.10
682.35	26478.48
682.49	26195.28
682.62	26321.66
682.76	26148.46
682.90	26522.95
683.04	26405.92
683.17	26171.87
683.31	25596.10
683.45	25682.70
683.59	25893.35
683.72	25624.18
683.86	25797.38
684.00	25572.69
684.13	25472.05
684.27	25273.10
684.41	25233.32
684.55	25123.31
684.68	24767.55
684.82	24982.88
684.96	24589.67
685.09	24980.54
685.23	24732.44
685.37	24407.11
685.50	24694.99
685.64	24812.02
685.78	24650.52
685.91	23962.40
686.05	24194.12
686.19	23875.80
686.32	23768.14
686.46	23332.80
686.60	23295.35
686.73	22965.34
686.87	22960.66
687.01	23171.30
687.14	22773.41
687.28	22955.97
687.42	23058.96
687.55	22874.06
687.69	22647.02
687.82	23117.47
687.96	22738.30
688.10	22628.30
688.23	22436.38
688.37	22258.49
688.50	22642.34
688.64	22429.35
688.78	22366.16
688.91	21944.86
689.05	22394.25
689.18	22169.55
689.32	21319.94
689.46	22242.11
689.59	22199.98
689.73	22401.27
689.86	21502.50
690.00	21898.05
690.13	21818.47
690.27	21287.17
690.41	21310.58
690.54	20917.37
690.68	21282.49
690.81	21113.97
690.95	21123.33
691.08	20769.91
691.22	21242.70
691.35	20999.29
691.49	20863.54
691.62	20823.75
691.76	20917.37
691.89	20835.45
692.03	20659.91
692.16	20685.65
692.30	20533.52
692.43	20112.22
692.57	20191.80
692.70	20194.14
692.84	19833.70
692.97	19714.33
693.11	20065.41
693.24	19620.71
693.38	19410.06
693.51	19594.96
693.65	19751.78
693.78	19466.24
693.92	19555.18
694.05	19372.61
694.19	19248.57
694.32	19513.05
694.45	19410.06
694.59	19255.59
694.72	18881.10
694.86	18986.43
694.99	18848.33
695.13	18609.60
695.26	19007.49
695.39	18637.69
695.53	18668.11
695.66	18754.71
695.80	18523.00
695.93	18539.38
696.07	18246.82
696.20	18274.90
696.33	18335.76
696.47	17987.02
696.60	18078.30
696.73	17635.94
696.87	17867.65
697.00	17848.93
697.14	17579.76
697.27	17614.87
697.40	17224.00
697.54	17364.43
697.67	17406.56
697.80	17221.66
697.94	17116.34
698.07	17198.26
698.21	17270.81
698.34	16840.15
698.47	17130.38
698.61	16695.04
698.74	16762.92
698.87	17025.06
699.01	16486.73
699.14	16294.81
699.27	16451.63
699.40	16114.59
699.54	16049.05
699.67	16180.12
699.80	16191.83
699.94	16128.63
700.07	16156.72
700.20	16360.34
700.34	16020.97
700.47	15936.71
700.60	15796.28
700.73	15807.98
700.87	15627.76
701.00	15597.33
701.13	15513.07
701.26	15239.23
701.40	15468.60
701.53	15161.99
701.66	15140.93
701.79	15213.48
701.93	14946.66
702.06	14794.53
702.19	14808.57
702.32	14993.47
702.46	14801.55
702.59	14953.68
702.72	14691.54
702.85	14537.07
702.99	14548.77
703.12	14324.08
703.25	14352.16
703.38	14485.58
703.51	14424.72
703.65	14169.60
703.78	14008.11
703.91	14033.85
704.04	13762.35
704.17	13912.14
704.31	13951.93
704.44	13898.10
704.57	13844.27
704.70	13661.71
704.83	13586.81
704.96	13645.32
705.10	13568.09
705.23	13671.07
>>>>>End Processed Spectral Data<<<<<
