SpectraSuite Data File
++++++++++++++++++++++++++++++++++++
Date: Fri Oct 25 11:33:46 EDT 2013
User: price-jones
Dark Spectrum Present: No
Reference Spectrum Present: No
Number of Sampled Component Spectra: 1
Spectrometers: USB2+H05261
Integration Time (usec): 100000 (USB2+H05261)
Spectra Averaged: 1 (USB2+H05261)
Boxcar Smoothing: 0 (USB2+H05261)
Correct for Electrical Dark: No (USB2+H05261)
Strobe/Lamp Enabled: No (USB2+H05261)
Correct for Detector Non-linearity: No (USB2+H05261)
Correct for Stray Light: No (USB2+H05261)
Number of Pixels in Processed Spectrum: 2048
>>>>>Begin Processed Spectral Data<<<<<
365.73	348.74
365.92	348.74
366.12	348.74
366.32	224.69
366.52	161.50
366.72	227.03
366.91	98.30
367.11	205.97
367.31	212.99
367.51	212.99
367.70	131.07
367.90	215.33
368.10	205.97
368.30	187.24
368.49	154.48
368.69	154.48
368.89	217.67
369.09	177.88
369.28	180.22
369.48	196.60
369.68	227.03
369.87	212.99
370.07	259.80
370.27	355.76
370.47	362.78
370.66	433.00
370.86	468.11
371.06	545.34
371.25	543.00
371.45	503.22
371.65	557.05
371.84	503.22
372.04	475.13
372.24	634.29
372.44	533.64
372.63	582.79
372.83	610.88
373.03	641.31
373.22	603.86
373.42	631.94
373.62	608.54
373.81	660.03
374.01	627.26
374.21	720.88
374.40	655.35
374.60	648.33
374.79	667.05
374.99	631.94
375.19	688.12
375.38	699.82
375.58	650.67
375.78	669.39
375.97	716.20
376.17	685.78
376.37	655.35
376.56	610.88
376.76	662.37
376.95	617.90
377.15	566.41
377.35	692.80
377.54	660.03
377.74	617.90
377.93	716.20
378.13	755.99
378.33	741.95
378.52	653.01
378.72	734.93
378.91	706.84
379.11	718.54
379.31	753.65
379.50	695.14
379.70	720.88
379.89	741.95
380.09	767.70
380.28	772.38
380.48	751.31
380.68	744.29
380.87	734.93
381.07	741.95
381.26	814.51
381.46	781.74
381.65	800.46
381.85	805.14
382.04	828.55
382.24	767.70
382.43	800.46
382.63	760.67
382.83	744.29
383.02	866.00
383.22	727.91
383.41	793.44
383.61	772.38
383.80	816.85
384.00	751.31
384.19	844.93
384.39	819.19
384.58	844.93
384.78	891.74
384.97	873.02
385.17	763.01
385.36	830.89
385.56	755.99
385.75	821.53
385.95	765.36
386.14	877.70
386.34	889.40
386.53	931.53
386.72	788.76
386.92	877.70
387.11	905.79
387.31	926.85
387.50	863.66
387.70	912.81
387.89	943.24
388.09	912.81
388.28	912.81
388.48	957.28
388.67	950.26
388.86	957.28
389.06	884.72
389.25	917.49
389.45	1067.28
389.64	936.21
389.84	990.05
390.03	987.71
390.22	1071.97
390.42	968.98
390.61	973.66
390.81	973.66
391.00	954.94
391.19	1001.75
391.39	1067.28
391.58	983.02
391.78	1064.94
391.97	1064.94
392.16	1006.43
392.36	1053.24
392.55	1137.50
392.75	999.41
392.94	954.94
393.13	1015.79
393.33	1067.28
393.52	1097.71
393.71	1102.39
393.91	1074.31
394.10	1097.71
394.29	1137.50
394.49	1107.07
394.68	1156.22
394.88	1071.97
395.07	1158.57
395.26	1130.48
395.46	1116.44
395.65	1177.29
395.84	1270.91
396.04	1273.25
396.23	1179.63
396.42	1156.22
396.62	1142.18
396.81	1214.74
397.00	1186.65
397.19	1324.74
397.39	1188.99
397.58	1263.89
397.77	1196.01
397.97	1299.00
398.16	1235.80
398.35	1224.10
398.55	1320.06
398.74	1273.25
398.93	1338.79
399.12	1245.16
399.32	1299.00
399.51	1355.17
399.70	1329.42
399.90	1385.60
400.09	1394.96
400.28	1409.00
400.47	1352.83
400.67	1453.47
400.86	1411.34
401.05	1364.53
401.24	1348.15
401.44	1425.39
401.63	1465.18
401.82	1514.33
402.01	1455.81
402.21	1507.30
402.40	1488.58
402.59	1519.01
402.78	1549.43
402.97	1502.62
403.17	1530.71
403.36	1526.03
403.55	1519.01
403.74	1570.50
403.93	1614.97
404.13	1621.99
404.32	1610.29
404.51	1528.37
404.70	1643.06
404.89	1671.14
405.09	1760.08
405.28	1629.01
405.47	1694.55
405.66	1713.27
405.85	1659.44
406.05	1701.57
406.24	1727.32
406.43	1715.61
406.62	1827.96
406.81	1870.09
407.00	1668.80
407.20	1811.57
407.39	1818.60
407.58	1771.79
407.77	1872.43
407.96	1900.52
408.15	1823.28
408.34	1905.20
408.54	1994.14
408.73	1872.43
408.92	1886.47
409.11	1996.48
409.30	2043.29
409.49	1832.64
409.68	1994.14
409.87	2043.29
410.07	2017.54
410.26	2122.87
410.45	2092.44
410.64	2101.80
410.83	2113.50
411.02	2162.66
411.21	2132.23
411.40	2141.59
411.59	2263.30
411.78	2296.07
411.98	2225.85
412.17	2265.64
412.36	2263.30
412.55	2300.75
412.74	2300.75
412.93	2429.48
413.12	2202.44
413.31	2434.16
413.50	2476.29
413.69	2438.84
413.88	2483.31
414.07	2455.22
414.26	2537.14
414.45	2480.97
414.64	2612.04
414.83	2654.17
415.02	2635.44
415.22	2588.63
415.41	2658.85
415.60	2682.25
415.79	2724.38
415.98	2682.25
416.17	2705.66
416.36	2745.45
416.55	2803.96
416.74	2757.15
416.93	2853.11
417.12	2775.88
417.31	2918.65
417.50	2792.26
417.69	2958.44
417.88	2918.65
418.07	2883.54
418.26	2839.07
418.45	3042.70
418.64	3016.95
418.83	3094.19
419.02	2953.76
419.21	3145.68
419.39	3101.21
419.58	3159.72
419.77	3035.67
419.96	3199.51
420.15	3131.64
420.34	3124.62
420.53	3218.24
420.72	3262.71
420.91	3253.34
421.10	3309.52
421.29	3325.90
421.48	3262.71
421.67	3272.07
421.86	3304.84
422.05	3323.56
422.24	3253.34
422.43	3342.28
422.61	3325.90
422.80	3428.88
422.99	3353.99
423.18	3475.70
423.37	3386.76
423.56	3452.29
423.75	3508.46
423.94	3307.18
424.13	3197.17
424.32	3302.50
424.50	3428.88
424.69	3562.30
424.88	3571.66
425.07	3417.18
425.26	3449.95
425.45	3492.08
425.64	3304.84
425.83	3421.86
426.01	3414.84
426.20	3419.52
426.39	3548.25
426.58	3508.46
426.77	3611.45
426.96	3466.33
427.15	3499.10
427.33	3513.14
427.52	3609.11
427.71	3611.45
427.90	3548.25
428.09	3552.93
428.28	3695.71
428.46	3812.73
428.65	3716.77
428.84	3763.58
429.03	3815.07
429.22	3679.32
429.40	3667.62
429.59	3742.52
429.78	3662.94
429.97	3637.19
430.16	3679.32
430.34	3770.60
430.53	4007.00
430.72	3983.59
430.91	3850.18
431.10	3875.93
431.28	3904.01
431.47	4072.53
431.66	4140.41
431.85	4039.76
432.03	4145.09
432.22	4168.49
432.41	4049.13
432.60	3978.91
432.79	4028.06
432.97	4124.02
433.16	4107.64
433.35	4114.66
433.54	4109.98
433.72	4100.62
433.91	4210.62
434.10	4168.49
434.28	4236.37
434.47	4372.12
434.66	4292.54
434.85	4454.04
435.03	4465.74
435.22	4409.57
435.41	4432.97
435.59	4351.06
435.78	4484.47
435.97	4472.76
436.16	4308.93
436.34	4451.70
436.53	4409.57
436.72	4676.39
436.90	4397.87
437.09	4526.60
437.28	4561.70
437.46	4550.00
437.65	4496.17
437.84	4538.30
438.02	4606.17
438.21	4718.52
438.40	4650.64
438.58	4702.14
438.77	4854.27
438.96	4732.56
439.14	4770.01
439.33	4781.71
439.52	4856.61
439.70	4791.08
439.89	4929.17
440.08	4929.17
440.26	5149.18
440.45	5153.86
440.63	4933.85
440.82	5167.90
441.01	5193.65
441.19	5177.26
441.38	5298.97
441.57	5275.57
441.75	5228.76
441.94	5329.40
442.12	5315.36
442.31	5423.02
442.50	5446.43
442.68	5575.16
442.87	5247.48
443.05	5453.45
443.24	5554.09
443.43	5692.18
443.61	5696.86
443.80	5926.24
443.98	5418.34
444.17	5411.32
444.35	5521.32
444.54	5743.67
444.73	5633.67
444.91	5621.97
445.10	5479.19
445.28	5575.16
445.47	5706.23
445.65	5671.12
445.84	5631.33
446.02	5762.40
446.21	5804.53
446.39	5680.48
446.58	5626.65
446.77	5708.57
446.95	5706.23
447.14	5701.54
447.32	5804.53
447.51	5694.52
447.69	5694.52
447.88	5701.54
448.06	5846.66
448.25	5708.57
448.43	5905.17
448.62	5781.12
448.80	5863.04
448.99	5902.83
449.17	5753.04
449.36	5870.06
449.54	6061.99
449.73	5935.60
449.91	6146.25
450.10	6069.01
450.28	6064.33
450.46	6092.41
450.65	6059.65
450.83	6157.95
451.02	6200.08
451.20	6312.42
451.39	6108.80
451.57	6118.16
451.76	6106.46
451.94	6200.08
452.13	6218.80
452.31	6340.51
452.49	6321.79
452.68	6370.94
452.86	6331.15
453.05	6384.98
453.23	6303.06
453.42	6345.19
453.60	6384.98
453.78	6661.16
453.97	6270.30
454.15	6445.84
454.34	6392.00
454.52	6516.05
454.70	6621.38
454.89	6560.52
455.07	6642.44
455.26	6740.74
455.44	6778.19
455.62	6588.61
455.81	6799.26
455.99	6719.68
456.17	6719.68
456.36	6778.19
456.54	6909.26
456.73	6885.86
456.91	7089.48
457.09	6874.15
457.28	7073.10
457.46	6899.90
457.64	7176.08
457.83	7155.02
458.01	6815.64
458.19	7220.55
458.38	7197.15
458.56	7136.29
458.74	7314.17
458.93	7169.06
459.11	7234.60
459.29	7089.48
459.48	7082.46
459.66	7478.01
459.84	7461.63
460.03	7494.40
460.21	7323.54
460.39	7220.55
460.57	7318.86
460.76	7494.40
460.94	7513.12
461.12	7531.84
461.31	7499.08
461.49	7435.88
461.67	7632.49
461.85	7705.04
462.04	7435.88
462.22	7995.27
462.40	7616.10
462.59	7906.33
462.77	7688.66
462.95	7672.28
463.13	7653.55
463.32	7911.01
463.50	7934.42
463.68	8086.55
463.86	7939.10
464.05	7873.56
464.23	7857.18
464.41	7929.74
464.59	7903.99
464.78	8112.30
464.96	8063.15
465.14	7866.54
465.32	7932.08
465.50	8039.74
465.69	8107.62
465.87	7992.93
466.05	8116.98
466.23	8121.66
466.41	8138.04
466.60	8393.16
466.78	8182.51
466.96	8131.02
467.14	8234.00
467.32	8222.30
467.51	8425.93
467.69	8112.30
467.87	8093.57
468.05	8465.72
468.23	8257.41
468.41	8308.90
468.60	8402.52
468.78	8472.74
468.96	8358.05
469.14	8608.49
469.32	8720.84
469.50	8528.91
469.69	8531.25
469.87	8938.51
470.05	8847.22
470.23	8840.20
470.41	8833.18
470.59	8741.90
470.77	8840.20
470.95	8994.68
471.14	8980.64
471.32	8791.05
471.50	8990.00
471.68	8957.23
471.86	9181.92
472.04	9050.85
472.22	9387.89
472.40	9252.14
472.58	9181.92
472.77	9242.78
472.95	9312.99
473.13	9612.58
473.31	9198.31
473.49	9619.60
473.67	9586.83
473.85	9554.07
474.03	9839.61
474.21	9657.05
474.39	9694.50
474.57	9856.00
474.75	9905.15
474.93	9839.61
475.12	9837.27
475.30	10246.87
475.48	10024.51
475.66	10298.36
475.84	10080.69
476.02	10277.29
476.20	10132.18
476.38	10284.31
476.56	10530.07
476.74	10637.73
476.92	10640.08
477.10	10649.44
477.28	10501.98
477.46	10644.76
477.64	10822.64
477.82	11192.44
478.00	11063.71
478.18	11087.12
478.36	11225.21
478.54	11653.53
478.72	11440.54
478.90	11339.90
479.08	11723.74
479.26	11632.46
479.44	11889.92
479.62	11896.94
479.80	11805.66
479.98	11735.45
480.16	12187.17
480.34	12081.85
480.52	12318.24
480.70	12336.96
480.88	12271.43
481.06	12184.83
481.24	12306.54
481.41	12669.32
481.59	12762.94
481.77	12924.44
481.95	12856.56
482.13	12996.99
482.31	13064.87
482.49	13378.50
482.67	13497.87
482.85	13582.13
483.03	13640.64
483.21	13738.94
483.39	13855.97
483.57	13916.83
483.74	14047.90
483.92	14033.85
484.10	13987.04
484.28	14424.72
484.46	14513.66
484.64	15070.71
484.82	14370.89
485.00	14551.11
485.18	15066.03
485.35	15140.93
485.53	15218.16
485.71	14951.34
485.89	15440.51
486.07	15089.43
486.25	15269.66
486.43	15412.43
486.61	15744.78
486.78	15704.99
486.96	15704.99
487.14	15922.66
487.32	16269.06
487.50	16339.28
487.68	16533.54
487.85	16374.39
488.03	16664.61
488.21	16865.90
488.39	16910.37
488.57	17366.78
488.75	17142.08
488.92	17528.27
489.10	17467.42
489.28	17528.27
489.46	17713.17
489.64	17631.26
489.81	18120.43
489.99	18164.90
490.17	18302.99
490.35	18342.78
490.53	18218.73
490.70	18464.49
490.88	18555.77
491.06	18934.93
491.24	19007.49
491.41	19066.00
491.59	19358.57
491.77	18967.70
491.95	19297.72
492.13	19267.29
492.30	19524.75
492.48	19517.73
492.66	20100.52
492.84	19894.55
493.01	20194.14
493.19	20013.92
493.37	20290.10
493.54	20465.64
493.72	20893.96
493.90	20692.68
494.08	20592.03
494.25	20877.58
494.43	20842.47
494.61	21294.19
494.79	21207.59
494.96	21312.92
495.14	21476.76
495.32	21638.25
495.49	21839.54
495.67	21872.31
495.85	22338.07
496.02	22024.44
496.20	22204.66
496.38	22537.02
496.55	22448.08
496.73	23152.58
496.91	22876.40
497.09	22852.99
497.26	22799.16
497.44	22998.10
497.62	23124.49
497.79	23866.44
497.97	23161.94
498.14	23812.61
498.32	23618.35
498.50	23910.91
498.67	23903.89
498.85	24013.90
499.03	24130.92
499.20	24056.03
499.38	24130.92
499.56	24170.71
499.73	24379.02
499.91	24329.87
500.08	24954.79
500.26	24594.35
500.44	24922.02
500.61	25146.72
500.79	24627.12
500.97	24886.92
501.14	25160.76
501.32	25032.03
501.49	25280.13
501.67	25362.04
501.84	25855.90
502.02	25460.35
502.20	25905.05
502.37	25635.89
502.55	25752.91
502.72	25891.01
502.90	26202.30
503.07	26293.58
503.25	26008.03
503.43	26450.39
503.60	26256.13
503.78	26745.30
503.95	26600.19
504.13	26352.09
504.30	26801.47
504.48	26787.43
504.65	26909.14
504.83	27009.78
505.01	27126.81
505.18	27309.37
505.36	27087.02
505.53	27321.07
505.71	27388.95
505.88	27456.82
506.06	27342.14
506.23	27623.00
506.41	27583.21
506.58	27482.57
506.76	27807.90
506.93	28233.88
507.11	27709.60
507.28	28144.94
507.46	28084.09
507.63	28510.07
507.81	28638.80
507.98	28535.81
508.16	28362.61
508.33	28470.28
508.50	28959.45
508.68	28641.14
508.85	29151.37
509.03	28854.12
509.20	29081.16
509.38	29223.93
509.55	29336.27
509.73	29455.64
509.90	29481.39
510.08	29752.89
510.25	29542.24
510.42	29715.44
510.60	29624.16
510.77	29797.36
510.95	30307.60
511.12	29872.26
511.30	30064.18
511.47	30120.35
511.64	30150.78
511.82	30387.18
511.99	30291.21
512.17	30654.00
512.34	30291.21
512.51	30717.19
512.69	31248.49
512.86	30649.32
513.04	31159.55
513.21	30869.33
513.38	31119.76
513.56	31103.38
513.73	30948.90
513.90	31454.46
514.08	31299.98
514.25	31222.75
514.43	31351.48
514.60	31461.48
514.77	31730.64
514.95	31538.72
515.12	32016.19
515.29	31880.44
515.47	31791.50
515.64	32395.35
515.81	31599.57
515.99	32217.47
516.16	32264.28
516.33	32280.67
516.51	32804.95
516.68	32477.27
516.85	32521.74
517.03	32886.87
517.20	32865.80
517.37	32678.56
517.54	32891.55
517.72	32884.53
517.89	32727.71
518.06	32968.79
518.24	32858.78
518.41	32971.13
518.58	33111.56
518.75	33106.88
518.93	33535.20
519.10	33696.69
519.27	33352.63
519.45	33551.58
519.62	33514.13
519.79	33912.02
519.96	33567.96
520.14	33996.28
520.31	34225.65
520.48	34136.71
520.65	33851.17
520.83	33984.58
521.00	34141.39
521.17	34419.92
521.34	34359.06
521.52	34492.47
521.69	34668.02
521.86	34796.74
522.03	34981.65
522.20	35227.40
522.38	35365.49
522.55	35292.94
522.72	35131.44
522.89	35068.25
523.07	35215.70
523.24	35299.96
523.41	35395.92
523.58	35608.91
523.75	35431.03
523.92	35370.18
524.10	35714.23
524.27	35328.05
524.44	35814.88
524.61	35697.85
524.78	35775.09
524.96	36081.70
525.13	36315.75
525.30	36313.41
525.47	36297.03
525.64	36229.15
525.81	36055.95
525.98	36320.43
526.16	36236.17
526.33	36339.16
526.50	36556.83
526.67	36446.82
526.84	36425.76
527.01	36835.35
527.18	36360.22
527.36	36912.59
527.53	36847.05
527.70	37336.23
527.87	37420.48
528.04	37132.60
528.21	37322.18
528.38	36877.48
528.55	37109.19
528.72	36971.10
528.89	37200.47
529.07	36900.89
529.24	37301.12
529.41	37759.86
529.58	37354.95
529.75	37191.11
529.92	37717.73
530.09	37516.45
530.26	37558.58
530.43	37848.80
530.60	37581.98
530.77	37570.28
530.94	38026.68
531.11	37984.55
531.28	38225.63
531.46	37968.17
531.63	38040.73
531.80	38387.13
531.97	38455.00
532.14	38272.44
532.31	38286.48
532.48	38611.82
532.65	38878.64
532.82	38328.61
532.99	38447.98
533.16	38349.68
533.33	38569.69
533.50	38836.51
533.67	38880.98
533.84	38455.00
534.01	38700.76
534.18	38801.40
534.35	39304.62
534.52	39164.18
534.69	39082.27
534.86	39519.95
535.03	39030.77
535.20	39482.50
535.37	39405.26
535.54	39665.06
535.71	39398.24
535.88	39803.15
536.05	39737.62
536.22	39835.92
536.38	39845.28
536.55	39241.42
536.72	39735.27
536.89	39768.04
537.06	39693.15
537.23	39997.41
537.40	39639.31
537.57	39852.30
537.74	39901.45
537.91	40194.02
538.08	39992.73
538.25	40144.87
538.42	40378.92
538.59	40631.70
538.75	40201.04
538.92	40582.55
539.09	40638.72
539.26	40264.24
539.43	40156.57
539.60	40493.61
539.77	40577.87
539.94	41010.87
540.11	40596.59
540.28	40783.83
540.44	40933.63
540.61	40325.09
540.78	40748.73
540.95	41184.07
541.12	40701.92
541.29	40685.53
541.46	41050.66
541.62	41092.79
541.79	41605.36
541.96	40767.45
542.13	40910.22
542.30	41357.27
542.47	41579.62
542.63	41249.60
542.80	41460.25
542.97	41890.91
543.14	41661.54
543.31	41586.64
543.48	41851.12
543.64	42384.76
543.81	41727.07
543.98	42000.91
544.15	41916.65
544.32	42462.00
544.48	42548.60
544.65	42408.17
544.82	42024.32
544.99	42129.64
545.16	41986.87
545.32	42174.11
545.49	42319.23
545.66	42410.51
545.83	43077.56
546.00	42459.66
546.16	42541.58
546.33	42265.39
546.50	42735.84
546.67	42880.95
546.83	42340.29
547.00	42590.73
547.17	42499.45
547.34	43203.95
547.50	42745.20
547.67	42951.17
547.84	42969.90
548.00	43072.88
548.17	43512.90
548.34	43047.13
548.51	43306.93
548.67	43306.93
548.84	43196.93
549.01	43232.04
549.18	43164.16
549.34	43629.93
549.51	43693.12
549.68	43440.34
549.84	43365.45
550.01	43428.64
550.18	43487.15
550.34	43414.60
550.51	43730.57
550.68	44149.53
550.84	43283.53
551.01	43559.71
551.18	43718.87
551.34	43604.18
551.51	43871.00
551.68	43601.84
551.84	44025.48
552.01	43896.75
552.18	43702.48
552.34	44257.19
552.51	44006.75
552.68	43569.07
552.84	43796.10
553.01	44163.57
553.18	43964.62
553.34	44186.97
553.51	44151.87
553.67	44699.55
553.84	44552.10
554.01	44486.56
554.17	44348.47
554.34	44556.78
554.51	44364.85
554.67	45067.02
554.84	44521.67
555.00	45134.89
555.17	44636.36
555.33	44935.95
555.50	44376.56
555.67	44765.09
555.83	44624.65
556.00	45532.78
556.16	45375.97
556.33	45125.53
556.50	44636.36
556.66	44662.10
556.83	44519.33
556.99	45226.17
557.16	45303.41
557.32	44978.07
557.49	45118.51
557.65	44666.78
557.82	45485.97
557.98	45085.74
558.15	45153.62
558.32	45186.38
558.48	45003.82
558.65	45408.73
558.81	45085.74
558.98	44966.37
559.14	45230.85
559.31	44896.16
559.47	45104.46
559.64	45251.92
559.80	45310.43
559.97	45324.47
560.13	45366.60
560.30	45720.02
560.46	45724.71
560.63	45645.13
560.79	45832.37
560.96	45876.84
561.12	45918.97
561.29	45357.24
561.45	45832.37
561.61	45338.52
561.78	45338.52
561.94	45492.99
562.11	45647.47
562.27	45434.48
562.44	45689.60
562.60	45930.67
562.77	45991.53
562.93	45883.86
563.10	46216.22
563.26	45581.93
563.42	46115.58
563.59	45855.78
563.75	46024.29
563.92	46281.75
564.08	45818.33
564.24	46003.23
564.41	45794.92
564.57	46138.98
564.74	46375.37
564.90	45900.25
565.07	46012.59
565.23	46010.25
565.39	45720.02
565.56	46036.00
565.72	46497.08
565.88	45979.82
566.05	46312.18
566.21	46232.60
566.38	46258.35
566.54	46340.27
566.70	46515.81
566.87	46150.68
567.03	46248.99
567.19	46363.67
567.36	46452.61
567.52	46534.53
567.68	46466.66
567.85	46478.36
568.01	46555.60
568.17	46618.79
568.34	46342.61
568.50	46827.10
568.66	46349.63
568.83	46497.08
568.99	46101.53
569.15	46689.01
569.32	46553.26
569.48	46480.70
569.64	47180.52
569.81	46595.38
569.97	46546.23
570.13	46635.17
570.30	46333.24
570.46	46693.69
570.62	46644.54
570.78	46806.03
570.95	46358.99
571.11	47131.37
571.27	46508.79
571.43	46548.57
571.60	46291.12
571.76	46780.29
571.92	46789.65
572.09	46721.77
572.25	46920.72
572.41	46588.36
572.57	46581.34
572.74	47114.98
572.90	46763.90
573.06	46836.46
573.22	46864.55
573.38	47320.95
573.55	46843.48
573.71	47442.66
573.87	46962.85
574.03	47004.98
574.20	47063.49
574.36	47091.58
574.52	47168.82
574.68	46773.27
574.84	47107.96
575.01	47206.26
575.17	47016.68
575.33	46857.52
575.49	46960.51
575.65	47206.26
575.82	46974.55
575.98	47042.43
576.14	47007.32
576.30	46759.22
576.46	47042.43
576.62	47037.75
576.79	47288.18
576.95	46756.88
577.11	46829.44
577.27	46972.21
577.43	47154.77
577.59	47040.09
577.75	46866.89
577.92	46913.70
578.08	46836.46
578.24	47173.50
578.40	47386.49
578.56	47241.37
578.72	47077.54
578.88	47166.48
579.04	47051.79
579.21	47227.33
579.37	47030.72
579.53	47386.49
579.69	46951.15
579.85	47159.45
580.01	47309.25
580.17	47079.88
580.33	47264.78
580.49	47505.85
580.65	47042.43
580.82	47320.95
580.98	46890.29
581.14	46637.51
581.30	47543.30
581.46	47175.84
581.62	47110.30
581.78	47037.75
581.94	47702.46
582.10	47210.95
582.26	47379.46
582.42	47407.55
582.58	47084.56
582.74	47461.38
582.90	47489.47
583.06	47051.79
583.22	47065.83
583.38	47164.14
583.54	47505.85
583.70	47391.17
583.86	47641.60
584.02	47269.46
584.18	47480.11
584.34	47026.04
584.50	47863.96
584.66	47477.77
584.82	47426.28
584.98	48161.20
585.14	47297.55
585.30	47260.10
585.46	47519.90
585.62	47304.57
585.78	47466.06
585.94	47002.64
586.10	47292.86
586.26	46916.04
586.42	47393.51
586.58	47557.35
586.74	47119.66
586.90	47292.86
587.06	47744.59
587.22	47814.80
587.38	47199.24
587.54	47587.77
587.70	47386.49
587.86	47398.19
588.02	47264.78
588.18	47227.33
588.34	47309.25
588.49	47545.64
588.65	47274.14
588.81	47194.56
588.97	47597.13
589.13	47721.18
589.29	47129.03
589.45	47973.96
589.61	47576.07
589.77	47856.93
589.93	47491.81
590.08	47739.91
590.24	47901.40
590.40	48362.49
590.56	47899.06
590.72	47564.37
590.88	47196.90
591.04	47662.67
591.20	47580.75
591.35	47920.13
591.51	48301.64
591.67	47906.08
591.83	48261.85
591.99	47580.75
592.15	47810.12
592.31	47732.89
592.46	47819.49
592.62	47672.03
592.78	48147.16
592.94	48039.50
593.10	48072.26
593.26	48273.55
593.41	48306.32
593.57	47950.56
593.73	47903.74
593.89	48432.71
594.05	48364.83
594.20	48186.95
594.36	48308.66
594.52	48130.78
594.68	47931.83
594.84	48193.97
594.99	48168.22
595.15	48179.93
595.31	48575.48
595.47	48072.26
595.62	48027.79
595.78	47936.51
595.94	48367.17
596.10	48081.63
596.25	48296.95
596.41	48247.80
596.57	47976.30
596.73	48313.34
596.88	47758.63
597.04	47924.81
597.20	48446.75
597.36	47929.49
597.51	48128.44
597.67	48023.11
597.83	48123.75
597.99	48046.52
598.14	48193.97
598.30	48287.59
598.46	48086.31
598.61	48416.32
598.77	48332.06
598.93	48458.45
599.09	48243.12
599.24	48395.26
599.40	48282.91
599.56	48435.05
599.71	48325.04
599.87	48378.87
600.03	48509.94
600.18	48388.24
600.34	48154.18
600.50	48140.14
600.65	48034.81
600.81	48645.69
600.97	48533.35
601.12	48196.31
601.28	47973.96
601.44	48320.36
601.59	48418.66
601.75	48191.63
601.91	48404.62
602.06	48271.21
602.22	48217.38
602.37	48481.86
602.53	48559.09
602.69	48577.82
602.84	48315.68
603.00	48486.54
603.16	48428.02
603.31	48397.60
603.47	48636.33
603.62	48282.91
603.78	48533.35
603.94	48636.33
604.09	48318.02
604.25	48168.22
604.40	47798.42
604.56	48016.09
604.71	48638.67
604.87	48353.13
605.03	47878.00
605.18	47990.34
605.34	48472.49
605.49	47908.43
605.65	48648.03
605.80	48137.80
605.96	47997.37
606.12	48275.89
606.27	47978.64
606.43	47997.37
606.58	48289.93
606.74	48215.04
606.89	48346.11
607.05	48404.62
607.20	48428.02
607.36	48074.60
607.51	47770.33
607.67	47999.71
607.82	47878.00
607.98	47945.87
608.13	48079.28
608.29	48215.04
608.44	48114.39
608.60	47852.25
608.75	48088.65
608.91	47807.78
609.06	47751.61
609.22	48268.87
609.37	47433.30
609.53	48348.45
609.68	48315.68
609.84	48034.81
609.99	48428.02
610.15	48076.94
610.30	48266.53
610.46	48472.49
610.61	47835.87
610.76	48367.17
610.92	47875.66
611.07	47711.82
611.23	47812.46
611.38	47988.00
611.54	47779.70
611.69	48130.78
611.84	48032.47
612.00	47634.58
612.15	47674.37
612.31	47753.95
612.46	47484.79
612.62	47885.02
612.77	47665.01
612.92	47920.13
613.08	47587.77
613.23	47695.44
613.39	47447.34
613.54	47742.25
613.69	47861.61
613.85	47873.32
614.00	47683.73
614.15	47466.06
614.31	47931.83
614.46	47526.92
614.62	47517.56
614.77	47508.19
614.92	47557.35
615.08	47461.38
615.23	47529.26
615.38	47585.43
615.54	47760.97
615.69	48009.07
615.84	47262.44
616.00	47414.57
616.15	47559.69
616.30	47339.68
616.46	47660.33
616.61	47063.49
616.76	47559.69
616.92	47566.71
617.07	47241.37
617.22	47531.60
617.37	47014.34
617.53	47304.57
617.68	47466.06
617.83	47299.89
617.99	47723.52
618.14	47702.46
618.29	47428.62
618.45	47096.26
618.60	47007.32
618.75	46801.35
618.90	46962.85
619.06	47107.96
619.21	46834.12
619.36	47358.40
619.51	46855.18
619.67	47037.75
619.82	46752.20
619.97	47199.24
620.12	46869.23
620.28	46894.97
620.43	46937.10
620.58	46969.87
620.73	46681.98
620.89	46962.85
621.04	47096.26
621.19	46831.78
621.34	46850.50
621.49	46887.95
621.65	47049.45
621.80	46838.80
621.95	46848.16
622.10	46906.68
622.25	46916.04
622.41	46485.38
622.56	46974.55
622.71	46614.11
622.86	46674.96
623.01	46679.64
623.16	46656.24
623.32	46550.91
623.47	46845.82
623.62	46609.43
623.77	46656.24
623.92	46541.55
624.07	46749.86
624.23	47075.19
624.38	46541.55
624.53	46478.36
624.68	46204.52
624.83	46288.77
624.98	46815.40
625.13	45893.22
625.29	45951.74
625.44	46391.76
625.59	46424.53
625.74	46213.88
625.89	46050.04
626.04	46279.41
626.19	46267.71
626.34	46234.94
626.49	46216.22
626.65	45986.85
626.80	45815.99
626.95	45776.20
627.10	45914.29
627.25	45921.31
627.40	45832.37
627.55	45808.96
627.70	45986.85
627.85	46253.67
628.00	45897.91
628.15	45804.28
628.30	45691.94
628.45	45326.81
628.60	45219.15
628.76	45600.66
628.91	45689.60
629.06	45191.06
629.21	45551.51
629.36	45759.81
629.51	45497.67
629.66	45577.25
629.81	45713.00
629.96	45811.31
630.11	45305.75
630.26	45853.44
630.41	45593.64
630.56	45523.42
630.71	45619.38
630.86	45514.06
631.01	44978.07
631.16	44673.81
631.31	45656.83
631.46	45567.89
631.61	45996.21
631.76	45029.57
631.91	45595.98
632.06	45507.04
632.21	45478.95
632.36	45741.09
632.51	44758.06
632.66	44856.37
632.81	45013.18
632.96	45228.51
633.10	45024.89
633.25	44842.32
633.40	45130.21
633.55	45242.56
633.70	44807.22
633.85	44568.48
634.00	44692.53
634.15	44804.88
634.30	44861.05
634.45	44594.23
634.60	44994.46
634.75	45287.03
634.90	44444.43
635.05	45146.59
635.19	44851.69
635.34	44847.00
635.49	44788.49
635.64	44622.31
635.79	44765.09
635.94	44954.67
636.09	45102.12
636.24	44549.76
636.39	44531.03
636.53	45123.19
636.68	44477.20
636.83	44624.65
636.98	44100.37
637.13	43672.06
637.28	44034.84
637.43	44130.80
637.57	44231.44
637.72	44198.68
637.87	44266.55
638.02	44032.50
638.17	44271.23
638.32	43910.79
638.46	43889.73
638.61	43540.99
638.76	43861.64
638.91	44076.97
639.06	43859.30
639.20	43536.30
639.35	43882.70
639.50	43761.00
639.65	43789.08
639.80	44025.48
639.94	44261.87
640.09	44233.78
640.24	44149.53
640.39	43557.37
640.54	43803.13
640.68	43875.68
640.83	44168.25
640.98	43676.74
641.13	43941.22
641.27	44299.32
641.42	43807.81
641.57	43573.75
641.72	43569.07
641.86	43646.31
642.01	43000.32
642.16	43557.37
642.31	43374.81
642.45	43320.98
642.60	43201.61
642.75	43133.73
642.90	43510.56
643.04	43496.52
643.19	43283.53
643.34	43260.12
643.48	43161.82
643.63	42843.51
643.78	43634.61
643.93	43510.56
644.07	43220.33
644.22	43559.71
644.37	42422.21
644.51	43316.29
644.66	43033.09
644.81	43012.02
644.95	42979.26
645.10	43147.78
645.25	42752.23
645.39	42817.76
645.54	42829.46
645.69	42712.44
645.83	42562.64
645.98	42611.79
646.13	42862.23
646.27	42403.49
646.42	42864.57
646.57	42611.79
646.71	42684.35
646.86	43012.02
647.00	42876.27
647.15	42454.98
647.30	42674.99
647.44	42857.55
647.59	42586.05
647.74	42693.71
647.88	42796.70
648.03	42948.83
648.17	42920.74
648.32	42628.18
648.47	43007.34
648.61	42340.29
648.76	41869.84
648.90	42745.20
649.05	42747.54
649.20	42438.59
649.34	42593.07
649.49	42359.02
649.63	42253.69
649.78	42330.93
649.92	42312.20
650.07	42604.77
650.21	41869.84
650.36	42583.71
650.51	42288.80
650.65	42806.06
650.80	42462.00
650.94	42359.02
651.09	41902.61
651.23	41785.58
651.38	41811.33
651.52	41593.66
651.67	42024.32
651.81	41926.02
651.96	41820.69
652.10	41750.48
652.25	41813.67
652.39	42068.79
652.54	42103.90
652.68	41811.33
652.83	41745.80
652.97	42082.83
653.12	41553.87
653.26	41434.50
653.41	41614.72
653.55	41710.69
653.70	41584.30
653.84	41806.65
653.99	41818.35
654.13	41649.83
654.27	41240.24
654.42	41827.71
654.56	41205.13
654.71	41888.57
654.85	41614.72
655.00	41628.77
655.14	41682.60
655.29	41514.08
655.43	41626.43
655.57	40989.80
655.72	41053.00
655.86	41020.23
656.01	40898.52
656.15	40971.08
656.30	40964.06
656.44	41390.03
656.58	40720.64
656.73	41340.88
656.87	40928.95
657.01	40957.03
657.16	41071.72
657.30	40584.89
657.45	41160.66
657.59	40987.46
657.73	40605.95
657.88	40821.28
658.02	41060.02
658.16	40968.74
658.31	40865.75
658.45	41022.57
658.60	40435.10
658.74	40910.22
658.88	40793.20
659.03	40645.74
659.17	40294.66
659.31	40388.28
659.46	40112.10
659.60	40818.94
659.74	40313.39
659.89	39833.58
660.03	40289.98
660.17	40334.45
660.32	39910.82
660.46	40107.42
660.60	39796.13
660.74	40114.44
660.89	40093.38
661.03	39913.16
661.17	39185.25
661.32	39456.75
661.46	40006.78
661.60	39438.03
661.74	39782.09
661.89	39732.93
662.03	39838.26
662.17	39328.02
662.31	39538.67
662.46	39292.91
662.60	39262.49
662.74	38937.15
662.88	38738.21
663.03	39009.71
663.17	38990.98
663.31	38745.23
663.45	39405.26
663.60	38789.70
663.74	38937.15
663.88	38944.17
664.02	38394.15
664.17	39185.25
664.31	39016.73
664.45	38462.02
664.59	38726.50
664.73	38405.85
664.88	38794.38
665.02	38146.05
665.16	38293.50
665.30	38078.18
665.44	38232.65
665.59	38127.33
665.73	38007.96
665.87	38101.58
666.01	38515.86
666.15	37848.80
666.29	38260.74
666.44	37921.36
666.58	37771.57
666.72	37900.29
666.86	37839.44
667.00	37436.87
667.14	37565.60
667.28	37839.44
667.43	37378.36
667.57	37907.32
667.71	37865.19
667.85	37806.67
667.99	37675.60
668.13	37350.27
668.27	36919.61
668.41	36879.82
668.56	36818.97
668.70	36870.46
668.84	36863.44
668.98	36767.48
669.12	36697.26
669.26	36814.29
669.40	37123.24
669.54	36636.41
669.68	36940.68
669.82	36409.37
669.96	36201.07
670.10	36013.82
670.25	36137.87
670.39	35871.05
670.53	36357.88
670.67	36285.33
670.81	36088.72
670.95	36456.18
671.09	35730.62
671.23	35667.42
671.37	35878.07
671.51	35835.94
671.65	35796.15
671.79	35653.38
671.93	35721.26
672.07	35742.32
672.21	35543.38
672.35	35377.20
672.49	35627.63
672.63	35505.93
672.77	35021.44
672.91	34934.84
673.05	35063.57
673.19	34735.89
673.33	34878.66
673.47	34572.05
673.61	34794.40
673.75	34157.78
673.89	34473.75
674.03	34157.78
674.17	33909.68
674.31	34101.61
674.45	33965.85
674.59	34080.54
674.73	34567.37
674.87	33626.48
675.01	33682.65
675.15	33193.48
675.29	33401.79
675.43	33930.75
675.56	33546.90
675.70	33619.46
675.84	33273.06
675.98	32343.86
676.12	33385.40
676.26	33022.62
676.40	32914.95
676.54	32694.94
676.68	32762.82
676.82	32144.92
676.96	32531.11
677.10	32643.45
677.23	32542.81
677.37	32355.57
677.51	32264.28
677.65	32011.51
677.79	31906.18
677.93	32175.34
678.07	32137.90
678.21	31674.47
678.34	31372.54
678.48	31213.38
678.62	31374.88
678.76	31175.94
678.90	31330.41
679.04	31131.47
679.18	31496.59
679.31	30773.36
679.45	30646.97
679.59	30764.00
679.73	30630.59
679.87	30403.56
680.00	30827.20
680.14	30448.03
680.28	30497.18
680.42	30548.67
680.56	29736.51
680.70	30265.47
680.83	29685.01
680.97	29944.81
681.11	29996.31
681.25	29647.57
681.39	29369.04
681.52	29816.08
681.66	28893.91
681.80	28877.53
681.94	28952.43
682.07	28606.03
682.21	28573.26
682.35	28671.56
682.49	28982.85
682.62	28954.77
682.76	28533.47
682.90	28774.55
683.04	28395.38
683.17	28428.15
683.31	28350.91
683.45	27763.43
683.59	27665.13
683.72	27693.22
683.86	27644.07
684.00	27440.44
684.13	27594.92
684.27	27178.30
684.41	27262.56
684.55	27681.52
684.68	27311.71
684.82	27133.83
684.96	26834.24
685.09	26874.03
685.23	27180.64
685.37	27393.63
685.50	27005.10
685.64	26719.56
685.78	26616.57
685.91	26265.49
686.05	26298.26
686.19	25923.77
686.32	26120.38
686.46	25671.00
686.60	25729.51
686.73	25610.14
686.87	25813.77
687.01	25483.75
687.14	25830.15
687.28	25462.69
687.42	25607.80
687.55	25174.80
687.69	25046.07
687.82	24716.06
687.96	25085.86
688.10	25008.62
688.23	24926.71
688.37	25067.14
688.50	24800.32
688.64	24254.97
688.78	24486.68
688.91	24428.17
689.05	24004.53
689.18	23997.51
689.32	23777.50
689.46	23775.16
689.59	23513.02
689.73	23864.10
689.86	24259.65
690.00	23601.96
690.13	23803.25
690.27	23145.56
690.41	23246.20
690.54	22991.08
690.68	22958.31
690.81	22829.59
690.95	22799.16
691.08	22890.44
691.22	22593.19
691.35	22836.61
691.49	23077.68
691.62	22867.03
691.76	22125.08
691.89	22466.80
692.03	21802.09
692.16	21846.56
692.30	21902.73
692.43	21736.56
692.57	21724.85
692.70	21528.25
692.84	21448.67
692.97	21289.51
693.11	21113.97
693.24	21163.12
693.38	21359.73
693.51	21046.10
693.65	20879.92
693.78	20889.28
693.92	20999.29
694.05	20631.82
694.19	20432.88
694.32	20662.25
694.45	20563.95
694.59	20666.93
694.72	20491.39
694.86	20432.88
694.99	20144.99
695.13	19641.78
695.26	19894.55
695.39	19559.86
695.53	19655.82
695.66	19934.34
695.80	19515.39
695.93	19697.95
696.07	19110.47
696.20	19353.89
696.33	18951.32
696.47	18876.42
696.60	18984.09
696.73	19194.73
696.87	19105.79
697.00	19124.52
697.14	18644.71
697.27	18684.50
697.40	18579.17
697.54	18567.47
697.67	18295.97
697.80	18623.64
697.94	18178.94
698.07	17963.61
698.21	18277.24
698.34	18082.98
698.47	17865.31
698.61	17649.98
698.74	17509.55
698.87	17600.83
699.01	17317.62
699.14	17755.30
699.27	17193.58
699.40	17380.82
699.54	17083.57
699.67	17130.38
699.80	17046.12
699.94	16896.33
700.07	17027.40
700.20	16821.43
700.34	16992.29
700.47	16851.86
700.60	16952.50
700.73	16786.32
700.87	16137.99
701.00	16294.81
701.13	16212.89
701.26	15988.20
701.40	16100.55
701.53	15976.50
701.66	16116.93
701.79	16126.29
701.93	15697.97
702.06	15763.51
702.19	15604.35
702.32	15683.93
702.46	15513.07
702.59	15681.59
702.72	15522.43
702.85	15510.73
702.99	15264.97
703.12	15225.18
703.25	15152.63
703.38	14951.34
703.51	15075.39
703.65	14792.19
703.78	14768.78
703.91	14574.52
704.04	14518.34
704.17	14478.55
704.31	14555.79
704.44	14501.96
704.57	14319.40
704.70	14270.25
704.83	14239.82
704.96	14029.17
705.10	13937.89
705.23	13743.63
>>>>>End Processed Spectral Data<<<<<
