SpectraSuite Data File
++++++++++++++++++++++++++++++++++++
Date: Fri Oct 25 10:47:17 EDT 2013
User: price-jones
Dark Spectrum Present: No
Reference Spectrum Present: No
Number of Sampled Component Spectra: 1
Spectrometers: USB2+H05261
Integration Time (usec): 100000 (USB2+H05261)
Spectra Averaged: 1 (USB2+H05261)
Boxcar Smoothing: 0 (USB2+H05261)
Correct for Electrical Dark: No (USB2+H05261)
Strobe/Lamp Enabled: No (USB2+H05261)
Correct for Detector Non-linearity: No (USB2+H05261)
Correct for Stray Light: No (USB2+H05261)
Number of Pixels in Processed Spectrum: 2048
>>>>>Begin Processed Spectral Data<<<<<
365.73	112.35
365.92	112.35
366.12	112.35
366.32	0.00
366.52	18.72
366.72	72.56
366.91	70.22
367.11	4.68
367.31	39.79
367.51	0.00
367.70	16.38
367.90	74.90
368.10	51.49
368.30	79.58
368.49	23.41
368.69	56.17
368.89	25.75
369.09	91.28
369.28	93.62
369.48	23.41
369.68	16.38
369.87	114.69
370.07	74.90
370.27	110.01
370.47	187.24
370.66	362.78
370.86	390.87
371.06	482.15
371.25	491.51
371.45	503.22
371.65	425.98
371.84	372.15
372.04	465.77
372.24	566.41
372.44	376.83
372.63	510.24
372.83	489.17
373.03	493.85
373.22	519.60
373.42	519.60
373.62	437.68
373.81	545.34
374.01	531.30
374.21	477.47
374.40	550.03
374.60	559.39
374.79	524.28
374.99	559.39
375.19	559.39
375.38	519.60
375.58	568.75
375.78	568.75
375.97	594.50
376.17	571.09
376.37	601.52
376.56	582.79
376.76	503.22
376.95	538.32
377.15	653.01
377.35	617.90
377.54	631.94
377.74	561.73
377.93	554.71
378.13	657.69
378.33	624.92
378.52	587.47
378.72	610.88
378.91	620.24
379.11	594.50
379.31	620.24
379.50	552.37
379.70	678.76
379.89	627.26
380.09	599.18
380.28	631.94
380.48	699.82
380.68	627.26
380.87	627.26
381.07	578.11
381.26	643.65
381.46	657.69
381.65	732.59
381.85	596.84
382.04	631.94
382.24	667.05
382.43	702.16
382.63	685.78
382.83	643.65
383.02	760.67
383.22	706.84
383.41	716.20
383.61	648.33
383.80	760.67
384.00	709.18
384.19	730.25
384.39	760.67
384.58	758.33
384.78	725.57
384.97	765.36
385.17	727.91
385.36	788.76
385.56	702.16
385.75	695.14
385.95	765.36
386.14	781.74
386.34	816.85
386.53	723.23
386.72	774.72
386.92	866.00
387.11	781.74
387.31	809.83
387.50	725.57
387.70	706.84
387.89	833.23
388.09	802.80
388.28	816.85
388.48	880.04
388.67	856.64
388.86	816.85
389.06	807.48
389.25	840.25
389.45	903.45
389.64	889.40
389.84	868.34
390.03	926.85
390.22	901.11
390.42	873.02
390.61	830.89
390.81	915.15
391.00	898.77
391.19	961.96
391.39	910.47
391.58	952.60
391.78	884.72
391.97	936.21
392.16	929.19
392.36	887.06
392.55	1036.86
392.75	959.62
392.94	915.15
393.13	943.24
393.33	863.66
393.52	994.73
393.71	1008.77
393.91	1081.33
394.10	973.66
394.29	976.00
394.49	940.90
394.68	1048.56
394.88	1104.73
395.07	1076.65
395.26	1034.52
395.46	1081.33
395.65	1013.45
395.84	1144.52
396.04	1163.25
396.23	1060.26
396.42	976.00
396.62	1069.62
396.81	1130.48
397.00	1083.67
397.19	1130.48
397.39	1125.80
397.58	1130.48
397.77	1224.10
397.97	1196.01
398.16	1163.25
398.35	1207.72
398.55	1221.76
398.74	1296.66
398.93	1179.63
399.12	1090.69
399.32	1172.61
399.51	1273.25
399.70	1327.08
399.90	1275.59
400.09	1310.70
400.28	1315.38
400.47	1240.48
400.67	1404.32
400.86	1357.51
401.05	1399.64
401.24	1362.19
401.44	1413.68
401.63	1504.96
401.82	1345.81
402.01	1427.73
402.21	1455.81
402.40	1446.45
402.59	1465.18
402.78	1451.13
402.97	1451.13
403.17	1568.16
403.36	1483.90
403.55	1441.77
403.74	1495.60
403.93	1584.54
404.13	1537.73
404.32	1526.03
404.51	1504.96
404.70	1736.68
404.89	1610.29
405.09	1650.08
405.28	1605.61
405.47	1741.36
405.66	1687.53
405.85	1703.91
406.05	1776.47
406.24	1647.74
406.43	1636.03
406.62	1610.29
406.81	1813.92
407.00	1769.44
407.20	1811.57
407.39	1769.44
407.58	1762.42
407.77	1867.75
407.96	1790.51
408.15	1919.24
408.34	1851.36
408.54	1968.39
408.73	1980.09
408.92	1919.24
409.11	1907.54
409.30	1959.03
409.49	1970.73
409.68	1905.20
409.87	1966.05
410.07	1975.41
410.26	2026.90
410.45	2015.20
410.64	2073.71
410.83	2045.63
411.02	2148.61
411.21	2050.31
411.40	2122.87
411.59	2204.78
411.78	2099.46
411.98	2230.53
412.17	2183.72
412.36	2260.96
412.55	2265.64
412.74	2335.85
412.93	2303.09
413.12	2186.06
413.31	2523.10
413.50	2387.35
413.69	2464.58
413.88	2431.82
414.07	2331.17
414.26	2401.39
414.45	2471.61
414.64	2565.23
414.83	2597.99
415.02	2495.01
415.22	2595.65
415.41	2644.81
415.60	2569.91
415.79	2677.57
415.98	2682.25
416.17	2745.45
416.36	2663.53
416.55	2637.78
416.74	2738.43
416.93	2782.90
417.12	2775.88
417.31	2778.22
417.50	2843.75
417.69	2935.03
417.88	3054.40
418.07	2925.67
418.26	2878.86
418.45	2986.52
418.64	3185.47
418.83	2874.18
419.02	3089.51
419.21	3005.25
419.39	3131.64
419.58	3157.38
419.77	3073.12
419.96	3023.97
420.15	3185.47
420.34	3171.43
420.53	3112.91
420.72	3295.47
420.91	3185.47
421.10	3218.24
421.29	3220.58
421.48	3286.11
421.67	3386.76
421.86	3138.66
422.05	3246.32
422.24	3190.15
422.43	3300.16
422.61	3403.14
422.80	3412.50
422.99	3323.56
423.18	3337.60
423.37	3314.20
423.56	3323.56
423.75	3234.62
423.94	3253.34
424.13	3122.27
424.32	3276.75
424.50	3609.11
424.69	3372.71
424.88	3471.01
425.07	3419.52
425.26	3417.18
425.45	3281.43
425.64	3307.18
425.83	3410.16
426.01	3473.36
426.20	3492.08
426.39	3529.53
426.58	3370.37
426.77	3426.54
426.96	3545.91
427.15	3562.30
427.33	3410.16
427.52	3517.83
427.71	3456.97
427.90	3527.19
428.09	3599.74
428.28	3655.92
428.46	3756.56
428.65	3559.95
428.84	3733.15
429.03	3742.52
429.22	3536.55
429.40	3772.94
429.59	3768.26
429.78	3548.25
429.97	3499.10
430.16	3693.37
430.34	3613.79
430.53	3681.66
430.72	3815.07
430.91	3714.43
431.10	3892.31
431.28	3861.88
431.47	4011.68
431.66	3901.67
431.85	3845.50
432.03	3894.65
432.22	4032.74
432.41	3971.89
432.60	3857.20
432.79	4037.42
432.97	4138.07
433.16	4152.11
433.35	3976.57
433.54	4039.76
433.72	4217.65
433.91	4135.73
434.10	3999.98
434.28	4098.28
434.47	4037.42
434.66	4168.49
434.85	4117.00
435.03	4376.80
435.22	4280.84
435.41	4322.97
435.59	4294.88
435.78	4353.40
435.97	4493.83
436.16	4327.65
436.34	4227.01
436.53	4425.95
436.72	4353.40
436.90	4374.46
437.09	4355.74
437.28	4395.53
437.46	4461.06
437.65	4463.40
437.84	4442.34
438.02	4533.62
438.21	4566.39
438.40	4587.45
438.58	4699.80
438.77	4695.11
438.96	4706.82
439.14	4662.35
439.33	4924.49
439.52	4767.67
439.70	4725.54
439.89	4954.91
440.08	5001.72
440.26	4905.76
440.45	4966.62
440.63	4959.60
440.82	5238.12
441.01	5046.20
441.19	5144.50
441.38	5313.02
441.57	5282.59
441.75	5188.97
441.94	5430.04
442.12	5289.61
442.31	5343.44
442.50	5371.53
442.68	5467.49
442.87	5476.85
443.05	5617.29
443.24	5577.50
443.43	5462.81
443.61	5582.18
443.80	5720.27
443.98	5490.90
444.17	5298.97
444.35	5490.90
444.54	5715.59
444.73	5563.45
444.91	5460.47
445.10	5535.37
445.28	5488.56
445.47	5406.64
445.65	5617.29
445.84	5661.76
446.02	5729.63
446.21	5689.84
446.39	5610.26
446.58	5680.48
446.77	5652.39
446.95	5626.65
447.14	5673.46
447.32	5743.67
447.51	5673.46
447.69	5589.20
447.88	5666.44
448.06	5762.40
448.25	5809.21
448.43	6040.92
448.62	5638.35
448.80	5858.36
448.99	5909.85
449.17	5809.21
449.36	5790.49
449.54	5865.38
449.73	6033.90
449.91	5980.07
450.10	5947.30
450.28	5970.71
450.46	6031.56
450.65	6134.54
450.83	6008.16
451.02	6195.40
451.20	6265.61
451.39	6111.14
451.57	6054.97
451.76	6134.54
451.94	6211.78
452.13	6214.12
452.31	6136.88
452.49	6092.41
452.68	6090.07
452.86	6223.48
453.05	6244.55
453.23	6223.48
453.42	6289.02
453.60	6359.24
453.78	6490.31
453.97	6392.00
454.15	6314.77
454.34	6221.14
454.52	6689.25
454.70	6399.02
454.89	6530.09
455.07	6469.24
455.26	6588.61
455.44	6576.91
455.62	6677.55
455.81	6815.64
455.99	6651.80
456.17	6579.25
456.36	6719.68
456.54	6986.50
456.73	6918.62
456.91	6874.15
457.09	6705.63
457.28	7063.74
457.46	6820.32
457.64	6967.77
457.83	6956.07
458.01	6920.96
458.19	7133.95
458.38	6981.82
458.56	7143.32
458.74	7129.27
458.93	7073.10
459.11	7262.68
459.29	7241.62
459.48	7225.23
459.66	7234.60
459.84	7204.17
460.03	7382.05
460.21	7283.75
460.39	7288.43
460.57	7297.79
460.76	7447.58
460.94	7499.08
461.12	7459.29
461.31	7461.63
461.49	7293.11
461.67	7552.91
461.85	7595.04
462.04	7494.40
462.22	7906.33
462.40	7761.22
462.59	7796.32
462.77	7578.65
462.95	7836.11
463.13	7611.42
463.32	7903.99
463.50	7878.24
463.68	7920.37
463.86	7829.09
464.05	7740.15
464.23	7510.78
464.41	7786.96
464.59	7623.12
464.78	7929.74
464.96	7847.82
465.14	7803.35
465.32	7840.79
465.50	8065.49
465.69	7941.44
465.87	8046.76
466.05	8093.57
466.23	7990.59
466.41	8002.29
466.60	8184.85
466.78	8044.42
466.96	8107.62
467.14	8257.41
467.32	8138.04
467.51	8250.39
467.69	8112.30
467.87	8180.17
468.05	8348.69
468.23	8311.24
468.41	8128.68
468.60	8383.80
468.78	8248.05
468.96	8327.63
469.14	8365.07
469.32	8414.23
469.50	8283.16
469.69	8580.40
469.87	8484.44
470.05	8723.18
470.23	8578.06
470.41	8435.29
470.59	8737.22
470.77	8730.20
470.95	8727.86
471.14	8777.01
471.32	8638.92
471.50	8922.12
471.68	8990.00
471.86	9008.72
472.04	9111.71
472.22	9130.43
472.40	8978.30
472.58	9102.34
472.77	8982.98
472.95	9205.33
473.13	9647.69
473.31	9001.70
473.49	9193.62
473.67	9188.94
473.85	9303.63
474.03	9483.85
474.21	9500.23
474.39	9518.96
474.57	9338.74
474.75	9870.04
474.93	9685.14
475.12	9710.88
475.30	9811.53
475.48	9699.18
475.66	9841.95
475.84	9806.84
476.02	10122.82
476.20	10148.56
476.38	10094.73
476.56	10228.14
476.74	10459.85
476.92	10366.23
477.10	10338.15
477.28	10738.38
477.46	10574.54
477.64	10520.71
477.82	10705.61
478.00	10874.13
478.18	10930.30
478.36	10977.11
478.54	10981.79
478.72	11154.99
478.90	11178.40
479.08	11239.25
479.26	11318.83
479.44	11515.44
479.62	11501.39
479.80	11847.79
479.98	11777.58
480.16	11934.39
480.34	11786.94
480.52	11941.41
480.70	11974.18
480.88	11838.43
481.06	12119.29
481.24	12009.29
481.41	12329.94
481.59	12566.34
481.77	12908.05
481.95	12779.32
482.13	12690.38
482.31	12603.78
482.49	12985.29
482.67	13280.20
482.85	13165.51
483.03	13383.18
483.21	13458.08
483.39	13696.82
483.57	13453.40
483.74	13535.32
483.92	13671.07
484.10	13530.64
484.28	13947.25
484.46	14373.23
484.64	14462.17
484.82	13954.27
485.00	14300.67
485.18	14476.21
485.35	14640.05
485.53	14534.73
485.71	14558.13
485.89	15077.73
486.07	14839.00
486.25	14998.15
486.43	15094.11
486.61	15335.19
486.78	15494.35
486.96	15180.71
487.14	15913.30
487.32	15779.89
487.50	15920.32
487.68	15983.52
487.85	16248.00
488.03	16475.03
488.21	16540.57
488.39	16446.94
488.57	16547.59
488.75	16861.22
488.92	16908.03
489.10	17069.53
489.28	17200.60
489.46	17078.89
489.64	17359.75
489.81	17652.32
489.99	17781.05
490.17	17858.29
490.35	17834.88
490.53	17877.01
490.70	18106.38
490.88	17956.59
491.06	18422.36
491.24	18324.05
491.41	18335.76
491.59	18452.78
491.77	18382.57
491.95	18918.55
492.13	19154.94
492.30	19049.62
492.48	19014.51
492.66	19243.88
492.84	19187.71
493.01	19302.40
493.19	19515.39
493.37	19906.26
493.54	19719.01
493.72	19826.68
493.90	20013.92
494.08	20194.14
494.25	20177.76
494.43	20449.26
494.61	20521.82
494.79	20842.47
494.96	20540.54
495.14	20781.62
495.32	20875.24
495.49	21146.74
495.67	21252.06
495.85	21465.05
496.02	21748.26
496.20	21586.76
496.38	21483.78
496.55	21659.32
496.73	22251.47
496.91	21827.84
497.09	22202.32
497.26	22066.57
497.44	22181.26
497.62	22728.94
497.79	22944.27
497.97	22572.13
498.14	22878.74
498.32	22740.64
498.50	23337.48
498.67	22965.34
498.85	22750.01
499.03	23250.88
499.20	23356.21
499.38	23564.51
499.56	23576.22
499.73	23765.80
499.91	23761.12
500.08	23459.19
500.26	23772.82
500.44	23845.38
500.61	23939.00
500.79	24079.43
500.97	24198.80
501.14	24610.73
501.32	24325.19
501.49	24584.99
501.67	24311.14
501.84	24620.10
502.02	24395.40
502.20	25006.28
502.37	25130.33
502.55	25144.38
502.72	24840.11
502.90	25277.79
503.07	25092.88
503.25	25252.04
503.43	24966.49
503.60	25565.67
503.78	25706.10
503.95	25500.14
504.13	25797.38
504.30	25921.43
504.48	25560.99
504.65	25818.45
504.83	26066.55
505.01	26080.59
505.18	26370.82
505.36	26464.44
505.53	26253.79
505.71	26579.12
505.88	26733.60
506.06	26267.83
506.23	26733.60
506.41	26536.99
506.58	26829.56
506.76	26668.06
506.93	26754.66
507.11	27159.58
507.28	27051.91
507.46	27065.96
507.63	27159.58
507.81	27819.61
507.98	26993.40
508.16	27405.33
508.33	27637.05
508.50	27651.09
508.68	27782.16
508.85	27995.15
509.03	27711.94
509.20	27810.25
509.38	28142.60
509.55	27960.04
509.73	28379.00
509.90	28493.68
510.08	28154.30
510.25	28383.68
510.42	28613.05
510.60	28606.03
510.77	28624.75
510.95	28854.12
511.12	28879.87
511.30	28936.04
511.47	29003.92
511.64	29078.82
511.82	29188.82
511.99	29340.96
512.17	29525.86
512.34	29291.80
512.51	29813.74
512.69	29851.19
512.86	29560.97
513.04	29759.91
513.21	29757.57
513.38	29818.42
513.56	29972.90
513.73	29626.50
513.90	30120.35
514.08	30204.61
514.25	30256.11
514.43	30213.98
514.60	30183.55
514.77	30469.09
514.95	30431.65
515.12	30506.54
515.29	30735.92
515.47	30789.75
515.64	30937.20
515.81	30595.48
515.99	30904.43
516.16	31206.36
516.33	30923.16
516.51	31208.70
516.68	30991.03
516.85	30555.69
517.03	30806.13
517.20	31278.92
517.37	31428.71
517.54	31601.91
517.72	31768.09
517.89	31372.54
518.06	31435.74
518.24	31445.10
518.41	31438.08
518.58	31700.22
518.75	31407.65
518.93	32055.98
519.10	31828.95
519.27	31910.86
519.45	31683.83
519.62	32481.95
519.79	31952.99
519.96	32009.17
520.14	32594.30
520.31	32109.81
520.48	32554.51
520.65	32638.77
520.83	32566.21
521.00	32912.61
521.17	33043.68
521.34	32491.32
521.52	32606.00
521.69	32886.87
521.86	33134.96
522.03	32959.42
522.20	33378.38
522.38	32985.17
522.55	33270.72
522.72	33467.32
522.89	33090.49
523.07	33371.36
523.24	33418.17
523.41	33675.63
523.58	33263.69
523.75	33834.78
523.92	34199.91
524.10	34132.03
524.27	34043.09
524.44	34024.37
524.61	34202.25
524.78	34195.23
524.96	34302.89
525.13	34576.73
525.30	34787.38
525.47	34511.20
525.64	34595.46
525.81	34403.53
525.98	34981.65
526.16	34525.24
526.33	34316.93
526.50	34981.65
526.67	34988.67
526.84	34766.32
527.01	34527.58
527.18	34871.64
527.36	35026.12
527.53	35452.09
527.70	35641.68
527.87	35166.55
528.04	35337.41
528.21	34911.43
528.38	35328.05
528.55	35147.82
528.72	35314.00
528.89	35559.76
529.07	35524.65
529.24	35082.29
529.41	35627.63
529.58	35227.40
529.75	35599.55
529.92	35632.32
530.09	35988.08
530.26	35955.31
530.43	35941.27
530.60	35871.05
530.77	36215.11
530.94	36257.24
531.11	36009.14
531.28	36208.09
531.46	36594.28
531.63	36875.14
531.80	36247.88
531.97	35959.99
532.14	36348.52
532.31	36814.29
532.48	36945.36
532.65	36711.30
532.82	36563.85
532.99	36641.09
533.16	36481.93
533.33	36711.30
533.50	36912.59
533.67	37088.13
533.84	36879.82
534.01	36985.15
534.18	36886.84
534.35	37312.82
534.52	37275.37
534.69	37343.25
534.86	37137.28
535.03	36957.06
535.20	37413.46
535.37	37912.00
535.54	37809.01
535.71	37315.16
535.88	37799.65
536.05	37844.12
536.22	37710.71
536.38	37612.41
536.55	37680.28
536.72	37764.54
536.89	37368.99
537.06	37886.25
537.23	37668.58
537.40	37818.38
537.57	37954.13
537.74	38291.16
537.91	38230.31
538.08	38267.76
538.25	37879.23
538.42	37923.70
538.59	38384.79
538.75	38000.94
538.92	37989.24
539.09	38705.44
539.26	38663.31
539.43	38990.98
539.60	38422.23
539.77	38506.49
539.94	38824.81
540.11	38546.28
540.28	38485.43
540.44	38780.34
540.61	38513.52
540.78	38677.35
540.95	38478.41
541.12	38433.94
541.29	39386.54
541.46	39002.69
541.62	38574.37
541.79	39178.23
541.96	38452.66
542.13	38497.13
542.30	38719.48
542.47	38756.93
542.63	39014.39
542.80	39412.28
542.97	39618.25
543.14	39566.76
543.31	39615.91
543.48	39555.05
543.64	40196.36
543.81	40114.44
543.98	39842.94
544.15	39477.82
544.32	39964.65
544.48	40046.57
544.65	39854.64
544.82	40034.86
544.99	39409.94
545.16	39861.66
545.32	39814.85
545.49	40577.87
545.66	40435.10
545.83	40362.54
546.00	40191.68
546.16	40240.83
546.33	40107.42
546.50	39484.84
546.67	39941.24
546.83	39707.19
547.00	40641.06
547.17	40273.60
547.34	40233.81
547.50	40746.39
547.67	40697.24
547.84	40790.86
548.00	40622.34
548.17	40704.26
548.34	40950.01
548.51	41134.92
548.67	40500.63
548.84	40835.33
549.01	40987.46
549.18	40556.80
549.34	40971.08
549.51	40919.59
549.68	40753.41
549.84	41605.36
550.01	41254.28
550.18	40762.77
550.34	40573.19
550.51	40989.80
550.68	40725.32
550.84	40624.68
551.01	41352.58
551.18	41209.81
551.34	40975.76
551.51	41209.81
551.68	41923.68
551.84	40924.27
552.01	40893.84
552.18	41291.73
552.34	41233.22
552.51	41820.69
552.68	41497.70
552.84	41860.48
553.01	41684.94
553.18	41991.55
553.34	41514.08
553.51	41350.24
553.67	41523.44
553.84	42059.43
554.01	42368.38
554.17	42232.63
554.34	42153.05
554.51	42000.91
554.67	41914.31
554.84	42258.37
555.00	41654.51
555.17	41635.79
555.33	41893.25
555.50	42284.12
555.67	41748.14
555.83	42253.69
556.00	42122.62
556.16	42822.44
556.33	42747.54
556.50	42143.69
556.66	42412.85
556.83	42405.83
556.99	42213.90
557.16	42312.20
557.32	42092.19
557.49	42377.74
557.65	42033.68
557.82	42160.07
557.98	42405.83
558.15	42726.48
558.32	42784.99
558.48	42550.94
558.65	42529.87
558.81	42096.88
558.98	42604.77
559.14	42527.53
559.31	42239.65
559.47	42560.30
559.64	42869.25
559.80	42635.20
559.97	43150.12
560.13	42174.11
560.30	42829.46
560.46	42319.23
560.63	43068.20
560.79	43077.56
560.96	43222.67
561.12	42855.21
561.29	43058.84
561.45	43091.60
561.61	42878.61
561.78	43068.20
561.94	42869.25
562.11	42700.73
562.27	42749.88
562.44	42845.85
562.60	43491.83
562.77	43173.52
562.93	43180.54
563.10	43288.21
563.26	42583.71
563.42	42951.17
563.59	43260.12
563.75	43367.79
563.92	43288.21
564.08	43044.79
564.24	43339.70
564.41	43299.91
564.57	43271.82
564.74	43161.82
564.90	43468.43
565.07	43210.97
565.23	43309.27
565.39	43358.42
565.56	43330.34
565.72	42969.90
565.88	43180.54
566.05	43283.53
566.21	43044.79
566.38	43164.16
566.54	43578.43
566.70	43419.28
566.87	43489.49
567.03	43346.72
567.19	43777.38
567.36	43625.25
567.52	43215.65
567.68	43538.65
567.85	43730.57
568.01	43454.39
568.17	43189.91
568.34	43585.46
568.50	43370.13
568.66	43058.84
568.83	43559.71
568.99	43225.01
569.15	43578.43
569.32	43491.83
569.48	43313.95
569.64	43730.57
569.81	43470.77
569.97	43377.15
570.13	43494.18
570.30	43119.69
570.46	43182.88
570.62	42986.28
570.78	43126.71
570.95	43868.66
571.11	43269.48
571.27	43463.75
571.43	43086.92
571.60	43655.67
571.76	43449.70
571.92	43395.87
572.09	43215.65
572.25	43325.66
572.41	43646.31
572.57	43674.40
572.74	44212.72
572.90	43751.63
573.06	43768.02
573.22	43571.41
573.38	43934.20
573.55	43269.48
573.71	43938.88
573.87	43838.23
574.03	43648.65
574.20	43658.01
574.36	43447.36
574.52	44062.93
574.68	43901.43
574.84	43718.87
575.01	43920.15
575.17	43831.21
575.33	43442.68
575.49	44091.01
575.65	43985.69
575.82	43831.21
575.98	44203.36
576.14	44215.06
576.30	44264.21
576.46	43601.84
576.62	43349.06
576.79	43529.28
576.95	43604.18
577.11	43695.46
577.27	44149.53
577.43	43880.36
577.59	43599.50
577.75	44002.07
577.92	43615.88
578.08	43906.11
578.24	43695.46
578.40	44114.42
578.56	43819.51
578.72	43650.99
578.88	43875.68
579.04	44353.15
579.21	43248.42
579.37	43636.95
579.53	43618.22
579.69	43714.19
579.85	43739.93
580.01	44177.61
580.17	43894.41
580.33	44224.42
580.49	43917.81
580.65	44058.24
580.82	44236.12
580.98	43789.08
581.14	43716.53
581.30	44175.27
581.46	44142.50
581.62	43985.69
581.78	44062.93
581.94	44245.49
582.10	43896.75
582.26	44512.31
582.42	43599.50
582.58	43665.03
582.74	43973.98
582.90	43952.92
583.06	44556.78
583.22	44388.26
583.38	43985.69
583.54	43768.02
583.70	44179.95
583.86	43817.17
584.02	43496.52
584.18	44603.59
584.34	43922.49
584.50	43906.11
584.66	43887.39
584.82	43707.16
584.98	44062.93
585.14	44194.00
585.30	43601.84
585.46	44219.74
585.62	43964.62
585.78	44367.20
585.94	43711.84
586.10	43873.34
586.26	43955.26
586.42	44198.68
586.58	44397.62
586.74	44296.98
586.90	44186.97
587.06	43672.06
587.22	44456.14
587.38	43566.73
587.54	44149.53
587.70	44222.08
587.86	44608.27
588.02	44165.91
588.18	44481.88
588.34	43929.51
588.49	43990.37
588.65	43793.76
588.81	43681.42
588.97	43725.89
589.13	43641.63
589.29	43920.15
589.45	44287.62
589.61	44392.94
589.77	44704.23
589.93	44418.69
590.08	44282.94
590.24	44273.57
590.40	43964.62
590.56	44470.18
590.72	44222.08
590.88	44102.71
591.04	44355.49
591.20	44439.75
591.35	44898.50
591.51	44664.44
591.67	44636.36
591.83	44341.45
591.99	44144.84
592.15	44170.59
592.31	44587.21
592.46	43793.76
592.62	44399.96
592.78	44186.97
592.94	44465.50
593.10	44093.35
593.26	44570.82
593.41	44219.74
593.57	44264.21
593.73	43931.86
593.89	44446.77
594.05	44271.23
594.20	44388.26
594.36	44626.99
594.52	44470.18
594.68	44683.17
594.84	44540.39
594.99	44626.99
595.15	44343.79
595.31	44804.88
595.47	44369.54
595.62	44741.68
595.78	44760.40
595.94	44907.86
596.10	44603.59
596.25	44601.25
596.41	44910.20
596.57	44783.81
596.73	44514.65
596.88	44053.56
597.04	44650.40
597.20	44598.91
597.36	44594.23
597.51	44259.53
597.67	44184.63
597.83	44329.75
597.99	44851.69
598.14	44683.17
598.30	44205.70
598.46	44652.74
598.61	44315.70
598.77	44596.57
598.93	44575.50
599.09	44341.45
599.24	45151.27
599.40	44839.98
599.56	44980.42
599.71	44495.92
599.87	44776.79
600.03	44285.28
600.18	44847.00
600.34	44507.63
600.50	44657.42
600.65	44360.17
600.81	44624.65
600.97	44868.07
601.12	45050.63
601.28	44594.23
601.44	44446.77
601.59	44521.67
601.75	44734.66
601.91	44933.60
602.06	44287.62
602.22	44540.39
602.37	44547.42
602.53	44507.63
602.69	44940.63
602.84	44088.67
603.00	44577.84
603.16	44610.61
603.31	44612.95
603.47	43866.32
603.62	44435.07
603.78	44776.79
603.94	44652.74
604.09	44458.48
604.25	44076.97
604.40	44617.63
604.56	44673.81
604.71	44711.25
604.87	44605.93
605.03	44273.57
605.18	44793.17
605.34	44648.06
605.49	44603.59
605.65	44140.16
605.80	44060.58
605.96	44767.43
606.12	44591.89
606.27	44729.98
606.43	44233.78
606.58	44708.91
606.74	44650.40
606.89	44238.47
607.05	44095.69
607.20	44308.68
607.36	44832.96
607.51	44245.49
607.67	44699.55
607.82	44163.57
607.98	44282.94
608.13	44320.38
608.29	43945.90
608.44	43826.53
608.60	44133.14
608.75	43842.92
608.91	44074.63
609.06	44355.49
609.22	44231.44
609.37	43950.58
609.53	43964.62
609.68	44158.89
609.84	43929.51
609.99	44179.95
610.15	44357.83
610.30	44217.40
610.46	44390.60
610.61	44067.61
610.76	44362.51
610.92	44226.76
611.07	43990.37
611.23	43775.04
611.38	43819.51
611.54	43894.41
611.69	43899.09
611.84	43702.48
612.00	43594.82
612.15	43906.11
612.31	44046.54
612.46	43683.76
612.62	44039.52
612.77	43449.70
612.92	44161.23
613.08	43917.81
613.23	44205.70
613.39	43592.48
613.54	43576.09
613.69	43913.13
613.85	43746.95
614.00	44027.82
614.15	43526.94
614.31	43765.68
614.46	44168.25
614.62	43700.14
614.77	43585.46
614.92	43363.11
615.08	43473.11
615.23	43187.56
615.38	43215.65
615.54	42974.58
615.69	43522.26
615.84	43489.49
616.00	43332.68
616.15	43524.60
616.30	43365.45
616.46	43367.79
616.61	42665.63
616.76	43587.80
616.92	42941.81
617.07	43292.89
617.22	42923.08
617.37	42777.97
617.53	43220.33
617.68	43323.32
617.83	43475.45
617.99	43838.23
618.14	43545.67
618.29	43019.05
618.45	43229.69
618.60	43002.66
618.75	42871.59
618.90	43175.86
619.06	43105.65
619.21	43159.48
619.36	43105.65
619.51	42738.18
619.67	42937.13
619.82	43016.71
619.97	43398.21
620.12	42869.25
620.28	42572.00
620.43	42740.52
620.58	42958.19
620.73	42689.03
620.89	42611.79
621.04	42824.78
621.19	42686.69
621.34	42394.12
621.49	42593.07
621.65	42674.99
621.80	42773.29
621.95	42117.94
622.10	42721.80
622.25	42192.84
622.41	42195.18
622.56	42298.16
622.71	42829.46
622.86	42429.23
623.01	42560.30
623.16	42682.01
623.32	42731.16
623.47	42630.52
623.62	42436.25
623.77	42178.79
623.92	42288.80
624.07	42220.92
624.23	41954.10
624.38	41940.06
624.53	41717.71
624.68	42431.57
624.83	42061.77
624.98	42300.50
625.13	42237.31
625.29	41883.89
625.44	42078.15
625.59	41628.77
625.74	42007.94
625.89	41631.11
626.04	41383.01
626.19	41617.07
626.34	41968.15
626.49	42115.60
626.65	41942.40
626.80	41993.89
626.95	41890.91
627.10	41633.45
627.25	41558.55
627.40	41146.62
627.55	40938.31
627.70	41373.65
627.85	41212.15
628.00	41474.29
628.15	42199.86
628.30	41600.68
628.45	41621.75
628.60	41738.77
628.76	41682.60
628.91	41694.30
629.06	41818.35
629.21	41500.04
629.36	41235.56
629.51	41006.19
629.66	40861.07
629.81	41600.68
629.96	41099.81
630.11	41287.05
630.26	40978.10
630.41	41544.51
630.56	40989.80
630.71	40950.01
630.86	40842.35
631.01	41097.47
631.16	41078.74
631.31	41024.91
631.46	40357.86
631.61	41186.41
631.76	41109.17
631.91	41315.14
632.06	40531.06
632.21	40720.64
632.36	41022.57
632.51	40498.29
632.66	40776.81
632.81	39971.67
632.96	40978.10
633.10	40425.73
633.25	40519.35
633.40	40505.31
633.55	41205.13
633.70	40156.57
633.85	40531.06
634.00	40444.46
634.15	40463.18
634.30	40023.16
634.45	40198.70
634.60	40334.45
634.75	40634.04
634.90	40245.51
635.05	40350.84
635.19	40332.11
635.34	40837.67
635.49	40814.26
635.64	40147.21
635.79	39810.17
635.94	39910.82
636.09	39531.65
636.24	40149.55
636.39	39861.66
636.53	39735.27
636.68	39655.70
636.83	39728.25
636.98	39899.11
637.13	39468.45
637.28	40041.88
637.43	39878.05
637.57	39866.34
637.72	39690.80
637.87	39601.86
638.02	40123.80
638.17	39810.17
638.32	39227.38
638.46	39431.01
638.61	39576.12
638.76	39543.35
638.91	39653.36
639.06	39702.51
639.20	39536.33
639.35	39817.19
639.50	39622.93
639.65	39763.36
639.80	39611.23
639.94	39210.99
640.09	39309.30
640.24	39061.20
640.39	39386.54
640.54	39405.26
640.68	39711.87
640.83	39117.37
640.98	39313.98
641.13	39054.18
641.27	39667.40
641.42	39597.18
641.57	39557.39
641.72	39639.31
641.86	38934.81
642.01	39028.43
642.16	38876.30
642.31	38948.85
642.45	39054.18
642.60	38888.00
642.75	38628.20
642.90	39007.37
643.04	38653.95
643.19	39402.92
643.34	39321.00
643.48	39007.37
643.63	38995.67
643.78	38873.96
643.93	38600.12
644.07	38153.07
644.22	38492.45
644.37	38499.47
644.51	38497.13
644.66	38600.12
644.81	38981.62
644.95	39185.25
645.10	38726.50
645.25	38930.13
645.39	38632.88
645.54	39082.27
645.69	38487.77
645.83	38005.62
645.98	38195.20
646.13	38583.73
646.27	38581.39
646.42	38443.30
646.57	38525.22
646.71	38543.94
646.86	38745.23
647.00	38541.60
647.15	38508.83
647.30	38574.37
647.44	38443.30
647.59	38471.39
647.74	38307.55
647.88	38127.33
648.03	38284.14
648.17	38309.89
648.32	37567.94
648.47	38050.09
648.61	38026.68
648.76	38323.93
648.90	38307.55
649.05	38394.15
649.20	38066.47
649.34	37989.24
649.49	37975.19
649.63	37804.33
649.78	37968.17
649.92	37825.40
650.07	38136.69
650.21	37724.75
650.36	37787.95
650.51	37991.58
650.65	38089.88
650.80	38455.00
650.94	37677.94
651.09	37940.08
651.23	37933.06
651.38	37783.27
651.52	37345.59
651.67	37481.34
651.81	37598.37
651.96	37144.30
652.10	37502.40
652.25	37483.68
652.39	37724.75
652.54	37511.77
652.68	37720.07
652.83	37706.03
652.97	37359.63
653.12	37579.64
653.26	37336.23
653.41	37607.73
653.55	37483.68
653.70	37078.77
653.84	37446.23
653.99	37446.23
654.13	37263.67
654.27	37233.24
654.42	37022.59
654.56	37273.03
654.71	37156.00
654.85	37177.07
655.00	36858.76
655.14	36868.12
655.29	36774.50
655.43	36772.16
655.57	36531.08
655.72	36765.14
655.86	36907.91
656.01	36945.36
656.15	36360.22
656.30	36840.03
656.44	36311.07
656.58	36816.63
656.73	36409.37
656.87	36484.27
657.01	36456.18
657.16	36765.14
657.30	36603.64
657.45	36280.64
657.59	36514.70
657.73	36488.95
657.88	36151.91
658.02	36407.03
658.16	36362.56
658.31	36561.51
658.45	36002.12
658.60	36072.34
658.74	36163.62
658.88	36198.73
659.03	36498.31
659.17	36013.82
659.31	35959.99
659.46	36004.46
659.60	35941.27
659.74	35826.58
659.89	35445.07
660.03	35892.12
660.17	36062.97
660.32	35990.42
660.46	36044.25
660.60	35674.45
660.74	35646.36
660.89	35716.58
661.03	35250.81
661.17	35363.15
661.32	35208.68
661.46	35131.44
661.60	35648.70
661.74	35269.53
661.89	35250.81
662.03	35590.19
662.17	35096.33
662.31	35770.41
662.46	35372.52
662.60	35456.78
662.74	35311.66
662.88	34916.11
663.03	35168.89
663.17	35379.54
663.31	34448.00
663.45	34904.41
663.60	34850.58
663.74	35030.80
663.88	34422.26
664.02	34525.24
664.17	34377.79
664.31	34003.30
664.45	34237.36
664.59	34644.61
664.73	34632.91
664.88	34775.68
665.02	33975.22
665.16	34478.43
665.30	34185.86
665.44	34249.06
665.59	33944.79
665.73	33799.68
665.87	34033.73
666.01	33771.59
666.15	34071.18
666.29	33481.36
666.44	33848.83
666.58	33635.84
666.72	33834.78
666.86	33912.02
667.00	33619.46
667.14	33652.22
667.28	33792.65
667.43	33266.03
667.57	33677.97
667.71	33354.97
667.85	33570.30
667.99	33308.16
668.13	33277.74
668.27	33144.33
668.41	33057.73
668.56	32833.04
668.70	33029.64
668.84	33160.71
668.98	32547.49
669.12	32538.13
669.26	32732.39
669.40	32936.02
669.54	32563.87
669.68	32734.73
669.82	32357.91
669.96	32315.78
670.10	32353.23
670.25	32666.86
670.39	32725.37
670.53	32575.58
670.67	32472.59
670.81	32362.59
670.95	32620.05
671.09	32238.54
671.23	32224.50
671.37	32456.21
671.51	32004.49
671.65	31969.38
671.79	31796.18
671.93	31819.58
672.07	32016.19
672.21	31622.98
672.35	31440.42
672.49	31482.55
672.63	31704.90
672.77	31440.42
672.91	31374.88
673.05	31335.09
673.19	31627.66
673.33	31005.08
673.47	31138.49
673.61	31096.36
673.75	31054.23
673.89	30686.76
674.03	30543.99
674.17	30682.08
674.31	30836.56
674.45	30443.35
674.59	31035.50
674.73	30740.60
674.87	30618.89
675.01	30483.14
675.15	30654.00
675.29	30731.23
675.43	30134.40
675.56	30005.67
675.70	30029.07
675.84	29944.81
675.98	28966.47
676.12	29617.14
676.26	29848.85
676.40	29673.31
676.54	29413.51
676.68	29675.65
676.82	29010.94
676.96	29022.64
677.10	29509.47
677.23	29041.37
677.37	29057.75
677.51	28919.66
677.65	28711.35
677.79	28393.04
677.93	28610.71
678.07	28973.49
678.21	28376.66
678.34	28641.14
678.48	28512.41
678.62	28367.29
678.76	27995.15
678.90	28114.52
679.04	28259.63
679.18	28074.73
679.31	27740.03
679.45	28034.94
679.59	27606.62
679.73	27239.15
679.87	27608.96
680.00	27751.73
680.14	27285.97
680.28	27119.79
680.42	27152.55
680.56	26923.18
680.70	27276.60
680.83	26913.82
680.97	26792.11
681.11	26981.70
681.25	26855.31
681.39	26600.19
681.52	26829.56
681.66	26771.05
681.80	26483.16
681.94	26405.92
682.07	26443.37
682.21	25933.14
682.35	25907.39
682.49	26057.18
682.62	26302.94
682.76	25886.32
682.90	25947.18
683.04	25792.70
683.17	25881.64
683.31	25846.54
683.45	25678.02
683.59	25287.15
683.72	25282.47
683.86	24940.75
684.00	24369.66
684.13	25158.42
684.27	25214.59
684.41	24826.06
684.55	24673.93
684.68	24336.89
684.82	24645.84
684.96	24552.22
685.09	24322.85
685.23	24290.08
685.37	24322.85
685.50	24095.82
685.64	24311.14
685.78	24376.68
685.91	23908.57
686.05	23716.65
686.19	23447.49
686.32	23431.10
686.46	23356.21
686.60	23431.10
686.73	23669.84
686.87	23035.55
687.01	23454.51
687.14	23105.77
687.28	22834.27
687.42	23131.51
687.55	22530.00
687.69	22881.08
687.82	22501.91
687.96	22712.56
688.10	22324.03
688.23	22464.46
688.37	22359.14
688.50	22122.74
688.64	22178.92
688.78	22082.95
688.91	22036.14
689.05	22052.53
689.18	21947.20
689.32	21350.37
689.46	21914.44
689.59	21788.05
689.73	21912.10
689.86	21797.41
690.00	21425.26
690.13	21919.12
690.27	21214.62
690.41	21607.83
690.54	20580.33
690.68	21160.78
690.81	20718.42
690.95	20603.74
691.08	20702.04
691.22	20421.17
691.35	20889.28
691.49	20854.17
691.62	20812.04
691.76	20856.51
691.89	20580.33
692.03	20467.98
692.16	20152.01
692.30	20105.20
692.43	20203.50
692.57	19861.79
692.70	19637.09
692.84	19889.87
692.97	19777.53
693.11	19386.66
693.24	19726.04
693.38	19215.80
693.51	19360.91
693.65	19028.56
693.78	19239.20
693.92	19447.51
694.05	19117.50
694.19	19185.37
694.32	19040.26
694.45	19302.40
694.59	18904.51
694.72	19005.15
694.86	18864.72
694.99	18719.60
695.13	18237.45
695.26	18494.91
695.39	17991.70
695.53	18132.13
695.66	18345.12
695.80	17764.67
695.93	18214.05
696.07	17818.50
696.20	17884.03
696.33	17956.59
696.47	17635.94
696.60	17326.99
696.73	17652.32
696.87	17462.74
697.00	17804.46
697.14	17652.32
697.27	17287.20
697.40	17338.69
697.54	17163.15
697.67	17294.22
697.80	17256.77
697.94	17025.06
698.07	16987.61
698.21	16898.67
698.34	16821.43
698.47	16704.40
698.61	16627.17
698.74	16608.44
698.87	16435.24
699.01	16266.72
699.14	16245.66
699.27	16238.64
699.40	16035.01
699.54	16152.04
699.67	15805.64
699.80	16044.37
699.94	15543.50
700.07	16121.61
700.20	15906.28
700.34	15522.43
700.47	15632.44
700.60	15840.75
700.73	15868.83
700.87	15690.95
701.00	15169.01
701.13	15307.10
701.26	15290.72
701.40	15257.95
701.53	15136.24
701.66	14953.68
701.79	14902.19
701.93	14834.32
702.06	14623.67
702.19	14946.66
702.32	14850.70
702.46	14593.24
702.59	14621.33
702.72	14843.68
702.85	14396.64
702.99	14328.76
703.12	14342.80
703.25	14492.60
703.38	14129.81
703.51	14120.45
703.65	14216.41
703.78	14225.78
703.91	14029.17
704.04	13982.36
704.17	13930.87
704.31	13844.27
704.44	13717.88
704.57	13518.93
704.70	13334.03
704.83	13298.92
704.96	13523.62
705.10	13371.48
705.23	13352.76
>>>>>End Processed Spectral Data<<<<<
