SpectraSuite Data File
++++++++++++++++++++++++++++++++++++
Date: Fri Oct 25 10:44:10 EDT 2013
User: price-jones
Dark Spectrum Present: No
Reference Spectrum Present: No
Number of Sampled Component Spectra: 1
Spectrometers: USB2+H05261
Integration Time (usec): 100000 (USB2+H05261)
Spectra Averaged: 1 (USB2+H05261)
Boxcar Smoothing: 0 (USB2+H05261)
Correct for Electrical Dark: No (USB2+H05261)
Strobe/Lamp Enabled: No (USB2+H05261)
Correct for Detector Non-linearity: No (USB2+H05261)
Correct for Stray Light: No (USB2+H05261)
Number of Pixels in Processed Spectrum: 2048
>>>>>Begin Processed Spectral Data<<<<<
365.73	117.03
365.92	117.03
366.12	117.03
366.32	51.49
366.52	70.22
366.72	35.11
366.91	105.32
367.11	46.81
367.31	44.47
367.51	65.54
367.70	23.41
367.90	42.13
368.10	0.00
368.30	0.00
368.49	32.77
368.69	58.51
368.89	0.00
369.09	39.79
369.28	81.92
369.48	124.05
369.68	119.37
369.87	67.88
370.07	65.54
370.27	140.43
370.47	102.98
370.66	372.15
370.86	416.62
371.06	479.81
371.25	500.87
371.45	507.90
371.65	519.60
371.84	461.09
372.04	559.39
372.24	479.81
372.44	475.13
372.63	512.58
372.83	425.98
373.03	449.38
373.22	521.94
373.42	564.07
373.62	454.06
373.81	641.31
374.01	603.86
374.21	482.15
374.40	568.75
374.60	610.88
374.79	484.49
374.99	601.52
375.19	580.45
375.38	575.77
375.58	629.60
375.78	594.50
375.97	601.52
376.17	606.20
376.37	674.07
376.56	627.26
376.76	594.50
376.95	545.34
377.15	634.29
377.35	660.03
377.54	779.40
377.74	617.90
377.93	657.69
378.13	636.63
378.33	622.58
378.52	608.54
378.72	713.86
378.91	645.99
379.11	664.71
379.31	564.07
379.50	613.22
379.70	734.93
379.89	641.31
380.09	645.99
380.28	601.52
380.48	697.48
380.68	655.35
380.87	711.52
381.07	716.20
381.26	706.84
381.46	718.54
381.65	727.91
381.85	739.61
382.04	732.59
382.24	716.20
382.43	634.29
382.63	660.03
382.83	662.37
383.02	755.99
383.22	739.61
383.41	704.50
383.61	678.76
383.80	767.70
384.00	805.14
384.19	711.52
384.39	854.30
384.58	781.74
384.78	807.48
384.97	819.19
385.17	816.85
385.36	819.19
385.56	816.85
385.75	821.53
385.95	844.93
386.14	889.40
386.34	798.12
386.53	814.51
386.72	779.40
386.92	917.49
387.11	851.96
387.31	870.68
387.50	877.70
387.70	774.72
387.89	884.72
388.09	894.08
388.28	919.83
388.48	861.32
388.67	1015.79
388.86	837.91
389.06	924.51
389.25	1097.71
389.45	961.96
389.64	999.41
389.84	1018.13
390.03	933.87
390.22	1001.75
390.42	994.73
390.61	1062.60
390.81	976.00
391.00	1006.43
391.19	1046.22
391.39	1001.75
391.58	1039.20
391.78	938.55
391.97	1013.45
392.16	1034.52
392.36	1109.41
392.55	968.98
392.75	987.71
392.94	1015.79
393.13	966.64
393.33	1008.77
393.52	999.41
393.71	1036.86
393.91	1163.25
394.10	1114.10
394.29	1226.44
394.49	1177.29
394.68	1252.19
394.88	1125.80
395.07	1249.85
395.26	1294.32
395.46	1249.85
395.65	1245.16
395.84	1221.76
396.04	1291.98
396.23	1135.16
396.42	1123.46
396.62	1221.76
396.81	1198.35
397.00	1128.14
397.19	1210.06
397.39	1270.91
397.58	1376.24
397.77	1409.00
397.97	1399.64
398.16	1441.77
398.35	1385.60
398.55	1441.77
398.74	1455.81
398.93	1591.56
399.12	1528.37
399.32	1509.65
399.51	1547.09
399.70	1528.37
399.90	1514.33
400.09	1549.43
400.28	1661.78
400.47	1565.82
400.67	1717.95
400.86	1610.29
401.05	1577.52
401.24	1565.82
401.44	1687.53
401.63	1664.12
401.82	1668.80
402.01	1743.70
402.21	1708.59
402.40	1743.70
402.59	1671.14
402.78	1694.55
402.97	1687.53
403.17	1820.94
403.36	1774.13
403.55	1849.02
403.74	1944.99
403.93	1891.15
404.13	1909.88
404.32	1816.26
404.51	1891.15
404.70	1813.92
404.89	1905.20
405.09	1996.48
405.28	2015.20
405.47	1919.24
405.66	2005.84
405.85	2040.95
406.05	1970.73
406.24	2008.18
406.43	1998.82
406.62	2059.67
406.81	2153.29
407.00	2179.04
407.20	2087.76
407.39	2043.29
407.58	2134.57
407.77	2253.94
407.96	2190.74
408.15	2298.41
408.34	2317.13
408.54	2256.28
408.73	2317.13
408.92	2251.60
409.11	2328.83
409.30	2289.04
409.49	2300.75
409.68	2352.24
409.87	2282.02
410.07	2324.15
410.26	2359.26
410.45	2466.92
410.64	2431.82
410.83	2424.80
411.02	2415.43
411.21	2534.80
411.40	2562.89
411.59	2502.03
411.78	2661.19
411.98	2495.01
412.17	2616.72
412.36	2682.25
412.55	2686.94
412.74	2754.81
412.93	2757.15
413.12	2635.44
413.31	2874.18
413.50	2949.08
413.69	2810.98
413.88	2820.35
414.07	2750.13
414.26	3045.04
414.45	2981.84
414.64	2953.76
414.83	3021.63
415.02	3019.29
415.22	2913.97
415.41	3070.78
415.60	3176.11
415.79	3173.77
415.98	3171.43
416.17	3239.30
416.36	3185.47
416.55	3014.61
416.74	3183.13
416.93	3192.49
417.12	3260.37
417.31	3297.81
417.50	3438.25
417.69	3393.78
417.88	3351.65
418.07	3358.67
418.26	3431.23
418.45	3515.48
418.64	3559.95
418.83	3660.60
419.02	3566.98
419.21	3562.30
419.39	3508.46
419.58	3473.36
419.77	3442.93
419.96	3756.56
420.15	3623.15
420.34	3658.26
420.53	3861.88
420.72	3808.05
420.91	3772.94
421.10	3789.33
421.29	3978.91
421.48	3794.01
421.67	3918.06
421.86	3707.41
422.05	3744.86
422.24	3777.62
422.43	3845.50
422.61	3822.09
422.80	3852.52
422.99	3908.69
423.18	3866.56
423.37	4016.36
423.56	3922.74
423.75	3906.35
423.94	3784.65
424.13	3733.15
424.32	3796.35
424.50	3946.14
424.69	3833.80
424.88	4046.79
425.07	3894.65
425.26	3873.59
425.45	3906.35
425.64	3808.05
425.83	3957.85
426.01	4014.02
426.20	4018.70
426.39	3974.23
426.58	3887.63
426.77	3892.31
426.96	3908.69
427.15	3962.53
427.33	4039.76
427.52	4126.36
427.71	4081.89
427.90	4138.07
428.09	4210.62
428.28	4011.68
428.46	4070.19
428.65	4060.83
428.84	4266.80
429.03	4271.48
429.22	4166.15
429.40	4095.94
429.59	4142.75
429.78	3730.81
429.97	3873.59
430.16	4042.11
430.34	4081.89
430.53	4084.23
430.72	4299.56
430.91	4175.52
431.10	4332.33
431.28	4365.10
431.47	4580.43
431.66	4690.43
431.85	4496.17
432.03	4573.41
432.22	4599.15
432.41	4580.43
432.60	4692.77
432.79	4739.58
432.97	4793.42
433.16	4709.16
433.35	4610.86
433.54	4634.26
433.72	4620.22
433.91	4720.86
434.10	4732.56
434.28	4795.76
434.47	4936.19
434.66	4835.55
434.85	4926.83
435.03	5076.62
435.22	5102.37
435.41	5088.32
435.59	5067.26
435.78	4908.10
435.97	5071.94
436.16	5240.46
436.34	5256.84
436.53	5238.12
436.72	5195.99
436.90	5109.39
437.09	5067.26
437.28	5057.90
437.46	5135.14
437.65	5121.09
437.84	5151.52
438.02	5100.03
438.21	5235.78
438.40	5128.11
438.58	5259.18
438.77	5348.12
438.96	5394.93
439.14	5612.60
439.33	5628.99
439.52	5514.30
439.70	5682.82
439.89	5671.12
440.08	5722.61
440.26	5825.59
440.45	5767.08
440.63	5844.32
440.82	5851.34
441.01	5884.11
441.19	5898.15
441.38	6085.39
441.57	6078.37
441.75	6157.95
441.94	6375.62
442.12	6312.42
442.31	6382.64
442.50	6347.53
442.68	6249.23
442.87	6146.25
443.05	6293.70
443.24	6422.43
443.43	6382.64
443.61	6530.09
443.80	6509.03
443.98	6300.72
444.17	6239.87
444.35	6340.51
444.54	6520.73
444.73	6532.44
444.91	6424.77
445.10	6408.39
445.28	6497.33
445.47	6457.54
445.65	6363.92
445.84	6539.46
446.02	6541.80
446.21	6480.94
446.39	6569.88
446.58	6623.72
446.77	6677.55
446.95	6537.12
447.14	6878.83
447.32	6801.60
447.51	6640.10
447.69	6569.88
447.88	6806.28
448.06	6743.08
448.25	6588.61
448.43	6813.30
448.62	6750.10
448.80	6663.51
448.99	6740.74
449.17	6825.00
449.36	6810.96
449.54	6766.49
449.73	7012.24
449.91	6937.35
450.10	7101.19
450.28	7262.68
450.46	7194.81
450.65	7295.45
450.83	7248.64
451.02	7169.06
451.20	7260.34
451.39	7304.81
451.57	7052.03
451.76	7115.23
451.94	7274.38
452.13	7262.68
452.31	7246.30
452.49	6981.82
452.68	7372.69
452.86	7091.82
453.05	7155.02
453.23	7410.14
453.42	7267.36
453.60	7368.01
453.78	7454.61
453.97	7206.51
454.15	7335.24
454.34	7363.33
454.52	7475.67
454.70	7302.47
454.89	7442.90
455.07	7541.21
455.26	7604.40
455.44	7756.54
455.62	7719.09
455.81	7578.65
455.99	7623.12
456.17	7733.13
456.36	7770.58
456.54	7964.84
456.73	8131.02
456.91	7978.89
457.09	7953.14
457.28	8390.82
457.46	7948.46
457.64	8255.07
457.83	7939.10
458.01	7932.08
458.19	8142.72
458.38	8107.62
458.56	8388.48
458.74	8030.38
458.93	8362.73
459.11	8229.32
459.29	8128.68
459.48	8498.49
459.66	8416.57
459.84	8301.88
460.03	8482.10
460.21	8477.42
460.39	8512.53
460.57	8629.56
460.76	8512.53
460.94	8622.53
461.12	8723.18
461.31	8641.26
461.49	8657.64
461.67	8769.99
461.85	8762.97
462.04	8678.71
462.22	8908.08
462.40	9011.06
462.59	8875.31
462.77	8755.94
462.95	9198.31
463.13	8716.16
463.32	8805.10
463.50	8903.40
463.68	9041.49
463.86	8854.25
464.05	8851.91
464.23	8973.61
464.41	9198.31
464.59	8854.25
464.78	9085.96
464.96	9132.77
465.14	8980.64
465.32	9092.98
465.50	9160.86
465.69	9214.69
465.87	9212.35
466.05	9172.56
466.23	8985.32
466.41	9233.41
466.60	9275.54
466.78	9254.48
466.96	9334.06
467.14	9231.07
467.32	9308.31
467.51	9525.98
467.69	9275.54
467.87	9331.72
468.05	9451.08
468.23	9343.42
468.41	9315.33
468.60	9495.55
468.78	9680.46
468.96	9579.81
469.14	9804.50
469.32	9762.37
469.50	9509.60
469.69	9762.37
469.87	9572.79
470.05	9678.12
470.23	9837.27
470.41	9832.59
470.59	10059.62
470.77	9764.72
470.95	10090.05
471.14	10029.20
471.32	9863.02
471.50	10457.51
471.68	10289.00
471.86	10303.04
472.04	10401.34
472.22	10513.69
472.40	10258.57
472.58	10171.97
472.77	10333.47
472.95	10567.52
473.13	10696.25
473.31	10600.29
473.49	10539.43
473.67	10520.71
473.85	10532.41
474.03	10878.81
474.21	10951.37
474.39	10960.73
474.57	10995.84
474.75	11023.92
474.93	11337.56
475.12	11140.95
475.30	11297.77
475.48	11129.25
475.66	11218.19
475.84	11482.67
476.02	11440.54
476.20	11213.51
476.38	11585.65
476.56	11866.52
476.74	11932.05
476.92	11700.34
477.10	11772.89
477.28	12114.61
477.46	11829.07
477.64	12119.29
477.82	12210.57
478.00	12505.48
478.18	12147.38
478.36	12360.37
478.54	12774.64
478.72	12564.00
478.90	12798.05
479.08	13057.85
479.26	13394.89
479.44	13142.11
479.62	13219.35
479.80	13312.97
479.98	13390.20
480.16	13593.83
480.34	13659.37
480.52	13921.51
480.70	13647.66
480.88	13699.16
481.06	13764.69
481.24	14057.26
481.41	14190.67
481.59	14253.86
481.77	14607.28
481.95	14443.45
482.13	14677.50
482.31	14600.26
482.49	15016.88
482.67	14761.76
482.85	14836.66
483.03	14927.94
483.21	15059.01
483.39	15161.99
483.57	15342.21
483.74	15377.32
483.92	15496.69
484.10	15407.75
484.28	15861.81
484.46	16166.08
484.64	16655.25
484.82	16224.59
485.00	16095.86
485.18	16259.70
485.35	16313.53
485.53	15997.56
485.71	15941.39
485.89	16458.65
486.07	16259.70
486.25	16451.63
486.43	16858.88
486.61	16723.13
486.78	17106.98
486.96	17406.56
487.14	17823.18
487.32	17792.75
487.50	18176.60
487.68	18150.85
487.85	18590.88
488.03	18548.75
488.21	18490.23
488.39	18492.57
488.57	18782.80
488.75	19068.34
488.92	18707.90
489.10	19503.68
489.28	19204.10
489.46	19578.58
489.64	19438.15
489.81	20133.29
489.99	20168.40
490.17	19967.11
490.35	20327.55
490.53	20299.47
490.70	20477.35
490.88	20484.37
491.06	20589.69
491.24	20393.09
491.41	20203.50
491.59	20875.24
491.77	20996.95
491.95	20975.88
492.13	21144.40
492.30	21312.92
492.48	21724.85
492.66	21699.11
492.84	21783.37
493.01	22207.00
493.19	21893.37
493.37	22251.47
493.54	22286.58
493.72	22443.40
493.90	22754.69
494.08	22757.03
494.25	23094.07
494.43	22820.22
494.61	23531.75
494.79	23571.54
494.96	23190.03
495.14	23248.54
495.32	23503.66
495.49	23339.82
495.67	23634.73
495.85	24357.96
496.02	24393.06
496.20	24493.71
496.38	24065.39
496.55	24318.17
496.73	25326.94
496.91	24760.53
497.09	24882.24
497.26	24943.09
497.44	25156.08
497.62	25413.54
497.79	25355.02
497.97	25088.20
498.14	25364.39
498.32	25450.99
498.50	25628.87
498.67	25851.22
498.85	26096.97
499.03	26237.41
499.20	26181.23
499.38	26211.66
499.56	26609.55
499.73	26457.42
499.91	26810.84
500.08	26726.58
500.26	26424.65
500.44	26434.01
500.61	26991.06
500.79	26527.63
500.97	26635.30
501.14	27248.52
501.32	26927.86
501.49	26972.33
501.67	27426.40
501.84	27271.92
502.02	27351.50
502.20	27700.24
502.37	27864.08
502.55	28013.87
502.72	27913.23
502.90	27924.93
503.07	27908.55
503.25	27803.22
503.43	28133.24
503.60	27955.36
503.78	28170.69
503.95	27997.49
504.13	28594.32
504.30	28128.56
504.48	28533.47
504.65	28774.55
504.83	28606.03
505.01	29333.93
505.18	29317.55
505.36	29488.41
505.53	29167.76
505.71	29834.81
505.88	30054.82
506.06	29163.08
506.23	29841.83
506.41	29373.72
506.58	29366.70
506.76	29802.04
506.93	29862.90
507.11	29921.41
507.28	30211.64
507.46	29909.71
507.63	29743.53
507.81	30103.97
507.98	30176.53
508.16	29958.86
508.33	30380.15
508.50	30958.27
508.68	31138.49
508.85	30679.74
509.03	31012.10
509.20	30726.55
509.38	30857.62
509.55	31119.76
509.73	31363.18
509.90	31330.41
510.08	31250.83
510.25	31381.90
510.42	31674.47
510.60	31562.12
510.77	31337.43
510.95	32020.87
511.12	32058.32
511.30	32109.81
511.47	32456.21
511.64	32346.20
511.82	32299.39
511.99	32086.40
512.17	32294.71
512.34	32283.01
512.51	32479.61
512.69	32596.64
512.86	32339.18
513.04	32933.68
513.21	33364.34
513.38	32751.12
513.56	32257.26
513.73	32556.85
513.90	33345.61
514.08	32833.04
514.25	32929.00
514.43	33418.17
514.60	33495.41
514.77	33118.58
514.95	33617.11
515.12	33291.78
515.29	33656.90
515.47	33797.34
515.64	33699.03
515.81	33703.71
515.99	33350.29
516.16	33560.94
516.33	33776.27
516.51	33839.47
516.68	33441.57
516.85	33282.42
517.03	33570.30
517.20	34113.31
517.37	33907.34
517.54	34330.98
517.72	34377.79
517.89	33916.70
518.06	34251.40
518.24	34155.44
518.41	34169.48
518.58	34260.76
518.75	34778.02
518.93	34759.30
519.10	34749.93
519.27	35063.57
519.45	34845.90
519.62	35105.70
519.79	34923.13
519.96	35658.06
520.14	35573.80
520.31	35391.24
520.48	35578.48
520.65	35477.84
520.83	35763.39
521.00	36002.12
521.17	35810.20
521.34	36112.13
521.52	36114.47
521.69	35920.20
521.86	36292.35
522.03	36119.15
522.20	36620.02
522.38	36339.16
522.55	36491.29
522.72	36563.85
522.89	36378.95
523.07	36531.08
523.24	36694.92
523.41	36320.43
523.58	37179.41
523.75	37275.37
523.92	36849.39
524.10	37324.52
524.27	37364.31
524.44	37317.50
524.61	37378.36
524.78	37436.87
524.96	37694.33
525.13	37769.22
525.30	37797.31
525.47	37923.70
525.64	37471.98
525.81	37427.51
525.98	37720.07
526.16	37163.03
526.33	37415.80
526.50	37549.21
526.67	37247.29
526.84	37741.14
527.01	37495.38
527.18	37947.11
527.36	38014.98
527.53	38354.36
527.70	38368.40
527.87	38340.32
528.04	38298.19
528.21	38103.92
528.38	38384.79
528.55	38572.03
528.72	39002.69
528.89	38948.85
529.07	38696.08
529.24	38560.33
529.41	38981.62
529.58	39159.50
529.75	38998.01
529.92	38838.85
530.09	38822.47
530.26	39091.63
530.43	39119.71
530.60	39009.71
530.77	39239.08
530.94	39538.67
531.11	39686.12
531.28	39325.68
531.46	39922.52
531.63	39880.39
531.80	39606.55
531.97	39615.91
532.14	39512.92
532.31	39210.99
532.48	39269.51
532.65	39658.04
532.82	39629.95
532.99	39796.13
533.16	39524.63
533.33	40006.78
533.50	39983.37
533.67	39997.41
533.84	39484.84
534.01	39831.24
534.18	40032.52
534.35	40460.84
534.52	39728.25
534.69	40369.56
534.86	40109.76
535.03	40371.90
535.20	40914.90
535.37	41118.53
535.54	41331.52
535.71	41053.00
535.88	40694.89
536.05	40912.56
536.22	41057.68
536.38	40877.46
536.55	40648.08
536.72	40636.38
536.89	40261.90
537.06	40706.60
537.23	41294.07
537.40	41137.26
537.57	40996.82
537.74	41167.68
537.91	41043.63
538.08	41298.75
538.25	41006.19
538.42	41228.54
538.59	41448.55
538.75	41053.00
538.92	41675.58
539.09	41591.32
539.26	41413.44
539.43	41401.74
539.60	41249.60
539.77	41415.78
539.94	41560.89
540.11	41689.62
540.28	41923.68
540.44	41860.48
540.61	41413.44
540.78	41759.84
540.95	41357.27
541.12	41509.40
541.29	41722.39
541.46	41476.63
541.62	41752.82
541.79	42232.63
541.96	41921.34
542.13	42066.45
542.30	41998.57
542.47	42227.95
542.63	42019.64
542.80	42298.16
542.97	42768.61
543.14	42347.31
543.31	42852.87
543.48	42803.72
543.64	42948.83
543.81	43210.97
543.98	43000.32
544.15	42541.58
544.32	43168.84
544.48	43122.03
544.65	43227.35
544.82	42728.82
544.99	42946.49
545.16	43068.20
545.32	42672.65
545.49	43337.36
545.66	43585.46
545.83	43423.96
546.00	43480.13
546.16	43409.92
546.33	42911.38
546.50	42916.06
546.67	43000.32
546.83	43061.18
547.00	43150.12
547.17	43342.04
547.34	43250.76
547.50	43552.69
547.67	43166.50
547.84	43955.26
548.00	43856.96
548.17	44091.01
548.34	43716.53
548.51	43966.96
548.67	44044.20
548.84	43842.92
549.01	43667.37
549.18	43510.56
549.34	44095.69
549.51	43856.96
549.68	44238.47
549.84	43775.04
550.01	44369.54
550.18	43892.07
550.34	44091.01
550.51	44233.78
550.68	44074.63
550.84	43365.45
551.01	43924.83
551.18	44418.69
551.34	44224.42
551.51	44360.17
551.68	44512.31
551.84	44329.75
552.01	44257.19
552.18	44336.77
552.34	44065.27
552.51	44641.04
552.68	44236.12
552.84	44411.67
553.01	44678.49
553.18	44130.80
553.34	44273.57
553.51	44383.58
553.67	44332.09
553.84	44985.10
554.01	44722.96
554.17	44961.69
554.34	45191.06
554.51	44655.08
554.67	44898.50
554.84	45165.32
555.00	44847.00
555.17	44486.56
555.33	44664.44
555.50	44945.31
555.67	44521.67
555.83	44650.40
556.00	44893.82
556.16	44926.58
556.33	44868.07
556.50	45172.34
556.66	45081.06
556.83	44842.32
556.99	44980.42
557.16	44847.00
557.32	45296.39
557.49	44772.11
557.65	44849.35
557.82	45001.48
557.98	45109.14
558.15	45052.97
558.32	45052.97
558.48	45083.40
558.65	45172.34
558.81	45301.07
558.98	45064.67
559.14	45457.88
559.31	45371.28
559.47	45291.71
559.64	45357.24
559.80	45284.68
559.97	45485.97
560.13	45382.99
560.30	45141.91
560.46	45411.07
560.63	45483.63
560.79	45823.01
560.96	45668.53
561.12	45610.02
561.29	45130.21
561.45	45113.83
561.61	44811.90
561.78	45427.46
561.94	45364.26
562.11	45385.33
562.27	45457.88
562.44	45626.40
562.60	46054.72
562.77	45357.24
562.93	46050.04
563.10	45900.25
563.26	45258.94
563.42	45806.62
563.59	45787.90
563.75	45443.84
563.92	45715.34
564.08	45649.81
564.24	45514.06
564.41	45471.93
564.57	45647.47
564.74	45691.94
564.90	45165.32
565.07	45823.01
565.23	45603.00
565.39	45560.87
565.56	45399.37
565.72	45869.82
565.88	45818.33
566.05	45420.44
566.21	45815.99
566.38	45654.49
566.54	45881.52
566.70	46150.68
566.87	46232.60
567.03	45860.46
567.19	46239.62
567.36	45865.14
567.52	45326.81
567.68	45879.18
567.85	45797.26
568.01	45984.51
568.17	45996.21
568.34	45839.39
568.50	45574.91
568.66	45741.09
568.83	46167.07
568.99	45574.91
569.15	45675.55
569.32	45631.08
569.48	45663.85
569.64	45886.20
569.81	46000.89
569.97	45727.05
570.13	46087.49
570.30	45535.12
570.46	45942.38
570.62	45832.37
570.78	45467.25
570.95	45832.37
571.11	46209.20
571.27	45841.73
571.43	45893.22
571.60	45909.61
571.76	45750.45
571.92	46195.15
572.09	45546.82
572.25	45914.29
572.41	45956.42
572.57	46253.67
572.74	46628.15
572.90	45820.67
573.06	46043.02
573.22	45925.99
573.38	45944.72
573.55	45841.73
573.71	45986.85
573.87	46033.66
574.03	46115.58
574.20	46323.88
574.36	45855.78
574.52	46073.45
574.68	46230.26
574.84	46188.13
575.01	45738.75
575.17	45801.94
575.33	45673.21
575.49	45776.20
575.65	46576.66
575.82	46300.48
575.98	45977.48
576.14	46136.64
576.30	46330.90
576.46	45984.51
576.62	46036.00
576.79	46085.15
576.95	45944.72
577.11	45970.46
577.27	46183.45
577.43	45759.81
577.59	45954.08
577.75	46071.10
577.92	45556.19
578.08	45982.16
578.24	45682.58
578.40	46007.91
578.56	46354.31
578.72	46031.32
578.88	46185.79
579.04	46272.39
579.21	46000.89
579.37	46307.50
579.53	46150.68
579.69	45577.25
579.85	46075.79
580.01	46045.36
580.17	45972.80
580.33	46115.58
580.49	46206.86
580.65	46351.97
580.82	45872.16
580.98	45869.82
581.14	46094.51
581.30	46377.72
581.46	46333.24
581.62	46185.79
581.78	46220.90
581.94	46155.36
582.10	45965.78
582.26	46635.17
582.42	45925.99
582.58	46508.79
582.74	46148.34
582.90	46471.34
583.06	46258.35
583.22	46574.32
583.38	46553.26
583.54	46511.13
583.70	46506.44
583.86	46218.56
584.02	46171.75
584.18	46536.87
584.34	46099.19
584.50	46307.50
584.66	46190.47
584.82	46082.81
584.98	46323.88
585.14	46057.06
585.30	46143.66
585.46	46574.32
585.62	45907.27
585.78	46745.18
585.94	45605.34
586.10	46045.36
586.26	46071.10
586.42	46347.29
586.58	46752.20
586.74	46319.20
586.90	46391.76
587.06	46323.88
587.22	46777.95
587.38	46031.32
587.54	45979.82
587.70	46752.20
587.86	46375.37
588.02	46103.87
588.18	46363.67
588.34	46639.86
588.49	45563.21
588.65	45394.69
588.81	45855.78
588.97	45984.51
589.13	45652.15
589.29	45961.10
589.45	46307.50
589.61	46120.26
589.77	46263.03
589.93	46202.18
590.08	46403.46
590.24	46415.16
590.40	46571.98
590.56	46232.60
590.72	46440.91
590.88	46040.68
591.04	46461.97
591.20	46958.17
591.35	46642.20
591.51	46653.90
591.67	46756.88
591.83	46951.15
591.99	46480.70
592.15	46696.03
592.31	46464.32
592.46	46426.87
592.62	46101.53
592.78	46738.16
592.94	46607.09
593.10	46560.28
593.26	46316.86
593.41	46148.34
593.57	46298.14
593.73	46536.87
593.89	46454.95
594.05	46358.99
594.20	46635.17
594.36	46333.24
594.52	46562.62
594.68	45986.85
594.84	46700.71
594.99	47037.75
595.15	46445.59
595.31	46410.48
595.47	46571.98
595.62	46361.33
595.78	46621.13
595.94	47325.63
596.10	46717.09
596.25	46560.28
596.41	46574.32
596.57	46473.68
596.73	46529.85
596.88	46274.73
597.04	46555.60
597.20	46284.09
597.36	46534.53
597.51	46880.93
597.67	46454.95
597.83	46616.45
597.99	46415.16
598.14	46553.26
598.30	46574.32
598.46	46227.92
598.61	46349.63
598.77	46138.98
598.93	46513.47
599.09	46497.08
599.24	46927.74
599.40	46855.18
599.56	46504.10
599.71	46471.34
599.87	46625.81
600.03	46424.53
600.18	46279.41
600.34	46045.36
600.50	46295.80
600.65	45921.31
600.81	46618.79
600.97	46838.80
601.12	46681.98
601.28	46843.48
601.44	46520.49
601.59	46117.92
601.75	46476.02
601.91	46103.87
602.06	45933.01
602.22	46377.72
602.37	46286.43
602.53	46775.61
602.69	46883.27
602.84	46080.47
603.00	46155.36
603.16	46225.58
603.31	46314.52
603.47	46101.53
603.62	46658.58
603.78	46604.75
603.94	46241.96
604.09	46511.13
604.25	46747.52
604.40	46609.43
604.56	46174.09
604.71	46490.06
604.87	46253.67
605.03	46026.63
605.18	46206.86
605.34	46539.21
605.49	46024.29
605.65	46476.02
605.80	46258.35
605.96	46164.73
606.12	46370.69
606.27	46499.42
606.43	46052.38
606.58	46082.81
606.74	46246.65
606.89	46309.84
607.05	46515.81
607.20	45925.99
607.36	46230.26
607.51	46377.72
607.67	46518.15
607.82	46277.07
607.98	45979.82
608.13	45970.46
608.29	46220.90
608.44	45916.63
608.60	45745.77
608.75	45694.28
608.91	45982.16
609.06	46094.51
609.22	46012.59
609.37	46178.77
609.53	46419.84
609.68	45666.19
609.84	45532.78
609.99	45703.64
610.15	45666.19
610.30	46267.71
610.46	45656.83
610.61	45815.99
610.76	45825.35
610.92	45808.96
611.07	45951.74
611.23	45818.33
611.38	45649.81
611.54	45949.40
611.69	45319.79
611.84	45333.84
612.00	45560.87
612.15	45425.12
612.31	45647.47
612.46	45099.78
612.62	45467.25
612.77	46138.98
612.92	46108.55
613.08	45198.09
613.23	45588.95
613.39	45471.93
613.54	45406.39
613.69	45411.07
613.85	45324.47
614.00	45212.13
614.15	45698.96
614.31	45226.17
614.46	45708.32
614.62	45544.48
614.77	45450.86
614.92	45263.62
615.08	45305.75
615.23	45155.96
615.38	44877.43
615.54	44823.60
615.69	44760.40
615.84	44341.45
616.00	45336.18
616.15	45193.40
616.30	45141.91
616.46	44673.81
616.61	44926.58
616.76	44779.13
616.92	44783.81
617.07	44509.97
617.22	44549.76
617.37	44367.20
617.53	44800.19
617.68	44821.26
617.83	44926.58
617.99	44875.09
618.14	44512.31
618.29	45031.91
618.45	44830.62
618.60	44423.37
618.75	44594.23
618.90	44484.22
619.06	44568.48
619.21	45013.18
619.36	44928.92
619.51	44975.73
619.67	44985.10
619.82	45099.78
619.97	44877.43
620.12	44355.49
620.28	44570.82
620.43	44009.09
620.58	44456.14
620.73	44414.01
620.89	43983.35
621.04	44184.63
621.19	44175.27
621.34	44282.94
621.49	44219.74
621.65	43964.62
621.80	44369.54
621.95	44098.03
622.10	43840.57
622.25	43899.09
622.41	44184.63
622.56	44046.54
622.71	44378.90
622.86	44091.01
623.01	44081.65
623.16	44060.58
623.32	43768.02
623.47	43786.74
623.62	43868.66
623.77	43863.98
623.92	43983.35
624.07	43344.38
624.23	44039.52
624.38	43601.84
624.53	43255.44
624.68	43629.93
624.83	43538.65
624.98	43484.81
625.13	43044.79
625.29	43770.36
625.44	43246.08
625.59	43260.12
625.74	43105.65
625.89	42904.36
626.04	42951.17
626.19	43459.07
626.34	43395.87
626.49	43615.88
626.65	43800.79
626.80	43393.53
626.95	42976.92
627.10	42946.49
627.25	42822.44
627.40	43005.00
627.55	42705.41
627.70	42480.72
627.85	42756.91
628.00	42609.45
628.15	42855.21
628.30	42363.70
628.45	42876.27
628.60	42995.64
628.76	42911.38
628.91	43267.14
629.06	42691.37
629.21	42487.74
629.36	42576.69
629.51	42244.33
629.66	42827.12
629.81	42396.46
629.96	42574.34
630.11	42583.71
630.26	42810.74
630.41	42684.35
630.56	42740.52
630.71	42522.85
630.86	42314.55
631.01	42349.65
631.16	42541.58
631.31	42160.07
631.46	42286.46
631.61	42197.52
631.76	42789.67
631.91	42740.52
632.06	42183.48
632.21	42754.57
632.36	42230.29
632.51	42246.67
632.66	41979.85
632.81	41799.63
632.96	42059.43
633.10	41970.49
633.25	41916.65
633.40	42082.83
633.55	42419.87
633.70	41668.56
633.85	41481.31
634.00	41865.16
634.15	42199.86
634.30	41830.05
634.45	41823.03
634.60	41982.19
634.75	41867.50
634.90	41614.72
635.05	41626.43
635.19	41518.76
635.34	42003.25
635.49	41640.47
635.64	41375.99
635.79	41172.36
635.94	41195.77
636.09	41549.19
636.24	41378.33
636.39	40861.07
636.53	41420.46
636.68	41551.53
636.83	41511.74
636.98	41493.02
637.13	41017.89
637.28	41757.50
637.43	41652.17
637.57	41956.44
637.72	41598.34
637.87	41076.40
638.02	41434.50
638.17	41359.61
638.32	40992.14
638.46	41017.89
638.61	41261.30
638.76	41209.81
638.91	40985.12
639.06	41256.62
639.20	41055.34
639.35	41118.53
639.50	41104.49
639.65	41022.57
639.80	40975.76
639.94	40774.47
640.09	41022.57
640.24	40788.52
640.39	40622.34
640.54	40612.98
640.68	40879.80
640.83	40271.26
640.98	40748.73
641.13	40313.39
641.27	40669.15
641.42	40774.47
641.57	40624.68
641.72	40591.91
641.86	40617.66
642.01	40292.32
642.16	40055.93
642.31	40229.13
642.45	40608.29
642.60	40172.96
642.75	40086.36
642.90	40481.91
643.04	40648.08
643.19	40123.80
643.34	40395.31
643.48	39824.22
643.63	40325.09
643.78	39751.66
643.93	39931.88
644.07	39847.62
644.22	40084.01
644.37	40025.50
644.51	40084.01
644.66	40367.22
644.81	40067.63
644.95	40528.72
645.10	40100.40
645.25	40105.08
645.39	39856.98
645.54	40264.24
645.69	40065.29
645.83	40046.57
645.98	40058.27
646.13	39840.60
646.27	39636.97
646.42	39873.37
646.57	39583.14
646.71	39573.78
646.86	39901.45
647.00	39777.40
647.15	39920.18
647.30	39629.95
647.44	39442.71
647.59	39545.69
647.74	39545.69
647.88	39227.38
648.03	39669.74
648.17	39648.68
648.32	39519.95
648.47	39175.89
648.61	38852.89
648.76	39264.83
648.90	39290.57
649.05	39150.14
649.20	38930.13
649.34	39393.56
649.49	38555.64
649.63	38831.83
649.78	38799.06
649.92	38857.57
650.07	39477.82
650.21	38885.66
650.36	39143.12
650.51	39051.84
650.65	39761.02
650.80	39360.79
650.94	39154.82
651.09	38988.64
651.23	38768.63
651.38	39168.87
651.52	38361.38
651.67	38335.63
651.81	38522.88
651.96	38595.43
652.10	38438.62
652.25	38520.54
652.39	38630.54
652.54	38787.36
652.68	38852.89
652.83	38752.25
652.97	38719.48
653.12	38136.69
653.26	38443.30
653.41	38761.61
653.55	38192.86
653.70	38321.59
653.84	38539.26
653.99	38103.92
654.13	38525.22
654.27	37837.10
654.42	38129.67
654.56	37921.36
654.71	38291.16
654.85	38352.02
655.00	38265.42
655.14	37839.44
655.29	37858.17
655.43	38007.96
655.57	37757.52
655.72	37350.27
655.86	37057.70
656.01	37497.72
656.15	37282.39
656.30	37663.90
656.44	37778.59
656.58	37263.67
656.73	37661.56
656.87	37537.51
657.01	37890.93
657.16	37523.47
657.30	37420.48
657.45	37638.15
657.59	37413.46
657.73	37226.22
657.88	37799.65
658.02	37743.48
658.16	37907.32
658.31	37916.68
658.45	37727.10
658.60	37130.26
658.74	37759.86
658.88	37429.85
659.03	37034.30
659.17	37383.04
659.31	37120.90
659.46	37139.62
659.60	37387.72
659.74	37139.62
659.89	36996.85
660.03	36666.83
660.17	37160.69
660.32	36870.46
660.46	37394.74
660.60	37165.37
660.74	36524.06
660.89	36886.84
661.03	36601.30
661.17	36449.16
661.32	35999.78
661.46	36594.28
661.60	36271.28
661.74	35995.10
661.89	36360.22
662.03	36168.30
662.17	36025.53
662.31	36472.57
662.46	36158.94
662.60	36360.22
662.74	36161.28
662.88	35976.37
663.03	35711.89
663.17	35859.35
663.31	35665.08
663.45	35674.45
663.60	35873.39
663.74	35849.99
663.88	35716.58
664.02	35318.68
664.17	35515.29
664.31	35349.11
664.45	35363.15
664.59	35747.00
664.73	35510.61
664.88	35742.32
665.02	34972.28
665.16	35271.87
665.30	35150.17
665.44	35126.76
665.59	34778.02
665.73	34799.08
665.87	34827.17
666.01	35047.18
666.15	34726.53
666.29	35089.31
666.44	35096.33
666.58	34595.46
666.72	34483.11
666.86	34843.56
667.00	34642.27
667.14	34656.31
667.28	34436.30
667.43	34260.76
667.57	34686.74
667.71	34497.16
667.85	33963.51
667.99	34349.70
668.13	33722.44
668.27	34160.12
668.41	34246.72
668.56	34052.45
668.70	33869.89
668.84	33769.25
668.98	33448.60
669.12	33544.56
669.26	33930.75
669.40	33495.41
669.54	33703.71
669.68	33717.76
669.82	33046.02
669.96	33174.75
670.10	33425.19
670.25	33027.30
670.39	33205.18
670.53	33153.69
670.67	33116.24
670.81	33008.58
670.95	33195.82
671.09	32851.76
671.23	32760.48
671.37	32685.58
671.51	32797.93
671.65	32708.99
671.79	32484.30
671.93	32645.79
672.07	32891.55
672.21	32783.88
672.35	32526.42
672.49	32627.07
672.63	32467.91
672.77	32582.60
672.91	32598.98
673.05	32084.06
673.19	32093.43
673.33	31833.63
673.47	31718.94
673.61	31798.52
673.75	31461.48
673.89	31290.62
674.03	31402.97
674.17	31405.31
674.31	31770.43
674.45	31395.95
674.59	31257.85
674.73	31950.65
674.87	31601.91
675.01	30918.48
675.15	30974.65
675.29	30869.33
675.43	30773.36
675.56	31367.86
675.70	30958.27
675.84	31072.95
675.98	30031.41
676.12	30953.58
676.26	30782.73
676.40	30525.27
676.54	30745.28
676.68	30478.46
676.82	29799.70
676.96	30162.48
677.10	29930.77
677.23	29820.77
677.37	29523.52
677.51	29460.32
677.65	29890.98
677.79	29111.58
677.93	29158.39
678.07	29188.82
678.21	29158.39
678.34	29371.38
678.48	28491.34
678.62	28404.74
678.76	28545.17
678.90	28793.27
679.04	28584.96
679.18	28451.55
679.31	28140.26
679.45	28425.81
679.59	27995.15
679.73	28053.66
679.87	28123.88
680.00	28053.66
680.14	28046.64
680.28	28030.26
680.42	28109.83
680.56	27690.88
680.70	27770.46
680.83	27510.66
680.97	27517.68
681.11	27707.26
681.25	27014.46
681.39	27152.55
681.52	27562.15
681.66	27021.48
681.80	27260.22
681.94	26906.80
682.07	27009.78
682.21	26712.53
682.35	26520.61
682.49	26609.55
682.62	27014.46
682.76	26464.44
682.90	26148.46
683.04	26141.44
683.17	26661.04
683.31	26178.89
683.45	25919.09
683.59	26019.74
683.72	25568.01
683.86	25869.94
684.00	25923.77
684.13	25741.21
684.27	25212.25
684.41	25352.68
684.55	25385.45
684.68	25301.19
684.82	25406.52
684.96	25085.86
685.09	25408.86
685.23	24922.02
685.37	24964.15
685.50	24903.30
685.64	24538.18
685.78	24676.27
685.91	24512.43
686.05	24411.79
686.19	24151.99
686.32	24107.52
686.46	23733.03
686.60	23302.37
686.73	23431.10
686.87	22988.74
687.01	23215.77
687.14	23126.83
687.28	23632.39
687.42	23105.77
687.55	23225.14
687.69	23414.72
687.82	23026.19
687.96	22995.76
688.10	22920.87
688.23	22796.82
688.37	22771.07
688.50	22679.79
688.64	22611.92
688.78	22885.76
688.91	22459.78
689.05	22537.02
689.18	22244.45
689.32	22132.11
689.46	22113.38
689.59	22494.89
689.73	22373.18
689.86	22384.88
690.00	21612.51
690.13	21928.48
690.27	21645.27
690.41	21855.92
690.54	21032.05
690.68	21153.76
690.81	21151.42
690.95	21504.84
691.08	21436.97
691.22	21015.67
691.35	21142.06
691.49	21184.19
691.62	21113.97
691.76	20931.41
691.89	20978.22
692.03	21069.50
692.16	20620.12
692.30	20365.00
692.43	20332.23
692.57	20020.94
692.70	20196.48
692.84	20500.75
692.97	20233.93
693.11	19814.98
693.24	19681.56
693.38	19845.40
693.51	19868.81
693.65	19812.63
693.78	19885.19
693.92	19569.22
694.05	19559.86
694.19	19529.43
694.32	19166.65
694.45	19192.39
694.59	19033.24
694.72	18906.85
694.86	19183.03
694.99	18953.66
695.13	19033.24
695.26	18808.54
695.39	18682.16
695.53	18902.17
695.66	18785.14
695.80	18588.53
695.93	18614.28
696.07	18412.99
696.20	18562.79
696.33	18370.86
696.47	18040.85
696.60	18052.55
696.73	17919.14
696.87	17942.55
697.00	17888.71
697.14	17827.86
697.27	18024.47
697.40	17453.37
697.54	17539.97
697.67	17434.65
697.80	17160.81
697.94	17467.42
698.07	17081.23
698.21	17032.08
698.34	17216.98
698.47	16992.29
698.61	17032.08
698.74	16650.57
698.87	16926.75
699.01	16695.04
699.14	16437.58
699.27	16255.02
699.40	16514.82
699.54	16334.60
699.67	16226.93
699.80	16563.97
699.94	16020.97
700.07	16077.14
700.20	16093.52
700.34	15920.32
700.47	16191.83
700.60	16470.35
700.73	16269.06
700.87	16020.97
701.00	15824.36
701.13	15791.59
701.26	15475.62
701.40	15414.77
701.53	15173.69
701.66	15520.09
701.79	15302.42
701.93	15288.38
702.06	14881.13
702.19	14834.32
702.32	14874.10
702.46	14693.88
702.59	14963.04
702.72	14937.30
702.85	14668.14
702.99	14967.73
703.12	14728.99
703.25	14518.34
703.38	14644.73
703.51	14345.14
703.65	14361.53
703.78	14256.20
703.91	14188.33
704.04	14319.40
704.17	14366.21
704.31	14174.28
704.44	14054.92
704.57	13947.25
704.70	13703.84
704.83	13830.23
704.96	13912.14
705.10	13858.31
705.23	13837.25
>>>>>End Processed Spectral Data<<<<<
