SpectraSuite Data File
++++++++++++++++++++++++++++++++++++
Date: Fri Oct 25 10:47:32 EDT 2013
User: price-jones
Dark Spectrum Present: No
Reference Spectrum Present: No
Number of Sampled Component Spectra: 1
Spectrometers: USB2+H05261
Integration Time (usec): 100000 (USB2+H05261)
Spectra Averaged: 1 (USB2+H05261)
Boxcar Smoothing: 0 (USB2+H05261)
Correct for Electrical Dark: No (USB2+H05261)
Strobe/Lamp Enabled: No (USB2+H05261)
Correct for Detector Non-linearity: No (USB2+H05261)
Correct for Stray Light: No (USB2+H05261)
Number of Pixels in Processed Spectrum: 2048
>>>>>Begin Processed Spectral Data<<<<<
365.73	170.86
365.92	170.86
366.12	170.86
366.32	84.26
366.52	44.47
366.72	23.41
366.91	0.00
367.11	23.41
367.31	9.36
367.51	23.41
367.70	49.15
367.90	42.13
368.10	4.68
368.30	14.04
368.49	0.00
368.69	39.79
368.89	58.51
369.09	0.00
369.28	74.90
369.48	39.79
369.68	72.56
369.87	70.22
370.07	79.58
370.27	110.01
370.47	180.22
370.66	369.80
370.86	374.49
371.06	400.23
371.25	397.89
371.45	322.99
371.65	463.43
371.84	491.51
372.04	437.68
372.24	447.04
372.44	543.00
372.63	510.24
372.83	528.96
373.03	477.47
373.22	535.98
373.42	510.24
373.62	547.69
373.81	552.37
374.01	573.43
374.21	547.69
374.40	524.28
374.60	557.05
374.79	498.53
374.99	526.62
375.19	519.60
375.38	601.52
375.58	631.94
375.78	585.13
375.97	550.03
376.17	624.92
376.37	575.77
376.56	559.39
376.76	517.26
376.95	514.92
377.15	641.31
377.35	571.09
377.54	599.18
377.74	568.75
377.93	643.65
378.13	613.22
378.33	601.52
378.52	617.90
378.72	631.94
378.91	629.60
379.11	587.47
379.31	648.33
379.50	662.37
379.70	688.12
379.89	631.94
380.09	648.33
380.28	624.92
380.48	629.60
380.68	627.26
380.87	589.82
381.07	634.29
381.26	697.48
381.46	608.54
381.65	678.76
381.85	678.76
382.04	669.39
382.24	706.84
382.43	627.26
382.63	645.99
382.83	683.44
383.02	688.12
383.22	734.93
383.41	692.80
383.61	716.20
383.80	695.14
384.00	685.78
384.19	730.25
384.39	730.25
384.58	763.01
384.78	793.44
384.97	718.54
385.17	688.12
385.36	746.63
385.56	657.69
385.75	709.18
385.95	781.74
386.14	755.99
386.34	791.10
386.53	791.10
386.72	695.14
386.92	851.96
387.11	805.14
387.31	758.33
387.50	809.83
387.70	744.29
387.89	772.38
388.09	842.59
388.28	765.36
388.48	910.47
388.67	826.21
388.86	866.00
389.06	870.68
389.25	889.40
389.45	861.32
389.64	798.12
389.84	898.77
390.03	856.64
390.22	873.02
390.42	905.79
390.61	903.45
390.81	858.98
391.00	931.53
391.19	938.55
391.39	884.72
391.58	870.68
391.78	931.53
391.97	896.43
392.16	931.53
392.36	938.55
392.55	919.83
392.75	936.21
392.94	1006.43
393.13	964.30
393.33	938.55
393.52	1013.45
393.71	976.00
393.91	1060.26
394.10	999.41
394.29	1057.92
394.49	947.92
394.68	966.64
394.88	1144.52
395.07	1109.41
395.26	1015.79
395.46	1114.10
395.65	1153.88
395.84	987.71
396.04	1135.16
396.23	1118.78
396.42	1107.07
396.62	1043.88
396.81	1196.01
397.00	1130.48
397.19	1165.59
397.39	1128.14
397.58	1200.69
397.77	1221.76
397.97	1221.76
398.16	1247.51
398.35	1308.36
398.55	1291.98
398.74	1240.48
398.93	1352.83
399.12	1254.53
399.32	1320.06
399.51	1245.16
399.70	1413.68
399.90	1273.25
400.09	1376.24
400.28	1420.71
400.47	1446.45
400.67	1310.70
400.86	1359.85
401.05	1373.89
401.24	1387.94
401.44	1465.18
401.63	1451.13
401.82	1420.71
402.01	1432.41
402.21	1455.81
402.40	1495.60
402.59	1448.79
402.78	1469.86
402.97	1519.01
403.17	1533.05
403.36	1474.54
403.55	1521.35
403.74	1537.73
403.93	1465.18
404.13	1572.84
404.32	1600.93
404.51	1568.16
404.70	1722.63
404.89	1626.67
405.09	1675.82
405.28	1640.72
405.47	1666.46
405.66	1657.10
405.85	1799.87
406.05	1685.19
406.24	1708.59
406.43	1678.16
406.62	1720.29
406.81	1799.87
407.00	1776.47
407.20	1717.95
407.39	1739.02
407.58	1881.79
407.77	1872.43
407.96	1865.41
408.15	1839.66
408.34	1966.05
408.54	1881.79
408.73	1982.43
408.92	2043.29
409.11	2001.16
409.30	1996.48
409.49	2043.29
409.68	2017.54
409.87	2071.37
410.07	2019.88
410.26	2050.31
410.45	2092.44
410.64	2008.18
410.83	2125.21
411.02	2111.16
411.21	2157.97
411.40	2225.85
411.59	2160.31
411.78	2200.10
411.98	2291.38
412.17	2218.83
412.36	2275.00
412.55	2312.45
412.74	2312.45
412.93	2361.60
413.12	2307.77
413.31	2368.62
413.50	2385.01
413.69	2406.07
413.88	2544.16
414.07	2530.12
414.26	2534.80
414.45	2668.21
414.64	2588.63
414.83	2590.97
415.02	2602.68
415.22	2679.91
415.41	2696.30
415.60	2623.74
415.79	2726.72
415.98	2918.65
416.17	2818.00
416.36	2810.98
416.55	2768.85
416.74	2885.88
416.93	2806.30
417.12	2752.47
417.31	2965.46
417.50	2857.79
417.69	3059.08
417.88	2984.18
418.07	3012.27
418.26	3038.02
418.45	3103.55
418.64	3164.40
418.83	3115.25
419.02	3049.72
419.21	2998.23
419.39	2993.55
419.58	3122.27
419.77	2953.76
419.96	3272.07
420.15	3192.49
420.34	3255.69
420.53	3225.26
420.72	3339.94
420.91	3248.66
421.10	3164.40
421.29	3337.60
421.48	3339.94
421.67	3471.01
421.86	3300.16
422.05	3232.28
422.24	3213.56
422.43	3215.90
422.61	3358.67
422.80	3389.10
422.99	3255.69
423.18	3368.03
423.37	3471.01
423.56	3466.33
423.75	3466.33
423.94	3300.16
424.13	3213.56
424.32	3272.07
424.50	3545.91
424.69	3332.92
424.88	3510.80
425.07	3403.14
425.26	3356.33
425.45	3370.37
425.64	3531.87
425.83	3426.54
426.01	3412.50
426.20	3489.74
426.39	3370.37
426.58	3487.40
426.77	3475.70
426.96	3489.74
427.15	3646.55
427.33	3536.55
427.52	3538.89
427.71	3564.64
427.90	3559.95
428.09	3592.72
428.28	3709.75
428.46	3674.64
428.65	3791.67
428.84	3791.67
429.03	3817.41
429.22	3695.71
429.40	3651.24
429.59	3831.46
429.78	3569.32
429.97	3538.89
430.16	3674.64
430.34	3779.97
430.53	3803.37
430.72	3730.81
430.91	3894.65
431.10	3763.58
431.28	4093.60
431.47	4044.45
431.66	4084.23
431.85	3988.27
432.03	3995.29
432.22	4159.13
432.41	4147.43
432.60	4072.53
432.79	4023.38
432.97	4133.39
433.16	4145.09
433.35	4234.03
433.54	4201.26
433.72	4156.79
433.91	4166.15
434.10	4107.64
434.28	4177.86
434.47	4376.80
434.66	4589.79
434.85	4351.06
435.03	4383.82
435.22	4444.68
435.41	4402.55
435.59	4374.46
435.78	4306.59
435.97	4381.48
436.16	4542.98
436.34	4505.53
436.53	4594.47
436.72	4645.96
436.90	4390.84
437.09	4561.70
437.28	4425.95
437.46	4437.66
437.65	4545.32
437.84	4608.51
438.02	4575.75
438.21	4716.18
438.40	4538.30
438.58	4772.35
438.77	4716.18
438.96	4706.82
439.14	4957.25
439.33	4727.88
439.52	4940.87
439.70	5008.75
439.89	4975.98
440.08	5018.11
440.26	4940.87
440.45	5174.92
440.63	5303.65
440.82	5247.48
441.01	5130.45
441.19	5184.29
441.38	5277.91
441.57	5369.19
441.75	5226.42
441.94	5411.32
442.12	5462.81
442.31	5577.50
442.50	5533.03
442.68	5568.13
442.87	5563.45
443.05	5418.34
443.24	5699.20
443.43	5600.90
443.61	5626.65
443.80	5757.72
443.98	5481.53
444.17	5313.02
444.35	5664.10
444.54	5720.27
444.73	5818.57
444.91	5860.70
445.10	5509.62
445.28	5605.58
445.47	5554.09
445.65	5708.57
445.84	5631.33
446.02	5729.63
446.21	5738.99
446.39	5703.89
446.58	5713.25
446.77	5748.36
446.95	5654.73
447.14	5839.64
447.32	5827.93
447.51	5799.85
447.69	5797.51
447.88	5916.87
448.06	5797.51
448.25	5750.70
448.43	5804.53
448.62	5926.24
448.80	5753.04
448.99	6010.50
449.17	5858.36
449.36	6071.35
449.54	6087.73
449.73	6134.54
449.91	6085.39
450.10	6300.72
450.28	6361.58
450.46	6181.35
450.65	6265.61
450.83	6176.67
451.02	6136.88
451.20	6300.72
451.39	6434.13
451.57	6242.21
451.76	6108.80
451.94	6293.70
452.13	6345.19
452.31	6282.00
452.49	6307.74
452.68	6272.64
452.86	6469.24
453.05	6375.62
453.23	6502.01
453.42	6574.56
453.60	6352.21
453.78	6583.93
453.97	6443.49
454.15	6392.00
454.34	6595.63
454.52	6628.40
454.70	6534.78
454.89	6410.73
455.07	6583.93
455.26	6757.13
455.44	6712.66
455.62	6743.08
455.81	6703.29
455.99	6895.22
456.17	6876.49
456.36	6881.18
456.54	6848.41
456.73	6995.86
456.91	7077.78
457.09	7061.40
457.28	7229.91
457.46	7075.44
457.64	7169.06
457.83	7199.49
458.01	7033.31
458.19	7250.98
458.38	6974.80
458.56	7094.16
458.74	7084.80
458.93	7157.36
459.11	7232.26
459.29	7321.20
459.48	7398.43
459.66	7253.32
459.84	7199.49
460.03	7360.98
460.21	7466.31
460.39	7552.91
460.57	7463.97
460.76	7630.15
460.94	7595.04
461.12	7487.37
461.31	7438.22
461.49	7494.40
461.67	7655.89
461.85	7606.74
462.04	7651.21
462.22	8222.30
462.40	7789.30
462.59	7850.16
462.77	7742.49
462.95	7784.62
463.13	7808.03
463.32	7648.87
463.50	7941.44
463.68	7913.35
463.86	7992.93
464.05	7885.26
464.23	7751.85
464.41	7932.08
464.59	7908.67
464.78	8081.87
464.96	7866.54
465.14	7854.84
465.32	7981.23
465.50	8121.66
465.69	8241.03
465.87	8198.90
466.05	8135.70
466.23	8011.65
466.41	8159.11
466.60	8299.54
466.78	8189.53
466.96	8112.30
467.14	8294.86
467.32	8329.97
467.51	8313.58
467.69	8149.75
467.87	8304.22
468.05	8489.12
468.23	8180.17
468.41	8318.26
468.60	8582.74
468.78	8435.29
468.96	8336.99
469.14	8444.65
469.32	8683.39
469.50	8519.55
469.69	8793.39
469.87	8720.84
470.05	8674.03
470.23	8711.47
470.41	8711.47
470.59	8580.40
470.77	8851.91
470.95	8889.35
471.14	9200.65
471.32	8791.05
471.50	8929.14
471.68	9004.04
471.86	9214.69
472.04	9270.86
472.22	9483.85
472.40	9055.53
472.58	9132.77
472.77	9373.85
472.95	9415.98
473.13	9652.37
473.31	9411.29
473.49	9425.34
473.67	9432.36
473.85	9582.15
474.03	9792.80
474.21	9851.31
474.39	9659.39
474.57	9682.80
474.75	9687.48
474.93	9879.40
475.12	9944.94
475.30	10031.54
475.48	9991.75
475.66	10052.60
475.84	9933.23
476.02	10106.43
476.20	10195.37
476.38	10380.28
476.56	10581.56
476.74	10216.44
476.92	10600.29
477.10	10485.60
477.28	10487.94
477.46	10897.53
477.64	10703.27
477.82	10904.56
478.00	11012.22
478.18	10958.39
478.36	11030.94
478.54	11194.78
478.72	11164.36
478.90	11311.81
479.08	11651.19
479.26	11552.88
479.44	11602.04
479.62	11655.87
479.80	11775.24
479.98	11971.84
480.16	11983.54
480.34	11903.96
480.52	12273.77
480.70	11852.47
480.88	12177.81
481.06	12514.84
481.24	12484.42
481.41	12381.43
481.59	12896.35
481.77	12781.67
481.95	12842.52
482.13	12931.46
482.31	13008.70
482.49	13312.97
482.67	13191.26
482.85	13139.77
483.03	13472.12
483.21	13837.25
483.39	13582.13
483.57	13788.10
483.74	13841.93
483.92	13745.97
484.10	13722.56
484.28	14216.41
484.46	14436.42
484.64	14499.62
484.82	14382.59
485.00	14443.45
485.18	14679.84
485.35	14904.53
485.53	14537.07
485.71	14623.67
485.89	14920.92
486.07	15143.27
486.25	15218.16
486.43	15159.65
486.61	15396.04
486.78	15520.09
486.96	15826.70
487.14	16004.58
487.32	15772.87
487.50	16168.42
487.68	16077.14
487.85	16285.45
488.03	16561.63
488.21	16615.46
488.39	16545.25
488.57	17011.01
488.75	16922.07
488.92	16912.71
489.10	17547.00
489.28	17231.02
489.46	17326.99
489.64	17390.18
489.81	17706.15
489.99	17998.72
490.17	18073.62
490.35	18368.52
490.53	18494.91
490.70	18080.64
490.88	18387.25
491.06	18878.76
491.24	18420.02
491.41	18525.34
491.59	18719.60
491.77	18953.66
491.95	19271.97
492.13	19314.10
492.30	19503.68
492.48	19363.25
492.66	19447.51
492.84	19267.29
493.01	19627.73
493.19	19873.49
493.37	20322.87
493.54	20400.11
493.72	20327.55
493.90	20610.76
494.08	20446.92
494.25	20709.06
494.43	20629.48
494.61	21125.68
494.79	21085.89
494.96	20919.71
495.14	21106.95
495.32	21387.82
495.49	21546.97
495.67	21483.78
495.85	21626.55
496.02	21673.36
496.20	21818.47
496.38	21792.73
496.55	21886.35
496.73	22422.33
496.91	22214.02
497.09	22494.89
497.26	22232.75
497.44	22417.65
497.62	22761.71
497.79	22848.31
497.97	22733.62
498.14	23049.60
498.32	23199.39
498.50	23117.47
498.67	23356.21
498.85	23225.14
499.03	23580.90
499.20	23227.48
499.38	23403.02
499.56	23688.56
499.73	23969.43
499.91	24049.00
500.08	24261.99
500.26	23950.70
500.44	24404.77
500.61	24329.87
500.79	24383.70
500.97	24280.72
501.14	24505.41
501.32	24753.51
501.49	25053.09
501.67	24943.09
501.84	24849.47
502.02	24924.36
502.20	25380.77
502.37	24936.07
502.55	25085.86
502.72	24919.68
502.90	25284.81
503.07	25294.17
503.25	25577.37
503.43	25158.42
503.60	25820.79
503.78	25790.36
503.95	25977.61
504.13	25785.68
504.30	26256.13
504.48	26038.46
504.65	26279.54
504.83	26230.38
505.01	26611.89
505.18	26169.53
505.36	26387.20
505.53	26403.58
505.71	26843.60
505.88	26815.52
506.06	26714.87
506.23	26803.82
506.41	27007.44
506.58	27077.66
506.76	26965.31
506.93	27049.57
507.11	27442.78
507.28	27386.61
507.46	27302.35
507.63	27543.42
507.81	27529.38
507.98	27288.31
508.16	27784.50
508.33	27580.87
508.50	28219.84
508.68	28343.89
508.85	28416.44
509.03	28163.67
509.20	28524.11
509.38	28582.62
509.55	28706.67
509.73	28446.87
509.90	28566.24
510.08	28610.71
510.25	28828.38
510.42	28776.89
510.60	28905.62
510.77	28753.48
510.95	29083.50
511.12	28795.61
511.30	29163.08
511.47	29663.95
511.64	29378.40
511.82	30026.73
511.99	29425.22
512.17	29713.10
512.34	29858.21
512.51	30008.01
512.69	29776.30
512.86	30038.44
513.04	30134.40
513.21	30246.74
513.38	29893.32
513.56	30064.18
513.73	29905.02
513.90	30235.04
514.08	30405.90
514.25	30593.14
514.43	30735.92
514.60	30466.75
514.77	30291.21
514.95	30361.43
515.12	30455.05
515.29	31138.49
515.47	31002.74
515.64	31154.87
515.81	31014.44
515.99	31157.21
516.16	30953.58
516.33	31250.83
516.51	31503.61
516.68	30913.80
516.85	31220.41
517.03	31339.77
517.20	31672.13
517.37	31402.97
517.54	31707.24
517.72	31910.86
517.89	31910.86
518.06	31821.92
518.24	31269.56
518.41	31735.32
518.58	31796.18
518.75	31962.36
518.93	31730.64
519.10	32226.84
519.27	32189.39
519.45	32414.08
519.62	32535.79
519.79	32385.99
519.96	32732.39
520.14	33116.24
520.31	32617.71
520.48	32708.99
520.65	32678.56
520.83	33008.58
521.00	32877.51
521.17	33151.35
521.34	33160.71
521.52	33017.94
521.69	33647.54
521.86	33701.37
522.03	33663.93
522.20	33963.51
522.38	33464.98
522.55	33741.16
522.72	33642.86
522.89	33589.03
523.07	33720.10
523.24	33652.22
523.41	33799.68
523.58	33853.51
523.75	34394.17
523.92	34213.95
524.10	34237.36
524.27	34572.05
524.44	35005.05
524.61	34534.60
524.78	34686.74
524.96	34593.12
525.13	35201.66
525.30	34920.79
525.47	35227.40
525.64	34773.34
525.81	34714.83
525.98	34733.55
526.16	34721.85
526.33	34642.27
526.50	35037.82
526.67	34679.72
526.84	34686.74
527.01	34455.03
527.18	34871.64
527.36	35321.02
527.53	35435.71
527.70	35646.36
527.87	35637.00
528.04	35283.58
528.21	35445.07
528.38	35693.17
528.55	35737.64
528.72	36002.12
528.89	36006.80
529.07	35779.77
529.24	35629.98
529.41	35782.11
529.58	35641.68
529.75	36121.49
529.92	36070.00
530.09	36009.14
530.26	36065.31
530.43	36470.23
530.60	35995.10
530.77	36165.96
530.94	36437.46
531.11	36701.94
531.28	36559.17
531.46	36535.76
531.63	36713.64
531.80	36802.58
531.97	36608.32
532.14	36847.05
532.31	36694.92
532.48	36641.09
532.65	37312.82
532.82	37184.09
532.99	37319.84
533.16	37078.77
533.33	36961.74
533.50	37235.58
533.67	37319.84
533.84	37193.45
534.01	37326.86
534.18	37081.11
534.35	37560.92
534.52	37567.94
534.69	37755.18
534.86	37876.89
535.03	37694.33
535.20	37661.56
535.37	37869.87
535.54	37989.24
535.71	37593.68
535.88	37460.27
536.05	38050.09
536.22	37897.95
536.38	38064.13
536.55	38230.31
536.72	37834.76
536.89	38141.37
537.06	38066.47
537.23	38227.97
537.40	38171.80
537.57	38382.45
537.74	38316.91
537.91	38686.71
538.08	38370.74
538.25	37919.02
538.42	38469.04
538.59	38724.16
538.75	38150.73
538.92	38623.52
539.09	38717.14
539.26	38604.80
539.43	38583.73
539.60	38827.15
539.77	38782.68
539.94	39157.16
540.11	38763.95
540.28	38759.27
540.44	39012.05
540.61	38897.36
540.78	39131.42
540.95	38986.30
541.12	38995.67
541.29	38955.88
541.46	38707.78
541.62	39005.03
541.79	39236.74
541.96	38838.85
542.13	39260.15
542.30	38759.27
542.47	39330.36
542.63	39423.98
542.80	39550.37
542.97	39707.19
543.14	40215.08
543.31	40013.80
543.48	39840.60
543.64	40360.20
543.81	40357.86
543.98	39875.71
544.15	39718.89
544.32	40240.83
544.48	40336.79
544.65	39894.43
544.82	40224.45
544.99	40130.83
545.16	40271.26
545.32	40311.05
545.49	40353.18
545.66	40350.84
545.83	40428.07
546.00	40645.74
546.16	40650.42
546.33	40030.18
546.50	40250.19
546.67	40439.78
546.83	40144.87
547.00	40671.49
547.17	40692.55
547.34	40596.59
547.50	40678.51
547.67	41132.57
547.84	40940.65
548.00	41368.97
548.17	41684.94
548.34	40657.45
548.51	41118.53
548.67	41233.22
548.84	40942.99
549.01	41205.13
549.18	41186.41
549.34	41226.20
549.51	41179.39
549.68	41284.71
549.84	41198.11
550.01	41780.90
550.18	41502.38
550.34	41509.40
550.51	41352.58
550.68	41127.89
550.84	41275.35
551.01	41483.66
551.18	41055.34
551.34	41584.30
551.51	41762.18
551.68	41687.28
551.84	41780.90
552.01	41563.23
552.18	41668.56
552.34	41755.16
552.51	42082.83
552.68	41808.99
552.84	41722.39
553.01	42246.67
553.18	42040.70
553.34	41935.38
553.51	41542.17
553.67	42195.18
553.84	42139.00
554.01	42244.33
554.17	42277.10
554.34	42550.94
554.51	42078.15
554.67	42117.94
554.84	42295.82
555.00	42274.76
555.17	41893.25
555.33	42529.87
555.50	42438.59
555.67	42227.95
555.83	42443.27
556.00	42665.63
556.16	42609.45
556.33	42724.14
556.50	42323.91
556.66	42340.29
556.83	41684.94
556.99	42497.11
557.16	42511.15
557.32	42962.87
557.49	42487.74
557.65	42759.25
557.82	42370.72
557.98	42651.58
558.15	42766.27
558.32	42567.32
558.48	42862.23
558.65	43297.57
558.81	42422.21
558.98	42958.19
559.14	42962.87
559.31	42824.78
559.47	42878.61
559.64	43360.76
559.80	42986.28
559.97	43152.46
560.13	42712.44
560.30	42909.04
560.46	42747.54
560.63	42976.92
560.79	43122.03
560.96	42981.60
561.12	43115.01
561.29	42895.00
561.45	42948.83
561.61	42883.30
561.78	43239.06
561.94	42969.90
562.11	42838.83
562.27	42955.85
562.44	43084.58
562.60	43529.28
562.77	43496.52
562.93	43166.50
563.10	43412.26
563.26	42733.50
563.42	43723.55
563.59	43625.25
563.75	43349.06
563.92	43784.40
564.08	43674.40
564.24	43786.74
564.41	43328.00
564.57	43339.70
564.74	43688.44
564.90	43452.05
565.07	43700.14
565.23	43690.78
565.39	43763.34
565.56	43323.32
565.72	43234.38
565.88	43515.24
566.05	43473.11
566.21	43412.26
566.38	43538.65
566.54	43592.48
566.70	43517.58
566.87	43931.86
567.03	43421.62
567.19	44339.11
567.36	43522.26
567.52	43627.59
567.68	44074.63
567.85	43885.04
568.01	43964.62
568.17	43620.56
568.34	43629.93
568.50	44091.01
568.66	43374.81
568.83	43662.69
568.99	43683.76
569.15	43732.91
569.32	43934.20
569.48	43398.21
569.64	43768.02
569.81	43653.33
569.97	43763.34
570.13	43533.96
570.30	43515.24
570.46	43215.65
570.62	43157.14
570.78	43686.10
570.95	44168.25
571.11	43674.40
571.27	43782.06
571.43	43732.91
571.60	43976.33
571.76	43793.76
571.92	43988.03
572.09	43704.82
572.25	43723.55
572.41	43686.10
572.57	43597.16
572.74	44542.74
572.90	44194.00
573.06	44147.18
573.22	44147.18
573.38	43716.53
573.55	44107.40
573.71	44189.31
573.87	44004.41
574.03	43765.68
574.20	43936.54
574.36	44123.78
574.52	44098.03
574.68	44194.00
574.84	44025.48
575.01	44151.87
575.17	44142.50
575.33	43903.77
575.49	43938.88
575.65	44294.64
575.82	44201.02
575.98	44327.41
576.14	44776.79
576.30	44142.50
576.46	44203.36
576.62	43859.30
576.79	43606.52
576.95	44011.43
577.11	44172.93
577.27	44224.42
577.43	43903.77
577.59	44081.65
577.75	43686.10
577.92	43988.03
578.08	43805.47
578.24	43676.74
578.40	44065.27
578.56	44273.57
578.72	43856.96
578.88	44172.93
579.04	43784.40
579.21	43938.88
579.37	43798.44
579.53	43796.10
579.69	43941.22
579.85	44418.69
580.01	44086.33
580.17	44196.34
580.33	44507.63
580.49	43943.56
580.65	44336.77
580.82	44179.95
580.98	44327.41
581.14	43887.39
581.30	44493.58
581.46	44334.43
581.62	43952.92
581.78	43672.06
581.94	44060.58
582.10	44252.51
582.26	44488.90
582.42	44268.89
582.58	44058.24
582.74	44130.80
582.90	44383.58
583.06	44811.90
583.22	44619.97
583.38	44383.58
583.54	44170.59
583.70	43945.90
583.86	44105.06
584.02	43915.47
584.18	44191.65
584.34	44406.98
584.50	44257.19
584.66	44149.53
584.82	43770.36
584.98	44348.47
585.14	44449.11
585.30	44301.66
585.46	44175.27
585.62	44011.43
585.78	44456.14
585.94	43952.92
586.10	44006.75
586.26	43995.05
586.42	44332.09
586.58	44339.11
586.74	44470.18
586.90	44250.17
587.06	44322.72
587.22	44390.60
587.38	43810.15
587.54	44163.57
587.70	44390.60
587.86	44095.69
588.02	44116.76
588.18	44851.69
588.34	44671.46
588.49	44451.45
588.65	44231.44
588.81	43971.64
588.97	44044.20
589.13	44231.44
589.29	44507.63
589.45	44027.82
589.61	44612.95
589.77	44713.59
589.93	44107.40
590.08	44549.76
590.24	44493.58
590.40	44928.92
590.56	45003.82
590.72	44395.28
590.88	44009.09
591.04	44390.60
591.20	44741.68
591.35	44568.48
591.51	44821.26
591.67	44491.24
591.83	44507.63
591.99	44580.18
592.15	44418.69
592.31	44486.56
592.46	44463.16
592.62	44556.78
592.78	44418.69
592.94	44790.83
593.10	44676.15
593.26	44652.74
593.41	44533.37
593.57	44863.39
593.73	44282.94
593.89	44594.23
594.05	44535.71
594.20	44701.89
594.36	45045.95
594.52	44341.45
594.68	45155.96
594.84	44882.11
594.99	45181.70
595.15	44570.82
595.31	45055.31
595.47	44914.88
595.62	44722.96
595.78	44629.34
595.94	44809.56
596.10	44524.01
596.25	45085.74
596.41	44687.85
596.57	44619.97
596.73	44839.98
596.88	44308.68
597.04	44648.06
597.20	44722.96
597.36	45013.18
597.51	45013.18
597.67	44577.84
597.83	44678.49
597.99	44982.76
598.14	44547.42
598.30	44823.60
598.46	44758.06
598.61	44631.68
598.77	44470.18
598.93	44533.37
599.09	44446.77
599.24	44847.00
599.40	45188.72
599.56	44809.56
599.71	45272.98
599.87	45067.02
600.03	45081.06
600.18	45052.97
600.34	44577.84
600.50	44966.37
600.65	44715.93
600.81	44954.67
600.97	44933.60
601.12	45268.30
601.28	44818.92
601.44	44917.22
601.59	44851.69
601.75	44521.67
601.91	44636.36
602.06	44505.29
602.22	44786.15
602.37	44692.53
602.53	44940.63
602.69	45130.21
602.84	45172.34
603.00	45013.18
603.16	44680.83
603.31	44727.64
603.47	44744.02
603.62	44687.85
603.78	44851.69
603.94	45069.36
604.09	44762.75
604.25	45099.78
604.40	44418.69
604.56	44907.86
604.71	44685.51
604.87	44406.98
605.03	44605.93
605.18	44477.20
605.34	44418.69
605.49	44528.69
605.65	44575.50
605.80	44374.22
605.96	44938.29
606.12	44481.88
606.27	45017.86
606.43	44758.06
606.58	44971.05
606.74	44626.99
606.89	44910.20
607.05	44425.71
607.20	44678.49
607.36	44713.59
607.51	45057.65
607.67	44362.51
607.82	44304.00
607.98	44474.86
608.13	44575.50
608.29	44596.57
608.44	44189.31
608.60	44069.95
608.75	44053.56
608.91	44055.90
609.06	44240.81
609.22	44189.31
609.37	44158.89
609.53	44423.37
609.68	44437.41
609.84	44418.69
609.99	44540.39
610.15	44296.98
610.30	44205.70
610.46	43981.01
610.61	43936.54
610.76	43943.56
610.92	44360.17
611.07	43978.67
611.23	44360.17
611.38	44121.44
611.54	43779.72
611.69	44037.18
611.84	44123.78
612.00	44308.68
612.15	44062.93
612.31	44212.72
612.46	44231.44
612.62	44250.17
612.77	43931.86
612.92	44275.91
613.08	43882.70
613.23	43665.03
613.39	44011.43
613.54	43849.94
613.69	43849.94
613.85	43990.37
614.00	44238.47
614.15	44121.44
614.31	44186.97
614.46	44210.38
614.62	43681.42
614.77	44062.93
614.92	43845.26
615.08	44048.88
615.23	43922.49
615.38	43777.38
615.54	43505.88
615.69	43194.59
615.84	43393.53
616.00	43489.49
616.15	43931.86
616.30	43929.51
616.46	43246.08
616.61	43091.60
616.76	43292.89
616.92	43058.84
617.07	43454.39
617.22	43079.90
617.37	43393.53
617.53	43388.85
617.68	43543.33
617.83	43812.49
617.99	43744.61
618.14	43346.72
618.29	43012.02
618.45	43005.00
618.60	43147.78
618.75	43440.34
618.90	43414.60
619.06	43414.60
619.21	43356.08
619.36	43658.01
619.51	43391.19
619.67	42859.89
619.82	43100.97
619.97	43292.89
620.12	42799.04
620.28	42667.97
620.43	42801.38
620.58	43007.34
620.73	42993.30
620.89	42862.23
621.04	43222.67
621.19	43129.05
621.34	42806.06
621.49	42710.10
621.65	42682.01
621.80	43033.09
621.95	42740.52
622.10	42724.14
622.25	42831.80
622.41	43014.37
622.56	42777.97
622.71	42686.69
622.86	42686.69
623.01	42827.12
623.16	42887.98
623.32	42761.59
623.47	42763.93
623.62	42988.62
623.77	42347.31
623.92	42258.37
624.07	42181.13
624.23	42260.71
624.38	42033.68
624.53	42202.20
624.68	42267.73
624.83	42146.03
624.98	42108.58
625.13	42417.53
625.29	42071.13
625.44	42351.99
625.59	42328.59
625.74	42021.98
625.89	41425.14
626.04	41862.82
626.19	41827.71
626.34	42050.06
626.49	42082.83
626.65	41532.81
626.80	41696.64
626.95	41853.46
627.10	42010.28
627.25	41488.34
627.40	41776.22
627.55	41249.60
627.70	41469.61
627.85	41343.22
628.00	41083.42
628.15	42164.75
628.30	41631.11
628.45	41502.38
628.60	41647.49
628.76	41727.07
628.91	41881.55
629.06	41387.69
629.21	41493.02
629.36	41387.69
629.51	41151.30
629.66	40924.27
629.81	40872.78
629.96	41556.21
630.11	41413.44
630.26	41095.13
630.41	41715.37
630.56	41296.41
630.71	41099.81
630.86	41303.43
631.01	41109.17
631.16	41504.72
631.31	41394.71
631.46	40591.91
631.61	40919.59
631.76	40910.22
631.91	41474.29
632.06	41570.25
632.21	40898.52
632.36	41371.31
632.51	40690.21
632.66	41588.98
632.81	40390.62
632.96	40886.82
633.10	40322.75
633.25	40680.85
633.40	40376.58
633.55	41069.38
633.70	40807.24
633.85	40814.26
634.00	40673.83
634.15	40840.01
634.30	40524.04
634.45	40697.24
634.60	40390.62
634.75	40821.28
634.90	40783.83
635.05	40346.15
635.19	40505.31
635.34	40807.24
635.49	40645.74
635.64	40620.00
635.79	40058.27
635.94	40187.00
636.09	40306.37
636.24	40044.23
636.39	40156.57
636.53	40205.72
636.68	40107.42
636.83	39700.17
636.98	40397.65
637.13	39859.32
637.28	40105.08
637.43	40423.39
637.57	39880.39
637.72	39966.99
637.87	40505.31
638.02	39777.40
638.17	40006.78
638.32	40065.29
638.46	39601.86
638.61	39367.81
638.76	39784.43
638.91	40252.53
639.06	39660.38
639.20	39566.76
639.35	39655.70
639.50	39812.51
639.65	40177.64
639.80	39583.14
639.94	39538.67
640.09	39817.19
640.24	39653.36
640.39	39580.80
640.54	39838.26
640.68	39304.62
640.83	39356.11
640.98	39412.28
641.13	39423.98
641.27	39749.32
641.42	39658.04
641.57	39730.59
641.72	39721.23
641.86	39044.82
642.01	39019.07
642.16	39201.63
642.31	38377.76
642.45	39225.04
642.60	38852.89
642.75	39173.55
642.90	39196.95
643.04	38962.90
643.19	38686.71
643.34	39154.82
643.48	39215.68
643.63	38862.26
643.78	38892.68
643.93	38923.11
644.07	38660.97
644.22	39122.05
644.37	38733.53
644.51	38873.96
644.66	38408.19
644.81	38817.78
644.95	38778.00
645.10	38955.88
645.25	38586.07
645.39	38707.78
645.54	39253.12
645.69	38986.30
645.83	38298.19
645.98	38225.63
646.13	38588.41
646.27	38567.35
646.42	38719.48
646.57	38529.90
646.71	38986.30
646.86	38864.60
647.00	38754.59
647.15	38670.33
647.30	38754.59
647.44	38909.07
647.59	38483.09
647.74	38237.33
647.88	38071.15
648.03	38323.93
648.17	38300.53
648.32	37834.76
648.47	38548.62
648.61	37841.78
648.76	38499.47
648.90	38040.73
649.05	38153.07
649.20	38370.74
649.34	38270.10
649.49	37600.71
649.63	38225.63
649.78	37661.56
649.92	37958.81
650.07	38323.93
650.21	37979.87
650.36	37921.36
650.51	37904.98
650.65	38679.69
650.80	38220.95
650.94	38293.50
651.09	37872.21
651.23	38061.79
651.38	37867.53
651.52	37916.68
651.67	37469.64
651.81	37706.03
651.96	37684.97
652.10	37804.33
652.25	37385.38
652.39	37228.56
652.54	37434.53
652.68	37787.95
652.83	37874.55
652.97	37415.80
653.12	37790.29
653.26	37558.58
653.41	38003.28
653.55	37312.82
653.70	37673.26
653.84	37333.89
653.99	37577.30
654.13	37785.61
654.27	37586.66
654.42	37490.70
654.56	37216.86
654.71	37184.09
654.85	37429.85
655.00	37621.77
655.14	37209.84
655.29	36652.79
655.43	36591.94
655.57	37074.09
655.72	37165.37
655.86	36580.23
656.01	36851.73
656.15	36725.35
656.30	36842.37
656.44	36783.86
656.58	36767.48
656.73	36287.67
656.87	36533.42
657.01	36250.22
657.16	36648.11
657.30	36650.45
657.45	36545.12
657.59	36767.48
657.73	36648.11
657.88	36751.09
658.02	36594.28
658.16	36243.20
658.31	36924.29
658.45	36657.47
658.60	36306.39
658.74	36439.80
658.88	36547.47
659.03	36332.14
659.17	36098.08
659.31	36184.68
659.46	36102.76
659.60	35716.58
659.74	36039.57
659.89	36044.25
660.03	36041.91
660.17	36055.95
660.32	36098.08
660.46	36126.17
660.60	36304.05
660.74	36280.64
660.89	35646.36
661.03	36004.46
661.17	35215.70
661.32	35218.04
661.46	35330.39
661.60	35098.67
661.74	35730.62
661.89	35194.64
662.03	35491.88
662.17	35136.12
662.31	34995.69
662.46	35459.12
662.60	35089.31
662.74	35295.28
662.88	35016.75
663.03	35246.13
663.17	35323.36
663.31	34728.87
663.45	34785.04
663.60	34672.70
663.74	34284.17
663.88	34780.36
664.02	34497.16
664.17	34920.79
664.31	34560.35
664.45	34436.30
664.59	34684.40
664.73	34424.60
664.88	34466.73
665.02	34141.39
665.16	34558.01
665.30	34354.38
665.44	34354.38
665.59	33694.35
665.73	34132.03
665.87	34094.58
666.01	34300.55
666.15	33640.52
666.29	33926.07
666.44	34246.72
666.58	33771.59
666.72	33804.36
666.86	34302.89
667.00	34199.91
667.14	33401.79
667.28	33528.17
667.43	33429.87
667.57	33479.02
667.71	33312.84
667.85	33439.23
667.99	33411.15
668.13	33488.38
668.27	33343.27
668.41	33537.54
668.56	33156.03
668.70	33317.53
668.84	33048.36
668.98	32863.46
669.12	32910.27
669.26	33139.65
669.40	33092.83
669.54	33008.58
669.68	32886.87
669.82	32858.78
669.96	32964.10
670.10	32858.78
670.25	32435.14
670.39	32692.60
670.53	32318.12
670.67	32491.32
670.81	32542.81
670.95	32264.28
671.09	32318.12
671.23	32154.28
671.37	32002.14
671.51	32535.79
671.65	31681.49
671.79	32201.09
671.93	31681.49
672.07	32041.93
672.21	31974.06
672.35	31875.76
672.49	31791.50
672.63	31672.13
672.77	31772.77
672.91	31192.32
673.05	31391.26
673.19	31395.95
673.33	31332.75
673.47	31201.68
673.61	31260.20
673.75	30810.81
673.89	30522.93
674.03	30937.20
674.17	30927.84
674.31	31065.93
674.45	30471.43
674.59	30869.33
674.73	30731.23
674.87	30602.50
675.01	30600.16
675.15	30628.25
675.29	30649.32
675.43	30300.58
675.56	30169.51
675.70	30473.78
675.84	30118.01
675.98	29537.56
676.12	29923.75
676.26	29759.91
676.40	29792.68
676.54	29706.08
676.68	29757.57
676.82	28978.17
676.96	29378.40
677.10	29233.29
677.23	29443.94
677.37	29516.50
677.51	28989.88
677.65	28952.43
677.79	28648.16
677.93	28936.04
678.07	28687.95
678.21	28669.22
678.34	28514.75
678.48	28184.73
678.62	28393.04
678.76	27852.38
678.90	28072.39
679.04	27990.47
679.18	28065.36
679.31	27936.63
679.45	27798.54
679.59	27630.02
679.73	27915.57
679.87	27810.25
680.00	27358.52
680.14	27445.12
680.28	27194.68
680.42	27222.77
680.56	27098.72
680.70	27456.82
680.83	27035.53
680.97	27061.27
681.11	26911.48
681.25	26728.92
681.39	26347.41
681.52	27096.38
681.66	26749.98
681.80	26623.59
681.94	26272.51
682.07	26284.22
682.21	26202.30
682.35	26089.95
682.49	26448.05
682.62	26174.21
682.76	25811.43
682.90	26043.14
683.04	25919.09
683.17	25703.76
683.31	25633.55
683.45	25731.85
683.59	25429.92
683.72	25294.17
683.86	25081.18
684.00	24627.12
684.13	25036.71
684.27	24959.47
684.41	24915.00
684.55	24786.27
684.68	24694.99
684.82	24727.76
684.96	24374.34
685.09	24364.98
685.23	24446.90
685.37	24332.21
685.50	24395.40
685.64	24629.46
685.78	24018.58
685.91	24102.84
686.05	24151.99
686.19	23426.42
686.32	23974.11
686.46	23583.24
686.60	23360.89
686.73	23419.40
686.87	23452.17
687.01	23358.55
687.14	23084.70
687.28	23124.49
687.42	23030.87
687.55	22773.41
687.69	22799.16
687.82	22785.12
687.96	22904.48
688.10	22728.94
688.23	22452.76
688.37	22487.87
688.50	22064.23
688.64	22242.11
688.78	22237.43
688.91	21984.65
689.05	21867.63
689.18	21905.07
689.32	21652.30
689.46	21940.18
689.59	22111.04
689.73	21811.45
689.86	21783.37
690.00	21315.26
690.13	21905.07
690.27	21516.54
690.41	21331.64
690.54	21146.74
690.68	21163.12
690.81	21067.16
690.95	20655.23
691.08	20889.28
691.22	20678.63
691.35	20786.30
691.49	20755.87
691.62	20697.36
691.76	20470.33
691.89	21013.33
692.03	20374.36
692.16	20135.63
692.30	20119.24
692.43	20070.09
692.57	20030.30
692.70	20039.67
692.84	19920.30
692.97	19733.06
693.11	19646.46
693.24	19358.57
693.38	19276.65
693.51	19328.14
693.65	19419.42
693.78	19447.51
693.92	19063.66
694.05	19384.32
694.19	19124.52
694.32	19190.05
694.45	19084.73
694.59	18827.27
694.72	18808.54
694.86	18778.12
694.99	18600.24
695.13	18190.64
695.26	18043.19
695.39	18253.84
695.53	18082.98
695.66	18389.59
695.80	18190.64
695.93	18274.90
696.07	18225.75
696.20	18122.77
696.33	17649.98
696.47	17884.03
696.60	17713.17
696.73	17839.56
696.87	17680.41
697.00	17537.63
697.14	17645.30
697.27	17291.88
697.40	17352.73
697.54	17146.76
697.67	17268.47
697.80	16879.94
697.94	16805.05
698.07	17081.23
698.21	17076.55
698.34	16720.79
698.47	16884.62
698.61	16444.60
698.74	16379.07
698.87	16505.46
699.01	16386.09
699.14	16133.31
699.27	16133.31
699.40	16236.30
699.54	16243.32
699.67	16039.69
699.80	15889.90
699.94	15761.17
700.07	15927.35
700.20	15822.02
700.34	15826.70
700.47	15906.28
700.60	15644.14
700.73	16042.03
700.87	15634.78
701.00	15393.70
701.13	15438.17
701.26	15227.53
701.40	15543.50
701.53	15417.11
701.66	15213.48
701.79	14941.98
701.93	15154.97
702.06	14815.59
702.19	14806.23
702.32	14752.40
702.46	14686.86
702.59	14567.49
702.72	14497.28
702.85	14473.87
702.99	14626.01
703.12	14782.82
703.25	14532.39
703.38	14321.74
703.51	14443.45
703.65	14122.79
703.78	14071.30
703.91	14153.22
704.04	14099.39
704.17	14083.00
704.31	13802.14
704.44	13448.72
704.57	13521.27
704.70	13497.87
704.83	13451.06
704.96	13710.86
705.10	13675.75
705.23	13694.47
>>>>>End Processed Spectral Data<<<<<
