SpectraSuite Data File
++++++++++++++++++++++++++++++++++++
Date: Fri Oct 25 11:33:28 EDT 2013
User: price-jones
Dark Spectrum Present: No
Reference Spectrum Present: No
Number of Sampled Component Spectra: 1
Spectrometers: USB2+H05261
Integration Time (usec): 100000 (USB2+H05261)
Spectra Averaged: 1 (USB2+H05261)
Boxcar Smoothing: 0 (USB2+H05261)
Correct for Electrical Dark: No (USB2+H05261)
Strobe/Lamp Enabled: No (USB2+H05261)
Correct for Detector Non-linearity: No (USB2+H05261)
Correct for Stray Light: No (USB2+H05261)
Number of Pixels in Processed Spectrum: 2048
>>>>>Begin Processed Spectral Data<<<<<
365.73	311.29
365.92	311.29
366.12	311.29
366.32	227.03
366.52	203.63
366.72	217.67
366.91	117.03
367.11	135.75
367.31	198.95
367.51	126.39
367.70	105.32
367.90	100.64
368.10	182.56
368.30	191.92
368.49	173.20
368.69	184.90
368.89	173.20
369.09	140.43
369.28	234.05
369.48	147.45
369.68	159.16
369.87	224.69
370.07	203.63
370.27	278.52
370.47	318.31
370.66	545.34
370.86	477.47
371.06	517.26
371.25	521.94
371.45	550.03
371.65	617.90
371.84	531.30
372.04	580.45
372.24	568.75
372.44	653.01
372.63	692.80
372.83	564.07
373.03	596.84
373.22	641.31
373.42	554.71
373.62	648.33
373.81	645.99
374.01	606.20
374.21	634.29
374.40	624.92
374.60	692.80
374.79	627.26
374.99	624.92
375.19	690.46
375.38	662.37
375.58	606.20
375.78	725.57
375.97	624.92
376.17	669.39
376.37	685.78
376.56	753.65
376.76	681.10
376.95	725.57
377.15	725.57
377.35	669.39
377.54	702.16
377.74	608.54
377.93	713.86
378.13	667.05
378.33	758.33
378.52	713.86
378.72	699.82
378.91	660.03
379.11	692.80
379.31	795.78
379.50	688.12
379.70	718.54
379.89	692.80
380.09	725.57
380.28	795.78
380.48	734.93
380.68	744.29
380.87	741.95
381.07	704.50
381.26	805.14
381.46	800.46
381.65	716.20
381.85	826.21
382.04	917.49
382.24	777.06
382.43	809.83
382.63	734.93
382.83	784.08
383.02	842.59
383.22	774.72
383.41	706.84
383.61	791.10
383.80	779.40
384.00	753.65
384.19	751.31
384.39	786.42
384.58	849.61
384.78	800.46
384.97	821.53
385.17	819.19
385.36	809.83
385.56	809.83
385.75	880.04
385.95	887.06
386.14	772.38
386.34	812.17
386.53	765.36
386.72	861.32
386.92	814.51
387.11	847.27
387.31	919.83
387.50	901.11
387.70	910.47
387.89	908.13
388.09	887.06
388.28	968.98
388.48	940.90
388.67	968.98
388.86	933.87
389.06	978.34
389.25	936.21
389.45	947.92
389.64	873.02
389.84	947.92
390.03	1015.79
390.22	908.13
390.42	950.26
390.61	915.15
390.81	1001.75
391.00	1006.43
391.19	1083.67
391.39	1036.86
391.58	1046.22
391.78	931.53
391.97	985.37
392.16	1008.77
392.36	1067.28
392.55	1055.58
392.75	1006.43
392.94	1001.75
393.13	1083.67
393.33	999.41
393.52	1118.78
393.71	1036.86
393.91	1048.56
394.10	1074.31
394.29	1090.69
394.49	1071.97
394.68	1081.33
394.88	1055.58
395.07	1146.86
395.26	1144.52
395.46	1100.05
395.65	1181.97
395.84	1114.10
396.04	1205.38
396.23	1181.97
396.42	1165.59
396.62	1160.91
396.81	1174.95
397.00	1299.00
397.19	1114.10
397.39	1172.61
397.58	1277.93
397.77	1240.48
397.97	1186.65
398.16	1200.69
398.35	1322.40
398.55	1301.34
398.74	1247.51
398.93	1277.93
399.12	1331.76
399.32	1322.40
399.51	1322.40
399.70	1359.85
399.90	1282.61
400.09	1313.04
400.28	1383.26
400.47	1387.94
400.67	1406.66
400.86	1376.24
401.05	1458.15
401.24	1430.07
401.44	1378.58
401.63	1413.68
401.82	1416.02
402.01	1451.13
402.21	1519.01
402.40	1434.75
402.59	1519.01
402.78	1521.35
402.97	1589.22
403.17	1530.71
403.36	1558.80
403.55	1537.73
403.74	1652.42
403.93	1554.12
404.13	1650.08
404.32	1540.07
404.51	1561.14
404.70	1619.65
404.89	1430.07
405.09	1636.03
405.28	1689.87
405.47	1664.12
405.66	1769.44
405.85	1633.69
406.05	1638.38
406.24	1732.00
406.43	1666.46
406.62	1783.49
406.81	1851.36
407.00	1785.83
407.20	1734.34
407.39	1767.10
407.58	1937.96
407.77	1961.37
407.96	1830.30
408.15	1872.43
408.34	1912.22
408.54	1891.15
408.73	1909.88
408.92	1982.43
409.11	1970.73
409.30	1933.28
409.49	1977.75
409.68	1956.69
409.87	1937.96
410.07	2015.20
410.26	2019.88
410.45	2080.74
410.64	2108.82
410.83	2146.27
411.02	2129.89
411.21	2197.76
411.40	2181.38
411.59	2162.66
411.78	2256.28
411.98	2162.66
412.17	2289.04
412.36	2258.62
412.55	2221.17
412.74	2326.49
412.93	2361.60
413.12	2289.04
413.31	2431.82
413.50	2392.03
413.69	2373.30
413.88	2523.10
414.07	2485.65
414.26	2516.08
414.45	2562.89
414.64	2441.18
414.83	2492.67
415.02	2464.58
415.22	2647.15
415.41	2565.23
415.60	2703.32
415.79	2609.70
415.98	2801.62
416.17	2768.85
416.36	2644.81
416.55	2792.26
416.74	2944.39
416.93	2778.22
417.12	2738.43
417.31	2888.22
417.50	2869.50
417.69	2932.69
417.88	2939.71
418.07	2930.35
418.26	3059.08
418.45	2951.42
418.64	2995.89
418.83	3026.31
419.02	3056.74
419.21	3145.68
419.39	3091.85
419.58	3103.55
419.77	2949.08
419.96	3066.10
420.15	3169.09
420.34	3199.51
420.53	3199.51
420.72	3143.34
420.91	3260.37
421.10	3267.39
421.29	3339.94
421.48	3194.83
421.67	3265.05
421.86	3318.88
422.05	3283.77
422.24	3265.05
422.43	3251.00
422.61	3297.81
422.80	3234.62
422.99	3288.45
423.18	3370.37
423.37	3407.82
423.56	3412.50
423.75	3478.04
423.94	3337.60
424.13	3178.45
424.32	3393.78
424.50	3337.60
424.69	3494.42
424.88	3566.98
425.07	3461.65
425.26	3372.71
425.45	3414.84
425.64	3335.26
425.83	3433.57
426.01	3459.31
426.20	3585.70
426.39	3475.70
426.58	3344.63
426.77	3524.85
426.96	3454.63
427.15	3543.57
427.33	3644.21
427.52	3538.89
427.71	3707.41
427.90	3637.19
428.09	3817.41
428.28	3742.52
428.46	3599.74
428.65	3667.62
428.84	3932.10
429.03	3796.35
429.22	3730.81
429.40	3698.05
429.59	3754.22
429.78	3801.03
429.97	3630.17
430.16	3817.41
430.34	3899.33
430.53	3817.41
430.72	3981.25
430.91	3782.31
431.10	3850.18
431.28	4002.32
431.47	4046.79
431.66	4046.79
431.85	3957.85
432.03	4086.58
432.22	4079.55
432.41	4128.70
432.60	4037.42
432.79	3999.98
432.97	4053.81
433.16	4067.85
433.35	4109.98
433.54	4241.05
433.72	4170.83
433.91	4304.25
434.10	4198.92
434.28	4131.05
434.47	4187.22
434.66	4322.97
434.85	4358.08
435.03	4395.53
435.22	4241.05
435.41	4500.85
435.59	4311.27
435.78	4367.44
435.97	4369.78
436.16	4540.64
436.34	4421.27
436.53	4496.17
436.72	4622.56
436.90	4519.57
437.09	4634.26
437.28	4517.23
437.46	4489.15
437.65	4521.92
437.84	4730.22
438.02	4592.13
438.21	4557.02
438.40	4535.96
438.58	4772.35
438.77	4739.58
438.96	4844.91
439.14	4896.40
439.33	4851.93
439.52	4858.95
439.70	4903.42
439.89	5125.77
440.08	5123.43
440.26	4957.25
440.45	4943.21
440.63	5153.86
440.82	5004.07
441.01	5111.73
441.19	5280.25
441.38	5174.92
441.57	5256.84
441.75	5291.95
441.94	5408.98
442.12	5324.72
442.31	5301.31
442.50	5394.93
442.68	5467.49
442.87	5495.58
443.05	5418.34
443.24	5547.07
443.43	5490.90
443.61	5605.58
443.80	5689.84
443.98	5619.63
444.17	5369.19
444.35	5619.63
444.54	5619.63
444.73	5427.70
444.91	5584.52
445.10	5678.14
445.28	5645.37
445.47	5696.86
445.65	5612.60
445.84	5743.67
446.02	5849.00
446.21	5806.87
446.39	5636.01
446.58	5710.91
446.77	5710.91
446.95	5717.93
447.14	5640.69
447.32	5748.36
447.51	5628.99
447.69	5858.36
447.88	5867.72
448.06	5963.68
448.25	5813.89
448.43	5776.44
448.62	5966.03
448.80	5809.21
448.99	5825.59
449.17	5874.74
449.36	5827.93
449.54	6054.97
449.73	6080.71
449.91	6111.14
450.10	6160.29
450.28	6045.60
450.46	6094.76
450.65	6153.27
450.83	6085.39
451.02	6244.55
451.20	6296.04
451.39	6244.55
451.57	6195.40
451.76	6043.26
451.94	6279.66
452.13	6394.34
452.31	6361.58
452.49	6207.10
452.68	6214.12
452.86	6321.79
453.05	6478.60
453.23	6431.79
453.42	6291.36
453.60	6377.96
453.78	6574.56
453.97	6436.47
454.15	6424.77
454.34	6466.90
454.52	6672.87
454.70	6656.48
454.89	6750.10
455.07	6689.25
455.26	6572.22
455.44	6794.58
455.62	6785.21
455.81	6733.72
455.99	6752.45
456.17	6862.45
456.36	6754.79
456.54	6944.37
456.73	6834.36
456.91	6953.73
457.09	7019.27
457.28	6979.48
457.46	6953.73
457.64	7101.19
457.83	7096.50
458.01	7080.12
458.19	7222.89
458.38	7105.87
458.56	7140.97
458.74	7169.06
458.93	7133.95
459.11	7187.79
459.29	7119.91
459.48	7218.21
459.66	7157.36
459.84	7250.98
460.03	7573.97
460.21	7461.63
460.39	7405.46
460.57	7344.60
460.76	7414.82
460.94	7583.34
461.12	7536.52
461.31	7527.16
461.49	7541.21
461.67	7475.67
461.85	7550.57
462.04	7548.23
462.22	8042.08
462.40	7885.26
462.59	7637.17
462.77	7779.94
462.95	7868.88
463.13	7831.43
463.32	7779.94
463.50	7960.16
463.68	7915.69
463.86	7859.52
464.05	7894.63
464.23	7845.48
464.41	7939.10
464.59	7838.45
464.78	8074.85
464.96	8004.63
465.14	7911.01
465.32	8131.02
465.50	8093.57
465.69	8161.45
465.87	8004.63
466.05	8037.40
466.23	8072.51
466.41	8121.66
466.60	8262.09
466.78	8154.43
466.96	8154.43
467.14	8196.56
467.32	8428.27
467.51	8266.77
467.69	8205.92
467.87	8294.86
468.05	8517.21
468.23	8428.27
468.41	8245.71
468.60	8489.12
468.78	8674.03
468.96	8454.02
469.14	8540.61
469.32	8662.32
469.50	8428.27
469.69	8650.62
469.87	8645.94
470.05	8781.69
470.23	8657.64
470.41	8809.78
470.59	9067.24
470.77	8821.48
470.95	8765.31
471.14	9172.56
471.32	8898.72
471.50	9050.85
471.68	8922.12
471.86	9111.71
472.04	9273.20
472.22	9242.78
472.40	9153.84
472.58	9195.96
472.77	9111.71
472.95	9331.72
473.13	9736.63
473.31	9401.93
473.49	9500.23
473.67	9472.15
473.85	9568.11
474.03	9745.99
474.21	9652.37
474.39	9811.53
474.57	9839.61
474.75	9968.34
474.93	10033.88
475.12	10029.20
475.30	10087.71
475.48	10080.69
475.66	10101.75
475.84	9963.66
476.02	10417.72
476.20	10129.84
476.38	10289.00
476.56	10466.88
476.74	10614.33
476.92	10626.03
477.10	10562.84
477.28	10714.97
477.46	10829.66
477.64	10799.23
477.82	11047.33
478.00	10958.39
478.18	11140.95
478.36	11140.95
478.54	11349.26
478.72	11367.98
478.90	11618.42
479.08	11639.48
479.26	11866.52
479.44	11564.59
479.62	11744.81
479.80	11887.58
479.98	11859.49
480.16	12327.60
480.34	11880.56
480.52	12336.96
480.70	12252.70
480.88	12084.19
481.06	12435.27
481.24	12519.53
481.41	12666.98
481.59	12645.91
481.77	12931.46
481.95	12936.14
482.13	12905.71
482.31	13001.68
482.49	13315.31
482.67	13228.71
482.85	13460.42
483.03	13673.41
483.21	13825.54
483.39	13598.51
483.57	13619.58
483.74	14047.90
483.92	14185.99
484.10	13844.27
484.28	14171.94
484.46	14618.99
484.64	14740.69
484.82	14551.11
485.00	14789.85
485.18	14993.47
485.35	15358.60
485.53	14853.04
485.71	14916.23
485.89	15548.18
486.07	15447.54
486.25	15428.81
486.43	15786.91
486.61	15679.25
486.78	15955.43
486.96	15751.81
487.14	16053.73
487.32	16224.59
487.50	16489.07
487.68	16255.02
487.85	16896.33
488.03	16585.04
488.21	17029.74
488.39	16854.20
488.57	17137.40
488.75	17167.83
488.92	17366.78
489.10	17481.46
489.28	17511.89
489.46	17797.43
489.64	17657.00
489.81	18237.45
489.99	18197.67
490.17	18134.47
490.35	18602.58
490.53	18642.37
490.70	18661.09
490.88	18420.02
491.06	18918.55
491.24	18862.38
491.41	19063.66
491.59	19276.65
491.77	19480.28
491.95	19332.82
492.13	19585.60
492.30	19880.51
492.48	19742.42
492.66	19721.35
492.84	19594.96
493.01	20163.72
493.19	20194.14
493.37	20484.37
493.54	20397.77
493.72	20622.46
493.90	20688.00
494.08	20720.76
494.25	20669.27
494.43	21135.04
494.61	21137.38
494.79	21275.47
494.96	21233.34
495.14	21238.02
495.32	21907.41
495.49	21809.11
495.67	21839.54
495.85	22068.91
496.02	22251.47
496.20	22403.61
496.38	22651.70
496.55	22389.56
496.73	22775.75
496.91	22595.53
497.09	22607.23
497.26	22876.40
497.44	22941.93
497.62	23594.94
497.79	23381.95
497.97	23243.86
498.14	23351.52
498.32	23711.97
498.50	23702.61
498.67	24208.16
498.85	23946.02
499.03	24149.65
499.20	24107.52
499.38	23931.98
499.56	24620.10
499.73	24753.51
499.91	24451.58
500.08	24812.02
500.26	24809.68
500.44	24699.67
500.61	24954.79
500.79	24655.20
500.97	25483.75
501.14	25560.99
501.32	25296.51
501.49	25434.60
501.67	25518.86
501.84	25891.01
502.02	25556.31
502.20	25895.69
502.37	25795.04
502.55	25572.69
502.72	25827.81
502.90	25937.82
503.07	25865.26
503.25	26391.88
503.43	25956.54
503.60	26396.56
503.78	26417.63
503.95	26506.57
504.13	26754.66
504.30	26590.83
504.48	26972.33
504.65	26862.33
504.83	27267.24
505.01	27213.41
505.18	27159.58
505.36	27087.02
505.53	27278.94
505.71	27433.42
505.88	27590.24
506.06	27332.78
506.23	27812.59
506.41	27608.96
506.58	28128.56
506.76	27953.02
506.93	28182.39
507.11	28257.29
507.28	28535.81
507.46	28563.90
507.63	28435.17
507.81	28718.37
507.98	28364.95
508.16	28278.35
508.33	28645.82
508.50	28821.36
508.68	28751.14
508.85	29008.60
509.03	28989.88
509.20	28973.49
509.38	29614.80
509.55	29142.01
509.73	29345.64
509.90	29656.93
510.08	29434.58
510.25	29518.84
510.42	29408.83
510.60	29958.86
510.77	29895.66
510.95	30085.25
511.12	29930.77
511.30	30031.41
511.47	30101.63
511.64	30012.69
511.82	30169.51
511.99	30422.28
512.17	30946.56
512.34	30677.40
512.51	30979.33
512.69	30895.07
512.86	30742.94
513.04	31040.18
513.21	30962.95
513.38	31077.63
513.56	31255.51
513.73	30824.86
513.90	31194.66
514.08	31578.51
514.25	31845.33
514.43	31864.05
514.60	31630.00
514.77	31676.81
514.95	32247.90
515.12	31730.64
515.29	31833.63
515.47	32327.48
515.64	32194.07
515.81	31934.27
515.99	31777.45
516.16	32591.96
516.33	32273.65
516.51	32730.05
516.68	32465.57
516.85	32844.74
517.03	33050.70
517.20	32444.51
517.37	32847.08
517.54	33118.58
517.72	32936.02
517.89	33256.67
518.06	33132.62
518.24	33518.81
518.41	33013.26
518.58	33048.36
518.75	32606.00
518.93	33642.86
519.10	33516.47
519.27	33858.19
519.45	33205.18
519.62	33542.22
519.79	33689.67
519.96	33481.36
520.14	34012.66
520.31	33586.69
520.48	34031.39
520.65	33844.15
520.83	34235.02
521.00	34206.93
521.17	34117.99
521.34	34422.26
521.52	34588.44
521.69	34962.92
521.86	34637.59
522.03	34712.49
522.20	35079.95
522.38	35433.37
522.55	34920.79
522.72	34763.98
522.89	35065.91
523.07	35267.19
523.24	35426.35
523.41	35339.75
523.58	35267.19
523.75	35761.05
523.92	35325.71
524.10	35690.83
524.27	35777.43
524.44	35981.06
524.61	35880.41
524.78	35976.37
524.96	36062.97
525.13	36158.94
525.30	36292.35
525.47	36095.74
525.64	36418.74
525.81	36559.17
525.98	36428.10
526.16	36109.78
526.33	36957.06
526.50	37148.98
526.67	36402.35
526.84	36517.04
527.01	36605.98
527.18	36849.39
527.36	36851.73
527.53	36678.54
527.70	37144.30
527.87	37357.29
528.04	37511.77
528.21	37296.44
528.38	37184.09
528.55	37256.65
528.72	37230.90
528.89	37127.92
529.07	37778.59
529.24	37247.29
529.41	37633.47
529.58	37830.08
529.75	37471.98
529.92	37661.56
530.09	37514.11
530.26	37787.95
530.43	37811.35
530.60	37659.22
530.77	38019.66
530.94	38103.92
531.11	37820.72
531.28	38045.41
531.46	38312.23
531.63	38403.51
531.80	38176.48
531.97	38513.52
532.14	38487.77
532.31	38274.78
532.48	38639.90
532.65	38780.34
532.82	38302.87
532.99	39065.88
533.16	38637.56
533.33	38808.42
533.50	39164.18
533.67	38756.93
533.84	38417.55
534.01	39009.71
534.18	38939.49
534.35	39323.34
534.52	39005.03
534.69	39475.48
534.86	39445.05
535.03	39225.04
535.20	39683.78
535.37	39746.98
535.54	39936.56
535.71	39618.25
535.88	39569.10
536.05	39536.33
536.22	39707.19
536.38	39487.18
536.55	39702.51
536.72	39695.49
536.89	40079.33
537.06	39981.03
537.23	40203.38
537.40	39503.56
537.57	39770.38
537.74	39894.43
537.91	40481.91
538.08	40556.80
538.25	40069.97
538.42	40247.85
538.59	40919.59
538.75	40650.42
538.92	40563.82
539.09	40828.30
539.26	40383.60
539.43	40589.57
539.60	41095.13
539.77	40652.76
539.94	40648.08
540.11	40601.27
540.28	41146.62
540.44	40912.56
540.61	40954.69
540.78	40458.50
540.95	40992.14
541.12	40933.63
541.29	41209.81
541.46	41661.54
541.62	41207.47
541.79	41305.77
541.96	41116.19
542.13	41511.74
542.30	41846.44
542.47	41380.67
542.63	41476.63
542.80	41375.99
542.97	41523.44
543.14	41998.57
543.31	41708.35
543.48	41684.94
543.64	42333.27
543.81	42485.40
543.98	42373.06
544.15	41972.83
544.32	42176.45
544.48	42590.73
544.65	42340.29
544.82	42246.67
544.99	41663.88
545.16	42569.66
545.32	42440.93
545.49	42878.61
545.66	43049.47
545.83	42810.74
546.00	42817.76
546.16	42707.76
546.33	42326.25
546.50	42670.31
546.67	42532.22
546.83	42249.01
547.00	42745.20
547.17	42499.45
547.34	43049.47
547.50	43311.61
547.67	43253.10
547.84	42827.12
548.00	42986.28
548.17	43601.84
548.34	43330.34
548.51	43386.51
548.67	42934.79
548.84	43367.79
549.01	43311.61
549.18	43470.77
549.34	43192.25
549.51	43821.85
549.68	43833.55
549.84	43470.77
550.01	43674.40
550.18	43501.20
550.34	43555.03
550.51	43934.20
550.68	44013.77
550.84	43459.07
551.01	43957.60
551.18	43620.56
551.34	43784.40
551.51	44294.64
551.68	43756.32
551.84	43882.70
552.01	44165.91
552.18	44030.16
552.34	44224.42
552.51	44172.93
552.68	43957.60
552.84	44322.72
553.01	44203.36
553.18	44091.01
553.34	44299.32
553.51	44339.11
553.67	44692.53
553.84	44423.37
554.01	44247.83
554.17	44673.81
554.34	44697.21
554.51	44900.84
554.67	44507.63
554.84	44507.63
555.00	44432.73
555.17	44999.14
555.33	44594.23
555.50	44715.93
555.67	44760.40
555.83	45123.19
556.00	44795.51
556.16	45551.51
556.33	45008.50
556.50	44830.62
556.66	45364.26
556.83	44533.37
556.99	44891.48
557.16	45034.25
557.32	44896.16
557.49	45331.50
557.65	44861.05
557.82	45130.21
557.98	45235.53
558.15	44959.35
558.32	45528.10
558.48	45036.59
558.65	45467.25
558.81	45315.11
558.98	45282.34
559.14	45413.41
559.31	45350.22
559.47	45572.57
559.64	45605.34
559.80	45588.95
559.97	45925.99
560.13	45542.14
560.30	45598.32
560.46	45776.20
560.63	45647.47
560.79	45979.82
560.96	45902.59
561.12	45890.88
561.29	45830.03
561.45	46005.57
561.61	45581.93
561.78	46099.19
561.94	45797.26
562.11	45675.55
562.27	45701.30
562.44	46064.08
562.60	45982.16
562.77	46138.98
562.93	45558.53
563.10	46518.15
563.26	45790.24
563.42	46050.04
563.59	45965.78
563.75	45736.41
563.92	46307.50
564.08	45598.32
564.24	46398.78
564.41	46344.95
564.57	46213.88
564.74	46106.21
564.90	46490.06
565.07	45773.86
565.23	45996.21
565.39	46330.90
565.56	46153.02
565.72	46012.59
565.88	46291.12
566.05	46494.74
566.21	46052.38
566.38	46426.87
566.54	46127.28
566.70	46569.64
566.87	46263.03
567.03	46134.30
567.19	46614.11
567.36	46356.65
567.52	46223.24
567.68	46967.53
567.85	46794.33
568.01	46979.23
568.17	46344.95
568.34	46700.71
568.50	46780.29
568.66	46146.00
568.83	46293.46
568.99	46323.88
569.15	46515.81
569.32	46265.37
569.48	46611.77
569.64	46618.79
569.81	47068.17
569.97	46747.52
570.13	47002.64
570.30	46906.68
570.46	46717.09
570.62	47096.26
570.78	46932.42
570.95	46822.42
571.11	47419.25
571.27	46417.50
571.43	46983.91
571.60	46756.88
571.76	46782.63
571.92	46478.36
572.09	46969.87
572.25	46457.29
572.41	46600.07
572.57	46887.95
572.74	47349.04
572.90	46504.10
573.06	47346.70
573.22	47002.64
573.38	47248.39
573.55	47107.96
573.71	47145.41
573.87	46855.18
574.03	47009.66
574.20	47421.59
574.36	47349.04
574.52	47112.64
574.68	47152.43
574.84	47136.05
575.01	47325.63
575.17	47089.24
575.33	47136.05
575.49	46990.94
575.65	46974.55
575.82	47426.28
575.98	47161.79
576.14	47213.29
576.30	47512.88
576.46	47709.48
576.62	47061.15
576.79	47407.55
576.95	46721.77
577.11	46967.53
577.27	47227.33
577.43	47166.48
577.59	47201.58
577.75	46887.95
577.92	47393.51
578.08	47330.31
578.24	47154.77
578.40	47372.44
578.56	47391.17
578.72	47058.81
578.88	47358.40
579.04	47285.84
579.21	47117.32
579.37	47194.56
579.53	47440.32
579.69	47332.65
579.85	47079.88
580.01	47206.26
580.17	47704.80
580.33	47456.70
580.49	47358.40
580.65	47201.58
580.82	47288.18
580.98	47377.12
581.14	47051.79
581.30	47068.17
581.46	47133.71
581.62	47000.30
581.78	47283.50
581.94	47257.76
582.10	47430.96
582.26	47856.93
582.42	47402.87
582.58	47297.55
582.74	47363.08
582.90	47281.16
583.06	47732.89
583.22	47138.39
583.38	47732.89
583.54	47407.55
583.70	47576.07
583.86	47145.41
584.02	47669.69
584.18	47742.25
584.34	47447.34
584.50	47810.12
584.66	47311.59
584.82	47501.17
584.98	47931.83
585.14	47737.57
585.30	47627.56
585.46	47124.35
585.62	47304.57
585.78	47709.48
585.94	47058.81
586.10	47173.50
586.26	47363.08
586.42	47454.36
586.58	47215.63
586.74	47547.98
586.90	47229.67
587.06	47398.19
587.22	47824.17
587.38	47679.05
587.54	47611.18
587.70	47482.45
587.86	47662.67
588.02	47522.24
588.18	47250.74
588.34	47070.51
588.49	47426.28
588.65	47358.40
588.81	47519.90
588.97	47550.32
589.13	47449.68
589.29	47753.95
589.45	48004.39
589.61	47632.24
589.77	48044.18
589.93	47896.72
590.08	48296.95
590.24	48067.58
590.40	48004.39
590.56	48554.41
590.72	48137.80
590.88	47807.78
591.04	47791.40
591.20	47840.55
591.35	48245.46
591.51	48648.03
591.67	48371.85
591.83	47859.27
591.99	48020.77
592.15	48093.33
592.31	47791.40
592.46	47379.46
592.62	47576.07
592.78	48156.52
592.94	48353.13
593.10	48348.45
593.26	48212.70
593.41	48282.91
593.57	48453.77
593.73	48416.32
593.89	48397.60
594.05	48704.21
594.20	48296.95
594.36	48432.71
594.52	48182.27
594.68	48067.58
594.84	47920.13
594.99	48257.17
595.15	48065.24
595.31	48133.12
595.47	47962.26
595.62	48334.40
595.78	48121.41
595.94	48383.55
596.10	48156.52
596.25	48243.12
596.41	48531.01
596.57	48252.48
596.73	48467.81
596.88	48409.30
597.04	48278.23
597.20	48659.74
597.36	48467.81
597.51	48378.87
597.67	47835.87
597.83	48594.20
597.99	48261.85
598.14	47882.68
598.30	48580.16
598.46	48285.25
598.61	48664.42
598.77	48058.22
598.93	48526.33
599.09	48406.96
599.24	48605.91
599.40	48320.36
599.56	48472.49
599.71	48744.00
599.87	48788.47
600.03	48587.18
600.18	48388.24
600.34	48493.56
600.50	48367.17
600.65	48285.25
600.81	48765.06
600.97	48823.58
601.12	48502.92
601.28	48655.06
601.44	48161.20
601.59	48388.24
601.75	48261.85
601.91	48842.30
602.06	48573.14
602.22	48619.95
602.37	48432.71
602.53	48507.60
602.69	48657.40
602.84	48406.96
603.00	48498.24
603.16	48594.20
603.31	48451.43
603.47	48313.34
603.62	48577.82
603.78	48397.60
603.94	48570.80
604.09	48575.48
604.25	48559.09
604.40	48156.52
604.56	48519.31
604.71	48851.66
604.87	48245.46
605.03	48282.91
605.18	48107.37
605.34	48699.53
605.49	48156.52
605.65	48421.00
605.80	48362.49
605.96	48584.84
606.12	48257.17
606.27	48273.55
606.43	48238.44
606.58	48500.58
606.74	48369.51
606.89	48526.33
607.05	48589.52
607.20	48421.00
607.36	48282.91
607.51	48516.96
607.67	48336.74
607.82	47510.53
607.98	48072.26
608.13	48090.99
608.29	48051.20
608.44	48388.24
608.60	48147.16
608.75	48353.13
608.91	48126.10
609.06	48161.20
609.22	48133.12
609.37	48114.39
609.53	48385.89
609.68	48722.93
609.84	47833.53
609.99	48507.60
610.15	48165.88
610.30	48236.10
610.46	47908.43
610.61	48226.74
610.76	48336.74
610.92	48182.27
611.07	47969.28
611.23	48009.07
611.38	47995.03
611.54	47739.91
611.69	48369.51
611.84	48079.28
612.00	48032.47
612.15	47899.06
612.31	47770.33
612.46	47569.05
612.62	48072.26
612.77	47798.42
612.92	48088.65
613.08	47749.27
613.23	48020.77
613.39	47938.85
613.54	47372.44
613.69	48123.75
613.85	47309.25
614.00	47508.19
614.15	47924.81
614.31	47695.44
614.46	47742.25
614.62	47154.77
614.77	47634.58
614.92	47976.30
615.08	47452.02
615.23	47775.02
615.38	48030.13
615.54	47756.29
615.69	47723.52
615.84	47627.56
616.00	47941.19
616.15	47634.58
616.30	47662.67
616.46	47363.08
616.61	47578.41
616.76	47936.51
616.92	47552.66
617.07	47824.17
617.22	47274.14
617.37	47260.10
617.53	47611.18
617.68	47758.63
617.83	47688.42
617.99	47721.18
618.14	47557.35
618.29	47227.33
618.45	47173.50
618.60	47213.29
618.75	47021.36
618.90	47040.09
619.06	46986.25
619.21	46997.96
619.36	47377.12
619.51	47147.75
619.67	46822.42
619.82	46948.81
619.97	47552.66
620.12	46880.93
620.28	47498.83
620.43	47302.23
620.58	47536.28
620.73	47290.52
620.89	47248.39
621.04	47215.63
621.19	47278.82
621.34	46913.70
621.49	47065.83
621.65	47264.78
621.80	47426.28
621.95	46897.31
622.10	47166.48
622.25	47028.38
622.41	46562.62
622.56	46518.15
622.71	47004.98
622.86	46932.42
623.01	47082.22
623.16	46656.24
623.32	46651.56
623.47	46864.55
623.62	47023.70
623.77	46597.73
623.92	47105.62
624.07	46794.33
624.23	46447.93
624.38	47035.41
624.53	46438.57
624.68	46424.53
624.83	46396.44
624.98	46527.51
625.13	46370.69
625.29	46368.35
625.44	46370.69
625.59	46206.86
625.74	46450.27
625.89	46239.62
626.04	46052.38
626.19	46625.81
626.34	46171.75
626.49	45982.16
626.65	45799.60
626.80	46078.13
626.95	45853.44
627.10	45713.00
627.25	45984.51
627.40	45741.09
627.55	46059.40
627.70	45851.09
627.85	46003.23
628.00	46028.98
628.15	45933.01
628.30	45401.71
628.45	45750.45
628.60	45354.90
628.76	45689.60
628.91	45813.65
629.06	45492.99
629.21	45570.23
629.36	45708.32
629.51	46045.36
629.66	46045.36
629.81	45638.11
629.96	45827.69
630.11	45392.35
630.26	45684.92
630.41	45553.85
630.56	45469.59
630.71	45696.62
630.86	45436.82
631.01	45610.02
631.16	45361.92
631.31	45525.76
631.46	45198.09
631.61	45780.88
631.76	45605.34
631.91	45600.66
632.06	45553.85
632.21	45532.78
632.36	45621.72
632.51	45546.82
632.66	45160.64
632.81	45294.05
632.96	45345.54
633.10	45045.95
633.25	45303.41
633.40	45478.95
633.55	45158.30
633.70	45434.48
633.85	44706.57
634.00	45230.85
634.15	44456.14
634.30	45111.49
634.45	45099.78
634.60	45221.49
634.75	45228.51
634.90	44994.46
635.05	45254.26
635.19	44942.97
635.34	45057.65
635.49	44362.51
635.64	45090.42
635.79	45347.88
635.94	44996.80
636.09	44926.58
636.24	44467.84
636.39	44467.84
636.53	44685.51
636.68	44542.74
636.83	44673.81
636.98	44362.51
637.13	44264.21
637.28	44109.74
637.43	44463.16
637.57	44584.86
637.72	43681.42
637.87	44428.05
638.02	44914.88
638.17	44329.75
638.32	44076.97
638.46	44336.77
638.61	44065.27
638.76	44521.67
638.91	44093.35
639.06	43988.03
639.20	44083.99
639.35	43508.22
639.50	43674.40
639.65	43772.70
639.80	44528.69
639.94	43934.20
640.09	44346.13
640.24	44304.00
640.39	43826.53
640.54	43615.88
640.68	44116.76
640.83	43922.49
640.98	44287.62
641.13	43711.84
641.27	43997.39
641.42	43786.74
641.57	44126.12
641.72	43868.66
641.86	43824.19
642.01	43859.30
642.16	43625.25
642.31	43337.36
642.45	43812.49
642.60	43491.83
642.75	43550.35
642.90	43679.08
643.04	43826.53
643.19	43255.44
643.34	43552.69
643.48	43098.62
643.63	43274.16
643.78	43213.31
643.93	43702.48
644.07	43342.04
644.22	43892.07
644.37	43344.38
644.51	43538.65
644.66	43573.75
644.81	42887.98
644.95	43138.41
645.10	43236.72
645.25	43030.75
645.39	43082.24
645.54	43239.06
645.69	42602.43
645.83	42876.27
645.98	42887.98
646.13	43290.55
646.27	42637.54
646.42	42618.81
646.57	42859.89
646.71	42866.91
646.86	43208.63
647.00	42934.79
647.15	43047.13
647.30	43304.59
647.44	42492.43
647.59	42663.28
647.74	42445.62
647.88	42862.23
648.03	43126.71
648.17	43241.40
648.32	43107.99
648.47	43110.33
648.61	42838.83
648.76	42644.56
648.90	42389.44
649.05	42653.92
649.20	42422.21
649.34	42501.79
649.49	42710.10
649.63	42777.97
649.78	42522.85
649.92	42777.97
650.07	42967.55
650.21	42284.12
650.36	43058.84
650.51	42396.46
650.65	42770.95
650.80	43054.15
650.94	42504.13
651.09	42286.46
651.23	41816.01
651.38	42181.13
651.52	41656.85
651.67	42197.52
651.81	42012.62
651.96	42143.69
652.10	41743.45
652.25	42096.88
652.39	41673.24
652.54	41729.41
652.68	41820.69
652.83	41895.59
652.97	42150.71
653.12	41839.42
653.26	41804.31
653.41	41612.38
653.55	41989.21
653.70	42183.48
653.84	42391.78
653.99	42265.39
654.13	42085.17
654.27	41626.43
654.42	41792.61
654.56	41783.24
654.71	41586.64
654.85	41759.84
655.00	41904.95
655.14	41710.69
655.29	41670.90
655.43	41752.82
655.57	41729.41
655.72	41366.63
655.86	41097.47
656.01	40961.72
656.15	40992.14
656.30	41045.97
656.44	41579.62
656.58	41226.20
656.73	41265.99
656.87	40868.09
657.01	41273.01
657.16	41151.30
657.30	41214.49
657.45	41006.19
657.59	40807.24
657.73	40664.47
657.88	41188.75
658.02	41050.66
658.16	41050.66
658.31	41050.66
658.45	41141.94
658.60	40760.43
658.74	40851.71
658.88	40631.70
659.03	40528.72
659.17	40414.03
659.31	40341.47
659.46	40254.87
659.60	41050.66
659.74	40158.91
659.89	39974.01
660.03	40301.68
660.17	40456.16
660.32	39990.39
660.46	39997.41
660.60	39929.54
660.74	40215.08
660.89	40320.41
661.03	39864.00
661.17	39758.68
661.32	39707.19
661.46	40392.97
661.60	39597.18
661.74	39746.98
661.89	39335.04
662.03	39957.63
662.17	39456.75
662.31	39779.74
662.46	39578.46
662.60	39435.69
662.74	39466.11
662.88	39400.58
663.03	39005.03
663.17	38885.66
663.31	39030.77
663.45	39332.70
663.60	39239.08
663.74	39054.18
663.88	39150.14
664.02	38677.35
664.17	38911.41
664.31	38656.29
664.45	38600.12
664.59	38691.40
664.73	38707.78
664.88	38660.97
665.02	38529.90
665.16	38770.97
665.30	38646.93
665.44	38897.36
665.59	38078.18
665.73	38022.00
665.87	37942.42
666.01	38302.87
666.15	37928.38
666.29	37816.04
666.44	38522.88
666.58	38419.89
666.72	37944.76
666.86	38029.02
667.00	37764.54
667.14	37483.68
667.28	38176.48
667.43	37600.71
667.57	37846.46
667.71	37708.37
667.85	38036.05
667.99	37535.17
668.13	37294.10
668.27	37273.03
668.41	36931.31
668.56	36774.50
668.70	36950.04
668.84	37038.98
668.98	36884.50
669.12	36648.11
669.26	37228.56
669.40	37116.22
669.54	36774.50
669.68	36577.89
669.82	36449.16
669.96	36430.44
670.10	35646.36
670.25	36613.00
670.39	36460.87
670.53	36552.15
670.67	36215.11
670.81	36486.61
670.95	36664.49
671.09	36189.36
671.23	35658.06
671.37	36048.93
671.51	36044.25
671.65	35826.58
671.79	35749.34
671.93	35997.44
672.07	35835.94
672.21	35571.46
672.35	35391.24
672.49	35421.67
672.63	35667.42
672.77	34892.71
672.91	35101.01
673.05	34836.53
673.19	35129.10
673.33	34824.83
673.47	34965.26
673.61	34703.12
673.75	34632.91
673.89	34471.41
674.03	34340.34
674.17	34227.99
674.31	34401.19
674.45	34150.76
674.59	34302.89
674.73	34120.33
674.87	33947.13
675.01	34113.31
675.15	33455.62
675.29	33420.51
675.43	33635.84
675.56	33699.03
675.70	33640.52
675.84	33638.18
675.98	32687.92
676.12	33256.67
676.26	33209.86
676.40	33294.12
676.54	32959.42
676.68	32685.58
676.82	32385.99
676.96	32603.66
677.10	32659.84
677.23	32591.96
677.37	32666.86
677.51	32327.48
677.65	32173.00
677.79	32470.25
677.93	32238.54
678.07	32149.60
678.21	31812.56
678.34	31498.93
678.48	31725.96
678.62	31945.97
678.76	31510.63
678.90	31498.93
679.04	31356.16
679.18	31194.66
679.31	31115.08
679.45	31065.93
679.59	31145.51
679.73	30934.86
679.87	30515.90
680.00	30637.61
680.14	30689.10
680.28	30658.68
680.42	30431.65
680.56	30228.02
680.70	30361.43
680.83	29975.24
680.97	29764.59
681.11	30089.93
681.25	29603.10
681.39	29656.93
681.52	29549.26
681.66	29191.16
681.80	29017.96
681.94	29200.52
682.07	28952.43
682.21	28980.51
682.35	28545.17
682.49	28985.19
682.62	28858.81
682.76	28907.96
682.90	28769.86
683.04	28432.83
683.17	28861.15
683.31	28325.16
683.45	28025.57
683.59	27620.66
683.72	27599.60
683.86	27662.79
684.00	28100.47
684.13	27480.23
684.27	27466.19
684.41	27316.39
684.55	27520.02
684.68	27035.53
684.82	27117.45
684.96	27487.25
685.09	27068.30
685.23	27225.11
685.37	27402.99
685.50	27168.94
685.64	27283.62
685.78	26518.27
685.91	26735.94
686.05	26155.49
686.19	25544.61
686.32	26178.89
686.46	25820.79
686.60	25392.47
686.73	25837.17
686.87	25757.60
687.01	25757.60
687.14	26176.55
687.28	25331.62
687.42	25741.21
687.55	25092.88
687.69	25469.71
687.82	25146.72
687.96	25034.37
688.10	25083.52
688.23	25111.61
688.37	25146.72
688.50	25254.38
688.64	24563.92
688.78	24856.49
688.91	24439.87
689.05	24538.18
689.18	24006.87
689.32	23658.14
689.46	24159.01
689.59	23770.48
689.73	24418.81
689.86	24290.08
690.00	23812.61
690.13	23908.57
690.27	23398.34
690.41	23391.31
690.54	23524.72
690.68	23578.56
690.81	23040.23
690.95	23082.36
691.08	23014.49
691.22	22621.28
691.35	22750.01
691.49	23049.60
691.62	22764.05
691.76	22338.07
691.89	22235.09
692.03	22214.02
692.16	21930.82
692.30	22075.93
692.43	22122.74
692.57	21647.61
692.70	21572.72
692.84	21460.37
692.97	21556.33
693.11	21507.18
693.24	21156.10
693.38	21057.80
693.51	21081.21
693.65	20847.15
693.78	20989.92
693.92	20945.45
694.05	21010.99
694.19	20549.90
694.32	20896.30
694.45	20702.04
694.59	20788.64
694.72	20786.30
694.86	20276.06
694.99	20390.75
695.13	20109.88
695.26	19992.86
695.39	19969.45
695.53	19775.19
695.66	19847.74
695.80	19496.66
695.93	19765.82
696.07	19482.62
696.20	19241.54
696.33	19271.97
696.47	19241.54
696.60	19157.28
696.73	19112.81
696.87	19161.97
697.00	19082.39
697.14	18684.50
697.27	18668.11
697.40	18864.72
697.54	18572.15
697.67	18609.60
697.80	18359.16
697.94	18354.48
698.07	18312.35
698.21	18146.17
698.34	18003.40
698.47	17907.44
698.61	17561.04
698.74	17638.28
698.87	17652.32
699.01	17715.51
699.14	17649.98
699.27	17575.08
699.40	17411.25
699.54	17378.48
699.67	17561.04
699.80	17364.43
699.94	17032.08
700.07	17123.36
700.20	16877.60
700.34	16917.39
700.47	16877.60
700.60	17326.99
700.73	16716.11
700.87	16582.70
701.00	16699.72
701.13	16404.81
701.26	16208.21
701.40	16135.65
701.53	16191.83
701.66	16341.62
701.79	16081.82
701.93	15719.04
702.06	15688.61
702.19	15786.91
702.32	15791.59
702.46	15616.05
702.59	15831.38
702.72	15513.07
702.85	15524.77
702.99	15637.12
703.12	15082.41
703.25	15026.24
703.38	14808.57
703.51	15169.01
703.65	14949.00
703.78	14796.87
703.91	14824.95
704.04	14764.10
704.17	14649.41
704.31	14707.93
704.44	14499.62
704.57	14480.89
704.70	14455.15
704.83	14050.24
704.96	14120.45
705.10	14237.48
705.23	14200.03
>>>>>End Processed Spectral Data<<<<<
