SpectraSuite Data File
++++++++++++++++++++++++++++++++++++
Date: Fri Oct 25 11:33:43 EDT 2013
User: price-jones
Dark Spectrum Present: No
Reference Spectrum Present: No
Number of Sampled Component Spectra: 1
Spectrometers: USB2+H05261
Integration Time (usec): 100000 (USB2+H05261)
Spectra Averaged: 1 (USB2+H05261)
Boxcar Smoothing: 0 (USB2+H05261)
Correct for Electrical Dark: No (USB2+H05261)
Strobe/Lamp Enabled: No (USB2+H05261)
Correct for Detector Non-linearity: No (USB2+H05261)
Correct for Stray Light: No (USB2+H05261)
Number of Pixels in Processed Spectrum: 2048
>>>>>Begin Processed Spectral Data<<<<<
365.73	264.48
365.92	264.48
366.12	264.48
366.32	248.10
366.52	224.69
366.72	201.29
366.91	128.73
367.11	128.73
367.31	145.11
367.51	208.31
367.70	198.95
367.90	180.22
368.10	180.22
368.30	217.67
368.49	142.77
368.69	196.60
368.89	182.56
369.09	205.97
369.28	264.48
369.48	287.89
369.68	198.95
369.87	262.14
370.07	252.78
370.27	287.89
370.47	278.52
370.66	470.45
370.86	484.49
371.06	528.96
371.25	559.39
371.45	517.26
371.65	603.86
371.84	484.49
372.04	578.11
372.24	533.64
372.44	557.05
372.63	531.30
372.83	578.11
373.03	613.22
373.22	608.54
373.42	550.03
373.62	592.16
373.81	678.76
374.01	662.37
374.21	711.52
374.40	671.73
374.60	683.44
374.79	648.33
374.99	699.82
375.19	669.39
375.38	748.97
375.58	634.29
375.78	669.39
375.97	727.91
376.17	755.99
376.37	662.37
376.56	641.31
376.76	627.26
376.95	692.80
377.15	723.23
377.35	716.20
377.54	648.33
377.74	657.69
377.93	667.05
378.13	720.88
378.33	608.54
378.52	634.29
378.72	720.88
378.91	795.78
379.11	692.80
379.31	697.48
379.50	748.97
379.70	748.97
379.89	692.80
380.09	697.48
380.28	664.71
380.48	737.27
380.68	720.88
380.87	702.16
381.07	854.30
381.26	779.40
381.46	830.89
381.65	802.80
381.85	828.55
382.04	758.33
382.24	833.23
382.43	763.01
382.63	774.72
382.83	739.61
383.02	786.42
383.22	889.40
383.41	784.08
383.61	774.72
383.80	884.72
384.00	812.17
384.19	858.98
384.39	901.11
384.58	826.21
384.78	770.04
384.97	894.08
385.17	842.59
385.36	774.72
385.56	821.53
385.75	774.72
385.95	814.51
386.14	866.00
386.34	851.96
386.53	910.47
386.72	866.00
386.92	901.11
387.11	819.19
387.31	929.19
387.50	863.66
387.70	840.25
387.89	929.19
388.09	882.38
388.28	807.48
388.48	936.21
388.67	959.62
388.86	905.79
389.06	961.96
389.25	905.79
389.45	1001.75
389.64	910.47
389.84	1008.77
390.03	992.39
390.22	950.26
390.42	992.39
390.61	1015.79
390.81	950.26
391.00	990.05
391.19	1050.90
391.39	992.39
391.58	999.41
391.78	1060.26
391.97	1039.20
392.16	1001.75
392.36	990.05
392.55	1057.92
392.75	1071.97
392.94	1069.62
393.13	1109.41
393.33	1006.43
393.52	980.68
393.71	1086.01
393.91	1163.25
394.10	1046.22
394.29	1109.41
394.49	1121.12
394.68	1102.39
394.88	1172.61
395.07	1146.86
395.26	1041.54
395.46	1064.94
395.65	1142.18
395.84	1186.65
396.04	1228.78
396.23	1221.76
396.42	1188.99
396.62	1240.48
396.81	1261.55
397.00	1235.80
397.19	1270.91
397.39	1291.98
397.58	1254.53
397.77	1240.48
397.97	1310.70
398.16	1214.74
398.35	1299.00
398.55	1306.02
398.74	1338.79
398.93	1390.28
399.12	1350.49
399.32	1324.74
399.51	1273.25
399.70	1327.08
399.90	1284.95
400.09	1404.32
400.28	1418.36
400.47	1441.77
400.67	1413.68
400.86	1420.71
401.05	1313.04
401.24	1502.62
401.44	1476.88
401.63	1528.37
401.82	1411.34
402.01	1453.47
402.21	1511.99
402.40	1535.39
402.59	1458.15
402.78	1474.54
402.97	1582.20
403.17	1479.22
403.36	1458.15
403.55	1540.07
403.74	1455.81
403.93	1568.16
404.13	1647.74
404.32	1619.65
404.51	1619.65
404.70	1687.53
404.89	1603.27
405.09	1629.01
405.28	1678.16
405.47	1556.46
405.66	1778.81
405.85	1790.51
406.05	1694.55
406.24	1743.70
406.43	1680.50
406.62	1757.74
406.81	1891.15
407.00	1739.02
407.20	1729.66
407.39	1916.90
407.58	1708.59
407.77	1851.36
407.96	1839.66
408.15	1884.13
408.34	1923.92
408.54	1893.49
408.73	1975.41
408.92	1886.47
409.11	1916.90
409.30	2047.97
409.49	1935.62
409.68	2097.12
409.87	2043.29
410.07	1987.11
410.26	2066.69
410.45	2029.24
410.64	2050.31
410.83	2204.78
411.02	2157.97
411.21	2218.83
411.40	2125.21
411.59	2108.82
411.78	2258.62
411.98	2132.23
412.17	2235.21
412.36	2265.64
412.55	2349.90
412.74	2256.28
412.93	2373.30
413.12	2256.28
413.31	2422.45
413.50	2331.17
413.69	2326.49
413.88	2588.63
414.07	2413.09
414.26	2583.95
414.45	2565.23
414.64	2551.18
414.83	2553.52
415.02	2684.59
415.22	2572.25
415.41	2640.12
415.60	2471.61
415.79	2588.63
415.98	2775.88
416.17	2747.79
416.36	2775.88
416.55	2658.85
416.74	2874.18
416.93	2747.79
417.12	2850.77
417.31	2935.03
417.50	2977.16
417.69	2897.58
417.88	3084.83
418.07	2939.71
418.26	2935.03
418.45	2965.46
418.64	3173.77
418.83	3075.46
419.02	3112.91
419.21	3173.77
419.39	3096.53
419.58	3148.02
419.77	3101.21
419.96	3038.02
420.15	3131.64
420.34	3258.03
420.53	3251.00
420.72	3218.24
420.91	3314.20
421.10	3255.69
421.29	3363.35
421.48	3234.62
421.67	3351.65
421.86	3339.94
422.05	3300.16
422.24	3283.77
422.43	3456.97
422.61	3417.18
422.80	3281.43
422.99	3255.69
423.18	3351.65
423.37	3496.76
423.56	3428.88
423.75	3297.81
423.94	3332.92
424.13	3178.45
424.32	3138.66
424.50	3433.57
424.69	3438.25
424.88	3344.63
425.07	3396.12
425.26	3353.99
425.45	3473.36
425.64	3421.86
425.83	3389.10
426.01	3599.74
426.20	3438.25
426.39	3445.27
426.58	3482.72
426.77	3583.36
426.96	3487.40
427.15	3550.59
427.33	3630.17
427.52	3707.41
427.71	3679.32
427.90	3639.53
428.09	3548.25
428.28	3672.30
428.46	3660.60
428.65	3674.64
428.84	3735.50
429.03	3791.67
429.22	3613.79
429.40	3789.33
429.59	3824.44
429.78	3695.71
429.97	3592.72
430.16	3833.80
430.34	3871.25
430.53	3899.33
430.72	4042.11
430.91	3737.84
431.10	3770.60
431.28	3918.06
431.47	4028.06
431.66	3992.95
431.85	3925.08
432.03	4072.53
432.22	4021.04
432.41	4081.89
432.60	3985.93
432.79	4156.79
432.97	4161.47
433.16	4168.49
433.35	4072.53
433.54	4187.22
433.72	4091.26
433.91	4142.75
434.10	4360.42
434.28	4107.64
434.47	4266.80
434.66	4276.16
434.85	4252.75
435.03	4353.40
435.22	4205.94
435.41	4329.99
435.59	4393.19
435.78	4461.06
435.97	4447.02
436.16	4367.44
436.34	4475.10
436.53	4421.27
436.72	4545.32
436.90	4423.61
437.09	4468.08
437.28	4477.44
437.46	4458.72
437.65	4571.07
437.84	4568.73
438.02	4636.60
438.21	4512.55
438.40	4500.85
438.58	4720.86
438.77	4814.48
438.96	4781.71
439.14	4966.62
439.33	4873.00
439.52	4919.81
439.70	4873.00
439.89	5067.26
440.08	4849.59
440.26	5053.22
440.45	4929.17
440.63	5158.54
440.82	5242.80
441.01	5277.91
441.19	5207.69
441.38	5149.18
441.57	5238.12
441.75	5263.86
441.94	5355.15
442.12	5495.58
442.31	5380.89
442.50	5408.98
442.68	5380.89
442.87	5320.04
443.05	5390.25
443.24	5488.56
443.43	5631.33
443.61	5474.51
443.80	5767.08
443.98	5495.58
444.17	5313.02
444.35	5645.37
444.54	5654.73
444.73	5614.95
444.91	5643.03
445.10	5764.74
445.28	5600.90
445.47	5577.50
445.65	5584.52
445.84	5659.42
446.02	5731.97
446.21	5769.42
446.39	5844.32
446.58	5736.65
446.77	5853.68
446.95	5507.28
447.14	5570.48
447.32	5727.29
447.51	5729.63
447.69	5659.42
447.88	5657.07
448.06	5636.01
448.25	5565.79
448.43	5898.15
448.62	5846.66
448.80	5858.36
448.99	5968.37
449.17	5923.90
449.36	5841.98
449.54	5893.47
449.73	5942.62
449.91	6155.61
450.10	6150.93
450.28	6026.88
450.46	6146.25
450.65	6019.86
450.83	6207.10
451.02	6214.12
451.20	6197.74
451.39	6317.11
451.57	6197.74
451.76	6186.04
451.94	6171.99
452.13	6279.66
452.31	6366.26
452.49	6164.97
452.68	6296.04
452.86	6331.15
453.05	6286.68
453.23	6471.58
453.42	6307.74
453.60	6235.19
453.78	6377.96
453.97	6284.34
454.15	6392.00
454.34	6511.37
454.52	6464.56
454.70	6551.16
454.89	6544.14
455.07	6637.76
455.26	6651.80
455.44	6637.76
455.62	6717.34
455.81	6670.53
455.99	6895.22
456.17	6813.30
456.36	6803.94
456.54	6850.75
456.73	6876.49
456.91	7049.69
457.09	6974.80
457.28	6986.50
457.46	6911.60
457.64	6993.52
457.83	7122.25
458.01	7143.32
458.19	7234.60
458.38	7091.82
458.56	7236.94
458.74	7164.38
458.93	7293.11
459.11	7243.96
459.29	7250.98
459.48	7318.86
459.66	7262.68
459.84	7375.03
460.03	7405.46
460.21	7534.18
460.39	7475.67
460.57	7368.01
460.76	7466.31
460.94	7452.27
461.12	7463.97
461.31	7482.69
461.49	7529.50
461.67	7452.27
461.85	7599.72
462.04	7592.70
462.22	8032.72
462.40	7845.48
462.59	7768.24
462.77	7571.63
462.95	7866.54
463.13	7639.51
463.32	7789.30
463.50	7913.35
463.68	7913.35
463.86	8056.12
464.05	7854.84
464.23	7955.48
464.41	7859.52
464.59	7777.60
464.78	8121.66
464.96	7981.23
465.14	7808.03
465.32	8095.91
465.50	8208.26
465.69	8107.62
465.87	8023.36
466.05	8219.96
466.23	8051.44
466.41	8257.41
466.60	8468.06
466.78	8435.29
466.96	8107.62
467.14	8180.17
467.32	8552.32
467.51	8273.79
467.69	8262.09
467.87	8124.00
468.05	8615.51
468.23	8329.97
468.41	8301.88
468.60	8397.84
468.78	8561.68
468.96	8444.65
469.14	8491.46
469.32	8739.56
469.50	8386.14
469.69	8692.75
469.87	8788.71
470.05	8624.87
470.23	8819.14
470.41	8933.82
470.59	8901.06
470.77	9022.77
470.95	8861.27
471.14	8943.19
471.32	8858.93
471.50	8823.82
471.68	9261.50
471.86	9291.93
472.04	9076.60
472.22	9469.81
472.40	9167.88
472.58	9277.88
472.77	9174.90
472.95	9514.28
473.13	9575.13
473.31	9425.34
473.49	9277.88
473.67	9582.15
473.85	9525.98
474.03	9813.87
474.21	9863.02
474.39	9860.68
474.57	9680.46
474.75	9989.41
474.93	10022.17
475.12	10118.14
475.30	9947.28
475.48	9954.30
475.66	10076.01
475.84	10148.56
476.02	10228.14
476.20	10225.80
476.38	10429.43
476.56	10684.55
476.74	10441.13
476.92	10520.71
477.10	10450.49
477.28	10672.84
477.46	10604.97
477.64	10712.63
477.82	11159.67
478.00	11351.60
478.18	11152.65
478.36	11124.57
478.54	11461.60
478.72	11473.31
478.90	11796.30
479.08	11552.88
479.26	11850.13
479.44	11836.09
479.62	11812.68
479.80	12035.03
479.98	12056.10
480.16	12053.76
480.34	12013.97
480.52	12208.23
480.70	12327.60
480.88	12320.58
481.06	12542.93
481.24	12451.65
481.41	12393.14
481.59	12730.17
481.77	12774.64
481.95	12734.85
482.13	13151.47
482.31	13022.74
482.49	13287.22
482.67	13214.66
482.85	13476.80
483.03	13584.47
483.21	13444.04
483.39	13919.17
483.57	13610.22
483.74	14223.44
483.92	14052.58
484.10	14211.73
484.28	14171.94
484.46	14487.92
484.64	14654.09
484.82	14438.76
485.00	14609.62
485.18	14775.80
485.35	15070.71
485.53	15150.29
485.71	15227.53
485.89	15672.23
486.07	15220.50
486.25	15449.88
486.43	15300.08
486.61	15763.51
486.78	15845.43
486.96	15934.37
487.14	15815.00
487.32	16294.81
487.50	16376.73
487.68	16395.45
487.85	16624.83
488.03	16933.78
488.21	17163.15
488.39	16879.94
488.57	17390.18
488.75	17343.37
488.92	17406.56
489.10	17249.75
489.28	17722.54
489.46	17818.50
489.64	17722.54
489.81	18087.66
489.99	18071.28
490.17	18024.47
490.35	18677.48
490.53	18338.10
490.70	18745.35
490.88	18675.13
491.06	19019.19
491.24	19248.57
491.41	19119.84
491.59	19152.60
491.77	19220.48
491.95	19468.58
492.13	19482.62
492.30	19985.83
492.48	19403.04
492.66	19744.76
492.84	19847.74
493.01	20365.00
493.19	20250.32
493.37	20250.32
493.54	20540.54
493.72	20484.37
493.90	20622.46
494.08	20664.59
494.25	21032.05
494.43	21067.16
494.61	21486.12
494.79	21633.57
494.96	21397.18
495.14	21420.58
495.32	21774.00
495.49	21586.76
495.67	21656.98
495.85	22113.38
496.02	22260.84
496.20	22319.35
496.38	22361.48
496.55	22176.58
496.73	22937.25
496.91	22452.76
497.09	22808.52
497.26	22810.86
497.44	23030.87
497.62	22979.38
497.79	23513.02
497.97	23211.09
498.14	23440.47
498.32	23601.96
498.50	23840.70
498.67	24109.86
498.85	23906.23
499.03	24154.33
499.20	24060.71
499.38	24278.38
499.56	24278.38
499.73	24615.41
499.91	24636.48
500.08	24910.32
500.26	24755.85
500.44	24650.52
500.61	24720.74
500.79	24802.66
500.97	25369.07
501.14	25305.87
501.32	25343.32
501.49	25530.56
501.67	25310.55
501.84	25905.05
502.02	25633.55
502.20	25357.36
502.37	25748.23
502.55	25809.09
502.72	26005.69
502.90	26101.65
503.07	25954.20
503.25	26031.44
503.43	25834.83
503.60	26244.43
503.78	26476.14
503.95	26340.39
504.13	26555.72
504.30	26796.79
504.48	26995.74
504.65	26899.78
504.83	26948.93
505.01	27253.20
505.18	27239.15
505.36	27466.19
505.53	27377.25
505.71	27573.85
505.88	27779.82
506.06	27531.72
506.23	27697.90
506.41	27414.69
506.58	27861.74
506.76	27840.67
506.93	27936.63
507.11	28203.46
507.28	28074.73
507.46	28182.39
507.63	28320.48
507.81	28652.84
507.98	28219.84
508.16	28442.19
508.33	28320.48
508.50	28449.21
508.68	28833.06
508.85	29132.65
509.03	29036.69
509.20	29008.60
509.38	29188.82
509.55	29179.46
509.73	29338.62
509.90	29626.50
510.08	29106.90
510.25	29790.34
510.42	29837.15
510.60	29764.59
510.77	29680.33
510.95	30038.44
511.12	30061.84
511.30	29790.34
511.47	30132.06
511.64	30183.55
511.82	30366.11
511.99	30171.85
512.17	30799.11
512.34	30270.15
512.51	31049.55
512.69	30707.83
512.86	31105.72
513.04	31035.50
513.21	31028.48
513.38	31026.14
513.56	31278.92
513.73	31168.91
513.90	31112.74
514.08	30937.20
514.25	31232.11
514.43	31215.72
514.60	31704.90
514.77	31943.63
514.95	31655.75
515.12	31864.05
515.29	31913.20
515.47	32182.37
515.64	32147.26
515.81	31578.51
515.99	32367.27
516.16	32472.59
516.33	32467.91
516.51	32706.65
516.68	32526.42
516.85	32498.34
517.03	32762.82
517.20	32629.41
517.37	32098.11
517.54	32994.53
517.72	33324.55
517.89	33188.80
518.06	33464.98
518.24	33109.22
518.41	33317.53
518.58	32875.16
518.75	32912.61
518.93	33287.10
519.10	33432.21
519.27	33551.58
519.45	33560.94
519.62	33617.11
519.79	34342.68
519.96	34036.07
520.14	33890.96
520.31	33771.59
520.48	33806.70
520.65	34029.05
520.83	34031.39
521.00	34440.98
521.17	34106.29
521.34	34312.25
521.52	34330.98
521.69	34230.33
521.86	34677.38
522.03	34918.45
522.20	34972.28
522.38	35211.02
522.55	34979.31
522.72	34906.75
522.89	35086.97
523.07	35749.34
523.24	35330.39
523.41	35339.75
523.58	34979.31
523.75	35772.75
523.92	35409.96
524.10	35721.26
524.27	35505.93
524.44	35859.35
524.61	35634.66
524.78	35803.17
524.96	35800.83
525.13	36107.44
525.30	36215.11
525.47	36184.68
525.64	35557.42
525.81	36390.65
525.98	36638.75
526.16	36566.19
526.33	36491.29
526.50	36758.11
526.67	36589.59
526.84	36664.49
527.01	36479.59
527.18	36491.29
527.36	37186.43
527.53	37024.93
527.70	37228.56
527.87	37282.39
528.04	36898.55
528.21	36758.11
528.38	36872.80
528.55	37139.62
528.72	36659.81
528.89	37298.78
529.07	37022.59
529.24	37443.89
529.41	37600.71
529.58	37816.04
529.75	37179.41
529.92	37516.45
530.09	38080.52
530.26	37310.48
530.43	37984.55
530.60	37408.78
530.77	37223.88
530.94	37837.10
531.11	37699.01
531.28	37923.70
531.46	38492.45
531.63	38314.57
531.80	38171.80
531.97	38513.52
532.14	38478.41
532.31	38302.87
532.48	38628.20
532.65	38974.60
532.82	37895.61
532.99	38724.16
533.16	38806.08
533.33	38686.71
533.50	38836.51
533.67	38515.86
533.84	38656.29
534.01	38782.68
534.18	38930.13
534.35	39084.61
534.52	38726.50
534.69	39590.16
534.86	39393.56
535.03	39285.89
535.20	39281.21
535.37	39842.94
535.54	39636.97
535.71	38986.30
535.88	39576.12
536.05	39585.48
536.22	40030.18
536.38	39686.12
536.55	39274.19
536.72	39761.02
536.89	39842.94
537.06	40067.63
537.23	39789.11
537.40	40046.57
537.57	40062.95
537.74	39555.05
537.91	40587.23
538.08	40198.70
538.25	40079.33
538.42	40395.31
538.59	40617.66
538.75	40362.54
538.92	40893.84
539.09	40437.44
539.26	40627.02
539.43	40605.95
539.60	40627.02
539.77	40587.23
539.94	40680.85
540.11	41045.97
540.28	40786.18
540.44	41099.81
540.61	40598.93
540.78	40744.05
540.95	40755.75
541.12	40699.58
541.29	40875.12
541.46	40950.01
541.62	41151.30
541.79	41127.89
541.96	41242.58
542.13	41237.90
542.30	41383.01
542.47	41216.83
542.63	41486.00
542.80	41668.56
542.97	41713.03
543.14	42089.85
543.31	41764.52
543.48	41497.70
543.64	42136.66
543.81	42419.87
543.98	41893.25
544.15	42199.86
544.32	42146.03
544.48	42403.49
544.65	42120.28
544.82	42143.69
544.99	42344.97
545.16	42557.96
545.32	42124.96
545.49	42483.06
545.66	42335.61
545.83	42438.59
546.00	42466.68
546.16	42553.28
546.33	42508.81
546.50	42761.59
546.67	42597.75
546.83	42188.16
547.00	42476.04
547.17	42370.72
547.34	42616.47
547.50	43019.05
547.67	43175.86
547.84	43112.67
548.00	43196.93
548.17	43049.47
548.34	43058.84
548.51	43569.07
548.67	43166.50
548.84	43009.68
549.01	43222.67
549.18	43789.08
549.34	43590.14
549.51	43768.02
549.68	43372.47
549.84	43405.23
550.01	43859.30
550.18	43241.40
550.34	43768.02
550.51	43290.55
550.68	43512.90
550.84	43599.50
551.01	43742.27
551.18	43791.42
551.34	43693.12
551.51	43903.77
551.68	43597.16
551.84	43845.26
552.01	43966.96
552.18	43650.99
552.34	44203.36
552.51	44128.46
552.68	43966.96
552.84	44072.29
553.01	44535.71
553.18	43725.89
553.34	44201.02
553.51	44086.33
553.67	44491.24
553.84	44428.05
554.01	44126.12
554.17	44247.83
554.34	44313.36
554.51	44374.22
554.67	45006.16
554.84	44811.90
555.00	44254.85
555.17	44439.75
555.33	44865.73
555.50	44460.82
555.67	45031.91
555.83	44577.84
556.00	44821.26
556.16	45193.40
556.33	45319.79
556.50	44973.39
556.66	44678.49
556.83	44758.06
556.99	45226.17
557.16	45116.17
557.32	45118.51
557.49	45188.72
557.65	44650.40
557.82	45062.33
557.98	45446.18
558.15	44987.44
558.32	45731.73
558.48	45205.11
558.65	45078.72
558.81	45397.03
558.98	45439.16
559.14	45226.17
559.31	45759.81
559.47	45464.91
559.64	45390.01
559.80	45507.04
559.97	45272.98
560.13	45158.30
560.30	45315.11
560.46	45670.87
560.63	45237.87
560.79	45792.58
560.96	45942.38
561.12	45911.95
561.29	45808.96
561.45	45778.54
561.61	45268.30
561.78	45691.94
561.94	46054.72
562.11	45766.84
562.27	45743.43
562.44	45977.48
562.60	46141.32
562.77	45982.16
562.93	45617.04
563.10	45745.77
563.26	45935.35
563.42	46073.45
563.59	45808.96
563.75	45909.61
563.92	46167.07
564.08	45895.56
564.24	46195.15
564.41	46192.81
564.57	45928.33
564.74	46148.34
564.90	46113.23
565.07	46162.39
565.23	46131.96
565.39	46094.51
565.56	46307.50
565.72	46195.15
565.88	46211.54
566.05	46120.26
566.21	46167.07
566.38	45806.62
566.54	45907.27
566.70	46354.31
566.87	46274.73
567.03	46157.70
567.19	46548.57
567.36	46866.89
567.52	46300.48
567.68	46658.58
567.85	46681.98
568.01	46447.93
568.17	46190.47
568.34	46520.49
568.50	46513.47
568.66	46038.34
568.83	46464.32
568.99	46433.89
569.15	46354.31
569.32	46401.12
569.48	46256.01
569.64	46452.61
569.81	46553.26
569.97	46862.21
570.13	46724.11
570.30	46258.35
570.46	46789.65
570.62	46728.80
570.78	46745.18
570.95	46611.77
571.11	47203.92
571.27	46665.60
571.43	46658.58
571.60	46939.44
571.76	46712.41
571.92	46827.10
572.09	46312.18
572.25	46801.35
572.41	46588.36
572.57	46981.57
572.74	46808.37
572.90	46745.18
573.06	46876.25
573.22	47297.55
573.38	47049.45
573.55	46618.79
573.71	47098.60
573.87	47131.37
574.03	46391.76
574.20	47517.56
574.36	46969.87
574.52	46766.24
574.68	47138.39
574.84	46848.16
575.01	46735.82
575.17	47309.25
575.33	46913.70
575.49	47000.30
575.65	46770.93
575.82	47093.92
575.98	47105.62
576.14	47152.43
576.30	47360.74
576.46	47234.35
576.62	47185.20
576.79	47173.50
576.95	46733.48
577.11	47124.35
577.27	46958.17
577.43	47159.45
577.59	47054.13
577.75	47044.77
577.92	47093.92
578.08	46965.19
578.24	47026.04
578.40	47515.22
578.56	47323.29
578.72	47428.62
578.88	47271.80
579.04	47232.01
579.21	47276.48
579.37	47456.70
579.53	47178.18
579.69	46913.70
579.85	46972.21
580.01	47215.63
580.17	47318.61
580.33	47421.59
580.49	47070.51
580.65	47103.28
580.82	47110.30
580.98	46934.76
581.14	46766.24
581.30	47075.19
581.46	47100.94
581.62	47302.23
581.78	47210.95
581.94	47241.37
582.10	47388.83
582.26	47360.74
582.42	47292.86
582.58	47445.00
582.74	47311.59
582.90	46916.04
583.06	47316.27
583.22	46951.15
583.38	47147.75
583.54	47636.92
583.70	47482.45
583.86	47585.43
584.02	47536.28
584.18	47735.23
584.34	47353.72
584.50	47632.24
584.66	47833.53
584.82	47199.24
584.98	47515.22
585.14	47625.22
585.30	47407.55
585.46	47309.25
585.62	47517.56
585.78	47555.00
585.94	47339.68
586.10	47517.56
586.26	47004.98
586.42	47246.05
586.58	47379.46
586.74	47569.05
586.90	47393.51
587.06	47213.29
587.22	47540.96
587.38	47571.39
587.54	47477.77
587.70	47739.91
587.86	47728.20
588.02	47405.21
588.18	47564.37
588.34	47360.74
588.49	47760.97
588.65	47555.00
588.81	47337.33
588.97	47543.30
589.13	47550.32
589.29	47454.36
589.45	48020.77
589.61	47796.08
589.77	47812.46
589.93	47393.51
590.08	48062.90
590.24	48004.39
590.40	48018.43
590.56	47955.24
590.72	47892.04
590.88	47714.16
591.04	47578.41
591.20	47700.12
591.35	48137.80
591.51	48236.10
591.67	47948.21
591.83	48058.22
591.99	47519.90
592.15	47852.25
592.31	47870.98
592.46	47845.23
592.62	47868.64
592.78	48095.67
592.94	48369.51
593.10	48376.53
593.26	48023.11
593.41	48072.26
593.57	47887.36
593.73	48336.74
593.89	47863.96
594.05	48327.38
594.20	47742.25
594.36	48519.31
594.52	48292.27
594.68	48224.40
594.84	48257.17
594.99	48112.05
595.15	47964.60
595.31	48217.38
595.47	48299.30
595.62	48376.53
595.78	47887.36
595.94	47976.30
596.10	47908.43
596.25	48409.30
596.41	48177.59
596.57	47999.71
596.73	48009.07
596.88	48442.07
597.04	48062.90
597.20	48184.61
597.36	48100.35
597.51	48320.36
597.67	47980.98
597.83	48219.72
597.99	48112.05
598.14	48051.20
598.30	48060.56
598.46	47859.27
598.61	48067.58
598.77	48570.80
598.93	48683.14
599.09	48322.70
599.24	48678.46
599.40	48144.82
599.56	48261.85
599.71	48425.68
599.87	48809.53
600.03	48268.87
600.18	48226.74
600.34	48425.68
600.50	48413.98
600.65	48343.77
600.81	48472.49
600.97	48303.98
601.12	48531.01
601.28	48090.99
601.44	48385.89
601.59	48463.13
601.75	48437.39
601.91	48264.19
602.06	48196.31
602.22	48423.34
602.37	48350.79
602.53	48163.54
602.69	48535.69
602.84	48416.32
603.00	47887.36
603.16	48107.37
603.31	48643.35
603.47	48222.06
603.62	48479.52
603.78	48102.69
603.94	48343.77
604.09	48453.77
604.25	48236.10
604.40	48629.31
604.56	48383.55
604.71	48626.97
604.87	48289.93
605.03	47962.26
605.18	48332.06
605.34	48224.40
605.49	47812.46
605.65	48034.81
605.80	47950.56
605.96	48053.54
606.12	48311.00
606.27	48376.53
606.43	47861.61
606.58	48786.13
606.74	48140.14
606.89	48273.55
607.05	48559.09
607.20	48259.51
607.36	48371.85
607.51	48626.97
607.67	48072.26
607.82	47721.18
607.98	47936.51
608.13	48053.54
608.29	47821.83
608.44	48168.22
608.60	47957.58
608.75	48301.64
608.91	48205.67
609.06	47772.67
609.22	48161.20
609.37	48107.37
609.53	48598.88
609.68	48184.61
609.84	48116.73
609.99	48222.06
610.15	47866.30
610.30	48044.18
610.46	48011.41
610.61	47803.10
610.76	48236.10
610.92	47585.43
611.07	48034.81
611.23	48229.08
611.38	47920.13
611.54	48044.18
611.69	48215.04
611.84	48390.58
612.00	47861.61
612.15	47550.32
612.31	47791.40
612.46	47510.53
612.62	48090.99
612.77	47550.32
612.92	48041.84
613.08	48018.43
613.23	47908.43
613.39	47452.02
613.54	47576.07
613.69	47753.95
613.85	47686.07
614.00	47845.23
614.15	47721.18
614.31	47271.80
614.46	47599.47
614.62	47646.29
614.77	47737.57
614.92	47643.94
615.08	47737.57
615.23	47456.70
615.38	47622.88
615.54	47473.09
615.69	47339.68
615.84	47337.33
616.00	47402.87
616.15	47753.95
616.30	47667.35
616.46	47522.24
616.61	47126.69
616.76	47538.62
616.92	47760.97
617.07	47437.98
617.22	47166.48
617.37	46993.28
617.53	47571.39
617.68	47243.71
617.83	47349.04
617.99	47629.90
618.14	47430.96
618.29	46883.27
618.45	46784.97
618.60	47166.48
618.75	46918.38
618.90	47295.21
619.06	47098.60
619.21	47309.25
619.36	47379.46
619.51	46925.40
619.67	46742.84
619.82	47262.44
619.97	47250.74
620.12	47358.40
620.28	46913.70
620.43	47133.71
620.58	47091.58
620.73	46869.23
620.89	47232.01
621.04	47072.85
621.19	47100.94
621.34	47208.61
621.49	46803.69
621.65	46892.63
621.80	47061.15
621.95	46822.42
622.10	46623.47
622.25	46742.84
622.41	46827.10
622.56	46642.20
622.71	46494.74
622.86	46806.03
623.01	46553.26
623.16	46405.80
623.32	46735.82
623.47	46148.34
623.62	46555.60
623.77	46553.26
623.92	46653.90
624.07	46576.66
624.23	46845.82
624.38	46848.16
624.53	46644.54
624.68	45897.91
624.83	46665.60
624.98	46499.42
625.13	45762.15
625.29	46370.69
625.44	46522.83
625.59	46426.87
625.74	46146.00
625.89	46108.55
626.04	45893.22
626.19	46232.60
626.34	45925.99
626.49	46387.08
626.65	45425.12
626.80	46138.98
626.95	46103.87
627.10	45436.82
627.25	45951.74
627.40	46312.18
627.55	46078.13
627.70	45801.94
627.85	45858.12
628.00	46017.27
628.15	46218.56
628.30	45289.37
628.45	45198.09
628.60	45638.11
628.76	45439.16
628.91	45275.32
629.06	45024.89
629.21	45694.28
629.36	45326.81
629.51	45720.02
629.66	45715.34
629.81	45844.07
629.96	45722.37
630.11	45647.47
630.26	45118.51
630.41	45333.84
630.56	45181.70
630.71	45610.02
630.86	45574.91
631.01	45228.51
631.16	45090.42
631.31	45429.80
631.46	45464.91
631.61	45256.60
631.76	45523.42
631.91	45270.64
632.06	45588.95
632.21	45425.12
632.36	45500.01
632.51	44849.35
632.66	45392.35
632.81	45008.50
632.96	45291.71
633.10	44500.61
633.25	44673.81
633.40	45088.08
633.55	45298.73
633.70	45097.44
633.85	44896.16
634.00	44694.87
634.15	44692.53
634.30	44783.81
634.45	44921.90
634.60	44842.32
634.75	45141.91
634.90	44774.45
635.05	45235.53
635.19	44240.81
635.34	44690.19
635.49	44980.42
635.64	44657.42
635.79	44685.51
635.94	44479.54
636.09	44797.85
636.24	44872.75
636.39	44507.63
636.53	44966.37
636.68	44116.76
636.83	44098.03
636.98	44266.55
637.13	43915.47
637.28	44231.44
637.43	44374.22
637.57	44596.57
637.72	43941.22
637.87	44397.62
638.02	44231.44
638.17	44280.60
638.32	44339.11
638.46	44044.20
638.61	43945.90
638.76	43700.14
638.91	43817.17
639.06	43688.44
639.20	44114.42
639.35	43227.35
639.50	43620.56
639.65	43978.67
639.80	44346.13
639.94	44137.82
640.09	44133.14
640.24	44009.09
640.39	43552.69
640.54	43452.05
640.68	43636.95
640.83	43861.64
640.98	43620.56
641.13	43498.86
641.27	43555.03
641.42	44041.86
641.57	43739.93
641.72	43653.33
641.86	43517.58
642.01	42960.53
642.16	43494.18
642.31	42742.86
642.45	43634.61
642.60	42990.96
642.75	43674.40
642.90	43746.95
643.04	43035.43
643.19	43168.84
643.34	43173.52
643.48	42869.25
643.63	43320.98
643.78	43388.85
643.93	43416.94
644.07	43447.36
644.22	43180.54
644.37	43236.72
644.51	43454.39
644.66	43702.48
644.81	42761.59
644.95	43103.31
645.10	43475.45
645.25	43000.32
645.39	42993.30
645.54	42742.86
645.69	42511.15
645.83	42560.30
645.98	42583.71
646.13	42965.21
646.27	42918.40
646.42	42473.70
646.57	42660.94
646.71	43082.24
646.86	42953.51
647.00	42927.77
647.15	43171.18
647.30	42794.36
647.44	42789.67
647.59	42705.41
647.74	42246.67
647.88	42726.48
648.03	42925.42
648.17	42976.92
648.32	42770.95
648.47	42689.03
648.61	42855.21
648.76	42302.84
648.90	42543.92
649.05	42562.64
649.20	42260.71
649.34	42511.15
649.49	42337.95
649.63	42550.94
649.78	42155.39
649.92	42206.88
650.07	43126.71
650.21	42492.43
650.36	42775.63
650.51	42344.97
650.65	42536.90
650.80	42583.71
650.94	42337.95
651.09	42450.30
651.23	41879.21
651.38	42354.33
651.52	41848.78
651.67	41851.12
651.81	42188.16
651.96	41979.85
652.10	41675.58
652.25	41361.95
652.39	41851.12
652.54	41769.20
652.68	41848.78
652.83	41993.89
652.97	42576.69
653.12	41830.05
653.26	41752.82
653.41	41694.30
653.55	41783.24
653.70	42087.51
653.84	42211.56
653.99	41617.07
654.13	41558.55
654.27	41736.43
654.42	41811.33
654.56	41141.94
654.71	41647.49
654.85	41106.83
655.00	41572.60
655.14	41710.69
655.29	42096.88
655.43	41883.89
655.57	41474.29
655.72	40910.22
655.86	41361.95
656.01	40863.41
656.15	41481.31
656.30	41301.09
656.44	41256.62
656.58	41338.54
656.73	41041.29
656.87	40861.07
657.01	41081.08
657.16	41240.24
657.30	40463.18
657.45	40737.02
657.59	40980.44
657.73	40650.42
657.88	40545.10
658.02	41045.97
658.16	41090.44
658.31	40800.22
658.45	40891.50
658.60	40711.28
658.74	40926.61
658.88	40598.93
659.03	40425.73
659.17	40002.10
659.31	40343.81
659.46	40364.88
659.60	40559.14
659.74	40304.02
659.89	40182.32
660.03	40069.97
660.17	40128.48
660.32	39978.69
660.46	39831.24
660.60	39849.96
660.74	40140.19
660.89	40442.12
661.03	39768.04
661.17	39601.86
661.32	39938.90
661.46	39966.99
661.60	39608.89
661.74	39576.12
661.89	39225.04
662.03	39723.57
662.17	39374.83
662.31	39634.63
662.46	39618.25
662.60	39765.70
662.74	38855.23
662.88	39049.50
663.03	38646.93
663.17	38836.51
663.31	38511.17
663.45	39016.73
663.60	39255.46
663.74	38813.10
663.88	39253.12
664.02	38752.25
664.17	39119.71
664.31	38981.62
664.45	38457.34
664.59	38639.90
664.73	38457.34
664.88	38733.53
665.02	38000.94
665.16	38443.30
665.30	38314.57
665.44	38284.14
665.59	37844.12
665.73	38249.03
665.87	37970.51
666.01	38403.51
666.15	38040.73
666.29	37965.83
666.44	38022.00
666.58	38630.54
666.72	37682.62
666.86	37656.88
667.00	37759.86
667.14	37453.25
667.28	37556.24
667.43	37368.99
667.57	37462.61
667.71	37717.73
667.85	37329.20
667.99	37619.43
668.13	36966.42
668.27	37198.13
668.41	37146.64
668.56	36833.01
668.70	36790.88
668.84	36402.35
668.98	36154.26
669.12	37017.91
669.26	36526.40
669.40	36741.73
669.54	37038.98
669.68	36655.13
669.82	36357.88
669.96	35955.31
670.10	35997.44
670.25	36299.37
670.39	36341.50
670.53	36432.78
670.67	36531.08
670.81	36470.23
670.95	35950.63
671.09	36032.55
671.23	35786.79
671.37	35704.87
671.51	35725.94
671.65	36070.00
671.79	35419.33
671.93	35732.96
672.07	35875.73
672.21	35688.49
672.35	35147.82
672.49	35302.30
672.63	34883.34
672.77	34925.47
672.91	35140.80
673.05	34719.51
673.19	34623.54
673.33	34700.78
673.47	35093.99
673.61	34567.37
673.75	34361.40
673.89	34792.06
674.03	33930.75
674.17	34249.06
674.31	33916.70
674.45	34071.18
674.59	34153.10
674.73	34052.45
674.87	33668.61
675.01	33429.87
675.15	33551.58
675.29	33607.75
675.43	33937.77
675.56	33846.49
675.70	33359.66
675.84	33172.41
675.98	32135.56
676.12	33048.36
676.26	33467.32
676.40	33083.47
676.54	32648.13
676.68	32535.79
676.82	32240.88
676.96	32769.84
677.10	32968.79
677.23	32767.50
677.37	32552.17
677.51	32418.76
677.65	32051.30
677.79	32048.96
677.93	31971.72
678.07	32416.42
678.21	31613.62
678.34	31730.64
678.48	32018.53
678.62	31601.91
678.76	31545.74
678.90	31302.32
679.04	31292.96
679.18	31508.29
679.31	30951.24
679.45	30899.75
679.59	30817.83
679.73	30661.02
679.87	30693.79
680.00	30644.63
680.14	30473.78
680.28	30654.00
680.42	30258.45
680.56	30291.21
680.70	30230.36
680.83	29912.05
680.97	30008.01
681.11	29788.00
681.25	29394.79
681.39	29055.41
681.52	29750.55
681.66	29191.16
681.80	29081.16
681.94	29137.33
682.07	28797.95
682.21	28807.31
682.35	28603.69
682.49	28863.49
682.62	28662.20
682.76	28428.15
682.90	28671.56
683.04	28657.52
683.17	28608.37
683.31	27983.44
683.45	27749.39
683.59	27985.79
683.72	27667.47
683.86	27592.58
684.00	27484.91
684.13	27566.83
684.27	27405.33
684.41	27407.67
684.55	27786.84
684.68	27379.59
684.82	27009.78
684.96	27314.05
685.09	27157.24
685.23	26916.16
685.37	27136.17
685.50	27035.53
685.64	26698.49
685.78	26235.06
685.91	26422.31
686.05	25963.56
686.19	25584.40
686.32	26316.98
686.46	25537.59
686.60	25434.60
686.73	25546.95
686.87	25944.84
687.01	25827.81
687.14	25022.67
687.28	25376.09
687.42	25600.78
687.55	25212.25
687.69	25230.98
687.82	24865.85
687.96	25027.35
688.10	24687.97
688.23	24889.26
688.37	24856.49
688.50	25039.05
688.64	24624.78
688.78	24404.77
688.91	24374.34
689.05	24254.97
689.18	23868.78
689.32	23534.09
689.46	23854.74
689.59	23791.55
689.73	23939.00
689.86	24526.47
690.00	23566.85
690.13	23566.85
690.27	23438.12
690.41	23573.88
690.54	23264.92
690.68	23037.89
690.81	22965.34
690.95	23051.94
691.08	22759.37
691.22	22761.71
691.35	22476.16
691.49	22611.92
691.62	22551.06
691.76	22295.94
691.89	22005.72
692.03	21797.41
692.16	21891.03
692.30	22396.59
692.43	21818.47
692.57	21717.83
692.70	21591.44
692.84	21785.71
692.97	21387.82
693.11	21380.79
693.24	21165.46
693.38	21067.16
693.51	21015.67
693.65	20893.96
693.78	20833.11
693.92	20802.68
694.05	20786.30
694.19	20552.24
694.32	20423.51
694.45	20542.88
694.59	20517.14
694.72	20769.91
694.86	20577.99
694.99	19936.68
695.13	20201.16
695.26	19885.19
695.39	19953.07
695.53	19749.44
695.66	20009.24
695.80	19255.59
695.93	19243.88
696.07	19147.92
696.20	19089.41
696.33	19220.48
696.47	18794.50
696.60	19089.41
696.73	19190.05
696.87	19204.10
697.00	19194.73
697.14	18841.31
697.27	18443.42
697.40	18429.38
697.54	18562.79
697.67	18429.38
697.80	18588.53
697.94	18408.31
698.07	18178.94
698.21	17996.38
698.34	17949.57
698.47	18101.70
698.61	17376.14
698.74	17628.92
698.87	17701.47
699.01	17539.97
699.14	17582.10
699.27	17209.96
699.40	17001.65
699.54	17420.61
699.67	17249.75
699.80	17317.62
699.94	16826.11
700.07	17181.87
700.20	17020.38
700.34	16601.42
700.47	16847.18
700.60	16978.25
700.73	16945.48
700.87	16624.83
701.00	16152.04
701.13	16472.69
701.26	15932.03
701.40	16219.91
701.53	15843.09
701.66	15763.51
701.79	16086.50
701.93	15793.94
702.06	15648.82
702.19	15557.54
702.32	15824.36
702.46	15693.29
702.59	15487.32
702.72	15653.50
702.85	15536.48
702.99	15382.00
703.12	15122.20
703.25	15009.86
703.38	15037.94
703.51	15213.48
703.65	14761.76
703.78	14560.47
703.91	14649.41
704.04	14679.84
704.17	14469.19
704.31	14501.96
704.44	14511.32
704.57	14499.62
704.70	14244.50
704.83	14312.38
704.96	14001.08
705.10	13912.14
705.23	14228.12
>>>>>End Processed Spectral Data<<<<<
