SpectraSuite Data File
++++++++++++++++++++++++++++++++++++
Date: Fri Oct 25 10:43:50 EDT 2013
User: price-jones
Dark Spectrum Present: No
Reference Spectrum Present: No
Number of Sampled Component Spectra: 1
Spectrometers: USB2+H05261
Integration Time (usec): 100000 (USB2+H05261)
Spectra Averaged: 1 (USB2+H05261)
Boxcar Smoothing: 0 (USB2+H05261)
Correct for Electrical Dark: No (USB2+H05261)
Strobe/Lamp Enabled: No (USB2+H05261)
Correct for Detector Non-linearity: No (USB2+H05261)
Correct for Stray Light: No (USB2+H05261)
Number of Pixels in Processed Spectrum: 2048
>>>>>Begin Processed Spectral Data<<<<<
365.73	159.16
365.92	159.16
366.12	159.16
366.32	84.26
366.52	0.00
366.72	102.98
366.91	11.70
367.11	0.00
367.31	30.43
367.51	4.68
367.70	56.17
367.90	88.94
368.10	25.75
368.30	25.75
368.49	25.75
368.69	117.03
368.89	28.09
369.09	49.15
369.28	128.73
369.48	74.90
369.68	67.88
369.87	126.39
370.07	0.00
370.27	145.11
370.47	217.67
370.66	341.72
370.86	383.85
371.06	559.39
371.25	440.02
371.45	447.04
371.65	531.30
371.84	433.00
372.04	435.34
372.24	470.45
372.44	456.40
372.63	554.71
372.83	547.69
373.03	521.94
373.22	482.15
373.42	475.13
373.62	524.28
373.81	505.56
374.01	564.07
374.21	503.22
374.40	566.41
374.60	564.07
374.79	566.41
374.99	554.71
375.19	580.45
375.38	566.41
375.58	641.31
375.78	585.13
375.97	655.35
376.17	575.77
376.37	636.63
376.56	622.58
376.76	643.65
376.95	681.10
377.15	608.54
377.35	617.90
377.54	662.37
377.74	599.18
377.93	582.79
378.13	667.05
378.33	695.14
378.52	711.52
378.72	631.94
378.91	634.29
379.11	629.60
379.31	657.69
379.50	615.56
379.70	613.22
379.89	645.99
380.09	688.12
380.28	655.35
380.48	723.23
380.68	695.14
380.87	643.65
381.07	697.48
381.26	681.10
381.46	807.48
381.65	758.33
381.85	725.57
382.04	706.84
382.24	709.18
382.43	692.80
382.63	763.01
382.83	692.80
383.02	667.05
383.22	716.20
383.41	730.25
383.61	636.63
383.80	849.61
384.00	788.76
384.19	847.27
384.39	751.31
384.58	788.76
384.78	821.53
384.97	812.17
385.17	751.31
385.36	823.87
385.56	849.61
385.75	798.12
385.95	732.59
386.14	861.32
386.34	828.55
386.53	854.30
386.72	835.57
386.92	912.81
387.11	837.91
387.31	821.53
387.50	854.30
387.70	844.93
387.89	854.30
388.09	875.36
388.28	861.32
388.48	954.94
388.67	971.32
388.86	882.38
389.06	954.94
389.25	971.32
389.45	966.64
389.64	968.98
389.84	1032.18
390.03	938.55
390.22	1006.43
390.42	985.37
390.61	952.60
390.81	1018.13
391.00	985.37
391.19	1107.07
391.39	1015.79
391.58	1048.56
391.78	999.41
391.97	1020.47
392.16	973.66
392.36	1020.47
392.55	1027.50
392.75	1001.75
392.94	987.71
393.13	990.05
393.33	985.37
393.52	1123.46
393.71	1121.12
393.91	1093.03
394.10	1137.50
394.29	1060.26
394.49	1100.05
394.68	1238.14
394.88	1174.95
395.07	1301.34
395.26	1303.68
395.46	1203.04
395.65	1275.59
395.84	1184.31
396.04	1324.74
396.23	1203.04
396.42	1219.42
396.62	1184.31
396.81	1191.33
397.00	1226.44
397.19	1224.10
397.39	1320.06
397.58	1329.42
397.77	1439.43
397.97	1394.96
398.16	1493.26
398.35	1526.03
398.55	1432.41
398.74	1451.13
398.93	1521.35
399.12	1460.49
399.32	1495.60
399.51	1551.78
399.70	1563.48
399.90	1554.12
400.09	1610.29
400.28	1563.48
400.47	1671.14
400.67	1577.52
400.86	1600.93
401.05	1577.52
401.24	1664.12
401.44	1708.59
401.63	1806.89
401.82	1629.01
402.01	1626.67
402.21	1673.48
402.40	1699.23
402.59	1685.19
402.78	1746.04
402.97	1851.36
403.17	1729.66
403.36	1785.83
403.55	1727.32
403.74	1870.09
403.93	1830.30
404.13	1870.09
404.32	1823.28
404.51	1853.70
404.70	1966.05
404.89	1881.79
405.09	1966.05
405.28	2003.50
405.47	1898.17
405.66	1895.83
405.85	2001.16
406.05	1905.20
406.24	1916.90
406.43	1973.07
406.62	2076.06
406.81	2162.66
407.00	2062.01
407.20	1975.41
407.39	2024.56
407.58	2148.61
407.77	2080.74
407.96	2092.44
408.15	2221.17
408.34	2078.40
408.54	2253.94
408.73	2277.34
408.92	2246.91
409.11	2319.47
409.30	2251.60
409.49	2317.13
409.68	2256.28
409.87	2291.38
410.07	2235.21
410.26	2286.70
410.45	2361.60
410.64	2359.26
410.83	2499.69
411.02	2605.02
411.21	2574.59
411.40	2427.14
411.59	2574.59
411.78	2637.78
411.98	2569.91
412.17	2677.57
412.36	2590.97
412.55	2698.64
412.74	2698.64
412.93	2796.94
413.12	2731.41
413.31	2869.50
413.50	2848.43
413.69	2836.73
413.88	2869.50
414.07	2862.48
414.26	2925.67
414.45	2885.88
414.64	2899.92
414.83	3061.42
415.02	3066.10
415.22	2986.52
415.41	3040.36
415.60	3187.81
415.79	3208.87
415.98	3101.21
416.17	3213.56
416.36	3218.24
416.55	3342.28
416.74	3255.69
416.93	3108.23
417.12	3419.52
417.31	3279.09
417.50	3300.16
417.69	3361.01
417.88	3433.57
418.07	3449.95
418.26	3412.50
418.45	3492.08
418.64	3529.53
418.83	3613.79
419.02	3534.21
419.21	3597.40
419.39	3632.51
419.58	3459.31
419.77	3538.89
419.96	3597.40
420.15	3772.94
420.34	3726.13
420.53	3672.30
420.72	3702.73
420.91	3878.27
421.10	3871.25
421.29	3871.25
421.48	3845.50
421.67	3845.50
421.86	3782.31
422.05	3906.35
422.24	3545.91
422.43	3885.29
422.61	3878.27
422.80	3836.14
422.99	3824.44
423.18	3920.40
423.37	3927.42
423.56	3953.16
423.75	3868.91
423.94	3927.42
424.13	3506.12
424.32	3700.39
424.50	3934.44
424.69	4030.40
424.88	3964.87
425.07	4018.70
425.26	3871.25
425.45	3864.22
425.64	3934.44
425.83	3878.27
426.01	4077.21
426.20	3915.72
426.39	4067.85
426.58	3812.73
426.77	3826.78
426.96	4060.83
427.15	3873.59
427.33	3896.99
427.52	3985.93
427.71	4121.68
427.90	4194.24
428.09	4095.94
428.28	4091.26
428.46	4133.39
428.65	4212.96
428.84	4304.25
429.03	4313.61
429.22	4117.00
429.40	4203.60
429.59	4142.75
429.78	3988.27
429.97	3885.29
430.16	3988.27
430.34	4128.70
430.53	4147.43
430.72	4147.43
430.91	4196.58
431.10	4397.87
431.28	4592.13
431.47	4641.28
431.66	4645.96
431.85	4493.83
432.03	4409.57
432.22	4631.92
432.41	4482.13
432.60	4767.67
432.79	4683.41
432.97	4786.40
433.16	4898.74
433.35	4648.30
433.54	4734.90
433.72	4732.56
433.91	4748.95
434.10	4840.23
434.28	4823.84
434.47	4777.03
434.66	4903.42
434.85	4987.68
435.03	4809.80
435.22	4933.85
435.41	5177.26
435.59	5057.90
435.78	5235.78
435.97	5046.20
436.16	5093.01
436.34	5118.75
436.53	5174.92
436.72	5324.72
436.90	5055.56
437.09	5156.20
437.28	5102.37
437.46	5174.92
437.65	5093.01
437.84	5315.36
438.02	5301.31
438.21	5163.22
438.40	5102.37
438.58	5411.32
438.77	5427.70
438.96	5446.43
439.14	5413.66
439.33	5612.60
439.52	5437.06
439.70	5727.29
439.89	5795.17
440.08	5645.37
440.26	5764.74
440.45	5589.20
440.63	5760.06
440.82	6019.86
441.01	5966.03
441.19	6118.16
441.38	6293.70
441.57	6162.63
441.75	6239.87
441.94	6080.71
442.12	6207.10
442.31	6282.00
442.50	6237.53
442.68	6335.83
442.87	6120.50
443.05	6223.48
443.24	6494.99
443.43	6420.09
443.61	6312.42
443.80	6476.26
443.98	6305.40
444.17	6298.38
444.35	6452.86
444.54	6740.74
444.73	6562.86
444.91	6487.96
445.10	6539.46
445.28	6506.69
445.47	6312.42
445.65	6349.87
445.84	6478.60
446.02	6663.51
446.21	6546.48
446.39	6445.84
446.58	6574.56
446.77	6693.93
446.95	6574.56
447.14	6628.40
447.32	6897.56
447.51	6586.27
447.69	6665.85
447.88	6670.53
448.06	6707.98
448.25	6621.38
448.43	6759.47
448.62	6689.25
448.80	6754.79
448.99	6899.90
449.17	6864.79
449.36	6806.28
449.54	7005.22
449.73	6909.26
449.91	6956.07
450.10	7014.59
450.28	7185.44
450.46	7323.54
450.65	7246.30
450.83	7124.59
451.02	7152.68
451.20	7197.15
451.39	7265.02
451.57	7084.80
451.76	7112.89
451.94	7508.44
452.13	7131.61
452.31	7103.53
452.49	7089.48
452.68	7269.70
452.86	7005.22
453.05	7262.68
453.23	7325.88
453.42	7330.56
453.60	7222.89
453.78	7609.08
453.97	7555.25
454.15	7321.20
454.34	7304.81
454.52	7613.76
454.70	7569.29
454.89	7613.76
455.07	7527.16
455.26	7653.55
455.44	7751.85
455.62	7777.60
455.81	7903.99
455.99	7756.54
456.17	7772.92
456.36	7913.35
456.54	7999.95
456.73	7934.42
456.91	8351.03
457.09	7941.44
457.28	8271.45
457.46	8002.29
457.64	8016.33
457.83	8278.47
458.01	8114.64
458.19	8255.07
458.38	7995.27
458.56	8248.05
458.74	8339.33
458.93	8346.35
459.11	8351.03
459.29	8156.77
459.48	8376.78
459.66	8182.51
459.84	8353.37
460.03	8615.51
460.21	8381.46
460.39	8582.74
460.57	8531.25
460.76	8760.63
460.94	8596.79
461.12	8634.24
461.31	8631.90
461.49	8575.72
461.67	8482.10
461.85	9032.13
462.04	8856.59
462.22	9041.49
462.40	8947.87
462.59	8856.59
462.77	8872.97
462.95	8919.78
463.13	8912.76
463.32	8671.68
463.50	9100.00
463.68	8987.66
463.86	8982.98
464.05	8947.87
464.23	9104.68
464.41	8896.38
464.59	8739.56
464.78	9156.18
464.96	9144.47
465.14	9034.47
465.32	9263.84
465.50	9170.22
465.69	9284.91
465.87	9399.59
466.05	9186.60
466.23	9198.31
466.41	9247.46
466.60	9238.09
466.78	9121.07
466.96	9069.58
467.14	9284.91
467.32	9357.46
467.51	9479.17
467.69	9259.16
467.87	9441.72
468.05	9401.93
468.23	9205.33
468.41	9533.00
468.60	9504.92
468.78	9884.08
468.96	9446.40
469.14	9640.67
469.32	9612.58
469.50	9472.15
469.69	9591.52
469.87	9968.34
470.05	9823.23
470.23	9767.06
470.41	9783.44
470.59	9987.07
470.77	9640.67
470.95	10010.47
471.14	10022.17
471.32	10073.67
471.50	10253.89
471.68	10319.42
471.86	10415.38
472.04	10366.23
472.22	10485.60
472.40	10349.85
472.58	10155.58
472.77	10427.09
472.95	10359.21
473.13	10663.48
473.31	10614.33
473.49	10457.51
473.67	10621.35
473.85	10848.38
474.03	10918.60
474.21	10911.58
474.39	10860.09
474.57	11176.06
474.75	11023.92
474.93	11201.80
475.12	10967.75
475.30	11375.00
475.48	11265.00
475.66	11611.40
475.84	11449.90
476.02	11403.09
476.20	11353.94
476.38	11735.45
476.56	11786.94
476.74	11941.41
476.92	11538.84
477.10	11690.98
477.28	11960.14
477.46	12114.61
477.64	12285.47
477.82	12538.25
478.00	12561.66
478.18	12547.61
478.36	12484.42
478.54	12666.98
478.72	12666.98
478.90	12891.67
479.08	13109.34
479.26	13043.81
479.44	13104.66
479.62	13376.16
479.80	13165.51
479.98	13362.12
480.16	13685.11
480.34	13523.62
480.52	13596.17
480.70	13731.92
480.88	13600.85
481.06	13928.53
481.24	13947.25
481.41	14167.26
481.59	14338.12
481.77	14281.95
481.95	14207.05
482.13	14679.84
482.31	14668.14
482.49	14822.61
482.67	14658.78
482.85	14803.89
483.03	14991.13
483.21	15234.55
483.39	15382.00
483.57	15220.50
483.74	15632.44
483.92	15440.51
484.10	15524.77
484.28	15955.43
484.46	16212.89
484.64	16313.53
484.82	15990.54
485.00	15988.20
485.18	16348.64
485.35	16458.65
485.53	16039.69
485.71	16142.67
485.89	16442.26
486.07	16346.30
486.25	16379.07
486.43	16783.98
486.61	17027.40
486.78	16926.75
486.96	17483.80
487.14	17605.51
487.32	17788.07
487.50	17830.20
487.68	18108.72
487.85	18429.38
488.03	18286.61
488.21	18525.34
488.39	18377.89
488.57	18537.04
488.75	19016.85
488.92	19037.92
489.10	19426.45
489.28	19360.91
489.46	19346.87
489.64	19831.36
489.81	20013.92
489.99	20304.15
490.17	20222.23
490.35	20355.64
490.53	20367.34
490.70	20521.82
490.88	20552.24
491.06	20837.79
491.24	20786.30
491.41	20671.61
491.59	20793.32
491.77	20500.75
491.95	20746.51
492.13	21060.14
492.30	21537.61
492.48	21598.46
492.66	21956.57
492.84	22052.53
493.01	22113.38
493.19	22164.87
493.37	22485.53
493.54	22485.53
493.72	22232.75
493.90	22408.29
494.08	23241.52
494.25	23288.33
494.43	23131.51
494.61	23456.85
494.79	23250.88
494.96	23435.78
495.14	23606.64
495.32	23503.66
495.49	23985.81
495.67	23777.50
495.85	24105.18
496.02	24486.68
496.20	24584.99
496.38	24706.70
496.55	24676.27
496.73	25373.75
496.91	24783.93
497.09	24783.93
497.26	25015.65
497.44	24851.81
497.62	24788.61
497.79	25598.44
497.97	24961.81
498.14	25427.58
498.32	25891.01
498.50	25930.80
498.67	26015.05
498.85	26214.00
499.03	26185.91
499.20	26384.86
499.38	26314.64
499.56	26838.92
499.73	26412.95
499.91	26490.18
500.08	26448.05
500.26	26560.40
500.44	26328.69
500.61	26675.09
500.79	26647.00
500.97	27019.14
501.14	27393.63
501.32	27136.17
501.49	27044.89
501.67	26972.33
501.84	27218.09
502.02	27400.65
502.20	27599.60
502.37	27943.66
502.55	27737.69
502.72	27903.87
502.90	27962.38
503.07	28154.30
503.25	28067.70
503.43	27838.33
503.60	28060.68
503.78	28521.77
503.95	28353.25
504.13	28552.20
504.30	28725.39
504.48	28493.68
504.65	28816.68
504.83	28989.88
505.01	28994.56
505.18	29216.91
505.36	29244.99
505.53	29055.41
505.71	29465.00
505.88	29659.27
506.06	29046.05
506.23	29989.28
506.41	29345.64
506.58	29759.91
506.76	29624.16
506.93	29827.79
507.11	30216.32
507.28	30096.95
507.46	30026.73
507.63	29970.56
507.81	30146.10
507.98	30448.03
508.16	30377.81
508.33	30338.02
508.50	30785.07
508.68	30576.76
508.85	31182.96
509.03	31211.04
509.20	31054.23
509.38	31213.38
509.55	31290.62
509.73	31552.76
509.90	31653.40
510.08	31213.38
510.25	31178.28
510.42	31147.85
510.60	31154.87
510.77	31810.22
510.95	32016.19
511.12	31625.32
511.30	32084.06
511.47	32273.65
511.64	32297.05
511.82	32470.25
511.99	31967.04
512.17	31976.40
512.34	32055.98
512.51	32311.10
512.69	32517.06
512.86	32701.96
513.04	32804.95
513.21	33057.73
513.38	32732.39
513.56	32982.83
513.73	32870.48
513.90	32985.17
514.08	32727.71
514.25	33326.89
514.43	33074.11
514.60	32905.59
514.77	33251.99
514.95	33734.14
515.12	33322.21
515.29	33516.47
515.47	33663.93
515.64	33834.78
515.81	33858.19
515.99	33603.07
516.16	33413.49
516.33	33795.00
516.51	33827.76
516.68	33518.81
516.85	33095.18
517.03	33668.61
517.20	33668.61
517.37	34316.93
517.54	34527.58
517.72	34174.16
517.89	33666.27
518.06	34068.84
518.24	34096.92
518.41	34160.12
518.58	34485.45
518.75	34836.53
518.93	34616.52
519.10	34817.81
519.27	35150.17
519.45	35353.79
519.62	35236.77
519.79	35637.00
519.96	35459.12
520.14	35405.28
520.31	35115.06
520.48	35578.48
520.65	35426.35
520.83	36109.78
521.00	36154.26
521.17	35828.92
521.34	35765.73
521.52	36102.76
521.69	36163.62
521.86	36175.32
522.03	36524.06
522.20	36388.31
522.38	36535.76
522.55	36280.64
522.72	36275.96
522.89	36432.78
523.07	36360.22
523.24	36650.45
523.41	36837.69
523.58	36435.12
523.75	37209.84
523.92	37266.01
524.10	37581.98
524.27	37324.52
524.44	37233.24
524.61	37207.50
524.78	37673.26
524.96	37191.11
525.13	37258.99
525.30	37879.23
525.47	37563.26
525.64	37589.00
525.81	37696.67
525.98	37525.81
526.16	37132.60
526.33	37116.22
526.50	37439.21
526.67	37092.81
526.84	37481.34
527.01	36809.61
527.18	37633.47
527.36	38209.25
527.53	37972.85
527.70	38223.29
527.87	38485.43
528.04	38026.68
528.21	38363.72
528.38	38710.12
528.55	38946.51
528.72	38501.81
528.89	39194.61
529.07	39105.67
529.24	38469.04
529.41	38878.64
529.58	38749.91
529.75	38581.39
529.92	38721.82
530.09	39328.02
530.26	39175.89
530.43	39529.31
530.60	39269.51
530.77	38831.83
530.94	39709.53
531.11	39065.88
531.28	39447.39
531.46	39686.12
531.63	39686.12
531.80	39557.39
531.97	39316.32
532.14	39442.71
532.31	38761.61
532.48	39566.76
532.65	39412.28
532.82	39110.35
532.99	39445.05
533.16	39990.39
533.33	39875.71
533.50	39941.24
533.67	39512.92
533.84	39761.02
534.01	40147.21
534.18	40055.93
534.35	40416.37
534.52	40236.15
534.69	40615.32
534.86	40254.87
535.03	40418.71
535.20	41207.47
535.37	40751.07
535.54	40645.74
535.71	40669.15
535.88	40538.08
536.05	40680.85
536.22	40992.14
536.38	41074.06
536.55	40751.07
536.72	40748.73
536.89	40849.37
537.06	40704.26
537.23	40935.97
537.40	40451.48
537.57	40942.99
537.74	41041.29
537.91	41020.23
538.08	40877.46
538.25	40559.14
538.42	41013.21
538.59	41125.55
538.75	40952.35
538.92	41336.20
539.09	41195.77
539.26	40748.73
539.43	41502.38
539.60	41235.56
539.77	41846.44
539.94	41399.40
540.11	41425.14
540.28	41436.84
540.44	41551.53
540.61	41462.59
540.78	41083.42
540.95	41848.78
541.12	41619.41
541.29	41514.08
541.46	41652.17
541.62	41457.91
541.79	42094.53
541.96	41544.51
542.13	42052.41
542.30	41977.51
542.47	42202.20
542.63	42047.72
542.80	42181.13
542.97	42213.90
543.14	42815.42
543.31	42682.01
543.48	42747.54
543.64	42862.23
543.81	42630.52
543.98	42787.33
544.15	42281.78
544.32	42857.55
544.48	42855.21
544.65	43236.72
544.82	42930.11
544.99	42656.26
545.16	42885.64
545.32	42796.70
545.49	43086.92
545.66	43370.13
545.83	43454.39
546.00	43393.53
546.16	43419.28
546.33	43051.81
546.50	42817.76
546.67	43578.43
546.83	42632.86
547.00	43339.70
547.17	43335.02
547.34	42955.85
547.50	43356.08
547.67	43416.94
547.84	43339.70
548.00	43915.47
548.17	43548.01
548.34	43618.22
548.51	43796.10
548.67	43583.12
548.84	43728.23
549.01	43489.49
549.18	43260.12
549.34	43913.13
549.51	43803.13
549.68	43540.99
549.84	44112.08
550.01	44074.63
550.18	43632.27
550.34	43512.90
550.51	44140.16
550.68	43470.77
550.84	43283.53
551.01	44013.77
551.18	43786.74
551.34	43922.49
551.51	44177.61
551.68	44048.88
551.84	44334.43
552.01	44009.09
552.18	44481.88
552.34	44037.18
552.51	44259.53
552.68	44460.82
552.84	44465.50
553.01	44158.89
553.18	44460.82
553.34	44472.52
553.51	43997.39
553.67	44685.51
553.84	44903.18
554.01	44626.99
554.17	45001.48
554.34	44744.02
554.51	44942.97
554.67	44952.33
554.84	45141.91
555.00	44676.15
555.17	44332.09
555.33	44289.96
555.50	44659.76
555.67	44343.79
555.83	44533.37
556.00	44886.79
556.16	44957.01
556.33	44755.72
556.50	44886.79
556.66	44758.06
556.83	44301.66
556.99	44861.05
557.16	45057.65
557.32	45162.98
557.49	45177.02
557.65	44823.60
557.82	44975.73
557.98	45050.63
558.15	44996.80
558.32	45233.19
558.48	44973.39
558.65	44957.01
558.81	44737.00
558.98	44987.44
559.14	45188.72
559.31	44605.93
559.47	45116.17
559.64	45366.60
559.80	45413.41
559.97	45375.97
560.13	44912.54
560.30	45123.19
560.46	45242.56
560.63	45434.48
560.79	45621.72
560.96	45399.37
561.12	45226.17
561.29	44797.85
561.45	45408.73
561.61	45464.91
561.78	45067.02
561.94	45139.57
562.11	45408.73
562.27	45638.11
562.44	45401.71
562.60	45574.91
562.77	45635.77
562.93	45490.65
563.10	45387.67
563.26	45425.12
563.42	45759.81
563.59	45490.65
563.75	45848.75
563.92	45942.38
564.08	45457.88
564.24	45656.83
564.41	45640.45
564.57	45563.21
564.74	45366.60
564.90	45787.90
565.07	45366.60
565.23	45425.12
565.39	45284.68
565.56	45858.12
565.72	45045.95
565.88	45970.46
566.05	45455.54
566.21	45406.39
566.38	45680.24
566.54	45373.63
566.70	45858.12
566.87	46127.28
567.03	46246.65
567.19	45874.50
567.36	45902.59
567.52	45729.39
567.68	45900.25
567.85	45483.63
568.01	45883.86
568.17	45799.60
568.34	46103.87
568.50	45954.08
568.66	45727.05
568.83	45998.55
568.99	45301.07
569.15	45694.28
569.32	45429.80
569.48	46036.00
569.64	46026.63
569.81	45951.74
569.97	45970.46
570.13	46131.96
570.30	45492.99
570.46	45382.99
570.62	45237.87
570.78	45446.18
570.95	45485.97
571.11	45750.45
571.27	45523.42
571.43	45272.98
571.60	45572.57
571.76	45787.90
571.92	45799.60
572.09	46010.25
572.25	45925.99
572.41	45923.65
572.57	45787.90
572.74	46272.39
572.90	45691.94
573.06	45968.12
573.22	46106.21
573.38	45598.32
573.55	45691.94
573.71	46227.92
573.87	45773.86
574.03	45591.30
574.20	45872.16
574.36	46300.48
574.52	45823.01
574.68	46050.04
574.84	46131.96
575.01	45827.69
575.17	46232.60
575.33	45666.19
575.49	45191.06
575.65	45954.08
575.82	46251.33
575.98	46017.27
576.14	46284.09
576.30	46319.20
576.46	45851.09
576.62	45832.37
576.79	45780.88
576.95	45991.53
577.11	45591.30
577.27	46469.00
577.43	46387.08
577.59	45766.84
577.75	45827.69
577.92	45715.34
578.08	45722.37
578.24	45830.03
578.40	46366.01
578.56	46316.86
578.72	45918.97
578.88	46146.00
579.04	46555.60
579.21	45518.74
579.37	45689.60
579.53	45827.69
579.69	45787.90
579.85	46120.26
580.01	46239.62
580.17	46202.18
580.33	46487.72
580.49	45773.86
580.65	46014.93
580.82	46150.68
580.98	45890.88
581.14	45792.58
581.30	45954.08
581.46	45895.56
581.62	45661.51
581.78	46007.91
581.94	46366.01
582.10	46232.60
582.26	46192.81
582.42	46309.84
582.58	46574.32
582.74	46181.11
582.90	45963.44
583.06	46574.32
583.22	46293.46
583.38	46305.16
583.54	46490.06
583.70	46358.99
583.86	46078.13
584.02	46134.30
584.18	46529.85
584.34	45886.20
584.50	46122.60
584.66	45783.22
584.82	45656.83
584.98	46396.44
585.14	46108.55
585.30	46136.64
585.46	46082.81
585.62	45933.01
585.78	46138.98
585.94	45855.78
586.10	45834.71
586.26	46248.99
586.42	46513.47
586.58	46466.66
586.74	46349.63
586.90	45984.51
587.06	46078.13
587.22	46422.19
587.38	46059.40
587.54	46576.66
587.70	46251.33
587.86	45954.08
588.02	46000.89
588.18	46464.32
588.34	45797.26
588.49	45647.47
588.65	45591.30
588.81	45752.79
588.97	45867.48
589.13	45605.34
589.29	45820.67
589.45	46157.70
589.61	45933.01
589.77	45902.59
589.93	46012.59
590.08	46274.73
590.24	46497.08
590.40	46454.95
590.56	46391.76
590.72	46141.32
590.88	46082.81
591.04	46265.37
591.20	46838.80
591.35	46595.38
591.51	46782.63
591.67	46085.15
591.83	46148.34
591.99	45883.86
592.15	46543.89
592.31	46246.65
592.46	46134.30
592.62	46649.22
592.78	46094.51
592.94	46279.41
593.10	46314.52
593.26	46307.50
593.41	46007.91
593.57	46237.28
593.73	46761.56
593.89	46356.65
594.05	46375.37
594.20	46419.84
594.36	46391.76
594.52	46380.06
594.68	46265.37
594.84	45949.40
594.99	46206.86
595.15	45750.45
595.31	46258.35
595.47	46469.00
595.62	46316.86
595.78	46314.52
595.94	46642.20
596.10	46710.07
596.25	46419.84
596.41	46567.30
596.57	46143.66
596.73	46417.50
596.88	46419.84
597.04	46553.26
597.20	46511.13
597.36	46101.53
597.51	46916.04
597.67	46036.00
597.83	46178.77
597.99	46567.30
598.14	46520.49
598.30	46192.81
598.46	46387.08
598.61	46630.49
598.77	46122.60
598.93	46403.46
599.09	46122.60
599.24	46838.80
599.40	46518.15
599.56	46747.52
599.71	46052.38
599.87	46745.18
600.03	46684.33
600.18	46330.90
600.34	46464.32
600.50	46361.33
600.65	46426.87
600.81	46478.36
600.97	46438.57
601.12	46370.69
601.28	46497.08
601.44	46277.07
601.59	46330.90
601.75	46176.43
601.91	46557.94
602.06	45937.69
602.22	46501.76
602.37	46061.74
602.53	46410.48
602.69	46429.21
602.84	46108.55
603.00	46047.70
603.16	46190.47
603.31	46291.12
603.47	46251.33
603.62	46466.66
603.78	46529.85
603.94	46340.27
604.09	46368.35
604.25	46571.98
604.40	46412.82
604.56	46061.74
604.71	46405.80
604.87	46103.87
605.03	46639.86
605.18	45998.55
605.34	45874.50
605.49	45895.56
605.65	46550.91
605.80	46000.89
605.96	46279.41
606.12	45977.48
606.27	46302.82
606.43	45972.80
606.58	46272.39
606.74	45958.76
606.89	45900.25
607.05	46071.10
607.20	46403.46
607.36	46040.68
607.51	46464.32
607.67	46712.41
607.82	46000.89
607.98	46169.41
608.13	45860.46
608.29	45687.26
608.44	45385.33
608.60	45865.14
608.75	45448.52
608.91	45911.95
609.06	45668.53
609.22	45893.22
609.37	45867.48
609.53	45792.58
609.68	46050.04
609.84	45783.22
609.99	45631.08
610.15	45443.84
610.30	45303.41
610.46	45434.48
610.61	45539.80
610.76	45935.35
610.92	46532.19
611.07	45773.86
611.23	45731.73
611.38	45457.88
611.54	45577.25
611.69	45081.06
611.84	45455.54
612.00	45090.42
612.15	45469.59
612.31	45258.94
612.46	45347.88
612.62	45698.96
612.77	45460.23
612.92	45476.61
613.08	45535.12
613.23	44949.99
613.39	45008.50
613.54	45153.62
613.69	45375.97
613.85	44786.15
614.00	45523.42
614.15	45368.94
614.31	45083.40
614.46	45205.11
614.62	45010.84
614.77	44980.42
614.92	45352.56
615.08	45029.57
615.23	45099.78
615.38	45071.70
615.54	44577.84
615.69	44875.09
615.84	45153.62
616.00	45394.69
616.15	44947.65
616.30	45287.03
616.46	44753.38
616.61	44856.37
616.76	44732.32
616.92	44481.88
617.07	44591.89
617.22	44823.60
617.37	44818.92
617.53	45181.70
617.68	44589.55
617.83	44926.58
617.99	44406.98
618.14	44453.79
618.29	45017.86
618.45	44545.08
618.60	44119.10
618.75	44226.76
618.90	44336.77
619.06	44451.45
619.21	44547.42
619.36	44683.17
619.51	44442.09
619.67	43969.30
619.82	44470.18
619.97	44774.45
620.12	44184.63
620.28	43906.11
620.43	44065.27
620.58	44266.55
620.73	44554.44
620.89	44538.05
621.04	44514.65
621.19	44016.11
621.34	43999.73
621.49	44076.97
621.65	43735.25
621.80	44020.80
621.95	44039.52
622.10	44210.38
622.25	44191.65
622.41	43522.26
622.56	43866.32
622.71	44147.18
622.86	43784.40
623.01	43744.61
623.16	43669.72
623.32	43540.99
623.47	43543.33
623.62	43636.95
623.77	43927.17
623.92	43716.53
624.07	43772.70
624.23	43533.96
624.38	43997.39
624.53	43477.79
624.68	43391.19
624.83	43803.13
624.98	43466.09
625.13	43143.09
625.29	43159.48
625.44	43262.46
625.59	43243.74
625.74	43295.23
625.89	42988.62
626.04	42974.58
626.19	43590.14
626.34	43115.01
626.49	43180.54
626.65	43480.13
626.80	43210.97
626.95	42916.06
627.10	42497.11
627.25	42817.76
627.40	42703.07
627.55	42487.74
627.70	42347.31
627.85	42822.44
628.00	42667.97
628.15	42611.79
628.30	42876.27
628.45	43063.52
628.60	42838.83
628.76	42717.12
628.91	42363.70
629.06	42064.11
629.21	42354.33
629.36	42597.75
629.51	42188.16
629.66	42057.09
629.81	42384.76
629.96	42373.06
630.11	42506.47
630.26	42646.90
630.41	42579.03
630.56	42454.98
630.71	42450.30
630.86	42272.42
631.01	42085.17
631.16	42431.57
631.31	41745.80
631.46	41701.32
631.61	42206.88
631.76	42080.49
631.91	42241.99
632.06	42361.36
632.21	42354.33
632.36	41986.87
632.51	42267.73
632.66	41757.50
632.81	41336.20
632.96	42211.56
633.10	42148.37
633.25	41832.39
633.40	42146.03
633.55	42000.91
633.70	41893.25
633.85	42211.56
634.00	41804.31
634.15	41476.63
634.30	41668.56
634.45	41418.12
634.60	41720.05
634.75	41869.84
634.90	41432.16
635.05	41635.79
635.19	41390.03
635.34	41886.23
635.49	41441.53
635.64	41081.08
635.79	41326.84
635.94	41312.80
636.09	41289.39
636.24	40545.10
636.39	40751.07
636.53	41144.28
636.68	41006.19
636.83	41038.95
636.98	41462.59
637.13	41085.76
637.28	41294.07
637.43	41507.06
637.57	41429.82
637.72	41242.58
637.87	41172.36
638.02	41179.39
638.17	41064.70
638.32	41261.30
638.46	41209.81
638.61	40751.07
638.76	41102.15
638.91	40870.43
639.06	40800.22
639.20	41715.37
639.35	41460.25
639.50	40863.41
639.65	40952.35
639.80	40512.33
639.94	40730.00
640.09	40994.48
640.24	40629.36
640.39	40226.79
640.54	40648.08
640.68	40692.55
640.83	40641.06
640.98	40128.48
641.13	40357.86
641.27	40486.59
641.42	40374.24
641.57	40231.47
641.72	40699.58
641.86	40179.98
642.01	40163.59
642.16	40060.61
642.31	39854.64
642.45	40353.18
642.60	40205.72
642.75	40109.76
642.90	40467.86
643.04	40308.71
643.19	39807.83
643.34	39910.82
643.48	39988.05
643.63	40168.27
643.78	39302.28
643.93	40156.57
644.07	39938.90
644.22	39840.60
644.37	39461.43
644.51	40168.27
644.66	39318.66
644.81	39723.57
644.95	39861.66
645.10	39854.64
645.25	40238.49
645.39	39552.71
645.54	39859.32
645.69	39768.04
645.83	39321.00
645.98	39445.05
646.13	39250.78
646.27	39470.79
646.42	39412.28
646.57	39363.13
646.71	39084.61
646.86	39480.16
647.00	39250.78
647.15	39620.59
647.30	39608.89
647.44	39255.46
647.59	39384.19
647.74	38717.14
647.88	39136.10
648.03	38969.92
648.17	39061.20
648.32	38909.07
648.47	39084.61
648.61	38998.01
648.76	39484.84
648.90	39042.48
649.05	38770.97
649.20	38983.96
649.34	38967.58
649.49	38731.18
649.63	38904.38
649.78	38960.56
649.92	38962.90
650.07	39145.46
650.21	38768.63
650.36	38946.51
650.51	38696.08
650.65	39115.03
650.80	39391.22
650.94	38888.00
651.09	38719.48
651.23	38810.76
651.38	38810.76
651.52	37991.58
651.67	38148.39
651.81	38738.21
651.96	38590.75
652.10	38195.20
652.25	38665.65
652.39	38225.63
652.54	38443.30
652.68	38864.60
652.83	38689.06
652.97	38302.87
653.12	38314.57
653.26	38181.16
653.41	38239.67
653.55	38106.26
653.70	37846.46
653.84	38127.33
653.99	38190.52
654.13	37912.00
654.27	38167.12
654.42	37954.13
654.56	38026.68
654.71	38033.71
654.85	38132.01
655.00	37940.08
655.14	38036.05
655.29	37399.42
655.43	37596.03
655.57	37315.16
655.72	37273.03
655.86	37474.32
656.01	37471.98
656.15	36945.36
656.30	37191.11
656.44	37263.67
656.58	37291.76
656.73	37270.69
656.87	36975.78
657.01	37198.13
657.16	37708.37
657.30	37113.87
657.45	37102.17
657.59	36978.12
657.73	37322.18
657.88	37596.03
658.02	37635.81
658.16	37378.36
658.31	37919.02
658.45	37516.45
658.60	37268.35
658.74	37357.29
658.88	37301.12
659.03	36645.77
659.17	36720.66
659.31	37050.68
659.46	36818.97
659.60	37092.81
659.74	37034.30
659.89	36840.03
660.03	36697.26
660.17	36833.01
660.32	36486.61
660.46	36786.20
660.60	36751.09
660.74	36582.57
660.89	36432.78
661.03	36079.36
661.17	36584.91
661.32	36067.66
661.46	36552.15
661.60	36210.43
661.74	35988.08
661.89	36191.70
662.03	36105.10
662.17	36055.95
662.31	36135.53
662.46	36058.29
662.60	36645.77
662.74	36170.64
662.88	35967.01
663.03	35751.68
663.17	35793.81
663.31	35730.62
663.45	35646.36
663.60	35482.52
663.74	35477.84
663.88	35297.62
664.02	34892.71
664.17	35421.67
664.31	35377.20
664.45	35379.54
664.59	35372.52
664.73	35229.74
664.88	35559.76
665.02	34651.63
665.16	34820.15
665.30	34754.61
665.44	34710.14
665.59	34497.16
665.73	34726.53
665.87	34789.72
666.01	34927.81
666.15	34700.78
666.29	34859.94
666.44	34703.12
666.58	34384.81
666.72	34419.92
666.86	35091.65
667.00	34298.21
667.14	34082.88
667.28	34148.42
667.43	34132.03
667.57	34558.01
667.71	34122.67
667.85	34387.15
667.99	34010.32
668.13	33848.83
668.27	34593.12
668.41	34232.68
668.56	33563.28
668.70	33654.56
668.84	33429.87
668.98	32931.34
669.12	33507.11
669.26	33734.14
669.40	33441.57
669.54	33439.23
669.68	33174.75
669.82	33050.70
669.96	33371.36
670.10	33209.86
670.25	33446.26
670.39	33228.59
670.53	32844.74
670.67	32992.19
670.81	32854.10
670.95	32781.54
671.09	33043.68
671.23	32575.58
671.37	32788.56
671.51	32400.04
671.65	32730.05
671.79	32589.62
671.93	32212.79
672.07	32680.90
672.21	32175.34
672.35	32360.25
672.49	32158.96
672.63	32175.34
672.77	32355.57
672.91	32252.58
673.05	31981.08
673.19	31716.60
673.33	31716.60
673.47	31601.91
673.61	31644.04
673.75	31541.06
673.89	31012.10
674.03	31246.15
674.17	31267.22
674.31	31386.58
674.45	31239.13
674.59	31440.42
674.73	31241.47
674.87	31503.61
675.01	31414.67
675.15	31318.71
675.29	30810.81
675.43	30885.71
675.56	30988.69
675.70	30637.61
675.84	30602.50
675.98	29865.24
676.12	30384.83
676.26	30611.87
676.40	30251.42
676.54	30443.35
676.68	30073.54
676.82	29699.06
676.96	29788.00
677.10	29930.77
677.23	29757.57
677.37	29692.04
677.51	29582.03
677.65	29486.07
677.79	29078.82
677.93	29340.96
678.07	28863.49
678.21	28826.04
678.34	28938.38
678.48	28917.32
678.62	28460.91
678.76	28535.81
678.90	28463.25
679.04	28201.11
679.18	28063.02
679.31	28198.77
679.45	27419.38
679.59	28254.95
679.73	28006.85
679.87	27679.18
680.00	28070.04
680.14	27857.06
680.28	27957.70
680.42	27419.38
680.56	27971.74
680.70	27611.30
680.83	27604.28
680.97	27314.05
681.11	27316.39
681.25	27388.95
681.39	26895.10
681.52	27260.22
681.66	27051.91
681.80	26988.72
681.94	26962.97
682.07	26820.20
682.21	26422.31
682.35	26717.22
682.49	26518.27
682.62	26405.92
682.76	26197.62
682.90	26129.74
683.04	26272.51
683.17	25912.07
683.31	25811.43
683.45	26099.31
683.59	25656.95
683.72	25699.08
683.86	25862.92
684.00	25659.29
684.13	25436.94
684.27	25186.50
684.41	25235.66
684.55	25212.25
684.68	25219.27
684.82	25067.14
684.96	24943.09
685.09	24886.92
685.23	24755.85
685.37	24680.95
685.50	24683.29
685.64	24517.11
685.78	24741.80
685.91	24446.90
686.05	23843.04
686.19	24037.30
686.32	23578.56
686.46	23358.55
686.60	23257.90
686.73	23346.84
686.87	23077.68
687.01	23133.86
687.14	23044.91
687.28	22895.12
687.42	23035.55
687.55	23028.53
687.69	23054.28
687.82	22972.36
687.96	23108.11
688.10	22490.21
688.23	22632.98
688.37	22356.80
688.50	22412.97
688.64	22464.46
688.78	22455.10
688.91	22277.22
689.05	22197.64
689.18	22541.70
689.32	21809.11
689.46	22331.05
689.59	22349.78
689.73	22108.70
689.86	21788.05
690.00	21865.28
690.13	21696.77
690.27	21776.34
690.41	21425.26
690.54	21006.31
690.68	21284.83
690.81	21268.45
690.95	21551.65
691.08	21186.53
691.22	21053.12
691.35	21174.83
691.49	21109.29
691.62	20931.41
691.76	20851.83
691.89	20826.09
692.03	20472.67
692.16	20657.57
692.30	20629.48
692.43	20561.61
692.57	20222.23
692.70	20032.65
692.84	19917.96
692.97	19716.67
693.11	20093.50
693.24	19798.59
693.38	19433.47
693.51	19616.03
693.65	19742.42
693.78	19683.91
693.92	19552.84
694.05	19576.24
694.19	19016.85
694.32	19204.10
694.45	19084.73
694.59	19325.80
694.72	19112.81
694.86	18801.52
694.99	18513.64
695.13	18707.90
695.26	18747.69
695.39	18675.13
695.53	18843.65
695.66	18855.36
695.80	18651.73
695.93	18586.19
696.07	18441.08
696.20	18546.40
696.33	18338.10
696.47	18052.55
696.60	17788.07
696.73	17809.14
696.87	17635.94
697.00	17717.86
697.14	17561.04
697.27	17589.13
697.40	17458.06
697.54	17357.41
697.67	17287.20
697.80	17261.45
697.94	16854.20
698.07	17128.04
698.21	17479.12
698.34	17128.04
698.47	17226.34
698.61	16819.09
698.74	16697.38
698.87	16875.26
699.01	16559.29
699.14	16269.06
699.27	16453.97
699.40	16271.40
699.54	16077.14
699.67	16145.02
699.80	16365.03
699.94	16074.80
700.07	16032.67
700.20	16112.25
700.34	16009.26
700.47	16009.26
700.60	15803.30
700.73	15768.19
700.87	15910.96
701.00	15487.32
701.13	15482.64
701.26	15288.38
701.40	15410.09
701.53	15410.09
701.66	15412.43
701.79	14979.43
701.93	14981.77
702.06	14965.39
702.19	14876.44
702.32	14771.12
702.46	14824.95
702.59	14993.47
702.72	14970.07
702.85	14764.10
702.99	14775.80
703.12	14597.92
703.25	14331.10
703.38	14373.23
703.51	14295.99
703.65	14335.78
703.78	14295.99
703.91	13909.80
704.04	14211.73
704.17	13984.70
704.31	13912.14
704.44	13900.44
704.57	14038.53
704.70	13432.33
704.83	13687.45
704.96	13472.12
705.10	13635.96
705.23	13720.22
>>>>>End Processed Spectral Data<<<<<
