SpectraSuite Data File
++++++++++++++++++++++++++++++++++++
Date: Fri Oct 25 11:33:38 EDT 2013
User: price-jones
Dark Spectrum Present: No
Reference Spectrum Present: No
Number of Sampled Component Spectra: 1
Spectrometers: USB2+H05261
Integration Time (usec): 100000 (USB2+H05261)
Spectra Averaged: 1 (USB2+H05261)
Boxcar Smoothing: 0 (USB2+H05261)
Correct for Electrical Dark: No (USB2+H05261)
Strobe/Lamp Enabled: No (USB2+H05261)
Correct for Detector Non-linearity: No (USB2+H05261)
Correct for Stray Light: No (USB2+H05261)
Number of Pixels in Processed Spectrum: 2048
>>>>>Begin Processed Spectral Data<<<<<
365.73	278.52
365.92	278.52
366.12	278.52
366.32	149.79
366.52	105.32
366.72	243.42
366.91	147.45
367.11	126.39
367.31	142.77
367.51	161.50
367.70	161.50
367.90	217.67
368.10	152.13
368.30	166.18
368.49	180.22
368.69	182.56
368.89	198.95
369.09	180.22
369.28	217.67
369.48	184.90
369.68	222.35
369.87	198.95
370.07	259.80
370.27	227.03
370.47	332.36
370.66	442.36
370.86	503.22
371.06	498.53
371.25	538.32
371.45	547.69
371.65	624.92
371.84	517.26
372.04	589.82
372.24	512.58
372.44	503.22
372.63	587.47
372.83	617.90
373.03	610.88
373.22	592.16
373.42	688.12
373.62	702.16
373.81	650.67
374.01	678.76
374.21	566.41
374.40	582.79
374.60	641.31
374.79	662.37
374.99	641.31
375.19	613.22
375.38	688.12
375.58	690.46
375.78	702.16
375.97	751.31
376.17	709.18
376.37	709.18
376.56	664.71
376.76	702.16
376.95	650.67
377.15	613.22
377.35	655.35
377.54	695.14
377.74	683.44
377.93	730.25
378.13	685.78
378.33	723.23
378.52	695.14
378.72	713.86
378.91	737.27
379.11	718.54
379.31	725.57
379.50	669.39
379.70	816.85
379.89	713.86
380.09	748.97
380.28	655.35
380.48	807.48
380.68	702.16
380.87	744.29
381.07	802.80
381.26	772.38
381.46	704.50
381.65	751.31
381.85	798.12
382.04	774.72
382.24	758.33
382.43	734.93
382.63	720.88
382.83	828.55
383.02	873.02
383.22	807.48
383.41	781.74
383.61	753.65
383.80	856.64
384.00	861.32
384.19	788.76
384.39	800.46
384.58	791.10
384.78	802.80
384.97	856.64
385.17	800.46
385.36	781.74
385.56	830.89
385.75	936.21
385.95	896.43
386.14	901.11
386.34	840.25
386.53	821.53
386.72	945.58
386.92	905.79
387.11	898.77
387.31	896.43
387.50	891.74
387.70	847.27
387.89	880.04
388.09	954.94
388.28	922.17
388.48	905.79
388.67	896.43
388.86	987.71
389.06	903.45
389.25	968.98
389.45	947.92
389.64	910.47
389.84	1025.15
390.03	973.66
390.22	999.41
390.42	985.37
390.61	947.92
390.81	940.90
391.00	1013.45
391.19	1022.81
391.39	976.00
391.58	1029.84
391.78	999.41
391.97	1071.97
392.16	1086.01
392.36	1022.81
392.55	999.41
392.75	1032.18
392.94	1081.33
393.13	1076.65
393.33	983.02
393.52	1165.59
393.71	1067.28
393.91	1130.48
394.10	1086.01
394.29	1102.39
394.49	1053.24
394.68	1163.25
394.88	1076.65
395.07	1144.52
395.26	1247.51
395.46	1210.06
395.65	1205.38
395.84	1193.67
396.04	1266.23
396.23	1163.25
396.42	1242.82
396.62	1198.35
396.81	1261.55
397.00	1214.74
397.19	1256.87
397.39	1193.67
397.58	1322.40
397.77	1268.57
397.97	1247.51
398.16	1163.25
398.35	1266.23
398.55	1313.04
398.74	1240.48
398.93	1329.42
399.12	1324.74
399.32	1313.04
399.51	1378.58
399.70	1357.51
399.90	1334.11
400.09	1366.87
400.28	1350.49
400.47	1373.89
400.67	1387.94
400.86	1453.47
401.05	1455.81
401.24	1486.24
401.44	1481.56
401.63	1476.88
401.82	1544.75
402.01	1549.43
402.21	1441.77
402.40	1460.49
402.59	1479.22
402.78	1521.35
402.97	1533.05
403.17	1575.18
403.36	1607.95
403.55	1582.20
403.74	1533.05
403.93	1675.82
404.13	1556.46
404.32	1554.12
404.51	1636.03
404.70	1715.61
404.89	1643.06
405.09	1659.44
405.28	1624.33
405.47	1675.82
405.66	1659.44
405.85	1732.00
406.05	1778.81
406.24	1757.74
406.43	1741.36
406.62	1909.88
406.81	1877.11
407.00	1739.02
407.20	1792.85
407.39	1837.32
407.58	1860.73
407.77	1954.35
407.96	1909.88
408.15	1919.24
408.34	1905.20
408.54	1870.09
408.73	1937.96
408.92	1973.07
409.11	1980.09
409.30	1895.83
409.49	1956.69
409.68	2052.65
409.87	2076.06
410.07	2036.27
410.26	2054.99
410.45	2059.67
410.64	2153.29
410.83	2092.44
411.02	2174.36
411.21	2225.85
411.40	2167.34
411.59	2167.34
411.78	2214.15
411.98	2202.44
412.17	2333.51
412.36	2335.85
412.55	2270.32
412.74	2225.85
412.93	2399.05
413.12	2331.17
413.31	2408.41
413.50	2286.70
413.69	2443.52
413.88	2389.69
414.07	2537.14
414.26	2490.33
414.45	2471.61
414.64	2476.29
414.83	2647.15
415.02	2689.28
415.22	2649.49
415.41	2588.63
415.60	2642.46
415.79	2773.53
415.98	2693.96
416.17	2801.62
416.36	2757.15
416.55	2670.55
416.74	2761.83
416.93	2836.73
417.12	2782.90
417.31	2773.53
417.50	2885.88
417.69	2878.86
417.88	2920.99
418.07	3016.95
418.26	2899.92
418.45	3169.09
418.64	3035.67
418.83	3056.74
419.02	3066.10
419.21	3035.67
419.39	3164.40
419.58	3007.59
419.77	3098.87
419.96	3159.72
420.15	3227.60
420.34	3131.64
420.53	3318.88
420.72	3243.98
420.91	3218.24
421.10	3148.02
421.29	3290.79
421.48	3218.24
421.67	3349.31
421.86	3297.81
422.05	3293.13
422.24	3358.67
422.43	3496.76
422.61	3370.37
422.80	3302.50
422.99	3403.14
423.18	3332.92
423.37	3517.83
423.56	3417.18
423.75	3372.71
423.94	3428.88
424.13	3290.79
424.32	3258.03
424.50	3435.91
424.69	3595.06
424.88	3555.27
425.07	3424.20
425.26	3414.84
425.45	3599.74
425.64	3424.20
425.83	3410.16
426.01	3440.59
426.20	3428.88
426.39	3456.97
426.58	3494.42
426.77	3463.99
426.96	3466.33
427.15	3541.23
427.33	3644.21
427.52	3557.61
427.71	3595.06
427.90	3709.75
428.09	3634.85
428.28	3770.60
428.46	3648.90
428.65	3775.28
428.84	3751.88
429.03	3782.31
429.22	3775.28
429.40	3744.86
429.59	3864.22
429.78	3574.00
429.97	3623.15
430.16	3833.80
430.34	3812.73
430.53	3852.52
430.72	3873.59
430.91	4007.00
431.10	3911.04
431.28	3990.61
431.47	3911.04
431.66	4084.23
431.85	3934.44
432.03	4250.41
432.22	4138.07
432.41	4098.28
432.60	4056.15
432.79	4014.02
432.97	4135.73
433.16	4147.43
433.35	4058.49
433.54	4287.86
433.72	4287.86
433.91	4091.26
434.10	4224.67
434.28	4224.67
434.47	4194.24
434.66	4341.69
434.85	4400.21
435.03	4301.90
435.22	4294.88
435.41	4557.02
435.59	4355.74
435.78	4320.63
435.97	4435.32
436.16	4470.42
436.34	4418.93
436.53	4479.79
436.72	4568.73
436.90	4554.68
437.09	4568.73
437.28	4348.72
437.46	4564.04
437.65	4634.26
437.84	4685.75
438.02	4512.55
438.21	4655.33
438.40	4418.93
438.58	4753.63
438.77	4732.56
438.96	4779.37
439.14	4849.59
439.33	4809.80
439.52	4945.55
439.70	4994.70
439.89	5008.75
440.08	5036.83
440.26	5093.01
440.45	5128.11
440.63	5284.93
440.82	5247.48
441.01	5193.65
441.19	5233.44
441.38	5186.63
441.57	5345.78
441.75	5376.21
441.94	5432.38
442.12	5355.15
442.31	5345.78
442.50	5540.05
442.68	5530.69
442.87	5308.34
443.05	5507.28
443.24	5565.79
443.43	5486.22
443.61	5607.92
443.80	5729.63
443.98	5540.05
444.17	5284.93
444.35	5596.22
444.54	5689.84
444.73	5544.73
444.91	5701.54
445.10	5598.56
445.28	5769.42
445.47	5675.80
445.65	5614.95
445.84	5898.15
446.02	5888.79
446.21	5696.86
446.39	5647.71
446.58	5668.78
446.77	5825.59
446.95	5668.78
447.14	5678.14
447.32	5858.36
447.51	5804.53
447.69	5762.40
447.88	5806.87
448.06	5741.33
448.25	5694.52
448.43	5825.59
448.62	5886.45
448.80	5860.70
448.99	5905.17
449.17	5844.32
449.36	5830.27
449.54	5956.66
449.73	6080.71
449.91	5966.03
450.10	5935.60
450.28	6179.01
450.46	6125.18
450.65	6120.50
450.83	6211.78
451.02	6134.54
451.20	6296.04
451.39	6157.95
451.57	6228.17
451.76	6352.21
451.94	6218.80
452.13	6389.66
452.31	6094.76
452.49	6146.25
452.68	6289.02
452.86	6494.99
453.05	6239.87
453.23	6282.00
453.42	6375.62
453.60	6195.40
453.78	6480.94
453.97	6338.17
454.15	6452.86
454.34	6413.07
454.52	6525.41
454.70	6612.01
454.89	6544.14
455.07	6581.59
455.26	6558.18
455.44	6719.68
455.62	6682.23
455.81	6707.98
455.99	6623.72
456.17	6761.81
456.36	6778.19
456.54	6794.58
456.73	6839.05
456.91	7075.44
457.09	7087.14
457.28	6878.83
457.46	6988.84
457.64	6951.39
457.83	7138.63
458.01	7019.27
458.19	7236.94
458.38	7133.95
458.56	7173.74
458.74	7262.68
458.93	7295.45
459.11	7192.47
459.29	7428.86
459.48	7304.81
459.66	7194.81
459.84	7363.33
460.03	7461.63
460.21	7325.88
460.39	7536.52
460.57	7330.56
460.76	7588.02
460.94	7473.33
461.12	7578.65
461.31	7508.44
461.49	7386.73
461.67	7520.14
461.85	7707.38
462.04	7705.04
462.22	8016.33
462.40	8002.29
462.59	7709.72
462.77	7676.96
462.95	7705.04
463.13	7686.32
463.32	7805.69
463.50	7812.71
463.68	7929.74
463.86	7967.18
464.05	7899.31
464.23	7709.72
464.41	7927.39
464.59	7887.61
464.78	8124.00
464.96	7995.27
465.14	7871.22
465.32	8095.91
465.50	8039.74
465.69	8084.21
465.87	8138.04
466.05	8191.88
466.23	8161.45
466.41	8229.32
466.60	8299.54
466.78	8306.56
466.96	8138.04
467.14	8205.92
467.32	8379.12
467.51	8484.44
467.69	8208.26
467.87	8318.26
468.05	8652.96
468.23	8468.06
468.41	8414.23
468.60	8353.37
468.78	8549.98
468.96	8341.67
469.14	8599.13
469.32	8767.65
469.50	8531.25
469.69	8741.90
469.87	8901.06
470.05	8723.18
470.23	8987.66
470.41	8741.90
470.59	8997.02
470.77	9001.70
470.95	8807.44
471.14	8910.42
471.32	8791.05
471.50	9036.81
471.68	9022.77
471.86	8779.35
472.04	9118.73
472.22	9481.51
472.40	9242.78
472.58	9284.91
472.77	9224.05
472.95	9483.85
473.13	9551.73
473.31	9483.85
473.49	9451.08
473.67	9502.58
473.85	9493.21
474.03	9666.41
474.21	9589.17
474.39	9834.93
474.57	9834.93
474.75	9701.52
474.93	9902.81
475.12	9830.25
475.30	10134.52
475.48	10019.83
475.66	10101.75
475.84	10036.22
476.02	10157.92
476.20	10232.82
476.38	10469.22
476.56	10724.33
476.74	10637.73
476.92	10604.97
477.10	10824.98
477.28	10869.45
477.46	10707.95
477.64	10796.89
477.82	11117.54
478.00	11211.17
478.18	11255.64
478.36	11297.77
478.54	11363.30
478.72	11485.01
478.90	11482.67
479.08	11674.59
479.26	11782.26
479.44	11672.25
479.62	11749.49
479.80	11918.01
479.98	12109.93
480.16	12226.96
480.34	12226.96
480.52	12418.88
480.70	12482.08
480.88	12332.28
481.06	12444.63
481.24	12643.57
481.41	12685.70
481.59	12716.13
481.77	12812.09
481.95	13029.76
482.13	13341.05
482.31	13069.55
482.49	13387.86
482.67	13577.45
482.85	13446.38
483.03	13397.23
483.21	13650.00
483.39	14017.47
483.57	13858.31
483.74	14223.44
483.92	14052.58
484.10	14001.08
484.28	14047.90
484.46	14443.45
484.64	14857.72
484.82	14544.09
485.00	14703.25
485.18	15054.33
485.35	15096.46
485.53	14846.02
485.71	15379.66
485.89	15438.17
486.07	15356.25
486.25	15658.18
486.43	15520.09
486.61	15751.81
486.78	16037.35
486.96	15976.50
487.14	16219.91
487.32	16177.78
487.50	16161.40
487.68	16479.71
487.85	16809.73
488.03	16966.54
488.21	16985.27
488.39	16854.20
488.57	17284.86
488.75	17104.64
488.92	17486.14
489.10	17539.97
489.28	17785.73
489.46	17874.67
489.64	17877.01
489.81	18267.88
489.99	18047.87
490.17	18188.30
490.35	18815.57
490.53	18551.09
490.70	18670.45
490.88	18558.11
491.06	19157.28
491.24	18913.87
491.41	19229.84
491.59	19381.98
491.77	19185.37
491.95	19508.37
492.13	19552.84
492.30	19880.51
492.48	19716.67
492.66	19836.04
492.84	20161.37
493.01	20467.98
493.19	20231.59
493.37	20191.80
493.54	20339.26
493.72	20957.16
493.90	20713.74
494.08	20849.49
494.25	21146.74
494.43	21301.22
494.61	21221.64
494.79	21490.80
494.96	21149.08
495.14	21563.36
495.32	21900.39
495.49	22010.40
495.67	21961.25
495.85	22089.98
496.02	22483.19
496.20	22274.88
496.38	22768.73
496.55	22689.15
496.73	23098.75
496.91	22614.26
497.09	22766.39
497.26	22813.20
497.44	22696.17
497.62	23204.07
497.79	23707.29
497.97	23466.21
498.14	23679.20
498.32	23714.31
498.50	23908.57
498.67	24004.53
498.85	23803.25
499.03	24198.80
499.20	24086.45
499.38	24353.27
499.56	24276.04
499.73	24554.56
499.91	24664.57
500.08	25163.10
500.26	24631.80
500.44	25219.27
500.61	25273.10
500.79	25158.42
500.97	25113.95
501.14	25151.40
501.32	25275.45
501.49	25340.98
501.67	25097.56
501.84	26153.15
502.02	25685.04
502.20	25675.68
502.37	25748.23
502.55	25874.62
502.72	26057.18
502.90	26132.08
503.07	25848.88
503.25	26501.89
503.43	26024.42
503.60	26246.77
503.78	26553.38
503.95	26518.27
504.13	26815.52
504.30	26930.20
504.48	26501.89
504.65	26824.88
504.83	27250.86
505.01	27124.47
505.18	27552.79
505.36	27576.19
505.53	27182.98
505.71	27342.14
505.88	27709.60
506.06	27335.12
506.23	27885.14
506.41	27747.05
506.58	27843.01
506.76	27529.38
506.93	27817.27
507.11	28166.01
507.28	28198.77
507.46	28187.07
507.63	28638.80
507.81	28678.58
507.98	28304.10
508.16	28474.96
508.33	28734.76
508.50	28765.18
508.68	28638.80
508.85	28781.57
509.03	28627.09
509.20	29184.14
509.38	29610.12
509.55	29586.71
509.73	29392.45
509.90	29596.07
510.08	29303.51
510.25	29369.04
510.42	29755.23
510.60	29507.13
510.77	29993.97
510.95	30092.27
511.12	30274.83
511.30	30368.45
511.47	30054.82
511.64	29977.58
511.82	30513.56
511.99	30258.45
512.17	30799.11
512.34	30567.40
512.51	30899.75
512.69	30848.26
512.86	30955.93
513.04	30876.35
513.21	31398.29
513.38	31351.48
513.56	31503.61
513.73	30848.26
513.90	31115.08
514.08	31374.88
514.25	31384.24
514.43	31754.05
514.60	31819.58
514.77	31777.45
514.95	31660.43
515.12	31901.50
515.29	31903.84
515.47	31882.78
515.64	32559.19
515.81	31985.76
515.99	32559.19
516.16	32914.95
516.33	32322.80
516.51	32472.59
516.68	32629.41
516.85	32652.81
517.03	32643.45
517.20	32652.81
517.37	32638.77
517.54	32861.12
517.72	32821.33
517.89	33050.70
518.06	33153.69
518.24	33340.93
518.41	33141.99
518.58	32898.57
518.75	33256.67
518.93	33759.89
519.10	33544.56
519.27	33741.16
519.45	33787.97
519.62	33464.98
519.79	33818.40
519.96	33593.71
520.14	34199.91
520.31	33855.85
520.48	34277.15
520.65	34274.80
520.83	34707.80
521.00	34281.83
521.17	34246.72
521.34	34436.30
521.52	34939.52
521.69	34663.33
521.86	34684.40
522.03	34792.06
522.20	35056.54
522.38	35274.21
522.55	35115.06
522.72	35035.48
522.89	35318.68
523.07	35723.60
523.24	35269.53
523.41	35536.35
523.58	35122.08
523.75	35971.69
523.92	35342.09
524.10	35435.71
524.27	35847.64
524.44	35592.53
524.61	35772.75
524.78	35901.48
524.96	36137.87
525.13	36540.44
525.30	36135.53
525.47	36390.65
525.64	36563.85
525.81	36570.87
525.98	36973.44
526.16	36325.11
526.33	36240.86
526.50	36868.12
526.67	36521.72
526.84	36816.63
527.01	36493.63
527.18	36713.64
527.36	37062.38
527.53	36978.12
527.70	37457.93
527.87	37368.99
528.04	37273.03
528.21	37006.21
528.38	37123.24
528.55	37551.56
528.72	37109.19
528.89	37455.59
529.07	36982.80
529.24	37422.83
529.41	37530.49
529.58	37755.18
529.75	38061.79
529.92	37696.67
530.09	37645.18
530.26	37818.38
530.43	37539.85
530.60	37628.79
530.77	38014.98
530.94	37890.93
531.11	38033.71
531.28	38382.45
531.46	38279.46
531.63	38459.68
531.80	38075.84
531.97	38649.27
532.14	38405.85
532.31	38319.25
532.48	38410.53
532.65	38462.02
532.82	38600.12
532.99	38555.64
533.16	38541.60
533.33	38923.11
533.50	38899.70
533.67	38600.12
533.84	39009.71
534.01	38892.68
534.18	39246.10
534.35	39035.45
534.52	39201.63
534.69	39491.86
534.86	39608.89
535.03	38944.17
535.20	39597.18
535.37	39725.91
535.54	40004.44
535.71	39510.58
535.88	39859.32
536.05	39789.11
536.22	40051.25
536.38	39945.92
536.55	40002.10
536.72	40154.23
536.89	39901.45
537.06	39974.01
537.23	40367.22
537.40	40046.57
537.57	39573.78
537.74	39864.00
537.91	40605.95
538.08	40463.18
538.25	40163.59
538.42	40374.24
538.59	40765.11
538.75	40086.36
538.92	40755.75
539.09	40645.74
539.26	40196.36
539.43	40451.48
539.60	40591.91
539.77	40758.09
539.94	41247.26
540.11	40388.28
540.28	40868.09
540.44	40980.44
540.61	40751.07
540.78	41034.27
540.95	40748.73
541.12	40659.79
541.29	40725.32
541.46	41134.92
541.62	41116.19
541.79	41469.61
541.96	41432.16
542.13	41291.73
542.30	40868.09
542.47	41064.70
542.63	41392.37
542.80	41738.77
542.97	42003.25
543.14	41996.23
543.31	41741.11
543.48	42003.25
543.64	42431.57
543.81	42447.96
543.98	42249.01
544.15	42366.04
544.32	42003.25
544.48	42057.09
544.65	42576.69
544.82	42616.47
544.99	42199.86
545.16	42403.49
545.32	42452.64
545.49	42838.83
545.66	42927.77
545.83	42473.70
546.00	42618.81
546.16	42829.46
546.33	42609.45
546.50	42464.34
546.67	43012.02
546.83	42576.69
547.00	42438.59
547.17	42728.82
547.34	42740.52
547.50	43180.54
547.67	43395.87
547.84	42857.55
548.00	43461.41
548.17	43508.22
548.34	43157.14
548.51	43512.90
548.67	43122.03
548.84	43349.06
549.01	43510.56
549.18	43648.65
549.34	43524.60
549.51	43543.33
549.68	43529.28
549.84	43281.19
550.01	43826.53
550.18	43576.09
550.34	43639.29
550.51	44116.76
550.68	44011.43
550.84	43683.76
551.01	43957.60
551.18	43365.45
551.34	43765.68
551.51	44133.14
551.68	43873.34
551.84	43648.65
552.01	43632.27
552.18	44573.16
552.34	44006.75
552.51	44296.98
552.68	43859.30
552.84	44350.81
553.01	44437.41
553.18	44161.23
553.34	44271.23
553.51	44573.16
553.67	44416.35
553.84	44949.99
554.01	44694.87
554.17	44444.43
554.34	44591.89
554.51	44411.67
554.67	44802.53
554.84	45071.70
555.00	44332.09
555.17	44818.92
555.33	45085.74
555.50	44839.98
555.67	44652.74
555.83	44921.90
556.00	45235.53
556.16	45205.11
556.33	45167.66
556.50	44786.15
556.66	44538.05
556.83	44825.94
556.99	45233.19
557.16	45158.30
557.32	45289.37
557.49	45387.67
557.65	45200.43
557.82	45453.20
557.98	45172.34
558.15	45162.98
558.32	45546.82
558.48	45614.70
558.65	45343.20
558.81	45132.55
558.98	45177.02
559.14	45794.92
559.31	45666.19
559.47	45380.65
559.64	45202.77
559.80	45897.91
559.97	45212.13
560.13	45071.70
560.30	45710.66
560.46	46010.25
560.63	45918.97
560.79	45612.36
560.96	46040.68
561.12	45876.84
561.29	45991.53
561.45	46279.41
561.61	45640.45
561.78	45338.52
561.94	45869.82
562.11	45535.12
562.27	45820.67
562.44	45825.35
562.60	45806.62
562.77	46185.79
562.93	45797.26
563.10	46082.81
563.26	46239.62
563.42	46403.46
563.59	46230.26
563.75	46071.10
563.92	46075.79
564.08	45815.99
564.24	46373.03
564.41	46340.27
564.57	46124.94
564.74	46476.02
564.90	45886.20
565.07	46038.34
565.23	46431.55
565.39	46148.34
565.56	46087.49
565.72	46358.99
565.88	46153.02
566.05	46361.33
566.21	46223.24
566.38	46178.77
566.54	46192.81
566.70	46351.97
566.87	46405.80
567.03	46373.03
567.19	46387.08
567.36	46543.89
567.52	46438.57
567.68	47072.85
567.85	46396.44
568.01	46887.95
568.17	46323.88
568.34	46609.43
568.50	46639.86
568.66	46499.42
568.83	47004.98
568.99	46253.67
569.15	46672.62
569.32	46471.34
569.48	46616.45
569.64	46953.49
569.81	46770.93
569.97	46859.87
570.13	46859.87
570.30	46632.83
570.46	46754.54
570.62	46944.12
570.78	46553.26
570.95	46291.12
571.11	46415.16
571.27	46749.86
571.43	46611.77
571.60	46864.55
571.76	46756.88
571.92	46312.18
572.09	46602.41
572.25	46628.15
572.41	46593.04
572.57	46810.71
572.74	47306.91
572.90	46794.33
573.06	46951.15
573.22	46761.56
573.38	47054.13
573.55	46693.69
573.71	47342.02
573.87	47152.43
574.03	46724.11
574.20	47339.68
574.36	46997.96
574.52	47173.50
574.68	47112.64
574.84	47313.93
575.01	47185.20
575.17	47283.50
575.33	47084.56
575.49	46916.04
575.65	47475.43
575.82	47285.84
575.98	46897.31
576.14	47360.74
576.30	47334.99
576.46	46930.08
576.62	46880.93
576.79	47098.60
576.95	47009.66
577.11	47180.52
577.27	47143.07
577.43	46827.10
577.59	47145.41
577.75	47131.37
577.92	46862.21
578.08	47140.73
578.24	47107.96
578.40	47765.65
578.56	47629.90
578.72	46969.87
578.88	47657.99
579.04	47199.24
579.21	47217.97
579.37	47707.14
579.53	47646.29
579.69	47295.21
579.85	47143.07
580.01	47178.18
580.17	47232.01
580.33	47782.04
580.49	47643.94
580.65	47435.64
580.82	47402.87
580.98	47061.15
581.14	47159.45
581.30	47674.37
581.46	47239.03
581.62	47388.83
581.78	47330.31
581.94	47718.84
582.10	47112.64
582.26	47250.74
582.42	47477.77
582.58	47665.01
582.74	47311.59
582.90	47648.63
583.06	47269.46
583.22	47194.56
583.38	47657.99
583.54	47529.26
583.70	47674.37
583.86	47508.19
584.02	47468.40
584.18	47800.76
584.34	47510.53
584.50	47760.97
584.66	47641.60
584.82	47435.64
584.98	47803.10
585.14	47777.36
585.30	46953.49
585.46	47468.40
585.62	47494.15
585.78	47723.52
585.94	47056.47
586.10	47760.97
586.26	47344.36
586.42	47246.05
586.58	47943.53
586.74	47440.32
586.90	47318.61
587.06	47281.16
587.22	47889.70
587.38	47625.22
587.54	47793.74
587.70	47735.23
587.86	47620.54
588.02	47304.57
588.18	47468.40
588.34	47381.80
588.49	48032.47
588.65	47667.35
588.81	47522.24
588.97	47496.49
589.13	47922.47
589.29	48090.99
589.45	47709.48
589.61	47861.61
589.77	47959.92
589.93	47632.24
590.08	48102.69
590.24	47779.70
590.40	48329.72
590.56	48238.44
590.72	47999.71
590.88	47924.81
591.04	47870.98
591.20	47917.79
591.35	47980.98
591.51	48123.75
591.67	47711.82
591.83	48402.28
591.99	48088.65
592.15	47913.11
592.31	47772.67
592.46	47594.79
592.62	47812.46
592.78	48205.67
592.94	48460.79
593.10	48397.60
593.26	48273.55
593.41	48205.67
593.57	48023.11
593.73	47887.36
593.89	48559.09
594.05	48217.38
594.20	48460.79
594.36	48884.43
594.52	48584.84
594.68	48439.73
594.84	48208.01
594.99	48341.42
595.15	48179.93
595.31	47908.43
595.47	48341.42
595.62	48025.45
595.78	48191.63
595.94	48428.02
596.10	48226.74
596.25	48165.88
596.41	48577.82
596.57	48233.76
596.73	48779.10
596.88	48243.12
597.04	48231.42
597.20	48512.28
597.36	48542.71
597.51	48292.27
597.67	48250.14
597.83	47969.28
597.99	48287.59
598.14	48397.60
598.30	48100.35
598.46	48418.66
598.61	48252.48
598.77	48112.05
598.93	48449.09
599.09	48280.57
599.24	48790.81
599.40	48388.24
599.56	48596.54
599.71	48793.15
599.87	48736.98
600.03	48507.60
600.18	48474.84
600.34	48392.92
600.50	48451.43
600.65	48259.51
600.81	48554.41
600.97	48753.36
601.12	48704.21
601.28	48294.61
601.44	48168.22
601.59	48706.55
601.75	48573.14
601.91	48807.19
602.06	48236.10
602.22	48573.14
602.37	48273.55
602.53	48594.20
602.69	48463.13
602.84	48526.33
603.00	48575.48
603.16	48229.08
603.31	48575.48
603.47	48753.36
603.62	48435.05
603.78	48498.24
603.94	48626.97
604.09	48519.31
604.25	48411.64
604.40	48044.18
604.56	48479.52
604.71	48910.17
604.87	48343.77
605.03	48205.67
605.18	48397.60
605.34	48741.66
605.49	48203.33
605.65	48779.10
605.80	48037.16
605.96	48149.50
606.12	48030.13
606.27	48521.65
606.43	48062.90
606.58	48802.51
606.74	48514.62
606.89	48378.87
607.05	48388.24
607.20	48311.00
607.36	48346.11
607.51	48439.73
607.67	48058.22
607.82	48151.84
607.98	48261.85
608.13	47966.94
608.29	48540.37
608.44	48149.50
608.60	48109.71
608.75	48615.27
608.91	48301.64
609.06	47828.85
609.22	48416.32
609.37	48076.94
609.53	48254.82
609.68	47856.93
609.84	48041.84
609.99	48044.18
610.15	47992.68
610.30	48254.82
610.46	48135.46
610.61	48233.76
610.76	48299.30
610.92	47833.53
611.07	47796.08
611.23	47875.66
611.38	48200.99
611.54	48458.45
611.69	48060.56
611.84	48168.22
612.00	48088.65
612.15	47498.83
612.31	47878.00
612.46	47625.22
612.62	47842.89
612.77	47995.03
612.92	48065.24
613.08	48252.48
613.23	48193.97
613.39	47714.16
613.54	47449.68
613.69	48140.14
613.85	47812.46
614.00	47962.26
614.15	48062.90
614.31	47576.07
614.46	47538.62
614.62	47601.82
614.77	47828.85
614.92	47487.13
615.08	47821.83
615.23	47810.12
615.38	47786.72
615.54	47782.04
615.69	47744.59
615.84	47526.92
616.00	47821.83
616.15	47201.58
616.30	47489.47
616.46	47620.54
616.61	47828.85
616.76	47894.38
616.92	47519.90
617.07	47484.79
617.22	47234.35
617.37	47084.56
617.53	47370.10
617.68	47192.22
617.83	47386.49
617.99	47955.24
618.14	47845.23
618.29	47264.78
618.45	46997.96
618.60	47587.77
618.75	46707.73
618.90	47159.45
619.06	47374.78
619.21	47545.64
619.36	47316.27
619.51	46745.18
619.67	47014.34
619.82	47442.66
619.97	47309.25
620.12	46906.68
620.28	47337.33
620.43	47079.88
620.58	47271.80
620.73	47147.75
620.89	47466.06
621.04	47323.29
621.19	46899.65
621.34	46710.07
621.49	46831.78
621.65	47047.11
621.80	47274.14
621.95	46953.49
622.10	47409.89
622.25	46932.42
622.41	46864.55
622.56	47082.22
622.71	46726.46
622.86	46981.57
623.01	46876.25
623.16	46693.69
623.32	46738.16
623.47	46873.91
623.62	46443.25
623.77	46553.26
623.92	46543.89
624.07	46492.40
624.23	46651.56
624.38	46667.94
624.53	46653.90
624.68	46263.03
624.83	46541.55
624.98	46389.42
625.13	46178.77
625.29	46000.89
625.44	46490.06
625.59	46478.36
625.74	46382.40
625.89	46550.91
626.04	46525.17
626.19	46274.73
626.34	46384.74
626.49	46146.00
626.65	46045.36
626.80	46024.29
626.95	45757.47
627.10	45567.89
627.25	45577.25
627.40	46274.73
627.55	46202.18
627.70	46174.09
627.85	46089.83
628.00	45776.20
628.15	45757.47
628.30	45546.82
628.45	45542.14
628.60	45429.80
628.76	45584.27
628.91	45694.28
629.06	45184.04
629.21	45549.17
629.36	45539.80
629.51	45787.90
629.66	45626.40
629.81	46019.61
629.96	45734.07
630.11	46284.09
630.26	45228.51
630.41	45727.05
630.56	45251.92
630.71	45352.56
630.86	45492.99
631.01	45280.00
631.16	45385.33
631.31	45333.84
631.46	45570.23
631.61	45617.04
631.76	45579.59
631.91	45003.82
632.06	45780.88
632.21	45750.45
632.36	45640.45
632.51	44856.37
632.66	45179.36
632.81	45317.45
632.96	45263.62
633.10	45095.10
633.25	45378.31
633.40	45394.69
633.55	45474.27
633.70	45167.66
633.85	45095.10
634.00	44973.39
634.15	44516.99
634.30	44708.91
634.45	44828.28
634.60	45010.84
634.75	44865.73
634.90	44807.22
635.05	45001.48
635.19	45043.61
635.34	44889.13
635.49	44886.79
635.64	44687.85
635.79	44807.22
635.94	44430.39
636.09	44989.78
636.24	44584.86
636.39	44608.27
636.53	45050.63
636.68	44194.00
636.83	44208.04
636.98	44570.82
637.13	43803.13
637.28	44294.64
637.43	44226.76
637.57	44626.99
637.72	44247.83
637.87	44268.89
638.02	44334.43
638.17	44102.71
638.32	44128.46
638.46	43983.35
638.61	43854.62
638.76	44107.40
638.91	44030.16
639.06	43910.79
639.20	43728.23
639.35	43613.54
639.50	43398.21
639.65	44374.22
639.80	44123.78
639.94	44179.95
640.09	44381.24
640.24	43966.96
640.39	43643.97
640.54	43676.74
640.68	44020.80
640.83	44126.12
640.98	43915.47
641.13	43618.22
641.27	43882.70
641.42	43854.62
641.57	43945.90
641.72	43856.96
641.86	43978.67
642.01	43173.52
642.16	43793.76
642.31	43147.78
642.45	43863.98
642.60	43260.12
642.75	43526.94
642.90	43878.02
643.04	43491.83
643.19	43477.79
643.34	43253.10
643.48	42979.26
643.63	42817.76
643.78	43255.44
643.93	43597.16
644.07	43688.44
644.22	43409.92
644.37	43536.30
644.51	43688.44
644.66	43271.82
644.81	43196.93
644.95	43620.56
645.10	43335.02
645.25	42995.64
645.39	43182.88
645.54	43318.64
645.69	42651.58
645.83	42773.29
645.98	43103.31
646.13	43079.90
646.27	42925.42
646.42	42724.14
646.57	43423.96
646.71	43480.13
646.86	43077.56
647.00	42763.93
647.15	43047.13
647.30	42988.62
647.44	42855.21
647.59	42852.87
647.74	42623.50
647.88	42941.81
648.03	42969.90
648.17	43206.29
648.32	42993.30
648.47	43105.65
648.61	42368.38
648.76	42649.24
648.90	42443.27
649.05	42529.87
649.20	42445.62
649.34	42642.22
649.49	42256.03
649.63	42796.70
649.78	42684.35
649.92	42529.87
650.07	42724.14
650.21	43047.13
650.36	42745.20
650.51	42422.21
650.65	42679.67
650.80	42454.98
650.94	42412.85
651.09	42279.44
651.23	41890.91
651.38	42064.11
651.52	41722.39
651.67	42284.12
651.81	42106.24
651.96	41792.61
652.10	41893.25
652.25	41930.70
652.39	42052.41
652.54	42464.34
652.68	42230.29
652.83	41610.04
652.97	41911.97
653.12	41869.84
653.26	41720.05
653.41	42054.75
653.55	41694.30
653.70	41818.35
653.84	41787.92
653.99	42157.73
654.13	41858.14
654.27	41937.72
654.42	41921.34
654.56	41256.62
654.71	41649.83
654.85	41743.45
655.00	41713.03
655.14	41848.78
655.29	41504.72
655.43	41708.35
655.57	41383.01
655.72	40919.59
655.86	41652.17
656.01	41195.77
656.15	41020.23
656.30	41235.56
656.44	41280.03
656.58	41425.14
656.73	41153.64
656.87	40982.78
657.01	41120.87
657.16	41612.38
657.30	41420.46
657.45	41280.03
657.59	40449.14
657.73	41001.50
657.88	41322.16
658.02	41008.53
658.16	41322.16
658.31	40893.84
658.45	41081.08
658.60	40531.06
658.74	40704.26
658.88	40814.26
659.03	40678.51
659.17	40383.60
659.31	40514.67
659.46	40687.87
659.60	40601.27
659.74	40390.62
659.89	40399.99
660.03	40060.61
660.17	40718.30
660.32	40554.46
660.46	40208.06
660.60	40423.39
660.74	40194.02
660.89	40123.80
661.03	39974.01
661.17	39807.83
661.32	39636.97
661.46	40294.66
661.60	39735.27
661.74	39618.25
661.89	39899.11
662.03	39812.51
662.17	39597.18
662.31	39796.13
662.46	39468.45
662.60	39370.15
662.74	39309.30
662.88	39215.68
663.03	38913.75
663.17	39311.64
663.31	38880.98
663.45	38880.98
663.60	39283.55
663.74	38649.27
663.88	39063.54
664.02	38672.67
664.17	39264.83
664.31	38607.14
664.45	38445.64
664.59	38785.02
664.73	38780.34
664.88	38785.02
665.02	38139.03
665.16	38483.09
665.30	38485.43
665.44	38508.83
665.59	37827.74
665.73	38637.56
665.87	37809.01
666.01	38106.26
666.15	38014.98
666.29	37963.49
666.44	38199.88
666.58	38024.34
666.72	38019.66
666.86	38054.77
667.00	37914.34
667.14	37727.10
667.28	37689.65
667.43	37759.86
667.57	37755.18
667.71	38014.98
667.85	37242.60
667.99	37577.30
668.13	36964.08
668.27	37228.56
668.41	37308.14
668.56	36549.81
668.70	36807.26
668.84	36725.35
668.98	36767.48
669.12	36734.71
669.26	37010.89
669.40	36779.18
669.54	36975.78
669.68	36755.77
669.82	36477.25
669.96	36498.31
670.10	36203.41
670.25	36268.94
670.39	36088.72
670.53	36510.02
670.67	36149.57
670.81	36418.74
670.95	36306.39
671.09	35864.03
671.23	35718.92
671.37	35854.67
671.51	35543.38
671.65	35674.45
671.79	35552.74
671.93	35398.26
672.07	35583.16
672.21	35424.01
672.35	35379.54
672.49	35550.40
672.63	35503.59
672.77	35199.32
672.91	35318.68
673.05	35330.39
673.19	34731.21
673.33	34801.43
673.47	34859.94
673.61	34731.21
673.75	34565.03
673.89	34712.49
674.03	34492.47
674.17	34249.06
674.31	34235.02
674.45	33972.88
674.59	34204.59
674.73	34543.97
674.87	34005.64
675.01	33846.49
675.15	33666.27
675.29	33736.48
675.43	33621.80
675.56	33743.50
675.70	33647.54
675.84	33614.77
675.98	32292.37
676.12	33350.29
676.26	33469.66
676.40	33174.75
676.54	32842.40
676.68	32952.40
676.82	32418.76
676.96	33118.58
677.10	32842.40
677.23	32446.85
677.37	32924.32
677.51	32332.16
677.65	32273.65
677.79	32458.55
677.93	32467.91
678.07	32189.39
678.21	31475.52
678.34	31805.54
678.48	31119.76
678.62	31494.25
678.76	31129.12
678.90	31173.60
679.04	31519.99
679.18	31510.63
679.31	30773.36
679.45	31063.59
679.59	30803.79
679.73	30775.70
679.87	30923.16
680.00	30651.66
680.14	30981.67
680.28	30684.42
680.42	30768.68
680.56	30323.98
680.70	30103.97
680.83	29830.13
680.97	29778.64
681.11	29975.24
681.25	29563.31
681.39	29404.15
681.52	29631.18
681.66	29472.03
681.80	28856.46
681.94	28891.57
682.07	29118.60
682.21	28584.96
682.35	28517.09
682.49	28727.74
682.62	28790.93
682.76	28912.64
682.90	28638.80
683.04	28355.59
683.17	28826.04
683.31	27953.02
683.45	28086.43
683.59	27873.44
683.72	27920.25
683.86	27854.72
684.00	27908.55
684.13	27498.95
684.27	27447.46
684.41	27470.87
684.55	27608.96
684.68	27304.69
684.82	27225.11
684.96	26948.93
685.09	27030.85
685.23	27070.64
685.37	27358.52
685.50	27040.21
685.64	26967.65
685.78	26518.27
685.91	26469.12
686.05	26302.94
686.19	25881.64
686.32	26181.23
686.46	25790.36
686.60	25495.46
686.73	25891.01
686.87	25818.45
687.01	25881.64
687.14	26003.35
687.28	25558.65
687.42	25172.46
687.55	25188.85
687.69	25638.23
687.82	24922.02
687.96	24865.85
688.10	25135.01
688.23	24666.91
688.37	25291.83
688.50	25432.26
688.64	24727.76
688.78	24716.06
688.91	24629.46
689.05	24142.63
689.18	24287.74
689.32	24023.26
689.46	23960.06
689.59	23819.63
689.73	24198.80
689.86	24056.03
690.00	23967.09
690.13	23639.41
690.27	23557.49
690.41	23641.75
690.54	23234.50
690.68	23211.09
690.81	23243.86
690.95	22785.12
691.08	22780.43
691.22	22506.59
691.35	22459.78
691.49	22883.42
691.62	22625.96
691.76	22548.72
691.89	21982.31
692.03	22232.75
692.16	21715.49
692.30	21919.12
692.43	22101.68
692.57	21635.91
692.70	21949.54
692.84	21631.23
692.97	21315.26
693.11	21525.91
693.24	21125.68
693.38	21254.40
693.51	21319.94
693.65	21331.64
693.78	20807.36
693.92	20470.33
694.05	20912.69
694.19	20744.17
694.32	20505.43
694.45	20528.84
694.59	20861.19
694.72	20669.27
694.86	20189.46
694.99	19981.15
695.13	20180.10
695.26	19817.32
695.39	19955.41
695.53	19941.36
695.66	19728.38
695.80	19777.53
695.93	19707.31
696.07	19630.07
696.20	19033.24
696.33	19084.73
696.47	18815.57
696.60	18686.84
696.73	18937.27
696.87	19267.29
697.00	18941.96
697.14	18981.74
697.27	18520.66
697.40	18562.79
697.54	18565.13
697.67	18501.93
697.80	18459.81
697.94	18338.10
698.07	18317.03
698.21	18064.25
698.34	18228.09
698.47	17900.42
698.61	17448.69
698.74	17420.61
698.87	17710.83
699.01	17350.39
699.14	17603.17
699.27	17488.48
699.40	17383.16
699.54	17287.20
699.67	17261.45
699.80	17376.14
699.94	17020.38
700.07	16856.54
700.20	16975.91
700.34	16578.01
700.47	16769.94
700.60	17088.25
700.73	16746.53
700.87	16662.27
701.00	16638.87
701.13	16376.73
701.26	16035.01
701.40	16414.18
701.53	16079.48
701.66	16140.33
701.79	15901.60
701.93	15985.86
702.06	15597.33
702.19	15578.61
702.32	15686.27
702.46	15887.56
702.59	15847.77
702.72	15791.59
702.85	15201.78
702.99	15445.20
703.12	15506.05
703.25	15087.09
703.38	14958.36
703.51	14885.81
703.65	14934.96
703.78	14672.82
703.91	14796.87
704.04	14548.77
704.17	14635.37
704.31	14686.86
704.44	14558.13
704.57	14396.64
704.70	14239.82
704.83	14052.58
704.96	14195.35
705.10	14036.19
705.23	14113.43
>>>>>End Processed Spectral Data<<<<<
