SpectraSuite Data File
++++++++++++++++++++++++++++++++++++
Date: Fri Oct 25 10:43:26 EDT 2013
User: price-jones
Dark Spectrum Present: No
Reference Spectrum Present: No
Number of Sampled Component Spectra: 1
Spectrometers: USB2+H05261
Integration Time (usec): 100000 (USB2+H05261)
Spectra Averaged: 1 (USB2+H05261)
Boxcar Smoothing: 0 (USB2+H05261)
Correct for Electrical Dark: No (USB2+H05261)
Strobe/Lamp Enabled: No (USB2+H05261)
Correct for Detector Non-linearity: No (USB2+H05261)
Correct for Stray Light: No (USB2+H05261)
Number of Pixels in Processed Spectrum: 2048
>>>>>Begin Processed Spectral Data<<<<<
365.73	184.90
365.92	184.90
366.12	184.90
366.32	79.58
366.52	117.03
366.72	93.62
366.91	30.43
367.11	0.00
367.31	0.00
367.51	0.00
367.70	51.49
367.90	91.28
368.10	37.45
368.30	0.00
368.49	65.54
368.69	7.02
368.89	28.09
369.09	98.30
369.28	65.54
369.48	49.15
369.68	56.17
369.87	107.66
370.07	58.51
370.27	152.13
370.47	264.48
370.66	355.76
370.86	425.98
371.06	374.49
371.25	491.51
371.45	433.00
371.65	493.85
371.84	491.51
372.04	444.70
372.24	479.81
372.44	465.77
372.63	425.98
372.83	484.49
373.03	517.26
373.22	463.43
373.42	489.17
373.62	521.94
373.81	477.47
374.01	580.45
374.21	519.60
374.40	507.90
374.60	631.94
374.79	580.45
374.99	599.18
375.19	552.37
375.38	533.64
375.58	547.69
375.78	620.24
375.97	627.26
376.17	566.41
376.37	603.86
376.56	634.29
376.76	608.54
376.95	608.54
377.15	596.84
377.35	561.73
377.54	606.20
377.74	629.60
377.93	685.78
378.13	622.58
378.33	643.65
378.52	566.41
378.72	613.22
378.91	681.10
379.11	622.58
379.31	669.39
379.50	631.94
379.70	709.18
379.89	685.78
380.09	699.82
380.28	653.01
380.48	767.70
380.68	692.80
380.87	690.46
381.07	683.44
381.26	746.63
381.46	753.65
381.65	594.50
381.85	774.72
382.04	650.67
382.24	615.56
382.43	699.82
382.63	723.23
382.83	718.54
383.02	781.74
383.22	741.95
383.41	697.48
383.61	653.01
383.80	718.54
384.00	748.97
384.19	788.76
384.39	753.65
384.58	704.50
384.78	751.31
384.97	791.10
385.17	777.06
385.36	847.27
385.56	809.83
385.75	777.06
385.95	795.78
386.14	732.59
386.34	847.27
386.53	840.25
386.72	732.59
386.92	891.74
387.11	851.96
387.31	854.30
387.50	851.96
387.70	882.38
387.89	849.61
388.09	835.57
388.28	770.04
388.48	833.23
388.67	938.55
388.86	943.24
389.06	912.81
389.25	971.32
389.45	964.30
389.64	922.17
389.84	973.66
390.03	994.73
390.22	964.30
390.42	983.02
390.61	990.05
390.81	1034.52
391.00	1046.22
391.19	961.96
391.39	1046.22
391.58	1121.12
391.78	992.39
391.97	980.68
392.16	961.96
392.36	1076.65
392.55	987.71
392.75	1008.77
392.94	1025.15
393.13	1022.81
393.33	950.26
393.52	1004.09
393.71	1090.69
393.91	1039.20
394.10	1074.31
394.29	1062.60
394.49	1121.12
394.68	1118.78
394.88	1238.14
395.07	1125.80
395.26	1146.86
395.46	1245.16
395.65	1179.63
395.84	1249.85
396.04	1235.80
396.23	1104.73
396.42	1121.12
396.62	1104.73
396.81	1153.88
397.00	1186.65
397.19	1111.75
397.39	1322.40
397.58	1427.73
397.77	1385.60
397.97	1390.28
398.16	1416.02
398.35	1483.90
398.55	1380.92
398.74	1406.66
398.93	1469.86
399.12	1409.00
399.32	1474.54
399.51	1432.41
399.70	1572.84
399.90	1575.18
400.09	1549.43
400.28	1607.95
400.47	1554.12
400.67	1621.99
400.86	1591.56
401.05	1607.95
401.24	1521.35
401.44	1692.21
401.63	1647.74
401.82	1621.99
402.01	1673.48
402.21	1722.63
402.40	1689.87
402.59	1689.87
402.78	1687.53
402.97	1664.12
403.17	1673.48
403.36	1734.34
403.55	1764.76
403.74	1811.57
403.93	1881.79
404.13	1940.30
404.32	1692.21
404.51	1842.00
404.70	1921.58
404.89	1872.43
405.09	1980.09
405.28	1877.11
405.47	1926.26
405.66	1842.00
405.85	1991.80
406.05	2054.99
406.24	1998.82
406.43	1968.39
406.62	2036.27
406.81	2172.02
407.00	2080.74
407.20	1984.77
407.39	2101.80
407.58	2097.12
407.77	2174.36
407.96	2054.99
408.15	2239.89
408.34	2104.14
408.54	2150.95
408.73	2134.57
408.92	2249.25
409.11	2195.42
409.30	2352.24
409.49	2251.60
409.68	2267.98
409.87	2209.47
410.07	2225.85
410.26	2319.47
410.45	2356.92
410.64	2403.73
410.83	2377.98
411.02	2466.92
411.21	2408.41
411.40	2466.92
411.59	2485.65
411.78	2499.69
411.98	2602.68
412.17	2684.59
412.36	2583.95
412.55	2630.76
412.74	2696.30
412.93	2663.53
413.12	2560.55
413.31	2825.03
413.50	2820.35
413.69	2787.58
413.88	2890.56
414.07	2855.45
414.26	2815.66
414.45	2855.45
414.64	2869.50
414.83	2834.39
415.02	3054.40
415.22	3105.89
415.41	3056.74
415.60	2928.01
415.79	3049.72
415.98	3187.81
416.17	3192.49
416.36	3045.04
416.55	3251.00
416.74	3229.94
416.93	3089.51
417.12	3110.57
417.31	3204.19
417.50	3157.38
417.69	3302.50
417.88	3403.14
418.07	3396.12
418.26	3314.20
418.45	3424.20
418.64	3524.85
418.83	3548.25
419.02	3538.89
419.21	3557.61
419.39	3482.72
419.58	3487.40
419.77	3478.04
419.96	3709.75
420.15	3585.70
420.34	3623.15
420.53	3712.09
420.72	3684.00
420.91	3801.03
421.10	3618.47
421.29	3747.20
421.48	3716.77
421.67	3854.86
421.86	3684.00
422.05	3667.62
422.24	3695.71
422.43	3655.92
422.61	3721.45
422.80	3845.50
422.99	3749.54
423.18	3658.26
423.37	3918.06
423.56	3866.56
423.75	3833.80
423.94	3761.24
424.13	3651.24
424.32	3735.50
424.50	3847.84
424.69	3833.80
424.88	3896.99
425.07	3808.05
425.26	3747.20
425.45	3812.73
425.64	3988.27
425.83	3726.13
426.01	3978.91
426.20	3911.04
426.39	3960.19
426.58	3833.80
426.77	3852.52
426.96	3854.86
427.15	3796.35
427.33	3964.87
427.52	4018.70
427.71	3967.21
427.90	3946.14
428.09	4035.08
428.28	4044.45
428.46	3985.93
428.65	3964.87
428.84	4238.71
429.03	4107.64
429.22	3974.23
429.40	4021.04
429.59	3981.25
429.78	3969.55
429.97	3868.91
430.16	3878.27
430.34	4138.07
430.53	4077.21
430.72	4166.15
430.91	4105.30
431.10	4243.39
431.28	4390.84
431.47	4512.55
431.66	4566.39
431.85	4440.00
432.03	4491.49
432.22	4475.10
432.41	4351.06
432.60	4559.36
432.79	4650.64
432.97	4627.24
433.16	4564.04
433.35	4423.61
433.54	4606.17
433.72	4720.86
433.91	4447.02
434.10	4538.30
434.28	4575.75
434.47	4814.48
434.66	4753.63
434.85	4915.12
435.03	4938.53
435.22	4802.78
435.41	5029.81
435.59	4919.81
435.78	4975.98
435.97	4915.12
436.16	5048.54
436.34	5029.81
436.53	4954.91
436.72	5097.69
436.90	5043.85
437.09	5179.61
437.28	4980.66
437.46	5158.54
437.65	5071.94
437.84	4959.60
438.02	4903.42
438.21	5081.30
438.40	4985.34
438.58	5181.95
438.77	5259.18
438.96	5277.91
439.14	5352.81
439.33	5540.05
439.52	5352.81
439.70	5504.94
439.89	5666.44
440.08	5544.73
440.26	5488.56
440.45	5621.97
440.63	5762.40
440.82	5933.26
441.01	5708.57
441.19	5863.04
441.38	5867.72
441.57	5966.03
441.75	5959.00
441.94	6033.90
442.12	6111.14
442.31	6214.12
442.50	6148.59
442.68	6171.99
442.87	6022.20
443.05	6092.41
443.24	6310.08
443.43	6064.33
443.61	6181.35
443.80	6539.46
443.98	6214.12
444.17	6146.25
444.35	6436.47
444.54	6319.45
444.73	6359.24
444.91	6253.91
445.10	6424.77
445.28	6370.94
445.47	6282.00
445.65	6188.38
445.84	6356.90
446.02	6457.54
446.21	6366.26
446.39	6289.02
446.58	6497.33
446.77	6511.37
446.95	6305.40
447.14	6518.39
447.32	6626.06
447.51	6555.84
447.69	6586.27
447.88	6494.99
448.06	6436.47
448.25	6438.81
448.43	6534.78
448.62	6576.91
448.80	6679.89
448.99	6614.35
449.17	6878.83
449.36	6832.02
449.54	6848.41
449.73	6843.73
449.91	6930.33
450.10	6946.71
450.28	6925.65
450.46	7052.03
450.65	6935.01
450.83	6993.52
451.02	6775.85
451.20	6939.69
451.39	7101.19
451.57	7070.76
451.76	7117.57
451.94	7033.31
452.13	7033.31
452.31	7131.61
452.49	6876.49
452.68	6871.81
452.86	6946.71
453.05	7183.10
453.23	7250.98
453.42	7068.42
453.60	7192.47
453.78	7370.35
453.97	7248.64
454.15	7194.81
454.34	7145.66
454.52	7267.36
454.70	7323.54
454.89	7368.01
455.07	7363.33
455.26	7449.93
455.44	7623.12
455.62	7611.42
455.81	7527.16
455.99	7599.72
456.17	7686.32
456.36	7667.60
456.54	7754.19
456.73	7801.01
456.91	7822.07
457.09	7850.16
457.28	8053.78
457.46	7845.48
457.64	7967.18
457.83	7974.21
458.01	7962.50
458.19	8114.64
458.38	7803.35
458.56	8079.53
458.74	8013.99
458.93	7833.77
459.11	8107.62
459.29	8168.47
459.48	8056.12
459.66	8049.10
459.84	8121.66
460.03	8304.22
460.21	8360.39
460.39	8294.86
460.57	8250.39
460.76	8650.62
460.94	8379.12
461.12	8557.00
461.31	8479.76
461.49	8414.23
461.67	8655.30
461.85	8664.66
462.04	8393.16
462.22	9376.19
462.40	8507.85
462.59	8819.14
462.77	8634.24
462.95	8819.14
463.13	8711.47
463.32	8606.15
463.50	8716.16
463.68	8994.68
463.86	8863.61
464.05	8732.54
464.23	8718.50
464.41	8837.86
464.59	8692.75
464.78	9069.58
464.96	8868.29
465.14	8896.38
465.32	9050.85
465.50	8936.17
465.69	9022.77
465.87	9069.58
466.05	9008.72
466.23	8901.06
466.41	9013.40
466.60	9282.56
466.78	8931.48
466.96	8894.04
467.14	9111.71
467.32	9191.28
467.51	9181.92
467.69	9022.77
467.87	9174.90
468.05	9238.09
468.23	9109.36
468.41	9252.14
468.60	9261.50
468.78	9366.82
468.96	9434.70
469.14	9376.19
469.32	9582.15
469.50	9327.03
469.69	9547.05
469.87	9673.43
470.05	9685.14
470.23	9696.84
470.41	9598.54
470.59	9668.75
470.77	9657.05
470.95	9717.90
471.14	9741.31
471.32	9750.67
471.50	10223.46
471.68	9980.04
471.86	10118.14
472.04	10171.97
472.22	10310.06
472.40	10237.50
472.58	10265.59
472.77	10380.28
472.95	10377.94
473.13	10565.18
473.31	10445.81
473.49	10413.04
473.67	10382.62
473.85	10492.62
474.03	10607.31
474.21	10806.25
474.39	10848.38
474.57	10881.15
474.75	10906.90
474.93	10977.11
475.12	10778.17
475.30	11147.97
475.48	10981.79
475.66	11117.54
475.84	11253.30
476.02	10913.92
476.20	10977.11
476.38	11419.47
476.56	11541.18
476.74	11698.00
476.92	11545.86
477.10	11496.71
477.28	11943.75
477.46	11695.66
477.64	12009.29
477.82	12109.93
478.00	12355.69
478.18	12208.23
478.36	12484.42
478.54	12271.43
478.72	12484.42
478.90	12688.04
479.08	12725.49
479.26	12795.71
479.44	12725.49
479.62	13020.40
479.80	12631.87
479.98	12865.92
480.16	13523.62
480.34	13378.50
480.52	13385.52
480.70	13376.16
480.88	13488.51
481.06	13530.64
481.24	13685.11
481.41	13853.63
481.59	13851.29
481.77	13989.38
481.95	14106.41
482.13	14473.87
482.31	14148.54
482.49	14511.32
482.67	14443.45
482.85	14801.55
483.03	14780.48
483.21	15075.39
483.39	15070.71
483.57	15103.48
483.74	15173.69
483.92	15318.81
484.10	15030.92
484.28	15552.86
484.46	15758.83
484.64	16098.20
484.82	15740.10
485.00	15875.85
485.18	16049.05
485.35	16453.97
485.53	15910.96
485.71	16114.59
485.89	16257.36
486.07	16128.63
486.25	16397.79
486.43	16486.73
486.61	16699.72
486.78	16669.30
486.96	17015.69
487.14	17263.79
487.32	17530.61
487.50	17373.80
487.68	17593.81
487.85	17944.89
488.03	18120.43
488.21	18010.42
488.39	18178.94
488.57	18272.56
488.75	18452.78
488.92	18684.50
489.10	18848.33
489.28	18972.38
489.46	19269.63
489.64	19117.50
489.81	19889.87
489.99	19838.38
490.17	19571.56
490.35	20004.56
490.53	19803.27
490.70	20367.34
490.88	20102.86
491.06	20201.16
491.24	20456.28
491.41	20196.48
491.59	20355.64
491.77	20341.60
491.95	20222.23
492.13	20725.44
492.30	21036.74
492.48	21568.04
492.66	21605.49
492.84	21640.59
493.01	21806.77
493.19	21493.14
493.37	21771.66
493.54	21933.16
493.72	22085.30
493.90	22155.51
494.08	22494.89
494.25	22684.47
494.43	22462.12
494.61	22794.48
494.79	22958.31
494.96	22684.47
495.14	22955.97
495.32	23023.85
495.49	23262.58
495.67	23386.63
495.85	23807.93
496.02	24013.90
496.20	24058.37
496.38	23854.74
496.55	23878.15
496.73	24739.46
496.91	24093.47
497.09	24423.49
497.26	24404.77
497.44	24336.89
497.62	24826.06
497.79	25216.93
497.97	24978.20
498.14	24519.45
498.32	25106.93
498.50	25252.04
498.67	25483.75
498.85	25429.92
499.03	25731.85
499.20	25799.73
499.38	25893.35
499.56	25820.79
499.73	25902.71
499.91	26263.15
500.08	26087.61
500.26	26036.12
500.44	26099.31
500.61	26192.94
500.79	26033.78
500.97	26122.72
501.14	26705.51
501.32	26551.04
501.49	26298.26
501.67	26820.20
501.84	27033.19
502.02	26841.26
502.20	27190.00
502.37	27260.22
502.55	27197.02
502.72	27484.91
502.90	27601.94
503.07	27285.97
503.25	27637.05
503.43	27723.65
503.60	27620.66
503.78	27824.29
503.95	27559.81
504.13	28292.40
504.30	28116.86
504.48	27971.74
504.65	28257.29
504.83	28554.54
505.01	28563.90
505.18	28425.81
505.36	28922.00
505.53	28790.93
505.71	29015.62
505.88	29015.62
506.06	28559.22
506.23	29106.90
506.41	28936.04
506.58	29312.87
506.76	29448.62
506.93	29411.17
507.11	29460.32
507.28	29275.42
507.46	29191.16
507.63	29235.63
507.81	29544.58
507.98	29429.90
508.16	29537.56
508.33	30066.52
508.50	29935.45
508.68	30195.25
508.85	30466.75
509.03	30370.79
509.20	30445.69
509.38	30551.01
509.55	30249.08
509.73	30986.35
509.90	30464.41
510.08	30808.47
510.25	30785.07
510.42	30583.78
510.60	31365.52
510.77	31323.39
510.95	31606.59
511.12	31168.91
511.30	31431.05
511.47	32187.05
511.64	31791.50
511.82	32006.83
511.99	31817.24
512.17	31632.34
512.34	31765.75
512.51	32247.90
512.69	32137.90
512.86	32210.45
513.04	32456.21
513.21	32346.20
513.38	31864.05
513.56	32505.36
513.73	31957.67
513.90	32327.48
514.08	32095.77
514.25	32685.58
514.43	32353.23
514.60	32727.71
514.77	32732.39
514.95	32987.51
515.12	32856.44
515.29	32910.27
515.47	33158.37
515.64	33462.64
515.81	33125.60
515.99	33090.49
516.16	33046.02
516.33	33071.77
516.51	33099.86
516.68	33104.54
516.85	32898.57
517.03	33010.92
517.20	33291.78
517.37	33734.14
517.54	33682.65
517.72	33879.25
517.89	33312.84
518.06	33453.28
518.24	33944.79
518.41	33787.97
518.58	33823.08
518.75	33970.54
518.93	33631.16
519.10	34064.16
519.27	34305.23
519.45	34202.25
519.62	34668.02
519.79	34604.82
519.96	34771.00
520.14	34918.45
520.31	34696.10
520.48	34988.67
520.65	34976.97
520.83	34986.33
521.00	35239.11
521.17	35599.55
521.34	35292.94
521.52	35779.77
521.69	35299.96
521.86	35590.19
522.03	35674.45
522.20	36105.10
522.38	35688.49
522.55	36130.85
522.72	35873.39
522.89	35538.69
523.07	36524.06
523.24	36081.70
523.41	36484.27
523.58	36472.57
523.75	36547.47
523.92	36758.11
524.10	36631.72
524.27	36495.97
524.44	36409.37
524.61	36715.98
524.78	36816.63
524.96	36531.08
525.13	36620.02
525.30	36795.56
525.47	36861.10
525.64	36559.17
525.81	36996.85
525.98	36779.18
526.16	36842.37
526.33	36465.55
526.50	37137.28
526.67	36629.38
526.84	36720.66
527.01	36718.32
527.18	37261.33
527.36	37628.79
527.53	37776.25
527.70	37752.84
527.87	37617.09
528.04	37383.04
528.21	37975.19
528.38	37818.38
528.55	38000.94
528.72	38012.64
528.89	38506.49
529.07	37940.08
529.24	38054.77
529.41	38007.96
529.58	38277.12
529.75	38330.95
529.92	38508.83
530.09	38366.06
530.26	38618.84
530.43	38492.45
530.60	37869.87
530.77	38539.26
530.94	39016.73
531.11	38583.73
531.28	38534.58
531.46	38721.82
531.63	38738.21
531.80	38473.73
531.97	38789.70
532.14	39077.58
532.31	38450.32
532.48	38827.15
532.65	38920.77
532.82	38916.09
532.99	39908.47
533.16	38801.40
533.33	38880.98
533.50	39636.97
533.67	39000.35
533.84	39206.31
534.01	39257.81
534.18	39477.82
534.35	39498.88
534.52	39622.93
534.69	39810.17
534.86	39814.85
535.03	39288.23
535.20	40119.12
535.37	40205.72
535.54	40149.55
535.71	39871.03
535.88	40048.91
536.05	40315.73
536.22	40119.12
536.38	40577.87
536.55	40065.29
536.72	40233.81
536.89	39751.66
537.06	39838.26
537.23	40278.28
537.40	40472.54
537.57	40376.58
537.74	40399.99
537.91	40629.36
538.08	40664.47
538.25	40208.06
538.42	40807.24
538.59	40563.82
538.75	40456.16
538.92	40788.52
539.09	40678.51
539.26	40713.62
539.43	40795.54
539.60	40655.11
539.77	40502.97
539.94	40699.58
540.11	40713.62
540.28	41319.82
540.44	40666.81
540.61	40856.39
540.78	40697.24
540.95	40842.35
541.12	40793.20
541.29	40774.47
541.46	41144.28
541.62	41024.91
541.79	41521.10
541.96	40905.54
542.13	41251.94
542.30	41493.02
542.47	41256.62
542.63	41741.11
542.80	41235.56
542.97	41965.81
543.14	41460.25
543.31	42349.65
543.48	41523.44
543.64	42370.72
543.81	42265.39
543.98	42562.64
544.15	42115.60
544.32	42424.55
544.48	42440.93
544.65	42597.75
544.82	42057.09
544.99	41769.20
545.16	42373.06
545.32	42106.24
545.49	42878.61
545.66	42391.78
545.83	42462.00
546.00	42443.27
546.16	42513.49
546.33	42382.42
546.50	42101.56
546.67	42665.63
546.83	42096.88
547.00	42579.03
547.17	42513.49
547.34	42520.51
547.50	42642.22
547.67	42408.17
547.84	42609.45
548.00	42979.26
548.17	42897.34
548.34	43133.73
548.51	43356.08
548.67	43288.21
548.84	42918.40
549.01	43297.57
549.18	43138.41
549.34	43283.53
549.51	43168.84
549.68	43477.79
549.84	43154.80
550.01	43089.26
550.18	43189.91
550.34	43178.20
550.51	43379.49
550.68	43206.29
550.84	42801.38
551.01	43299.91
551.18	43192.25
551.34	43379.49
551.51	43957.60
551.68	43505.88
551.84	43562.05
552.01	43459.07
552.18	43714.19
552.34	43257.78
552.51	43941.22
552.68	43749.29
552.84	43732.91
553.01	44203.36
553.18	43957.60
553.34	43824.19
553.51	43831.21
553.67	43847.60
553.84	44327.41
554.01	44292.30
554.17	44526.35
554.34	44048.88
554.51	44325.07
554.67	43821.85
554.84	43618.22
555.00	44175.27
555.17	43660.35
555.33	43866.32
555.50	43948.24
555.67	44095.69
555.83	43995.05
556.00	43761.00
556.16	44486.56
556.33	44027.82
556.50	44341.45
556.66	44467.84
556.83	43643.97
556.99	44163.57
557.16	44603.59
557.32	44037.18
557.49	44533.37
557.65	44182.29
557.82	44495.92
557.98	44325.07
558.15	44526.35
558.32	44626.99
558.48	44353.15
558.65	44348.47
558.81	44524.01
558.98	44634.02
559.14	44638.70
559.31	44598.91
559.47	44437.41
559.64	44591.89
559.80	44720.62
559.97	44680.83
560.13	44648.06
560.30	44879.77
560.46	44818.92
560.63	44594.23
560.79	44931.26
560.96	45045.95
561.12	44722.96
561.29	44734.66
561.45	44758.06
561.61	44779.13
561.78	44411.67
561.94	44404.64
562.11	44591.89
562.27	44641.04
562.44	45158.30
562.60	45436.82
562.77	45109.14
562.93	45013.18
563.10	44980.42
563.26	44697.21
563.42	45139.57
563.59	44708.91
563.75	44896.16
563.92	44975.73
564.08	45394.69
564.24	45118.51
564.41	45518.74
564.57	45219.15
564.74	45350.22
564.90	45148.93
565.07	45008.50
565.23	44863.39
565.39	44809.56
565.56	45186.38
565.72	44783.81
565.88	45511.72
566.05	44832.96
566.21	44814.24
566.38	45057.65
566.54	44996.80
566.70	45539.80
566.87	45666.19
567.03	44898.50
567.19	45675.55
567.36	45186.38
567.52	44968.71
567.68	45663.85
567.85	45174.68
568.01	45113.83
568.17	45106.80
568.34	45448.52
568.50	45088.08
568.66	44942.97
568.83	45492.99
568.99	45022.54
569.15	45469.59
569.32	45170.00
569.48	44832.96
569.64	45282.34
569.81	45235.53
569.97	45034.25
570.13	44959.35
570.30	45020.20
570.46	45298.73
570.62	45205.11
570.78	44992.12
570.95	44629.34
571.11	45322.13
571.27	45397.03
571.43	44938.29
571.60	45151.27
571.76	45289.37
571.92	45214.47
572.09	45390.01
572.25	45528.10
572.41	45329.16
572.57	45394.69
572.74	45825.35
572.90	45577.25
573.06	45918.97
573.22	45544.48
573.38	45338.52
573.55	45167.66
573.71	45778.54
573.87	45530.44
574.03	45556.19
574.20	45181.70
574.36	45694.28
574.52	45385.33
574.68	45343.20
574.84	45382.99
575.01	45294.05
575.17	45659.17
575.33	45214.47
575.49	44954.67
575.65	45556.19
575.82	45661.51
575.98	45528.10
576.14	45675.55
576.30	45673.21
576.46	45270.64
576.62	45399.37
576.79	45647.47
576.95	45296.39
577.11	45315.11
577.27	45399.37
577.43	45186.38
577.59	45298.73
577.75	45542.14
577.92	44847.00
578.08	44924.24
578.24	45347.88
578.40	45212.13
578.56	45425.12
578.72	45392.35
578.88	45514.06
579.04	45429.80
579.21	45186.38
579.37	45057.65
579.53	45310.43
579.69	44837.64
579.85	45851.09
580.01	45429.80
580.17	45696.62
580.33	45860.46
580.49	45619.38
580.65	45420.44
580.82	45666.19
580.98	45492.99
581.14	45193.40
581.30	45727.05
581.46	45581.93
581.62	45247.24
581.78	45404.05
581.94	45509.38
582.10	45911.95
582.26	45773.86
582.42	45542.14
582.58	45603.00
582.74	45275.32
582.90	45808.96
583.06	45745.77
583.22	45785.56
583.38	45537.46
583.54	45762.15
583.70	45336.18
583.86	45918.97
584.02	45247.24
584.18	45869.82
584.34	45350.22
584.50	45549.17
584.66	45535.12
584.82	45256.60
584.98	45397.03
585.14	45380.65
585.30	45565.55
585.46	45427.46
585.62	45380.65
585.78	45382.99
585.94	45368.94
586.10	45404.05
586.26	45368.94
586.42	45911.95
586.58	46106.21
586.74	45673.21
586.90	45404.05
587.06	45350.22
587.22	45345.54
587.38	45993.87
587.54	45649.81
587.70	45720.02
587.86	45429.80
588.02	45633.42
588.18	45734.07
588.34	45406.39
588.49	45359.58
588.65	44708.91
588.81	45427.46
588.97	45347.88
589.13	45207.45
589.29	45272.98
589.45	45411.07
589.61	45598.32
589.77	45481.29
589.93	45696.62
590.08	45708.32
590.24	45804.28
590.40	45390.01
590.56	45907.27
590.72	45628.74
590.88	45614.70
591.04	45567.89
591.20	46188.13
591.35	46246.65
591.51	45825.35
591.67	45710.66
591.83	45546.82
591.99	45556.19
592.15	45350.22
592.31	45972.80
592.46	45708.32
592.62	45478.95
592.78	45958.76
592.94	45722.37
593.10	45694.28
593.26	46124.94
593.41	46253.67
593.57	45251.92
593.73	45516.40
593.89	45771.52
594.05	45794.92
594.20	45914.29
594.36	45745.77
594.52	46045.36
594.68	45659.17
594.84	46024.29
594.99	45851.09
595.15	45635.77
595.31	45942.38
595.47	46195.15
595.62	45890.88
595.78	45834.71
595.94	45511.72
596.10	45811.31
596.25	46237.28
596.41	45989.19
596.57	45654.49
596.73	46050.04
596.88	45619.38
597.04	45684.92
597.20	45771.52
597.36	46103.87
597.51	45918.97
597.67	45703.64
597.83	45731.73
597.99	46410.48
598.14	45645.13
598.30	45759.81
598.46	45797.26
598.61	46141.32
598.77	45471.93
598.93	46033.66
599.09	45687.26
599.24	46471.34
599.40	45837.05
599.56	45778.54
599.71	45617.04
599.87	45837.05
600.03	45935.35
600.18	46028.98
600.34	45895.56
600.50	45605.34
600.65	45694.28
600.81	45895.56
600.97	46040.68
601.12	46094.51
601.28	45588.95
601.44	45624.06
601.59	45855.78
601.75	45310.43
601.91	45336.18
602.06	45495.33
602.22	45888.54
602.37	45762.15
602.53	45865.14
602.69	46204.52
602.84	45502.35
603.00	45776.20
603.16	45471.93
603.31	45778.54
603.47	45603.00
603.62	45485.97
603.78	45504.70
603.94	45928.33
604.09	45954.08
604.25	45787.90
604.40	45607.68
604.56	45546.82
604.71	45900.25
604.87	45652.15
605.03	45481.29
605.18	45986.85
605.34	45394.69
605.49	45167.66
605.65	45584.27
605.80	45062.33
605.96	45911.95
606.12	45874.50
606.27	45516.40
606.43	45626.40
606.58	45675.55
606.74	45439.16
606.89	45549.17
607.05	45443.84
607.20	45764.49
607.36	45680.24
607.51	45528.10
607.67	45652.15
607.82	45965.78
607.98	45345.54
608.13	45057.65
608.29	45038.93
608.44	45425.12
608.60	45284.68
608.75	45272.98
608.91	45507.04
609.06	45130.21
609.22	45392.35
609.37	45502.35
609.53	45673.21
609.68	45567.89
609.84	45507.04
609.99	45705.98
610.15	44893.82
610.30	44734.66
610.46	45123.19
610.61	45507.04
610.76	45687.26
610.92	45619.38
611.07	44921.90
611.23	44942.97
611.38	45382.99
611.54	45059.99
611.69	44928.92
611.84	44985.10
612.00	45010.84
612.15	44624.65
612.31	44928.92
612.46	44645.72
612.62	45088.08
612.77	45247.24
612.92	45153.62
613.08	45083.40
613.23	44549.76
613.39	44399.96
613.54	44098.03
613.69	44404.64
613.85	44648.06
614.00	45207.45
614.15	44744.02
614.31	44498.26
614.46	44662.10
614.62	44547.42
614.77	44397.62
614.92	44830.62
615.08	44430.39
615.23	44718.28
615.38	44568.48
615.54	44327.41
615.69	44428.05
615.84	43938.88
616.00	44549.76
616.15	44872.75
616.30	44491.24
616.46	44142.50
616.61	43983.35
616.76	44182.29
616.92	44065.27
617.07	44002.07
617.22	44238.47
617.37	44224.42
617.53	44486.56
617.68	44584.86
617.83	44271.23
617.99	44098.03
618.14	44004.41
618.29	44098.03
618.45	43896.75
618.60	43981.01
618.75	43917.81
618.90	43585.46
619.06	43648.65
619.21	43735.25
619.36	44133.14
619.51	43629.93
619.67	43878.02
619.82	43770.36
619.97	44018.46
620.12	43562.05
620.28	43173.52
620.43	43576.09
620.58	44048.88
620.73	43672.06
620.89	43597.16
621.04	43908.45
621.19	43959.94
621.34	43910.79
621.49	43318.64
621.65	43489.49
621.80	43491.83
621.95	43370.13
622.10	43580.78
622.25	43477.79
622.41	43641.63
622.56	43515.24
622.71	43470.77
622.86	43210.97
623.01	43173.52
623.16	43487.15
623.32	42976.92
623.47	43009.68
623.62	43496.52
623.77	43063.52
623.92	43150.12
624.07	43058.84
624.23	42644.56
624.38	43147.78
624.53	42642.22
624.68	43234.38
624.83	43262.46
624.98	42602.43
625.13	42768.61
625.29	43187.56
625.44	43016.71
625.59	42972.24
625.74	43019.05
625.89	42831.80
626.04	41876.86
626.19	42583.71
626.34	42625.84
626.49	43168.84
626.65	42691.37
626.80	42726.48
626.95	42326.25
627.10	42115.60
627.25	42169.43
627.40	42155.39
627.55	41918.99
627.70	42265.39
627.85	41722.39
628.00	42136.66
628.15	42167.09
628.30	42279.44
628.45	42195.18
628.60	42522.85
628.76	42047.72
628.91	42167.09
629.06	42239.65
629.21	42131.98
629.36	42176.45
629.51	41961.12
629.66	41972.83
629.81	42066.45
629.96	41720.05
630.11	42033.68
630.26	41911.97
630.41	42071.13
630.56	41979.85
630.71	41942.40
630.86	41691.96
631.01	41713.03
631.16	41844.10
631.31	41301.09
631.46	41315.14
631.61	41591.32
631.76	41551.53
631.91	42029.00
632.06	41670.90
632.21	42150.71
632.36	42164.75
632.51	41191.09
632.66	41640.47
632.81	41329.18
632.96	41038.95
633.10	41247.26
633.25	41205.13
633.40	41495.36
633.55	41731.75
633.70	41130.23
633.85	41415.78
634.00	41287.05
634.15	41308.11
634.30	41254.28
634.45	40961.72
634.60	41352.58
634.75	41053.00
634.90	41174.70
635.05	41038.95
635.19	40903.20
635.34	41380.67
635.49	41137.26
635.64	40699.58
635.79	40840.01
635.94	40823.62
636.09	40622.34
636.24	40538.08
636.39	40643.40
636.53	40762.77
636.68	41055.34
636.83	40863.41
636.98	40601.27
637.13	40884.48
637.28	41053.00
637.43	40474.88
637.57	40744.05
637.72	40388.28
637.87	40790.86
638.02	40737.02
638.17	40229.13
638.32	40219.77
638.46	40217.43
638.61	40535.74
638.76	40257.21
638.91	40411.69
639.06	40114.44
639.20	40884.48
639.35	39931.88
639.50	40690.21
639.65	40423.39
639.80	40095.72
639.94	40425.73
640.09	39957.63
640.24	40074.65
640.39	39959.97
640.54	40067.63
640.68	40165.93
640.83	40172.96
640.98	39864.00
641.13	39835.92
641.27	40100.40
641.42	39391.22
641.57	40030.18
641.72	40093.38
641.86	39503.56
642.01	39234.40
642.16	39737.62
642.31	39835.92
642.45	39997.41
642.60	39292.91
642.75	40107.42
642.90	39896.77
643.04	39491.86
643.19	39599.52
643.34	39496.54
643.48	39578.46
643.63	39377.17
643.78	39489.52
643.93	39622.93
644.07	39508.24
644.22	39414.62
644.37	39147.80
644.51	39234.40
644.66	39519.95
644.81	39690.80
644.95	39789.11
645.10	39182.91
645.25	39089.29
645.39	39395.90
645.54	39056.52
645.69	39065.88
645.83	39012.05
645.98	39379.51
646.13	38831.83
646.27	39014.39
646.42	38595.43
646.57	38529.90
646.71	38880.98
646.86	38993.32
647.00	38728.84
647.15	38515.86
647.30	38878.64
647.44	38829.49
647.59	39021.41
647.74	38609.48
647.88	38466.70
648.03	38813.10
648.17	38618.84
648.32	38595.43
648.47	38588.41
648.61	38639.90
648.76	38689.06
648.90	38548.62
649.05	38644.59
649.20	38864.60
649.34	38485.43
649.49	38721.82
649.63	38731.18
649.78	38841.19
649.92	38733.53
650.07	38876.30
650.21	38632.88
650.36	38272.44
650.51	38616.50
650.65	39318.66
650.80	38466.70
650.94	38424.57
651.09	38305.21
651.23	38047.75
651.38	37886.25
651.52	37539.85
651.67	37944.76
651.81	37968.17
651.96	38326.27
652.10	38429.26
652.25	38014.98
652.39	38176.48
652.54	37958.81
652.68	37762.20
652.83	37766.88
652.97	38464.36
653.12	38005.62
653.26	37497.72
653.41	37570.28
653.55	37970.51
653.70	37989.24
653.84	37579.64
653.99	38061.79
654.13	37584.32
654.27	37570.28
654.42	37809.01
654.56	38115.62
654.71	37666.24
654.85	37249.63
655.00	37663.90
655.14	37727.10
655.29	37464.96
655.43	37251.97
655.57	36950.04
655.72	37015.57
655.86	36863.44
656.01	36566.19
656.15	36772.16
656.30	36987.49
656.44	36701.94
656.58	37081.11
656.73	37048.34
656.87	36996.85
657.01	36875.14
657.16	36814.29
657.30	36467.89
657.45	36889.18
657.59	36912.59
657.73	36723.01
657.88	36627.04
658.02	36992.17
658.16	37111.53
658.31	36863.44
658.45	37027.28
658.60	36884.50
658.74	37078.77
658.88	36779.18
659.03	36271.28
659.17	36605.98
659.31	36350.86
659.46	36025.53
659.60	36334.48
659.74	35920.20
659.89	35997.44
660.03	35995.10
660.17	36753.43
660.32	36280.64
660.46	36285.33
660.60	36196.38
660.74	36229.15
660.89	36198.73
661.03	35597.21
661.17	36278.30
661.32	35414.65
661.46	36079.36
661.60	35604.23
661.74	35761.05
661.89	35377.20
662.03	35761.05
662.17	35505.93
662.31	35875.73
662.46	35814.88
662.60	35590.19
662.74	35737.64
662.88	35578.48
663.03	35639.34
663.17	35335.07
663.31	35136.12
663.45	35402.94
663.60	35440.39
663.74	35274.21
663.88	34789.72
664.02	35044.84
664.17	34834.19
664.31	35204.00
664.45	34656.31
664.59	34714.83
664.73	35166.55
664.88	35042.50
665.02	34115.65
665.16	34618.86
665.30	34321.62
665.44	34330.98
665.59	34185.86
665.73	34326.30
665.87	34312.25
666.01	34375.45
666.15	34433.96
666.29	34031.39
666.44	34195.23
666.58	33940.11
666.72	34080.54
666.86	34263.10
667.00	34153.10
667.14	33780.95
667.28	33858.19
667.43	33694.35
667.57	33663.93
667.71	33708.40
667.85	33855.85
667.99	33544.56
668.13	34134.37
668.27	33647.54
668.41	33858.19
668.56	33443.91
668.70	33553.92
668.84	33298.80
668.98	33048.36
669.12	33127.94
669.26	33259.01
669.40	32648.13
669.54	33097.52
669.68	33151.35
669.82	32687.92
669.96	32680.90
670.10	32725.37
670.25	32432.80
670.39	32416.42
670.53	32830.69
670.67	32739.41
670.81	32549.83
670.95	32304.07
671.09	32205.77
671.23	32376.63
671.37	32037.25
671.51	31852.35
671.65	32074.70
671.79	31812.56
671.93	31894.48
672.07	31990.44
672.21	32055.98
672.35	32119.17
672.49	32140.24
672.63	31590.21
672.77	31601.91
672.91	31782.13
673.05	31346.79
673.19	31164.23
673.33	31372.54
673.47	31124.44
673.61	31299.98
673.75	31370.20
673.89	30817.83
674.03	30974.65
674.17	30911.46
674.31	30923.16
674.45	31255.51
674.59	30948.90
674.73	30756.98
674.87	30972.31
675.01	30813.15
675.15	30857.62
675.29	30600.16
675.43	30836.56
675.56	30658.68
675.70	30000.99
675.84	30129.72
675.98	29432.24
676.12	29914.39
676.26	30141.42
676.40	29949.50
676.54	30213.98
676.68	29837.15
676.82	29579.69
676.96	29584.37
677.10	29677.99
677.23	29301.17
677.37	29523.52
677.51	29591.39
677.65	28772.21
677.79	28978.17
677.93	28940.72
678.07	28624.75
678.21	28222.18
678.34	28641.14
678.48	28318.14
678.62	28114.52
678.76	28446.87
678.90	28065.36
679.04	28130.90
679.18	28102.81
679.31	27644.07
679.45	27814.93
679.59	27370.22
679.73	27840.67
679.87	27513.00
680.00	27559.81
680.14	27318.73
680.28	27482.57
680.42	27353.84
680.56	27180.64
680.70	27112.77
680.83	27782.16
680.97	26934.88
681.11	27339.80
681.25	27026.17
681.39	26728.92
681.52	26930.20
681.66	26642.32
681.80	26576.78
681.94	26216.34
682.07	26382.52
682.21	26113.36
682.35	26174.21
682.49	25921.43
682.62	26178.89
682.76	26003.35
682.90	25909.73
683.04	25900.37
683.17	25841.85
683.31	25579.71
683.45	25504.82
683.59	25376.09
683.72	25495.46
683.86	25544.61
684.00	25373.75
684.13	25132.67
684.27	24945.43
684.41	24816.70
684.55	24854.15
684.68	24781.59
684.82	24631.80
684.96	24446.90
685.09	24451.58
685.23	24493.71
685.37	24390.72
685.50	24718.40
685.64	24306.46
685.78	24159.01
685.91	23810.27
686.05	23765.80
686.19	23786.86
686.32	23314.08
686.46	23180.67
686.60	23021.51
686.73	23033.21
686.87	23145.56
687.01	22960.66
687.14	22934.91
687.28	22707.88
687.42	22927.89
687.55	22937.25
687.69	23051.94
687.82	22668.09
687.96	22703.20
688.10	22462.12
688.23	22415.31
688.37	22272.54
688.50	22176.58
688.64	22590.85
688.78	22258.49
688.91	21884.01
689.05	21940.18
689.18	22071.25
689.32	21551.65
689.46	21944.86
689.59	22071.25
689.73	21982.31
689.86	21851.24
690.00	21696.77
690.13	21495.48
690.27	21296.53
690.41	20854.17
690.54	21200.57
690.68	20973.54
690.81	21167.80
690.95	20912.69
691.08	20837.79
691.22	20856.51
691.35	21018.01
691.49	20844.81
691.62	20870.56
691.76	20528.84
691.89	20741.83
692.03	20477.35
692.16	20201.16
692.30	20231.59
692.43	20030.30
692.57	19819.66
692.70	19768.16
692.84	19927.32
692.97	19641.78
693.11	19187.71
693.24	19665.18
693.38	19683.91
693.51	19496.66
693.65	19491.98
693.78	19044.94
693.92	19456.87
694.05	19159.63
694.19	19161.97
694.32	19140.90
694.45	19056.64
694.59	18984.09
694.72	18743.01
694.86	18806.20
694.99	18677.48
695.13	18616.62
695.26	18640.03
695.39	18808.54
695.53	18478.53
695.66	18642.37
695.80	18429.38
695.93	18478.53
696.07	18008.08
696.20	18317.03
696.33	18286.61
696.47	17872.33
696.60	17745.94
696.73	17743.60
696.87	17308.26
697.00	17294.22
697.14	17261.45
697.27	17135.06
697.40	17256.77
697.54	17376.14
697.67	17132.72
697.80	16999.31
697.94	17205.28
698.07	16910.37
698.21	16842.50
698.34	17111.66
698.47	16985.27
698.61	16519.50
698.74	16772.28
698.87	16482.05
699.01	16222.25
699.14	16217.57
699.27	16217.57
699.40	16166.08
699.54	16112.25
699.67	16123.95
699.80	16016.29
699.94	15913.30
700.07	15978.84
700.20	16163.74
700.34	15836.06
700.47	15700.31
700.60	15625.42
700.73	15742.44
700.87	15407.75
701.00	15541.16
701.13	15300.08
701.26	15213.48
701.40	15337.53
701.53	15133.90
701.66	15442.85
701.79	15094.11
701.93	14988.79
702.06	14810.91
702.19	14602.60
702.32	14897.51
702.46	14806.23
702.59	14719.63
702.72	14700.90
702.85	14679.84
702.99	14455.15
703.12	14469.19
703.25	14181.31
703.38	14579.20
703.51	14333.44
703.65	13947.25
703.78	13785.76
703.91	13745.97
704.04	13811.50
704.17	14033.85
704.31	13841.93
704.44	13647.66
704.57	13296.58
704.70	13610.22
704.83	13535.32
704.96	13818.52
705.10	13607.87
705.23	13303.60
>>>>>End Processed Spectral Data<<<<<
