SpectraSuite Data File
++++++++++++++++++++++++++++++++++++
Date: Fri Oct 25 10:48:25 EDT 2013
User: price-jones
Dark Spectrum Present: No
Reference Spectrum Present: No
Number of Sampled Component Spectra: 1
Spectrometers: USB2+H05261
Integration Time (usec): 100000 (USB2+H05261)
Spectra Averaged: 1 (USB2+H05261)
Boxcar Smoothing: 0 (USB2+H05261)
Correct for Electrical Dark: No (USB2+H05261)
Strobe/Lamp Enabled: No (USB2+H05261)
Correct for Detector Non-linearity: No (USB2+H05261)
Correct for Stray Light: No (USB2+H05261)
Number of Pixels in Processed Spectrum: 2048
>>>>>Begin Processed Spectral Data<<<<<
365.73	187.24
365.92	187.24
366.12	187.24
366.32	63.19
366.52	49.15
366.72	39.79
366.91	0.00
367.11	84.26
367.31	0.00
367.51	35.11
367.70	70.22
367.90	86.60
368.10	72.56
368.30	35.11
368.49	14.04
368.69	32.77
368.89	65.54
369.09	112.35
369.28	112.35
369.48	63.19
369.68	112.35
369.87	95.96
370.07	58.51
370.27	74.90
370.47	278.52
370.66	440.02
370.86	486.83
371.06	451.72
371.25	463.43
371.45	435.34
371.65	482.15
371.84	461.09
372.04	559.39
372.24	538.32
372.44	564.07
372.63	531.30
372.83	521.94
373.03	538.32
373.22	500.87
373.42	447.04
373.62	491.51
373.81	589.82
374.01	571.09
374.21	479.81
374.40	568.75
374.60	617.90
374.79	613.22
374.99	606.20
375.19	592.16
375.38	648.33
375.58	482.15
375.78	638.97
375.97	624.92
376.17	603.86
376.37	589.82
376.56	627.26
376.76	671.73
376.95	624.92
377.15	608.54
377.35	720.88
377.54	627.26
377.74	650.67
377.93	660.03
378.13	674.07
378.33	718.54
378.52	662.37
378.72	678.76
378.91	645.99
379.11	622.58
379.31	678.76
379.50	636.63
379.70	704.50
379.89	699.82
380.09	662.37
380.28	716.20
380.48	744.29
380.68	699.82
380.87	709.18
381.07	706.84
381.26	723.23
381.46	709.18
381.65	711.52
381.85	713.86
382.04	767.70
382.24	833.23
382.43	718.54
382.63	681.10
382.83	732.59
383.02	765.36
383.22	697.48
383.41	734.93
383.61	816.85
383.80	784.08
384.00	763.01
384.19	812.17
384.39	840.25
384.58	786.42
384.78	788.76
384.97	795.78
385.17	767.70
385.36	758.33
385.56	814.51
385.75	816.85
385.95	800.46
386.14	922.17
386.34	751.31
386.53	849.61
386.72	875.36
386.92	884.72
387.11	889.40
387.31	807.48
387.50	828.55
387.70	940.90
387.89	856.64
388.09	823.87
388.28	884.72
388.48	924.51
388.67	938.55
388.86	947.92
389.06	959.62
389.25	945.58
389.45	950.26
389.64	931.53
389.84	1015.79
390.03	971.32
390.22	1008.77
390.42	1046.22
390.61	947.92
390.81	1088.35
391.00	1008.77
391.19	1078.99
391.39	1060.26
391.58	1139.84
391.78	1046.22
391.97	1097.71
392.16	1036.86
392.36	1083.67
392.55	985.37
392.75	1048.56
392.94	945.58
393.13	1060.26
393.33	1022.81
393.52	1057.92
393.71	1109.41
393.91	1153.88
394.10	1137.50
394.29	1149.20
394.49	1109.41
394.68	1224.10
394.88	1184.31
395.07	1284.95
395.26	1270.91
395.46	1186.65
395.65	1205.38
395.84	1198.35
396.04	1308.36
396.23	1210.06
396.42	1233.46
396.62	1242.82
396.81	1170.27
397.00	1203.04
397.19	1301.34
397.39	1261.55
397.58	1299.00
397.77	1343.47
397.97	1331.76
398.16	1378.58
398.35	1521.35
398.55	1306.02
398.74	1504.96
398.93	1460.49
399.12	1519.01
399.32	1432.41
399.51	1394.96
399.70	1462.83
399.90	1444.11
400.09	1521.35
400.28	1467.52
400.47	1572.84
400.67	1582.20
400.86	1544.75
401.05	1694.55
401.24	1612.63
401.44	1706.25
401.63	1692.21
401.82	1645.40
402.01	1563.48
402.21	1706.25
402.40	1626.67
402.59	1743.70
402.78	1776.47
402.97	1624.33
403.17	1626.67
403.36	1739.02
403.55	1668.80
403.74	1703.91
403.93	1722.63
404.13	1741.36
404.32	1750.72
404.51	1776.47
404.70	1928.60
404.89	1802.21
405.09	1907.54
405.28	1895.83
405.47	1895.83
405.66	1877.11
405.85	1914.56
406.05	1902.86
406.24	1952.01
406.43	1956.69
406.62	1994.14
406.81	2106.48
407.00	2038.61
407.20	1977.75
407.39	2015.20
407.58	2076.06
407.77	2040.95
407.96	2172.02
408.15	2087.76
408.34	2106.48
408.54	2190.74
408.73	2165.00
408.92	2242.23
409.11	2162.66
409.30	2195.42
409.49	2150.95
409.68	2246.91
409.87	2165.00
410.07	2333.51
410.26	2230.53
410.45	2326.49
410.64	2265.64
410.83	2345.22
411.02	2464.58
411.21	2487.99
411.40	2485.65
411.59	2502.03
411.78	2562.89
411.98	2502.03
412.17	2579.27
412.36	2548.84
412.55	2665.87
412.74	2640.12
412.93	2708.00
413.12	2588.63
413.31	2796.94
413.50	2679.91
413.69	2717.36
413.88	2822.69
414.07	2885.88
414.26	2785.24
414.45	2825.03
414.64	2939.71
414.83	2892.90
415.02	2881.20
415.22	2972.48
415.41	2923.33
415.60	3005.25
415.79	2979.50
415.98	3164.40
416.17	3180.79
416.36	3094.19
416.55	3138.66
416.74	3225.26
416.93	3194.83
417.12	3150.36
417.31	3049.72
417.50	3337.60
417.69	3332.92
417.88	3290.79
418.07	3234.62
418.26	3288.45
418.45	3370.37
418.64	3389.10
418.83	3431.23
419.02	3353.99
419.21	3513.14
419.39	3424.20
419.58	3471.01
419.77	3426.54
419.96	3538.89
420.15	3447.61
420.34	3588.04
420.53	3606.77
420.72	3632.51
420.91	3728.47
421.10	3669.96
421.29	3714.43
421.48	3637.19
421.67	3784.65
421.86	3620.81
422.05	3639.53
422.24	3574.00
422.43	3672.30
422.61	3815.07
422.80	3843.16
422.99	3801.03
423.18	3763.58
423.37	3707.41
423.56	3684.00
423.75	3817.41
423.94	3812.73
424.13	3534.21
424.32	3569.32
424.50	3815.07
424.69	3840.82
424.88	3871.25
425.07	3831.46
425.26	3784.65
425.45	3709.75
425.64	3824.44
425.83	3859.54
426.01	3995.29
426.20	3829.12
426.39	3960.19
426.58	3775.28
426.77	3896.99
426.96	3932.10
427.15	3782.31
427.33	3953.16
427.52	4032.74
427.71	3894.65
427.90	4051.47
428.09	3934.44
428.28	4014.02
428.46	4070.19
428.65	4030.40
428.84	4159.13
429.03	4285.52
429.22	3957.85
429.40	4046.79
429.59	4007.00
429.78	3833.80
429.97	3946.14
430.16	4067.85
430.34	4023.38
430.53	4121.68
430.72	4028.06
430.91	4238.71
431.10	4149.77
431.28	4348.72
431.47	4578.09
431.66	4374.46
431.85	4423.61
432.03	4444.68
432.22	4603.83
432.41	4498.51
432.60	4365.10
432.79	4493.83
432.97	4505.53
433.16	4550.00
433.35	4496.17
433.54	4542.98
433.72	4524.26
433.91	4636.60
434.10	4550.00
434.28	4500.85
434.47	4835.55
434.66	4762.99
434.85	4807.46
435.03	4828.53
435.22	4795.76
435.41	4873.00
435.59	5076.62
435.78	4952.57
435.97	4882.36
436.16	4983.00
436.34	4870.65
436.53	5036.83
436.72	5039.17
436.90	4964.28
437.09	4877.68
437.28	5043.85
437.46	4985.34
437.65	4753.63
437.84	5048.54
438.02	4936.19
438.21	5067.26
438.40	4816.82
438.58	5263.86
438.77	5090.67
438.96	5142.16
439.14	5406.64
439.33	5270.89
439.52	5408.98
439.70	5479.19
439.89	5518.98
440.08	5526.00
440.26	5530.69
440.45	5706.23
440.63	5586.86
440.82	5743.67
441.01	5542.39
441.19	5879.43
441.38	5951.98
441.57	5895.81
441.75	5846.66
441.94	6010.50
442.12	6101.78
442.31	6045.60
442.50	6139.23
442.68	5991.77
442.87	6003.47
443.05	5977.73
443.24	6282.00
443.43	6305.40
443.61	6118.16
443.80	6455.20
443.98	5987.09
444.17	5687.50
444.35	6181.35
444.54	6356.90
444.73	6267.95
444.91	6284.34
445.10	6244.55
445.28	6183.70
445.47	6225.82
445.65	6352.21
445.84	6265.61
446.02	6251.57
446.21	6370.94
446.39	6244.55
446.58	6415.41
446.77	6420.09
446.95	6211.78
447.14	6562.86
447.32	6483.28
447.51	6558.18
447.69	6143.91
447.88	6588.61
448.06	6392.00
448.25	6548.82
448.43	6377.96
448.62	6558.18
448.80	6394.34
448.99	6408.39
449.17	6595.63
449.36	6562.86
449.54	6686.91
449.73	6654.14
449.91	6843.73
450.10	6724.36
450.28	6965.43
450.46	6855.43
450.65	6927.99
450.83	6869.47
451.02	6871.81
451.20	6956.07
451.39	6932.67
451.57	6825.00
451.76	6825.00
451.94	6951.39
452.13	7126.93
452.31	7028.63
452.49	6740.74
452.68	6949.05
452.86	7037.99
453.05	7124.59
453.23	7005.22
453.42	6942.03
453.60	7040.33
453.78	7201.83
453.97	7115.23
454.15	7126.93
454.34	6986.50
454.52	7400.77
454.70	7089.48
454.89	7201.83
455.07	7382.05
455.26	7236.94
455.44	7410.14
455.62	7496.74
455.81	7492.05
455.99	7398.43
456.17	7618.44
456.36	7552.91
456.54	7627.81
456.73	7644.19
456.91	7967.18
457.09	7852.50
457.28	8091.23
457.46	7602.06
457.64	7955.48
457.83	7641.85
458.01	7889.95
458.19	7948.46
458.38	7918.03
458.56	8086.55
458.74	8049.10
458.93	8060.80
459.11	8023.36
459.29	7962.50
459.48	8100.59
459.66	7929.74
459.84	8070.17
460.03	8248.05
460.21	8421.25
460.39	8180.17
460.57	8208.26
460.76	8231.66
460.94	8468.06
461.12	8241.03
461.31	8351.03
461.49	8135.70
461.67	8135.70
461.85	8411.89
462.04	8484.44
462.22	8957.23
462.40	8681.05
462.59	8542.96
462.77	8596.79
462.95	8734.88
463.13	8500.83
463.32	8671.68
463.50	8688.07
463.68	8723.18
463.86	8788.71
464.05	8477.42
464.23	8627.21
464.41	8713.81
464.59	8280.82
464.78	8795.73
464.96	8765.31
465.14	8739.56
465.32	8774.67
465.50	8905.74
465.69	9088.30
465.87	8762.97
466.05	8802.75
466.23	8798.07
466.41	8858.93
466.60	9184.26
466.78	8922.12
466.96	8879.99
467.14	8987.66
467.32	9034.47
467.51	9298.95
467.69	8968.93
467.87	9298.95
468.05	9116.39
468.23	9095.32
468.41	9149.15
468.60	9186.60
468.78	9439.38
468.96	9357.46
469.14	9385.55
469.32	9259.16
469.50	9111.71
469.69	9516.62
469.87	9453.42
470.05	9439.38
470.23	9563.43
470.41	9525.98
470.59	9577.47
470.77	9444.06
470.95	9816.21
471.14	9874.72
471.32	9647.69
471.50	10001.11
471.68	9745.99
471.86	9980.04
472.04	9933.23
472.22	10202.40
472.40	9806.84
472.58	10026.86
472.77	10083.03
472.95	10305.38
473.13	10651.78
473.31	10354.53
473.49	10347.51
473.67	10052.60
473.85	10431.77
474.03	10644.76
474.21	10672.84
474.39	10729.02
474.57	10801.57
474.75	10817.96
474.93	10588.58
475.12	10834.34
475.30	10906.90
475.48	10808.59
475.66	10909.24
475.84	10960.73
476.02	10714.97
476.20	11138.61
476.38	11281.38
476.56	11487.35
476.74	11454.58
476.92	11644.17
477.10	11157.33
477.28	11726.08
477.46	11702.68
477.64	11992.90
477.82	11978.86
478.00	12084.19
478.18	11887.58
478.36	12105.25
478.54	12035.03
478.72	12166.10
478.90	12423.56
479.08	12650.60
479.26	12727.83
479.44	12732.51
479.62	12617.83
479.80	12896.35
479.98	12840.18
480.16	13226.37
480.34	13013.38
480.52	13242.75
480.70	13135.09
480.88	13217.01
481.06	13177.22
481.24	13362.12
481.41	13792.78
481.59	13963.64
481.77	14200.03
481.95	13973.00
482.13	13919.17
482.31	14059.60
482.49	14281.95
482.67	14298.33
482.85	14534.73
483.03	14728.99
483.21	14640.05
483.39	14757.08
483.57	15021.56
483.74	15044.96
483.92	15080.07
484.10	14941.98
484.28	15576.27
484.46	15594.99
484.64	16032.67
484.82	15318.81
485.00	15484.98
485.18	15857.13
485.35	16051.39
485.53	15936.71
485.71	15763.51
485.89	16107.57
486.07	15964.79
486.25	16350.98
486.43	16388.43
486.61	16692.70
486.78	16872.92
486.96	17123.36
487.14	17027.40
487.32	17144.42
487.50	17565.72
487.68	17500.19
487.85	17994.04
488.03	17837.22
488.21	17916.80
488.39	18122.77
488.57	18207.03
488.75	18249.16
488.92	18448.10
489.10	18590.88
489.28	18576.83
489.46	19154.94
489.64	18934.93
489.81	19541.13
489.99	19665.18
490.17	19529.43
490.35	19686.25
490.53	19871.15
490.70	20137.97
490.88	19962.43
491.06	20245.63
491.24	19997.54
491.41	19929.66
491.59	20458.62
491.77	20137.97
491.95	20603.74
492.13	20734.81
492.30	21022.69
492.48	21046.10
492.66	21191.21
492.84	21429.94
493.01	21598.46
493.19	21640.59
493.37	21294.19
493.54	21811.45
493.72	21928.48
493.90	22057.21
494.08	22331.05
494.25	22604.89
494.43	22333.39
494.61	22817.88
494.79	22764.05
494.96	22527.66
495.14	22771.07
495.32	23087.04
495.49	23133.86
495.67	23075.34
495.85	23442.81
496.02	23452.17
496.20	23641.75
496.38	23901.55
496.55	23936.66
496.73	24519.45
496.91	24276.04
497.09	24142.63
497.26	24472.64
497.44	24514.77
497.62	24631.80
497.79	24826.06
497.97	24332.21
498.14	24790.95
498.32	24966.49
498.50	24973.52
498.67	25207.57
498.85	25029.69
499.03	25638.23
499.20	25467.37
499.38	25900.37
499.56	25942.50
499.73	25586.74
499.91	25867.60
500.08	25795.04
500.26	25919.09
500.44	25788.02
500.61	25986.97
500.79	25965.90
500.97	26455.08
501.14	26719.56
501.32	26515.93
501.49	26628.27
501.67	26469.12
501.84	26555.72
502.02	26595.51
502.20	27215.75
502.37	27325.75
502.55	27147.87
502.72	27754.07
502.90	27550.45
503.07	27136.17
503.25	27866.42
503.43	27527.04
503.60	27683.86
503.78	27754.07
503.95	27604.28
504.13	28086.43
504.30	27901.53
504.48	27915.57
504.65	27765.78
504.83	28739.44
505.01	28627.09
505.18	28283.03
505.36	28849.44
505.53	28809.65
505.71	28968.81
505.88	28980.51
506.06	28694.97
506.23	29123.29
506.41	29186.48
506.58	28989.88
506.76	29214.57
506.93	29296.49
507.11	28875.19
507.28	29502.45
507.46	29647.57
507.63	29301.17
507.81	29497.77
507.98	29350.32
508.16	29631.18
508.33	29633.52
508.50	29956.52
508.68	29951.84
508.85	30403.56
509.03	30162.48
509.20	30232.70
509.38	30850.60
509.55	30677.40
509.73	30969.97
509.90	30225.68
510.08	30513.56
510.25	30869.33
510.42	31108.06
510.60	30831.88
510.77	31353.82
510.95	31433.39
511.12	31335.09
511.30	31775.11
511.47	31421.69
511.64	31393.61
511.82	31749.37
511.99	31241.47
512.17	31821.92
512.34	31634.68
512.51	31971.72
512.69	32243.22
512.86	32144.92
513.04	32009.17
513.21	32180.03
513.38	32254.92
513.56	32751.12
513.73	32540.47
513.90	32790.91
514.08	32383.65
514.25	32383.65
514.43	32680.90
514.60	32753.46
514.77	32161.30
514.95	33317.53
515.12	33041.34
515.29	33048.36
515.47	33551.58
515.64	33596.05
515.81	33149.01
515.99	33205.18
516.16	33200.50
516.33	33200.50
516.51	33483.70
516.68	32706.65
516.85	32847.08
517.03	32978.15
517.20	33378.38
517.37	33401.79
517.54	33640.52
517.72	33715.42
517.89	33212.20
518.06	33596.05
518.24	33958.83
518.41	33780.95
518.58	33827.76
518.75	33895.64
518.93	34438.64
519.10	34298.21
519.27	34438.64
519.45	34478.43
519.62	34705.46
519.79	34668.02
519.96	34721.85
520.14	35051.86
520.31	34932.50
520.48	34733.55
520.65	35129.10
520.83	35339.75
521.00	35321.02
521.17	35133.78
521.34	35131.44
521.52	35543.38
521.69	35721.26
521.86	35644.02
522.03	35838.28
522.20	35590.19
522.38	35981.06
522.55	36002.12
522.72	35433.37
522.89	35765.73
523.07	35878.07
523.24	35969.35
523.41	36278.30
523.58	35903.82
523.75	36615.34
523.92	36151.91
524.10	36870.46
524.27	36620.02
524.44	36713.64
524.61	36823.65
524.78	36975.78
524.96	37055.36
525.13	37247.29
525.30	37244.94
525.47	37572.62
525.64	37106.85
525.81	37158.34
525.98	36931.31
526.16	36521.72
526.33	36905.57
526.50	37050.68
526.67	36851.73
526.84	37008.55
527.01	36914.93
527.18	37172.39
527.36	37809.01
527.53	37766.88
527.70	37626.45
527.87	38075.84
528.04	37963.49
528.21	37947.11
528.38	37979.87
528.55	38146.05
528.72	37998.60
528.89	38686.71
529.07	38335.63
529.24	38022.00
529.41	38038.39
529.58	38094.56
529.75	37956.47
529.92	38712.46
530.09	38274.78
530.26	38405.85
530.43	38485.43
530.60	38195.20
530.77	38665.65
530.94	39072.90
531.11	38422.23
531.28	38742.89
531.46	39086.95
531.63	39239.08
531.80	38590.75
531.97	39173.55
532.14	39154.82
532.31	38747.57
532.48	39033.11
532.65	39374.83
532.82	39412.28
532.99	39428.66
533.16	38738.21
533.33	39608.89
533.50	39510.58
533.67	39274.19
533.84	39187.59
534.01	39618.25
534.18	39665.06
534.35	39688.46
534.52	39505.90
534.69	39578.46
534.86	40187.00
535.03	39658.04
535.20	40147.21
535.37	39920.18
535.54	40575.53
535.71	40128.48
535.88	39938.90
536.05	40254.87
536.22	40142.53
536.38	40018.48
536.55	40226.79
536.72	40215.08
536.89	40250.19
537.06	40191.68
537.23	40385.94
537.40	40685.53
537.57	40559.14
537.74	40428.07
537.91	41078.74
538.08	41022.57
538.25	40292.32
538.42	40343.81
538.59	40521.69
538.75	40584.89
538.92	40685.53
539.09	40732.34
539.26	40580.21
539.43	40706.60
539.60	41542.17
539.77	40500.63
539.94	40842.35
540.11	41053.00
540.28	40830.65
540.44	41020.23
540.61	40748.73
540.78	41045.97
540.95	40959.38
541.12	41228.54
541.29	41600.68
541.46	41331.52
541.62	41481.31
541.79	41820.69
541.96	41223.86
542.13	41600.68
542.30	41172.36
542.47	41631.11
542.63	41811.33
542.80	41383.01
542.97	42314.55
543.14	42368.38
543.31	42305.18
543.48	42377.74
543.64	42656.26
543.81	42380.08
543.98	42344.97
544.15	42784.99
544.32	42864.57
544.48	42864.57
544.65	42174.11
544.82	42595.41
544.99	42188.16
545.16	42412.85
545.32	42712.44
545.49	42225.60
545.66	42756.91
545.83	42618.81
546.00	42951.17
546.16	42848.19
546.33	42541.58
546.50	42494.77
546.67	42651.58
546.83	42672.65
547.00	42490.09
547.17	42085.17
547.34	42693.71
547.50	42834.14
547.67	43021.39
547.84	43154.80
548.00	43311.61
548.17	43276.51
548.34	43126.71
548.51	43508.22
548.67	43335.02
548.84	43559.71
549.01	43328.00
549.18	43386.51
549.34	43335.02
549.51	43718.87
549.68	43660.35
549.84	43552.69
550.01	43225.01
550.18	43606.52
550.34	43501.20
550.51	43274.16
550.68	43407.58
550.84	43489.49
551.01	43770.36
551.18	43674.40
551.34	43587.80
551.51	43702.48
551.68	43906.11
551.84	43723.55
552.01	43873.34
552.18	43716.53
552.34	43899.09
552.51	43597.16
552.68	43756.32
552.84	44556.78
553.01	44289.96
553.18	44006.75
553.34	44271.23
553.51	43679.08
553.67	44444.43
553.84	44521.67
554.01	44629.34
554.17	44612.95
554.34	44636.36
554.51	44217.40
554.67	44453.79
554.84	44601.25
555.00	44091.01
555.17	44205.70
555.33	44341.45
555.50	44734.66
555.67	44465.50
555.83	44535.71
556.00	44554.44
556.16	44903.18
556.33	45104.46
556.50	44594.23
556.66	44938.29
556.83	44296.98
556.99	44453.79
557.16	45209.79
557.32	44435.07
557.49	45219.15
557.65	44582.52
557.82	44729.98
557.98	44484.22
558.15	44694.87
558.32	44371.88
558.48	44758.06
558.65	44662.10
558.81	45006.16
558.98	44959.35
559.14	45223.83
559.31	44755.72
559.47	45324.47
559.64	45057.65
559.80	45289.37
559.97	45317.45
560.13	44793.17
560.30	45205.11
560.46	45364.26
560.63	44727.64
560.79	45301.07
560.96	45090.42
561.12	44746.36
561.29	45043.61
561.45	45127.87
561.61	45228.51
561.78	44790.83
561.94	44924.24
562.11	45284.68
562.27	45249.58
562.44	45523.42
562.60	45375.97
562.77	45799.60
562.93	44989.78
563.10	45357.24
563.26	45312.77
563.42	45734.07
563.59	45350.22
563.75	45130.21
563.92	45560.87
564.08	45574.91
564.24	45357.24
564.41	44856.37
564.57	45448.52
564.74	45392.35
564.90	45736.41
565.07	45687.26
565.23	45287.03
565.39	45757.47
565.56	45464.91
565.72	45530.44
565.88	45413.41
566.05	45539.80
566.21	45404.05
566.38	45621.72
566.54	45434.48
566.70	45483.63
566.87	46099.19
567.03	45551.51
567.19	45780.88
567.36	45916.63
567.52	45523.42
567.68	45579.59
567.85	45443.84
568.01	45443.84
568.17	45525.76
568.34	45797.26
568.50	45783.22
568.66	45289.37
568.83	45619.38
568.99	45516.40
569.15	45792.58
569.32	45460.23
569.48	45886.20
569.64	45879.18
569.81	46010.25
569.97	45867.48
570.13	45799.60
570.30	45867.48
570.46	45610.02
570.62	45780.88
570.78	45825.35
570.95	45600.66
571.11	45757.47
571.27	45867.48
571.43	45507.04
571.60	45787.90
571.76	45741.09
571.92	45867.48
572.09	45970.46
572.25	45488.31
572.41	45846.41
572.57	46028.98
572.74	46181.11
572.90	46298.14
573.06	46164.73
573.22	46206.86
573.38	45752.79
573.55	45593.64
573.71	46073.45
573.87	45600.66
574.03	45607.68
574.20	45785.56
574.36	45970.46
574.52	46176.43
574.68	45708.32
574.84	46075.79
575.01	46106.21
575.17	45631.08
575.33	45694.28
575.49	45769.18
575.65	45947.06
575.82	46663.26
575.98	45759.81
576.14	46309.84
576.30	46146.00
576.46	45776.20
576.62	45986.85
576.79	45727.05
576.95	45464.91
577.11	45750.45
577.27	45752.79
577.43	45947.06
577.59	45474.27
577.75	45902.59
577.92	45792.58
578.08	45900.25
578.24	45771.52
578.40	45357.24
578.56	45689.60
578.72	45722.37
578.88	46014.93
579.04	46389.42
579.21	45897.91
579.37	45785.56
579.53	45982.16
579.69	45654.49
579.85	46272.39
580.01	46241.96
580.17	46206.86
580.33	46108.55
580.49	45787.90
580.65	46171.75
580.82	46330.90
580.98	45876.84
581.14	45907.27
581.30	46120.26
581.46	46024.29
581.62	46117.92
581.78	45984.51
581.94	46148.34
582.10	45673.21
582.26	45441.50
582.42	46440.91
582.58	46471.34
582.74	46122.60
582.90	45776.20
583.06	46202.18
583.22	46471.34
583.38	46155.36
583.54	46178.77
583.70	45546.82
583.86	46408.14
584.02	45799.60
584.18	46036.00
584.34	46335.59
584.50	46272.39
584.66	46087.49
584.82	46010.25
584.98	46557.94
585.14	45869.82
585.30	45848.75
585.46	46014.93
585.62	46005.57
585.78	45975.14
585.94	45771.52
586.10	46160.05
586.26	45813.65
586.42	46529.85
586.58	46358.99
586.74	46176.43
586.90	45757.47
587.06	45968.12
587.22	46436.23
587.38	46312.18
587.54	46323.88
587.70	46555.60
587.86	46251.33
588.02	45935.35
588.18	46667.94
588.34	46028.98
588.49	45818.33
588.65	46085.15
588.81	45769.18
588.97	45642.79
589.13	45500.01
589.29	45633.42
589.45	45963.44
589.61	46265.37
589.77	46321.54
589.93	46064.08
590.08	46323.88
590.24	46375.37
590.40	46579.00
590.56	46532.19
590.72	46181.11
590.88	45780.88
591.04	46389.42
591.20	46424.53
591.35	46335.59
591.51	46827.10
591.67	46358.99
591.83	46506.44
591.99	46057.06
592.15	46094.51
592.31	46384.74
592.46	46733.48
592.62	45940.04
592.78	46527.51
592.94	46396.44
593.10	46302.82
593.26	46593.04
593.41	46251.33
593.57	46333.24
593.73	46466.66
593.89	46494.74
594.05	45958.76
594.20	46284.09
594.36	46433.89
594.52	46136.64
594.68	46349.63
594.84	46160.05
594.99	46555.60
595.15	46288.77
595.31	46525.17
595.47	46644.54
595.62	46298.14
595.78	46450.27
595.94	46639.86
596.10	46461.97
596.25	46752.20
596.41	46667.94
596.57	46433.89
596.73	46560.28
596.88	45748.11
597.04	46134.30
597.20	46099.19
597.36	46473.68
597.51	46295.80
597.67	46614.11
597.83	46649.22
597.99	46799.01
598.14	46281.75
598.30	46639.86
598.46	46143.66
598.61	46246.65
598.77	46089.83
598.93	46459.63
599.09	46447.93
599.24	47082.22
599.40	46724.11
599.56	46429.21
599.71	46244.30
599.87	46738.16
600.03	46621.13
600.18	46731.14
600.34	46286.43
600.50	46604.75
600.65	45982.16
600.81	46614.11
600.97	46569.64
601.12	46564.96
601.28	46644.54
601.44	46726.46
601.59	46440.91
601.75	46146.00
601.91	46347.29
602.06	46281.75
602.22	46611.77
602.37	46784.97
602.53	46263.03
602.69	46515.81
602.84	46366.01
603.00	46532.19
603.16	46415.16
603.31	46075.79
603.47	46571.98
603.62	46108.55
603.78	46068.76
603.94	46209.20
604.09	46663.26
604.25	46576.66
604.40	46312.18
604.56	46050.04
604.71	46309.84
604.87	46756.88
605.03	46457.29
605.18	46368.35
605.34	45996.21
605.49	45956.42
605.65	46258.35
605.80	46866.89
605.96	46391.76
606.12	46543.89
606.27	46340.27
606.43	45958.76
606.58	46354.31
606.74	46108.55
606.89	45757.47
607.05	46143.66
607.20	46375.37
607.36	46653.90
607.51	46595.38
607.67	45752.79
607.82	46085.15
607.98	46405.80
608.13	46176.43
608.29	46019.61
608.44	45869.82
608.60	45965.78
608.75	45869.82
608.91	45773.86
609.06	45801.94
609.22	46061.74
609.37	45572.57
609.53	45794.92
609.68	45984.51
609.84	46181.11
609.99	45928.33
610.15	45696.62
610.30	46134.30
610.46	45736.41
610.61	45626.40
610.76	45893.22
610.92	46094.51
611.07	46356.65
611.23	45780.88
611.38	45764.49
611.54	45385.33
611.69	45682.58
611.84	45261.28
612.00	45584.27
612.15	45404.05
612.31	46080.47
612.46	45951.74
612.62	45612.36
612.77	45525.76
612.92	45724.71
613.08	45661.51
613.23	45500.01
613.39	45111.49
613.54	45092.76
613.69	45607.68
613.85	45324.47
614.00	45420.44
614.15	45694.28
614.31	45572.57
614.46	45691.94
614.62	45221.49
614.77	45106.80
614.92	45268.30
615.08	45478.95
615.23	44793.17
615.38	45514.06
615.54	44928.92
615.69	45090.42
615.84	44739.34
616.00	44896.16
616.15	44903.18
616.30	45172.34
616.46	45069.36
616.61	44954.67
616.76	44893.82
616.92	44849.35
617.07	44769.77
617.22	44725.30
617.37	44718.28
617.53	45249.58
617.68	45382.99
617.83	45310.43
617.99	45305.75
618.14	44851.69
618.29	44755.72
618.45	44580.18
618.60	44563.80
618.75	44804.88
618.90	44711.25
619.06	45001.48
619.21	44545.08
619.36	44554.44
619.51	44732.32
619.67	44587.21
619.82	45109.14
619.97	45059.99
620.12	44549.76
620.28	44371.88
620.43	44474.86
620.58	44360.17
620.73	44385.92
620.89	44172.93
621.04	44938.29
621.19	44732.32
621.34	44179.95
621.49	44292.30
621.65	44051.22
621.80	44266.55
621.95	43999.73
622.10	44430.39
622.25	44172.93
622.41	44020.80
622.56	44151.87
622.71	44264.21
622.86	43838.23
623.01	44306.34
623.16	44219.74
623.32	44381.24
623.47	44491.24
623.62	44011.43
623.77	43966.96
623.92	43480.13
624.07	43899.09
624.23	43337.36
624.38	44130.80
624.53	43611.20
624.68	44151.87
624.83	43929.51
624.98	44397.62
625.13	43627.59
625.29	43606.52
625.44	43583.12
625.59	43725.89
625.74	42976.92
625.89	42862.23
626.04	43232.04
626.19	43552.69
626.34	43545.67
626.49	43445.02
626.65	43189.91
626.80	43676.74
626.95	43164.16
627.10	42770.95
627.25	43515.24
627.40	43049.47
627.55	42848.19
627.70	42574.34
627.85	42806.06
628.00	42993.30
628.15	43119.69
628.30	43180.54
628.45	43236.72
628.60	42703.07
628.76	42824.78
628.91	43030.75
629.06	42916.06
629.21	42887.98
629.36	42625.84
629.51	42464.34
629.66	42859.89
629.81	42719.46
629.96	42939.47
630.11	42480.72
630.26	42590.73
630.41	42890.32
630.56	42534.56
630.71	42651.58
630.86	42682.01
631.01	42740.52
631.16	42480.72
631.31	42131.98
631.46	42134.32
631.61	42239.65
631.76	42312.20
631.91	42794.36
632.06	42897.34
632.21	42363.70
632.36	42574.34
632.51	42021.98
632.66	42440.93
632.81	42094.53
632.96	42394.12
633.10	41848.78
633.25	42256.03
633.40	42036.02
633.55	42155.39
633.70	42064.11
633.85	42010.28
634.00	42199.86
634.15	42293.48
634.30	41806.65
634.45	42087.51
634.60	41773.88
634.75	41823.03
634.90	41624.09
635.05	41834.74
635.19	42000.91
635.34	41787.92
635.49	41801.97
635.64	41638.13
635.79	41621.75
635.94	41453.23
636.09	41811.33
636.24	41799.63
636.39	41408.76
636.53	41441.53
636.68	41298.75
636.83	41612.38
636.98	41642.81
637.13	40868.09
637.28	41638.13
637.43	41752.82
637.57	41823.03
637.72	41324.50
637.87	41443.87
638.02	41406.42
638.17	41364.29
638.32	41053.00
638.46	41024.91
638.61	41249.60
638.76	40818.94
638.91	40818.94
639.06	41127.89
639.20	41319.82
639.35	41233.22
639.50	41525.78
639.65	41682.60
639.80	41441.53
639.94	41216.83
640.09	41202.79
640.24	40678.51
640.39	40313.39
640.54	40383.60
640.68	40844.69
640.83	40907.88
640.98	40456.16
641.13	40474.88
641.27	41256.62
641.42	41020.23
641.57	40882.14
641.72	40999.16
641.86	40348.50
642.01	40840.01
642.16	40332.11
642.31	40430.41
642.45	40854.05
642.60	40563.82
642.75	39721.23
642.90	40399.99
643.04	40135.51
643.19	40062.95
643.34	40800.22
643.48	40187.00
643.63	39995.07
643.78	40004.44
643.93	40297.00
644.07	39959.97
644.22	40334.45
644.37	40046.57
644.51	39683.78
644.66	39517.60
644.81	40652.76
644.95	40285.30
645.10	40060.61
645.25	40282.96
645.39	40149.55
645.54	40088.70
645.69	40233.81
645.83	39903.79
645.98	40016.14
646.13	39608.89
646.27	39955.29
646.42	39688.46
646.57	40105.08
646.71	39611.23
646.86	39674.42
647.00	39903.79
647.15	39744.64
647.30	40002.10
647.44	39711.87
647.59	39763.36
647.74	39580.80
647.88	39531.65
648.03	38834.17
648.17	39468.45
648.32	38909.07
648.47	39056.52
648.61	39168.87
648.76	39779.74
648.90	39690.80
649.05	39299.94
649.20	39529.31
649.34	39585.48
649.49	39145.46
649.63	39353.77
649.78	39828.90
649.92	39068.22
650.07	39367.81
650.21	39218.02
650.36	38909.07
650.51	39145.46
650.65	39138.44
650.80	39477.82
650.94	39536.33
651.09	38986.30
651.23	39033.11
651.38	39147.80
651.52	38773.31
651.67	39157.16
651.81	38817.78
651.96	39079.92
652.10	38649.27
652.25	38333.29
652.39	38433.94
652.54	38951.20
652.68	39316.32
652.83	38785.02
652.97	39283.55
653.12	38693.74
653.26	37947.11
653.41	38775.66
653.55	38445.64
653.70	38270.10
653.84	38487.77
653.99	38464.36
654.13	38457.34
654.27	38801.40
654.42	38316.91
654.56	38272.44
654.71	38623.52
654.85	38515.86
655.00	38302.87
655.14	37680.28
655.29	37593.68
655.43	38078.18
655.57	37703.69
655.72	37750.50
655.86	37825.40
656.01	37923.70
656.15	37333.89
656.30	37689.65
656.44	37975.19
656.58	37860.51
656.73	37656.88
656.87	37479.00
657.01	37596.03
657.16	37486.02
657.30	37434.53
657.45	37205.16
657.59	37654.54
657.73	37539.85
657.88	37647.52
658.02	37589.00
658.16	37581.98
658.31	37848.80
658.45	37818.38
658.60	37743.48
658.74	37780.93
658.88	37366.65
659.03	37163.03
659.17	37036.64
659.31	37172.39
659.46	36800.24
659.60	37628.79
659.74	37003.87
659.89	36900.89
660.03	36973.44
660.17	37383.04
660.32	37247.29
660.46	37127.92
660.60	37308.14
660.74	37471.98
660.89	36730.03
661.03	36947.70
661.17	36793.22
661.32	36369.58
661.46	36624.70
661.60	36442.14
661.74	36540.44
661.89	36781.52
662.03	36304.05
662.17	36357.88
662.31	36444.48
662.46	36460.87
662.60	36669.17
662.74	36369.58
662.88	36261.92
663.03	36208.09
663.17	36154.26
663.31	35697.85
663.45	36339.16
663.60	36135.53
663.74	35786.79
663.88	35849.99
664.02	35849.99
664.17	35688.49
664.31	35304.64
664.45	35997.44
664.59	35782.11
664.73	35461.46
664.88	35576.14
665.02	35398.26
665.16	35674.45
665.30	35302.30
665.44	35562.10
665.59	35276.55
665.73	35110.38
665.87	35079.95
666.01	35119.74
666.15	34937.18
666.29	35232.08
666.44	35075.27
666.58	34951.22
666.72	35255.49
666.86	35110.38
667.00	35014.41
667.14	34653.97
667.28	34443.32
667.43	34670.36
667.57	34473.75
667.71	34541.63
667.85	34424.60
667.99	34178.84
668.13	33942.45
668.27	34396.51
668.41	34157.78
668.56	34218.63
668.70	34422.26
668.84	34242.04
668.98	34066.50
669.12	34218.63
669.26	34103.95
669.40	34050.11
669.54	34132.03
669.68	33773.93
669.82	34185.86
669.96	33500.09
670.10	33221.56
670.25	33502.43
670.39	33706.05
670.53	33369.02
670.67	33495.41
670.81	33305.82
670.95	33537.54
671.09	33249.65
671.23	33022.62
671.37	33420.51
671.51	33116.24
671.65	33116.24
671.79	32753.46
671.93	32713.67
672.07	32844.74
672.21	32868.14
672.35	33048.36
672.49	32566.21
672.63	32720.69
672.77	32521.74
672.91	32570.90
673.05	32353.23
673.19	32435.14
673.33	32395.35
673.47	32201.09
673.61	31985.76
673.75	32271.31
673.89	31864.05
674.03	31618.30
674.17	31978.74
674.31	31531.70
674.45	31459.14
674.59	31255.51
674.73	31964.70
674.87	31470.84
675.01	31218.07
675.15	31597.23
675.29	31311.69
675.43	31332.75
675.56	31309.35
675.70	31021.46
675.84	31021.46
675.98	30052.48
676.12	30829.54
676.26	30923.16
676.40	30279.51
676.54	30441.01
676.68	30302.92
676.82	30125.04
676.96	30050.14
677.10	30134.40
677.23	30286.53
677.37	29926.09
677.51	29942.47
677.65	29790.34
677.79	29467.34
677.93	29659.27
678.07	29677.99
678.21	29621.82
678.34	29380.74
678.48	29060.09
678.62	29347.98
678.76	29315.21
678.90	29071.79
679.04	29177.12
679.18	29020.30
679.31	28704.33
679.45	28713.69
679.59	28168.35
679.73	28376.66
679.87	28914.98
680.00	28458.57
680.14	28219.84
680.28	28308.78
680.42	27761.09
680.56	28240.90
680.70	27758.75
680.83	28112.17
680.97	27740.03
681.11	27527.04
681.25	27641.73
681.39	27548.11
681.52	27534.06
681.66	27653.43
681.80	27517.68
681.94	27056.59
682.07	27058.93
682.21	27033.19
682.35	26700.83
682.49	26892.76
682.62	26991.06
682.76	26609.55
682.90	26408.26
683.04	26768.71
683.17	26452.73
683.31	26672.74
683.45	26452.73
683.59	26078.25
683.72	25701.42
683.86	25682.70
684.00	25678.02
684.13	26223.36
684.27	26373.16
684.41	25544.61
684.55	25633.55
684.68	25312.89
684.82	25177.14
684.96	25111.61
685.09	25216.93
685.23	24961.81
685.37	25177.14
685.50	24816.70
685.64	25029.69
685.78	24933.73
685.91	25116.29
686.05	24680.95
686.19	24217.52
686.32	24233.91
686.46	24357.96
686.60	23740.05
686.73	23857.08
686.87	23428.76
687.01	23585.58
687.14	23599.62
687.28	23489.62
687.42	23363.23
687.55	23253.22
687.69	23658.14
687.82	23147.90
687.96	23400.68
688.10	22998.10
688.23	22850.65
688.37	23168.96
688.50	22682.13
688.64	22504.25
688.78	22712.56
688.91	22860.01
689.05	22422.33
689.18	22754.69
689.32	22155.51
689.46	22607.23
689.59	22286.58
689.73	22118.06
689.86	22345.09
690.00	22302.96
690.13	22434.03
690.27	22115.72
690.41	22099.34
690.54	21401.86
690.68	21301.22
690.81	21675.70
690.95	21282.49
691.08	21294.19
691.22	21350.37
691.35	21188.87
691.49	21254.40
691.62	21186.53
691.76	21010.99
691.89	20922.05
692.03	20795.66
692.16	20837.79
692.30	20971.20
692.43	20706.72
692.57	20624.80
692.70	20535.86
692.84	20552.24
692.97	20245.63
693.11	20407.13
693.24	20123.93
693.38	20086.48
693.51	19845.40
693.65	19978.81
693.78	20067.75
693.92	19779.87
694.05	19711.99
694.19	19241.54
694.32	19506.02
694.45	19501.34
694.59	19459.21
694.72	19089.41
694.86	19152.60
694.99	18745.35
695.13	19147.92
695.26	18752.37
695.39	18757.05
695.53	19035.58
695.66	18977.06
695.80	18841.31
695.93	18637.69
696.07	18160.22
696.20	18384.91
696.33	18401.29
696.47	18319.37
696.60	18122.77
696.73	18143.83
696.87	17907.44
697.00	18171.92
697.14	18036.17
697.27	17982.34
697.40	17640.62
697.54	17795.09
697.67	17628.92
697.80	17537.63
697.94	17577.42
698.07	17521.25
698.21	17467.42
698.34	17500.19
698.47	17284.86
698.61	16830.79
698.74	16901.01
698.87	16652.91
699.01	16610.78
699.14	16617.80
699.27	16837.81
699.40	16582.70
699.54	16662.27
699.67	16496.10
699.80	16358.00
699.94	16271.40
700.07	16421.20
700.20	16187.14
700.34	15845.43
700.47	16133.31
700.60	16287.79
700.73	16053.73
700.87	15976.50
701.00	16009.26
701.13	16053.73
701.26	15653.50
701.40	15927.35
701.53	15372.64
701.66	15513.07
701.79	15660.52
701.93	15253.27
702.06	14972.41
702.19	14979.43
702.32	15250.93
702.46	15248.59
702.59	15000.49
702.72	14981.77
702.85	15012.20
702.99	15042.62
703.12	14951.34
703.25	14824.95
703.38	14719.63
703.51	14773.46
703.65	14780.48
703.78	14757.08
703.91	14478.55
704.04	14516.00
704.17	14511.32
704.31	14195.35
704.44	14019.81
704.57	14253.86
704.70	13816.18
704.83	13720.22
704.96	14085.34
705.10	14193.01
705.23	14017.47
>>>>>End Processed Spectral Data<<<<<
