SpectraSuite Data File
++++++++++++++++++++++++++++++++++++
Date: Fri Oct 25 10:43:23 EDT 2013
User: price-jones
Dark Spectrum Present: No
Reference Spectrum Present: No
Number of Sampled Component Spectra: 1
Spectrometers: USB2+H05261
Integration Time (usec): 100000 (USB2+H05261)
Spectra Averaged: 1 (USB2+H05261)
Boxcar Smoothing: 0 (USB2+H05261)
Correct for Electrical Dark: No (USB2+H05261)
Strobe/Lamp Enabled: No (USB2+H05261)
Correct for Detector Non-linearity: No (USB2+H05261)
Correct for Stray Light: No (USB2+H05261)
Number of Pixels in Processed Spectrum: 2048
>>>>>Begin Processed Spectral Data<<<<<
365.73	74.90
365.92	74.90
366.12	74.90
366.32	30.43
366.52	35.11
366.72	35.11
366.91	51.49
367.11	46.81
367.31	0.00
367.51	7.02
367.70	7.02
367.90	37.45
368.10	63.19
368.30	39.79
368.49	9.36
368.69	42.13
368.89	18.72
369.09	65.54
369.28	14.04
369.48	86.60
369.68	60.85
369.87	77.24
370.07	98.30
370.27	161.50
370.47	283.20
370.66	374.49
370.86	395.55
371.06	416.62
371.25	479.81
371.45	397.89
371.65	486.83
371.84	550.03
372.04	468.11
372.24	475.13
372.44	503.22
372.63	463.43
372.83	557.05
373.03	482.15
373.22	531.30
373.42	566.41
373.62	561.73
373.81	524.28
374.01	521.94
374.21	566.41
374.40	575.77
374.60	482.15
374.79	538.32
374.99	638.97
375.19	526.62
375.38	543.00
375.58	514.92
375.78	634.29
375.97	610.88
376.17	592.16
376.37	596.84
376.56	664.71
376.76	608.54
376.95	592.16
377.15	561.73
377.35	631.94
377.54	741.95
377.74	713.86
377.93	615.56
378.13	622.58
378.33	592.16
378.52	650.67
378.72	716.20
378.91	585.13
379.11	643.65
379.31	636.63
379.50	629.60
379.70	702.16
379.89	634.29
380.09	678.76
380.28	629.60
380.48	744.29
380.68	669.39
380.87	690.46
381.07	706.84
381.26	746.63
381.46	748.97
381.65	662.37
381.85	662.37
382.04	706.84
382.24	695.14
382.43	706.84
382.63	657.69
382.83	720.88
383.02	760.67
383.22	755.99
383.41	711.52
383.61	655.35
383.80	828.55
384.00	718.54
384.19	697.48
384.39	828.55
384.58	826.21
384.78	840.25
384.97	774.72
385.17	798.12
385.36	809.83
385.56	826.21
385.75	800.46
385.95	781.74
386.14	854.30
386.34	835.57
386.53	880.04
386.72	910.47
386.92	835.57
387.11	868.34
387.31	856.64
387.50	837.91
387.70	889.40
387.89	819.19
388.09	863.66
388.28	884.72
388.48	912.81
388.67	922.17
388.86	873.02
389.06	896.43
389.25	931.53
389.45	961.96
389.64	973.66
389.84	985.37
390.03	968.98
390.22	1050.90
390.42	964.30
390.61	933.87
390.81	945.58
391.00	1041.54
391.19	1069.62
391.39	1107.07
391.58	1078.99
391.78	1076.65
391.97	1135.16
392.16	997.07
392.36	1020.47
392.55	1048.56
392.75	987.71
392.94	933.87
393.13	1093.03
393.33	999.41
393.52	1081.33
393.71	1086.01
393.91	1116.44
394.10	1062.60
394.29	1057.92
394.49	1041.54
394.68	1203.04
394.88	1277.93
395.07	1263.89
395.26	1320.06
395.46	1135.16
395.65	1212.40
395.84	1219.42
396.04	1205.38
396.23	1163.25
396.42	1123.46
396.62	1160.91
396.81	1284.95
397.00	1203.04
397.19	1282.61
397.39	1219.42
397.58	1366.87
397.77	1291.98
397.97	1453.47
398.16	1444.11
398.35	1430.07
398.55	1458.15
398.74	1453.47
398.93	1502.62
399.12	1509.65
399.32	1488.58
399.51	1519.01
399.70	1507.30
399.90	1554.12
400.09	1500.28
400.28	1666.46
400.47	1577.52
400.67	1769.44
400.86	1717.95
401.05	1645.40
401.24	1687.53
401.44	1741.36
401.63	1708.59
401.82	1720.29
402.01	1678.16
402.21	1797.53
402.40	1694.55
402.59	1706.25
402.78	1842.00
402.97	1785.83
403.17	1750.72
403.36	1757.74
403.55	1846.68
403.74	1785.83
403.93	1743.70
404.13	1923.92
404.32	1830.30
404.51	1874.77
404.70	1818.60
404.89	1919.24
405.09	1912.22
405.28	1919.24
405.47	1881.79
405.66	1996.48
405.85	1947.33
406.05	1914.56
406.24	2085.42
406.43	2097.12
406.62	2033.93
406.81	2106.48
407.00	2097.12
407.20	2064.35
407.39	2073.71
407.58	2132.23
407.77	2169.68
407.96	2277.34
408.15	2223.51
408.34	2174.36
408.54	2300.75
408.73	2370.96
408.92	2249.25
409.11	2408.41
409.30	2265.64
409.49	2225.85
409.68	2251.60
409.87	2197.76
410.07	2375.64
410.26	2424.80
410.45	2417.77
410.64	2443.52
410.83	2576.93
411.02	2555.86
411.21	2602.68
411.40	2586.29
411.59	2700.98
411.78	2567.57
411.98	2637.78
412.17	2623.74
412.36	2590.97
412.55	2724.38
412.74	2750.13
412.93	2761.83
413.12	2605.02
413.31	2846.09
413.50	2715.02
413.69	2923.33
413.88	2963.12
414.07	2944.39
414.26	2963.12
414.45	2993.55
414.64	2899.92
414.83	2991.20
415.02	2984.18
415.22	3021.63
415.41	3126.96
415.60	3136.32
415.79	3201.85
415.98	3276.75
416.17	3279.09
416.36	3229.94
416.55	3236.96
416.74	3178.45
416.93	3332.92
417.12	3222.92
417.31	3384.41
417.50	3403.14
417.69	3370.37
417.88	3377.39
418.07	3339.94
418.26	3461.65
418.45	3494.42
418.64	3578.68
418.83	3571.66
419.02	3541.23
419.21	3501.44
419.39	3566.98
419.58	3466.33
419.77	3492.08
419.96	3590.38
420.15	3662.94
420.34	3740.18
420.53	3737.84
420.72	3796.35
420.91	3925.08
421.10	3772.94
421.29	3810.39
421.48	3723.79
421.67	3798.69
421.86	3707.41
422.05	3824.44
422.24	3747.20
422.43	3772.94
422.61	3978.91
422.80	4009.34
422.99	3868.91
423.18	3843.16
423.37	3946.14
423.56	3922.74
423.75	3934.44
423.94	3819.75
424.13	3616.13
424.32	3637.19
424.50	4011.68
424.69	3941.46
424.88	3955.51
425.07	3829.12
425.26	3833.80
425.45	3782.31
425.64	4002.32
425.83	3889.97
426.01	3981.25
426.20	3929.76
426.39	4100.62
426.58	3885.29
426.77	3861.88
426.96	4009.34
427.15	4004.66
427.33	4023.38
427.52	3969.55
427.71	4018.70
427.90	4072.53
428.09	4182.54
428.28	4086.58
428.46	4131.05
428.65	4042.11
428.84	4124.02
429.03	4154.45
429.22	4105.30
429.40	4140.41
429.59	4140.41
429.78	3974.23
429.97	3962.53
430.16	4084.23
430.34	4081.89
430.53	4035.08
430.72	4219.99
430.91	4133.39
431.10	4283.18
431.28	4606.17
431.47	4512.55
431.66	4629.58
431.85	4383.82
432.03	4557.02
432.22	4809.80
432.41	4594.47
432.60	4765.33
432.79	4777.03
432.97	4734.90
433.16	4674.05
433.35	4608.51
433.54	4683.41
433.72	4753.63
433.91	4573.41
434.10	4765.33
434.28	4826.18
434.47	4800.44
434.66	4959.60
434.85	4908.10
435.03	4922.15
435.22	4903.42
435.41	4945.55
435.59	4975.98
435.78	5048.54
435.97	4999.38
436.16	5184.29
436.34	5151.52
436.53	5130.45
436.72	5156.20
436.90	5177.26
437.09	5118.75
437.28	5032.15
437.46	5032.15
437.65	5212.37
437.84	5219.39
438.02	4990.02
438.21	5291.95
438.40	5085.98
438.58	5366.85
438.77	5439.40
438.96	5411.32
439.14	5678.14
439.33	5708.57
439.52	5570.48
439.70	5455.79
439.89	5619.63
440.08	5584.52
440.26	5809.21
440.45	5701.54
440.63	5816.23
440.82	5914.53
441.01	5820.91
441.19	5823.25
441.38	6113.48
441.57	6099.44
441.75	6061.99
441.94	6249.23
442.12	6218.80
442.31	6422.43
442.50	6284.34
442.68	6193.06
442.87	6434.13
443.05	6190.72
443.24	6581.59
443.43	6438.81
443.61	6485.62
443.80	6663.51
443.98	6401.37
444.17	6223.48
444.35	6464.56
444.54	6644.78
444.73	6703.29
444.91	6293.70
445.10	6516.05
445.28	6476.26
445.47	6483.28
445.65	6340.51
445.84	6518.39
446.02	6644.78
446.21	6487.96
446.39	6574.56
446.58	6567.54
446.77	6562.86
446.95	6633.08
447.14	6775.85
447.32	6766.49
447.51	6651.80
447.69	6441.15
447.88	6668.19
448.06	6857.77
448.25	6574.56
448.43	6745.42
448.62	6576.91
448.80	6724.36
448.99	6789.89
449.17	6820.32
449.36	6815.64
449.54	7026.29
449.73	7016.93
449.91	7311.83
450.10	7103.53
450.28	7187.79
450.46	7208.85
450.65	7316.51
450.83	7070.76
451.02	7009.90
451.20	7084.80
451.39	7267.36
451.57	7108.21
451.76	7096.50
451.94	7136.29
452.13	7246.30
452.31	7171.40
452.49	7218.21
452.68	7236.94
452.86	7220.55
453.05	7133.95
453.23	7267.36
453.42	7131.61
453.60	7103.53
453.78	7386.73
453.97	7449.93
454.15	7300.13
454.34	7466.31
454.52	7513.12
454.70	7442.90
454.89	7403.11
455.07	7672.28
455.26	7407.80
455.44	7639.51
455.62	7571.63
455.81	7665.25
455.99	7639.51
456.17	7786.96
456.36	7772.92
456.54	7908.67
456.73	7770.58
456.91	8278.47
457.09	8098.25
457.28	8154.43
457.46	8025.70
457.64	7960.16
457.83	8116.98
458.01	7941.44
458.19	8273.79
458.38	8283.16
458.56	8175.49
458.74	8147.40
458.93	8208.26
459.11	8173.15
459.29	8156.77
459.48	8519.55
459.66	8138.04
459.84	8409.54
460.03	8706.79
460.21	8336.99
460.39	8402.52
460.57	8332.31
460.76	8737.22
460.94	8535.93
461.12	8388.48
461.31	8498.49
461.49	8685.73
461.67	8669.34
461.85	8814.46
462.04	8589.77
462.22	9156.18
462.40	8847.22
462.59	8917.44
462.77	8879.99
462.95	8891.70
463.13	8816.80
463.32	8716.16
463.50	9069.58
463.68	8884.67
463.86	9008.72
464.05	8809.78
464.23	8931.48
464.41	9027.45
464.59	8922.12
464.78	9305.97
464.96	9186.60
465.14	9214.69
465.32	9114.05
465.50	9125.75
465.69	9324.69
465.87	9221.71
466.05	9219.37
466.23	9195.96
466.41	9214.69
466.60	9437.04
466.78	9053.19
466.96	9235.75
467.14	9394.91
467.32	9266.18
467.51	9509.60
467.69	9111.71
467.87	9589.17
468.05	9563.43
468.23	9432.36
468.41	9359.80
468.60	9343.42
468.78	9614.92
468.96	9444.06
469.14	9720.24
469.32	9764.72
469.50	9446.40
469.69	9680.46
469.87	9652.37
470.05	9771.74
470.23	9823.23
470.41	9659.39
470.59	10059.62
470.77	9804.50
470.95	10010.47
471.14	10031.54
471.32	9734.29
471.50	10265.59
471.68	10097.07
471.86	10429.43
472.04	10310.06
472.22	10504.32
472.40	10122.82
472.58	10373.25
472.77	10438.79
472.95	10679.86
473.13	10864.77
473.31	10326.44
473.49	10555.82
473.67	10548.79
473.85	10682.20
474.03	10988.82
474.21	10829.66
474.39	11012.22
474.57	10984.13
474.75	11192.44
474.93	11201.80
475.12	10876.47
475.30	11283.72
475.48	11138.61
475.66	11414.79
475.84	11281.38
476.02	11290.74
476.20	11190.10
476.38	11496.71
476.56	11662.89
476.74	11885.24
476.92	11831.41
477.10	11805.66
477.28	11889.92
477.46	12011.63
477.64	12147.38
477.82	12208.23
478.00	12416.54
478.18	12496.12
478.36	12409.52
478.54	12528.89
478.72	12329.94
478.90	12706.77
479.08	12999.34
479.26	13069.55
479.44	13078.91
479.62	13362.12
479.80	13214.66
479.98	13202.96
480.16	13362.12
480.34	13472.12
480.52	13731.92
480.70	13591.49
480.88	13535.32
481.06	13902.78
481.24	13893.42
481.41	14445.79
481.59	14750.06
481.77	14225.78
481.95	14518.34
482.13	14623.67
482.31	14581.54
482.49	14483.24
482.67	14485.58
482.85	15084.75
483.03	15073.05
483.21	15262.63
483.39	15414.77
483.57	15204.12
483.74	15562.22
483.92	15407.75
484.10	15559.88
484.28	15840.75
484.46	15845.43
484.64	16051.39
484.82	15875.85
485.00	16208.21
485.18	16170.76
485.35	16402.47
485.53	16154.38
485.71	16039.69
485.89	16409.50
486.07	16025.65
486.25	16514.82
486.43	16842.50
486.61	16978.25
486.78	17481.46
486.96	17301.24
487.14	17500.19
487.32	17334.01
487.50	17926.16
487.68	18244.48
487.85	18097.02
488.03	18155.54
488.21	18693.86
488.39	18239.79
488.57	18537.04
488.75	18679.82
488.92	18937.27
489.10	19421.77
489.28	19351.55
489.46	19625.39
489.64	19445.17
489.81	19934.34
489.99	20152.01
490.17	19917.96
490.35	20388.41
490.53	20088.82
490.70	20271.38
490.88	20435.22
491.06	20575.65
491.24	20886.94
491.41	20449.26
491.59	20739.49
491.77	20840.13
491.95	20821.41
492.13	21373.77
492.30	21633.57
492.48	21341.00
492.66	21474.42
492.84	21769.32
493.01	21923.80
493.19	21989.33
493.37	22284.24
493.54	22064.23
493.72	22504.25
493.90	22398.93
494.08	22852.99
494.25	23363.23
494.43	22993.42
494.61	23386.63
494.79	23417.06
494.96	23255.56
495.14	23393.65
495.32	23295.35
495.49	23672.18
495.67	23985.81
495.85	23821.97
496.02	24133.26
496.20	24189.44
496.38	24247.95
496.55	24467.96
496.73	24870.53
496.91	24814.36
497.09	25352.68
497.26	25003.94
497.44	24900.96
497.62	25254.38
497.79	25219.27
497.97	24795.64
498.14	25486.09
498.32	25436.94
498.50	25750.57
498.67	25935.48
498.85	25741.21
499.03	25818.45
499.20	25940.16
499.38	26359.11
499.56	25919.09
499.73	26410.60
499.91	26419.97
500.08	26469.12
500.26	26192.94
500.44	26438.69
500.61	26717.22
500.79	26384.86
500.97	26649.34
501.14	27063.61
501.32	27042.55
501.49	27061.27
501.67	27126.81
501.84	27419.38
502.02	27215.75
502.20	27604.28
502.37	28027.92
502.55	27662.79
502.72	27854.72
502.90	27775.14
503.07	27967.06
503.25	28044.30
503.43	27615.98
503.60	28278.35
503.78	27831.31
503.95	28264.31
504.13	28074.73
504.30	28987.53
504.48	28219.84
504.65	28540.49
504.83	28624.75
505.01	29146.69
505.18	29113.92
505.36	29677.99
505.53	29362.02
505.71	29364.36
505.88	29212.23
506.06	29298.83
506.23	29738.85
506.41	29376.06
506.58	29420.53
506.76	29776.30
506.93	30078.22
507.11	29820.77
507.28	29951.84
507.46	30008.01
507.63	29685.01
507.81	30012.69
507.98	29675.65
508.16	29996.31
508.33	30380.15
508.50	30368.45
508.68	30459.73
508.85	30838.90
509.03	30979.33
509.20	31150.19
509.38	30717.19
509.55	31082.31
509.73	31185.30
509.90	31438.08
510.08	30817.83
510.25	31234.45
510.42	31571.49
510.60	31587.87
510.77	31419.35
510.95	32353.23
511.12	31718.94
511.30	31889.80
511.47	31686.17
511.64	31948.31
511.82	32205.77
511.99	31906.18
512.17	32606.00
512.34	32245.56
512.51	32224.50
512.69	32304.07
512.86	32390.67
513.04	32584.94
513.21	32826.01
513.38	32496.00
513.56	32479.61
513.73	32638.77
513.90	32720.69
514.08	32912.61
514.25	33177.09
514.43	32982.83
514.60	33085.81
514.77	32950.06
514.95	33406.47
515.12	33502.43
515.29	33195.82
515.47	33759.89
515.64	33993.94
515.81	33425.19
515.99	33572.64
516.16	33682.65
516.33	33418.17
516.51	33488.38
516.68	32706.65
516.85	33041.34
517.03	33352.63
517.20	33942.45
517.37	34197.57
517.54	34265.44
517.72	33766.91
517.89	34272.46
518.06	34000.96
518.24	33799.68
518.41	34139.05
518.58	34235.02
518.75	34380.13
518.93	34646.95
519.10	34536.94
519.27	34494.82
519.45	34733.55
519.62	35159.53
519.79	35152.51
519.96	35452.09
520.14	35140.80
520.31	35147.82
520.48	34883.34
520.65	35386.56
520.83	35601.89
521.00	35342.09
521.17	35931.90
521.34	35892.12
521.52	35697.85
521.69	36004.46
521.86	35964.67
522.03	36367.24
522.20	36418.74
522.38	36079.36
522.55	36194.04
522.72	36133.19
522.89	36364.90
523.07	36830.67
523.24	36231.49
523.41	36598.96
523.58	36842.37
523.75	37163.03
523.92	36809.61
524.10	36907.91
524.27	37186.43
524.44	37034.30
524.61	37060.04
524.78	37511.77
524.96	37446.23
525.13	37294.10
525.30	37453.25
525.47	37361.97
525.64	37127.92
525.81	37380.70
525.98	36865.78
526.16	37263.67
526.33	36854.08
526.50	37331.54
526.67	37067.06
526.84	36825.99
527.01	37415.80
527.18	37457.93
527.36	38007.96
527.53	37949.45
527.70	38253.72
527.87	37998.60
528.04	38480.75
528.21	38246.69
528.38	38316.91
528.55	38782.68
528.72	38967.58
528.89	38981.62
529.07	38824.81
529.24	38422.23
529.41	38452.66
529.58	38438.62
529.75	38555.64
529.92	38923.11
530.09	38946.51
530.26	38574.37
530.43	39206.31
530.60	38651.61
530.77	39079.92
530.94	39517.60
531.11	38955.88
531.28	39180.57
531.46	39433.35
531.63	39182.91
531.80	38869.28
531.97	39124.40
532.14	38871.62
532.31	39435.69
532.48	39363.13
532.65	39159.50
532.82	39232.06
532.99	39468.45
533.16	39267.17
533.33	39798.47
533.50	39627.61
533.67	39859.32
533.84	39704.85
534.01	39971.67
534.18	39875.71
534.35	40692.55
534.52	40280.62
534.69	39812.51
534.86	40308.71
535.03	40346.15
535.20	40397.65
535.37	40748.73
535.54	40463.18
535.71	40147.21
535.88	40683.19
536.05	40364.88
536.22	40512.33
536.38	40484.25
536.55	40549.78
536.72	40676.17
536.89	40144.87
537.06	40367.22
537.23	41233.22
537.40	40950.01
537.57	40840.01
537.74	40444.46
537.91	41401.74
538.08	41289.39
538.25	40470.20
538.42	41193.43
538.59	41006.19
538.75	41163.00
538.92	41443.87
539.09	41216.83
539.26	41022.57
539.43	41338.54
539.60	41083.42
539.77	40903.20
539.94	41263.64
540.11	40975.76
540.28	41198.11
540.44	41294.07
540.61	41710.69
540.78	41226.20
540.95	41422.80
541.12	41020.23
541.29	41514.08
541.46	41771.54
541.62	41736.43
541.79	41729.41
541.96	41673.24
542.13	41689.62
542.30	41507.06
542.47	41696.64
542.63	41745.80
542.80	41928.36
542.97	42094.53
543.14	42595.41
543.31	41876.86
543.48	42387.10
543.64	42518.17
543.81	42705.41
543.98	42787.33
544.15	42403.49
544.32	42969.90
544.48	42953.51
544.65	42356.67
544.82	42677.33
544.99	42064.11
545.16	42869.25
545.32	42740.52
545.49	43318.64
545.66	43377.15
545.83	42817.76
546.00	42990.96
546.16	42951.17
546.33	42546.26
546.50	42497.11
546.67	42967.55
546.83	42616.47
547.00	42574.34
547.17	42895.00
547.34	42808.40
547.50	43262.46
547.67	43056.50
547.84	43047.13
548.00	43487.15
548.17	43618.22
548.34	43318.64
548.51	43885.04
548.67	43665.03
548.84	43842.92
549.01	43360.76
549.18	43222.67
549.34	43194.59
549.51	43838.23
549.68	43796.10
549.84	43697.80
550.01	43323.32
550.18	43782.06
550.34	43749.29
550.51	43735.25
550.68	43992.71
550.84	43328.00
551.01	43650.99
551.18	43913.13
551.34	43643.97
551.51	44158.89
551.68	44058.24
551.84	43831.21
552.01	43913.13
552.18	44282.94
552.34	43768.02
552.51	43950.58
552.68	43931.86
552.84	44158.89
553.01	44301.66
553.18	44217.40
553.34	44163.57
553.51	44446.77
553.67	43847.60
553.84	44528.69
554.01	44512.31
554.17	44406.98
554.34	44311.02
554.51	44339.11
554.67	44456.14
554.84	44287.62
555.00	44715.93
555.17	44769.77
555.33	44479.54
555.50	44378.90
555.67	44898.50
555.83	44493.58
556.00	44694.87
556.16	45188.72
556.33	44528.69
556.50	45029.57
556.66	44524.01
556.83	44406.98
556.99	44832.96
557.16	44509.97
557.32	44729.98
557.49	44685.51
557.65	44760.40
557.82	44538.05
557.98	45067.02
558.15	45050.63
558.32	44673.81
558.48	44453.79
558.65	44701.89
558.81	44744.02
558.98	44414.01
559.14	44875.09
559.31	44856.37
559.47	45017.86
559.64	45088.08
559.80	44959.35
559.97	45223.83
560.13	44671.46
560.30	44858.71
560.46	45155.96
560.63	45162.98
560.79	45256.60
560.96	45801.94
561.12	44809.56
561.29	45090.42
561.45	45230.85
561.61	44891.48
561.78	44624.65
561.94	44957.01
562.11	44957.01
562.27	45162.98
562.44	45322.13
562.60	45160.64
562.77	44987.44
562.93	45230.85
563.10	45294.05
563.26	44949.99
563.42	45357.24
563.59	44935.95
563.75	45366.60
563.92	45354.90
564.08	45249.58
564.24	45544.48
564.41	45471.93
564.57	45677.90
564.74	45441.50
564.90	45595.98
565.07	45530.44
565.23	45504.70
565.39	45319.79
565.56	45364.26
565.72	45404.05
565.88	45492.99
566.05	45408.73
566.21	45174.68
566.38	44898.50
566.54	45392.35
566.70	45928.33
566.87	45975.14
567.03	45474.27
567.19	46148.34
567.36	45904.93
567.52	45603.00
567.68	45837.05
567.85	45460.23
568.01	45705.98
568.17	45378.31
568.34	45652.15
568.50	46000.89
568.66	45333.84
568.83	45645.13
568.99	45357.24
569.15	45570.23
569.32	45560.87
569.48	45717.68
569.64	45757.47
569.81	45876.84
569.97	45645.13
570.13	45399.37
570.30	45397.03
570.46	45361.92
570.62	45429.80
570.78	45132.55
570.95	45336.18
571.11	45773.86
571.27	45350.22
571.43	45078.72
571.60	45928.33
571.76	45649.81
571.92	45212.13
572.09	45764.49
572.25	46422.19
572.41	46066.42
572.57	45911.95
572.74	45970.46
572.90	45776.20
573.06	46073.45
573.22	45996.21
573.38	45621.72
573.55	45734.07
573.71	46127.28
573.87	45825.35
574.03	45673.21
574.20	45696.62
574.36	45422.78
574.52	45893.22
574.68	45525.76
574.84	45640.45
575.01	45778.54
575.17	45752.79
575.33	45385.33
575.49	45663.85
575.65	46146.00
575.82	45811.31
575.98	45902.59
576.14	45780.88
576.30	45904.93
576.46	45724.71
576.62	45588.95
576.79	45497.67
576.95	45731.73
577.11	45755.13
577.27	45808.96
577.43	45481.29
577.59	45640.45
577.75	45792.58
577.92	45401.71
578.08	45794.92
578.24	45668.53
578.40	45654.49
578.56	45823.01
578.72	45794.92
578.88	45780.88
579.04	46286.43
579.21	45612.36
579.37	45811.31
579.53	46185.79
579.69	45249.58
579.85	45429.80
580.01	45710.66
580.17	45675.55
580.33	45603.00
580.49	45415.76
580.65	45584.27
580.82	45703.64
580.98	45858.12
581.14	45624.06
581.30	45949.40
581.46	45762.15
581.62	45460.23
581.78	46089.83
581.94	46059.40
582.10	45991.53
582.26	45963.44
582.42	45989.19
582.58	45804.28
582.74	45600.66
582.90	46000.89
583.06	45911.95
583.22	46143.66
583.38	46127.28
583.54	46169.41
583.70	46164.73
583.86	45750.45
584.02	45715.34
584.18	46199.83
584.34	45951.74
584.50	45914.29
584.66	45855.78
584.82	45483.63
584.98	46080.47
585.14	45876.84
585.30	45780.88
585.46	45490.65
585.62	45371.28
585.78	45687.26
585.94	45731.73
586.10	45584.27
586.26	45944.72
586.42	45844.07
586.58	45975.14
586.74	45830.03
586.90	45874.50
587.06	45516.40
587.22	45923.65
587.38	45558.53
587.54	45776.20
587.70	46019.61
587.86	45844.07
588.02	46040.68
588.18	45720.02
588.34	45647.47
588.49	45420.44
588.65	45523.42
588.81	45588.95
588.97	45275.32
589.13	45104.46
589.29	45766.84
589.45	45837.05
589.61	45652.15
589.77	46103.87
589.93	46066.42
590.08	46555.60
590.24	46295.80
590.40	46293.46
590.56	46333.24
590.72	46256.01
590.88	45904.93
591.04	46087.49
591.20	46251.33
591.35	46581.34
591.51	46775.61
591.67	46045.36
591.83	45741.09
591.99	45698.96
592.15	45701.30
592.31	46265.37
592.46	45705.98
592.62	45989.19
592.78	46237.28
592.94	46354.31
593.10	46302.82
593.26	46735.82
593.41	46251.33
593.57	45907.27
593.73	46094.51
593.89	46279.41
594.05	45998.55
594.20	45811.31
594.36	46328.56
594.52	46232.60
594.68	46234.94
594.84	46026.63
594.99	46124.94
595.15	45553.85
595.31	46281.75
595.47	46155.36
595.62	45982.16
595.78	46457.29
595.94	46199.83
596.10	46307.50
596.25	46108.55
596.41	45827.69
596.57	46017.27
596.73	46349.63
596.88	45830.03
597.04	46073.45
597.20	46096.85
597.36	45909.61
597.51	46036.00
597.67	45979.82
597.83	45961.10
597.99	46789.65
598.14	45996.21
598.30	46038.34
598.46	46160.05
598.61	46248.99
598.77	46019.61
598.93	46036.00
599.09	46295.80
599.24	46560.28
599.40	46092.17
599.56	46129.62
599.71	46398.78
599.87	46473.68
600.03	46398.78
600.18	46045.36
600.34	46043.02
600.50	46232.60
600.65	46206.86
600.81	46288.77
600.97	46007.91
601.12	46113.23
601.28	45841.73
601.44	46267.71
601.59	46218.56
601.75	46019.61
601.91	46026.63
602.06	46036.00
602.22	46120.26
602.37	46450.27
602.53	46415.16
602.69	46223.24
602.84	46216.22
603.00	45972.80
603.16	45982.16
603.31	46033.66
603.47	46174.09
603.62	45881.52
603.78	46342.61
603.94	46127.28
604.09	46106.21
604.25	46251.33
604.40	46368.35
604.56	46431.55
604.71	46384.74
604.87	46366.01
605.03	45762.15
605.18	45968.12
605.34	45790.24
605.49	45619.38
605.65	46120.26
605.80	46251.33
605.96	46059.40
606.12	46223.24
606.27	46024.29
606.43	45579.59
606.58	46115.58
606.74	45605.34
606.89	46370.69
607.05	45986.85
607.20	46019.61
607.36	45720.02
607.51	46389.42
607.67	46136.64
607.82	45345.54
607.98	45741.09
608.13	45429.80
608.29	45647.47
608.44	45556.19
608.60	45291.71
608.75	46260.69
608.91	45212.13
609.06	45729.39
609.22	45900.25
609.37	45855.78
609.53	45815.99
609.68	45673.21
609.84	45474.27
609.99	45338.52
610.15	45558.53
610.30	45404.05
610.46	44734.66
610.61	45581.93
610.76	45659.17
610.92	45790.24
611.07	45397.03
611.23	45624.06
611.38	45806.62
611.54	45272.98
611.69	44767.43
611.84	45427.46
612.00	45345.54
612.15	45076.38
612.31	45130.21
612.46	44900.84
612.62	45289.37
612.77	45237.87
612.92	45518.74
613.08	45162.98
613.23	45191.06
613.39	44870.41
613.54	44781.47
613.69	44690.19
613.85	44615.29
614.00	45123.19
614.15	45097.44
614.31	44615.29
614.46	45258.94
614.62	45373.63
614.77	44954.67
614.92	44739.34
615.08	44498.26
615.23	45017.86
615.38	44652.74
615.54	44474.86
615.69	44641.04
615.84	44320.38
616.00	44488.90
616.15	44727.64
616.30	44889.13
616.46	44765.09
616.61	44289.96
616.76	44488.90
616.92	44105.06
617.07	44641.04
617.22	44610.61
617.37	44442.09
617.53	45134.89
617.68	44432.73
617.83	44598.91
617.99	44704.23
618.14	44329.75
618.29	44006.75
618.45	44083.99
618.60	44355.49
618.75	43587.80
618.90	44051.22
619.06	44060.58
619.21	43948.24
619.36	44048.88
619.51	43735.25
619.67	43950.58
619.82	44086.33
619.97	43889.73
620.12	43812.49
620.28	43601.84
620.43	43917.81
620.58	44102.71
620.73	43707.16
620.89	44034.84
621.04	43913.13
621.19	44013.77
621.34	43962.28
621.49	43601.84
621.65	43449.70
621.80	43665.03
621.95	43210.97
622.10	44072.29
622.25	43826.53
622.41	43576.09
622.56	43658.01
622.71	43716.53
622.86	43650.99
623.01	43440.34
623.16	43496.52
623.32	42995.64
623.47	43641.63
623.62	43470.77
623.77	43016.71
623.92	43147.78
624.07	43070.54
624.23	43232.04
624.38	42920.74
624.53	43002.66
624.68	43391.19
624.83	43196.93
624.98	43033.09
625.13	42782.65
625.29	43168.84
625.44	43023.73
625.59	42997.98
625.74	42464.34
625.89	42864.57
626.04	42843.51
626.19	42820.10
626.34	42902.02
626.49	42801.38
626.65	43100.97
626.80	43044.79
626.95	42829.46
627.10	42813.08
627.25	42775.63
627.40	42202.20
627.55	42349.65
627.70	41996.23
627.85	42883.30
628.00	42206.88
628.15	42995.64
628.30	42181.13
628.45	42780.31
628.60	42604.77
628.76	42380.08
628.91	42330.93
629.06	42424.55
629.21	42506.47
629.36	42401.14
629.51	42593.07
629.66	42279.44
629.81	42230.29
629.96	42157.73
630.11	41909.63
630.26	42501.79
630.41	42136.66
630.56	42349.65
630.71	41914.31
630.86	42057.09
631.01	41691.96
631.16	41968.15
631.31	41731.75
631.46	41841.76
631.61	42230.29
631.76	42146.03
631.91	41706.01
632.06	41771.54
632.21	41876.86
632.36	41895.59
632.51	41811.33
632.66	41928.36
632.81	41600.68
632.96	41680.26
633.10	41591.32
633.25	41404.08
633.40	41780.90
633.55	41874.52
633.70	41792.61
633.85	41312.80
634.00	41289.39
634.15	41408.76
634.30	41251.94
634.45	41514.08
634.60	41418.12
634.75	41315.14
634.90	40776.81
635.05	41411.10
635.19	40989.80
635.34	41184.07
635.49	41394.71
635.64	41076.40
635.79	40903.20
635.94	40900.86
636.09	41097.47
636.24	40594.25
636.39	40500.63
636.53	40912.56
636.68	40989.80
636.83	40854.05
636.98	40570.85
637.13	41022.57
637.28	41420.46
637.43	40975.76
637.57	40940.65
637.72	41053.00
637.87	40704.26
638.02	40935.97
638.17	40713.62
638.32	40610.64
638.46	40751.07
638.61	40605.95
638.76	40608.29
638.91	40538.08
639.06	40690.21
639.20	41132.57
639.35	40769.79
639.50	40519.35
639.65	40830.65
639.80	40133.17
639.94	40313.39
640.09	40109.76
640.24	40659.79
640.39	40065.29
640.54	40201.04
640.68	40252.53
640.83	40030.18
640.98	39880.39
641.13	39854.64
641.27	40547.44
641.42	39728.25
641.57	39796.13
641.72	40196.36
641.86	40020.82
642.01	39683.78
642.16	39969.33
642.31	39948.26
642.45	40032.52
642.60	39908.47
642.75	39505.90
642.90	39871.03
643.04	39971.67
643.19	40364.88
643.34	40072.31
643.48	39852.30
643.63	39269.51
643.78	39489.52
643.93	39861.66
644.07	39611.23
644.22	39454.41
644.37	39587.82
644.51	39611.23
644.66	39468.45
644.81	39597.18
644.95	39761.02
645.10	39655.70
645.25	39423.98
645.39	39503.56
645.54	39349.09
645.69	39325.68
645.83	39056.52
645.98	39370.15
646.13	39346.75
646.27	39278.87
646.42	39250.78
646.57	39061.20
646.71	39091.63
646.86	39381.85
647.00	39072.90
647.15	39042.48
647.30	38869.28
647.44	39145.46
647.59	38979.28
647.74	38986.30
647.88	38862.26
648.03	38553.30
648.17	38834.17
648.32	38604.80
648.47	38679.69
648.61	38665.65
648.76	38895.02
648.90	38656.29
649.05	38440.96
649.20	38466.70
649.34	38859.91
649.49	38586.07
649.63	38759.27
649.78	39026.09
649.92	38660.97
650.07	38923.11
650.21	38609.48
650.36	38609.48
650.51	38590.75
650.65	38869.28
650.80	38794.38
650.94	38590.75
651.09	38321.59
651.23	38298.19
651.38	38380.10
651.52	38518.20
651.67	38120.31
651.81	37727.10
651.96	38295.85
652.10	38220.95
652.25	38155.41
652.39	38756.93
652.54	38455.00
652.68	38024.34
652.83	38572.03
652.97	38534.58
653.12	38134.35
653.26	38185.84
653.41	38518.20
653.55	37912.00
653.70	37912.00
653.84	37897.95
653.99	37577.30
654.13	37851.14
654.27	37783.27
654.42	38281.80
654.56	37986.89
654.71	37848.80
654.85	37689.65
655.00	37909.66
655.14	37584.32
655.29	37378.36
655.43	37970.51
655.57	37130.26
655.72	37230.90
655.86	37315.16
656.01	37024.93
656.15	36914.93
656.30	37249.63
656.44	36882.16
656.58	37511.77
656.73	36926.63
656.87	36971.10
657.01	36870.46
657.16	37125.58
657.30	36458.52
657.45	36868.12
657.59	37010.89
657.73	36699.60
657.88	36950.04
658.02	37357.29
658.16	36690.24
658.31	37322.18
658.45	37406.44
658.60	37132.60
658.74	36898.55
658.88	36811.95
659.03	36613.00
659.17	36708.96
659.31	36924.29
659.46	36250.22
659.60	36566.19
659.74	36563.85
659.89	36119.15
660.03	36407.03
660.17	36814.29
660.32	36547.47
660.46	36814.29
660.60	36222.13
660.74	36224.47
660.89	36552.15
661.03	36079.36
661.17	35859.35
661.32	36201.07
661.46	36446.82
661.60	35613.59
661.74	35934.24
661.89	36271.28
662.03	35899.14
662.17	36123.83
662.31	35903.82
662.46	36268.94
662.60	36053.61
662.74	35725.94
662.88	35688.49
663.03	35835.94
663.17	35779.77
663.31	35325.71
663.45	35758.70
663.60	35648.70
663.74	35372.52
663.88	35309.32
664.02	35290.60
664.17	35466.14
664.31	35072.93
664.45	35136.12
664.59	35168.89
664.73	34962.92
664.88	35033.14
665.02	34377.79
665.16	34803.77
665.30	34838.87
665.44	34305.23
665.59	34347.36
665.73	34703.12
665.87	34239.70
666.01	34223.31
666.15	34480.77
666.29	34227.99
666.44	34653.97
666.58	34122.67
666.72	34216.29
666.86	34478.43
667.00	34508.86
667.14	34026.71
667.28	34031.39
667.43	33757.55
667.57	33862.87
667.71	33942.45
667.85	34314.59
667.99	34141.39
668.13	34323.96
668.27	34218.63
668.41	33886.28
668.56	33350.29
668.70	33661.58
668.84	33439.23
668.98	33303.48
669.12	33544.56
669.26	33663.93
669.40	33031.98
669.54	32919.63
669.68	33139.65
669.82	32713.67
669.96	32924.32
670.10	32744.09
670.25	32863.46
670.39	32554.51
670.53	32861.12
670.67	32760.48
670.81	32814.31
670.95	32814.31
671.09	32219.81
671.23	32325.14
671.37	32718.35
671.51	32095.77
671.65	32264.28
671.79	32128.53
671.93	32072.36
672.07	32154.28
672.21	31859.37
672.35	31793.84
672.49	32226.84
672.63	31941.29
672.77	31761.07
672.91	32067.68
673.05	31765.75
673.19	31608.93
673.33	31274.24
673.47	31665.11
673.61	31257.85
673.75	31470.84
673.89	31150.19
674.03	30967.63
674.17	31063.59
674.31	31089.34
674.45	31332.75
674.59	31122.10
674.73	31332.75
674.87	31164.23
675.01	30632.93
675.15	31110.40
675.29	30363.77
675.43	30740.60
675.56	30693.79
675.70	30441.01
675.84	30726.55
675.98	29558.63
676.12	30506.54
676.26	30382.49
676.40	30459.73
676.54	30384.83
676.68	30204.61
676.82	29551.60
676.96	29853.53
677.10	29935.45
677.23	29362.02
677.37	29661.61
677.51	29200.52
677.65	29043.71
677.79	28840.08
677.93	28788.59
678.07	28659.86
678.21	28858.81
678.34	28444.53
678.48	28339.21
678.62	28404.74
678.76	28538.15
678.90	28170.69
679.04	28112.17
679.18	28790.93
679.31	27847.69
679.45	27850.03
679.59	27770.46
679.73	27803.22
679.87	27742.37
680.00	27779.82
680.14	27707.26
680.28	27339.80
680.42	27693.22
680.56	27358.52
680.70	27440.44
680.83	27206.39
680.97	27332.78
681.11	27147.87
681.25	27166.60
681.39	27166.60
681.52	27138.51
681.66	27101.06
681.80	26843.60
681.94	26302.94
682.07	26359.11
682.21	26485.50
682.35	26469.12
682.49	26455.08
682.62	26366.13
682.76	26024.42
682.90	25972.92
683.04	26321.66
683.17	25647.59
683.31	25572.69
683.45	25766.96
683.59	25539.93
683.72	25565.67
683.86	25546.95
684.00	25282.47
684.13	25041.39
684.27	25238.00
684.41	24687.97
684.55	25343.32
684.68	25104.59
684.82	24357.96
684.96	24711.38
685.09	24634.14
685.23	24416.47
685.37	24531.15
685.50	24367.32
685.64	24650.52
685.78	24421.15
685.91	23920.28
686.05	24184.76
686.19	23868.78
686.32	23667.50
686.46	23510.68
686.60	23007.47
686.73	23307.05
686.87	23068.32
687.01	23042.57
687.14	23234.50
687.28	22665.75
687.42	23239.18
687.55	23007.47
687.69	23073.00
687.82	23016.83
687.96	22728.94
688.10	22625.96
688.23	22829.59
688.37	22614.26
688.50	22251.47
688.64	22370.84
688.78	22207.00
688.91	21752.94
689.05	21977.63
689.18	21715.49
689.32	21766.98
689.46	21781.03
689.59	21923.80
689.73	21916.78
689.86	21722.51
690.00	21446.33
690.13	21561.02
690.27	21345.69
690.41	21263.77
690.54	21247.38
690.68	21027.37
690.81	21195.89
690.95	20795.66
691.08	21202.91
691.22	21263.77
691.35	20809.70
691.49	20678.63
691.62	20891.62
691.76	20568.63
691.89	20346.28
692.03	20725.44
692.16	20589.69
692.30	20161.37
692.43	20315.85
692.57	19719.01
692.70	19913.28
692.84	20198.82
692.97	19466.24
693.11	19793.91
693.24	19468.58
693.38	19496.66
693.51	19339.85
693.65	19438.15
693.78	19566.88
693.92	19225.16
694.05	19131.54
694.19	19314.10
694.32	19325.80
694.45	19161.97
694.59	19012.17
694.72	19143.24
694.86	18817.91
694.99	18703.22
695.13	18600.24
695.26	18670.45
695.39	18436.40
695.53	18759.39
695.66	18548.75
695.80	18429.38
695.93	18232.77
696.07	18214.05
696.20	18216.39
696.33	18228.09
696.47	17759.98
696.60	17750.62
696.73	17919.14
696.87	17713.17
697.00	17476.78
697.14	17500.19
697.27	17207.62
697.40	17270.81
697.54	17371.46
697.67	17341.03
697.80	16989.95
697.94	16943.14
698.07	17191.23
698.21	17099.95
698.34	17214.64
698.47	17228.68
698.61	16659.93
698.74	16538.23
698.87	16657.59
699.01	16570.99
699.14	16477.37
699.27	16470.35
699.40	16414.18
699.54	16027.99
699.67	16229.27
699.80	16039.69
699.94	15861.81
700.07	16208.21
700.20	16004.58
700.34	15985.86
700.47	15800.96
700.60	15541.16
700.73	15618.39
700.87	15810.32
701.00	15620.74
701.13	15229.87
701.26	15325.83
701.40	15154.97
701.53	15150.29
701.66	14998.15
701.79	14906.87
701.93	14941.98
702.06	14787.50
702.19	14820.27
702.32	14850.70
702.46	14824.95
702.59	14817.93
702.72	14761.76
702.85	14700.90
702.99	14785.16
703.12	14485.58
703.25	14398.98
703.38	14387.27
703.51	14401.32
703.65	14417.70
703.78	13996.40
703.91	13785.76
704.04	13731.92
704.17	13881.72
704.31	13734.26
704.44	13734.26
704.57	13947.25
704.70	13455.74
704.83	13577.45
704.96	13837.25
705.10	13586.81
705.23	13490.85
>>>>>End Processed Spectral Data<<<<<
