SpectraSuite Data File
++++++++++++++++++++++++++++++++++++
Date: Fri Oct 25 10:44:21 EDT 2013
User: price-jones
Dark Spectrum Present: No
Reference Spectrum Present: No
Number of Sampled Component Spectra: 1
Spectrometers: USB2+H05261
Integration Time (usec): 100000 (USB2+H05261)
Spectra Averaged: 1 (USB2+H05261)
Boxcar Smoothing: 0 (USB2+H05261)
Correct for Electrical Dark: No (USB2+H05261)
Strobe/Lamp Enabled: No (USB2+H05261)
Correct for Detector Non-linearity: No (USB2+H05261)
Correct for Stray Light: No (USB2+H05261)
Number of Pixels in Processed Spectrum: 2048
>>>>>Begin Processed Spectral Data<<<<<
365.73	154.48
365.92	154.48
366.12	154.48
366.32	124.05
366.52	16.38
366.72	51.49
366.91	18.72
367.11	11.70
367.31	63.19
367.51	4.68
367.70	18.72
367.90	42.13
368.10	21.06
368.30	145.11
368.49	16.38
368.69	58.51
368.89	102.98
369.09	0.00
369.28	44.47
369.48	46.81
369.68	37.45
369.87	65.54
370.07	86.60
370.27	114.69
370.47	159.16
370.66	428.32
370.86	423.64
371.06	458.74
371.25	470.45
371.45	428.32
371.65	489.17
371.84	517.26
372.04	468.11
372.24	482.15
372.44	528.96
372.63	561.73
372.83	477.47
373.03	528.96
373.22	505.56
373.42	564.07
373.62	475.13
373.81	538.32
374.01	613.22
374.21	484.49
374.40	498.53
374.60	568.75
374.79	653.01
374.99	613.22
375.19	484.49
375.38	603.86
375.58	552.37
375.78	671.73
375.97	634.29
376.17	638.97
376.37	676.41
376.56	613.22
376.76	660.03
376.95	657.69
377.15	671.73
377.35	660.03
377.54	671.73
377.74	606.20
377.93	716.20
378.13	662.37
378.33	650.67
378.52	706.84
378.72	660.03
378.91	681.10
379.11	678.76
379.31	645.99
379.50	718.54
379.70	751.31
379.89	688.12
380.09	704.50
380.28	641.31
380.48	730.25
380.68	781.74
380.87	802.80
381.07	788.76
381.26	777.06
381.46	702.16
381.65	638.97
381.85	741.95
382.04	753.65
382.24	716.20
382.43	690.46
382.63	692.80
382.83	725.57
383.02	779.40
383.22	828.55
383.41	746.63
383.61	753.65
383.80	772.38
384.00	800.46
384.19	877.70
384.39	880.04
384.58	744.29
384.78	833.23
384.97	866.00
385.17	863.66
385.36	720.88
385.56	791.10
385.75	798.12
385.95	819.19
386.14	877.70
386.34	835.57
386.53	880.04
386.72	896.43
386.92	968.98
387.11	938.55
387.31	945.58
387.50	844.93
387.70	929.19
387.89	891.74
388.09	856.64
388.28	966.64
388.48	940.90
388.67	964.30
388.86	1013.45
389.06	910.47
389.25	980.68
389.45	1013.45
389.64	966.64
389.84	1076.65
390.03	983.02
390.22	1008.77
390.42	1109.41
390.61	1095.37
390.81	931.53
391.00	1093.03
391.19	1114.10
391.39	1121.12
391.58	1043.88
391.78	1041.54
391.97	1090.69
392.16	1034.52
392.36	1116.44
392.55	1074.31
392.75	994.73
392.94	1020.47
393.13	1093.03
393.33	1123.46
393.52	1116.44
393.71	1067.28
393.91	1114.10
394.10	1102.39
394.29	1139.84
394.49	1207.72
394.68	1308.36
394.88	1212.40
395.07	1322.40
395.26	1263.89
395.46	1338.79
395.65	1277.93
395.84	1327.08
396.04	1193.67
396.23	1235.80
396.42	1160.91
396.62	1226.44
396.81	1259.21
397.00	1277.93
397.19	1334.11
397.39	1406.66
397.58	1352.83
397.77	1401.98
397.97	1479.22
398.16	1451.13
398.35	1568.16
398.55	1483.90
398.74	1685.19
398.93	1659.44
399.12	1600.93
399.32	1474.54
399.51	1511.99
399.70	1596.25
399.90	1675.82
400.09	1636.03
400.28	1708.59
400.47	1732.00
400.67	1816.26
400.86	1696.89
401.05	1760.08
401.24	1708.59
401.44	1743.70
401.63	1832.64
401.82	1830.30
402.01	1778.81
402.21	1820.94
402.40	1921.58
402.59	1858.39
402.78	1778.81
402.97	1818.60
403.17	1834.98
403.36	1905.20
403.55	1895.83
403.74	1973.07
403.93	2017.54
404.13	1954.35
404.32	2062.01
404.51	1937.96
404.70	1959.03
404.89	1949.67
405.09	2036.27
405.28	2073.71
405.47	2064.35
405.66	2017.54
405.85	2113.50
406.05	2129.89
406.24	2125.21
406.43	2010.52
406.62	2216.49
406.81	2146.27
407.00	2125.21
407.20	2188.40
407.39	2260.96
407.58	2256.28
407.77	2293.72
407.96	2314.79
408.15	2258.62
408.34	2232.87
408.54	2356.92
408.73	2469.27
408.92	2403.73
409.11	2445.86
409.30	2375.64
409.49	2429.48
409.68	2422.45
409.87	2417.77
410.07	2469.27
410.26	2499.69
410.45	2534.80
410.64	2616.72
410.83	2588.63
411.02	2672.89
411.21	2787.58
411.40	2771.19
411.59	2780.56
411.78	2766.51
411.98	2778.22
412.17	2855.45
412.36	2785.24
412.55	2801.62
412.74	2843.75
412.93	2843.75
413.12	2939.71
413.31	3019.29
413.50	2862.48
413.69	2984.18
413.88	3026.31
414.07	3049.72
414.26	3112.91
414.45	3171.43
414.64	3173.77
414.83	3178.45
415.02	3166.74
415.22	3300.16
415.41	3173.77
415.60	3332.92
415.79	3332.92
415.98	3288.45
416.17	3426.54
416.36	3375.05
416.55	3391.44
416.74	3480.38
416.93	3398.46
417.12	3382.07
417.31	3428.88
417.50	3506.12
417.69	3618.47
417.88	3459.31
418.07	3485.06
418.26	3660.60
418.45	3742.52
418.64	3709.75
418.83	3714.43
419.02	3721.45
419.21	3946.14
419.39	3686.34
419.58	3740.18
419.77	3772.94
419.96	3700.39
420.15	3976.57
420.34	3840.82
420.53	3824.44
420.72	3969.55
420.91	3988.27
421.10	4025.72
421.29	4037.42
421.48	3925.08
421.67	4016.36
421.86	4093.60
422.05	3936.78
422.24	3822.09
422.43	3929.76
422.61	3943.80
422.80	4201.26
422.99	4063.17
423.18	4147.43
423.37	4236.37
423.56	4063.17
423.75	4112.32
423.94	4084.23
424.13	3798.69
424.32	3932.10
424.50	4088.92
424.69	4175.52
424.88	4194.24
425.07	4168.49
425.26	3976.57
425.45	4042.11
425.64	4058.49
425.83	4149.77
426.01	4297.22
426.20	4168.49
426.39	4208.28
426.58	3981.25
426.77	4023.38
426.96	4194.24
427.15	4248.07
427.33	4196.58
427.52	4208.28
427.71	4217.65
427.90	4355.74
428.09	4374.46
428.28	4306.59
428.46	4255.09
428.65	4360.42
428.84	4482.13
429.03	4353.40
429.22	4180.20
429.40	4273.82
429.59	4198.92
429.78	3967.21
429.97	4105.30
430.16	4311.27
430.34	4121.68
430.53	4243.39
430.72	4320.63
430.91	4447.02
431.10	4365.10
431.28	4629.58
431.47	4636.60
431.66	4868.31
431.85	4608.51
432.03	4657.67
432.22	4912.78
432.41	4716.18
432.60	4887.04
432.79	4865.97
432.97	4966.62
433.16	4926.83
433.35	4858.95
433.54	4917.47
433.72	4847.25
433.91	4798.10
434.10	4894.06
434.28	4809.80
434.47	5048.54
434.66	5076.62
434.85	5104.71
435.03	5123.43
435.22	5114.07
435.41	5383.23
435.59	5266.21
435.78	5275.57
435.97	5472.17
436.16	5364.51
436.34	5357.49
436.53	5282.59
436.72	5369.19
436.90	5242.80
437.09	5313.02
437.28	5301.31
437.46	5467.49
437.65	5277.91
437.84	5275.57
438.02	5366.85
438.21	5472.17
438.40	5329.40
438.58	5537.71
438.77	5699.20
438.96	5647.71
439.14	5729.63
439.33	5701.54
439.52	5746.02
439.70	5959.00
439.89	5858.36
440.08	5991.77
440.26	5795.17
440.45	5856.02
440.63	6003.47
440.82	6244.55
441.01	6228.17
441.19	6300.72
441.38	6305.40
441.57	6396.68
441.75	6382.64
441.94	6642.44
442.12	6452.86
442.31	6682.23
442.50	6579.25
442.68	6443.49
442.87	6551.16
443.05	6609.67
443.24	6775.85
443.43	6888.20
443.61	6789.89
443.80	6995.86
443.98	6712.66
444.17	6576.91
444.35	6979.48
444.54	6906.92
444.73	6986.50
444.91	6796.92
445.10	6696.27
445.28	6768.83
445.47	6656.48
445.65	6761.81
445.84	6715.00
446.02	6803.94
446.21	6899.90
446.39	6820.32
446.58	6918.62
446.77	7002.88
446.95	6846.07
447.14	6927.99
447.32	7101.19
447.51	6911.60
447.69	6913.94
447.88	6899.90
448.06	7068.42
448.25	6927.99
448.43	7197.15
448.62	6981.82
448.80	7040.33
448.99	7148.00
449.17	6899.90
449.36	7122.25
449.54	7272.04
449.73	7466.31
449.91	7384.39
450.10	7325.88
450.28	7665.25
450.46	7651.21
450.65	7440.56
450.83	7452.27
451.02	7531.84
451.20	7691.00
451.39	7569.29
451.57	7522.48
451.76	7424.18
451.94	7534.18
452.13	7630.15
452.31	7536.52
452.49	7290.77
452.68	7407.80
452.86	7412.48
453.05	7487.37
453.23	7597.38
453.42	7630.15
453.60	7740.15
453.78	7681.64
453.97	7602.06
454.15	7714.41
454.34	7487.37
454.52	7737.81
454.70	7756.54
454.89	7974.21
455.07	7733.13
455.26	7955.48
455.44	8046.76
455.62	8002.29
455.81	8035.06
455.99	8315.92
456.17	8077.19
456.36	8138.04
456.54	8182.51
456.73	8299.54
456.91	8484.44
457.09	8432.95
457.28	8664.66
457.46	8332.31
457.64	8390.82
457.83	8575.72
458.01	8311.24
458.19	8374.44
458.38	8374.44
458.56	8486.78
458.74	8636.58
458.93	8358.05
459.11	8578.06
459.29	8683.39
459.48	8746.58
459.66	8671.68
459.84	8709.13
460.03	8730.20
460.21	8837.86
460.39	8901.06
460.57	8961.91
460.76	8917.44
460.94	8943.19
461.12	9100.00
461.31	9100.00
461.49	8912.76
461.67	9165.54
461.85	9263.84
462.04	9240.44
462.22	9430.02
462.40	9373.85
462.59	9249.80
462.77	9359.80
462.95	9563.43
463.13	9242.78
463.32	9205.33
463.50	9308.31
463.68	9167.88
463.86	9521.30
464.05	9160.86
464.23	9502.58
464.41	9558.75
464.59	9226.39
464.78	9341.08
464.96	9423.00
465.14	9364.48
465.32	9591.52
465.50	9528.32
465.69	9654.71
465.87	9399.59
466.05	9551.73
466.23	9521.30
466.41	9598.54
466.60	9923.87
466.78	9467.47
466.96	9579.81
467.14	9657.05
467.32	9923.87
467.51	9933.23
467.69	9675.77
467.87	9832.59
468.05	9720.24
468.23	9813.87
468.41	9664.07
468.60	10022.17
468.78	10101.75
468.96	9832.59
469.14	10087.71
469.32	10314.74
469.50	9905.15
469.69	10237.50
469.87	10162.61
470.05	10230.48
470.23	10399.00
470.41	10223.46
470.59	10274.95
470.77	10068.98
470.95	10174.31
471.14	10677.52
471.32	10530.07
471.50	10633.05
471.68	10747.74
471.86	10698.59
472.04	10698.59
472.22	10822.64
472.40	10602.63
472.58	10740.72
472.77	10890.51
472.95	11047.33
473.13	11447.56
473.31	10998.18
473.49	10834.34
473.67	11075.42
473.85	11176.06
474.03	11389.05
474.21	11288.40
474.39	11517.78
474.57	11220.53
474.75	11616.08
474.93	11953.12
475.12	11363.30
475.30	11639.48
475.48	11595.01
475.66	11735.45
475.84	11613.74
476.02	11721.40
476.20	11672.25
476.38	12243.34
476.56	12173.13
476.74	12280.79
476.92	12016.31
477.10	12381.43
477.28	12823.80
477.46	12334.62
477.64	12753.58
477.82	13078.91
478.00	13041.46
478.18	13205.30
478.36	12833.16
478.54	13156.15
478.72	13165.51
478.90	13308.29
479.08	13556.38
479.26	13549.36
479.44	13694.47
479.62	13645.32
479.80	13982.36
479.98	14031.51
480.16	14111.09
480.34	14080.66
480.52	14207.05
480.70	13951.93
480.88	14258.54
481.06	14384.93
481.24	14600.26
481.41	14871.76
481.59	15220.50
481.77	14909.21
481.95	14934.96
482.13	15124.54
482.31	15229.87
482.49	15051.99
482.67	15405.41
482.85	15307.10
483.03	15854.79
483.21	15999.90
483.39	15962.45
483.57	15815.00
483.74	16039.69
483.92	16156.72
484.10	16262.04
484.28	16528.86
484.46	16830.79
484.64	17020.38
484.82	16589.72
485.00	16924.41
485.18	17139.74
485.35	16931.44
485.53	16702.06
485.71	16868.24
485.89	16847.18
486.07	17050.80
486.25	17191.23
486.43	17296.56
486.61	17624.23
486.78	17797.43
486.96	18066.60
487.14	18139.15
487.32	18314.69
487.50	18867.06
487.68	18530.02
487.85	18909.19
488.03	19040.26
488.21	19501.34
488.39	19288.35
488.57	19414.74
488.75	19484.96
488.92	19445.17
489.10	20285.42
489.28	20222.23
489.46	20568.63
489.64	20294.79
489.81	20795.66
489.99	20891.62
490.17	21067.16
490.35	21097.59
490.53	20842.47
490.70	21523.57
490.88	21214.62
491.06	21678.04
491.24	21633.57
491.41	21720.17
491.59	21750.60
491.77	21675.70
491.95	21708.47
492.13	22061.89
492.30	22469.14
492.48	22380.20
492.66	22970.02
492.84	22625.96
493.01	22700.86
493.19	22735.96
493.37	23021.51
493.54	23311.74
493.72	23019.17
493.90	23318.76
494.08	23534.09
494.25	24072.41
494.43	24297.10
494.61	24156.67
494.79	24383.70
494.96	24276.04
495.14	24535.84
495.32	24528.81
495.49	24318.17
495.67	24645.84
495.85	24837.76
496.02	24884.58
496.20	25259.06
496.38	25364.39
496.55	25462.69
496.73	26075.91
496.91	25387.79
497.09	26157.83
497.26	25965.90
497.44	25921.43
497.62	26078.25
497.79	26206.98
497.97	25741.21
498.14	26560.40
498.32	26349.75
498.50	26548.70
498.67	26632.96
498.85	26969.99
499.03	27147.87
499.20	26930.20
499.38	26941.91
499.56	27295.33
499.73	27061.27
499.91	27674.49
500.08	27779.82
500.26	26906.80
500.44	27082.34
500.61	27623.00
500.79	27826.63
500.97	27548.11
501.14	27850.03
501.32	27840.67
501.49	28098.13
501.67	27983.44
501.84	28116.86
502.02	28589.64
502.20	28322.82
502.37	28535.81
502.55	28538.15
502.72	29008.60
502.90	29017.96
503.07	29039.03
503.25	29226.27
503.43	29095.20
503.60	29069.45
503.78	29085.84
503.95	29249.67
504.13	28931.36
504.30	29713.10
504.48	29507.13
504.65	30118.01
504.83	30073.54
505.01	29998.65
505.18	30621.23
505.36	30089.93
505.53	30590.80
505.71	31021.46
505.88	30764.00
506.06	30293.55
506.23	30773.36
506.41	30572.08
506.58	30572.08
506.76	30686.76
506.93	31033.16
507.11	30785.07
507.28	30745.28
507.46	31012.10
507.63	31281.26
507.81	30857.62
507.98	31009.76
508.16	31400.63
508.33	31395.95
508.50	31510.63
508.68	31889.80
508.85	32034.91
509.03	32173.00
509.20	32308.76
509.38	32079.38
509.55	32112.15
509.73	32458.55
509.90	32311.10
510.08	32385.99
510.25	32390.67
510.42	32283.01
510.60	32694.94
510.77	33034.32
510.95	33273.06
511.12	32657.49
511.30	33055.39
511.47	33333.91
511.64	33134.96
511.82	33663.93
511.99	32966.45
512.17	33565.62
512.34	33193.48
512.51	33467.32
512.69	33544.56
512.86	33893.30
513.04	34115.65
513.21	33738.82
513.38	33661.58
513.56	33582.01
513.73	33865.21
513.90	34022.03
514.08	34314.59
514.25	34082.88
514.43	34480.77
514.60	34450.35
514.77	34190.55
514.95	34892.71
515.12	34515.88
515.29	34452.69
515.47	34883.34
515.64	35007.39
515.81	34923.13
515.99	34588.44
516.16	34773.34
516.33	34569.71
516.51	34106.29
516.68	34059.48
516.85	34003.30
517.03	34576.73
517.20	34735.89
517.37	35330.39
517.54	35859.35
517.72	35688.49
517.89	35098.67
518.06	35131.44
518.24	35351.45
518.41	35299.96
518.58	35524.65
518.75	35669.76
518.93	36126.17
519.10	35943.61
519.27	35742.32
519.45	36381.29
519.62	36453.84
519.79	36617.68
519.96	36666.83
520.14	36568.53
520.31	36144.89
520.48	36280.64
520.65	36659.81
520.83	36938.33
521.00	37003.87
521.17	37333.89
521.34	37390.06
521.52	37331.54
521.69	37380.70
521.86	37656.88
522.03	37048.34
522.20	37565.60
522.38	37411.12
522.55	37298.78
522.72	37247.29
522.89	37673.26
523.07	37869.87
523.24	37565.60
523.41	38176.48
523.58	37673.26
523.75	38024.34
523.92	38476.07
524.10	38363.72
524.27	38663.31
524.44	38122.65
524.61	38511.17
524.78	38679.69
524.96	38738.21
525.13	38745.23
525.30	39203.97
525.47	38913.75
525.64	38946.51
525.81	38880.98
525.98	38569.69
526.16	38391.81
526.33	38490.11
526.50	38202.22
526.67	37743.48
526.84	38705.44
527.01	38347.34
527.18	38974.60
527.36	38939.49
527.53	39339.72
527.70	39496.54
527.87	39833.58
528.04	39477.82
528.21	39810.17
528.38	39438.03
528.55	39735.27
528.72	40182.32
528.89	40032.52
529.07	40142.53
529.24	39353.77
529.41	39651.02
529.58	39990.39
529.75	39810.17
529.92	39894.43
530.09	40144.87
530.26	40727.66
530.43	40535.74
530.60	40301.68
530.77	40292.32
530.94	40746.39
531.11	40545.10
531.28	40645.74
531.46	40458.50
531.63	41125.55
531.80	40439.78
531.97	40395.31
532.14	40685.53
532.31	40020.82
532.48	40332.11
532.65	40442.12
532.82	40722.98
532.99	40872.78
533.16	40931.29
533.33	41102.15
533.50	41654.51
533.67	41275.35
533.84	40699.58
534.01	41092.79
534.18	41055.34
534.35	41689.62
534.52	41418.12
534.69	41406.42
534.86	41457.91
535.03	41926.02
535.20	41806.65
535.37	42197.52
535.54	42061.77
535.71	42000.91
535.88	41937.72
536.05	41858.14
536.22	41790.27
536.38	41902.61
536.55	42359.02
536.72	41663.88
536.89	41518.76
537.06	42136.66
537.23	42237.31
537.40	41790.27
537.57	42043.04
537.74	42340.29
537.91	42794.36
538.08	42288.80
538.25	42380.08
538.42	42246.67
538.59	42454.98
538.75	42396.46
538.92	42520.51
539.09	42546.26
539.26	42239.65
539.43	42433.91
539.60	42408.17
539.77	42108.58
539.94	42539.24
540.11	42141.35
540.28	42792.01
540.44	42251.35
540.61	42359.02
540.78	42569.66
540.95	42480.72
541.12	42497.11
541.29	43075.22
541.46	43016.71
541.62	43178.20
541.79	42850.53
541.96	42672.65
542.13	42674.99
542.30	42749.88
542.47	42843.51
542.63	43421.62
542.80	43344.38
542.97	43814.83
543.14	43569.07
543.31	43573.75
543.48	43494.18
543.64	44458.48
543.81	43751.63
543.98	44006.75
544.15	43840.57
544.32	44226.76
544.48	44018.46
544.65	44334.43
544.82	44091.01
544.99	43817.17
545.16	43924.83
545.32	43840.57
545.49	44533.37
545.66	44491.24
545.83	44437.41
546.00	44458.48
546.16	44608.27
546.33	44194.00
546.50	44149.53
546.67	44203.36
546.83	43999.73
547.00	44137.82
547.17	44168.25
547.34	44304.00
547.50	44580.18
547.67	44598.91
547.84	44706.57
548.00	44865.73
548.17	45057.65
548.34	44896.16
548.51	45141.91
548.67	44964.03
548.84	44884.45
549.01	44959.35
549.18	44645.72
549.34	45088.08
549.51	44807.22
549.68	45104.46
549.84	45118.51
550.01	44884.45
550.18	44933.60
550.34	45123.19
550.51	45397.03
550.68	45155.96
550.84	44957.01
551.01	45329.16
551.18	45160.64
551.34	45619.38
551.51	45137.23
551.68	45354.90
551.84	45303.41
552.01	45038.93
552.18	45303.41
552.34	45249.58
552.51	44800.19
552.68	44987.44
552.84	45509.38
553.01	46045.36
553.18	45626.40
553.34	45144.25
553.51	45549.17
553.67	45144.25
553.84	46148.34
554.01	45572.57
554.17	45450.86
554.34	45956.42
554.51	46010.25
554.67	45610.02
554.84	46148.34
555.00	45923.65
555.17	45708.32
555.33	46043.02
555.50	45830.03
555.67	45916.63
555.83	45457.88
556.00	45928.33
556.16	46281.75
556.33	46396.44
556.50	45940.04
556.66	46075.79
556.83	45937.69
556.99	45961.10
557.16	45902.59
557.32	46122.60
557.49	46288.77
557.65	46120.26
557.82	45680.24
557.98	46160.05
558.15	46026.63
558.32	46188.13
558.48	46059.40
558.65	46143.66
558.81	45984.51
558.98	46045.36
559.14	46136.64
559.31	45968.12
559.47	46272.39
559.64	46543.89
559.80	46461.97
559.97	46515.81
560.13	45851.09
560.30	46307.50
560.46	46532.19
560.63	46808.37
560.79	46667.94
560.96	47122.01
561.12	46663.26
561.29	46347.29
561.45	46342.61
561.61	46422.19
561.78	46096.85
561.94	46337.93
562.11	46330.90
562.27	45991.53
562.44	46171.75
562.60	46684.33
562.77	46796.67
562.93	46520.49
563.10	46934.76
563.26	46450.27
563.42	46838.80
563.59	46218.56
563.75	46555.60
563.92	47182.86
564.08	46548.57
564.24	47093.92
564.41	46508.79
564.57	46700.71
564.74	46550.91
564.90	46677.30
565.07	46836.46
565.23	46681.98
565.39	46232.60
565.56	46728.80
565.72	46571.98
565.88	46857.52
566.05	46511.13
566.21	46710.07
566.38	46609.43
566.54	46864.55
566.70	46644.54
566.87	47290.52
567.03	47126.69
567.19	47253.08
567.36	46967.53
567.52	47103.28
567.68	47070.51
567.85	46752.20
568.01	46761.56
568.17	46384.74
568.34	46986.25
568.50	46869.23
568.66	47262.44
568.83	46782.63
568.99	46298.14
569.15	46806.03
569.32	46747.52
569.48	46550.91
569.64	47210.95
569.81	46625.81
569.97	47012.00
570.13	46681.98
570.30	46445.59
570.46	46782.63
570.62	46560.28
570.78	46616.45
570.95	46403.46
571.11	47047.11
571.27	46373.03
571.43	46939.44
571.60	46323.88
571.76	46983.91
571.92	46993.28
572.09	46869.23
572.25	46990.94
572.41	46897.31
572.57	47171.16
572.74	47112.64
572.90	46817.74
573.06	47323.29
573.22	46703.05
573.38	46703.05
573.55	46810.71
573.71	46820.08
573.87	46794.33
574.03	46576.66
574.20	47166.48
574.36	46770.93
574.52	47515.22
574.68	47262.44
574.84	46768.58
575.01	46887.95
575.17	46906.68
575.33	46602.41
575.49	46794.33
575.65	46965.19
575.82	47065.83
575.98	47014.34
576.14	47461.38
576.30	46887.95
576.46	46707.73
576.62	47154.77
576.79	46740.50
576.95	47033.07
577.11	47023.70
577.27	47107.96
577.43	47065.83
577.59	46775.61
577.75	47175.84
577.92	47058.81
578.08	46777.95
578.24	47056.47
578.40	46784.97
578.56	46728.80
578.72	46878.59
578.88	47278.82
579.04	47459.04
579.21	46820.08
579.37	46674.96
579.53	47297.55
579.69	47306.91
579.85	47004.98
580.01	47051.79
580.17	46934.76
580.33	47131.37
580.49	46983.91
580.65	47466.06
580.82	47342.02
580.98	46667.94
581.14	46909.02
581.30	47126.69
581.46	47433.30
581.62	47285.84
581.78	47276.48
581.94	47482.45
582.10	47318.61
582.26	46995.62
582.42	47180.52
582.58	47281.16
582.74	47119.66
582.90	47257.76
583.06	46953.49
583.22	47512.88
583.38	47709.48
583.54	47494.15
583.70	47526.92
583.86	47824.17
584.02	47040.09
584.18	47136.05
584.34	46838.80
584.50	47271.80
584.66	47086.90
584.82	47217.97
584.98	47564.37
585.14	47311.59
585.30	46574.32
585.46	47000.30
585.62	46894.97
585.78	46925.40
585.94	46595.38
586.10	46815.40
586.26	47381.80
586.42	47171.16
586.58	47232.01
586.74	47292.86
586.90	47112.64
587.06	47026.04
587.22	47339.68
587.38	46883.27
587.54	47007.32
587.70	46829.44
587.86	47325.63
588.02	46965.19
588.18	47426.28
588.34	46890.29
588.49	46485.38
588.65	46761.56
588.81	46464.32
588.97	46836.46
589.13	46611.77
589.29	46686.67
589.45	46878.59
589.61	46717.09
589.77	47044.77
589.93	47232.01
590.08	47203.92
590.24	47208.61
590.40	47075.19
590.56	47208.61
590.72	47522.24
590.88	46752.20
591.04	46693.69
591.20	47934.17
591.35	47391.17
591.51	47650.97
591.67	47459.04
591.83	47487.13
591.99	47033.07
592.15	47428.62
592.31	47430.96
592.46	46747.52
592.62	46579.00
592.78	47414.57
592.94	47452.02
593.10	47016.68
593.26	47386.49
593.41	47164.14
593.57	46967.53
593.73	47208.61
593.89	47414.57
594.05	47407.55
594.20	47206.26
594.36	47765.65
594.52	47173.50
594.68	47262.44
594.84	47290.52
594.99	47452.02
595.15	47805.44
595.31	47168.82
595.47	47503.51
595.62	47655.65
595.78	47393.51
595.94	47491.81
596.10	47349.04
596.25	47723.52
596.41	47859.27
596.57	47222.65
596.73	47267.12
596.88	47159.45
597.04	47107.96
597.20	47199.24
597.36	47243.71
597.51	47601.82
597.67	47416.91
597.83	47318.61
597.99	47611.18
598.14	47241.37
598.30	47428.62
598.46	47297.55
598.61	47037.75
598.77	47145.41
598.93	47154.77
599.09	47093.92
599.24	47501.17
599.40	47461.38
599.56	46976.89
599.71	47491.81
599.87	47430.96
600.03	47330.31
600.18	46880.93
600.34	47145.41
600.50	47236.69
600.65	47196.90
600.81	47576.07
600.97	47194.56
601.12	47232.01
601.28	47065.83
601.44	47166.48
601.59	46990.94
601.75	47028.38
601.91	47140.73
602.06	47016.68
602.22	47182.86
602.37	47004.98
602.53	47239.03
602.69	47505.85
602.84	47164.14
603.00	47304.57
603.16	47775.02
603.31	47220.31
603.47	47084.56
603.62	47433.30
603.78	47178.18
603.94	47587.77
604.09	47468.40
604.25	47456.70
604.40	47327.97
604.56	46920.72
604.71	47665.01
604.87	46600.07
605.03	47608.84
605.18	47243.71
605.34	46913.70
605.49	46698.37
605.65	47227.33
605.80	47150.09
605.96	46988.60
606.12	47236.69
606.27	47475.43
606.43	46948.81
606.58	46864.55
606.74	46415.16
606.89	46532.19
607.05	46918.38
607.20	47089.24
607.36	46909.02
607.51	46628.15
607.67	46913.70
607.82	46637.51
607.98	47023.70
608.13	46272.39
608.29	46934.76
608.44	46459.63
608.60	46344.95
608.75	46656.24
608.91	46366.01
609.06	47002.64
609.22	47054.13
609.37	46651.56
609.53	46724.11
609.68	46506.44
609.84	46831.78
609.99	46827.10
610.15	46274.73
610.30	46635.17
610.46	46527.51
610.61	46265.37
610.76	46321.54
610.92	46871.57
611.07	46660.92
611.23	46239.62
611.38	46752.20
611.54	46232.60
611.69	46246.65
611.84	46384.74
612.00	46234.94
612.15	46227.92
612.31	46550.91
612.46	46024.29
612.62	46272.39
612.77	46553.26
612.92	46883.27
613.08	45911.95
613.23	46120.26
613.39	45998.55
613.54	45844.07
613.69	46417.50
613.85	45991.53
614.00	46394.10
614.15	46625.81
614.31	46190.47
614.46	46574.32
614.62	46286.43
614.77	46263.03
614.92	46061.74
615.08	45834.71
615.23	45991.53
615.38	45874.50
615.54	45818.33
615.69	45710.66
615.84	45528.10
616.00	45673.21
616.15	45691.94
616.30	45577.25
616.46	45390.01
616.61	45324.47
616.76	45663.85
616.92	45296.39
617.07	45652.15
617.22	45268.30
617.37	45359.58
617.53	45914.29
617.68	45579.59
617.83	45675.55
617.99	45701.30
618.14	45743.43
618.29	45741.09
618.45	45148.93
618.60	45298.73
618.75	45055.31
618.90	45343.20
619.06	45429.80
619.21	45799.60
619.36	46150.68
619.51	45343.20
619.67	45521.08
619.82	45263.62
619.97	45406.39
620.12	45207.45
620.28	44872.75
620.43	45029.57
620.58	45027.23
620.73	44802.53
620.89	44949.99
621.04	45411.07
621.19	45247.24
621.34	45212.13
621.49	44903.18
621.65	44959.35
621.80	45085.74
621.95	44617.63
622.10	44999.14
622.25	44498.26
622.41	44772.11
622.56	44636.36
622.71	44921.90
622.86	44753.38
623.01	44690.19
623.16	44388.26
623.32	44556.78
623.47	44893.82
623.62	44404.64
623.77	44217.40
623.92	44809.56
624.07	44708.91
624.23	44500.61
624.38	43863.98
624.53	44149.53
624.68	44320.38
624.83	44535.71
624.98	44006.75
625.13	44002.07
625.29	44240.81
625.44	43800.79
625.59	43938.88
625.74	43880.36
625.89	43866.32
626.04	43842.92
626.19	43796.10
626.34	44109.74
626.49	44334.43
626.65	43969.30
626.80	44399.96
626.95	44432.73
627.10	43798.44
627.25	43639.29
627.40	43515.24
627.55	42831.80
627.70	43194.59
627.85	43103.31
628.00	43531.62
628.15	43604.18
628.30	43625.25
628.45	43917.81
628.60	43555.03
628.76	43463.75
628.91	43412.26
629.06	43533.96
629.21	42892.66
629.36	43131.39
629.51	43175.86
629.66	43065.86
629.81	42871.59
629.96	43332.68
630.11	43133.73
630.26	43456.73
630.41	43416.94
630.56	43154.80
630.71	43014.37
630.86	42990.96
631.01	42719.46
631.16	43157.14
631.31	43288.21
631.46	43281.19
631.61	42698.39
631.76	42930.11
631.91	42490.09
632.06	43110.33
632.21	43178.20
632.36	43281.19
632.51	42244.33
632.66	42707.76
632.81	42527.53
632.96	42686.69
633.10	42529.87
633.25	42497.11
633.40	42803.72
633.55	43140.75
633.70	42443.27
633.85	42384.76
634.00	42347.31
634.15	42344.97
634.30	43112.67
634.45	42939.47
634.60	42824.78
634.75	42630.52
634.90	42529.87
635.05	42579.03
635.19	41708.35
635.34	42244.33
635.49	42162.41
635.64	42185.82
635.79	42223.26
635.94	42209.22
636.09	41970.49
636.24	41940.06
636.39	41991.55
636.53	41886.23
636.68	42181.13
636.83	42146.03
636.98	42234.97
637.13	41546.85
637.28	41881.55
637.43	42103.90
637.57	42120.28
637.72	42148.37
637.87	41427.48
638.02	41500.04
638.17	41956.44
638.32	41567.91
638.46	41930.70
638.61	41514.08
638.76	41720.05
638.91	41652.17
639.06	41909.63
639.20	41741.11
639.35	42017.30
639.50	41556.21
639.65	42014.96
639.80	41937.72
639.94	41830.05
640.09	41244.92
640.24	41163.00
640.39	41116.19
640.54	40758.09
640.68	41794.95
640.83	41291.73
640.98	40989.80
641.13	40720.64
641.27	41408.76
641.42	41191.09
641.57	40872.78
641.72	40952.35
641.86	40535.74
642.01	40842.35
642.16	40952.35
642.31	40900.86
642.45	41228.54
642.60	40940.65
642.75	40730.00
642.90	40900.86
643.04	40973.42
643.19	40603.61
643.34	40905.54
643.48	40961.72
643.63	40479.57
643.78	40568.51
643.93	40463.18
644.07	40596.59
644.22	40954.69
644.37	41090.44
644.51	40404.67
644.66	40364.88
644.81	40385.94
644.95	40533.40
645.10	40650.42
645.25	40683.19
645.39	40470.20
645.54	40196.36
645.69	40828.30
645.83	40271.26
645.98	40381.26
646.13	40069.97
646.27	40582.55
646.42	40069.97
646.57	40114.44
646.71	40369.56
646.86	40399.99
647.00	39941.24
647.15	40060.61
647.30	40018.48
647.44	39423.98
647.59	39894.43
647.74	39674.42
647.88	39342.06
648.03	40198.70
648.17	39882.73
648.32	40034.86
648.47	39938.90
648.61	39718.89
648.76	39934.22
648.90	39924.86
649.05	39676.76
649.20	39606.55
649.34	39667.40
649.49	39608.89
649.63	39618.25
649.78	39304.62
649.92	39562.08
650.07	39810.17
650.21	39512.92
650.36	39103.33
650.51	39559.73
650.65	39409.94
650.80	39564.42
650.94	39601.86
651.09	39524.63
651.23	39225.04
651.38	39049.50
651.52	39199.29
651.67	39227.38
651.81	38747.57
651.96	39412.28
652.10	39194.61
652.25	39187.59
652.39	39119.71
652.54	39412.28
652.68	39194.61
652.83	39313.98
652.97	39452.07
653.12	39152.48
653.26	38890.34
653.41	38801.40
653.55	38845.87
653.70	38761.61
653.84	38834.17
653.99	38768.63
654.13	38796.72
654.27	38728.84
654.42	38295.85
654.56	38806.08
654.71	38569.69
654.85	38604.80
655.00	38595.43
655.14	38731.18
655.29	38478.41
655.43	38550.96
655.57	38073.49
655.72	38249.03
655.86	38031.36
656.01	37731.78
656.15	37895.61
656.30	38092.22
656.44	38323.93
656.58	37930.72
656.73	38169.46
656.87	38092.22
657.01	37954.13
657.16	38223.29
657.30	37919.02
657.45	37696.67
657.59	37832.42
657.73	37874.55
657.88	38651.61
658.02	38101.58
658.16	38103.92
658.31	38190.52
658.45	37893.27
658.60	37661.56
658.74	37811.35
658.88	37759.86
659.03	37663.90
659.17	37544.53
659.31	37801.99
659.46	37963.49
659.60	37972.85
659.74	37589.00
659.89	37504.74
660.03	37429.85
660.17	37762.20
660.32	37432.19
660.46	37841.78
660.60	37406.44
660.74	37036.64
660.89	37359.63
661.03	36872.80
661.17	36957.06
661.32	36790.88
661.46	36840.03
661.60	37083.45
661.74	37111.53
661.89	36987.49
662.03	37134.94
662.17	36524.06
662.31	36568.53
662.46	36933.65
662.60	36877.48
662.74	36390.65
662.88	36402.35
663.03	36137.87
663.17	36320.43
663.31	35854.67
663.45	36243.20
663.60	36313.41
663.74	35882.75
663.88	36027.87
664.02	36315.75
664.17	36215.11
664.31	35927.22
664.45	36070.00
664.59	36025.53
664.73	36027.87
664.88	36013.82
665.02	35597.21
665.16	35674.45
665.30	35683.81
665.44	35449.75
665.59	35426.35
665.73	35480.18
665.87	35690.83
666.01	35763.39
666.15	35494.22
666.29	35388.90
666.44	35578.48
666.58	34759.30
666.72	35339.75
666.86	35288.26
667.00	35089.31
667.14	34885.68
667.28	34866.96
667.43	34719.51
667.57	35044.84
667.71	34609.50
667.85	34911.43
667.99	34873.98
668.13	34885.68
668.27	34363.75
668.41	34768.66
668.56	34323.96
668.70	35021.44
668.84	34464.39
668.98	33832.44
669.12	33869.89
669.26	34265.44
669.40	34253.74
669.54	33708.40
669.68	34239.70
669.82	33647.54
669.96	34015.01
670.10	33759.89
670.25	34015.01
670.39	33919.04
670.53	33703.71
670.67	33282.42
670.81	33603.07
670.95	33727.12
671.09	33333.91
671.23	33331.57
671.37	33582.01
671.51	33237.95
671.65	33294.12
671.79	33029.64
671.93	32889.21
672.07	33425.19
672.21	33076.45
672.35	32704.31
672.49	33095.18
672.63	33003.89
672.77	32854.10
672.91	32985.17
673.05	32540.47
673.19	32187.05
673.33	32690.26
673.47	32126.19
673.61	32453.87
673.75	32346.20
673.89	32360.25
674.03	31826.60
674.17	31775.11
674.31	32046.62
674.45	31941.29
674.59	31854.69
674.73	31992.78
674.87	32077.04
675.01	31632.34
675.15	31583.19
675.29	31901.50
675.43	31578.51
675.56	31061.25
675.70	31456.80
675.84	31236.79
675.98	30445.69
676.12	31222.75
676.26	30932.52
676.40	31007.42
676.54	31126.78
676.68	30955.93
676.82	30562.72
676.96	30831.88
677.10	30424.62
677.23	30579.10
677.37	30073.54
677.51	29874.60
677.65	29914.39
677.79	29628.84
677.93	30108.65
678.07	29986.94
678.21	29633.52
678.34	29184.14
678.48	29214.57
678.62	29291.80
678.76	29013.28
678.90	28575.60
679.04	28999.24
679.18	29060.09
679.31	28290.06
679.45	28561.56
679.59	28641.14
679.73	28299.42
679.87	28283.03
680.00	28315.80
680.14	28290.06
680.28	28238.56
680.42	28301.76
680.56	28283.03
680.70	28444.53
680.83	28226.86
680.97	28311.12
681.11	27938.97
681.25	27363.20
681.39	27604.28
681.52	27606.62
681.66	27878.12
681.80	27428.74
681.94	27033.19
682.07	27391.29
682.21	27075.32
682.35	27009.78
682.49	27133.83
682.62	26801.47
682.76	26881.05
682.90	27014.46
683.04	26677.43
683.17	26525.29
683.31	26284.22
683.45	26431.67
683.59	26263.15
683.72	26199.96
683.86	26272.51
684.00	25867.60
684.13	25869.94
684.27	25692.06
684.41	25607.80
684.55	25605.46
684.68	25514.18
684.82	25720.15
684.96	25582.06
685.09	25486.09
685.23	25245.02
685.37	24985.22
685.50	25355.02
685.64	25167.78
685.78	25097.56
685.91	24915.00
686.05	24774.57
686.19	24477.32
686.32	24126.24
686.46	24184.76
686.60	23676.86
686.73	23730.69
686.87	23803.25
687.01	23597.28
687.14	23503.66
687.28	23379.61
687.42	23372.59
687.55	23229.82
687.69	23379.61
687.82	23314.08
687.96	23377.27
688.10	23400.68
688.23	23058.96
688.37	22789.80
688.50	22803.84
688.64	22801.50
688.78	22944.27
688.91	22588.51
689.05	22576.81
689.18	22787.46
689.32	22579.15
689.46	22363.82
689.59	22466.80
689.73	22616.60
689.86	22305.31
690.00	22024.44
690.13	22459.78
690.27	22199.98
690.41	21942.52
690.54	21338.66
690.68	21415.90
690.81	21664.00
690.95	21331.64
691.08	21514.20
691.22	21502.50
691.35	21504.84
691.49	21640.59
691.62	21394.84
691.76	21041.42
691.89	21376.11
692.03	20996.95
692.16	20594.37
692.30	20858.85
692.43	20704.38
692.57	20430.54
692.70	20802.68
692.84	20753.53
692.97	20140.31
693.11	20219.89
693.24	20112.22
693.38	20107.54
693.51	19768.16
693.65	20442.24
693.78	19997.54
693.92	19908.60
694.05	19913.28
694.19	19566.88
694.32	19730.72
694.45	19536.45
694.59	19419.42
694.72	19419.42
694.86	19482.62
694.99	19346.87
695.13	19058.98
695.26	18827.27
695.39	18998.13
695.53	19070.68
695.66	19007.49
695.80	19154.94
695.93	18963.02
696.07	18806.20
696.20	18410.65
696.33	18438.74
696.47	18160.22
696.60	18185.96
696.73	18176.60
696.87	17926.16
697.00	18256.18
697.14	18082.98
697.27	17841.90
697.40	18143.83
697.54	17839.56
697.67	17776.37
697.80	17619.55
697.94	17539.97
698.07	17420.61
698.21	17296.56
698.34	17329.33
698.47	17032.08
698.61	16901.01
698.74	16996.97
698.87	16699.72
699.01	16854.20
699.14	16802.71
699.27	16713.77
699.40	16692.70
699.54	16594.40
699.67	16468.01
699.80	16779.30
699.94	16451.63
700.07	16329.92
700.20	16236.30
700.34	16224.59
700.47	16198.85
700.60	16404.81
700.73	16248.00
700.87	15756.49
701.00	15899.26
701.13	15967.13
701.26	15913.30
701.40	15592.65
701.53	15609.03
701.66	15440.51
701.79	15367.96
701.93	15501.37
702.06	15400.72
702.19	15421.79
702.32	15421.79
702.46	14839.00
702.59	15084.75
702.72	15115.18
702.85	15080.07
702.99	15037.94
703.12	14979.43
703.25	14562.81
703.38	14883.47
703.51	14846.02
703.65	14602.60
703.78	14663.46
703.91	14654.09
704.04	14347.48
704.17	14712.61
704.31	14237.48
704.44	14436.42
704.57	14366.21
704.70	14068.96
704.83	14064.28
704.96	13954.27
705.10	13970.66
705.23	13961.30
>>>>>End Processed Spectral Data<<<<<
