SpectraSuite Data File
++++++++++++++++++++++++++++++++++++
Date: Fri Oct 25 10:44:25 EDT 2013
User: price-jones
Dark Spectrum Present: No
Reference Spectrum Present: No
Number of Sampled Component Spectra: 1
Spectrometers: USB2+H05261
Integration Time (usec): 100000 (USB2+H05261)
Spectra Averaged: 1 (USB2+H05261)
Boxcar Smoothing: 0 (USB2+H05261)
Correct for Electrical Dark: No (USB2+H05261)
Strobe/Lamp Enabled: No (USB2+H05261)
Correct for Detector Non-linearity: No (USB2+H05261)
Correct for Stray Light: No (USB2+H05261)
Number of Pixels in Processed Spectrum: 2048
>>>>>Begin Processed Spectral Data<<<<<
365.73	81.92
365.92	81.92
366.12	81.92
366.32	58.51
366.52	0.00
366.72	0.00
366.91	30.43
367.11	72.56
367.31	23.41
367.51	93.62
367.70	23.41
367.90	35.11
368.10	70.22
368.30	58.51
368.49	51.49
368.69	7.02
368.89	4.68
369.09	30.43
369.28	35.11
369.48	121.71
369.68	86.60
369.87	74.90
370.07	7.02
370.27	98.30
370.47	201.29
370.66	383.85
370.86	461.09
371.06	456.40
371.25	505.56
371.45	484.49
371.65	449.38
371.84	482.15
372.04	451.72
372.24	517.26
372.44	484.49
372.63	531.30
372.83	526.62
373.03	552.37
373.22	540.66
373.42	526.62
373.62	533.64
373.81	519.60
374.01	631.94
374.21	566.41
374.40	533.64
374.60	552.37
374.79	578.11
374.99	526.62
375.19	653.01
375.38	634.29
375.58	547.69
375.78	608.54
375.97	704.50
376.17	671.73
376.37	582.79
376.56	580.45
376.76	629.60
376.95	550.03
377.15	660.03
377.35	606.20
377.54	617.90
377.74	730.25
377.93	681.10
378.13	594.50
378.33	641.31
378.52	648.33
378.72	662.37
378.91	664.71
379.11	643.65
379.31	641.31
379.50	627.26
379.70	662.37
379.89	683.44
380.09	695.14
380.28	720.88
380.48	709.18
380.68	697.48
380.87	596.84
381.07	716.20
381.26	746.63
381.46	706.84
381.65	751.31
381.85	791.10
382.04	716.20
382.24	667.05
382.43	702.16
382.63	760.67
382.83	690.46
383.02	758.33
383.22	800.46
383.41	692.80
383.61	697.48
383.80	781.74
384.00	770.04
384.19	751.31
384.39	844.93
384.58	805.14
384.78	826.21
384.97	788.76
385.17	854.30
385.36	887.06
385.56	851.96
385.75	814.51
385.95	919.83
386.14	884.72
386.34	905.79
386.53	880.04
386.72	912.81
386.92	922.17
387.11	896.43
387.31	847.27
387.50	901.11
387.70	889.40
387.89	873.02
388.09	936.21
388.28	910.47
388.48	917.49
388.67	936.21
388.86	947.92
389.06	1039.20
389.25	983.02
389.45	1013.45
389.64	1018.13
389.84	968.98
390.03	1041.54
390.22	1093.03
390.42	1029.84
390.61	983.02
390.81	961.96
391.00	1048.56
391.19	1069.62
391.39	978.34
391.58	1069.62
391.78	1029.84
391.97	1142.18
392.16	1039.20
392.36	1210.06
392.55	1041.54
392.75	987.71
392.94	1041.54
393.13	947.92
393.33	966.64
393.52	1128.14
393.71	1193.67
393.91	1095.37
394.10	1149.20
394.29	1203.04
394.49	1200.69
394.68	1245.16
394.88	1320.06
395.07	1212.40
395.26	1261.55
395.46	1313.04
395.65	1357.51
395.84	1329.42
396.04	1287.29
396.23	1198.35
396.42	1224.10
396.62	1188.99
396.81	1198.35
397.00	1245.16
397.19	1334.11
397.39	1423.05
397.58	1497.94
397.77	1369.21
397.97	1497.94
398.16	1390.28
398.35	1490.92
398.55	1462.83
398.74	1535.39
398.93	1638.38
399.12	1605.61
399.32	1579.86
399.51	1535.39
399.70	1638.38
399.90	1661.78
400.09	1673.48
400.28	1624.33
400.47	1710.93
400.67	1659.44
400.86	1743.70
401.05	1633.69
401.24	1790.51
401.44	1710.93
401.63	1710.93
401.82	1717.95
402.01	1795.19
402.21	1692.21
402.40	1769.44
402.59	1860.73
402.78	1872.43
402.97	1860.73
403.17	1844.34
403.36	1823.28
403.55	1851.36
403.74	1926.26
403.93	1884.13
404.13	1886.47
404.32	2003.50
404.51	1886.47
404.70	1907.54
404.89	2012.86
405.09	1980.09
405.28	2012.86
405.47	2022.22
405.66	2165.00
405.85	1984.77
406.05	2017.54
406.24	2026.90
406.43	2087.76
406.62	2101.80
406.81	2265.64
407.00	2127.55
407.20	2066.69
407.39	2256.28
407.58	2221.17
407.77	2258.62
407.96	2270.32
408.15	2363.94
408.34	2387.35
408.54	2366.28
408.73	2333.51
408.92	2455.22
409.11	2399.05
409.30	2408.41
409.49	2218.83
409.68	2321.81
409.87	2415.43
410.07	2352.24
410.26	2385.01
410.45	2583.95
410.64	2504.37
410.83	2548.84
411.02	2677.57
411.21	2619.06
411.40	2595.65
411.59	2759.49
411.78	2654.17
411.98	2693.96
412.17	2684.59
412.36	2832.05
412.55	2778.22
412.74	2867.16
412.93	2888.22
413.12	2916.31
413.31	2951.42
413.50	2995.89
413.69	3035.67
413.88	3021.63
414.07	3033.33
414.26	3047.38
414.45	2972.48
414.64	3063.76
414.83	3150.36
415.02	3187.81
415.22	3110.57
415.41	3295.47
415.60	3206.53
415.79	3288.45
415.98	3377.39
416.17	3272.07
416.36	3342.28
416.55	3496.76
416.74	3503.78
416.93	3356.33
417.12	3400.80
417.31	3517.83
417.50	3597.40
417.69	3396.12
417.88	3592.72
418.07	3646.55
418.26	3616.13
418.45	3585.70
418.64	3730.81
418.83	3747.20
419.02	3747.20
419.21	3700.39
419.39	3630.17
419.58	3702.73
419.77	3681.66
419.96	3705.07
420.15	3791.67
420.34	3817.41
420.53	3796.35
420.72	3974.23
420.91	4016.36
421.10	4063.17
421.29	4046.79
421.48	3875.93
421.67	3939.12
421.86	4025.72
422.05	3904.01
422.24	3721.45
422.43	3843.16
422.61	3922.74
422.80	4145.09
422.99	4119.34
423.18	4049.13
423.37	4107.64
423.56	4016.36
423.75	4161.47
423.94	4039.76
424.13	3737.84
424.32	3920.40
424.50	4016.36
424.69	4049.13
424.88	4234.03
425.07	4060.83
425.26	3981.25
425.45	4016.36
425.64	3999.98
425.83	3985.93
426.01	4114.66
426.20	4145.09
426.39	4201.26
426.58	4098.28
426.77	4074.87
426.96	4037.42
427.15	4142.75
427.33	4088.92
427.52	4161.47
427.71	4210.62
427.90	4318.29
428.09	4184.88
428.28	4198.92
428.46	4381.48
428.65	4229.35
428.84	4468.08
429.03	4451.70
429.22	4187.22
429.40	4269.14
429.59	4351.06
429.78	4140.41
429.97	4004.66
430.16	4166.15
430.34	4266.80
430.53	4332.33
430.72	4315.95
430.91	4320.63
431.10	4542.98
431.28	4599.15
431.47	4795.76
431.66	4823.84
431.85	4720.86
432.03	4629.58
432.22	4608.51
432.41	4589.79
432.60	4835.55
432.79	4861.29
432.97	4901.08
433.16	4929.17
433.35	4643.62
433.54	4781.71
433.72	4760.65
433.91	4844.91
434.10	4856.61
434.28	5008.75
434.47	5006.41
434.66	5064.92
434.85	5013.43
435.03	5064.92
435.22	5008.75
435.41	5359.83
435.59	5217.05
435.78	5247.48
435.97	5240.46
436.16	5406.64
436.34	5200.67
436.53	5231.10
436.72	5364.51
436.90	5373.87
437.09	5322.38
437.28	5217.05
437.46	5231.10
437.65	5355.15
437.84	5380.89
438.02	5228.76
438.21	5352.81
438.40	5242.80
438.58	5526.00
438.77	5476.85
438.96	5523.66
439.14	5600.90
439.33	5926.24
439.52	5940.28
439.70	5935.60
439.89	5860.70
440.08	5652.39
440.26	5860.70
440.45	5788.14
440.63	6104.12
440.82	6141.57
441.01	6038.58
441.19	6202.42
441.38	6305.40
441.57	6305.40
441.75	6289.02
441.94	6321.79
442.12	6480.94
442.31	6604.99
442.50	6574.56
442.68	6602.65
442.87	6457.54
443.05	6736.06
443.24	6586.27
443.43	6757.13
443.61	6600.31
443.80	6834.36
443.98	6764.15
444.17	6424.77
444.35	6815.64
444.54	6892.88
444.73	6899.90
444.91	6747.76
445.10	6640.10
445.28	6602.65
445.47	6537.12
445.65	6607.33
445.84	6693.93
446.02	6923.30
446.21	6799.26
446.39	6698.61
446.58	6925.65
446.77	6731.38
446.95	6740.74
447.14	6930.33
447.32	6991.18
447.51	6808.62
447.69	6817.98
447.88	6855.43
448.06	7007.56
448.25	7054.37
448.43	7227.57
448.62	6766.49
448.80	6974.80
448.99	6918.62
449.17	7112.89
449.36	7068.42
449.54	7126.93
449.73	7246.30
449.91	7133.95
450.10	7344.60
450.28	7632.49
450.46	7604.40
450.65	7428.86
450.83	7569.29
451.02	7461.63
451.20	7588.02
451.39	7428.86
451.57	7501.42
451.76	7456.95
451.94	7330.56
452.13	7613.76
452.31	7630.15
452.49	7239.28
452.68	7529.50
452.86	7382.05
453.05	7501.42
453.23	7496.74
453.42	7447.58
453.60	7534.18
453.78	7730.79
453.97	7620.78
454.15	7658.23
454.34	7513.12
454.52	7700.36
454.70	7653.55
454.89	7599.72
455.07	7761.22
455.26	7871.22
455.44	7899.31
455.62	7911.01
455.81	7983.57
455.99	8042.08
456.17	8161.45
456.36	8219.96
456.54	8341.67
456.73	8161.45
456.91	8404.86
457.09	8112.30
457.28	8575.72
457.46	8404.86
457.64	8421.25
457.83	8414.23
458.01	8100.59
458.19	8589.77
458.38	8500.83
458.56	8535.93
458.74	8482.10
458.93	8425.93
459.11	8505.51
459.29	8688.07
459.48	8461.04
459.66	8580.40
459.84	8863.61
460.03	8891.70
460.21	8755.94
460.39	8872.97
460.57	8734.88
460.76	9097.66
460.94	8938.51
461.12	8975.95
461.31	8819.14
461.49	8908.08
461.67	8765.31
461.85	9008.72
462.04	8926.80
462.22	9202.99
462.40	9205.33
462.59	9263.84
462.77	9273.20
462.95	9163.20
463.13	9095.32
463.32	9280.22
463.50	9231.07
463.68	9343.42
463.86	9210.01
464.05	9217.03
464.23	9111.71
464.41	9474.49
464.59	9111.71
464.78	9533.00
464.96	9282.56
465.14	9191.28
465.32	9507.26
465.50	9661.73
465.69	9561.09
465.87	9638.33
466.05	9591.52
466.23	9586.83
466.41	9437.04
466.60	9577.47
466.78	9432.36
466.96	9521.30
467.14	9570.45
467.32	9469.81
467.51	9802.16
467.69	9455.76
467.87	9692.16
468.05	9771.74
468.23	9722.59
468.41	9753.01
468.60	9860.68
468.78	9991.75
468.96	9905.15
469.14	10010.47
469.32	10090.05
469.50	9884.08
469.69	10153.24
469.87	10040.90
470.05	10186.01
470.23	10223.46
470.41	9977.70
470.59	10008.13
470.77	10118.14
470.95	10380.28
471.14	10401.34
471.32	10193.03
471.50	10366.23
471.68	10560.50
471.86	10558.16
472.04	10677.52
472.22	10998.18
472.40	10677.52
472.58	10707.95
472.77	10604.97
472.95	10942.00
473.13	11197.12
473.31	10927.96
473.49	11166.70
473.67	11035.63
473.85	11026.26
474.03	11222.87
474.21	11274.36
474.39	11433.52
474.57	11358.62
474.75	11463.94
474.93	11449.90
475.12	11433.52
475.30	11492.03
475.48	11468.62
475.66	11637.14
475.84	11679.27
476.02	11623.10
476.20	11655.87
476.38	11894.60
476.56	12180.15
476.74	12100.57
476.92	12037.38
477.10	12217.60
477.28	12559.31
477.46	12414.20
477.64	12601.44
477.82	13008.70
478.00	12805.07
478.18	12774.64
478.36	13050.83
478.54	12870.61
478.72	13158.49
478.90	13322.33
479.08	13504.89
479.26	13130.41
479.44	13350.42
479.62	13628.94
479.80	13635.96
479.98	13919.17
480.16	14085.34
480.34	13963.64
480.52	14373.23
480.70	14281.95
480.88	14104.07
481.06	14431.74
481.24	14335.78
481.41	14635.37
481.59	14689.20
481.77	14841.34
481.95	14831.97
482.13	14885.81
482.31	14888.15
482.49	15611.37
482.67	15279.02
482.85	15496.69
483.03	15763.51
483.21	15470.94
483.39	15838.41
483.57	15983.52
483.74	16006.92
483.92	16051.39
484.10	15950.75
484.28	16332.26
484.46	16762.92
484.64	17071.87
484.82	16568.65
485.00	16676.32
485.18	16910.37
485.35	16943.14
485.53	16659.93
485.71	16486.73
485.89	16870.58
486.07	16961.86
486.25	17303.58
486.43	17322.30
486.61	17635.94
486.78	17549.34
486.96	17926.16
487.14	18005.74
487.32	18045.53
487.50	18408.31
487.68	18532.36
487.85	18890.46
488.03	18988.77
488.21	19110.47
488.39	19042.60
488.57	19283.67
488.75	19426.45
488.92	19559.86
489.10	19896.89
489.28	19915.62
489.46	20135.63
489.64	20203.50
489.81	20575.65
489.99	20573.31
490.17	20905.66
490.35	21032.05
490.53	20966.52
490.70	21071.84
490.88	21078.86
491.06	21441.65
491.24	21109.29
491.41	21551.65
491.59	21495.48
491.77	21116.31
491.95	21661.66
492.13	21720.17
492.30	22085.30
492.48	22539.36
492.66	22122.74
492.84	22373.18
493.01	22207.00
493.19	22567.45
493.37	22590.85
493.54	22995.76
493.72	22951.29
493.90	23388.97
494.08	23653.45
494.25	23604.30
494.43	23922.62
494.61	24067.73
494.79	24114.54
494.96	23726.01
495.14	24006.87
495.32	24386.04
495.49	24687.97
495.67	24226.89
495.85	24767.55
496.02	24966.49
496.20	25036.71
496.38	25043.73
496.55	25357.36
496.73	25481.41
496.91	25383.11
497.09	25792.70
497.26	25909.73
497.44	25757.60
497.62	25893.35
497.79	26235.06
497.97	25645.25
498.14	26260.81
498.32	26419.97
498.50	26565.08
498.67	27119.79
498.85	27047.23
499.03	27108.08
499.20	27190.00
499.38	26993.40
499.56	27192.34
499.73	27302.35
499.91	27124.47
500.08	27410.01
500.26	26874.03
500.44	27295.33
500.61	27229.79
500.79	27405.33
500.97	27604.28
501.14	28112.17
501.32	27817.27
501.49	27843.01
501.67	28041.96
501.84	28067.70
502.02	28240.90
502.20	28180.05
502.37	28510.07
502.55	28486.66
502.72	28538.15
502.90	28966.47
503.07	28542.83
503.25	28748.80
503.43	28687.95
503.60	28868.17
503.78	29130.31
503.95	29198.18
504.13	29291.80
504.30	29394.79
504.48	29481.39
504.65	29743.53
504.83	29912.05
505.01	29778.64
505.18	29783.32
505.36	30199.93
505.53	30022.05
505.71	30148.44
505.88	30710.17
506.06	30143.76
506.23	30169.51
506.41	30260.79
506.58	30817.83
506.76	30167.16
506.93	30958.27
507.11	30616.55
507.28	30862.30
507.46	30555.69
507.63	30761.66
507.81	30941.88
507.98	30878.69
508.16	31058.91
508.33	31435.74
508.50	31274.24
508.68	31527.02
508.85	31613.62
509.03	32079.38
509.20	31667.45
509.38	31819.58
509.55	32215.13
509.73	31913.20
509.90	32079.38
510.08	32203.43
510.25	32154.28
510.42	32339.18
510.60	32554.51
510.77	32753.46
510.95	32685.58
511.12	32275.99
511.30	32854.10
511.47	33282.42
511.64	32774.52
511.82	33357.32
511.99	32870.48
512.17	33221.56
512.34	33233.27
512.51	33582.01
512.69	33736.48
512.86	33296.46
513.04	33923.72
513.21	33619.46
513.38	33420.51
513.56	33605.41
513.73	33600.73
513.90	34043.09
514.08	33811.38
514.25	33699.03
514.43	34230.33
514.60	34314.59
514.77	34045.43
514.95	34281.83
515.12	34630.57
515.29	34394.17
515.47	34969.94
515.64	34618.86
515.81	34703.12
515.99	34148.42
516.16	34689.08
516.33	33907.34
516.51	34235.02
516.68	33628.82
516.85	34038.41
517.03	34415.24
517.20	34216.29
517.37	35009.73
517.54	35218.04
517.72	35175.91
517.89	34658.65
518.06	34883.34
518.24	34480.77
518.41	34934.84
518.58	35328.05
518.75	34979.31
518.93	35765.73
519.10	35597.21
519.27	35833.60
519.45	35679.13
519.62	36163.62
519.79	35976.37
519.96	36224.47
520.14	36535.76
520.31	35971.69
520.48	36517.04
520.65	36442.14
520.83	36701.94
521.00	36903.23
521.17	36378.95
521.34	36641.09
521.52	37031.96
521.69	37165.37
521.86	37699.01
522.03	37184.09
522.20	36830.67
522.38	37130.26
522.55	37495.38
522.72	37013.23
522.89	37233.24
523.07	37343.25
523.24	37537.51
523.41	37572.62
523.58	37720.07
523.75	38141.37
523.92	38171.80
524.10	38124.99
524.27	38052.43
524.44	38117.96
524.61	38029.02
524.78	38408.19
524.96	38319.25
525.13	38604.80
525.30	38586.07
525.47	38988.64
525.64	38279.46
525.81	38382.45
525.98	38265.42
526.16	38387.13
526.33	38005.62
526.50	38384.79
526.67	37787.95
526.84	38192.86
527.01	37972.85
527.18	38581.39
527.36	39108.01
527.53	39171.21
527.70	39182.91
527.87	39501.22
528.04	39194.61
528.21	39578.46
528.38	39222.70
528.55	39969.33
528.72	39758.68
528.89	39964.65
529.07	39828.90
529.24	39608.89
529.41	39835.92
529.58	39854.64
529.75	39707.19
529.92	39934.22
530.09	39875.71
530.26	39894.43
530.43	40222.11
530.60	39842.94
530.77	39938.90
530.94	40194.02
531.11	40470.20
531.28	40102.74
531.46	40540.42
531.63	40474.88
531.80	40528.72
531.97	40535.74
532.14	40570.85
532.31	40030.18
532.48	39995.07
532.65	40432.75
532.82	40538.08
532.99	40360.20
533.16	40835.33
533.33	40786.18
533.50	41001.50
533.67	41081.08
533.84	40629.36
534.01	41130.23
534.18	41034.27
534.35	41333.86
534.52	40957.03
534.69	41333.86
534.86	41537.49
535.03	41097.47
535.20	41769.20
535.37	42026.66
535.54	42082.83
535.71	41778.56
535.88	41865.16
536.05	41521.10
536.22	42005.59
536.38	41792.61
536.55	41507.06
536.72	41535.15
536.89	41392.37
537.06	41474.29
537.23	41764.52
537.40	41867.50
537.57	42171.77
537.74	42574.34
537.91	41930.70
538.08	41698.98
538.25	42129.64
538.42	41764.52
538.59	42433.91
538.75	41553.87
538.92	42738.18
539.09	42141.35
539.26	42405.83
539.43	42471.36
539.60	41680.26
539.77	42295.82
539.94	42225.60
540.11	42164.75
540.28	41979.85
540.44	42302.84
540.61	42218.58
540.78	42302.84
540.95	41963.46
541.12	42213.90
541.29	42602.43
541.46	42756.91
541.62	43054.15
541.79	42925.42
541.96	42316.89
542.13	42834.14
542.30	42707.76
542.47	43026.07
542.63	42937.13
542.80	42887.98
542.97	43592.48
543.14	43756.32
543.31	43480.13
543.48	43650.99
543.64	44442.09
543.81	43627.59
543.98	43707.16
544.15	43868.66
544.32	43452.05
544.48	44081.65
544.65	43351.40
544.82	43737.59
544.99	43782.06
545.16	43732.91
545.32	43924.83
545.49	44406.98
545.66	44491.24
545.83	44088.67
546.00	44268.89
546.16	44378.90
546.33	44311.02
546.50	43526.94
546.67	43938.88
546.83	43569.07
547.00	43976.33
547.17	44100.37
547.34	44093.35
547.50	44278.25
547.67	44531.03
547.84	44236.12
548.00	44353.15
548.17	44790.83
548.34	44509.97
548.51	44638.70
548.67	44591.89
548.84	44718.28
549.01	44940.63
549.18	44507.63
549.34	44488.90
549.51	44514.65
549.68	44868.07
549.84	45305.75
550.01	44767.43
550.18	44797.85
550.34	44587.21
550.51	44821.26
550.68	45052.97
550.84	44505.29
551.01	45345.54
551.18	45078.72
551.34	44847.00
551.51	45074.04
551.68	45385.33
551.84	45193.40
552.01	45027.23
552.18	45125.53
552.34	45048.29
552.51	45172.34
552.68	45013.18
552.84	45357.24
553.01	45708.32
553.18	45280.00
553.34	45085.74
553.51	45497.67
553.67	45397.03
553.84	45490.65
554.01	45865.14
554.17	45750.45
554.34	45811.31
554.51	45670.87
554.67	45888.54
554.84	45624.06
555.00	45301.07
555.17	45790.24
555.33	45048.29
555.50	45705.98
555.67	45652.15
555.83	45708.32
556.00	45696.62
556.16	45996.21
556.33	45525.76
556.50	45186.38
556.66	45717.68
556.83	45624.06
556.99	45881.52
557.16	45979.82
557.32	46014.93
557.49	46064.08
557.65	46043.02
557.82	46071.10
557.98	45907.27
558.15	45986.85
558.32	45942.38
558.48	45846.41
558.65	45916.63
558.81	45975.14
558.98	45808.96
559.14	46110.89
559.31	46066.42
559.47	46316.86
559.64	46333.24
559.80	46347.29
559.97	45886.20
560.13	45989.19
560.30	46134.30
560.46	46483.04
560.63	46351.97
560.79	46227.92
560.96	46478.36
561.12	46424.53
561.29	46195.15
561.45	46333.24
561.61	46354.31
561.78	46204.52
561.94	46017.27
562.11	46356.65
562.27	46160.05
562.44	46302.82
562.60	46583.68
562.77	46167.07
562.93	46492.40
563.10	46761.56
563.26	45951.74
563.42	46494.74
563.59	46511.13
563.75	46534.53
563.92	46511.13
564.08	46532.19
564.24	46686.67
564.41	46656.24
564.57	46415.16
564.74	46358.99
564.90	46436.23
565.07	46642.20
565.23	46492.40
565.39	46597.73
565.56	46494.74
565.72	46307.50
565.88	46653.90
566.05	46525.17
566.21	46398.78
566.38	46258.35
566.54	46438.57
566.70	46848.16
566.87	46429.21
567.03	47110.30
567.19	47098.60
567.36	46628.15
567.52	46721.77
567.68	46728.80
567.85	46562.62
568.01	46504.10
568.17	46588.36
568.34	46703.05
568.50	46586.02
568.66	46611.77
568.83	46492.40
568.99	46447.93
569.15	46625.81
569.32	46281.75
569.48	46204.52
569.64	46796.67
569.81	46799.01
569.97	46693.69
570.13	46590.70
570.30	46550.91
570.46	46323.88
570.62	46607.09
570.78	46351.97
570.95	46316.86
571.11	46466.66
571.27	46506.44
571.43	46546.23
571.60	46590.70
571.76	46696.03
571.92	46817.74
572.09	47035.41
572.25	46822.42
572.41	46799.01
572.57	47232.01
572.74	47065.83
572.90	46791.99
573.06	46586.02
573.22	46635.17
573.38	46731.14
573.55	46693.69
573.71	47276.48
573.87	47072.85
574.03	46813.05
574.20	46415.16
574.36	46459.63
574.52	46768.58
574.68	46925.40
574.84	46918.38
575.01	47215.63
575.17	46494.74
575.33	46429.21
575.49	46433.89
575.65	46810.71
575.82	47372.44
575.98	46967.53
576.14	47217.97
576.30	46761.56
576.46	46546.23
576.62	46506.44
576.79	46571.98
576.95	46681.98
577.11	46660.92
577.27	46951.15
577.43	46803.69
577.59	46909.02
577.75	46721.77
577.92	46876.25
578.08	46522.83
578.24	46635.17
578.40	46391.76
578.56	46878.59
578.72	46689.01
578.88	47206.26
579.04	46927.74
579.21	47100.94
579.37	46946.47
579.53	46817.74
579.69	46691.35
579.85	46806.03
580.01	46696.03
580.17	47171.16
580.33	47079.88
580.49	47004.98
580.65	46742.84
580.82	47236.69
580.98	46834.12
581.14	46911.36
581.30	47192.22
581.46	47035.41
581.62	47173.50
581.78	47107.96
581.94	47004.98
582.10	46885.61
582.26	47072.85
582.42	47173.50
582.58	46972.21
582.74	47016.68
582.90	47271.80
583.06	47194.56
583.22	47044.77
583.38	47107.96
583.54	47381.80
583.70	47224.99
583.86	46822.42
584.02	46717.09
584.18	46822.42
584.34	46993.28
584.50	46909.02
584.66	46859.87
584.82	46728.80
584.98	46990.94
585.14	46976.89
585.30	46829.44
585.46	47203.92
585.62	46583.68
585.78	46401.12
585.94	46490.06
586.10	46887.95
586.26	46806.03
586.42	46990.94
586.58	47023.70
586.74	46967.53
586.90	46927.74
587.06	46831.78
587.22	46735.82
587.38	46590.70
587.54	46988.60
587.70	47217.97
587.86	46780.29
588.02	47044.77
588.18	47229.67
588.34	46848.16
588.49	46218.56
588.65	46529.85
588.81	46246.65
588.97	46321.54
589.13	45904.93
589.29	46550.91
589.45	46508.79
589.61	46705.39
589.77	46724.11
589.93	46831.78
590.08	46981.57
590.24	46754.54
590.40	47276.48
590.56	47777.36
590.72	46932.42
590.88	47337.33
591.04	47288.18
591.20	47224.99
591.35	47014.34
591.51	47309.25
591.67	47342.02
591.83	47063.49
591.99	46916.04
592.15	47276.48
592.31	46850.50
592.46	47028.38
592.62	47414.57
592.78	46972.21
592.94	47119.66
593.10	46974.55
593.26	46876.25
593.41	47131.37
593.57	46836.46
593.73	47381.80
593.89	47405.21
594.05	47217.97
594.20	47049.45
594.36	47360.74
594.52	47178.18
594.68	46630.49
594.84	47037.75
594.99	47449.68
595.15	46527.51
595.31	47288.18
595.47	47271.80
595.62	46932.42
595.78	47182.86
595.94	47084.56
596.10	46988.60
596.25	47683.73
596.41	47508.19
596.57	47426.28
596.73	46878.59
596.88	46450.27
597.04	47229.67
597.20	46768.58
597.36	47019.02
597.51	47597.13
597.67	47166.48
597.83	47503.51
597.99	47239.03
598.14	47405.21
598.30	46937.10
598.46	46876.25
598.61	46803.69
598.77	46869.23
598.93	47290.52
599.09	47290.52
599.24	47466.06
599.40	47264.78
599.56	46822.42
599.71	47180.52
599.87	47267.12
600.03	46939.44
600.18	46717.09
600.34	47182.86
600.50	46923.06
600.65	46586.02
600.81	47538.62
600.97	47484.79
601.12	47342.02
601.28	47152.43
601.44	47035.41
601.59	47040.09
601.75	46700.71
601.91	47096.26
602.06	46490.06
602.22	46679.64
602.37	47004.98
602.53	47023.70
602.69	47320.95
602.84	47002.64
603.00	46920.72
603.16	47257.76
603.31	46529.85
603.47	47199.24
603.62	46813.05
603.78	47164.14
603.94	46899.65
604.09	47402.87
604.25	47079.88
604.40	47267.12
604.56	47604.16
604.71	47217.97
604.87	46866.89
605.03	46564.96
605.18	46686.67
605.34	46979.23
605.49	46506.44
605.65	47461.38
605.80	46953.49
605.96	47388.83
606.12	46948.81
606.27	47187.54
606.43	46827.10
606.58	46932.42
606.74	46990.94
606.89	46897.31
607.05	47016.68
607.20	46965.19
607.36	46932.42
607.51	46958.17
607.67	46705.39
607.82	46733.48
607.98	47082.22
608.13	46679.64
608.29	46429.21
608.44	46106.21
608.60	46541.55
608.75	46454.95
608.91	46644.54
609.06	46291.12
609.22	46564.96
609.37	46358.99
609.53	47126.69
609.68	46618.79
609.84	46593.04
609.99	46555.60
610.15	46656.24
610.30	46494.74
610.46	46073.45
610.61	46216.22
610.76	46382.40
610.92	46174.09
611.07	46155.36
611.23	46260.69
611.38	46698.37
611.54	46071.10
611.69	46227.92
611.84	45928.33
612.00	46347.29
612.15	46375.37
612.31	46211.54
612.46	46061.74
612.62	46078.13
612.77	46501.76
612.92	46298.14
613.08	46223.24
613.23	46188.13
613.39	46440.91
613.54	45792.58
613.69	46085.15
613.85	46106.21
614.00	45787.90
614.15	46476.02
614.31	45879.18
614.46	46597.73
614.62	45806.62
614.77	45734.07
614.92	45837.05
615.08	45727.05
615.23	45605.34
615.38	45745.77
615.54	45441.50
615.69	45806.62
615.84	46103.87
616.00	45684.92
616.15	45294.05
616.30	45460.23
616.46	45139.57
616.61	45153.62
616.76	45759.81
616.92	45319.79
617.07	45565.55
617.22	45125.53
617.37	45382.99
617.53	45219.15
617.68	45308.09
617.83	45666.19
617.99	45434.48
618.14	45579.59
618.29	45322.13
618.45	45240.21
618.60	45095.10
618.75	44896.16
618.90	45588.95
619.06	45422.78
619.21	45137.23
619.36	45783.22
619.51	45151.27
619.67	45249.58
619.82	45251.92
619.97	45422.78
620.12	45027.23
620.28	44755.72
620.43	44898.50
620.58	44940.63
620.73	44762.75
620.89	44678.49
621.04	44807.22
621.19	44762.75
621.34	45223.83
621.49	45095.10
621.65	44669.12
621.80	44739.34
621.95	44666.78
622.10	44622.31
622.25	44247.83
622.41	44320.38
622.56	44320.38
622.71	45226.17
622.86	44423.37
623.01	44629.34
623.16	45141.91
623.32	44409.32
623.47	44233.78
623.62	44474.86
623.77	44126.12
623.92	44364.85
624.07	44472.52
624.23	44299.32
624.38	44009.09
624.53	44299.32
624.68	44304.00
624.83	43948.24
624.98	43903.77
625.13	44275.91
625.29	44212.72
625.44	43966.96
625.59	44222.08
625.74	43196.93
625.89	43496.52
626.04	43548.01
626.19	43976.33
626.34	43856.96
626.49	44142.50
626.65	43714.19
626.80	43976.33
626.95	43763.34
627.10	43730.57
627.25	43210.97
627.40	43344.38
627.55	43353.74
627.70	43187.56
627.85	42628.18
628.00	43318.64
628.15	43702.48
628.30	43311.61
628.45	43526.94
628.60	43316.29
628.76	43606.52
628.91	43704.82
629.06	43512.90
629.21	43335.02
629.36	43051.81
629.51	43250.76
629.66	42969.90
629.81	42902.02
629.96	43370.13
630.11	43009.68
630.26	43105.65
630.41	43430.98
630.56	43304.59
630.71	43079.90
630.86	42897.34
631.01	42899.68
631.16	43012.02
631.31	42899.68
631.46	42731.16
631.61	42995.64
631.76	42990.96
631.91	42738.18
632.06	42766.27
632.21	42969.90
632.36	42965.21
632.51	42417.53
632.66	43019.05
632.81	42373.06
632.96	42450.30
633.10	42405.83
633.25	42490.09
633.40	42293.48
633.55	42944.15
633.70	42447.96
633.85	42237.31
634.00	42457.32
634.15	42146.03
634.30	42298.16
634.45	42366.04
634.60	42422.21
634.75	41790.27
634.90	42120.28
635.05	42349.65
635.19	42167.09
635.34	42277.10
635.49	42047.72
635.64	42244.33
635.79	42045.38
635.94	41530.47
636.09	42061.77
636.24	41890.91
636.39	42541.58
636.53	41965.81
636.68	42258.37
636.83	42040.70
636.98	41703.67
637.13	41720.05
637.28	42057.09
637.43	41858.14
637.57	41977.51
637.72	41717.71
637.87	41755.16
638.02	41757.50
638.17	41860.48
638.32	41731.75
638.46	41467.27
638.61	41357.27
638.76	41581.96
638.91	41743.45
639.06	41411.10
639.20	41148.96
639.35	41532.81
639.50	41371.31
639.65	41832.39
639.80	41500.04
639.94	41701.32
640.09	41291.73
640.24	40907.88
640.39	40673.83
640.54	40610.64
640.68	40966.40
640.83	41244.92
640.98	40865.75
641.13	40978.10
641.27	41453.23
641.42	40999.16
641.57	41139.60
641.72	40868.09
641.86	40488.93
642.01	40891.50
642.16	40629.36
642.31	40535.74
642.45	41090.44
642.60	40889.16
642.75	40807.24
642.90	40720.64
643.04	40840.01
643.19	40919.59
643.34	40236.15
643.48	39875.71
643.63	40699.58
643.78	40577.87
643.93	40142.53
644.07	40751.07
644.22	40355.52
644.37	40250.19
644.51	40074.65
644.66	40662.13
644.81	40872.78
644.95	40748.73
645.10	40580.21
645.25	40343.81
645.39	40355.52
645.54	40928.95
645.69	40254.87
645.83	40219.77
645.98	40236.15
646.13	40488.93
646.27	39906.13
646.42	40149.55
646.57	40095.72
646.71	39842.94
646.86	40067.63
647.00	40353.18
647.15	40177.64
647.30	39962.31
647.44	39889.75
647.59	40205.72
647.74	39566.76
647.88	39803.15
648.03	40098.06
648.17	40009.12
648.32	39800.81
648.47	40208.06
648.61	39150.14
648.76	40006.78
648.90	39660.38
649.05	39442.71
649.20	39955.29
649.34	39606.55
649.49	39512.92
649.63	39407.60
649.78	39442.71
649.92	39566.76
650.07	39697.83
650.21	39531.65
650.36	39543.35
650.51	39044.82
650.65	40046.57
650.80	39824.22
650.94	39880.39
651.09	39908.47
651.23	39402.92
651.38	39271.85
651.52	39082.27
651.67	39269.51
651.81	38918.43
651.96	39023.75
652.10	38955.88
652.25	38724.16
652.39	39402.92
652.54	38990.98
652.68	39002.69
652.83	38979.28
652.97	39023.75
653.12	38895.02
653.26	38967.58
653.41	39035.45
653.55	38452.66
653.70	38965.24
653.84	38820.13
653.99	38618.84
654.13	38345.00
654.27	38766.29
654.42	38471.39
654.56	38160.09
654.71	38565.01
654.85	38637.56
655.00	38965.24
655.14	38412.87
655.29	38361.38
655.43	38082.86
655.57	38005.62
655.72	38251.38
655.86	37237.92
656.01	37720.07
656.15	37874.55
656.30	37809.01
656.44	37797.31
656.58	37682.62
656.73	37940.08
656.87	38146.05
657.01	37965.83
657.16	37954.13
657.30	38328.61
657.45	37996.26
657.59	37691.99
657.73	37883.91
657.88	37996.26
658.02	38445.64
658.16	37846.46
658.31	37930.72
658.45	37706.03
658.60	37865.19
658.74	37755.18
658.88	37319.84
659.03	37170.05
659.17	37551.56
659.31	37273.03
659.46	37628.79
659.60	37464.96
659.74	37593.68
659.89	37139.62
660.03	37551.56
660.17	37493.04
660.32	37359.63
660.46	37757.52
660.60	37137.28
660.74	37361.97
660.89	37399.42
661.03	36652.79
661.17	37132.60
661.32	36376.61
661.46	36935.99
661.60	36999.19
661.74	36945.36
661.89	36627.04
662.03	36926.63
662.17	36524.06
662.31	36196.38
662.46	36811.95
662.60	36987.49
662.74	36568.53
662.88	36252.56
663.03	36498.31
663.17	36243.20
663.31	36158.94
663.45	36339.16
663.60	36371.92
663.74	36517.04
663.88	36383.63
664.02	35826.58
664.17	35917.86
664.31	35838.28
664.45	35864.03
664.59	35901.48
664.73	35606.57
664.88	35529.33
665.02	35393.58
665.16	35613.59
665.30	35641.68
665.44	35534.01
665.59	35351.45
665.73	35222.72
665.87	35398.26
666.01	35669.76
666.15	34693.76
666.29	34906.75
666.44	35318.68
666.58	35054.20
666.72	35030.80
666.86	35187.61
667.00	34653.97
667.14	34845.90
667.28	34794.40
667.43	34705.46
667.57	35096.33
667.71	34728.87
667.85	34410.56
667.99	34878.66
668.13	34340.34
668.27	34354.38
668.41	34738.23
668.56	34574.39
668.70	35112.72
668.84	34253.74
668.98	33893.30
669.12	33790.31
669.26	33474.34
669.40	33553.92
669.54	33654.56
669.68	33895.64
669.82	34183.52
669.96	33757.55
670.10	33598.39
670.25	33851.17
670.39	33406.47
670.53	33511.79
670.67	33631.16
670.81	33574.98
670.95	33591.37
671.09	33277.74
671.23	33376.04
671.37	33312.84
671.51	33088.15
671.65	32863.46
671.79	32720.69
671.93	32669.20
672.07	33282.42
672.21	33097.52
672.35	33029.64
672.49	32940.70
672.63	32811.97
672.77	32631.75
672.91	32776.86
673.05	32446.85
673.19	32369.61
673.33	32381.31
673.47	31735.32
673.61	31892.14
673.75	31988.10
673.89	32334.50
674.03	32393.01
674.17	32025.55
674.31	31859.37
674.45	32350.88
674.59	31990.44
674.73	31917.89
674.87	31477.86
675.01	31648.72
675.15	31704.90
675.29	31339.77
675.43	31740.00
675.56	31342.11
675.70	31318.71
675.84	31061.25
675.98	30354.41
676.12	30864.64
676.26	31241.47
676.40	30525.27
676.54	30859.96
676.68	30654.00
676.82	30457.39
676.96	30567.40
677.10	30368.45
677.23	30190.57
677.37	29905.02
677.51	30066.52
677.65	30057.16
677.79	29998.65
677.93	29975.24
678.07	29577.35
678.21	29184.14
678.34	29062.43
678.48	29289.46
678.62	29181.80
678.76	28959.45
678.90	28926.68
679.04	28933.70
679.18	28814.34
679.31	28737.10
679.45	28308.78
679.59	28093.45
679.73	28018.55
679.87	28568.58
680.00	28137.92
680.14	28283.03
680.28	28290.06
680.42	28034.94
680.56	28004.51
680.70	28051.32
680.83	28247.93
680.97	27892.16
681.11	28173.03
681.25	27548.11
681.39	28023.23
681.52	27791.52
681.66	27475.55
681.80	27660.45
681.94	26969.99
682.07	27192.34
682.21	27206.39
682.35	26899.78
682.49	26764.03
682.62	26946.59
682.76	26771.05
682.90	26759.34
683.04	26305.28
683.17	26349.75
683.31	26335.71
683.45	26345.07
683.59	26218.68
683.72	26080.59
683.86	26260.81
684.00	25736.53
684.13	25888.67
684.27	25813.77
684.41	25364.39
684.55	25570.35
684.68	25589.08
684.82	25319.92
684.96	25827.81
685.09	25542.27
685.23	25216.93
685.37	25071.82
685.50	25212.25
685.64	24947.77
685.78	24744.14
685.91	24772.23
686.05	24753.51
686.19	24320.51
686.32	24400.08
686.46	24013.90
686.60	23742.39
686.73	23754.10
686.87	23534.09
687.01	23810.27
687.14	23283.65
687.28	23171.30
687.42	23412.38
687.55	23222.80
687.69	23447.49
687.82	23410.04
687.96	23604.30
688.10	23360.89
688.23	23192.37
688.37	22995.76
688.50	22625.96
688.64	22607.23
688.78	22799.16
688.91	22726.60
689.05	22927.89
689.18	22738.30
689.32	22579.15
689.46	22307.65
689.59	22305.31
689.73	22782.77
689.86	22239.77
690.00	22192.96
690.13	22153.17
690.27	22272.54
690.41	21912.10
690.54	21727.19
690.68	21532.93
690.81	21610.17
690.95	21502.50
691.08	21401.86
691.22	21359.73
691.35	21441.65
691.49	21596.12
691.62	21521.23
691.76	21277.81
691.89	20985.24
692.03	21001.63
692.16	21184.19
692.30	21050.78
692.43	20453.94
692.57	20472.67
692.70	20547.56
692.84	20444.58
692.97	20191.80
693.11	20065.41
693.24	20070.09
693.38	20042.01
693.51	20013.92
693.65	20081.80
693.78	19997.54
693.92	19967.11
694.05	20013.92
694.19	19740.08
694.32	19679.22
694.45	19545.81
694.59	19126.86
694.72	19389.00
694.86	19068.34
694.99	19040.26
695.13	19073.03
695.26	18965.36
695.39	19058.98
695.53	19225.16
695.66	19117.50
695.80	18932.59
695.93	18609.60
696.07	18352.14
696.20	18621.30
696.33	18452.78
696.47	18466.83
696.60	18534.70
696.73	18202.35
696.87	18033.83
697.00	18176.60
697.14	18218.73
697.27	17745.94
697.40	17905.10
697.54	17593.81
697.67	17582.10
697.80	17713.17
697.94	17635.94
698.07	17525.93
698.21	17352.73
698.34	17542.32
698.47	17067.19
698.61	16791.00
698.74	17324.65
698.87	16863.56
699.01	16578.01
699.14	16306.51
699.27	16535.88
699.40	16601.42
699.54	16496.10
699.67	16489.07
699.80	16332.26
699.94	16329.92
700.07	16334.60
700.20	16161.40
700.34	16084.16
700.47	16102.89
700.60	16343.96
700.73	16582.70
700.87	16018.63
701.00	15899.26
701.13	16006.92
701.26	15833.72
701.40	15726.06
701.53	15449.88
701.66	15529.45
701.79	15367.96
701.93	15520.09
702.06	15229.87
702.19	15304.76
702.32	15035.60
702.46	14850.70
702.59	15143.27
702.72	15077.73
702.85	14958.36
702.99	14803.89
703.12	14757.08
703.25	14541.75
703.38	14628.35
703.51	14630.69
703.65	14527.71
703.78	14530.05
703.91	14611.96
704.04	14567.49
704.17	14417.70
704.31	14045.55
704.44	13909.80
704.57	14162.58
704.70	13905.12
704.83	14061.94
704.96	13989.38
705.10	13989.38
705.23	14036.19
>>>>>End Processed Spectral Data<<<<<
