SpectraSuite Data File
++++++++++++++++++++++++++++++++++++
Date: Fri Oct 25 10:46:54 EDT 2013
User: price-jones
Dark Spectrum Present: No
Reference Spectrum Present: No
Number of Sampled Component Spectra: 1
Spectrometers: USB2+H05261
Integration Time (usec): 100000 (USB2+H05261)
Spectra Averaged: 1 (USB2+H05261)
Boxcar Smoothing: 0 (USB2+H05261)
Correct for Electrical Dark: No (USB2+H05261)
Strobe/Lamp Enabled: No (USB2+H05261)
Correct for Detector Non-linearity: No (USB2+H05261)
Correct for Stray Light: No (USB2+H05261)
Number of Pixels in Processed Spectrum: 2048
>>>>>Begin Processed Spectral Data<<<<<
365.73	44.47
365.92	44.47
366.12	44.47
366.32	21.06
366.52	0.00
366.72	56.17
366.91	4.68
367.11	28.09
367.31	0.00
367.51	39.79
367.70	16.38
367.90	28.09
368.10	18.72
368.30	18.72
368.49	65.54
368.69	51.49
368.89	49.15
369.09	14.04
369.28	44.47
369.48	51.49
369.68	53.83
369.87	124.05
370.07	147.45
370.27	110.01
370.47	229.37
370.66	365.12
370.86	433.00
371.06	440.02
371.25	547.69
371.45	383.85
371.65	482.15
371.84	454.06
372.04	461.09
372.24	486.83
372.44	463.43
372.63	510.24
372.83	484.49
373.03	479.81
373.22	540.66
373.42	526.62
373.62	479.81
373.81	526.62
374.01	580.45
374.21	514.92
374.40	482.15
374.60	674.07
374.79	566.41
374.99	510.24
375.19	557.05
375.38	690.46
375.58	650.67
375.78	629.60
375.97	559.39
376.17	662.37
376.37	500.87
376.56	688.12
376.76	585.13
376.95	615.56
377.15	601.52
377.35	587.47
377.54	709.18
377.74	634.29
377.93	676.41
378.13	578.11
378.33	727.91
378.52	655.35
378.72	615.56
378.91	667.05
379.11	653.01
379.31	751.31
379.50	557.05
379.70	692.80
379.89	741.95
380.09	765.36
380.28	624.92
380.48	720.88
380.68	716.20
380.87	720.88
381.07	681.10
381.26	760.67
381.46	650.67
381.65	662.37
381.85	744.29
382.04	788.76
382.24	662.37
382.43	702.16
382.63	723.23
382.83	709.18
383.02	737.27
383.22	767.70
383.41	798.12
383.61	753.65
383.80	858.98
384.00	741.95
384.19	781.74
384.39	716.20
384.58	718.54
384.78	774.72
384.97	814.51
385.17	861.32
385.36	767.70
385.56	788.76
385.75	828.55
385.95	758.33
386.14	891.74
386.34	863.66
386.53	873.02
386.72	774.72
386.92	875.36
387.11	868.34
387.31	814.51
387.50	805.14
387.70	821.53
387.89	896.43
388.09	887.06
388.28	891.74
388.48	875.36
388.67	915.15
388.86	884.72
389.06	929.19
389.25	1027.50
389.45	1018.13
389.64	957.28
389.84	1057.92
390.03	1013.45
390.22	1013.45
390.42	1144.52
390.61	961.96
390.81	994.73
391.00	1071.97
391.19	1001.75
391.39	1081.33
391.58	1041.54
391.78	1057.92
391.97	1050.90
392.16	1027.50
392.36	1022.81
392.55	992.39
392.75	1020.47
392.94	1041.54
393.13	985.37
393.33	936.21
393.52	1086.01
393.71	1179.63
393.91	1062.60
394.10	1067.28
394.29	1163.25
394.49	1128.14
394.68	1240.48
394.88	1247.51
395.07	1186.65
395.26	1228.78
395.46	1193.67
395.65	1207.72
395.84	1221.76
396.04	1299.00
396.23	1263.89
396.42	1160.91
396.62	1287.29
396.81	1212.40
397.00	1203.04
397.19	1275.59
397.39	1329.42
397.58	1432.41
397.77	1308.36
397.97	1373.89
398.16	1397.30
398.35	1430.07
398.55	1420.71
398.74	1479.22
398.93	1547.09
399.12	1507.30
399.32	1383.26
399.51	1490.92
399.70	1483.90
399.90	1528.37
400.09	1650.08
400.28	1589.22
400.47	1593.90
400.67	1654.76
400.86	1673.48
401.05	1685.19
401.24	1617.31
401.44	1689.87
401.63	1680.50
401.82	1795.19
402.01	1675.82
402.21	1699.23
402.40	1788.17
402.59	1748.38
402.78	1715.61
402.97	1720.29
403.17	1797.53
403.36	1806.89
403.55	1785.83
403.74	1874.77
403.93	1755.40
404.13	1804.55
404.32	1886.47
404.51	1877.11
404.70	1944.99
404.89	1916.90
405.09	1900.52
405.28	1877.11
405.47	1837.32
405.66	1895.83
405.85	2003.50
406.05	1865.41
406.24	2001.16
406.43	1973.07
406.62	2015.20
406.81	2059.67
407.00	2008.18
407.20	2029.24
407.39	2071.37
407.58	2010.52
407.77	2106.48
407.96	2165.00
408.15	2195.42
408.34	2143.93
408.54	2237.55
408.73	2307.77
408.92	2225.85
409.11	2310.11
409.30	2272.66
409.49	2150.95
409.68	2251.60
409.87	2188.40
410.07	2331.17
410.26	2331.17
410.45	2415.43
410.64	2345.22
410.83	2448.20
411.02	2342.88
411.21	2588.63
411.40	2574.59
411.59	2525.44
411.78	2562.89
411.98	2590.97
412.17	2495.01
412.36	2642.46
412.55	2640.12
412.74	2782.90
412.93	2715.02
413.12	2637.78
413.31	2726.72
413.50	2787.58
413.69	2857.79
413.88	2928.01
414.07	2825.03
414.26	2946.73
414.45	2785.24
414.64	2944.39
414.83	2878.86
415.02	2958.44
415.22	3009.93
415.41	3208.87
415.60	3112.91
415.79	3103.55
415.98	3220.58
416.17	3229.94
416.36	3091.85
416.55	3075.46
416.74	3087.17
416.93	3155.04
417.12	3246.32
417.31	3304.84
417.50	3353.99
417.69	3295.47
417.88	3433.57
418.07	3309.52
418.26	3234.62
418.45	3407.82
418.64	3482.72
418.83	3524.85
419.02	3375.05
419.21	3499.10
419.39	3581.02
419.58	3487.40
419.77	3602.08
419.96	3641.87
420.15	3627.83
420.34	3604.42
420.53	3712.09
420.72	3705.07
420.91	3576.34
421.10	3719.11
421.29	3808.05
421.48	3585.70
421.67	3779.97
421.86	3777.62
422.05	3674.64
422.24	3672.30
422.43	3824.44
422.61	3705.07
422.80	3892.31
422.99	3829.12
423.18	3756.56
423.37	3878.27
423.56	3777.62
423.75	3775.28
423.94	3955.51
424.13	3648.90
424.32	3733.15
424.50	3878.27
424.69	3927.42
424.88	4016.36
425.07	3812.73
425.26	3812.73
425.45	3845.50
425.64	3925.08
425.83	3873.59
426.01	3969.55
426.20	3957.85
426.39	3904.01
426.58	3850.18
426.77	3786.99
426.96	3791.67
427.15	3992.95
427.33	3915.72
427.52	3969.55
427.71	4004.66
427.90	3971.89
428.09	3990.61
428.28	4011.68
428.46	4180.20
428.65	4149.77
428.84	4227.01
429.03	4210.62
429.22	3957.85
429.40	4191.90
429.59	4128.70
429.78	4016.36
429.97	3990.61
430.16	4037.42
430.34	4065.51
430.53	4128.70
430.72	4142.75
430.91	4095.94
431.10	4278.50
431.28	4454.04
431.47	4561.70
431.66	4573.41
431.85	4402.55
432.03	4409.57
432.22	4573.41
432.41	4594.47
432.60	4634.26
432.79	4699.80
432.97	4657.67
433.16	4580.43
433.35	4608.51
433.54	4550.00
433.72	4528.94
433.91	4531.28
434.10	4561.70
434.28	4535.96
434.47	4725.54
434.66	4873.00
434.85	4847.25
435.03	4800.44
435.22	4746.61
435.41	4957.25
435.59	5013.43
435.78	5060.24
435.97	5071.94
436.16	4994.70
436.34	5034.49
436.53	4945.55
436.72	5078.96
436.90	5029.81
437.09	5167.90
437.28	4887.04
437.46	5004.07
437.65	4980.66
437.84	5015.77
438.02	4917.47
438.21	4983.00
438.40	5027.47
438.58	5317.70
438.77	5392.59
438.96	5284.93
439.14	5357.49
439.33	5617.29
439.52	5570.48
439.70	5516.64
439.89	5572.82
440.08	5493.24
440.26	5636.01
440.45	5589.20
440.63	5884.11
440.82	5991.77
441.01	5816.23
441.19	5877.09
441.38	6043.26
441.57	5895.81
441.75	6143.91
441.94	6310.08
442.12	6078.37
442.31	6141.57
442.50	6085.39
442.68	6127.52
442.87	6136.88
443.05	6267.95
443.24	6277.32
443.43	6148.59
443.61	6415.41
443.80	6466.90
443.98	6282.00
444.17	5954.32
444.35	6317.11
444.54	6450.52
444.73	6429.45
444.91	6384.98
445.10	6504.35
445.28	6342.85
445.47	6321.79
445.65	6209.44
445.84	6340.51
446.02	6342.85
446.21	6417.75
446.39	6415.41
446.58	6480.94
446.77	6459.88
446.95	6490.31
447.14	6511.37
447.32	6574.56
447.51	6696.27
447.69	6427.11
447.88	6551.16
448.06	6403.71
448.25	6464.56
448.43	6567.54
448.62	6630.74
448.80	6565.20
448.99	6864.79
449.17	6871.81
449.36	6731.38
449.54	6874.15
449.73	6892.88
449.91	6991.18
450.10	7070.76
450.28	6970.12
450.46	7028.63
450.65	7185.44
450.83	6984.16
451.02	6820.32
451.20	7014.59
451.39	7133.95
451.57	7115.23
451.76	6911.60
451.94	6906.92
452.13	7103.53
452.31	6998.20
452.49	7136.29
452.68	7045.01
452.86	7152.68
453.05	7131.61
453.23	7220.55
453.42	7131.61
453.60	7197.15
453.78	7487.37
453.97	7274.38
454.15	7185.44
454.34	7229.91
454.52	7407.80
454.70	7318.86
454.89	7353.96
455.07	7335.24
455.26	7461.63
455.44	7597.38
455.62	7524.82
455.81	7698.02
455.99	7590.36
456.17	7854.84
456.36	7662.91
456.54	7824.41
456.73	7857.18
456.91	8088.89
457.09	7967.18
457.28	8030.38
457.46	7861.86
457.64	8023.36
457.83	7875.90
458.01	7737.81
458.19	8231.66
458.38	7997.61
458.56	8201.24
458.74	8081.87
458.93	7941.44
459.11	8077.19
459.29	7915.69
459.48	8166.13
459.66	8135.70
459.84	8212.94
460.03	8451.67
460.21	8332.31
460.39	8386.14
460.57	8203.58
460.76	8535.93
460.94	8351.03
461.12	8524.23
461.31	8215.28
461.49	8348.69
461.67	8311.24
461.85	8643.60
462.04	8416.57
462.22	9011.06
462.40	8685.73
462.59	8631.90
462.77	8585.08
462.95	8884.67
463.13	8669.34
463.32	8688.07
463.50	8617.85
463.68	8643.60
463.86	8868.29
464.05	8557.00
464.23	8659.98
464.41	8709.13
464.59	8861.27
464.78	8872.97
464.96	8966.59
465.14	8746.58
465.32	8968.93
465.50	9041.49
465.69	9139.79
465.87	9034.47
466.05	8833.18
466.23	8947.87
466.41	9036.81
466.60	9231.07
466.78	8943.19
466.96	8908.08
467.14	9048.51
467.32	9104.68
467.51	9500.23
467.69	9046.17
467.87	9174.90
468.05	9387.89
468.23	9121.07
468.41	9277.88
468.60	9392.57
468.78	9336.40
468.96	9284.91
469.14	9628.96
469.32	9570.45
469.50	9245.12
469.69	9446.40
469.87	9621.94
470.05	9741.31
470.23	9692.16
470.41	9591.52
470.59	9741.31
470.77	9521.30
470.95	9741.31
471.14	9853.66
471.32	9605.56
471.50	10396.66
471.68	9921.53
471.86	10026.86
472.04	10448.15
472.22	10190.69
472.40	10024.51
472.58	10120.48
472.77	10228.14
472.95	10370.91
473.13	10761.78
473.31	10300.70
473.49	10289.00
473.67	10246.87
473.85	10581.56
474.03	10651.78
474.21	10626.03
474.39	10689.23
474.57	10848.38
474.75	11115.20
474.93	11257.98
475.12	10782.85
475.30	10960.73
475.48	10824.98
475.66	10953.71
475.84	11119.89
476.02	11349.26
476.20	11122.23
476.38	11428.84
476.56	11665.23
476.74	11667.57
476.92	11672.25
477.10	11566.93
477.28	11815.02
477.46	11953.12
477.64	12128.66
477.82	12152.06
478.00	12348.67
478.18	12407.18
478.36	12322.92
478.54	12372.07
478.72	12592.08
478.90	12695.07
479.08	12982.95
479.26	12814.43
479.44	12744.22
479.62	12854.22
479.80	13130.41
479.98	13252.11
480.16	13453.40
480.34	13256.79
480.52	13530.64
480.70	13465.10
480.88	13291.90
481.06	13724.90
481.24	13642.98
481.41	14015.13
481.59	13998.74
481.77	14235.14
481.95	13958.96
482.13	14319.40
482.31	14518.34
482.49	14438.76
482.67	14829.63
482.85	14977.09
483.03	14766.44
483.21	15147.95
483.39	15110.50
483.57	15154.97
483.74	15431.15
483.92	15304.76
484.10	15173.69
484.28	15770.53
484.46	15688.61
484.64	16170.76
484.82	15922.66
485.00	15875.85
485.18	16159.06
485.35	16547.59
485.53	15847.77
485.71	15934.37
485.89	16278.43
486.07	16306.51
486.25	16233.96
486.43	16491.41
486.61	16952.50
486.78	16973.56
486.96	17011.01
487.14	17530.61
487.32	17441.67
487.50	17790.41
487.68	17881.69
487.85	17961.27
488.03	18228.09
488.21	18115.75
488.39	18310.01
488.57	18492.57
488.75	18394.27
488.92	18728.97
489.10	18972.38
489.28	19262.61
489.46	19456.87
489.64	19482.62
489.81	19754.12
489.99	19875.83
490.17	19946.05
490.35	19999.88
490.53	20294.79
490.70	20084.14
490.88	20563.95
491.06	20496.07
491.24	20521.82
491.41	20313.51
491.59	20762.89
491.77	20383.73
491.95	20854.17
492.13	21193.55
492.30	20950.14
492.48	21348.03
492.66	21458.03
492.84	21296.53
493.01	21633.57
493.19	21785.71
493.37	22073.59
493.54	21687.40
493.72	22003.38
493.90	22003.38
494.08	22672.77
494.25	22843.63
494.43	22845.97
494.61	22916.19
494.79	22948.95
494.96	23342.16
495.14	22993.42
495.32	23358.55
495.49	23426.42
495.67	23536.43
495.85	24039.64
496.02	23805.59
496.20	23868.78
496.38	24276.04
496.55	24283.06
496.73	24802.66
496.91	24526.47
497.09	24933.73
497.26	24357.96
497.44	24360.30
497.62	24842.45
497.79	25006.28
497.97	24556.90
498.14	25113.95
498.32	25195.87
498.50	25032.03
498.67	25715.47
498.85	25867.60
499.03	25694.40
499.20	25783.34
499.38	26012.71
499.56	26017.40
499.73	25944.84
499.91	26153.15
500.08	26270.17
500.26	26092.29
500.44	26331.03
500.61	26246.77
500.79	26132.08
500.97	26789.77
501.14	26925.52
501.32	26595.51
501.49	26780.41
501.67	26714.87
501.84	27157.24
502.02	27145.53
502.20	27236.81
502.37	27447.46
502.55	27255.54
502.72	27693.22
502.90	28130.90
503.07	27641.73
503.25	27592.58
503.43	27601.94
503.60	27791.52
503.78	27821.95
503.95	28278.35
504.13	28563.90
504.30	28320.48
504.48	28285.37
504.65	28566.24
504.83	28776.89
505.01	28755.82
505.18	28641.14
505.36	29242.65
505.53	28844.76
505.71	29465.00
505.88	29490.75
506.06	29137.33
506.23	29432.24
506.41	29125.63
506.58	29083.50
506.76	29605.44
506.93	29607.78
507.11	29556.28
507.28	29670.97
507.46	29509.47
507.63	29694.38
507.81	29900.34
507.98	29589.05
508.16	29790.34
508.33	30029.07
508.50	30382.49
508.68	30436.33
508.85	31124.44
509.03	30920.82
509.20	30742.94
509.38	31136.15
509.55	31166.57
509.73	30859.96
509.90	30960.61
510.08	30855.28
510.25	31194.66
510.42	31346.79
510.60	31409.99
510.77	31529.36
510.95	31496.59
511.12	31777.45
511.30	31524.68
511.47	31985.76
511.64	31997.46
511.82	32032.57
511.99	31997.46
512.17	31903.84
512.34	32142.58
512.51	31948.31
512.69	32760.48
512.86	32037.25
513.04	32746.44
513.21	32779.20
513.38	32381.31
513.56	32353.23
513.73	32573.24
513.90	32711.33
514.08	32886.87
514.25	32493.66
514.43	33001.55
514.60	32898.57
514.77	33097.52
514.95	33331.57
515.12	32992.19
515.29	33071.77
515.47	33415.83
515.64	33668.61
515.81	33830.10
515.99	33411.15
516.16	33289.44
516.33	33436.89
516.51	33692.01
516.68	32905.59
516.85	33326.89
517.03	33179.43
517.20	33455.62
517.37	33881.60
517.54	33874.57
517.72	33905.00
517.89	33958.83
518.06	33752.87
518.24	33813.72
518.41	33912.02
518.58	34433.96
518.75	34178.84
518.93	34607.16
519.10	34827.17
519.27	34649.29
519.45	34991.01
519.62	35194.64
519.79	34878.66
519.96	34976.97
520.14	35353.79
520.31	34822.49
520.48	34892.71
520.65	34873.98
520.83	35365.49
521.00	35749.34
521.17	35627.63
521.34	35697.85
521.52	36048.93
521.69	35952.97
521.86	35967.01
522.03	35896.80
522.20	35550.40
522.38	35814.88
522.55	36568.53
522.72	35962.33
522.89	36210.43
523.07	36362.56
523.24	36070.00
523.41	36451.50
523.58	36884.50
523.75	37034.30
523.92	36715.98
524.10	37364.31
524.27	36680.88
524.44	36999.19
524.61	37205.16
524.78	36968.76
524.96	37137.28
525.13	37525.81
525.30	37640.50
525.47	37654.54
525.64	37556.24
525.81	37670.92
525.98	37364.31
526.16	36989.83
526.33	37235.58
526.50	37144.30
526.67	37294.10
526.84	37509.43
527.01	37106.85
527.18	37696.67
527.36	37825.40
527.53	38153.07
527.70	38511.17
527.87	37900.29
528.04	38258.40
528.21	38534.58
528.38	38237.33
528.55	38115.62
528.72	38471.39
528.89	38747.57
529.07	38450.32
529.24	38394.15
529.41	38349.68
529.58	38382.45
529.75	38656.29
529.92	38850.55
530.09	38529.90
530.26	38745.23
530.43	39189.93
530.60	38876.30
530.77	38724.16
530.94	39199.29
531.11	38979.28
531.28	39051.84
531.46	39248.44
531.63	39620.59
531.80	39732.93
531.97	39377.17
532.14	39295.25
532.31	38642.24
532.48	39693.15
532.65	39466.11
532.82	39622.93
532.99	40084.01
533.16	39225.04
533.33	39660.38
533.50	39777.40
533.67	39793.79
533.84	39742.30
534.01	39533.99
534.18	39342.06
534.35	40177.64
534.52	40315.73
534.69	40027.84
534.86	40219.77
535.03	40502.97
535.20	40570.85
535.37	40701.92
535.54	40533.40
535.71	40357.86
535.88	40634.04
536.05	40662.13
536.22	40706.60
536.38	40891.50
536.55	40610.64
536.72	40421.05
536.89	40402.33
537.06	40765.11
537.23	40938.31
537.40	40694.89
537.57	41125.55
537.74	40741.71
537.91	40774.47
538.08	41261.30
538.25	40767.45
538.42	40999.16
538.59	41254.28
538.75	40802.56
538.92	41001.50
539.09	41270.67
539.26	40957.03
539.43	41464.93
539.60	41209.81
539.77	41165.34
539.94	41305.77
540.11	41120.87
540.28	41387.69
540.44	41322.16
540.61	41432.16
540.78	41184.07
540.95	41069.38
541.12	41027.25
541.29	41603.02
541.46	41904.95
541.62	42066.45
541.79	41708.35
541.96	41294.07
542.13	41645.15
542.30	41415.78
542.47	41832.39
542.63	41937.72
542.80	42183.48
542.97	42356.67
543.14	42962.87
543.31	42438.59
543.48	42445.62
543.64	43079.90
543.81	42770.95
543.98	42670.31
544.15	42761.59
544.32	42562.64
544.48	42642.22
544.65	42864.57
544.82	42981.60
544.99	42160.07
545.16	42857.55
545.32	42396.46
545.49	42897.34
545.66	43232.04
545.83	43339.70
546.00	43246.08
546.16	43096.28
546.33	42667.97
546.50	42595.41
546.67	43072.88
546.83	42525.19
547.00	43281.19
547.17	43136.07
547.34	43393.53
547.50	43503.54
547.67	43807.81
547.84	43313.95
548.00	43498.86
548.17	43449.70
548.34	43407.58
548.51	43491.83
548.67	43728.23
548.84	44004.41
549.01	43309.27
549.18	43524.60
549.34	43548.01
549.51	43440.34
549.68	44011.43
549.84	43950.58
550.01	43768.02
550.18	43927.17
550.34	43957.60
550.51	43660.35
550.68	43653.33
550.84	43473.11
551.01	43971.64
551.18	43981.01
551.34	43929.51
551.51	44100.37
551.68	44161.23
551.84	44261.87
552.01	44353.15
552.18	44219.74
552.34	43501.20
552.51	44093.35
552.68	43665.03
552.84	44474.86
553.01	44690.19
553.18	44439.75
553.34	44280.60
553.51	44161.23
553.67	44446.77
553.84	44762.75
554.01	44753.38
554.17	44781.47
554.34	44406.98
554.51	44584.86
554.67	44655.08
554.84	44301.66
555.00	44378.90
555.17	44282.94
555.33	44809.56
555.50	44795.51
555.67	44531.03
555.83	45081.06
556.00	45013.18
556.16	44825.94
556.33	45146.59
556.50	44655.08
556.66	44760.40
556.83	44582.52
556.99	45146.59
557.16	45214.47
557.32	44870.41
557.49	44917.22
557.65	44940.63
557.82	44961.69
557.98	44741.68
558.15	44772.11
558.32	45132.55
558.48	45050.63
558.65	45378.31
558.81	45085.74
558.98	44865.73
559.14	44905.52
559.31	45170.00
559.47	45130.21
559.64	44938.29
559.80	45464.91
559.97	45338.52
560.13	44868.07
560.30	45336.18
560.46	45509.38
560.63	45347.88
560.79	45368.94
560.96	45900.25
561.12	45483.63
561.29	45420.44
561.45	45574.91
561.61	45401.71
561.78	45518.74
561.94	45116.17
562.11	45179.36
562.27	45081.06
562.44	45593.64
562.60	45528.10
562.77	45343.20
562.93	45558.53
563.10	45720.02
563.26	45748.11
563.42	45933.01
563.59	45661.51
563.75	45752.79
563.92	45708.32
564.08	45869.82
564.24	45818.33
564.41	45647.47
564.57	45743.43
564.74	45404.05
564.90	45773.86
565.07	45837.05
565.23	45663.85
565.39	45212.13
565.56	46031.32
565.72	45563.21
565.88	45415.76
566.05	45682.58
566.21	45237.87
566.38	45523.42
566.54	45453.20
566.70	46043.02
566.87	46309.84
567.03	45872.16
567.19	46253.67
567.36	46068.76
567.52	45797.26
567.68	46267.71
567.85	45624.06
568.01	45778.54
568.17	45956.42
568.34	46366.01
568.50	45881.52
568.66	45914.29
568.83	46525.17
568.99	45918.97
569.15	46101.53
569.32	45841.73
569.48	45654.49
569.64	45923.65
569.81	46209.20
569.97	45624.06
570.13	45900.25
570.30	45586.61
570.46	45490.65
570.62	45741.09
570.78	45996.21
570.95	45965.78
571.11	46036.00
571.27	45808.96
571.43	45874.50
571.60	45801.94
571.76	46017.27
571.92	45916.63
572.09	45797.26
572.25	45893.22
572.41	45986.85
572.57	45944.72
572.74	46267.71
572.90	46068.76
573.06	45851.09
573.22	45928.33
573.38	45935.35
573.55	45930.67
573.71	46511.13
573.87	46499.42
574.03	45668.53
574.20	45930.67
574.36	46078.13
574.52	46232.60
574.68	46398.78
574.84	46213.88
575.01	45825.35
575.17	46026.63
575.33	45907.27
575.49	45909.61
575.65	46445.59
575.82	46274.73
575.98	46120.26
576.14	46405.80
576.30	46185.79
576.46	46211.54
576.62	46246.65
576.79	46227.92
576.95	46101.53
577.11	46438.57
577.27	46103.87
577.43	45914.29
577.59	46148.34
577.75	46185.79
577.92	45867.48
578.08	45923.65
578.24	45652.15
578.40	46220.90
578.56	45865.14
578.72	45925.99
578.88	46658.58
579.04	46040.68
579.21	45911.95
579.37	45771.52
579.53	46223.24
579.69	45977.48
579.85	46204.52
580.01	46291.12
580.17	46288.77
580.33	46213.88
580.49	45794.92
580.65	46279.41
580.82	46005.57
580.98	46609.43
581.14	46028.98
581.30	46464.32
581.46	46316.86
581.62	46637.51
581.78	46019.61
581.94	46674.96
582.10	46553.26
582.26	46286.43
582.42	46162.39
582.58	46031.32
582.74	46218.56
582.90	45982.16
583.06	46602.41
583.22	46410.48
583.38	46438.57
583.54	46387.08
583.70	46714.75
583.86	46763.90
584.02	46110.89
584.18	46403.46
584.34	46649.22
584.50	46366.01
584.66	46131.96
584.82	46497.08
584.98	46401.12
585.14	46483.04
585.30	46101.53
585.46	46263.03
585.62	46497.08
585.78	46040.68
585.94	46103.87
586.10	46389.42
586.26	46108.55
586.42	46976.89
586.58	46298.14
586.74	46410.48
586.90	46108.55
587.06	46539.21
587.22	46632.83
587.38	46223.24
587.54	46658.58
587.70	46459.63
587.86	46646.88
588.02	46036.00
588.18	46419.84
588.34	46209.20
588.49	45858.12
588.65	45638.11
588.81	46134.30
588.97	46003.23
589.13	46038.34
589.29	45993.87
589.45	46485.38
589.61	46487.72
589.77	46597.73
589.93	46218.56
590.08	46787.31
590.24	46541.55
590.40	46579.00
590.56	46373.03
590.72	46377.72
590.88	46564.96
591.04	46506.44
591.20	46602.41
591.35	46923.06
591.51	46630.49
591.67	47187.54
591.83	46246.65
591.99	46569.64
592.15	46447.93
592.31	46298.14
592.46	46272.39
592.62	46707.73
592.78	46754.54
592.94	46906.68
593.10	46487.72
593.26	46363.67
593.41	46707.73
593.57	46192.81
593.73	46265.37
593.89	46316.86
594.05	46377.72
594.20	46298.14
594.36	46417.50
594.52	46281.75
594.68	46684.33
594.84	46492.40
594.99	46625.81
595.15	46494.74
595.31	46878.59
595.47	46485.38
595.62	46674.96
595.78	46698.37
595.94	47016.68
596.10	46696.03
596.25	46789.65
596.41	46408.14
596.57	46735.82
596.73	46787.31
596.88	46546.23
597.04	46803.69
597.20	46389.42
597.36	46511.13
597.51	46733.48
597.67	46604.75
597.83	46342.61
597.99	47107.96
598.14	46569.64
598.30	46480.70
598.46	46602.41
598.61	46642.20
598.77	46171.75
598.93	46934.76
599.09	47210.95
599.24	46876.25
599.40	47091.58
599.56	46967.53
599.71	46553.26
599.87	46705.39
600.03	46876.25
600.18	46759.22
600.34	46745.18
600.50	46873.91
600.65	46256.01
600.81	46787.31
600.97	46731.14
601.12	46827.10
601.28	46871.57
601.44	46621.13
601.59	46410.48
601.75	46323.88
601.91	46815.40
602.06	46389.42
602.22	46387.08
602.37	46892.63
602.53	46520.49
602.69	46852.84
602.84	46499.42
603.00	46461.97
603.16	46815.40
603.31	46199.83
603.47	46124.94
603.62	46284.09
603.78	46286.43
603.94	46824.76
604.09	46653.90
604.25	46183.45
604.40	46864.55
604.56	46770.93
604.71	46721.77
604.87	46515.81
605.03	46469.00
605.18	46850.50
605.34	46473.68
605.49	46478.36
605.65	46665.60
605.80	46726.46
605.96	46401.12
606.12	46747.52
606.27	47065.83
606.43	46298.14
606.58	46511.13
606.74	46178.77
606.89	47051.79
607.05	46377.72
607.20	46410.48
607.36	46494.74
607.51	46642.20
607.67	46403.46
607.82	46312.18
607.98	46071.10
608.13	46223.24
608.29	46401.12
608.44	45862.80
608.60	45876.84
608.75	45846.41
608.91	46232.60
609.06	45998.55
609.22	45991.53
609.37	45794.92
609.53	46106.21
609.68	46403.46
609.84	45883.86
609.99	45844.07
610.15	45689.60
610.30	45956.42
610.46	45528.10
610.61	46190.47
610.76	45907.27
610.92	45996.21
611.07	46312.18
611.23	46391.76
611.38	46122.60
611.54	46092.17
611.69	45780.88
611.84	46148.34
612.00	45698.96
612.15	45495.33
612.31	45710.66
612.46	45413.41
612.62	45890.88
612.77	45628.74
612.92	45923.65
613.08	45476.61
613.23	45656.83
613.39	45429.80
613.54	45397.03
613.69	45216.81
613.85	45043.61
614.00	45708.32
614.15	45848.75
614.31	45209.79
614.46	45942.38
614.62	45514.06
614.77	45244.90
614.92	45687.26
615.08	45628.74
615.23	45392.35
615.38	45059.99
615.54	45074.04
615.69	45095.10
615.84	44732.32
616.00	45085.74
616.15	45270.64
616.30	45287.03
616.46	44982.76
616.61	45008.50
616.76	44982.76
616.92	44839.98
617.07	44811.90
617.22	44556.78
617.37	44636.36
617.53	45350.22
617.68	44987.44
617.83	45181.70
617.99	45057.65
618.14	45181.70
618.29	45200.43
618.45	44748.70
618.60	44748.70
618.75	44732.32
618.90	44568.48
619.06	44404.64
619.21	44907.86
619.36	45020.20
619.51	44657.42
619.67	44456.14
619.82	44893.82
619.97	45038.93
620.12	44725.30
620.28	44444.43
620.43	44313.36
620.58	44425.71
620.73	44889.13
620.89	44416.35
621.04	44203.36
621.19	44453.79
621.34	44306.34
621.49	44430.39
621.65	44027.82
621.80	44744.02
621.95	43887.39
622.10	44566.14
622.25	44257.19
622.41	43775.04
622.56	44521.67
622.71	44411.67
622.86	44114.42
623.01	44275.91
623.16	44362.51
623.32	43959.94
623.47	44334.43
623.62	44112.08
623.77	43412.26
623.92	44343.79
624.07	44083.99
624.23	44051.22
624.38	43250.76
624.53	43749.29
624.68	43660.35
624.83	43959.94
624.98	43339.70
625.13	43669.72
625.29	43856.96
625.44	43716.53
625.59	43735.25
625.74	43473.11
625.89	43072.88
626.04	42974.58
626.19	44175.27
626.34	43423.96
626.49	43761.00
626.65	43391.19
626.80	43702.48
626.95	43054.15
627.10	43276.51
627.25	43131.39
627.40	42969.90
627.55	42600.09
627.70	42492.43
627.85	42300.50
628.00	42089.85
628.15	43037.77
628.30	42843.51
628.45	43330.34
628.60	42866.91
628.76	43124.37
628.91	43519.92
629.06	43372.47
629.21	42848.19
629.36	43122.03
629.51	42761.59
629.66	42876.27
629.81	42511.15
629.96	42740.52
630.11	43098.62
630.26	42946.49
630.41	42808.40
630.56	42887.98
630.71	43044.79
630.86	42738.18
631.01	42323.91
631.16	42883.30
631.31	42351.99
631.46	42478.38
631.61	42576.69
631.76	42766.27
631.91	42789.67
632.06	42588.39
632.21	42415.19
632.36	43126.71
632.51	42220.92
632.66	42115.60
632.81	42087.51
632.96	42433.91
633.10	42469.02
633.25	42309.86
633.40	42546.26
633.55	42209.22
633.70	42249.01
633.85	42272.42
634.00	42010.28
634.15	41677.92
634.30	41970.49
634.45	41933.04
634.60	42171.77
634.75	42143.69
634.90	41893.25
635.05	41691.96
635.19	41837.08
635.34	42099.22
635.49	42017.30
635.64	42164.75
635.79	41951.76
635.94	41954.10
636.09	41443.87
636.24	41448.55
636.39	41757.50
636.53	41715.37
636.68	41308.11
636.83	41851.12
636.98	41352.58
637.13	40877.46
637.28	41621.75
637.43	41750.48
637.57	41848.78
637.72	41647.49
637.87	41670.90
638.02	41729.41
638.17	41642.81
638.32	41427.48
638.46	41104.49
638.61	41446.21
638.76	41249.60
638.91	40832.99
639.06	41158.32
639.20	41390.03
639.35	41296.41
639.50	41055.34
639.65	41294.07
639.80	41158.32
639.94	40830.65
640.09	40762.77
640.24	40816.60
640.39	40891.50
640.54	40912.56
640.68	41301.09
640.83	40854.05
640.98	40774.47
641.13	40694.89
641.27	41151.30
641.42	40924.27
641.57	40910.22
641.72	40844.69
641.86	40732.34
642.01	40559.14
642.16	40708.94
642.31	40261.90
642.45	40751.07
642.60	40666.81
642.75	40339.13
642.90	40662.13
643.04	40474.88
643.19	40463.18
643.34	40442.12
643.48	40172.96
643.63	40950.01
643.78	39955.29
643.93	40730.00
644.07	40451.48
644.22	40247.85
644.37	40589.57
644.51	40381.26
644.66	40662.13
644.81	40147.21
644.95	40465.52
645.10	40301.68
645.25	40383.60
645.39	40154.23
645.54	39959.97
645.69	39672.08
645.83	39730.59
645.98	40067.63
646.13	40041.88
646.27	39739.96
646.42	39948.26
646.57	40079.33
646.71	39842.94
646.86	40163.59
647.00	39498.88
647.15	39501.22
647.30	39899.11
647.44	39625.27
647.59	39700.17
647.74	39550.37
647.88	39409.94
648.03	39957.63
648.17	39901.45
648.32	39426.32
648.47	39288.23
648.61	39339.72
648.76	40133.17
648.90	39625.27
649.05	39714.21
649.20	39735.27
649.34	39545.69
649.49	39934.22
649.63	39283.55
649.78	39040.14
649.92	39461.43
650.07	39634.63
650.21	39323.34
650.36	39299.94
650.51	39180.57
650.65	39393.56
650.80	39456.75
650.94	39311.64
651.09	39023.75
651.23	38817.78
651.38	38859.91
651.52	38780.34
651.67	38948.85
651.81	38909.07
651.96	38600.12
652.10	38972.26
652.25	38675.01
652.39	38796.72
652.54	39262.49
652.68	38876.30
652.83	38897.36
652.97	38986.30
653.12	39143.12
653.26	38394.15
653.41	39023.75
653.55	38415.21
653.70	38223.29
653.84	39044.82
653.99	38590.75
654.13	38284.14
654.27	38567.35
654.42	38337.98
654.56	38150.73
654.71	38410.53
654.85	38167.12
655.00	38045.41
655.14	38239.67
655.29	38279.46
655.43	37986.89
655.57	37970.51
655.72	38340.32
655.86	37780.93
656.01	37797.31
656.15	37392.40
656.30	37530.49
656.44	37621.77
656.58	37867.53
656.73	37764.54
656.87	37935.40
657.01	37277.71
657.16	37720.07
657.30	37670.92
657.45	37546.87
657.59	37710.71
657.73	37354.95
657.88	37722.41
658.02	37249.63
658.16	37645.18
658.31	38019.66
658.45	37694.33
658.60	37254.31
658.74	37326.86
658.88	37528.15
659.03	37289.42
659.17	36905.57
659.31	37493.04
659.46	37256.65
659.60	37095.15
659.74	37198.13
659.89	36999.19
660.03	36926.63
660.17	36931.31
660.32	37127.92
660.46	36943.02
660.60	37081.11
660.74	37340.91
660.89	36886.84
661.03	36879.82
661.17	36797.90
661.32	36374.27
661.46	36912.59
661.60	36699.60
661.74	36629.38
661.89	36510.02
662.03	36608.32
662.17	36313.41
662.31	35915.52
662.46	36807.26
662.60	37165.37
662.74	36449.16
662.88	36512.36
663.03	36175.32
663.17	36278.30
663.31	35878.07
663.45	36254.90
663.60	36210.43
663.74	35789.13
663.88	35882.75
664.02	36212.77
664.17	35934.24
664.31	36060.63
664.45	35782.11
664.59	35559.76
664.73	35213.36
664.88	35693.17
665.02	35115.06
665.16	35316.34
665.30	35728.28
665.44	35445.07
665.59	35304.64
665.73	35098.67
665.87	35232.08
666.01	34934.84
666.15	35117.40
666.29	35435.71
666.44	35115.06
666.58	34642.27
666.72	34948.88
666.86	35063.57
667.00	35009.73
667.14	34911.43
667.28	34859.94
667.43	34438.64
667.57	34679.72
667.71	34225.65
667.85	34677.38
667.99	34483.11
668.13	34483.11
668.27	34546.31
668.41	34586.10
668.56	33968.19
668.70	34256.08
668.84	34012.66
668.98	33827.76
669.12	33912.02
669.26	34045.43
669.40	33701.37
669.54	33785.63
669.68	33750.52
669.82	33563.28
669.96	33677.97
670.10	33537.54
670.25	33905.00
670.39	33621.80
670.53	33443.91
670.67	33324.55
670.81	33422.85
670.95	33392.42
671.09	33479.02
671.23	33383.06
671.37	33345.61
671.51	33303.48
671.65	32737.07
671.79	32741.75
671.93	32802.61
672.07	32800.27
672.21	32811.97
672.35	32275.99
672.49	32697.28
672.63	32411.74
672.77	32608.34
672.91	32683.24
673.05	31917.89
673.19	32376.63
673.33	32048.96
673.47	32385.99
673.61	31683.83
673.75	32048.96
673.89	31615.96
674.03	31978.74
674.17	31709.58
674.31	31541.06
674.45	31274.24
674.59	31964.70
674.73	31828.95
674.87	31431.05
675.01	31599.57
675.15	31562.12
675.29	31653.40
675.43	31236.79
675.56	31070.61
675.70	30679.74
675.84	30782.73
675.98	30169.51
676.12	30742.94
676.26	30525.27
676.40	30555.69
676.54	30628.25
676.68	30766.34
676.82	29982.26
676.96	30478.46
677.10	30202.27
677.23	29914.39
677.37	30242.06
677.51	30094.61
677.65	29790.34
677.79	29862.90
677.93	29773.95
678.07	29490.75
678.21	29525.86
678.34	29394.79
678.48	29127.97
678.62	29457.98
678.76	29259.04
678.90	28662.20
679.04	28975.83
679.18	29205.20
679.31	28758.16
679.45	28568.58
679.59	28568.58
679.73	28606.03
679.87	28264.31
680.00	28381.34
680.14	28517.09
680.28	27955.36
680.42	28151.96
680.56	28168.35
680.70	28041.96
680.83	27733.01
680.97	27615.98
681.11	27906.21
681.25	27690.88
681.39	27592.58
681.52	27438.10
681.66	27344.48
681.80	27510.66
681.94	27145.53
682.07	27295.33
682.21	27288.31
682.35	26815.52
682.49	26834.24
682.62	26728.92
682.76	26623.59
682.90	26527.63
683.04	26284.22
683.17	26387.20
683.31	26143.78
683.45	26438.69
683.59	26670.40
683.72	25942.50
683.86	25979.95
684.00	25764.62
684.13	25846.54
684.27	25675.68
684.41	25654.61
684.55	25343.32
684.68	25394.81
684.82	25673.34
684.96	25647.59
685.09	25523.54
685.23	24809.68
685.37	25329.28
685.50	25025.01
685.64	25226.29
685.78	24776.91
685.91	24931.39
686.05	24699.67
686.19	24095.82
686.32	24254.97
686.46	24077.09
686.60	24107.52
686.73	24142.63
686.87	23765.80
687.01	23864.10
687.14	23548.13
687.28	23548.13
687.42	23412.38
687.55	23133.86
687.69	23513.02
687.82	23178.33
687.96	23260.24
688.10	23271.95
688.23	23234.50
688.37	22864.69
688.50	22616.60
688.64	22462.12
688.78	22817.88
688.91	22625.96
689.05	22448.08
689.18	22403.61
689.32	22164.87
689.46	22307.65
689.59	22324.03
689.73	22469.14
689.86	22398.93
690.00	22272.54
690.13	22080.61
690.27	22094.66
690.41	21933.16
690.54	21561.02
690.68	21593.78
690.81	21694.43
690.95	21387.82
691.08	21167.80
691.22	21343.35
691.35	20931.41
691.49	21500.16
691.62	21219.30
691.76	21333.98
691.89	21465.05
692.03	21055.46
692.16	20659.91
692.30	20786.30
692.43	20638.84
692.57	20592.03
692.70	20510.11
692.84	20475.01
692.97	19960.09
693.11	20201.16
693.24	20100.52
693.38	20219.89
693.51	19854.76
693.65	19948.39
693.78	20105.20
693.92	20240.95
694.05	19854.76
694.19	19543.47
694.32	19604.33
694.45	19323.46
694.59	19276.65
694.72	19356.23
694.86	19257.93
694.99	19058.98
695.13	19171.33
695.26	18782.80
695.39	18885.78
695.53	19075.37
695.66	18773.44
695.80	18651.73
695.93	18441.08
696.07	18532.36
696.20	18618.96
696.33	18422.36
696.47	18340.44
696.60	18445.76
696.73	18031.49
696.87	17919.14
697.00	17895.74
697.14	17926.16
697.27	17724.88
697.40	18274.90
697.54	17699.13
697.67	17392.52
697.80	17612.53
697.94	17696.79
698.07	17331.67
698.21	17479.12
698.34	17537.63
698.47	17221.66
698.61	17043.78
698.74	16903.35
698.87	17240.39
699.01	16669.30
699.14	16695.04
699.27	16812.07
699.40	16835.47
699.54	16414.18
699.67	16400.13
699.80	16388.43
699.94	16563.97
700.07	16299.49
700.20	16224.59
700.34	15962.45
700.47	16336.94
700.60	16271.40
700.73	16116.93
700.87	16215.23
701.00	15728.40
701.13	15536.48
701.26	16009.26
701.40	15623.08
701.53	15428.81
701.66	15585.63
701.79	15232.21
701.93	15119.86
702.06	15192.42
702.19	14941.98
702.32	15098.80
702.46	14988.79
702.59	15007.52
702.72	14813.25
702.85	14967.73
702.99	14904.53
703.12	14972.41
703.25	14771.12
703.38	15124.54
703.51	14668.14
703.65	14691.54
703.78	14583.88
703.91	14633.03
704.04	14623.67
704.17	14483.24
704.31	14225.78
704.44	13940.23
704.57	13954.27
704.70	14080.66
704.83	14036.19
704.96	13855.97
705.10	14136.84
705.23	13977.68
>>>>>End Processed Spectral Data<<<<<
