SpectraSuite Data File
++++++++++++++++++++++++++++++++++++
Date: Fri Oct 25 11:34:12 EDT 2013
User: price-jones
Dark Spectrum Present: No
Reference Spectrum Present: No
Number of Sampled Component Spectra: 1
Spectrometers: USB2+H05261
Integration Time (usec): 100000 (USB2+H05261)
Spectra Averaged: 1 (USB2+H05261)
Boxcar Smoothing: 0 (USB2+H05261)
Correct for Electrical Dark: No (USB2+H05261)
Strobe/Lamp Enabled: No (USB2+H05261)
Correct for Detector Non-linearity: No (USB2+H05261)
Correct for Stray Light: No (USB2+H05261)
Number of Pixels in Processed Spectrum: 2048
>>>>>Begin Processed Spectral Data<<<<<
365.73	231.71
365.92	231.71
366.12	231.71
366.32	234.05
366.52	180.22
366.72	173.20
366.91	238.73
367.11	212.99
367.31	159.16
367.51	177.88
367.70	142.77
367.90	182.56
368.10	170.86
368.30	170.86
368.49	159.16
368.69	173.20
368.89	203.63
369.09	117.03
369.28	147.45
369.48	217.67
369.68	241.08
369.87	271.50
370.07	161.50
370.27	292.57
370.47	337.04
370.66	456.40
370.86	447.04
371.06	533.64
371.25	620.24
371.45	521.94
371.65	547.69
371.84	552.37
372.04	535.98
372.24	566.41
372.44	528.96
372.63	594.50
372.83	610.88
373.03	615.56
373.22	653.01
373.42	674.07
373.62	575.77
373.81	620.24
374.01	655.35
374.21	575.77
374.40	622.58
374.60	660.03
374.79	610.88
374.99	575.77
375.19	631.94
375.38	706.84
375.58	685.78
375.78	624.92
375.97	610.88
376.17	725.57
376.37	624.92
376.56	695.14
376.76	653.01
376.95	660.03
377.15	706.84
377.35	641.31
377.54	645.99
377.74	564.07
377.93	674.07
378.13	741.95
378.33	772.38
378.52	685.78
378.72	746.63
378.91	723.23
379.11	695.14
379.31	620.24
379.50	706.84
379.70	690.46
379.89	755.99
380.09	671.73
380.28	800.46
380.48	690.46
380.68	697.48
380.87	697.48
381.07	725.57
381.26	786.42
381.46	765.36
381.65	746.63
381.85	809.83
382.04	709.18
382.24	772.38
382.43	770.04
382.63	767.70
382.83	805.14
383.02	758.33
383.22	786.42
383.41	704.50
383.61	744.29
383.80	842.59
384.00	809.83
384.19	842.59
384.39	830.89
384.58	823.87
384.78	870.68
384.97	788.76
385.17	931.53
385.36	826.21
385.56	807.48
385.75	786.42
385.95	805.14
386.14	828.55
386.34	770.04
386.53	912.81
386.72	844.93
386.92	943.24
387.11	940.90
387.31	880.04
387.50	863.66
387.70	791.10
387.89	800.46
388.09	959.62
388.28	877.70
388.48	788.76
388.67	870.68
388.86	870.68
389.06	889.40
389.25	978.34
389.45	936.21
389.64	901.11
389.84	987.71
390.03	1006.43
390.22	985.37
390.42	940.90
390.61	891.74
390.81	961.96
391.00	922.17
391.19	978.34
391.39	968.98
391.58	1172.61
391.78	987.71
391.97	917.49
392.16	983.02
392.36	1011.11
392.55	1053.24
392.75	1046.22
392.94	1013.45
393.13	1041.54
393.33	1071.97
393.52	1128.14
393.71	1095.37
393.91	1114.10
394.10	1064.94
394.29	1034.52
394.49	1069.62
394.68	1149.20
394.88	1001.75
395.07	1191.33
395.26	1184.31
395.46	1153.88
395.65	1212.40
395.84	1191.33
396.04	1165.59
396.23	1170.27
396.42	1191.33
396.62	1114.10
396.81	1203.04
397.00	1139.84
397.19	1142.18
397.39	1247.51
397.58	1198.35
397.77	1203.04
397.97	1280.27
398.16	1275.59
398.35	1254.53
398.55	1226.44
398.74	1245.16
398.93	1334.11
399.12	1198.35
399.32	1219.42
399.51	1294.32
399.70	1416.02
399.90	1439.43
400.09	1352.83
400.28	1341.13
400.47	1362.19
400.67	1331.76
400.86	1364.53
401.05	1383.26
401.24	1413.68
401.44	1462.83
401.63	1521.35
401.82	1444.11
402.01	1390.28
402.21	1432.41
402.40	1462.83
402.59	1418.36
402.78	1537.73
402.97	1486.24
403.17	1399.64
403.36	1514.33
403.55	1425.39
403.74	1589.22
403.93	1593.90
404.13	1589.22
404.32	1565.82
404.51	1596.25
404.70	1636.03
404.89	1568.16
405.09	1589.22
405.28	1591.56
405.47	1629.01
405.66	1593.90
405.85	1722.63
406.05	1643.06
406.24	1689.87
406.43	1692.21
406.62	1802.21
406.81	1813.92
407.00	1729.66
407.20	1675.82
407.39	1724.97
407.58	1837.32
407.77	1823.28
407.96	1846.68
408.15	1832.64
408.34	1900.52
408.54	1799.87
408.73	1755.40
408.92	1837.32
409.11	1977.75
409.30	1905.20
409.49	1980.09
409.68	1984.77
409.87	1905.20
410.07	2038.61
410.26	1952.01
410.45	2040.95
410.64	1994.14
410.83	2190.74
411.02	1977.75
411.21	2076.06
411.40	2188.40
411.59	2146.27
411.78	2122.87
411.98	2080.74
412.17	2249.25
412.36	2218.83
412.55	2289.04
412.74	2352.24
412.93	2209.47
413.12	2324.15
413.31	2382.67
413.50	2410.75
413.69	2305.43
413.88	2471.61
414.07	2438.84
414.26	2434.16
414.45	2445.86
414.64	2415.43
414.83	2590.97
415.02	2530.12
415.22	2495.01
415.41	2633.10
415.60	2562.89
415.79	2553.52
415.98	2757.15
416.17	2668.21
416.36	2691.62
416.55	2597.99
416.74	2888.22
416.93	2663.53
417.12	2778.22
417.31	2684.59
417.50	2799.28
417.69	2937.37
417.88	2911.63
418.07	2881.20
418.26	2806.30
418.45	2958.44
418.64	3080.14
418.83	2892.90
419.02	2995.89
419.21	3091.85
419.39	2972.48
419.58	3117.59
419.77	3028.65
419.96	2972.48
420.15	3124.62
420.34	3108.23
420.53	3045.04
420.72	3197.17
420.91	3148.02
421.10	3267.39
421.29	3218.24
421.48	3248.66
421.67	3183.13
421.86	3274.41
422.05	3234.62
422.24	3328.24
422.43	3180.79
422.61	3236.96
422.80	3272.07
422.99	3201.85
423.18	3426.54
423.37	3342.28
423.56	3281.43
423.75	3302.50
423.94	3180.79
424.13	3056.74
424.32	3276.75
424.50	3344.63
424.69	3559.95
424.88	3351.65
425.07	3375.05
425.26	3377.39
425.45	3300.16
425.64	3302.50
425.83	3304.84
426.01	3454.63
426.20	3529.53
426.39	3419.52
426.58	3449.95
426.77	3393.78
426.96	3438.25
427.15	3398.46
427.33	3513.14
427.52	3435.91
427.71	3543.57
427.90	3485.06
428.09	3522.51
428.28	3604.42
428.46	3592.72
428.65	3529.53
428.84	3723.79
429.03	3854.86
429.22	3609.11
429.40	3700.39
429.59	3688.68
429.78	3576.34
429.97	3571.66
430.16	3574.00
430.34	3721.45
430.53	3894.65
430.72	3880.61
430.91	3758.90
431.10	3672.30
431.28	3885.29
431.47	3838.48
431.66	3934.44
431.85	4091.26
432.03	3946.14
432.22	4023.38
432.41	3995.29
432.60	3957.85
432.79	4016.36
432.97	4016.36
433.16	4119.34
433.35	4051.47
433.54	4065.51
433.72	4072.53
433.91	4156.79
434.10	4224.67
434.28	4016.36
434.47	4248.07
434.66	4198.92
434.85	4117.00
435.03	4320.63
435.22	4283.18
435.41	4320.63
435.59	4257.43
435.78	4219.99
435.97	4238.71
436.16	4217.65
436.34	4299.56
436.53	4372.12
436.72	4472.76
436.90	4224.67
437.09	4484.47
437.28	4435.32
437.46	4561.70
437.65	4278.50
437.84	4568.73
438.02	4538.30
438.21	4566.39
438.40	4580.43
438.58	4697.46
438.77	4652.98
438.96	4678.73
439.14	4788.74
439.33	4945.55
439.52	4823.84
439.70	4908.10
439.89	4748.95
440.08	4730.22
440.26	5057.90
440.45	4992.36
440.63	4926.83
440.82	5076.62
441.01	5032.15
441.19	5071.94
441.38	5128.11
441.57	5277.91
441.75	5128.11
441.94	5263.86
442.12	5310.68
442.31	5277.91
442.50	5291.95
442.68	5324.72
442.87	5350.46
443.05	5371.53
443.24	5568.13
443.43	5338.76
443.61	5430.04
443.80	5582.18
443.98	5252.16
444.17	5188.97
444.35	5348.12
444.54	5523.66
444.73	5444.09
444.91	5458.13
445.10	5565.79
445.28	5547.07
445.47	5654.73
445.65	5729.63
445.84	5586.86
446.02	5537.71
446.21	5600.90
446.39	5748.36
446.58	5652.39
446.77	5551.75
446.95	5390.25
447.14	5521.32
447.32	5678.14
447.51	5523.66
447.69	5664.10
447.88	5509.62
448.06	5619.63
448.25	5694.52
448.43	5713.25
448.62	5511.96
448.80	5605.58
448.99	5856.02
449.17	5713.25
449.36	5738.99
449.54	5795.17
449.73	6031.56
449.91	5970.71
450.10	5912.19
450.28	6064.33
450.46	6005.81
450.65	5886.45
450.83	6043.26
451.02	6033.90
451.20	6085.39
451.39	6012.84
451.57	6033.90
451.76	5970.71
451.94	5989.43
452.13	6183.70
452.31	6291.36
452.49	5975.39
452.68	6174.33
452.86	6003.47
453.05	6267.95
453.23	6270.30
453.42	6148.59
453.60	6228.17
453.78	6202.42
453.97	6347.53
454.15	6532.44
454.34	6300.72
454.52	6450.52
454.70	6204.76
454.89	6499.67
455.07	6452.86
455.26	6614.35
455.44	6719.68
455.62	6604.99
455.81	6586.27
455.99	6590.95
456.17	6647.12
456.36	6572.22
456.54	6771.17
456.73	6719.68
456.91	7045.01
457.09	6920.96
457.28	6913.94
457.46	6810.96
457.64	6979.48
457.83	6918.62
458.01	6892.88
458.19	7201.83
458.38	6822.66
458.56	6965.43
458.74	6970.12
458.93	7068.42
459.11	7140.97
459.29	7066.08
459.48	7112.89
459.66	7246.30
459.84	7176.08
460.03	7293.11
460.21	7360.98
460.39	7279.07
460.57	7133.95
460.76	7253.32
460.94	7332.90
461.12	7335.24
461.31	7246.30
461.49	7279.07
461.67	7438.22
461.85	7466.31
462.04	7398.43
462.22	7808.03
462.40	7531.84
462.59	7438.22
462.77	7499.08
462.95	7541.21
463.13	7564.61
463.32	7513.12
463.50	7805.69
463.68	7669.94
463.86	7918.03
464.05	7712.07
464.23	7695.68
464.41	7796.32
464.59	7559.93
464.78	8004.63
464.96	7768.24
465.14	7573.97
465.32	7889.95
465.50	7999.95
465.69	8210.60
465.87	7932.08
466.05	7927.39
466.23	8086.55
466.41	8049.10
466.60	8177.83
466.78	7955.48
466.96	8039.74
467.14	8098.25
467.32	7941.44
467.51	8290.18
467.69	7948.46
467.87	8166.13
468.05	8290.18
468.23	8173.15
468.41	8201.24
468.60	8362.73
468.78	8248.05
468.96	8126.34
469.14	8313.58
469.32	8276.13
469.50	8505.51
469.69	8568.70
469.87	8280.82
470.05	8374.44
470.23	8709.13
470.41	8454.02
470.59	8552.32
470.77	8606.15
470.95	8730.20
471.14	8798.07
471.32	8730.20
471.50	9130.43
471.68	8828.50
471.86	8837.86
472.04	8793.39
472.22	9095.32
472.40	9053.19
472.58	9025.11
472.77	9015.74
472.95	9172.56
473.13	9294.27
473.31	9184.26
473.49	9188.94
473.67	9217.03
473.85	9156.18
474.03	9418.32
474.21	9401.93
474.39	9657.05
474.57	9596.20
474.75	9769.40
474.93	9783.44
475.12	9708.54
475.30	9671.09
475.48	9771.74
475.66	10003.45
475.84	9848.97
476.02	9839.61
476.20	10101.75
476.38	10221.12
476.56	10244.52
476.74	10310.06
476.92	10340.49
477.10	10476.24
477.28	10314.74
477.46	10455.17
477.64	10459.85
477.82	10665.82
478.00	10794.55
478.18	10724.33
478.36	10949.03
478.54	10848.38
478.72	11269.68
478.90	11405.43
479.08	11452.24
479.26	11386.71
479.44	11377.34
479.62	11328.19
479.80	11515.44
479.98	11562.25
480.16	11976.52
480.34	11639.48
480.52	12219.94
480.70	12166.10
480.88	11826.73
481.06	11981.20
481.24	12264.41
481.41	12287.81
481.59	12594.42
481.77	12404.84
481.95	12409.52
482.13	12737.20
482.31	12645.91
482.49	13158.49
482.67	13167.85
482.85	13245.09
483.03	13139.77
483.21	13334.03
483.39	13743.63
483.57	13156.15
483.74	13710.86
483.92	13837.25
484.10	13359.78
484.28	13944.91
484.46	14141.52
484.64	14197.69
484.82	14148.54
485.00	14274.93
485.18	14640.05
485.35	14644.73
485.53	14532.39
485.71	14909.21
485.89	15204.12
486.07	14803.89
486.25	15199.44
486.43	15122.20
486.61	15337.53
486.78	15679.25
486.96	15513.07
487.14	15777.55
487.32	15829.04
487.50	15943.73
487.68	15976.50
487.85	16327.58
488.03	16191.83
488.21	16617.80
488.39	16554.61
488.57	16615.46
488.75	16739.51
488.92	16947.82
489.10	17102.29
489.28	17025.06
489.46	17371.46
489.64	17341.03
489.81	17790.41
489.99	17584.44
490.17	17652.32
490.35	18118.09
490.53	18111.07
490.70	17912.12
490.88	18260.86
491.06	18139.15
491.24	18342.78
491.41	18490.23
491.59	18532.36
491.77	18792.16
491.95	18927.91
492.13	19290.70
492.30	18874.08
492.48	19187.71
492.66	19220.48
492.84	19421.77
493.01	19924.98
493.19	19580.92
493.37	19857.10
493.54	19805.61
493.72	20283.08
493.90	20301.81
494.08	20423.51
494.25	20549.90
494.43	20170.74
494.61	20716.08
494.79	20819.07
494.96	20802.68
495.14	20912.69
495.32	21259.09
495.49	20865.88
495.67	21231.00
495.85	21469.73
496.02	21525.91
496.20	21532.93
496.38	21642.93
496.55	21743.58
496.73	22338.07
496.91	22139.13
497.09	22258.49
497.26	22462.12
497.44	22349.78
497.62	22623.62
497.79	22799.16
497.97	22600.21
498.14	23065.98
498.32	23227.48
498.50	23335.14
498.67	23491.96
498.85	23330.46
499.03	23660.48
499.20	23234.50
499.38	23777.50
499.56	23768.14
499.73	23821.97
499.91	23964.75
500.08	24049.00
500.26	23868.78
500.44	23882.83
500.61	24203.48
500.79	24102.84
500.97	24086.45
501.14	24870.53
501.32	24978.20
501.49	24437.53
501.67	24699.67
501.84	24912.66
502.02	24713.72
502.20	25017.99
502.37	25095.22
502.55	25036.71
502.72	25071.82
502.90	25273.10
503.07	25387.79
503.25	25654.61
503.43	25429.92
503.60	25764.62
503.78	26050.16
503.95	25741.21
504.13	25865.26
504.30	25930.80
504.48	26214.00
504.65	26391.88
504.83	26253.79
505.01	26443.37
505.18	26485.50
505.36	26675.09
505.53	26436.35
505.71	26642.32
505.88	26700.83
506.06	26852.97
506.23	27061.27
506.41	27108.08
506.58	26930.20
506.76	27445.12
506.93	27281.28
507.11	27126.81
507.28	27496.61
507.46	27590.24
507.63	27501.29
507.81	27611.30
507.98	27190.00
508.16	27372.57
508.33	28233.88
508.50	28002.17
508.68	27798.54
508.85	28503.04
509.03	28418.78
509.20	28465.60
509.38	28720.71
509.55	28299.42
509.73	28699.65
509.90	28599.01
510.08	28790.93
510.25	28786.25
510.42	28774.55
510.60	29076.48
510.77	29158.39
510.95	29324.57
511.12	29057.75
511.30	29252.02
511.47	28875.19
511.64	29013.28
511.82	29663.95
511.99	29743.53
512.17	29434.58
512.34	29525.86
512.51	30075.88
512.69	30050.14
512.86	29851.19
513.04	30120.35
513.21	30263.13
513.38	30419.94
513.56	30431.65
513.73	30115.67
513.90	30335.68
514.08	30272.49
514.25	30567.40
514.43	30654.00
514.60	30843.58
514.77	30628.25
514.95	30902.09
515.12	30684.42
515.29	30979.33
515.47	31136.15
515.64	31138.49
515.81	31342.11
515.99	31615.96
516.16	31548.08
516.33	31662.77
516.51	31321.05
516.68	31721.28
516.85	31653.40
517.03	31480.21
517.20	32067.68
517.37	31786.82
517.54	32140.24
517.72	32030.23
517.89	31821.92
518.06	32072.36
518.24	32212.79
518.41	32130.87
518.58	32032.57
518.75	32231.52
518.93	32575.58
519.10	32245.56
519.27	32594.30
519.45	32701.96
519.62	33013.26
519.79	33081.13
519.96	33172.41
520.14	33181.77
520.31	33132.62
520.48	33259.01
520.65	33472.00
520.83	33797.34
521.00	33170.07
521.17	33422.85
521.34	33546.90
521.52	33750.52
521.69	33546.90
521.86	33846.49
522.03	34132.03
522.20	34052.45
522.38	34426.94
522.55	34518.22
522.72	34026.71
522.89	34192.89
523.07	34323.96
523.24	34436.30
523.41	34682.06
523.58	34335.66
523.75	34682.06
523.92	34328.64
524.10	34778.02
524.27	34492.47
524.44	34820.15
524.61	34941.86
524.78	35365.49
524.96	35281.24
525.13	35531.67
525.30	35098.67
525.47	35211.02
525.64	34796.74
525.81	35629.98
525.98	35096.33
526.16	35608.91
526.33	35400.60
526.50	35665.08
526.67	35398.26
526.84	35754.02
527.01	35988.08
527.18	36123.83
527.36	35861.69
527.53	35878.07
527.70	36177.66
527.87	36268.94
528.04	35901.48
528.21	35721.26
528.38	35955.31
528.55	36273.62
528.72	35913.18
528.89	36156.60
529.07	36348.52
529.24	36439.80
529.41	36554.49
529.58	36582.57
529.75	36811.95
529.92	36577.89
530.09	36339.16
530.26	36926.63
530.43	37048.34
530.60	36346.18
530.77	37029.62
530.94	37111.53
531.11	37003.87
531.28	36950.04
531.46	37139.62
531.63	37078.77
531.80	37053.02
531.97	37642.84
532.14	37378.36
532.31	37530.49
532.48	37766.88
532.65	37668.58
532.82	37481.34
532.99	37219.20
533.16	37261.33
533.33	37928.38
533.50	37429.85
533.67	37682.62
533.84	37439.21
534.01	38014.98
534.18	37993.92
534.35	38443.30
534.52	38117.96
534.69	38897.36
534.86	38459.68
535.03	38506.49
535.20	37914.34
535.37	38459.68
535.54	38305.21
535.71	38022.00
535.88	38447.98
536.05	38522.88
536.22	38948.85
536.38	38665.65
536.55	38581.39
536.72	38565.01
536.89	38511.17
537.06	39180.57
537.23	39035.45
537.40	38642.24
537.57	38855.23
537.74	39173.55
537.91	39711.87
538.08	38918.43
538.25	38667.99
538.42	39196.95
538.59	39789.11
538.75	39391.22
538.92	39587.82
539.09	39288.23
539.26	39384.19
539.43	39655.70
539.60	39765.70
539.77	39660.38
539.94	39831.24
540.11	39548.03
540.28	39885.07
540.44	39662.72
540.61	39793.79
540.78	39555.05
540.95	39924.86
541.12	39590.16
541.29	39899.11
541.46	40259.55
541.62	40086.36
541.79	40467.86
541.96	39835.92
542.13	40236.15
542.30	40430.41
542.47	40238.49
542.63	40746.39
542.80	40591.91
542.97	40919.59
543.14	40964.06
543.31	40526.38
543.48	40594.25
543.64	40942.99
543.81	40648.08
543.98	40676.17
544.15	40947.67
544.32	40664.47
544.48	41682.60
544.65	41146.62
544.82	41303.43
544.99	40659.79
545.16	41113.85
545.32	40924.27
545.49	41785.58
545.66	41729.41
545.83	41787.92
546.00	41837.08
546.16	41343.22
546.33	41434.50
546.50	40957.03
546.67	41776.22
546.83	41535.15
547.00	41521.10
547.17	41635.79
547.34	41684.94
547.50	41958.78
547.67	41879.21
547.84	42499.45
548.00	42192.84
548.17	42031.34
548.34	42267.73
548.51	42239.65
548.67	42440.93
548.84	42391.78
549.01	41565.57
549.18	42328.59
549.34	42445.62
549.51	42532.22
549.68	42513.49
549.84	42665.63
550.01	42679.67
550.18	42518.17
550.34	42293.48
550.51	42981.60
550.68	42618.81
550.84	42288.80
551.01	42674.99
551.18	42326.25
551.34	42859.89
551.51	43030.75
551.68	42892.66
551.84	42869.25
552.01	42946.49
552.18	43012.02
552.34	43002.66
552.51	43035.43
552.68	42515.83
552.84	43241.40
553.01	43185.22
553.18	42850.53
553.34	43199.27
553.51	43225.01
553.67	43065.86
553.84	43166.50
554.01	43260.12
554.17	43379.49
554.34	43187.56
554.51	43316.29
554.67	43386.51
554.84	43639.29
555.00	43438.00
555.17	43419.28
555.33	43782.06
555.50	43449.70
555.67	43690.78
555.83	43636.95
556.00	43964.62
556.16	44282.94
556.33	43480.13
556.50	43737.59
556.66	43775.04
556.83	43639.29
556.99	44217.40
557.16	44245.49
557.32	43695.46
557.49	44128.46
557.65	43737.59
557.82	44287.62
557.98	43842.92
558.15	43805.47
558.32	44458.48
558.48	43770.36
558.65	44556.78
558.81	44257.19
558.98	44348.47
559.14	44135.48
559.31	44198.68
559.47	43924.83
559.64	44098.03
559.80	44268.89
559.97	44320.38
560.13	44472.52
560.30	44741.68
560.46	44339.11
560.63	44706.57
560.79	44603.59
560.96	44722.96
561.12	44900.84
561.29	44502.95
561.45	44861.05
561.61	44182.29
561.78	44364.85
561.94	43999.73
562.11	44676.15
562.27	44566.14
562.44	44968.71
562.60	44580.18
562.77	44921.90
562.93	44851.69
563.10	44566.14
563.26	44524.01
563.42	45158.30
563.59	44610.61
563.75	44825.94
563.92	44535.71
564.08	44800.19
564.24	45432.14
564.41	44737.00
564.57	44889.13
564.74	45038.93
564.90	44973.39
565.07	45074.04
565.23	45118.51
565.39	44931.26
565.56	45034.25
565.72	45052.97
565.88	45202.77
566.05	45109.14
566.21	45226.17
566.38	45013.18
566.54	45277.66
566.70	45254.26
566.87	45333.84
567.03	44783.81
567.19	45017.86
567.36	45422.78
567.52	45127.87
567.68	45668.53
567.85	45357.24
568.01	45551.51
568.17	45284.68
568.34	45345.54
568.50	45284.68
568.66	45336.18
568.83	45177.02
568.99	45607.68
569.15	45509.38
569.32	45446.18
569.48	45404.05
569.64	45771.52
569.81	45780.88
569.97	45593.64
570.13	45818.33
570.30	45715.34
570.46	45771.52
570.62	45544.48
570.78	45687.26
570.95	45284.68
571.11	46103.87
571.27	45830.03
571.43	45687.26
571.60	45528.10
571.76	45694.28
571.92	45724.71
572.09	45652.15
572.25	45460.23
572.41	45483.63
572.57	45413.41
572.74	45593.64
572.90	45965.78
573.06	45727.05
573.22	45467.25
573.38	46108.55
573.55	45862.80
573.71	45949.40
573.87	45794.92
574.03	46188.13
574.20	46230.26
574.36	45830.03
574.52	46064.08
574.68	45923.65
574.84	45930.67
575.01	45848.75
575.17	45928.33
575.33	45698.96
575.49	45710.66
575.65	46096.85
575.82	45729.39
575.98	45897.91
576.14	46557.94
576.30	46300.48
576.46	46354.31
576.62	45907.27
576.79	45975.14
576.95	45914.29
577.11	45717.68
577.27	45862.80
577.43	46110.89
577.59	45916.63
577.75	45631.08
577.92	45490.65
578.08	45696.62
578.24	45972.80
578.40	46422.19
578.56	46401.12
578.72	46143.66
578.88	46241.96
579.04	46017.27
579.21	45902.59
579.37	46188.13
579.53	45647.47
579.69	45762.15
579.85	45603.00
580.01	46146.00
580.17	45965.78
580.33	46087.49
580.49	46351.97
580.65	46213.88
580.82	46148.34
580.98	46007.91
581.14	45881.52
581.30	46197.49
581.46	46064.08
581.62	46117.92
581.78	46043.02
581.94	46136.64
582.10	46277.07
582.26	46361.33
582.42	46330.90
582.58	46089.83
582.74	46258.35
582.90	46131.96
583.06	46122.60
583.22	46281.75
583.38	46487.72
583.54	46473.68
583.70	46480.70
583.86	46302.82
584.02	45879.18
584.18	46146.00
584.34	46504.10
584.50	46689.01
584.66	46763.90
584.82	46319.20
584.98	46667.94
585.14	46735.82
585.30	46244.30
585.46	45956.42
585.62	46227.92
585.78	46270.05
585.94	45951.74
586.10	46288.77
586.26	45731.73
586.42	45968.12
586.58	46550.91
586.74	46110.89
586.90	46319.20
587.06	46075.79
587.22	46108.55
587.38	46066.42
587.54	46398.78
587.70	46504.10
587.86	46471.34
588.02	46691.35
588.18	46354.31
588.34	46265.37
588.49	46452.61
588.65	46291.12
588.81	46358.99
588.97	46820.08
589.13	46256.01
589.29	46382.40
589.45	46522.83
589.61	46454.95
589.77	46820.08
589.93	46466.66
590.08	46349.63
590.24	46890.29
590.40	46831.78
590.56	47070.51
590.72	46902.00
590.88	46380.06
591.04	46384.74
591.20	46335.59
591.35	46876.25
591.51	46784.97
591.67	47285.84
591.83	46656.24
591.99	46515.81
592.15	46637.51
592.31	46686.67
592.46	46618.79
592.62	46969.87
592.78	46817.74
592.94	46621.13
593.10	46829.44
593.26	47114.98
593.41	47152.43
593.57	46829.44
593.73	46829.44
593.89	47215.63
594.05	47157.11
594.20	47091.58
594.36	47037.75
594.52	47026.04
594.68	46988.60
594.84	46330.90
594.99	47379.46
595.15	47234.35
595.31	47084.56
595.47	46902.00
595.62	46965.19
595.78	46965.19
595.94	47166.48
596.10	47227.33
596.25	47049.45
596.41	47292.86
596.57	46651.56
596.73	47194.56
596.88	47232.01
597.04	46621.13
597.20	47019.02
597.36	47016.68
597.51	47456.70
597.67	47159.45
597.83	47131.37
597.99	47349.04
598.14	47192.22
598.30	46953.49
598.46	47040.09
598.61	46965.19
598.77	47040.09
598.93	46876.25
599.09	47489.47
599.24	47182.86
599.40	47445.00
599.56	47334.99
599.71	47196.90
599.87	47508.19
600.03	47529.26
600.18	47243.71
600.34	46927.74
600.50	47409.89
600.65	47302.23
600.81	47782.04
600.97	47229.67
601.12	47185.20
601.28	46768.58
601.44	46789.65
601.59	46958.17
601.75	47037.75
601.91	47070.51
602.06	47054.13
602.22	47571.39
602.37	47290.52
602.53	47210.95
602.69	47175.84
602.84	46906.68
603.00	46899.65
603.16	46951.15
603.31	47339.68
603.47	47428.62
603.62	47210.95
603.78	47416.91
603.94	47133.71
604.09	47161.79
604.25	47248.39
604.40	47143.07
604.56	46770.93
604.71	47269.46
604.87	47122.01
605.03	46726.46
605.18	47072.85
605.34	47311.59
605.49	47051.79
605.65	47416.91
605.80	47157.11
605.96	47105.62
606.12	47379.46
606.27	47096.26
606.43	46801.35
606.58	47271.80
606.74	46988.60
606.89	47454.36
607.05	47473.09
607.20	47150.09
607.36	47129.03
607.51	47009.66
607.67	47185.20
607.82	47129.03
607.98	46864.55
608.13	47065.83
608.29	46660.92
608.44	47370.10
608.60	46995.62
608.75	46878.59
608.91	47033.07
609.06	46988.60
609.22	47232.01
609.37	46719.43
609.53	46813.05
609.68	47084.56
609.84	46873.91
609.99	46700.71
610.15	46691.35
610.30	46515.81
610.46	46740.50
610.61	46855.18
610.76	46906.68
610.92	46674.96
611.07	46649.22
611.23	46298.14
611.38	46670.28
611.54	46862.21
611.69	46822.42
611.84	46763.90
612.00	46770.93
612.15	46564.96
612.31	47047.11
612.46	46616.45
612.62	46366.01
612.77	46508.79
612.92	46871.57
613.08	46480.70
613.23	46520.49
613.39	46604.75
613.54	46447.93
613.69	47012.00
613.85	46579.00
614.00	46464.32
614.15	46672.62
614.31	46560.28
614.46	46567.30
614.62	46335.59
614.77	46415.16
614.92	46749.86
615.08	46897.31
615.23	46541.55
615.38	47033.07
615.54	46354.31
615.69	46431.55
615.84	46270.05
616.00	46880.93
616.15	46513.47
616.30	46665.60
616.46	46440.91
616.61	46408.14
616.76	46567.30
616.92	46050.04
617.07	46270.05
617.22	46309.84
617.37	45846.41
617.53	46433.89
617.68	45949.40
617.83	46171.75
617.99	46422.19
618.14	46354.31
618.29	46021.95
618.45	45984.51
618.60	45563.21
618.75	45572.57
618.90	45689.60
619.06	45942.38
619.21	45759.81
619.36	46129.62
619.51	45619.38
619.67	45902.59
619.82	45961.10
619.97	45881.52
620.12	45581.93
620.28	45659.17
620.43	46120.26
620.58	45858.12
620.73	46052.38
620.89	46131.96
621.04	46178.77
621.19	45776.20
621.34	45633.42
621.49	45467.25
621.65	45818.33
621.80	46150.68
621.95	45567.89
622.10	45787.90
622.25	45886.20
622.41	45701.30
622.56	45635.77
622.71	45776.20
622.86	45570.23
623.01	45539.80
623.16	45581.93
623.32	45366.60
623.47	45535.12
623.62	45488.31
623.77	45422.78
623.92	45401.71
624.07	45631.08
624.23	45879.18
624.38	45818.33
624.53	45221.49
624.68	44935.95
624.83	45195.74
624.98	45242.56
625.13	44856.37
625.29	45261.28
625.44	45689.60
625.59	44868.07
625.74	45219.15
625.89	45305.75
626.04	44872.75
626.19	44856.37
626.34	44807.22
626.49	44722.96
626.65	44189.31
626.80	44718.28
626.95	44678.49
627.10	44690.19
627.25	44891.48
627.40	45329.16
627.55	45256.60
627.70	44987.44
627.85	45132.55
628.00	44699.55
628.15	45116.17
628.30	44678.49
628.45	44240.81
628.60	44142.50
628.76	44521.67
628.91	44409.32
629.06	44362.51
629.21	44301.66
629.36	44313.36
629.51	44264.21
629.66	44540.39
629.81	44231.44
629.96	44261.87
630.11	44715.93
630.26	43854.62
630.41	44133.14
630.56	44252.51
630.71	44320.38
630.86	44488.90
631.01	44060.58
631.16	44369.54
631.31	43819.51
631.46	44285.28
631.61	44655.08
631.76	44442.09
631.91	44201.02
632.06	44371.88
632.21	44460.82
632.36	44067.61
632.51	43812.49
632.66	44261.87
632.81	44266.55
632.96	44168.25
633.10	43592.48
633.25	43990.37
633.40	43920.15
633.55	44112.08
633.70	43672.06
633.85	43894.41
634.00	43613.54
634.15	43622.90
634.30	43889.73
634.45	44083.99
634.60	43590.14
634.75	43817.17
634.90	43887.39
635.05	43999.73
635.19	43517.58
635.34	43320.98
635.49	43665.03
635.64	43346.72
635.79	43952.92
635.94	43283.53
636.09	43445.02
636.24	43859.30
636.39	43339.70
636.53	43388.85
636.68	43196.93
636.83	42939.47
636.98	43016.71
637.13	43351.40
637.28	43213.31
637.43	43100.97
637.57	43508.22
637.72	42679.67
637.87	43234.38
638.02	43189.91
638.17	43442.68
638.32	43133.73
638.46	42773.29
638.61	43023.73
638.76	42897.34
638.91	42880.95
639.06	42925.42
639.20	42572.00
639.35	42689.03
639.50	42286.46
639.65	42855.21
639.80	42873.93
639.94	42902.02
640.09	42843.51
640.24	42459.66
640.39	42705.41
640.54	42223.26
640.68	42960.53
640.83	43157.14
640.98	42838.83
641.13	42251.35
641.27	42981.60
641.42	42572.00
641.57	42454.98
641.72	42501.79
641.86	42543.92
642.01	42164.75
642.16	42033.68
642.31	42000.91
642.45	42569.66
642.60	41806.65
642.75	42204.54
642.90	42792.01
643.04	42651.58
643.19	42181.13
643.34	41790.27
643.48	42103.90
643.63	42068.79
643.78	42417.53
643.93	42188.16
644.07	42611.79
644.22	42071.13
644.37	41776.22
644.51	42284.12
644.66	42064.11
644.81	42047.72
644.95	42019.64
645.10	41722.39
645.25	41273.01
645.39	41490.68
645.54	41694.30
645.69	41277.69
645.83	41397.06
645.98	41535.15
646.13	41631.11
646.27	41516.42
646.42	41357.27
646.57	41806.65
646.71	41682.60
646.86	41895.59
647.00	41689.62
647.15	41816.01
647.30	42012.62
647.44	41345.56
647.59	41493.02
647.74	41528.13
647.88	41858.14
648.03	41706.01
648.17	41516.42
648.32	41221.52
648.47	41837.08
648.61	41095.13
648.76	41294.07
648.90	41312.80
649.05	41193.43
649.20	41446.21
649.34	41085.76
649.49	41542.17
649.63	41177.04
649.78	41408.76
649.92	41600.68
650.07	41476.63
650.21	41404.08
650.36	41523.44
650.51	41296.41
650.65	41481.31
650.80	41368.97
650.94	41202.79
651.09	41167.68
651.23	40704.26
651.38	40542.76
651.52	40540.42
651.67	40772.13
651.81	40755.75
651.96	40739.36
652.10	40591.91
652.25	40622.34
652.39	40692.55
652.54	40924.27
652.68	40559.14
652.83	41008.53
652.97	40524.04
653.12	40680.85
653.26	40832.99
653.41	40439.78
653.55	40889.16
653.70	40739.36
653.84	40875.12
653.99	40882.14
654.13	40491.27
654.27	40112.10
654.42	40800.22
654.56	40301.68
654.71	40435.10
654.85	40605.95
655.00	40538.08
655.14	40343.81
655.29	40222.11
655.43	40961.72
655.57	40114.44
655.72	39730.59
655.86	39920.18
656.01	39789.11
656.15	39978.69
656.30	40098.06
656.44	40128.48
656.58	39931.88
656.73	39903.79
656.87	39936.56
657.01	39716.55
657.16	40039.54
657.30	40037.20
657.45	39866.34
657.59	39978.69
657.73	39636.97
657.88	39798.47
658.02	40095.72
658.16	39889.75
658.31	39793.79
658.45	39735.27
658.60	39386.54
658.74	39328.02
658.88	39625.27
659.03	39391.22
659.17	39112.69
659.31	39332.70
659.46	38803.74
659.60	39585.48
659.74	39075.24
659.89	38899.70
660.03	38579.05
660.17	39278.87
660.32	39112.69
660.46	38998.01
660.60	38691.40
660.74	38637.56
660.89	38878.64
661.03	38356.70
661.17	38176.48
661.32	38775.66
661.46	38543.94
661.60	38115.62
661.74	38511.17
661.89	38672.67
662.03	38644.59
662.17	38445.64
662.31	38094.56
662.46	38513.52
662.60	38314.57
662.74	38022.00
662.88	38293.50
663.03	37813.70
663.17	37811.35
663.31	37720.07
663.45	38291.16
663.60	38043.07
663.74	38099.24
663.88	38220.95
664.02	37809.01
664.17	38043.07
664.31	37460.27
664.45	37626.45
664.59	37156.00
664.73	37254.31
664.88	37558.58
665.02	36940.68
665.16	37514.11
665.30	37481.34
665.44	37670.92
665.59	36999.19
665.73	36851.73
665.87	36519.38
666.01	37092.81
666.15	36694.92
666.29	37031.96
666.44	36854.08
666.58	37099.83
666.72	36510.02
666.86	36830.67
667.00	36587.25
667.14	36392.99
667.28	36767.48
667.43	36442.14
667.57	36840.03
667.71	36694.92
667.85	36425.76
667.99	36418.74
668.13	35948.29
668.27	35763.39
668.41	36077.02
668.56	35622.95
668.70	35707.21
668.84	35824.24
668.98	35688.49
669.12	36037.23
669.26	36095.74
669.40	35854.67
669.54	35826.58
669.68	35730.62
669.82	35213.36
669.96	35002.71
670.10	34810.79
670.25	35182.93
670.39	34998.03
670.53	35346.77
670.67	35079.95
670.81	35756.36
670.95	34939.52
671.09	35194.64
671.23	34871.64
671.37	35012.07
671.51	34714.83
671.65	34684.40
671.79	34532.26
671.93	35171.23
672.07	34618.86
672.21	34518.22
672.35	34211.61
672.49	34487.79
672.63	34417.58
672.77	34199.91
672.91	33895.64
673.05	33940.11
673.19	33881.60
673.33	33834.78
673.47	33572.64
673.61	33598.39
673.75	33467.32
673.89	33682.65
674.03	33551.58
674.17	33319.87
674.31	32847.08
674.45	33034.32
674.59	32823.67
674.73	32826.01
674.87	32905.59
675.01	32666.86
675.15	32458.55
675.29	32343.86
675.43	32620.05
675.56	32786.22
675.70	32479.61
675.84	32397.70
675.98	31393.61
676.12	32252.58
676.26	32350.88
676.40	32046.62
676.54	31967.04
676.68	31960.02
676.82	31035.50
676.96	31709.58
677.10	31573.83
677.23	31587.87
677.37	31688.51
677.51	31346.79
677.65	31431.05
677.79	31601.91
677.93	31126.78
678.07	31009.76
678.21	30768.68
678.34	30937.20
678.48	30258.45
678.62	30628.25
678.76	30394.20
678.90	30429.30
679.04	30263.13
679.18	30572.08
679.31	30307.60
679.45	30064.18
679.59	29703.74
679.73	30061.84
679.87	29567.99
680.00	29490.75
680.14	29764.59
680.28	29460.32
680.42	29181.80
680.56	28999.24
680.70	29137.33
680.83	28828.38
680.97	29057.75
681.11	28788.59
681.25	28465.60
681.39	28428.15
681.52	28617.73
681.66	28423.47
681.80	28161.33
681.94	27819.61
682.07	28416.44
682.21	27887.48
682.35	27868.76
682.49	27875.78
682.62	27688.54
682.76	27777.48
682.90	27594.92
683.04	27424.06
683.17	27674.49
683.31	27714.28
683.45	27274.26
683.59	26899.78
683.72	26738.28
683.86	27220.43
684.00	26733.60
684.13	26848.29
684.27	26780.41
684.41	26534.65
684.55	26689.13
684.68	26389.54
684.82	26263.15
684.96	26717.22
685.09	26162.51
685.23	25905.05
685.37	26703.17
685.50	26331.03
685.64	26129.74
685.78	25902.71
685.91	26085.27
686.05	25509.50
686.19	25343.32
686.32	25390.13
686.46	24861.17
686.60	24666.91
686.73	25067.14
686.87	24725.42
687.01	24755.85
687.14	24856.49
687.28	24477.32
687.42	24680.95
687.55	24596.69
687.69	24470.30
687.82	24137.94
687.96	24072.41
688.10	24308.80
688.23	24212.84
688.37	24182.42
688.50	24215.18
688.64	24039.64
688.78	23800.91
688.91	23723.67
689.05	23608.98
689.18	23513.02
689.32	23070.66
689.46	23213.43
689.59	23150.24
689.73	23192.37
689.86	23260.24
690.00	23398.34
690.13	22963.00
690.27	22696.17
690.41	22799.16
690.54	22305.31
690.68	22686.81
690.81	22419.99
690.95	22244.45
691.08	22068.91
691.22	22047.85
691.35	22335.73
691.49	21996.35
691.62	22136.79
691.76	21612.51
691.89	21390.16
692.03	21305.90
692.16	21092.91
692.30	21598.46
692.43	21198.23
692.57	21095.25
692.70	21006.31
692.84	21027.37
692.97	20669.27
693.11	20690.34
693.24	20596.71
693.38	20545.22
693.51	20332.23
693.65	20372.02
693.78	20189.46
693.92	20175.42
694.05	19913.28
694.19	20130.95
694.32	20074.77
694.45	20264.36
694.59	19974.13
694.72	19810.29
694.86	19597.31
694.99	19428.79
695.13	19431.13
695.26	19510.71
695.39	19421.77
695.53	19084.73
695.66	19103.45
695.80	19208.78
695.93	18864.72
696.07	18541.72
696.20	18616.62
696.33	18361.50
696.47	18150.85
696.60	18305.33
696.73	18684.50
696.87	18597.90
697.00	18384.91
697.14	18036.17
697.27	18237.45
697.40	17839.56
697.54	17867.65
697.67	18082.98
697.80	17837.22
697.94	17507.21
698.07	17507.21
698.21	17593.81
698.34	17743.60
698.47	17256.77
698.61	16985.27
698.74	16971.22
698.87	17135.06
699.01	17032.08
699.14	16730.15
699.27	16812.07
699.40	16884.62
699.54	16858.88
699.67	16552.27
699.80	16734.83
699.94	16638.87
700.07	16643.55
700.20	16212.89
700.34	16255.02
700.47	16472.69
700.60	16325.24
700.73	16180.12
700.87	16077.14
701.00	15749.46
701.13	15391.36
701.26	15648.82
701.40	15686.27
701.53	15587.97
701.66	15817.34
701.79	15592.65
701.93	15293.06
702.06	14892.83
702.19	14949.00
702.32	15304.76
702.46	15150.29
702.59	15190.08
702.72	15344.55
702.85	15070.71
702.99	15098.80
703.12	14714.95
703.25	14370.89
703.38	14485.58
703.51	14602.60
703.65	14373.23
703.78	14377.91
703.91	14141.52
704.04	14136.84
704.17	14118.11
704.31	14270.25
704.44	13947.25
704.57	14012.79
704.70	14075.98
704.83	13881.72
704.96	13633.62
705.10	13654.69
705.23	13591.49
>>>>>End Processed Spectral Data<<<<<
