SpectraSuite Data File
++++++++++++++++++++++++++++++++++++
Date: Fri Oct 25 11:33:32 EDT 2013
User: price-jones
Dark Spectrum Present: No
Reference Spectrum Present: No
Number of Sampled Component Spectra: 1
Spectrometers: USB2+H05261
Integration Time (usec): 100000 (USB2+H05261)
Spectra Averaged: 1 (USB2+H05261)
Boxcar Smoothing: 0 (USB2+H05261)
Correct for Electrical Dark: No (USB2+H05261)
Strobe/Lamp Enabled: No (USB2+H05261)
Correct for Detector Non-linearity: No (USB2+H05261)
Correct for Stray Light: No (USB2+H05261)
Number of Pixels in Processed Spectrum: 2048
>>>>>Begin Processed Spectral Data<<<<<
365.73	259.80
365.92	259.80
366.12	259.80
366.32	280.86
366.52	184.90
366.72	217.67
366.91	145.11
367.11	198.95
367.31	121.71
367.51	173.20
367.70	147.45
367.90	259.80
368.10	205.97
368.30	161.50
368.49	175.54
368.69	187.24
368.89	177.88
369.09	255.12
369.28	241.08
369.48	212.99
369.68	238.73
369.87	234.05
370.07	266.82
370.27	294.91
370.47	330.02
370.66	482.15
370.86	475.13
371.06	491.51
371.25	535.98
371.45	507.90
371.65	615.56
371.84	580.45
372.04	585.13
372.24	571.09
372.44	580.45
372.63	533.64
372.83	596.84
373.03	594.50
373.22	585.13
373.42	610.88
373.62	730.25
373.81	795.78
374.01	683.44
374.21	645.99
374.40	664.71
374.60	676.41
374.79	730.25
374.99	657.69
375.19	697.48
375.38	655.35
375.58	650.67
375.78	657.69
375.97	692.80
376.17	713.86
376.37	631.94
376.56	613.22
376.76	648.33
376.95	671.73
377.15	702.16
377.35	718.54
377.54	671.73
377.74	704.50
377.93	716.20
378.13	711.52
378.33	711.52
378.52	674.07
378.72	737.27
378.91	755.99
379.11	753.65
379.31	636.63
379.50	648.33
379.70	674.07
379.89	704.50
380.09	732.59
380.28	779.40
380.48	753.65
380.68	774.72
380.87	772.38
381.07	713.86
381.26	802.80
381.46	699.82
381.65	725.57
381.85	814.51
382.04	807.48
382.24	763.01
382.43	791.10
382.63	737.27
382.83	753.65
383.02	779.40
383.22	840.25
383.41	779.40
383.61	784.08
383.80	781.74
384.00	746.63
384.19	830.89
384.39	791.10
384.58	812.17
384.78	798.12
384.97	858.98
385.17	870.68
385.36	809.83
385.56	873.02
385.75	833.23
385.95	856.64
386.14	877.70
386.34	816.85
386.53	854.30
386.72	908.13
386.92	922.17
387.11	894.08
387.31	863.66
387.50	847.27
387.70	856.64
387.89	919.83
388.09	954.94
388.28	908.13
388.48	896.43
388.67	929.19
388.86	840.25
389.06	943.24
389.25	987.71
389.45	833.23
389.64	954.94
389.84	1036.86
390.03	945.58
390.22	1020.47
390.42	973.66
390.61	929.19
390.81	940.90
391.00	976.00
391.19	1006.43
391.39	1027.50
391.58	1053.24
391.78	1048.56
391.97	945.58
392.16	1001.75
392.36	1060.26
392.55	1078.99
392.75	1067.28
392.94	1022.81
393.13	1034.52
393.33	1081.33
393.52	1036.86
393.71	1174.95
393.91	1156.22
394.10	1078.99
394.29	1011.11
394.49	1121.12
394.68	1193.67
394.88	1076.65
395.07	1090.69
395.26	1093.03
395.46	1090.69
395.65	1240.48
395.84	1200.69
396.04	1235.80
396.23	1123.46
396.42	1107.07
396.62	1160.91
396.81	1217.08
397.00	1233.46
397.19	1212.40
397.39	1299.00
397.58	1256.87
397.77	1219.42
397.97	1324.74
398.16	1245.16
398.35	1341.13
398.55	1184.31
398.74	1245.16
398.93	1315.38
399.12	1343.47
399.32	1348.15
399.51	1338.79
399.70	1451.13
399.90	1336.45
400.09	1287.29
400.28	1406.66
400.47	1303.68
400.67	1387.94
400.86	1383.26
401.05	1341.13
401.24	1434.75
401.44	1446.45
401.63	1472.20
401.82	1490.92
402.01	1434.75
402.21	1483.90
402.40	1460.49
402.59	1579.86
402.78	1523.69
402.97	1558.80
403.17	1479.22
403.36	1568.16
403.55	1514.33
403.74	1626.67
403.93	1577.52
404.13	1495.60
404.32	1547.09
404.51	1486.24
404.70	1603.27
404.89	1596.25
405.09	1734.34
405.28	1657.10
405.47	1680.50
405.66	1652.42
405.85	1645.40
406.05	1710.93
406.24	1757.74
406.43	1748.38
406.62	1748.38
406.81	1902.86
407.00	1734.34
407.20	1757.74
407.39	1797.53
407.58	1818.60
407.77	1879.45
407.96	1942.64
408.15	1909.88
408.34	1961.37
408.54	1898.17
408.73	1872.43
408.92	1774.13
409.11	1877.11
409.30	1984.77
409.49	1895.83
409.68	2005.84
409.87	1998.82
410.07	2078.40
410.26	2050.31
410.45	1994.14
410.64	2043.29
410.83	2125.21
411.02	2153.29
411.21	2069.03
411.40	2258.62
411.59	2136.91
411.78	2122.87
411.98	2277.34
412.17	2251.60
412.36	2153.29
412.55	2338.20
412.74	2483.31
412.93	2415.43
413.12	2293.72
413.31	2338.20
413.50	2310.11
413.69	2473.95
413.88	2597.99
414.07	2495.01
414.26	2483.31
414.45	2551.18
414.64	2539.48
414.83	2579.27
415.02	2726.72
415.22	2569.91
415.41	2609.70
415.60	2661.19
415.79	2703.32
415.98	2708.00
416.17	2754.81
416.36	2729.06
416.55	2757.15
416.74	2773.53
416.93	2911.63
417.12	2822.69
417.31	2832.05
417.50	2937.37
417.69	2902.26
417.88	3005.25
418.07	2850.77
418.26	2925.67
418.45	2977.16
418.64	3040.36
418.83	3089.51
419.02	3007.59
419.21	3054.40
419.39	3145.68
419.58	3056.74
419.77	3117.59
419.96	3159.72
420.15	3080.14
420.34	3155.04
420.53	3155.04
420.72	3229.94
420.91	3073.12
421.10	3208.87
421.29	3201.85
421.48	3227.60
421.67	3258.03
421.86	3363.35
422.05	3269.73
422.24	3480.38
422.43	3386.76
422.61	3337.60
422.80	3375.05
422.99	3426.54
423.18	3403.14
423.37	3398.46
423.56	3410.16
423.75	3316.54
423.94	3300.16
424.13	3178.45
424.32	3297.81
424.50	3576.34
424.69	3445.27
424.88	3562.30
425.07	3440.59
425.26	3290.79
425.45	3447.61
425.64	3475.70
425.83	3414.84
426.01	3508.46
426.20	3454.63
426.39	3482.72
426.58	3515.48
426.77	3492.08
426.96	3545.91
427.15	3508.46
427.33	3473.36
427.52	3632.51
427.71	3606.77
427.90	3644.21
428.09	3665.28
428.28	3655.92
428.46	3801.03
428.65	3719.11
428.84	3815.07
429.03	3819.75
429.22	3698.05
429.40	3737.84
429.59	3758.90
429.78	3531.87
429.97	3665.28
430.16	3709.75
430.34	3747.20
430.53	3794.01
430.72	3943.80
430.91	3943.80
431.10	3885.29
431.28	3906.35
431.47	4149.77
431.66	4028.06
431.85	4002.32
432.03	4093.60
432.22	4100.62
432.41	3906.35
432.60	4021.04
432.79	4004.66
432.97	4109.98
433.16	4156.79
433.35	4133.39
433.54	4198.92
433.72	4077.21
433.91	4194.24
434.10	4100.62
434.28	4093.60
434.47	4264.46
434.66	4297.22
434.85	4348.72
435.03	4465.74
435.22	4332.33
435.41	4491.49
435.59	4311.27
435.78	4339.35
435.97	4404.89
436.16	4273.82
436.34	4454.04
436.53	4372.12
436.72	4624.90
436.90	4447.02
437.09	4470.42
437.28	4397.87
437.46	4458.72
437.65	4519.57
437.84	4542.98
438.02	4631.92
438.21	4730.22
438.40	4606.17
438.58	4674.05
438.77	4858.95
438.96	4760.65
439.14	4816.82
439.33	4926.83
439.52	4779.37
439.70	4950.23
439.89	4854.27
440.08	5032.15
440.26	5135.14
440.45	5036.83
440.63	5191.31
440.82	5156.20
441.01	5172.58
441.19	5238.12
441.38	5212.37
441.57	5359.83
441.75	5334.08
441.94	5273.23
442.12	5338.76
442.31	5413.66
442.50	5446.43
442.68	5423.02
442.87	5320.04
443.05	5554.09
443.24	5661.76
443.43	5540.05
443.61	5675.80
443.80	5652.39
443.98	5586.86
444.17	5184.29
444.35	5558.77
444.54	5727.29
444.73	5781.12
444.91	5554.09
445.10	5654.73
445.28	5650.05
445.47	5671.12
445.65	5600.90
445.84	5584.52
446.02	5596.22
446.21	5720.27
446.39	5598.56
446.58	5776.44
446.77	5626.65
446.95	5710.91
447.14	5699.20
447.32	5884.11
447.51	5731.97
447.69	5750.70
447.88	5788.14
448.06	5778.78
448.25	5837.30
448.43	5823.25
448.62	5879.43
448.80	5912.19
448.99	5846.66
449.17	5954.32
449.36	5914.53
449.54	5940.28
449.73	5996.45
449.91	6183.70
450.10	5975.39
450.28	6193.06
450.46	6073.69
450.65	6003.47
450.83	6155.61
451.02	6134.54
451.20	6200.08
451.39	6193.06
451.57	6345.19
451.76	6228.17
451.94	6099.44
452.13	6279.66
452.31	6242.21
452.49	6104.12
452.68	6303.06
452.86	6368.60
453.05	6408.39
453.23	6586.27
453.42	6272.64
453.60	6312.42
453.78	6396.68
453.97	6363.92
454.15	6623.72
454.34	6396.68
454.52	6682.23
454.70	6487.96
454.89	6480.94
455.07	6520.73
455.26	6597.97
455.44	6654.14
455.62	6616.69
455.81	6642.44
455.99	6731.38
456.17	6759.47
456.36	6761.81
456.54	6876.49
456.73	6965.43
456.91	6822.66
457.09	7061.40
457.28	7089.48
457.46	7037.99
457.64	7002.88
457.83	6909.26
458.01	7030.97
458.19	7300.13
458.38	7250.98
458.56	7098.84
458.74	7157.36
458.93	7162.04
459.11	7082.46
459.29	7449.93
459.48	7330.56
459.66	7239.28
459.84	7255.66
460.03	7468.65
460.21	7470.99
460.39	7585.68
460.57	7396.09
460.76	7487.37
460.94	7330.56
461.12	7494.40
461.31	7583.34
461.49	7709.72
461.67	7501.42
461.85	7822.07
462.04	7541.21
462.22	8049.10
462.40	7782.28
462.59	7751.85
462.77	7618.44
462.95	7716.75
463.13	7754.19
463.32	7751.85
463.50	7868.88
463.68	7847.82
463.86	7852.50
464.05	7765.90
464.23	7922.71
464.41	7892.29
464.59	7913.35
464.78	8077.19
464.96	7932.08
465.14	7784.62
465.32	7960.16
465.50	8053.78
465.69	8124.00
465.87	8264.43
466.05	8271.45
466.23	8053.78
466.41	8297.20
466.60	8161.45
466.78	8077.19
466.96	8203.58
467.14	8231.66
467.32	8353.37
467.51	8341.67
467.69	8009.31
467.87	8278.47
468.05	8486.78
468.23	8409.54
468.41	8542.96
468.60	8229.32
468.78	8428.27
468.96	8393.16
469.14	8421.25
469.32	8667.00
469.50	8493.80
469.69	8720.84
469.87	8718.50
470.05	8795.73
470.23	8865.95
470.41	8765.31
470.59	8833.18
470.77	8905.74
470.95	8786.37
471.14	9036.81
471.32	8772.33
471.50	9046.17
471.68	8987.66
471.86	9430.02
472.04	9139.79
472.22	9479.17
472.40	9128.09
472.58	9224.05
472.77	9446.40
472.95	9493.21
473.13	9577.47
473.31	9327.03
473.49	9561.09
473.67	9392.57
473.85	9724.93
474.03	9575.13
474.21	9563.43
474.39	9949.62
474.57	9792.80
474.75	9980.04
474.93	9783.44
475.12	9891.10
475.30	10104.09
475.48	10097.07
475.66	10223.46
475.84	10010.47
476.02	10303.04
476.20	10387.30
476.38	10382.62
476.56	10530.07
476.74	10588.58
476.92	10630.71
477.10	10356.87
477.28	10827.32
477.46	10621.35
477.64	10733.70
477.82	10974.77
478.00	11103.50
478.18	11232.23
478.36	11302.45
478.54	11363.30
478.72	11489.69
478.90	11595.01
479.08	11632.46
479.26	11728.42
479.44	11705.02
479.62	11705.02
479.80	11857.15
479.98	12093.55
480.16	12173.13
480.34	12325.26
480.52	12468.03
480.70	12219.94
480.88	12060.78
481.06	12453.99
481.24	12407.18
481.41	12643.57
481.59	12610.81
481.77	12674.00
481.95	13011.04
482.13	12922.10
482.31	13128.06
482.49	13125.72
482.67	13518.93
482.85	13544.68
483.03	13516.59
483.21	13706.18
483.39	13832.57
483.57	13895.76
483.74	13752.99
483.92	14015.13
484.10	13977.68
484.28	14253.86
484.46	14581.54
484.64	14738.35
484.82	14443.45
485.00	14679.84
485.18	14932.62
485.35	15037.94
485.53	14867.08
485.71	14984.11
485.89	15311.78
486.07	15161.99
486.25	15468.60
486.43	15646.48
486.61	15864.15
486.78	15751.81
486.96	15826.70
487.14	16114.59
487.32	16245.66
487.50	16435.24
487.68	16519.50
487.85	16704.40
488.03	16800.37
488.21	16828.45
488.39	16751.21
488.57	17303.58
488.75	17078.89
488.92	17472.10
489.10	17528.27
489.28	17853.61
489.46	17937.87
489.64	17827.86
489.81	18097.02
489.99	18190.64
490.17	18263.20
490.35	18483.21
490.53	18576.83
490.70	18658.75
490.88	18422.36
491.06	18881.10
491.24	18836.63
491.41	19058.98
491.59	18944.30
491.77	19246.23
491.95	19412.40
492.13	19356.23
492.30	19463.90
492.48	19655.82
492.66	19920.30
492.84	20046.69
493.01	20187.12
493.19	20367.34
493.37	20467.98
493.54	20180.10
493.72	20994.61
493.90	20678.63
494.08	20753.53
494.25	20964.18
494.43	20919.71
494.61	21081.21
494.79	21081.21
494.96	21231.00
495.14	21551.65
495.32	21682.72
495.49	21874.65
495.67	21631.23
495.85	22148.49
496.02	22204.66
496.20	22270.20
496.38	22462.12
496.55	22363.82
496.73	22572.13
496.91	22492.55
497.09	22759.37
497.26	23049.60
497.44	23126.83
497.62	23175.98
497.79	23396.00
497.97	23222.80
498.14	23655.79
498.32	23730.69
498.50	23915.59
498.67	24093.47
498.85	23445.15
499.03	24074.75
499.20	24245.61
499.38	24196.46
499.56	24346.25
499.73	24360.30
499.91	24432.85
500.08	24751.17
500.26	25071.82
500.44	24645.84
500.61	25135.01
500.79	24966.49
500.97	25029.69
501.14	25617.16
501.32	25212.25
501.49	25022.67
501.67	25429.92
501.84	25514.18
502.02	25467.37
502.20	25600.78
502.37	25792.70
502.55	25553.97
502.72	25961.22
502.90	25872.28
503.07	26029.10
503.25	26206.98
503.43	26164.85
503.60	26527.63
503.78	26590.83
503.95	26558.06
504.13	26665.72
504.30	26799.13
504.48	26448.05
504.65	26857.65
504.83	27058.93
505.01	27117.45
505.18	27274.26
505.36	27435.76
505.53	27234.47
505.71	27386.61
505.88	27735.35
506.06	27351.50
506.23	27704.92
506.41	27627.68
506.58	27938.97
506.76	27756.41
506.93	28119.20
507.11	27744.71
507.28	28175.37
507.46	28491.34
507.63	28240.90
507.81	28568.58
507.98	28231.54
508.16	28484.32
508.33	28606.03
508.50	28933.70
508.68	28772.21
508.85	29345.64
509.03	29186.48
509.20	28659.86
509.38	29298.83
509.55	29095.20
509.73	29158.39
509.90	29680.33
510.08	29355.00
510.25	29500.11
510.42	29694.38
510.60	29914.39
510.77	30024.39
510.95	29984.60
511.12	29759.91
511.30	30043.12
511.47	29986.94
511.64	30101.63
511.82	30352.07
511.99	30256.11
512.17	30410.58
512.34	30480.80
512.51	30810.81
512.69	30778.04
512.86	30375.47
513.04	31108.06
513.21	30855.28
513.38	31311.69
513.56	31087.00
513.73	31002.74
513.90	31358.50
514.08	31262.54
514.25	31503.61
514.43	31821.92
514.60	31608.93
514.77	31789.16
514.95	31456.80
515.12	31590.21
515.29	31920.23
515.47	31686.17
515.64	32268.97
515.81	31735.32
515.99	32044.27
516.16	32685.58
516.33	32336.84
516.51	32301.73
516.68	32245.56
516.85	32697.28
517.03	32629.41
517.20	32769.84
517.37	32779.20
517.54	32767.50
517.72	33127.94
517.89	32725.37
518.06	32903.25
518.24	32716.01
518.41	33202.84
518.58	33317.53
518.75	33111.56
518.93	33397.10
519.10	33495.41
519.27	33567.96
519.45	33610.09
519.62	33511.79
519.79	34110.97
519.96	33591.37
520.14	33614.77
520.31	33769.25
520.48	34080.54
520.65	34265.44
520.83	34293.53
521.00	34246.72
521.17	34387.15
521.34	34396.51
521.52	34590.78
521.69	34330.98
521.86	34918.45
522.03	34471.41
522.20	34763.98
522.38	34902.07
522.55	34899.73
522.72	34892.71
522.89	34941.86
523.07	35601.89
523.24	35147.82
523.41	35445.07
523.58	35065.91
523.75	35625.29
523.92	35494.22
524.10	35688.49
524.27	35644.02
524.44	35761.05
524.61	35981.06
524.78	35665.08
524.96	36004.46
525.13	36107.44
525.30	36320.43
525.47	36348.52
525.64	36526.40
525.81	36699.60
525.98	36465.55
526.16	36416.40
526.33	36385.97
526.50	36662.15
526.67	36484.27
526.84	36327.45
527.01	36638.75
527.18	36943.02
527.36	36863.44
527.53	37467.30
527.70	37038.98
527.87	36877.48
528.04	37347.93
528.21	37656.88
528.38	37148.98
528.55	37436.87
528.72	37074.09
528.89	37404.10
529.07	36910.25
529.24	37214.52
529.41	37493.04
529.58	37537.51
529.75	37390.06
529.92	37530.49
530.09	37551.56
530.26	37727.10
530.43	37883.91
530.60	37570.28
530.77	37743.48
530.94	38157.75
531.11	37940.08
531.28	38054.77
531.46	37979.87
531.63	38183.50
531.80	38054.77
531.97	38279.46
532.14	38387.13
532.31	38337.98
532.48	38770.97
532.65	38602.46
532.82	38583.73
532.99	38768.63
533.16	38565.01
533.33	38904.38
533.50	39086.95
533.67	39000.35
533.84	38476.07
534.01	38813.10
534.18	38897.36
534.35	39505.90
534.52	39887.41
534.69	39323.34
534.86	39381.85
535.03	39044.82
535.20	39316.32
535.37	39119.71
535.54	39552.71
535.71	39461.43
535.88	39583.14
536.05	39693.15
536.22	39742.30
536.38	39796.13
536.55	39531.65
536.72	39941.24
536.89	39365.47
537.06	40304.02
537.23	40081.67
537.40	39812.51
537.57	40027.84
537.74	39927.20
537.91	40339.13
538.08	39800.81
538.25	40023.16
538.42	40381.26
538.59	40456.16
538.75	40552.12
538.92	40580.21
539.09	41099.81
539.26	40137.85
539.43	40704.26
539.60	40697.24
539.77	40442.12
539.94	40849.37
540.11	40868.09
540.28	40748.73
540.44	40917.25
540.61	41027.25
540.78	41141.94
540.95	41102.15
541.12	40678.51
541.29	41038.95
541.46	41127.89
541.62	41387.69
541.79	41387.69
541.96	40898.52
542.13	41120.87
542.30	40940.65
542.47	41214.49
542.63	41698.98
542.80	41336.20
542.97	41818.35
543.14	41708.35
543.31	41853.46
543.48	41890.91
543.64	42557.96
543.81	41902.61
543.98	42356.67
544.15	41425.14
544.32	42075.81
544.48	42316.89
544.65	42609.45
544.82	42499.45
544.99	42094.53
545.16	41956.44
545.32	42059.43
545.49	42925.42
545.66	42595.41
545.83	42817.76
546.00	42263.05
546.16	42951.17
546.33	42724.14
546.50	42373.06
546.67	42698.39
546.83	42256.03
547.00	42719.46
547.17	42588.39
547.34	42948.83
547.50	42920.74
547.67	43325.66
547.84	42784.99
548.00	42827.12
548.17	43552.69
548.34	43208.63
548.51	43571.41
548.67	43243.74
548.84	43187.56
549.01	43051.81
549.18	43323.32
549.34	43449.70
549.51	43515.24
549.68	43508.22
549.84	43473.11
550.01	43761.00
550.18	43173.52
550.34	43330.34
550.51	43484.81
550.68	43988.03
550.84	43367.79
551.01	44048.88
551.18	43562.05
551.34	44156.55
551.51	43966.96
551.68	43992.71
551.84	43936.54
552.01	43655.67
552.18	44027.82
552.34	43931.86
552.51	44098.03
552.68	43508.22
552.84	43910.79
553.01	44414.01
553.18	44069.95
553.34	44273.57
553.51	44612.95
553.67	44378.90
553.84	44594.23
554.01	44430.39
554.17	44601.25
554.34	44940.63
554.51	44643.38
554.67	44739.34
554.84	44641.04
555.00	44479.54
555.17	44306.34
555.33	44729.98
555.50	44683.17
555.67	44573.16
555.83	44715.93
556.00	44521.67
556.16	45345.54
556.33	44694.87
556.50	44823.60
556.66	44512.31
556.83	44992.12
556.99	45345.54
557.16	45076.38
557.32	44994.46
557.49	45181.70
557.65	44832.96
557.82	45235.53
557.98	45219.15
558.15	45095.10
558.32	45191.06
558.48	44701.89
558.65	45319.79
558.81	45476.61
558.98	45179.36
559.14	45294.05
559.31	45071.70
559.47	45368.94
559.64	45284.68
559.80	45619.38
559.97	45659.17
560.13	44889.13
560.30	45439.16
560.46	45984.51
560.63	46099.19
560.79	45727.05
560.96	45776.20
561.12	45638.11
561.29	45773.86
561.45	46040.68
561.61	45457.88
561.78	45514.06
561.94	45785.56
562.11	45673.21
562.27	45420.44
562.44	45677.90
562.60	46007.91
562.77	46108.55
562.93	45858.12
563.10	45993.87
563.26	45827.69
563.42	46382.40
563.59	45593.64
563.75	45837.05
563.92	46314.52
564.08	45724.71
564.24	45628.74
564.41	45923.65
564.57	46176.43
564.74	46150.68
564.90	46059.40
565.07	46094.51
565.23	45963.44
565.39	46302.82
565.56	46082.81
565.72	46213.88
565.88	46461.97
566.05	46630.49
566.21	46050.04
566.38	46579.00
566.54	46305.16
566.70	46211.54
566.87	46092.17
567.03	46122.60
567.19	46726.46
567.36	45909.61
567.52	46218.56
567.68	46445.59
567.85	46686.67
568.01	46677.30
568.17	46724.11
568.34	47241.37
568.50	46457.29
568.66	46321.54
568.83	46211.54
568.99	46677.30
569.15	46571.98
569.32	46560.28
569.48	46546.23
569.64	46892.63
569.81	47096.26
569.97	46616.45
570.13	46799.01
570.30	46401.12
570.46	46887.95
570.62	46714.75
570.78	46887.95
570.95	46532.19
571.11	46728.80
571.27	46487.72
571.43	46827.10
571.60	47147.75
571.76	46754.54
571.92	46611.77
572.09	46660.92
572.25	46824.76
572.41	46651.56
572.57	46677.30
572.74	47175.84
572.90	46593.04
573.06	46855.18
573.22	47388.83
573.38	47318.61
573.55	47012.00
573.71	47555.00
573.87	47276.48
574.03	46939.44
574.20	47629.90
574.36	47234.35
574.52	47136.05
574.68	47192.22
574.84	47129.03
575.01	46635.17
575.17	47056.47
575.33	46717.09
575.49	46857.52
575.65	46948.81
575.82	47098.60
575.98	46946.47
576.14	47557.35
576.30	47416.91
576.46	46960.51
576.62	46965.19
576.79	47159.45
576.95	47028.38
577.11	46660.92
577.27	47084.56
577.43	46848.16
577.59	47232.01
577.75	47056.47
577.92	46831.78
578.08	47100.94
578.24	47021.36
578.40	47042.43
578.56	46997.96
578.72	46824.76
578.88	47171.16
579.04	47618.20
579.21	47150.09
579.37	47690.76
579.53	47285.84
579.69	47026.04
579.85	47152.43
580.01	46981.57
580.17	46902.00
580.33	47035.41
580.49	47356.06
580.65	47110.30
580.82	47164.14
580.98	47110.30
581.14	47384.15
581.30	47414.57
581.46	47346.70
581.62	47330.31
581.78	46946.47
581.94	47482.45
582.10	47037.75
582.26	47559.69
582.42	47058.81
582.58	47206.26
582.74	47346.70
582.90	47283.50
583.06	47538.62
583.22	47327.97
583.38	47103.28
583.54	47840.55
583.70	47555.00
583.86	47388.83
584.02	47154.77
584.18	47744.59
584.34	47686.07
584.50	47878.00
584.66	47306.91
584.82	47564.37
584.98	47491.81
585.14	47473.09
585.30	47339.68
585.46	47709.48
585.62	47269.46
585.78	47693.10
585.94	47330.31
586.10	47152.43
586.26	47175.84
586.42	47473.09
586.58	47559.69
586.74	47583.09
586.90	47229.67
587.06	47388.83
587.22	47573.73
587.38	47122.01
587.54	47407.55
587.70	47896.72
587.86	47662.67
588.02	47430.96
588.18	47327.97
588.34	47732.89
588.49	47800.76
588.65	47447.34
588.81	47339.68
588.97	47714.16
589.13	47786.72
589.29	47512.88
589.45	47849.91
589.61	47725.86
589.77	47409.89
589.93	47538.62
590.08	47711.82
590.24	47990.34
590.40	47796.08
590.56	48079.28
590.72	47665.01
590.88	47660.33
591.04	47772.67
591.20	48200.99
591.35	47714.16
591.51	48200.99
591.67	47873.32
591.83	48261.85
591.99	47938.85
592.15	47576.07
592.31	47775.02
592.46	47885.02
592.62	47885.02
592.78	48081.63
592.94	47969.28
593.10	48357.81
593.26	48296.95
593.41	48109.71
593.57	48128.44
593.73	48444.41
593.89	48624.63
594.05	48240.78
594.20	48189.29
594.36	48509.94
594.52	48348.45
594.68	48200.99
594.84	48161.20
594.99	48842.30
595.15	48303.98
595.31	48430.36
595.47	48009.07
595.62	48112.05
595.78	48083.97
595.94	48371.85
596.10	48287.59
596.25	48413.98
596.41	47920.13
596.57	47978.64
596.73	48816.55
596.88	48133.12
597.04	48327.38
597.20	48484.20
597.36	48624.63
597.51	48362.49
597.67	48163.54
597.83	48320.36
597.99	48383.55
598.14	48177.59
598.30	48318.02
598.46	48318.02
598.61	48435.05
598.77	47688.42
598.93	48449.09
599.09	48076.94
599.24	48795.49
599.40	48318.02
599.56	48788.47
599.71	48968.69
599.87	48645.69
600.03	48732.29
600.18	48470.15
600.34	48247.80
600.50	48484.20
600.65	48177.59
600.81	48615.27
600.97	48683.14
601.12	48589.52
601.28	48421.00
601.44	48369.51
601.59	48311.00
601.75	47915.45
601.91	48657.40
602.06	48320.36
602.22	48701.87
602.37	48348.45
602.53	48315.68
602.69	48170.57
602.84	48521.65
603.00	48465.47
603.16	48261.85
603.31	48404.62
603.47	48528.67
603.62	48168.22
603.78	48741.66
603.94	48074.60
604.09	48430.36
604.25	48334.40
604.40	48320.36
604.56	48477.18
604.71	48952.30
604.87	48165.88
605.03	48453.77
605.18	48418.66
605.34	48161.20
605.49	48484.20
605.65	48676.12
605.80	48217.38
605.96	48474.84
606.12	48217.38
606.27	48390.58
606.43	47969.28
606.58	48453.77
606.74	48278.23
606.89	48521.65
607.05	48582.50
607.20	48573.14
607.36	48301.64
607.51	48334.40
607.67	48271.21
607.82	48217.38
607.98	47985.66
608.13	48016.09
608.29	48280.57
608.44	48458.45
608.60	47704.80
608.75	48175.25
608.91	48329.72
609.06	48055.88
609.22	48498.24
609.37	47878.00
609.53	48018.43
609.68	48378.87
609.84	48048.86
609.99	48353.13
610.15	48306.32
610.30	48109.71
610.46	47732.89
610.61	48385.89
610.76	47948.21
610.92	47917.79
611.07	47543.30
611.23	47910.77
611.38	48072.26
611.54	48184.61
611.69	48053.54
611.84	48282.91
612.00	47887.36
612.15	47512.88
612.31	47969.28
612.46	47643.94
612.62	48025.45
612.77	47938.85
612.92	48392.92
613.08	47386.49
613.23	47679.05
613.39	47721.18
613.54	47576.07
613.69	48285.25
613.85	47622.88
614.00	47613.52
614.15	47889.70
614.31	47519.90
614.46	47529.26
614.62	47400.53
614.77	47805.44
614.92	48123.75
615.08	47618.20
615.23	47693.10
615.38	48046.52
615.54	47632.24
615.69	47627.56
615.84	47281.16
616.00	47760.97
616.15	47735.23
616.30	47131.37
616.46	47613.52
616.61	47143.07
616.76	47681.39
616.92	47494.15
617.07	47695.44
617.22	47246.05
617.37	46955.83
617.53	47709.48
617.68	47590.11
617.83	47414.57
617.99	47615.86
618.14	47131.37
618.29	47466.06
618.45	47384.15
618.60	47093.92
618.75	47100.94
618.90	47360.74
619.06	47189.88
619.21	47072.85
619.36	47533.94
619.51	47185.20
619.67	46777.95
619.82	46939.44
619.97	47491.81
620.12	46850.50
620.28	46981.57
620.43	47363.08
620.58	47449.68
620.73	46934.76
620.89	46925.40
621.04	47330.31
621.19	47283.50
621.34	46740.50
621.49	46885.61
621.65	47157.11
621.80	47049.45
621.95	46705.39
622.10	47157.11
622.25	46983.91
622.41	46873.91
622.56	46609.43
622.71	46782.63
622.86	47103.28
623.01	47119.66
623.16	46431.55
623.32	47019.02
623.47	46878.59
623.62	46492.40
623.77	46665.60
623.92	46534.53
624.07	46958.17
624.23	47112.64
624.38	46653.90
624.53	46167.07
624.68	46265.37
624.83	46581.34
624.98	46319.20
625.13	45811.31
625.29	46220.90
625.44	46225.58
625.59	46218.56
625.74	46513.47
625.89	46237.28
626.04	46181.11
626.19	46618.79
626.34	45865.14
626.49	46134.30
626.65	45949.40
626.80	45897.91
626.95	45965.78
627.10	45635.77
627.25	45879.18
627.40	45902.59
627.55	45933.01
627.70	46110.89
627.85	46092.17
628.00	45907.27
628.15	45687.26
628.30	45797.26
628.45	45237.87
628.60	45801.94
628.76	45574.91
628.91	45462.57
629.06	45464.91
629.21	45759.81
629.36	45937.69
629.51	45617.04
629.66	46314.52
629.81	45720.02
629.96	45876.84
630.11	45563.21
630.26	45542.14
630.41	45769.18
630.56	45390.01
630.71	45972.80
630.86	45820.67
631.01	45099.78
631.16	45155.96
631.31	45698.96
631.46	45324.47
631.61	45125.53
631.76	45478.95
631.91	45516.40
632.06	45588.95
632.21	45453.20
632.36	45448.52
632.51	44781.47
632.66	45111.49
632.81	45516.40
632.96	44854.03
633.10	45155.96
633.25	45055.31
633.40	45237.87
633.55	45301.07
633.70	45258.94
633.85	44612.95
634.00	44748.70
634.15	44498.26
634.30	44879.77
634.45	44800.19
634.60	45333.84
634.75	44851.69
634.90	44989.78
635.05	45125.53
635.19	45020.20
635.34	45095.10
635.49	44622.31
635.64	45099.78
635.79	44685.51
635.94	44418.69
636.09	44971.05
636.24	44666.78
636.39	44538.05
636.53	45097.44
636.68	44296.98
636.83	44406.98
636.98	44854.03
637.13	44170.59
637.28	44137.82
637.43	44587.21
637.57	44467.84
637.72	44474.86
637.87	43782.06
638.02	44098.03
638.17	44414.01
638.32	44371.88
638.46	44004.41
638.61	44163.57
638.76	44058.24
638.91	44046.54
639.06	44051.22
639.20	43606.52
639.35	43943.56
639.50	43391.19
639.65	43995.05
639.80	44428.05
639.94	44149.53
640.09	44027.82
640.24	44140.16
640.39	43669.72
640.54	43573.75
640.68	43742.27
640.83	44011.43
640.98	43903.77
641.13	44030.16
641.27	44182.29
641.42	43627.59
641.57	43669.72
641.72	43779.72
641.86	43454.39
642.01	43538.65
642.16	43798.44
642.31	43196.93
642.45	43672.06
642.60	43346.72
642.75	43732.91
642.90	43543.33
643.04	43540.99
643.19	43821.85
643.34	43157.14
643.48	42904.36
643.63	43161.82
643.78	43407.58
643.93	43648.65
644.07	43325.66
644.22	42923.08
644.37	43433.32
644.51	43564.39
644.66	43522.26
644.81	43012.02
644.95	43166.50
645.10	43122.03
645.25	43217.99
645.39	43079.90
645.54	43374.81
645.69	43122.03
645.83	42674.99
645.98	42611.79
646.13	42572.00
646.27	42586.05
646.42	42176.45
646.57	42911.38
646.71	43112.67
646.86	43349.06
647.00	43033.09
647.15	42478.38
647.30	43182.88
647.44	42988.62
647.59	42897.34
647.74	42501.79
647.88	42611.79
648.03	42733.50
648.17	43047.13
648.32	42916.06
648.47	43206.29
648.61	42520.51
648.76	42508.81
648.90	42368.38
649.05	42557.96
649.20	42768.61
649.34	42546.26
649.49	42438.59
649.63	42625.84
649.78	42663.28
649.92	42946.49
650.07	42932.45
650.21	42810.74
650.36	42719.46
650.51	42342.63
650.65	42480.72
650.80	42380.08
650.94	42319.23
651.09	42178.79
651.23	41799.63
651.38	42117.94
651.52	41687.28
651.67	42190.50
651.81	41862.82
651.96	41830.05
652.10	42050.06
652.25	41703.67
652.39	42089.85
652.54	41776.22
652.68	41752.82
652.83	41525.78
652.97	42139.00
653.12	41808.99
653.26	41399.40
653.41	42150.71
653.55	41734.09
653.70	41666.22
653.84	42057.09
653.99	41771.54
654.13	41933.04
654.27	42021.98
654.42	41748.14
654.56	41605.36
654.71	41797.29
654.85	41687.28
655.00	41242.58
655.14	41621.75
655.29	42014.96
655.43	41818.35
655.57	41478.97
655.72	41088.10
655.86	41181.73
656.01	41081.08
656.15	41434.50
656.30	41350.24
656.44	41357.27
656.58	41577.28
656.73	41404.08
656.87	40847.03
657.01	41123.21
657.16	41354.93
657.30	41310.46
657.45	41132.57
657.59	40900.86
657.73	40767.45
657.88	41045.97
658.02	40893.84
658.16	41013.21
658.31	40673.83
658.45	40893.84
658.60	40914.90
658.74	40861.07
658.88	40608.29
659.03	40407.01
659.17	40657.45
659.31	40320.41
659.46	40463.18
659.60	40666.81
659.74	40673.83
659.89	40346.15
660.03	40088.70
660.17	40552.12
660.32	39913.16
660.46	40313.39
660.60	39735.27
660.74	39920.18
660.89	40114.44
661.03	39587.82
661.17	39700.17
661.32	39629.95
661.46	39835.92
661.60	39901.45
661.74	39564.42
661.89	40044.23
662.03	39941.24
662.17	39557.39
662.31	39234.40
662.46	39807.83
662.60	39421.64
662.74	39196.95
662.88	39278.87
663.03	39201.63
663.17	38944.17
663.31	38710.12
663.45	39482.50
663.60	39227.38
663.74	38834.17
663.88	38871.62
664.02	38838.85
664.17	39313.98
664.31	38988.64
664.45	38923.11
664.59	38682.03
664.73	38810.76
664.88	38735.87
665.02	38597.77
665.16	38342.66
665.30	38440.96
665.44	38387.13
665.59	37928.38
665.73	38043.07
665.87	38057.11
666.01	38337.98
666.15	38319.25
666.29	37684.97
666.44	38110.94
666.58	38050.09
666.72	37968.17
666.86	38052.43
667.00	37935.40
667.14	37383.04
667.28	37897.95
667.43	37687.31
667.57	37741.14
667.71	37612.41
667.85	37961.15
667.99	37322.18
668.13	37177.07
668.27	37415.80
668.41	37083.45
668.56	36650.45
668.70	37104.51
668.84	36711.30
668.98	36968.76
669.12	37156.00
669.26	36863.44
669.40	36666.83
669.54	36886.84
669.68	36577.89
669.82	36629.38
669.96	36381.29
670.10	36224.47
670.25	35945.95
670.39	35948.29
670.53	36570.87
670.67	36334.48
670.81	36224.47
670.95	36067.66
671.09	36055.95
671.23	35929.56
671.37	36135.53
671.51	36044.25
671.65	35604.23
671.79	35660.40
671.93	35985.74
672.07	35728.28
672.21	35281.24
672.35	35393.58
672.49	35246.13
672.63	35435.71
672.77	35002.71
672.91	35344.43
673.05	35248.47
673.19	34979.31
673.33	35110.38
673.47	34976.97
673.61	34916.11
673.75	34604.82
673.89	34558.01
674.03	34586.10
674.17	34099.26
674.31	33977.56
674.45	34195.23
674.59	34244.38
674.73	33757.55
674.87	33495.41
675.01	33799.68
675.15	33834.78
675.29	33539.88
675.43	33511.79
675.56	33518.81
675.70	33223.90
675.84	33109.22
675.98	32467.91
676.12	33092.83
676.26	33310.50
676.40	33170.07
676.54	32910.27
676.68	32737.07
676.82	32353.23
676.96	32947.72
677.10	32704.31
677.23	32456.21
677.37	32697.28
677.51	32404.72
677.65	32275.99
677.79	32163.64
677.93	32219.81
678.07	32025.55
678.21	32023.21
678.34	31693.19
678.48	31828.95
678.62	31335.09
678.76	31412.33
678.90	31388.92
679.04	31632.34
679.18	31658.09
679.31	31033.16
679.45	30946.56
679.59	30497.18
679.73	30822.51
679.87	30668.04
680.00	30857.62
680.14	30738.26
680.28	30263.13
680.42	30742.94
680.56	30080.56
680.70	30279.51
680.83	29823.11
680.97	30155.46
681.11	30101.63
681.25	29647.57
681.39	29631.18
681.52	29898.00
681.66	29111.58
681.80	28858.81
681.94	28758.16
682.07	28549.85
682.21	28788.59
682.35	28720.71
682.49	28699.65
682.62	28648.16
682.76	29151.37
682.90	28823.70
683.04	28371.97
683.17	28259.63
683.31	28219.84
683.45	27917.91
683.59	28112.17
683.72	27742.37
683.86	27854.72
684.00	27391.29
684.13	27491.93
684.27	27564.49
684.41	27250.86
684.55	27683.86
684.68	27143.19
684.82	26881.05
684.96	27047.23
685.09	27199.37
685.23	26951.27
685.37	27496.61
685.50	26998.08
685.64	26520.61
685.78	26529.97
685.91	26373.16
686.05	26061.87
686.19	25968.24
686.32	25867.60
686.46	25668.66
686.60	25692.06
686.73	25788.02
686.87	25600.78
687.01	25558.65
687.14	26103.99
687.28	25586.74
687.42	25439.28
687.55	25266.08
687.69	25127.99
687.82	25001.60
687.96	24659.88
688.10	24812.02
688.23	25010.96
688.37	24884.58
688.50	24805.00
688.64	24432.85
688.78	24402.43
688.91	24339.23
689.05	24093.47
689.18	24137.94
689.32	23850.06
689.46	23494.30
689.59	23857.08
689.73	24151.99
689.86	23833.68
690.00	23833.68
690.13	23754.10
690.27	23372.59
690.41	23421.74
690.54	23323.44
690.68	23096.41
690.81	22871.72
690.95	22892.78
691.08	22918.53
691.22	22483.19
691.35	22506.59
691.49	22464.46
691.62	22768.73
691.76	22113.38
691.89	22281.90
692.03	22108.70
692.16	22015.08
692.30	22185.94
692.43	21619.53
692.57	21968.27
692.70	21876.99
692.84	21671.02
692.97	21301.22
693.11	21518.89
693.24	21465.05
693.38	21209.93
693.51	21083.55
693.65	21006.31
693.78	20837.79
693.92	20556.93
694.05	20706.72
694.19	20676.29
694.32	21008.65
694.45	20709.06
694.59	20514.80
694.72	20538.20
694.86	20262.02
694.99	20528.84
695.13	20067.75
695.26	19857.10
695.39	19655.82
695.53	20042.01
695.66	19932.00
695.80	19599.65
695.93	19545.81
696.07	19545.81
696.20	19213.46
696.33	18977.06
696.47	19098.77
696.60	18974.72
696.73	19187.71
696.87	19047.28
697.00	19019.19
697.14	18862.38
697.27	18228.09
697.40	18630.66
697.54	18743.01
697.67	18546.40
697.80	18504.28
697.94	18207.03
698.07	18104.04
698.21	18188.30
698.34	18005.74
698.47	18160.22
698.61	17638.28
698.74	17685.09
698.87	17802.11
699.01	17518.91
699.14	17558.70
699.27	17263.79
699.40	17645.30
699.54	17331.67
699.67	17359.75
699.80	17036.76
699.94	16957.18
700.07	16903.35
700.20	16915.05
700.34	16772.28
700.47	16734.83
700.60	16959.52
700.73	16833.13
700.87	16603.76
701.00	16318.22
701.13	16346.30
701.26	16219.91
701.40	16170.76
701.53	15971.82
701.66	15967.13
701.79	15805.64
701.93	15737.76
702.06	15744.78
702.19	15683.93
702.32	16058.42
702.46	15758.83
702.59	15964.79
702.72	15667.55
702.85	15758.83
702.99	15424.13
703.12	15192.42
703.25	15016.88
703.38	15007.52
703.51	15133.90
703.65	14920.92
703.78	14810.91
703.91	14867.08
704.04	14579.20
704.17	14513.66
704.31	14553.45
704.44	14457.49
704.57	14333.44
704.70	14118.11
704.83	14267.91
704.96	14031.51
705.10	14167.26
705.23	14249.18
>>>>>End Processed Spectral Data<<<<<
