SpectraSuite Data File
++++++++++++++++++++++++++++++++++++
Date: Fri Oct 25 10:43:25 EDT 2013
User: price-jones
Dark Spectrum Present: No
Reference Spectrum Present: No
Number of Sampled Component Spectra: 1
Spectrometers: USB2+H05261
Integration Time (usec): 100000 (USB2+H05261)
Spectra Averaged: 1 (USB2+H05261)
Boxcar Smoothing: 0 (USB2+H05261)
Correct for Electrical Dark: No (USB2+H05261)
Strobe/Lamp Enabled: No (USB2+H05261)
Correct for Detector Non-linearity: No (USB2+H05261)
Correct for Stray Light: No (USB2+H05261)
Number of Pixels in Processed Spectrum: 2048
>>>>>Begin Processed Spectral Data<<<<<
365.73	77.24
365.92	77.24
366.12	77.24
366.32	100.64
366.52	72.56
366.72	72.56
366.91	0.00
367.11	23.41
367.31	0.00
367.51	53.83
367.70	44.47
367.90	39.79
368.10	16.38
368.30	46.81
368.49	16.38
368.69	63.19
368.89	11.70
369.09	0.00
369.28	88.94
369.48	65.54
369.68	84.26
369.87	140.43
370.07	79.58
370.27	201.29
370.47	184.90
370.66	344.06
370.86	435.34
371.06	491.51
371.25	433.00
371.45	470.45
371.65	447.04
371.84	482.15
372.04	465.77
372.24	512.58
372.44	538.32
372.63	390.87
372.83	543.00
373.03	482.15
373.22	552.37
373.42	519.60
373.62	503.22
373.81	571.09
374.01	587.47
374.21	571.09
374.40	486.83
374.60	521.94
374.79	538.32
374.99	528.96
375.19	521.94
375.38	636.63
375.58	601.52
375.78	531.30
375.97	559.39
376.17	636.63
376.37	622.58
376.56	627.26
376.76	657.69
376.95	568.75
377.15	587.47
377.35	514.92
377.54	685.78
377.74	573.43
377.93	660.03
378.13	643.65
378.33	667.05
378.52	615.56
378.72	683.44
378.91	613.22
379.11	557.05
379.31	629.60
379.50	566.41
379.70	638.97
379.89	741.95
380.09	681.10
380.28	636.63
380.48	688.12
380.68	683.44
380.87	608.54
381.07	702.16
381.26	765.36
381.46	760.67
381.65	730.25
381.85	638.97
382.04	713.86
382.24	662.37
382.43	653.01
382.63	667.05
382.83	671.73
383.02	723.23
383.22	730.25
383.41	674.07
383.61	704.50
383.80	788.76
384.00	805.14
384.19	751.31
384.39	779.40
384.58	779.40
384.78	812.17
384.97	830.89
385.17	798.12
385.36	641.31
385.56	737.27
385.75	713.86
385.95	791.10
386.14	793.44
386.34	814.51
386.53	760.67
386.72	870.68
386.92	851.96
387.11	889.40
387.31	882.38
387.50	758.33
387.70	833.23
387.89	866.00
388.09	802.80
388.28	877.70
388.48	849.61
388.67	915.15
388.86	919.83
389.06	983.02
389.25	861.32
389.45	997.07
389.64	954.94
389.84	1015.79
390.03	943.24
390.22	954.94
390.42	973.66
390.61	1015.79
390.81	1025.15
391.00	952.60
391.19	1027.50
391.39	1102.39
391.58	1067.28
391.78	1078.99
391.97	1121.12
392.16	980.68
392.36	1116.44
392.55	973.66
392.75	1086.01
392.94	1055.58
393.13	1001.75
393.33	1004.09
393.52	985.37
393.71	992.39
393.91	1036.86
394.10	1118.78
394.29	1081.33
394.49	1205.38
394.68	1238.14
394.88	1226.44
395.07	1282.61
395.26	1149.20
395.46	1181.97
395.65	1301.34
395.84	1181.97
396.04	1203.04
396.23	1184.31
396.42	1081.33
396.62	1158.57
396.81	1111.75
397.00	1181.97
397.19	1228.78
397.39	1268.57
397.58	1327.08
397.77	1320.06
397.97	1441.77
398.16	1406.66
398.35	1345.81
398.55	1401.98
398.74	1535.39
398.93	1549.43
399.12	1394.96
399.32	1437.09
399.51	1432.41
399.70	1455.81
399.90	1537.73
400.09	1568.16
400.28	1633.69
400.47	1502.62
400.67	1621.99
400.86	1650.08
401.05	1778.81
401.24	1675.82
401.44	1717.95
401.63	1645.40
401.82	1659.44
402.01	1687.53
402.21	1760.08
402.40	1804.55
402.59	1706.25
402.78	1757.74
402.97	1741.36
403.17	1818.60
403.36	1790.51
403.55	1713.27
403.74	1774.13
403.93	1753.06
404.13	1834.98
404.32	1844.34
404.51	1844.34
404.70	1806.89
404.89	1895.83
405.09	1872.43
405.28	1902.86
405.47	1991.80
405.66	1952.01
405.85	1954.35
406.05	1891.15
406.24	1956.69
406.43	2069.03
406.62	2129.89
406.81	1977.75
407.00	1928.60
407.20	2019.88
407.39	2090.10
407.58	2260.96
407.77	2167.34
407.96	2195.42
408.15	2167.34
408.34	2113.50
408.54	2179.04
408.73	2263.30
408.92	2314.79
409.11	2267.98
409.30	2319.47
409.49	2193.08
409.68	2310.11
409.87	2267.98
410.07	2207.13
410.26	2289.04
410.45	2307.77
410.64	2403.73
410.83	2361.60
411.02	2415.43
411.21	2464.58
411.40	2551.18
411.59	2546.50
411.78	2523.10
411.98	2553.52
412.17	2586.29
412.36	2581.61
412.55	2628.42
412.74	2614.38
412.93	2717.36
413.12	2614.38
413.31	2857.79
413.50	2700.98
413.69	2743.11
413.88	2881.20
414.07	2778.22
414.26	2904.60
414.45	2848.43
414.64	2942.05
414.83	3005.25
415.02	3077.80
415.22	3035.67
415.41	3056.74
415.60	3119.93
415.79	3122.27
415.98	3141.00
416.17	3105.89
416.36	3246.32
416.55	3157.38
416.74	3276.75
416.93	3220.58
417.12	3103.55
417.31	3290.79
417.50	3265.05
417.69	3325.90
417.88	3370.37
418.07	3386.76
418.26	3384.41
418.45	3424.20
418.64	3475.70
418.83	3412.50
419.02	3597.40
419.21	3566.98
419.39	3515.48
419.58	3487.40
419.77	3513.14
419.96	3566.98
420.15	3630.17
420.34	3684.00
420.53	3613.79
420.72	3728.47
420.91	3786.99
421.10	3637.19
421.29	3803.37
421.48	3840.82
421.67	3754.22
421.86	3623.15
422.05	3829.12
422.24	3637.19
422.43	3719.11
422.61	3772.94
422.80	3786.99
422.99	3838.48
423.18	3880.61
423.37	3962.53
423.56	3969.55
423.75	3808.05
423.94	3815.07
424.13	3705.07
424.32	3691.02
424.50	3829.12
424.69	3920.40
424.88	3985.93
425.07	3779.97
425.26	3840.82
425.45	3824.44
425.64	3894.65
425.83	3878.27
426.01	3899.33
426.20	3866.56
426.39	3873.59
426.58	3850.18
426.77	3712.09
426.96	3922.74
427.15	3777.62
427.33	4021.04
427.52	4032.74
427.71	3875.93
427.90	4135.73
428.09	4243.39
428.28	4100.62
428.46	4124.02
428.65	4072.53
428.84	4168.49
429.03	4053.81
429.22	3913.38
429.40	4067.85
429.59	4177.86
429.78	3829.12
429.97	3756.56
430.16	4016.36
430.34	3882.95
430.53	4009.34
430.72	4102.96
430.91	4184.88
431.10	4280.84
431.28	4468.08
431.47	4505.53
431.66	4585.11
431.85	4472.76
432.03	4580.43
432.22	4601.49
432.41	4505.53
432.60	4498.51
432.79	4538.30
432.97	4669.37
433.16	4596.81
433.35	4571.07
433.54	4629.58
433.72	4645.96
433.91	4510.21
434.10	4620.22
434.28	4681.07
434.47	4629.58
434.66	4896.40
434.85	4816.82
435.03	4910.44
435.22	4795.76
435.41	5015.77
435.59	4983.00
435.78	5109.39
435.97	4997.04
436.16	5064.92
436.34	4891.72
436.53	5034.49
436.72	5067.26
436.90	5046.20
437.09	5125.77
437.28	4915.12
437.46	5242.80
437.65	5116.41
437.84	5053.22
438.02	5025.13
438.21	5050.88
438.40	4983.00
438.58	5212.37
438.77	5289.61
438.96	5359.83
439.14	5338.76
439.33	5533.03
439.52	5469.83
439.70	5418.34
439.89	5444.09
440.08	5507.28
440.26	5689.84
440.45	5502.60
440.63	5893.47
440.82	5837.30
441.01	5750.70
441.19	5940.28
441.38	5891.13
441.57	5940.28
441.75	6076.03
441.94	6157.95
442.12	6181.35
442.31	6293.70
442.50	6270.30
442.68	6186.04
442.87	6160.29
443.05	6230.51
443.24	6312.42
443.43	6305.40
443.61	6333.49
443.80	6555.84
443.98	6164.97
444.17	5982.41
444.35	6277.32
444.54	6602.65
444.73	6459.88
444.91	6377.96
445.10	6417.75
445.28	6272.64
445.47	6410.73
445.65	6312.42
445.84	6363.92
446.02	6497.33
446.21	6448.18
446.39	6443.49
446.58	6647.12
446.77	6413.07
446.95	6396.68
447.14	6642.44
447.32	6656.48
447.51	6562.86
447.69	6431.79
447.88	6452.86
448.06	6539.46
448.25	6480.94
448.43	6740.74
448.62	6541.80
448.80	6548.82
448.99	6693.93
449.17	6752.45
449.36	6794.58
449.54	6829.68
449.73	7012.24
449.91	7131.61
450.10	6883.52
450.28	7063.74
450.46	7098.84
450.65	6869.47
450.83	6871.81
451.02	7124.59
451.20	7091.82
451.39	7192.47
451.57	7023.95
451.76	6984.16
451.94	6995.86
452.13	7115.23
452.31	7126.93
452.49	6923.30
452.68	7131.61
452.86	7052.03
453.05	7176.08
453.23	7136.29
453.42	7215.87
453.60	7082.46
453.78	7424.18
453.97	7218.21
454.15	7328.22
454.34	7148.00
454.52	7304.81
454.70	7304.81
454.89	7445.24
455.07	7389.07
455.26	7344.60
455.44	7576.31
455.62	7557.59
455.81	7557.59
455.99	7602.06
456.17	7644.19
456.36	7714.41
456.54	7749.51
456.73	7662.91
456.91	8128.68
457.09	8011.65
457.28	8231.66
457.46	7763.56
457.64	7946.12
457.83	7955.48
458.01	7859.52
458.19	7894.63
458.38	8121.66
458.56	8196.56
458.74	8072.51
458.93	8072.51
459.11	8084.21
459.29	8250.39
459.48	8318.26
459.66	8187.19
459.84	8145.06
460.03	8493.80
460.21	8470.40
460.39	8306.56
460.57	8341.67
460.76	8444.65
460.94	8273.79
461.12	8571.04
461.31	8318.26
461.49	8217.62
461.67	8194.22
461.85	8734.88
462.04	8734.88
462.22	9078.94
462.40	8706.79
462.59	8669.34
462.77	8809.78
462.95	8723.18
463.13	8720.84
463.32	8858.93
463.50	8706.79
463.68	8823.82
463.86	8798.07
464.05	8821.48
464.23	8784.03
464.41	8950.21
464.59	8748.92
464.78	9083.62
464.96	8894.04
465.14	8819.14
465.32	9018.08
465.50	8992.34
465.69	9123.41
465.87	9095.32
466.05	9025.11
466.23	8992.34
466.41	9170.22
466.60	9088.30
466.78	8982.98
466.96	9214.69
467.14	9130.43
467.32	9247.46
467.51	9423.00
467.69	8940.85
467.87	9245.12
468.05	9249.80
468.23	9275.54
468.41	9270.86
468.60	9273.20
468.78	9479.17
468.96	9406.61
469.14	9406.61
469.32	9387.89
469.50	9383.21
469.69	9446.40
469.87	9584.49
470.05	9806.84
470.23	9870.04
470.41	9673.43
470.59	9680.46
470.77	9696.84
470.95	9666.41
471.14	10092.39
471.32	9825.57
471.50	9984.73
471.68	10059.62
471.86	10190.69
472.04	10108.77
472.22	10317.08
472.40	10085.37
472.58	10064.30
472.77	10263.25
472.95	10427.09
473.13	10462.19
473.31	10420.06
473.49	10443.47
473.67	10560.50
473.85	10689.23
474.03	10705.61
474.21	10754.76
474.39	10881.15
474.57	10895.19
474.75	10794.55
474.93	10869.45
475.12	10927.96
475.30	10951.37
475.48	10913.92
475.66	11152.65
475.84	10909.24
476.02	11234.57
476.20	11353.94
476.38	11274.36
476.56	11480.33
476.74	11494.37
476.92	11730.76
477.10	11510.75
477.28	11765.87
477.46	12123.98
477.64	11906.31
477.82	12341.64
478.00	12336.96
478.18	12278.45
478.36	12362.71
478.54	12524.21
478.72	12613.15
478.90	12585.06
479.08	12849.54
479.26	12870.61
479.44	12816.77
479.62	13013.38
479.80	12868.27
479.98	12858.90
480.16	13242.75
480.34	13284.88
480.52	13645.32
480.70	13408.93
480.88	13179.56
481.06	13561.06
481.24	13853.63
481.41	13935.55
481.59	14078.32
481.77	14279.61
481.95	14197.69
482.13	14270.25
482.31	14169.60
482.49	14539.41
482.67	14443.45
482.85	14670.48
483.03	14871.76
483.21	15129.22
483.39	14778.14
483.57	14860.06
483.74	15440.51
483.92	15433.49
484.10	15208.80
484.28	15524.77
484.46	15573.92
484.64	15950.75
484.82	15695.63
485.00	16025.65
485.18	16208.21
485.35	16086.50
485.53	15978.84
485.71	15997.56
485.89	16229.27
486.07	16240.98
486.25	16320.56
486.43	16510.14
486.61	16528.86
486.78	16975.91
486.96	16861.22
487.14	17408.90
487.32	17481.46
487.50	17589.13
487.68	17628.92
487.85	17989.36
488.03	18148.51
488.21	18345.12
488.39	18101.70
488.57	18312.35
488.75	18429.38
488.92	18499.59
489.10	19089.41
489.28	19040.26
489.46	19557.52
489.64	19318.78
489.81	19737.74
489.99	19798.59
490.17	19896.89
490.35	19981.15
490.53	19955.41
490.70	20222.23
490.88	20020.94
491.06	20418.83
491.24	20374.36
491.41	20229.25
491.59	20514.80
491.77	20416.49
491.95	20641.18
492.13	21015.67
492.30	21125.68
492.48	21252.06
492.66	21385.47
492.84	21352.71
493.01	21685.06
493.19	21439.31
493.37	21809.11
493.54	21783.37
493.72	21891.03
493.90	22085.30
494.08	22415.31
494.25	22768.73
494.43	22869.37
494.61	23269.61
494.79	23035.55
494.96	22841.29
495.14	23152.58
495.32	23267.27
495.49	23274.29
495.67	23037.89
495.85	23606.64
496.02	23676.86
496.20	23999.85
496.38	23683.88
496.55	23882.83
496.73	24620.10
496.91	24666.91
497.09	24648.18
497.26	24645.84
497.44	24772.23
497.62	24713.72
497.79	25032.03
497.97	24369.66
498.14	25029.69
498.32	25500.14
498.50	25652.27
498.67	25797.38
498.85	25738.87
499.03	26005.69
499.20	25830.15
499.38	25818.45
499.56	25862.92
499.73	26008.03
499.91	26066.55
500.08	26146.12
500.26	25689.72
500.44	26228.04
500.61	26136.76
500.79	26089.95
500.97	26515.93
501.14	26665.72
501.32	26764.03
501.49	26906.80
501.67	26614.23
501.84	26677.43
502.02	26960.63
502.20	27311.71
502.37	27433.42
502.55	26883.39
502.72	27321.07
502.90	27583.21
503.07	27660.45
503.25	27793.86
503.43	27391.29
503.60	27653.43
503.78	27737.69
503.95	27899.19
504.13	27969.40
504.30	28526.45
504.48	28123.88
504.65	28400.06
504.83	28348.57
505.01	28662.20
505.18	28479.64
505.36	29317.55
505.53	29015.62
505.71	29092.86
505.88	29200.52
506.06	29069.45
506.23	29249.67
506.41	29170.10
506.58	29411.17
506.76	29237.97
506.93	29371.38
507.11	29703.74
507.28	29823.11
507.46	29560.97
507.63	29546.92
507.81	30000.99
507.98	29802.04
508.16	29858.21
508.33	30061.84
508.50	30319.30
508.68	30384.83
508.85	30466.75
509.03	30298.23
509.20	30857.62
509.38	30623.57
509.55	30981.67
509.73	30869.33
509.90	30934.86
510.08	30869.33
510.25	30862.30
510.42	31206.36
510.60	31321.05
510.77	31253.17
510.95	31082.31
511.12	31377.22
511.30	31367.86
511.47	31700.22
511.64	31824.26
511.82	31615.96
511.99	31957.67
512.17	31690.85
512.34	31491.91
512.51	31840.65
512.69	32444.51
512.86	32371.95
513.04	32446.85
513.21	32432.80
513.38	32287.69
513.56	32643.45
513.73	32233.86
513.90	32388.33
514.08	32620.05
514.25	32657.49
514.43	33001.55
514.60	32575.58
514.77	32804.95
514.95	32994.53
515.12	32685.58
515.29	33184.12
515.47	33647.54
515.64	33146.67
515.81	33614.77
515.99	33481.36
516.16	33422.85
516.33	33195.82
516.51	33067.09
516.68	32694.94
516.85	32765.16
517.03	33132.62
517.20	33406.47
517.37	33706.05
517.54	33954.15
517.72	33717.76
517.89	33331.57
518.06	33699.03
518.24	33305.82
518.41	33745.84
518.58	34183.52
518.75	34239.70
518.93	34129.69
519.10	34169.48
519.27	34330.98
519.45	34506.52
519.62	34766.32
519.79	34616.52
519.96	34660.99
520.14	35093.99
520.31	34742.91
520.48	34763.98
520.65	35002.71
520.83	35384.22
521.00	35178.25
521.17	35637.00
521.34	35108.04
521.52	35491.88
521.69	35735.30
521.86	35852.33
522.03	35704.87
522.20	35508.27
522.38	35878.07
522.55	36119.15
522.72	35695.51
522.89	35765.73
523.07	36486.61
523.24	36247.88
523.41	36439.80
523.58	36491.29
523.75	36748.75
523.92	36322.77
524.10	36790.88
524.27	36715.98
524.44	36741.73
524.61	37031.96
524.78	36708.96
524.96	37427.51
525.13	37116.22
525.30	37120.90
525.47	37249.63
525.64	37024.93
525.81	36980.46
525.98	36884.50
526.16	36762.79
526.33	36505.34
526.50	37198.13
526.67	36793.22
526.84	36650.45
527.01	36907.91
527.18	37258.99
527.36	37635.81
527.53	37738.80
527.70	38003.28
527.87	38005.62
528.04	37619.43
528.21	38012.64
528.38	37963.49
528.55	38621.18
528.72	38106.26
528.89	38127.33
529.07	38703.10
529.24	37813.70
529.41	38274.78
529.58	38483.09
529.75	38607.14
529.92	38361.38
530.09	38398.83
530.26	38349.68
530.43	38639.90
530.60	38684.37
530.77	38775.66
530.94	39210.99
531.11	38621.18
531.28	38932.47
531.46	39012.05
531.63	39042.48
531.80	38904.38
531.97	38593.09
532.14	38705.44
532.31	38457.34
532.48	38719.48
532.65	38848.21
532.82	38792.04
532.99	39082.27
533.16	38988.64
533.33	39510.58
533.50	39550.37
533.67	39538.67
533.84	39648.68
534.01	39391.22
534.18	39651.02
534.35	39552.71
534.52	39566.76
534.69	39653.36
534.86	39622.93
535.03	40016.14
535.20	40051.25
535.37	40116.78
535.54	40261.90
535.71	40156.57
535.88	40179.98
536.05	40074.65
536.22	40512.33
536.38	40634.04
536.55	40261.90
536.72	40053.59
536.89	39997.41
537.06	40271.26
537.23	40620.00
537.40	40664.47
537.57	40861.07
537.74	40439.78
537.91	41029.59
538.08	40364.88
538.25	40694.89
538.42	41074.06
538.59	40657.45
538.75	40687.87
538.92	40870.43
539.09	41462.59
539.26	41130.23
539.43	41067.04
539.60	40765.11
539.77	40903.20
539.94	40643.40
540.11	40811.92
540.28	41530.47
540.44	41083.42
540.61	40713.62
540.78	40957.03
540.95	40889.16
541.12	41345.56
541.29	41354.93
541.46	41244.92
541.62	41591.32
541.79	41406.42
541.96	40816.60
542.13	41195.77
542.30	41078.74
542.47	41268.33
542.63	41605.36
542.80	41741.11
542.97	41832.39
543.14	41570.25
543.31	42031.34
543.48	41928.36
543.64	42679.67
543.81	42258.37
543.98	42199.86
544.15	42160.07
544.32	41820.69
544.48	42794.36
544.65	41986.87
544.82	42281.78
544.99	42426.89
545.16	42609.45
545.32	42656.26
545.49	42887.98
545.66	42953.51
545.83	42639.88
546.00	42782.65
546.16	42710.10
546.33	42665.63
546.50	42443.27
546.67	42789.67
546.83	42335.61
547.00	43225.01
547.17	42534.56
547.34	42639.88
547.50	43007.34
547.67	43281.19
547.84	43145.44
548.00	43194.59
548.17	43203.95
548.34	43220.33
548.51	43145.44
548.67	43765.68
548.84	43145.44
549.01	43388.85
549.18	42691.37
549.34	43033.09
549.51	43201.61
549.68	43344.38
549.84	43274.16
550.01	43545.67
550.18	43082.24
550.34	43299.91
550.51	43648.65
550.68	43494.18
550.84	42667.97
551.01	43608.86
551.18	43445.02
551.34	43306.93
551.51	43634.61
551.68	43882.70
551.84	43833.55
552.01	43608.86
552.18	43578.43
552.34	43597.16
552.51	43842.92
552.68	43641.63
552.84	43838.23
553.01	44137.82
553.18	43646.31
553.34	43782.06
553.51	43606.52
553.67	44093.35
553.84	44287.62
554.01	44432.73
554.17	44196.34
554.34	44432.73
554.51	44142.50
554.67	44083.99
554.84	44133.14
555.00	44254.85
555.17	43929.51
555.33	44601.25
555.50	43564.39
555.67	44304.00
555.83	44449.11
556.00	44280.60
556.16	44395.28
556.33	44315.70
556.50	44374.22
556.66	44418.69
556.83	43966.96
556.99	44732.32
557.16	44156.55
557.32	44076.97
557.49	44589.55
557.65	44385.92
557.82	44521.67
557.98	44493.58
558.15	44313.36
558.32	44596.57
558.48	44315.70
558.65	44821.26
558.81	44877.43
558.98	44203.36
559.14	44219.74
559.31	44753.38
559.47	44626.99
559.64	44589.55
559.80	45024.89
559.97	45090.42
560.13	44409.32
560.30	44814.24
560.46	44910.20
560.63	44587.21
560.79	45280.00
560.96	44982.76
561.12	44734.66
561.29	45010.84
561.45	44746.36
561.61	44900.84
561.78	44804.88
561.94	45050.63
562.11	45003.82
562.27	45083.40
562.44	44776.79
562.60	45689.60
562.77	45052.97
562.93	44847.00
563.10	44734.66
563.26	45092.76
563.42	45179.36
563.59	44900.84
563.75	45251.92
563.92	45717.68
564.08	45001.48
564.24	45380.65
564.41	44910.20
564.57	44949.99
564.74	45095.10
564.90	45191.06
565.07	44966.37
565.23	44828.28
565.39	44921.90
565.56	45024.89
565.72	45237.87
565.88	45172.34
566.05	44910.20
566.21	45191.06
566.38	45289.37
566.54	45404.05
566.70	45366.60
566.87	45399.37
567.03	45626.40
567.19	45876.84
567.36	45525.76
567.52	44996.80
567.68	45258.94
567.85	45134.89
568.01	45265.96
568.17	45069.36
568.34	45518.74
568.50	45055.31
568.66	44926.58
568.83	45095.10
568.99	45076.38
569.15	45605.34
569.32	45457.88
569.48	45209.79
569.64	45769.18
569.81	45507.04
569.97	45216.81
570.13	45322.13
570.30	45249.58
570.46	44781.47
570.62	44378.90
570.78	44596.57
570.95	45237.87
571.11	44849.35
571.27	45326.81
571.43	44964.03
571.60	45310.43
571.76	45317.45
571.92	45694.28
572.09	44818.92
572.25	45640.45
572.41	45406.39
572.57	45668.53
572.74	45879.18
572.90	45495.33
573.06	45492.99
573.22	45633.42
573.38	45235.53
573.55	45415.76
573.71	45670.87
573.87	45883.86
574.03	45263.62
574.20	45525.76
574.36	45448.52
574.52	46096.85
574.68	45443.84
574.84	45329.16
575.01	45034.25
575.17	45530.44
575.33	45675.55
575.49	45174.68
575.65	45612.36
575.82	45785.56
575.98	45333.84
576.14	45879.18
576.30	45642.79
576.46	45127.87
576.62	45474.27
576.79	45155.96
576.95	45317.45
577.11	45830.03
577.27	45544.48
577.43	45471.93
577.59	44879.77
577.75	45029.57
577.92	45195.74
578.08	45198.09
578.24	45235.53
578.40	45595.98
578.56	45315.11
578.72	45577.25
578.88	46021.95
579.04	46181.11
579.21	45074.04
579.37	45453.20
579.53	45710.66
579.69	45294.05
579.85	44994.46
580.01	45855.78
580.17	45518.74
580.33	45284.68
580.49	45916.63
580.65	45755.13
580.82	45427.46
580.98	45397.03
581.14	45160.64
581.30	45825.35
581.46	45488.31
581.62	45595.98
581.78	45439.16
581.94	46169.41
582.10	45593.64
582.26	45715.34
582.42	45619.38
582.58	45563.21
582.74	45420.44
582.90	46005.57
583.06	46234.94
583.22	45689.60
583.38	45853.44
583.54	45865.14
583.70	45652.15
583.86	45698.96
584.02	45031.91
584.18	46054.72
584.34	45799.60
584.50	45907.27
584.66	45539.80
584.82	45757.47
584.98	45961.10
585.14	46031.32
585.30	45371.28
585.46	45741.09
585.62	45471.93
585.78	45450.86
585.94	45305.75
586.10	45642.79
586.26	45713.00
586.42	45776.20
586.58	46057.06
586.74	45319.79
586.90	45338.52
587.06	45638.11
587.22	45600.66
587.38	45485.97
587.54	45876.84
587.70	45925.99
587.86	45439.16
588.02	45588.95
588.18	45549.17
588.34	45649.81
588.49	44924.24
588.65	45249.58
588.81	45436.82
588.97	45251.92
589.13	45329.16
589.29	45301.07
589.45	45301.07
589.61	45708.32
589.77	45677.90
589.93	45986.85
590.08	45904.93
590.24	45783.22
590.40	45844.07
590.56	46305.16
590.72	45785.56
590.88	45521.08
591.04	46036.00
591.20	46169.41
591.35	45897.91
591.51	46389.42
591.67	45497.67
591.83	45818.33
591.99	45322.13
592.15	45600.66
592.31	45638.11
592.46	45544.48
592.62	45928.33
592.78	45680.24
592.94	46017.27
593.10	45860.46
593.26	46028.98
593.41	46052.38
593.57	45626.40
593.73	45441.50
593.89	45881.52
594.05	46052.38
594.20	45738.75
594.36	45551.51
594.52	46146.00
594.68	46253.67
594.84	45453.20
594.99	46181.11
595.15	45619.38
595.31	46089.83
595.47	45886.20
595.62	45869.82
595.78	45769.18
595.94	46377.72
596.10	46068.76
596.25	46064.08
596.41	45352.56
596.57	45790.24
596.73	46157.70
596.88	45525.76
597.04	45652.15
597.20	45743.43
597.36	46043.02
597.51	45998.55
597.67	45516.40
597.83	45535.12
597.99	46408.14
598.14	45790.24
598.30	46082.81
598.46	45853.44
598.61	46117.92
598.77	45581.93
598.93	45883.86
599.09	46089.83
599.24	46183.45
599.40	46028.98
599.56	45558.53
599.71	45691.94
599.87	45897.91
600.03	45851.09
600.18	46040.68
600.34	46209.20
600.50	45965.78
600.65	45708.32
600.81	45783.22
600.97	46038.34
601.12	46157.70
601.28	45808.96
601.44	45640.45
601.59	45883.86
601.75	45642.79
601.91	45911.95
602.06	45649.81
602.22	46138.98
602.37	46080.47
602.53	45865.14
602.69	46354.31
602.84	45523.42
603.00	45790.24
603.16	46059.40
603.31	46096.85
603.47	45642.79
603.62	46031.32
603.78	46089.83
603.94	46021.95
604.09	45614.70
604.25	46143.66
604.40	45914.29
604.56	46005.57
604.71	45738.75
604.87	45804.28
605.03	45401.71
605.18	45553.85
605.34	45567.89
605.49	45502.35
605.65	45961.10
605.80	45808.96
605.96	45649.81
606.12	45720.02
606.27	46003.23
606.43	45420.44
606.58	45968.12
606.74	45757.47
606.89	45401.71
607.05	45504.70
607.20	45778.54
607.36	45755.13
607.51	45830.03
607.67	45759.81
607.82	45614.70
607.98	45755.13
608.13	45497.67
608.29	45373.63
608.44	45336.18
608.60	45024.89
608.75	45532.78
608.91	45095.10
609.06	45413.41
609.22	45722.37
609.37	45261.28
609.53	45361.92
609.68	45387.67
609.84	45612.36
609.99	45104.46
610.15	45347.88
610.30	44985.10
610.46	45017.86
610.61	45333.84
610.76	45223.83
610.92	45539.80
611.07	45301.07
611.23	45490.65
611.38	45652.15
611.54	45331.50
611.69	45008.50
611.84	44629.34
612.00	44725.30
612.15	45153.62
612.31	45177.02
612.46	45090.42
612.62	45202.77
612.77	45104.46
612.92	44949.99
613.08	44711.25
613.23	44631.68
613.39	44222.08
613.54	44486.56
613.69	44547.42
613.85	44402.30
614.00	44753.38
614.15	45198.09
614.31	44994.46
614.46	44760.40
614.62	44683.17
614.77	44872.75
614.92	44744.02
615.08	44369.54
615.23	44638.70
615.38	44605.93
615.54	44638.70
615.69	44486.56
615.84	44458.48
616.00	44636.36
616.15	44229.10
616.30	44123.78
616.46	44423.37
616.61	44268.89
616.76	44421.03
616.92	44006.75
617.07	44435.07
617.22	44105.06
617.37	44123.78
617.53	44839.98
617.68	44271.23
617.83	44224.42
617.99	44385.92
618.14	44311.02
618.29	44095.69
618.45	44083.99
618.60	43981.01
618.75	43962.28
618.90	44081.65
619.06	44023.14
619.21	43746.95
619.36	44112.08
619.51	43859.30
619.67	43852.28
619.82	43608.86
619.97	43768.02
620.12	43903.77
620.28	43608.86
620.43	43632.27
620.58	43810.15
620.73	43779.72
620.89	43739.93
621.04	44034.84
621.19	43814.83
621.34	43627.59
621.49	43601.84
621.65	43164.16
621.80	43606.52
621.95	43601.84
622.10	43639.29
622.25	43145.44
622.41	43400.55
622.56	43372.47
622.71	43641.63
622.86	43264.80
623.01	43047.13
623.16	43583.12
623.32	43271.82
623.47	43550.35
623.62	43187.56
623.77	42953.51
623.92	43571.41
624.07	42852.87
624.23	42885.64
624.38	42969.90
624.53	43262.46
624.68	43005.00
624.83	43571.41
624.98	43000.32
625.13	43040.11
625.29	43129.05
625.44	43091.60
625.59	42742.86
625.74	42958.19
625.89	43281.19
626.04	42574.34
626.19	42534.56
626.34	42555.62
626.49	42686.69
626.65	42604.77
626.80	42780.31
626.95	42586.05
627.10	42291.14
627.25	42789.67
627.40	42117.94
627.55	42094.53
627.70	42078.15
627.85	42616.47
628.00	42607.11
628.15	42618.81
628.30	42567.32
628.45	42377.74
628.60	42518.17
628.76	42230.29
628.91	42796.70
629.06	42190.50
629.21	41975.17
629.36	42199.86
629.51	42085.17
629.66	42124.96
629.81	41820.69
629.96	42003.25
630.11	42174.11
630.26	42155.39
630.41	42073.47
630.56	41811.33
630.71	41818.35
630.86	41830.05
631.01	41383.01
631.16	41518.76
631.31	41242.58
631.46	41158.32
631.61	41886.23
631.76	41804.31
631.91	41914.31
632.06	41841.76
632.21	41984.53
632.36	41879.21
632.51	41448.55
632.66	41621.75
632.81	41375.99
632.96	41682.60
633.10	41474.29
633.25	41390.03
633.40	41860.48
633.55	41275.35
633.70	41696.64
633.85	41132.57
634.00	41757.50
634.15	41448.55
634.30	41368.97
634.45	41095.13
634.60	41317.48
634.75	41251.94
634.90	41053.00
635.05	41315.14
635.19	41141.94
635.34	41123.21
635.49	41284.71
635.64	40889.16
635.79	40774.47
635.94	41202.79
636.09	40847.03
636.24	40858.73
636.39	40514.67
636.53	40718.30
636.68	40708.94
636.83	40884.48
636.98	40566.16
637.13	40617.66
637.28	41139.60
637.43	40598.93
637.57	40893.84
637.72	40964.06
637.87	40620.00
638.02	40863.41
638.17	40711.28
638.32	40655.11
638.46	40641.06
638.61	40334.45
638.76	40519.35
638.91	40339.13
639.06	40505.31
639.20	40458.50
639.35	40458.50
639.50	40552.12
639.65	40425.73
639.80	40381.26
639.94	40388.28
640.09	40481.91
640.24	39887.41
640.39	39548.03
640.54	40147.21
640.68	40114.44
640.83	39976.35
640.98	39285.89
641.13	39313.98
641.27	39868.69
641.42	39426.32
641.57	39480.16
641.72	39959.97
641.86	39735.27
642.01	39707.19
642.16	39742.30
642.31	39384.19
642.45	40062.95
642.60	39913.16
642.75	39709.53
642.90	39681.44
643.04	39800.81
643.19	40147.21
643.34	39459.09
643.48	39562.08
643.63	39590.16
643.78	39203.97
643.93	39807.83
644.07	39063.54
644.22	39655.70
644.37	39096.31
644.51	39845.28
644.66	39585.48
644.81	39550.37
644.95	39510.58
645.10	39140.78
645.25	39105.67
645.39	39222.70
645.54	39276.53
645.69	38955.88
645.83	38948.85
645.98	39386.54
646.13	38824.81
646.27	39026.09
646.42	38789.70
646.57	39276.53
646.71	39248.44
646.86	38939.49
647.00	38909.07
647.15	39115.03
647.30	38675.01
647.44	38698.42
647.59	38696.08
647.74	38567.35
647.88	38511.17
648.03	38888.00
648.17	38895.02
648.32	38513.52
648.47	38433.94
648.61	38562.67
648.76	38586.07
648.90	38972.26
649.05	38206.90
649.20	38878.64
649.34	38483.09
649.49	38356.70
649.63	38302.87
649.78	38146.05
649.92	38951.20
650.07	38696.08
650.21	38349.68
650.36	38614.16
650.51	38534.58
650.65	39033.11
650.80	39147.80
650.94	38464.36
651.09	38534.58
651.23	37972.85
651.38	38314.57
651.52	37832.42
651.67	37490.70
651.81	37881.57
651.96	37916.68
652.10	38417.55
652.25	38089.88
652.39	38132.01
652.54	38211.59
652.68	37921.36
652.83	38099.24
652.97	38356.70
653.12	38162.43
653.26	37544.53
653.41	37975.19
653.55	37694.33
653.70	37848.80
653.84	38036.05
653.99	37535.17
654.13	37642.84
654.27	37607.73
654.42	37748.16
654.56	38075.84
654.71	37699.01
654.85	37729.44
655.00	37645.18
655.14	37392.40
655.29	37469.64
655.43	37333.89
655.57	37434.53
655.72	37116.22
655.86	37394.74
656.01	36767.48
656.15	36400.01
656.30	36900.89
656.44	36830.67
656.58	37399.42
656.73	37177.07
656.87	36875.14
657.01	36519.38
657.16	37057.70
657.30	36439.80
657.45	36575.55
657.59	36507.68
657.73	36498.31
657.88	36950.04
658.02	36905.57
658.16	36933.65
658.31	36947.70
658.45	36877.48
658.60	36725.35
658.74	36694.92
658.88	36825.99
659.03	36238.51
659.17	36896.20
659.31	36538.10
659.46	36243.20
659.60	36332.14
659.74	36488.95
659.89	36369.58
660.03	36336.82
660.17	36481.93
660.32	36182.34
660.46	36341.50
660.60	36243.20
660.74	36196.38
660.89	36196.38
661.03	36175.32
661.17	36158.94
661.32	35754.02
661.46	36018.50
661.60	35489.54
661.74	35541.03
661.89	35686.15
662.03	35665.08
662.17	35419.33
662.31	35754.02
662.46	36126.17
662.60	35885.09
662.74	35782.11
662.88	35447.41
663.03	35433.37
663.17	35440.39
663.31	35068.25
663.45	35599.55
663.60	35459.12
663.74	35299.96
663.88	35480.18
664.02	35061.22
664.17	35103.35
664.31	35290.60
664.45	34689.08
664.59	34876.32
664.73	34789.72
664.88	34904.41
665.02	34389.49
665.16	34321.62
665.30	34363.75
665.44	34314.59
665.59	34359.06
665.73	34424.60
665.87	34295.87
666.01	34050.11
666.15	34403.53
666.29	34588.44
666.44	34305.23
666.58	34333.32
666.72	34050.11
666.86	34284.17
667.00	34300.55
667.14	33701.37
667.28	33802.02
667.43	34089.90
667.57	33811.38
667.71	33745.84
667.85	33626.48
667.99	33963.51
668.13	33970.54
668.27	33802.02
668.41	33352.63
668.56	33677.97
668.70	33518.81
668.84	33387.74
668.98	33277.74
669.12	33432.21
669.26	33174.75
669.40	32975.81
669.54	33113.90
669.68	33275.40
669.82	32863.46
669.96	32584.94
670.10	32790.91
670.25	33097.52
670.39	32470.25
670.53	33106.88
670.67	32575.58
670.81	32507.70
670.95	32348.54
671.09	32208.11
671.23	32472.59
671.37	32470.25
671.51	32425.78
671.65	32364.93
671.79	32191.73
671.93	31768.09
672.07	32294.71
672.21	32018.53
672.35	32367.27
672.49	31737.66
672.63	31644.04
672.77	31534.04
672.91	31714.26
673.05	31742.35
673.19	31732.98
673.33	31201.68
673.47	31222.75
673.61	31175.94
673.75	31297.64
673.89	31222.75
674.03	31110.40
674.17	31138.49
674.31	31040.18
674.45	31119.76
674.59	30932.52
674.73	30747.62
674.87	30869.33
675.01	30789.75
675.15	30862.30
675.29	30567.40
675.43	30916.14
675.56	30480.80
675.70	30504.20
675.84	30260.79
675.98	29383.09
676.12	30045.46
676.26	30263.13
676.40	30139.08
676.54	29886.30
676.68	30047.80
676.82	29219.25
676.96	29661.61
677.10	29570.33
677.23	29596.07
677.37	29167.76
677.51	29076.48
677.65	28994.56
677.79	28933.70
677.93	28716.03
678.07	28737.10
678.21	28407.08
678.34	28512.41
678.48	28542.83
678.62	28362.61
678.76	28203.46
678.90	27997.49
679.04	28116.86
679.18	28203.46
679.31	28163.67
679.45	27491.93
679.59	27833.65
679.73	27882.80
679.87	27744.71
680.00	27772.80
680.14	27466.19
680.28	27655.77
680.42	27119.79
680.56	27103.40
680.70	27239.15
680.83	27037.87
680.97	26780.41
681.11	26962.97
681.25	27302.35
681.39	26614.23
681.52	26796.79
681.66	26415.29
681.80	26574.44
681.94	26417.63
682.07	26401.24
682.21	26221.02
682.35	26249.11
682.49	26352.09
682.62	25729.51
682.76	25706.10
682.90	25888.67
683.04	25926.11
683.17	25579.71
683.31	25369.07
683.45	25331.62
683.59	25860.58
683.72	25575.03
683.86	25191.19
684.00	25324.60
684.13	24828.40
684.27	25104.59
684.41	24734.78
684.55	24854.15
684.68	25027.35
684.82	24795.64
684.96	24540.52
685.09	24652.86
685.23	24395.40
685.37	24519.45
685.50	24346.25
685.64	24680.95
685.78	23957.72
685.91	24067.73
686.05	23871.12
686.19	23702.61
686.32	23356.21
686.46	23110.45
686.60	22843.63
686.73	22951.29
686.87	23047.26
687.01	23152.58
687.14	22958.31
687.28	22845.97
687.42	22838.95
687.55	22979.38
687.69	22745.33
687.82	23012.15
687.96	22747.67
688.10	22366.16
688.23	22771.07
688.37	22602.55
688.50	22256.15
688.64	22354.46
688.78	22286.58
688.91	22038.48
689.05	21649.96
689.18	21909.75
689.32	21626.55
689.46	21900.39
689.59	22169.55
689.73	21706.13
689.86	21631.23
690.00	21724.85
690.13	21682.72
690.27	21181.85
690.41	21088.23
690.54	20952.48
690.68	21153.76
690.81	20900.98
690.95	21193.55
691.08	21057.80
691.22	20798.00
691.35	20730.12
691.49	20908.01
691.62	20929.07
691.76	20695.02
691.89	20706.72
692.03	20421.17
692.16	20276.06
692.30	20182.44
692.43	19737.74
692.57	19957.75
692.70	19749.44
692.84	19559.86
692.97	19372.61
693.11	19543.47
693.24	19461.55
693.38	19735.40
693.51	19288.35
693.65	19536.45
693.78	19288.35
693.92	19164.31
694.05	19271.97
694.19	19037.92
694.32	18841.31
694.45	19129.20
694.59	19028.56
694.72	18609.60
694.86	18656.41
694.99	18436.40
695.13	18640.03
695.26	18508.96
695.39	18302.99
695.53	18808.54
695.66	18644.71
695.80	18209.37
695.93	18052.55
696.07	17872.33
696.20	18143.83
696.33	18162.56
696.47	17940.21
696.60	17729.56
696.73	17481.46
696.87	17319.96
697.00	17635.94
697.14	17516.57
697.27	17345.71
697.40	17128.04
697.54	17200.60
697.67	17102.29
697.80	17022.72
697.94	17053.14
698.07	16947.82
698.21	16975.91
698.34	17062.51
698.47	17184.21
698.61	16802.71
698.74	16755.90
698.87	16662.27
699.01	16273.74
699.14	16486.73
699.27	16123.95
699.40	16173.10
699.54	16058.42
699.67	15796.28
699.80	15765.85
699.94	15981.18
700.07	15815.00
700.20	15948.41
700.34	15864.15
700.47	15915.64
700.60	15630.10
700.73	15822.02
700.87	15545.84
701.00	15484.98
701.13	15330.51
701.26	15445.20
701.40	15169.01
701.53	15138.58
701.66	15016.88
701.79	15183.06
701.93	14958.36
702.06	14752.40
702.19	14626.01
702.32	14881.13
702.46	14918.57
702.59	14532.39
702.72	14665.80
702.85	14918.57
702.99	14635.37
703.12	14450.47
703.25	14087.68
703.38	14274.93
703.51	14267.91
703.65	14181.31
703.78	13867.67
703.91	14207.05
704.04	14061.94
704.17	13823.20
704.31	13834.91
704.44	13521.27
704.57	13720.22
704.70	13607.87
704.83	13631.28
704.96	13694.47
705.10	13476.80
705.23	13397.23
>>>>>End Processed Spectral Data<<<<<
