SpectraSuite Data File
++++++++++++++++++++++++++++++++++++
Date: Fri Oct 25 10:47:19 EDT 2013
User: price-jones
Dark Spectrum Present: No
Reference Spectrum Present: No
Number of Sampled Component Spectra: 1
Spectrometers: USB2+H05261
Integration Time (usec): 100000 (USB2+H05261)
Spectra Averaged: 1 (USB2+H05261)
Boxcar Smoothing: 0 (USB2+H05261)
Correct for Electrical Dark: No (USB2+H05261)
Strobe/Lamp Enabled: No (USB2+H05261)
Correct for Detector Non-linearity: No (USB2+H05261)
Correct for Stray Light: No (USB2+H05261)
Number of Pixels in Processed Spectrum: 2048
>>>>>Begin Processed Spectral Data<<<<<
365.73	161.50
365.92	161.50
366.12	161.50
366.32	42.13
366.52	60.85
366.72	95.96
366.91	16.38
367.11	79.58
367.31	37.45
367.51	0.00
367.70	56.17
367.90	102.98
368.10	105.32
368.30	28.09
368.49	28.09
368.69	51.49
368.89	11.70
369.09	74.90
369.28	121.71
369.48	135.75
369.68	154.48
369.87	86.60
370.07	93.62
370.27	107.66
370.47	196.60
370.66	365.12
370.86	386.19
371.06	428.32
371.25	433.00
371.45	442.36
371.65	533.64
371.84	411.93
372.04	444.70
372.24	430.66
372.44	447.04
372.63	491.51
372.83	463.43
373.03	428.32
373.22	423.64
373.42	559.39
373.62	456.40
373.81	519.60
374.01	456.40
374.21	489.17
374.40	531.30
374.60	564.07
374.79	528.96
374.99	568.75
375.19	521.94
375.38	566.41
375.58	545.34
375.78	512.58
375.97	627.26
376.17	636.63
376.37	559.39
376.56	580.45
376.76	540.66
376.95	571.09
377.15	641.31
377.35	547.69
377.54	568.75
377.74	589.82
377.93	561.73
378.13	566.41
378.33	519.60
378.52	613.22
378.72	624.92
378.91	664.71
379.11	629.60
379.31	578.11
379.50	573.43
379.70	657.69
379.89	645.99
380.09	587.47
380.28	685.78
380.48	641.31
380.68	688.12
380.87	650.67
381.07	657.69
381.26	622.58
381.46	634.29
381.65	713.86
381.85	671.73
382.04	741.95
382.24	713.86
382.43	587.47
382.63	690.46
382.83	636.63
383.02	767.70
383.22	699.82
383.41	660.03
383.61	660.03
383.80	688.12
384.00	746.63
384.19	704.50
384.39	734.93
384.58	704.50
384.78	690.46
384.97	741.95
385.17	699.82
385.36	809.83
385.56	772.38
385.75	746.63
385.95	746.63
386.14	753.65
386.34	816.85
386.53	802.80
386.72	741.95
386.92	805.14
387.11	786.42
387.31	767.70
387.50	795.78
387.70	802.80
387.89	830.89
388.09	746.63
388.28	842.59
388.48	763.01
388.67	842.59
388.86	840.25
389.06	866.00
389.25	863.66
389.45	901.11
389.64	842.59
389.84	830.89
390.03	849.61
390.22	926.85
390.42	924.51
390.61	870.68
390.81	938.55
391.00	830.89
391.19	943.24
391.39	961.96
391.58	957.28
391.78	866.00
391.97	978.34
392.16	889.40
392.36	961.96
392.55	875.36
392.75	917.49
392.94	978.34
393.13	987.71
393.33	961.96
393.52	938.55
393.71	1036.86
393.91	978.34
394.10	880.04
394.29	990.05
394.49	1018.13
394.68	1006.43
394.88	1015.79
395.07	1146.86
395.26	1067.28
395.46	1043.88
395.65	1118.78
395.84	1057.92
396.04	1153.88
396.23	1167.93
396.42	1086.01
396.62	1123.46
396.81	1034.52
397.00	1191.33
397.19	1109.41
397.39	1151.54
397.58	1177.29
397.77	1184.31
397.97	1196.01
398.16	1179.63
398.35	1268.57
398.55	1212.40
398.74	1310.70
398.93	1158.57
399.12	1270.91
399.32	1181.97
399.51	1217.08
399.70	1280.27
399.90	1366.87
400.09	1338.79
400.28	1310.70
400.47	1327.08
400.67	1394.96
400.86	1416.02
401.05	1369.21
401.24	1387.94
401.44	1507.30
401.63	1488.58
401.82	1397.30
402.01	1366.87
402.21	1448.79
402.40	1565.82
402.59	1474.54
402.78	1369.21
402.97	1495.60
403.17	1540.07
403.36	1565.82
403.55	1558.80
403.74	1657.10
403.93	1636.03
404.13	1589.22
404.32	1629.01
404.51	1509.65
404.70	1654.76
404.89	1706.25
405.09	1640.72
405.28	1764.76
405.47	1626.67
405.66	1727.32
405.85	1699.23
406.05	1685.19
406.24	1722.63
406.43	1741.36
406.62	1863.07
406.81	1956.69
407.00	1727.32
407.20	1734.34
407.39	1750.72
407.58	1722.63
407.77	1968.39
407.96	1907.54
408.15	1823.28
408.34	1881.79
408.54	1797.53
408.73	1813.92
408.92	1956.69
409.11	1909.88
409.30	1982.43
409.49	1989.46
409.68	1996.48
409.87	2001.16
410.07	2012.86
410.26	1966.05
410.45	2029.24
410.64	2064.35
410.83	2043.29
411.02	2083.08
411.21	2190.74
411.40	2097.12
411.59	2155.63
411.78	2141.59
411.98	2167.34
412.17	2188.40
412.36	2265.64
412.55	2275.00
412.74	2331.17
412.93	2396.71
413.12	2328.83
413.31	2509.05
413.50	2342.88
413.69	2431.82
413.88	2558.21
414.07	2459.90
414.26	2516.08
414.45	2527.78
414.64	2427.14
414.83	2492.67
415.02	2609.70
415.22	2705.66
415.41	2684.59
415.60	2637.78
415.79	2649.49
415.98	2745.45
416.17	2743.11
416.36	2668.21
416.55	2780.56
416.74	2759.49
416.93	2686.94
417.12	2754.81
417.31	2902.26
417.50	2775.88
417.69	2902.26
417.88	2939.71
418.07	2869.50
418.26	3000.57
418.45	3012.27
418.64	3145.68
418.83	3056.74
419.02	3122.27
419.21	3087.17
419.39	3084.83
419.58	3117.59
419.77	3091.85
419.96	3169.09
420.15	3253.34
420.34	3180.79
420.53	3187.81
420.72	3290.79
420.91	3155.04
421.10	3199.51
421.29	3316.54
421.48	3300.16
421.67	3302.50
421.86	3246.32
422.05	3239.30
422.24	3267.39
422.43	3279.09
422.61	3377.39
422.80	3281.43
422.99	3236.96
423.18	3524.85
423.37	3463.99
423.56	3473.36
423.75	3344.63
423.94	3445.27
424.13	3148.02
424.32	3229.94
424.50	3424.20
424.69	3508.46
424.88	3538.89
425.07	3396.12
425.26	3459.31
425.45	3396.12
425.64	3370.37
425.83	3487.40
426.01	3478.04
426.20	3442.93
426.39	3592.72
426.58	3487.40
426.77	3541.23
426.96	3403.14
427.15	3414.84
427.33	3545.91
427.52	3494.42
427.71	3574.00
427.90	3630.17
428.09	3674.64
428.28	3583.36
428.46	3606.77
428.65	3618.47
428.84	3885.29
429.03	3669.96
429.22	3632.51
429.40	3754.22
429.59	3651.24
429.78	3639.53
429.97	3513.14
430.16	3665.28
430.34	3791.67
430.53	3819.75
430.72	3784.65
430.91	3695.71
431.10	3899.33
431.28	3943.80
431.47	4030.40
431.66	4063.17
431.85	3999.98
432.03	3976.57
432.22	3978.91
432.41	4095.94
432.60	4126.36
432.79	4088.92
432.97	4222.33
433.16	4142.75
433.35	4037.42
433.54	4128.70
433.72	4109.98
433.91	4131.05
434.10	4182.54
434.28	4231.69
434.47	4322.97
434.66	4318.29
434.85	4219.99
435.03	4308.93
435.22	4262.12
435.41	4458.72
435.59	4292.54
435.78	4360.42
435.97	4437.66
436.16	4395.53
436.34	4400.21
436.53	4287.86
436.72	4533.62
436.90	4411.91
437.09	4634.26
437.28	4465.74
437.46	4444.68
437.65	4440.00
437.84	4601.49
438.02	4596.81
438.21	4592.13
438.40	4671.71
438.58	4585.11
438.77	4795.76
438.96	4727.88
439.14	4807.46
439.33	4833.21
439.52	4961.94
439.70	4842.57
439.89	5090.67
440.08	4997.04
440.26	5069.60
440.45	5074.28
440.63	5048.54
440.82	5048.54
441.01	5018.11
441.19	5207.69
441.38	5366.85
441.57	5231.10
441.75	5366.85
441.94	5383.23
442.12	5497.92
442.31	5439.40
442.50	5472.17
442.68	5310.68
442.87	5462.81
443.05	5518.98
443.24	5568.13
443.43	5542.39
443.61	5495.58
443.80	5825.59
443.98	5404.30
444.17	5165.56
444.35	5638.35
444.54	5715.59
444.73	5657.07
444.91	5605.58
445.10	5577.50
445.28	5647.71
445.47	5617.29
445.65	5607.92
445.84	5680.48
446.02	5729.63
446.21	5666.44
446.39	5511.96
446.58	5872.40
446.77	5776.44
446.95	5729.63
447.14	5764.74
447.32	5919.21
447.51	5750.70
447.69	5757.72
447.88	5799.85
448.06	5809.21
448.25	5825.59
448.43	5856.02
448.62	5874.74
448.80	5783.46
448.99	5837.30
449.17	5856.02
449.36	5916.87
449.54	6083.05
449.73	5930.92
449.91	6080.71
450.10	6148.59
450.28	6092.41
450.46	6153.27
450.65	5991.77
450.83	6118.16
451.02	6352.21
451.20	6207.10
451.39	6218.80
451.57	6150.93
451.76	6195.40
451.94	6080.71
452.13	6314.77
452.31	6146.25
452.49	6038.58
452.68	6284.34
452.86	6387.32
453.05	6424.77
453.23	6420.09
453.42	6534.78
453.60	6347.53
453.78	6321.79
453.97	6293.70
454.15	6387.32
454.34	6490.31
454.52	6539.46
454.70	6619.04
454.89	6555.84
455.07	6480.94
455.26	6740.74
455.44	6633.08
455.62	6633.08
455.81	6761.81
455.99	6740.74
456.17	6684.57
456.36	6801.60
456.54	6839.05
456.73	6789.89
456.91	6981.82
457.09	7016.93
457.28	7117.57
457.46	6860.11
457.64	6998.20
457.83	6984.16
458.01	6862.45
458.19	7218.21
458.38	7082.46
458.56	7169.06
458.74	7045.01
458.93	7145.66
459.11	7087.14
459.29	7300.13
459.48	7325.88
459.66	7335.24
459.84	7267.36
460.03	7433.54
460.21	7417.16
460.39	7309.49
460.57	7384.39
460.76	7578.65
460.94	7470.99
461.12	7421.84
461.31	7564.61
461.49	7604.40
461.67	7569.29
461.85	7749.51
462.04	7730.79
462.22	8079.53
462.40	7585.68
462.59	7630.15
462.77	7777.60
462.95	7793.98
463.13	7618.44
463.32	7679.30
463.50	7810.37
463.68	7943.78
463.86	7765.90
464.05	7866.54
464.23	7852.50
464.41	8105.28
464.59	7854.84
464.78	7948.46
464.96	7882.92
465.14	7885.26
465.32	7978.89
465.50	7894.63
465.69	7985.91
465.87	8058.46
466.05	8058.46
466.23	7866.54
466.41	8100.59
466.60	8198.90
466.78	7974.21
466.96	8070.17
467.14	8121.66
467.32	8201.24
467.51	8276.13
467.69	8018.68
467.87	8236.35
468.05	8339.33
468.23	8063.15
468.41	8353.37
468.60	8372.10
468.78	8456.36
468.96	8269.11
469.14	8446.99
469.32	8599.13
469.50	8332.31
469.69	8542.96
469.87	8542.96
470.05	8561.68
470.23	8683.39
470.41	8643.60
470.59	8674.03
470.77	8669.34
470.95	8856.59
471.14	8887.01
471.32	8507.85
471.50	8908.08
471.68	8992.34
471.86	8980.64
472.04	9156.18
472.22	9273.20
472.40	8973.61
472.58	9170.22
472.77	9149.15
472.95	9427.68
473.13	9633.64
473.31	9228.73
473.49	9317.67
473.67	9249.80
473.85	9467.47
474.03	9685.14
474.21	9523.64
474.39	9668.75
474.57	9605.56
474.75	9715.56
474.93	9827.91
475.12	9783.44
475.30	9888.76
475.48	10019.83
475.66	10064.30
475.84	9998.77
476.02	10026.86
476.20	10127.50
476.38	10097.07
476.56	10483.26
476.74	10366.23
476.92	10572.20
477.10	10293.68
477.28	10258.57
477.46	10649.44
477.64	10626.03
477.82	10626.03
478.00	11052.01
478.18	10998.18
478.36	11002.86
478.54	11192.44
478.72	11400.75
478.90	11215.85
479.08	11346.92
479.26	11445.22
479.44	11819.71
479.62	11604.38
479.80	11559.91
479.98	11836.09
480.16	12006.95
480.34	11674.59
480.52	12013.97
480.70	11850.13
480.88	12028.01
481.06	12325.26
481.24	12229.30
481.41	12587.40
481.59	12437.61
481.77	12456.33
481.95	12767.62
482.13	12840.18
482.31	12943.16
482.49	13104.66
482.67	13090.62
482.85	13200.62
483.03	13317.65
483.21	13458.08
483.39	13752.99
483.57	13551.70
483.74	14022.15
483.92	13965.98
484.10	13638.30
484.28	13984.70
484.46	14370.89
484.64	14403.66
484.82	14113.43
485.00	14347.48
485.18	14534.73
485.35	14611.96
485.53	14626.01
485.71	14537.07
485.89	15007.52
486.07	14960.70
486.25	14871.76
486.43	15166.67
486.61	15264.97
486.78	15602.01
486.96	15283.70
487.14	15800.96
487.32	15859.47
487.50	15733.08
487.68	16037.35
487.85	16336.94
488.03	16470.35
488.21	16847.18
488.39	16570.99
488.57	16627.17
488.75	16940.80
488.92	17221.66
489.10	17324.65
489.28	17369.12
489.46	17476.78
489.64	17444.01
489.81	18115.75
489.99	17891.06
490.17	18066.60
490.35	18473.85
490.53	18239.79
490.70	18188.30
490.88	18328.74
491.06	18443.42
491.24	18611.94
491.41	18574.49
491.59	18686.84
491.77	18757.05
491.95	18995.79
492.13	19164.31
492.30	19424.11
492.48	19297.72
492.66	19391.34
492.84	19632.41
493.01	19826.68
493.19	19782.21
493.37	19999.88
493.54	20161.37
493.72	19903.92
493.90	20383.73
494.08	20325.21
494.25	20355.64
494.43	20610.76
494.61	21099.93
494.79	20807.36
494.96	20957.16
495.14	20891.62
495.32	21228.66
495.49	21195.89
495.67	21062.48
495.85	21511.86
496.02	21703.79
496.20	21905.07
496.38	21991.67
496.55	21898.05
496.73	22738.30
496.91	21977.63
497.09	22295.94
497.26	22693.83
497.44	22588.51
497.62	22703.20
497.79	22988.74
497.97	23021.51
498.14	23012.15
498.32	23058.96
498.50	23084.70
498.67	23023.85
498.85	23068.32
499.03	23545.79
499.20	23424.08
499.38	23789.20
499.56	23840.70
499.73	23836.02
499.91	24107.52
500.08	23882.83
500.26	23840.70
500.44	23878.15
500.61	24159.01
500.79	24231.57
500.97	24184.76
501.14	24884.58
501.32	24327.53
501.49	24608.39
501.67	24580.31
501.84	24926.71
502.02	24863.51
502.20	24812.02
502.37	25057.78
502.55	25088.20
502.72	25319.92
502.90	25270.76
503.07	24964.15
503.25	25483.75
503.43	25502.48
503.60	25682.70
503.78	25724.83
503.95	26045.48
504.13	25947.18
504.30	25958.88
504.48	25558.65
504.65	26082.93
504.83	26197.62
505.01	26106.34
505.18	26143.78
505.36	26597.85
505.53	26267.83
505.71	26719.56
505.88	26808.50
506.06	26363.79
506.23	26637.64
506.41	26651.68
506.58	26749.98
506.76	26745.30
506.93	26923.18
507.11	26993.40
507.28	27082.34
507.46	27126.81
507.63	27400.65
507.81	27646.41
507.98	27440.44
508.16	27377.25
508.33	27632.36
508.50	27758.75
508.68	28226.86
508.85	28713.69
509.03	28311.12
509.20	28109.83
509.38	28198.77
509.55	28034.94
509.73	28332.18
509.90	28418.78
510.08	28177.71
510.25	28664.54
510.42	28732.42
510.60	28608.37
510.77	28629.43
510.95	29139.67
511.12	29312.87
511.30	29095.20
511.47	29483.73
511.64	29759.91
511.82	29582.03
511.99	29228.61
512.17	29692.04
512.34	29472.03
512.51	29898.00
512.69	30183.55
512.86	29951.84
513.04	30000.99
513.21	29785.66
513.38	30022.05
513.56	29928.43
513.73	29694.38
513.90	30342.70
514.08	30005.67
514.25	30244.40
514.43	30529.95
514.60	29986.94
514.77	30665.70
514.95	30984.01
515.12	30429.30
515.29	30326.32
515.47	30962.95
515.64	30906.77
515.81	31005.08
515.99	30822.51
516.16	31278.92
516.33	31201.68
516.51	31232.11
516.68	31091.68
516.85	31164.23
517.03	31452.12
517.20	31260.20
517.37	31414.67
517.54	31608.93
517.72	31592.55
517.89	31838.31
518.06	31660.43
518.24	31681.49
518.41	31466.16
518.58	31922.57
518.75	31608.93
518.93	32194.07
519.10	32063.00
519.27	32355.57
519.45	32072.36
519.62	32184.71
519.79	32486.64
519.96	32065.34
520.14	32739.41
520.31	32526.42
520.48	32936.02
520.65	32835.38
520.83	32847.08
521.00	32840.06
521.17	33092.83
521.34	33280.08
521.52	33244.97
521.69	33268.37
521.86	33013.26
522.03	33191.14
522.20	33446.26
522.38	33495.41
522.55	33715.42
522.72	33773.93
522.89	33354.97
523.07	33724.78
523.24	33385.40
523.41	33823.08
523.58	33741.16
523.75	34164.80
523.92	34206.93
524.10	33848.83
524.27	34024.37
524.44	34068.84
524.61	34436.30
524.78	34586.10
524.96	34270.12
525.13	34806.11
525.30	34595.46
525.47	35072.93
525.64	34883.34
525.81	34658.65
525.98	34621.20
526.16	34485.45
526.33	34731.21
526.50	34719.51
526.67	34810.79
526.84	34368.43
527.01	34930.16
527.18	34993.35
527.36	34796.74
527.53	35089.31
527.70	35381.88
527.87	35222.72
528.04	35526.99
528.21	35578.48
528.38	35552.74
528.55	35756.36
528.72	35763.39
528.89	35859.35
529.07	35842.96
529.24	35416.99
529.41	35660.40
529.58	35353.79
529.75	36025.53
529.92	36128.51
530.09	35941.27
530.26	36182.34
530.43	36268.94
530.60	35800.83
530.77	36098.08
530.94	36231.49
531.11	36062.97
531.28	36465.55
531.46	36348.52
531.63	36783.86
531.80	36346.18
531.97	36465.55
532.14	36554.49
532.31	36521.72
532.48	36907.91
532.65	36795.56
532.82	36884.50
532.99	37062.38
533.16	36582.57
533.33	37158.34
533.50	36896.20
533.67	37120.90
533.84	37156.00
534.01	37242.60
534.18	37251.97
534.35	37303.46
534.52	37902.64
534.69	37455.59
534.86	37593.68
535.03	37408.78
535.20	37352.61
535.37	38157.75
535.54	37958.81
535.71	37605.39
535.88	37624.11
536.05	37844.12
536.22	38122.65
536.38	38312.23
536.55	37933.06
536.72	37900.29
536.89	37837.10
537.06	38045.41
537.23	37668.58
537.40	38106.26
537.57	38174.14
537.74	38043.07
537.91	38525.22
538.08	38319.25
538.25	38242.01
538.42	38497.13
538.59	38529.90
538.75	37996.26
538.92	38061.79
539.09	38806.08
539.26	38356.70
539.43	38660.97
539.60	38485.43
539.77	38253.72
539.94	39014.39
540.11	38831.83
540.28	38689.06
540.44	38583.73
540.61	38848.21
540.78	38588.41
540.95	38504.15
541.12	38972.26
541.29	38653.95
541.46	39044.82
541.62	39189.93
541.79	39115.03
541.96	38663.31
542.13	38916.09
542.30	38934.81
542.47	39559.73
542.63	39431.01
542.80	39349.09
542.97	39852.30
543.14	40086.36
543.31	40032.52
543.48	39786.77
543.64	39903.79
543.81	40058.27
543.98	40191.68
544.15	40069.97
544.32	40289.98
544.48	40678.51
544.65	40072.31
544.82	40130.83
544.99	39929.54
545.16	40163.59
545.32	39840.60
545.49	40465.52
545.66	40725.32
545.83	40498.29
546.00	40615.32
546.16	40041.88
546.33	40135.51
546.50	39842.94
546.67	40769.79
546.83	40004.44
547.00	40631.70
547.17	40669.15
547.34	40460.84
547.50	40690.21
547.67	40783.83
547.84	40685.53
548.00	40802.56
548.17	40687.87
548.34	41060.02
548.51	41001.50
548.67	41177.04
548.84	41078.74
549.01	40959.38
549.18	41031.93
549.34	40912.56
549.51	40896.18
549.68	41404.08
549.84	41324.50
550.01	41581.96
550.18	41586.64
550.34	41354.93
550.51	41359.61
550.68	41434.50
550.84	41092.79
551.01	41556.21
551.18	41581.96
551.34	41270.67
551.51	41867.50
551.68	41612.38
551.84	41565.57
552.01	41249.60
552.18	41769.20
552.34	41296.41
552.51	41755.16
552.68	41682.60
552.84	42272.42
553.01	41535.15
553.18	41837.08
553.34	41596.00
553.51	41457.91
553.67	41607.70
553.84	42096.88
554.01	41897.93
554.17	42162.41
554.34	42579.03
554.51	42047.72
554.67	42167.09
554.84	42602.43
555.00	41963.46
555.17	41989.21
555.33	42188.16
555.50	42199.86
555.67	42469.02
555.83	42494.77
556.00	42366.04
556.16	42560.30
556.33	42389.44
556.50	42319.23
556.66	42719.46
556.83	42328.59
556.99	42403.49
557.16	42689.03
557.32	42618.81
557.49	42700.73
557.65	41900.27
557.82	42595.41
557.98	42319.23
558.15	42483.06
558.32	42780.31
558.48	42330.93
558.65	42937.13
558.81	42752.23
558.98	42609.45
559.14	42759.25
559.31	42761.59
559.47	42862.23
559.64	43452.05
559.80	42838.83
559.97	42976.92
560.13	42820.10
560.30	42815.42
560.46	43145.44
560.63	42787.33
560.79	42660.94
560.96	43044.79
561.12	43042.45
561.29	43033.09
561.45	43213.31
561.61	42925.42
561.78	43337.36
561.94	42845.85
562.11	43075.22
562.27	42899.68
562.44	42721.80
562.60	43302.25
562.77	43283.53
562.93	43330.34
563.10	43501.20
563.26	42887.98
563.42	43194.59
563.59	43091.60
563.75	43098.62
563.92	43051.81
564.08	43236.72
564.24	43302.25
564.41	43833.55
564.57	43304.59
564.74	43281.19
564.90	42920.74
565.07	43203.95
565.23	43386.51
565.39	43725.89
565.56	43505.88
565.72	42955.85
565.88	43625.25
566.05	43208.63
566.21	43344.38
566.38	43409.92
566.54	43494.18
566.70	43676.74
566.87	43814.83
567.03	43072.88
567.19	43976.33
567.36	43454.39
567.52	43356.08
567.68	43873.34
567.85	43386.51
568.01	43620.56
568.17	43503.54
568.34	43931.86
568.50	43430.98
568.66	43655.67
568.83	43519.92
568.99	43468.43
569.15	43672.06
569.32	43557.37
569.48	43445.02
569.64	43934.20
569.81	43992.71
569.97	43739.93
570.13	43990.37
570.30	43276.51
570.46	43498.86
570.62	43175.86
570.78	43091.60
570.95	43688.44
571.11	44292.30
571.27	43770.36
571.43	43510.56
571.60	43990.37
571.76	43831.21
571.92	43459.07
572.09	43945.90
572.25	43580.78
572.41	43576.09
572.57	43562.05
572.74	44369.54
572.90	43985.69
573.06	44128.46
573.22	44161.23
573.38	43650.99
573.55	43817.17
573.71	44332.09
573.87	43646.31
574.03	43660.35
574.20	43920.15
574.36	44004.41
574.52	43824.19
574.68	44133.14
574.84	43793.76
575.01	43976.33
575.17	43505.88
575.33	43971.64
575.49	43866.32
575.65	44465.50
575.82	44273.57
575.98	44353.15
576.14	44428.05
576.30	44163.57
576.46	43990.37
576.62	43992.71
576.79	43854.62
576.95	43955.26
577.11	43964.62
577.27	44055.90
577.43	44254.85
577.59	43976.33
577.75	44208.04
577.92	43522.26
578.08	43716.53
578.24	43992.71
578.40	44437.41
578.56	43782.06
578.72	44236.12
578.88	44074.63
579.04	43819.51
579.21	44069.95
579.37	43878.02
579.53	44093.35
579.69	43559.71
579.85	44322.72
580.01	44037.18
580.17	44123.78
580.33	44493.58
580.49	44168.25
580.65	44226.76
580.82	44399.96
580.98	44208.04
581.14	43639.29
581.30	44243.15
581.46	44332.09
581.62	44076.97
581.78	43973.98
581.94	44280.60
582.10	44470.18
582.26	44374.22
582.42	44175.27
582.58	44245.49
582.74	43920.15
582.90	43976.33
583.06	44304.00
583.22	44273.57
583.38	44233.78
583.54	43950.58
583.70	43672.06
583.86	43812.49
584.02	43950.58
584.18	44318.04
584.34	44381.24
584.50	43496.52
584.66	43777.38
584.82	44055.90
584.98	44554.44
585.14	44025.48
585.30	44236.12
585.46	44095.69
585.62	43959.94
585.78	44083.99
585.94	44414.01
586.10	44226.76
586.26	43927.17
586.42	44079.31
586.58	44521.67
586.74	44526.35
586.90	44268.89
587.06	43838.23
587.22	44409.32
587.38	43732.91
587.54	44449.11
587.70	44605.93
587.86	44397.62
588.02	44566.14
588.18	44404.64
588.34	44236.12
588.49	44243.15
588.65	43863.98
588.81	43882.70
588.97	44088.67
589.13	44128.46
589.29	44086.33
589.45	44767.43
589.61	43924.83
589.77	44816.58
589.93	44524.01
590.08	44713.59
590.24	45062.33
590.40	44711.25
590.56	44554.44
590.72	44519.33
590.88	44156.55
591.04	44666.78
591.20	44655.08
591.35	44802.53
591.51	45067.02
591.67	44809.56
591.83	44535.71
591.99	44100.37
592.15	44678.49
592.31	44025.48
592.46	44837.64
592.62	44554.44
592.78	44659.76
592.94	44683.17
593.10	44451.45
593.26	44872.75
593.41	44676.15
593.57	44641.04
593.73	44044.20
593.89	44549.76
594.05	44732.32
594.20	44315.70
594.36	44832.96
594.52	44858.71
594.68	44432.73
594.84	44753.38
594.99	45212.13
595.15	44378.90
595.31	44458.48
595.47	44921.90
595.62	44643.38
595.78	44453.79
595.94	44758.06
596.10	44938.29
596.25	44940.63
596.41	45050.63
596.57	44397.62
596.73	44945.31
596.88	44376.56
597.04	44168.25
597.20	44814.24
597.36	44549.76
597.51	44715.93
597.67	44596.57
597.83	45123.19
597.99	44884.45
598.14	44858.71
598.30	44629.34
598.46	44304.00
598.61	44219.74
598.77	44507.63
598.93	44910.20
599.09	44301.66
599.24	44779.13
599.40	44589.55
599.56	44776.79
599.71	44456.14
599.87	45022.54
600.03	45237.87
600.18	44971.05
600.34	44701.89
600.50	44928.92
600.65	44559.12
600.81	44629.34
600.97	44966.37
601.12	44823.60
601.28	45057.65
601.44	44676.15
601.59	44931.26
601.75	44301.66
601.91	44879.77
602.06	44844.66
602.22	44603.59
602.37	44907.86
602.53	44657.42
602.69	44912.54
602.84	44535.71
603.00	44612.95
603.16	44589.55
603.31	44903.18
603.47	44383.58
603.62	44357.83
603.78	44767.43
603.94	44638.70
604.09	44954.67
604.25	44697.21
604.40	45029.57
604.56	45343.20
604.71	44957.01
604.87	44891.48
605.03	44889.13
605.18	44559.12
605.34	44498.26
605.49	44191.65
605.65	44554.44
605.80	44589.55
605.96	45144.25
606.12	44842.32
606.27	44676.15
606.43	44804.88
606.58	44596.57
606.74	44320.38
606.89	44322.72
607.05	44399.96
607.20	44811.90
607.36	44961.69
607.51	45212.13
607.67	44533.37
607.82	44615.29
607.98	44102.71
608.13	44547.42
608.29	44556.78
608.44	44116.76
608.60	43915.47
608.75	44210.38
608.91	43770.36
609.06	43943.56
609.22	44615.29
609.37	43878.02
609.53	44542.74
609.68	44423.37
609.84	43962.28
609.99	44182.29
610.15	44320.38
610.30	44399.96
610.46	43969.30
610.61	43950.58
610.76	43999.73
610.92	44172.93
611.07	44390.60
611.23	43756.32
611.38	43789.08
611.54	44273.57
611.69	43707.16
611.84	43913.13
612.00	44123.78
612.15	44109.74
612.31	43849.94
612.46	43784.40
612.62	43992.71
612.77	44327.41
612.92	44414.01
613.08	43650.99
613.23	44053.56
613.39	43983.35
613.54	44034.84
613.69	43777.38
613.85	43742.27
614.00	43915.47
614.15	44123.78
614.31	43761.00
614.46	44172.93
614.62	43597.16
614.77	43910.79
614.92	43955.26
615.08	43592.48
615.23	43494.18
615.38	43232.04
615.54	43578.43
615.69	43344.38
615.84	43241.40
616.00	43295.23
616.15	43295.23
616.30	43901.43
616.46	43693.12
616.61	43185.22
616.76	43339.70
616.92	43398.21
617.07	43379.49
617.22	42951.17
617.37	43168.84
617.53	43526.94
617.68	43309.27
617.83	43456.73
617.99	43164.16
618.14	43491.83
618.29	43213.31
618.45	42965.21
618.60	42969.90
618.75	43339.70
618.90	43339.70
619.06	43615.88
619.21	43393.53
619.36	43215.65
619.51	42749.88
619.67	42747.54
619.82	43353.74
619.97	43323.32
620.12	42646.90
620.28	42787.33
620.43	42876.27
620.58	42974.58
620.73	42579.03
620.89	42466.68
621.04	42951.17
621.19	42880.95
621.34	42377.74
621.49	43014.37
621.65	42630.52
621.80	42911.38
621.95	42237.31
622.10	43239.06
622.25	42506.47
622.41	42398.80
622.56	42241.99
622.71	42855.21
622.86	42529.87
623.01	42621.16
623.16	42621.16
623.32	42696.05
623.47	42813.08
623.62	42813.08
623.77	42506.47
623.92	42590.73
624.07	42328.59
624.23	42281.78
624.38	42209.22
624.53	42216.24
624.68	42089.85
624.83	42361.36
624.98	42232.63
625.13	41951.76
625.29	42595.41
625.44	42307.52
625.59	42010.28
625.74	41607.70
625.89	41757.50
626.04	42047.72
626.19	41865.16
626.34	41933.04
626.49	42162.41
626.65	42061.77
626.80	42286.46
626.95	41453.23
627.10	41776.22
627.25	41727.07
627.40	41263.64
627.55	41621.75
627.70	41518.76
627.85	41448.55
628.00	41448.55
628.15	42087.51
628.30	41717.71
628.45	42052.41
628.60	41511.74
628.76	42103.90
628.91	41289.39
629.06	41567.91
629.21	41462.59
629.36	41310.46
629.51	41024.91
629.66	41202.79
629.81	41333.86
629.96	41429.82
630.11	41223.86
630.26	41610.04
630.41	41776.22
630.56	41235.56
630.71	41333.86
630.86	41333.86
631.01	41174.70
631.16	41343.22
631.31	40594.25
631.46	40636.38
631.61	41102.15
631.76	41240.24
631.91	41265.99
632.06	41036.61
632.21	40854.05
632.36	40961.72
632.51	40882.14
632.66	41191.09
632.81	40720.64
632.96	40741.71
633.10	40219.77
633.25	40285.30
633.40	40605.95
633.55	40973.42
633.70	40863.41
633.85	40996.82
634.00	40425.73
634.15	40634.04
634.30	40776.81
634.45	40856.39
634.60	40320.41
634.75	40685.53
634.90	40903.20
635.05	40481.91
635.19	40360.20
635.34	41151.30
635.49	40790.86
635.64	40301.68
635.79	40215.08
635.94	40245.51
636.09	40528.72
636.24	40161.25
636.39	39777.40
636.53	40222.11
636.68	39688.46
636.83	40105.08
636.98	40350.84
637.13	39571.44
637.28	40030.18
637.43	40306.37
637.57	40456.16
637.72	40060.61
637.87	39894.43
638.02	40142.53
638.17	39899.11
638.32	39445.05
638.46	39356.11
638.61	39718.89
638.76	39583.14
638.91	40013.80
639.06	39693.15
639.20	39796.13
639.35	39651.02
639.50	39447.39
639.65	39957.63
639.80	39962.31
639.94	39445.05
640.09	39356.11
640.24	39449.73
640.39	39433.35
640.54	39255.46
640.68	39545.69
640.83	39409.94
640.98	39178.23
641.13	39140.78
641.27	39438.03
641.42	39328.02
641.57	39505.90
641.72	39456.75
641.86	39021.41
642.01	39580.80
642.16	38953.54
642.31	38967.58
642.45	38824.81
642.60	38913.75
642.75	38838.85
642.90	39000.35
643.04	39173.55
643.19	39175.89
643.34	39325.68
643.48	39234.40
643.63	39009.71
643.78	39093.97
643.93	38492.45
644.07	38698.42
644.22	38920.77
644.37	38712.46
644.51	38796.72
644.66	39058.86
644.81	38735.87
644.95	38902.04
645.10	38834.17
645.25	39325.68
645.39	39196.95
645.54	38557.99
645.69	38447.98
645.83	38431.60
645.98	38452.66
646.13	38738.21
646.27	38731.18
646.42	38731.18
646.57	38906.73
646.71	38515.86
646.86	38192.86
647.00	38223.29
647.15	39089.29
647.30	38483.09
647.44	38565.01
647.59	38192.86
647.74	38078.18
647.88	38483.09
648.03	38436.28
648.17	38426.92
648.32	38167.12
648.47	37996.26
648.61	37862.85
648.76	37928.38
648.90	38466.70
649.05	38260.74
649.20	38316.91
649.34	38019.66
649.49	37968.17
649.63	37881.57
649.78	38326.27
649.92	38213.93
650.07	38253.72
650.21	37703.69
650.36	37961.15
650.51	37598.37
650.65	38225.63
650.80	38209.25
650.94	38160.09
651.09	38038.39
651.23	37820.72
651.38	38026.68
651.52	37518.79
651.67	37724.75
651.81	37619.43
651.96	37553.90
652.10	38223.29
652.25	37647.52
652.39	37254.31
652.54	37553.90
652.68	37689.65
652.83	38017.32
652.97	37600.71
653.12	37460.27
653.26	37460.27
653.41	37624.11
653.55	37724.75
653.70	37729.44
653.84	37787.95
653.99	37226.22
654.13	37418.14
654.27	37392.40
654.42	37514.11
654.56	37640.50
654.71	37415.80
654.85	37216.86
655.00	37127.92
655.14	37095.15
655.29	36641.09
655.43	36652.79
655.57	36720.66
655.72	36678.54
655.86	37184.09
656.01	36622.36
656.15	36531.08
656.30	36725.35
656.44	36959.40
656.58	36376.61
656.73	36847.05
656.87	37020.25
657.01	36549.81
657.16	36833.01
657.30	36720.66
657.45	36622.36
657.59	36666.83
657.73	36409.37
657.88	36517.04
658.02	36435.12
658.16	36528.74
658.31	36610.66
658.45	36580.23
658.60	36481.93
658.74	36425.76
658.88	36732.37
659.03	36573.21
659.17	35988.08
659.31	36400.01
659.46	36301.71
659.60	35901.48
659.74	36161.28
659.89	35791.47
660.03	36137.87
660.17	36062.97
660.32	35728.28
660.46	36238.51
660.60	36100.42
660.74	35999.78
660.89	35679.13
661.03	35662.74
661.17	35414.65
661.32	35351.45
661.46	35400.60
661.60	35606.57
661.74	35494.22
661.89	35367.84
662.03	35384.22
662.17	35367.84
662.31	35239.11
662.46	35093.99
662.60	35693.17
662.74	35154.85
662.88	35529.33
663.03	35182.93
663.17	34852.92
663.31	34735.89
663.45	35096.33
663.60	34866.96
663.74	34962.92
663.88	34455.03
664.02	34939.52
664.17	34649.29
664.31	34675.04
664.45	34433.96
664.59	35002.71
664.73	34763.98
664.88	34639.93
665.02	34380.13
665.16	34291.19
665.30	34962.92
665.44	34064.16
665.59	33956.49
665.73	33841.81
665.87	33610.09
666.01	34026.71
666.15	33888.62
666.29	33874.57
666.44	34295.87
666.58	34239.70
666.72	34075.86
666.86	33778.61
667.00	34309.91
667.14	33528.17
667.28	33724.78
667.43	33315.19
667.57	33345.61
667.71	33418.17
667.85	33251.99
667.99	33521.15
668.13	33413.49
668.27	33188.80
668.41	33350.29
668.56	33235.61
668.70	33298.80
668.84	33123.26
668.98	32760.48
669.12	33205.18
669.26	33055.39
669.40	32861.12
669.54	32573.24
669.68	32884.53
669.82	32701.96
669.96	32826.01
670.10	32563.87
670.25	32659.84
670.39	32809.63
670.53	32622.39
670.67	32098.11
670.81	32755.80
670.95	32376.63
671.09	32053.64
671.23	32367.27
671.37	32524.08
671.51	32133.21
671.65	32114.49
671.79	31786.82
671.93	31782.13
672.07	31482.55
672.21	31590.21
672.35	31585.53
672.49	31524.68
672.63	31938.95
672.77	31491.91
672.91	31414.67
673.05	31189.98
673.19	31658.09
673.33	31185.30
673.47	30845.92
673.61	30850.60
673.75	30874.01
673.89	31026.14
674.03	31051.89
674.17	30897.41
674.31	30822.51
674.45	31054.23
674.59	30728.89
674.73	30991.03
674.87	30424.62
675.01	30707.83
675.15	30862.30
675.29	30632.93
675.43	30230.36
675.56	30450.37
675.70	30408.24
675.84	30005.67
675.98	28755.82
676.12	29970.56
676.26	29827.79
676.40	29474.37
676.54	29465.00
676.68	29759.91
676.82	28842.42
676.96	29455.64
677.10	29270.74
677.23	28992.22
677.37	29097.54
677.51	28943.06
677.65	29090.52
677.79	28905.62
677.93	28713.69
678.07	28566.24
678.21	28261.97
678.34	28596.67
678.48	28591.98
678.62	28299.42
678.76	28320.48
678.90	28205.80
679.04	28114.52
679.18	28208.14
679.31	27833.65
679.45	27646.41
679.59	27648.75
679.73	27505.98
679.87	27828.97
680.00	27505.98
680.14	27543.42
680.28	27307.03
680.42	26991.06
680.56	27061.27
680.70	27234.47
680.83	27005.10
680.97	26546.36
681.11	26897.44
681.25	26272.51
681.39	26803.82
681.52	26656.36
681.66	26752.32
681.80	26689.13
681.94	26478.48
682.07	26852.97
682.21	26307.62
682.35	26047.82
682.49	26080.59
682.62	26204.64
682.76	26178.89
682.90	25640.57
683.04	25731.85
683.17	25816.11
683.31	25888.67
683.45	25834.83
683.59	25509.50
683.72	25137.35
683.86	25235.66
684.00	24865.85
684.13	25036.71
684.27	25427.58
684.41	25209.91
684.55	24954.79
684.68	24732.44
684.82	24634.14
684.96	24599.03
685.09	24517.11
685.23	24631.80
685.37	24517.11
685.50	24411.79
685.64	23985.81
685.78	24201.14
685.91	23901.55
686.05	23943.68
686.19	23775.16
686.32	24135.60
686.46	23866.44
686.60	23344.50
686.73	23414.72
686.87	23281.31
687.01	23161.94
687.14	23239.18
687.28	22993.42
687.42	22927.89
687.55	23033.21
687.69	22752.35
687.82	22691.49
687.96	22904.48
688.10	22892.78
688.23	22597.87
688.37	22164.87
688.50	22155.51
688.64	21710.81
688.78	22298.28
688.91	22120.40
689.05	22115.72
689.18	22012.74
689.32	21713.15
689.46	21965.93
689.59	22033.80
689.73	21830.18
689.86	21792.73
690.00	21458.03
690.13	21518.89
690.27	21221.64
690.41	21097.59
690.54	21013.33
690.68	20798.00
690.81	21025.03
690.95	20793.32
691.08	20601.40
691.22	20875.24
691.35	20783.96
691.49	20931.41
691.62	20814.38
691.76	20720.76
691.89	20414.15
692.03	20226.91
692.16	20318.19
692.30	20011.58
692.43	20168.40
692.57	19913.28
692.70	19950.73
692.84	19836.04
692.97	19707.31
693.11	19782.21
693.24	19571.56
693.38	19520.07
693.51	19302.40
693.65	19452.19
693.78	19344.53
693.92	19367.93
694.05	18853.02
694.19	19089.41
694.32	19335.17
694.45	19035.58
694.59	18780.46
694.72	18864.72
694.86	18735.99
694.99	18368.52
695.13	18518.32
695.26	18324.05
695.39	17970.63
695.53	18352.14
695.66	18284.26
695.80	17961.27
695.93	18054.89
696.07	17701.47
696.20	17940.21
696.33	18050.21
696.47	17759.98
696.60	17614.87
696.73	17649.98
696.87	17575.08
697.00	17472.10
697.14	17731.90
697.27	17254.43
697.40	17343.37
697.54	17474.44
697.67	17359.75
697.80	16837.81
697.94	16985.27
698.07	16971.22
698.21	16720.79
698.34	17142.08
698.47	16760.58
698.61	16559.29
698.74	16695.04
698.87	16615.46
699.01	16184.80
699.14	15934.37
699.27	16023.31
699.40	16168.42
699.54	16168.42
699.67	16013.95
699.80	16170.76
699.94	16011.60
700.07	16173.10
700.20	15950.75
700.34	15576.27
700.47	15529.45
700.60	15632.44
700.73	15910.96
700.87	15538.82
701.00	15740.10
701.13	15398.38
701.26	15180.71
701.40	15136.24
701.53	15330.51
701.66	15276.68
701.79	14878.79
701.93	15089.43
702.06	14853.04
702.19	14621.33
702.32	14958.36
702.46	14558.13
702.59	14576.86
702.72	14501.96
702.85	14553.45
702.99	14293.65
703.12	14555.79
703.25	14272.59
703.38	14366.21
703.51	14342.80
703.65	14094.71
703.78	14036.19
703.91	13970.66
704.04	13795.12
704.17	13874.70
704.31	13888.74
704.44	13804.48
704.57	13612.56
704.70	13530.64
704.83	13589.15
704.96	13694.47
705.10	13565.74
705.23	13809.16
>>>>>End Processed Spectral Data<<<<<
