SpectraSuite Data File
++++++++++++++++++++++++++++++++++++
Date: Fri Oct 25 11:34:13 EDT 2013
User: price-jones
Dark Spectrum Present: No
Reference Spectrum Present: No
Number of Sampled Component Spectra: 1
Spectrometers: USB2+H05261
Integration Time (usec): 100000 (USB2+H05261)
Spectra Averaged: 1 (USB2+H05261)
Boxcar Smoothing: 0 (USB2+H05261)
Correct for Electrical Dark: No (USB2+H05261)
Strobe/Lamp Enabled: No (USB2+H05261)
Correct for Detector Non-linearity: No (USB2+H05261)
Correct for Stray Light: No (USB2+H05261)
Number of Pixels in Processed Spectrum: 2048
>>>>>Begin Processed Spectral Data<<<<<
365.73	294.91
365.92	294.91
366.12	294.91
366.32	217.67
366.52	208.31
366.72	163.84
366.91	205.97
367.11	187.24
367.31	149.79
367.51	231.71
367.70	152.13
367.90	180.22
368.10	135.75
368.30	201.29
368.49	168.52
368.69	220.01
368.89	196.60
369.09	182.56
369.28	227.03
369.48	189.58
369.68	271.50
369.87	173.20
370.07	217.67
370.27	301.93
370.47	390.87
370.66	505.56
370.86	617.90
371.06	454.06
371.25	617.90
371.45	437.68
371.65	559.39
371.84	592.16
372.04	528.96
372.24	566.41
372.44	564.07
372.63	543.00
372.83	627.26
373.03	603.86
373.22	589.82
373.42	620.24
373.62	543.00
373.81	627.26
374.01	615.56
374.21	683.44
374.40	601.52
374.60	648.33
374.79	655.35
374.99	737.27
375.19	627.26
375.38	613.22
375.58	660.03
375.78	683.44
375.97	748.97
376.17	660.03
376.37	660.03
376.56	608.54
376.76	624.92
376.95	596.84
377.15	620.24
377.35	664.71
377.54	650.67
377.74	608.54
377.93	638.97
378.13	678.76
378.33	713.86
378.52	645.99
378.72	723.23
378.91	695.14
379.11	739.61
379.31	681.10
379.50	744.29
379.70	741.95
379.89	751.31
380.09	634.29
380.28	690.46
380.48	760.67
380.68	746.63
380.87	676.41
381.07	681.10
381.26	770.04
381.46	718.54
381.65	713.86
381.85	688.12
382.04	807.48
382.24	753.65
382.43	809.83
382.63	744.29
382.83	753.65
383.02	844.93
383.22	816.85
383.41	805.14
383.61	856.64
383.80	856.64
384.00	798.12
384.19	795.78
384.39	828.55
384.58	793.44
384.78	847.27
384.97	748.97
385.17	837.91
385.36	924.51
385.56	880.04
385.75	795.78
385.95	770.04
386.14	908.13
386.34	861.32
386.53	821.53
386.72	833.23
386.92	863.66
387.11	868.34
387.31	933.87
387.50	816.85
387.70	861.32
387.89	858.98
388.09	905.79
388.28	898.77
388.48	959.62
388.67	929.19
388.86	959.62
389.06	903.45
389.25	924.51
389.45	828.55
389.64	973.66
389.84	973.66
390.03	997.07
390.22	903.45
390.42	929.19
390.61	994.73
390.81	987.71
391.00	1008.77
391.19	976.00
391.39	1076.65
391.58	1006.43
391.78	978.34
391.97	1043.88
392.16	990.05
392.36	1083.67
392.55	1027.50
392.75	938.55
392.94	1086.01
393.13	1008.77
393.33	1048.56
393.52	997.07
393.71	1107.07
393.91	1053.24
394.10	1034.52
394.29	1078.99
394.49	1050.90
394.68	1055.58
394.88	1053.24
395.07	1083.67
395.26	1130.48
395.46	1074.31
395.65	1132.82
395.84	1181.97
396.04	1242.82
396.23	1245.16
396.42	1207.72
396.62	1224.10
396.81	1163.25
397.00	1100.05
397.19	1198.35
397.39	1263.89
397.58	1268.57
397.77	1308.36
397.97	1212.40
398.16	1170.27
398.35	1238.14
398.55	1273.25
398.74	1249.85
398.93	1224.10
399.12	1224.10
399.32	1284.95
399.51	1313.04
399.70	1394.96
399.90	1385.60
400.09	1355.17
400.28	1362.19
400.47	1317.72
400.67	1420.71
400.86	1324.74
401.05	1469.86
401.24	1430.07
401.44	1390.28
401.63	1462.83
401.82	1500.28
402.01	1409.00
402.21	1486.24
402.40	1472.20
402.59	1355.17
402.78	1411.34
402.97	1434.75
403.17	1533.05
403.36	1570.50
403.55	1551.78
403.74	1509.65
403.93	1554.12
404.13	1565.82
404.32	1568.16
404.51	1481.56
404.70	1516.67
404.89	1570.50
405.09	1692.21
405.28	1753.06
405.47	1575.18
405.66	1678.16
405.85	1577.52
406.05	1657.10
406.24	1645.40
406.43	1671.14
406.62	1774.13
406.81	1776.47
407.00	1757.74
407.20	1767.10
407.39	1760.08
407.58	1720.29
407.77	1867.75
407.96	1867.75
408.15	1926.26
408.34	1966.05
408.54	1778.81
408.73	1898.17
408.92	1895.83
409.11	2008.18
409.30	2017.54
409.49	2024.56
409.68	1973.07
409.87	1919.24
410.07	1982.43
410.26	2087.76
410.45	2008.18
410.64	2019.88
410.83	2026.90
411.02	2104.14
411.21	2167.34
411.40	2120.53
411.59	2099.46
411.78	2172.02
411.98	2143.93
412.17	2134.57
412.36	2221.17
412.55	2270.32
412.74	2270.32
412.93	2169.68
413.12	2165.00
413.31	2373.30
413.50	2392.03
413.69	2415.43
413.88	2380.32
414.07	2385.01
414.26	2513.74
414.45	2476.29
414.64	2373.30
414.83	2532.46
415.02	2537.14
415.22	2551.18
415.41	2595.65
415.60	2513.74
415.79	2722.04
415.98	2647.15
416.17	2686.94
416.36	2682.25
416.55	2586.29
416.74	2906.95
416.93	2715.02
417.12	2743.11
417.31	2815.66
417.50	2813.32
417.69	2995.89
417.88	2813.32
418.07	2923.33
418.26	2895.24
418.45	2923.33
418.64	3021.63
418.83	3009.93
419.02	2951.42
419.21	3133.98
419.39	3045.04
419.58	2942.05
419.77	3150.36
419.96	2995.89
420.15	3183.13
420.34	2977.16
420.53	3052.06
420.72	3229.94
420.91	3077.80
421.10	3229.94
421.29	3218.24
421.48	3108.23
421.67	3229.94
421.86	3166.74
422.05	3211.22
422.24	3349.31
422.43	3246.32
422.61	3410.16
422.80	3368.03
422.99	3328.24
423.18	3339.94
423.37	3290.79
423.56	3246.32
423.75	3337.60
423.94	3169.09
424.13	3131.64
424.32	3213.56
424.50	3185.47
424.69	3447.61
424.88	3332.92
425.07	3241.64
425.26	3255.69
425.45	3246.32
425.64	3325.90
425.83	3309.52
426.01	3318.88
426.20	3337.60
426.39	3466.33
426.58	3295.47
426.77	3459.31
426.96	3482.72
427.15	3555.27
427.33	3522.51
427.52	3485.06
427.71	3400.80
427.90	3379.73
428.09	3552.93
428.28	3606.77
428.46	3648.90
428.65	3590.38
428.84	3684.00
429.03	3613.79
429.22	3510.80
429.40	3562.30
429.59	3681.66
429.78	3559.95
429.97	3648.90
430.16	3714.43
430.34	3714.43
430.53	3845.50
430.72	3826.78
430.91	3822.09
431.10	3779.97
431.28	3826.78
431.47	3735.50
431.66	3810.39
431.85	3969.55
432.03	4074.87
432.22	3955.51
432.41	3922.74
432.60	3953.16
432.79	3782.31
432.97	4044.45
433.16	4056.15
433.35	3932.10
433.54	4084.23
433.72	4079.55
433.91	3969.55
434.10	4063.17
434.28	4053.81
434.47	4081.89
434.66	4060.83
434.85	4264.46
435.03	4294.88
435.22	4030.40
435.41	4170.83
435.59	4325.31
435.78	4280.84
435.97	4287.86
436.16	4245.73
436.34	4257.43
436.53	4353.40
436.72	4430.63
436.90	4292.54
437.09	4437.66
437.28	4376.80
437.46	4411.91
437.65	4477.44
437.84	4423.61
438.02	4440.00
438.21	4624.90
438.40	4594.47
438.58	4482.13
438.77	4596.81
438.96	4695.11
439.14	4777.03
439.33	4746.61
439.52	4870.65
439.70	4784.06
439.89	4931.51
440.08	4858.95
440.26	4851.93
440.45	4894.06
440.63	4835.55
440.82	4940.87
441.01	4809.80
441.19	5090.67
441.38	5153.86
441.57	5100.03
441.75	5181.95
441.94	5139.82
442.12	5226.42
442.31	5252.16
442.50	5252.16
442.68	5273.23
442.87	5177.26
443.05	5313.02
443.24	5434.72
443.43	5310.68
443.61	5432.38
443.80	5678.14
443.98	5249.82
444.17	5263.86
444.35	5509.62
444.54	5518.98
444.73	5556.43
444.91	5399.62
445.10	5476.85
445.28	5490.90
445.47	5373.87
445.65	5600.90
445.84	5509.62
446.02	5696.86
446.21	5624.31
446.39	5584.52
446.58	5685.16
446.77	5657.07
446.95	5617.29
447.14	5441.75
447.32	5654.73
447.51	5551.75
447.69	5631.33
447.88	5682.82
448.06	5652.39
448.25	5809.21
448.43	5696.86
448.62	5813.89
448.80	5540.05
448.99	5856.02
449.17	5591.54
449.36	5720.27
449.54	5818.57
449.73	5865.38
449.91	5949.64
450.10	6029.22
450.28	6038.58
450.46	6047.94
450.65	5984.75
450.83	5984.75
451.02	6045.60
451.20	6164.97
451.39	6061.99
451.57	6101.78
451.76	5865.38
451.94	6061.99
452.13	6066.67
452.31	6160.29
452.49	6169.65
452.68	6200.08
452.86	6263.27
453.05	6223.48
453.23	6291.36
453.42	6113.48
453.60	6141.57
453.78	6319.45
453.97	6195.40
454.15	6270.30
454.34	6293.70
454.52	6448.18
454.70	6303.06
454.89	6429.45
455.07	6274.98
455.26	6307.74
455.44	6612.01
455.62	6441.15
455.81	6640.10
455.99	6647.12
456.17	6672.87
456.36	6612.01
456.54	6623.72
456.73	6719.68
456.91	6803.94
457.09	6719.68
457.28	6916.28
457.46	6761.81
457.64	6981.82
457.83	6754.79
458.01	6817.98
458.19	7087.14
458.38	6942.03
458.56	6857.77
458.74	6937.35
458.93	6817.98
459.11	6916.28
459.29	7052.03
459.48	7061.40
459.66	7059.06
459.84	6949.05
460.03	7295.45
460.21	7314.17
460.39	7129.27
460.57	7302.47
460.76	7162.04
460.94	7351.62
461.12	7300.13
461.31	7241.62
461.49	7358.64
461.67	7173.74
461.85	7318.86
462.04	7300.13
462.22	7655.89
462.40	7606.74
462.59	7616.10
462.77	7475.67
462.95	7611.42
463.13	7489.71
463.32	7478.01
463.50	7581.00
463.68	7688.66
463.86	7761.22
464.05	7824.41
464.23	7513.12
464.41	7927.39
464.59	7573.97
464.78	7892.29
464.96	7843.14
465.14	7719.09
465.32	7911.01
465.50	7880.58
465.69	7911.01
465.87	8023.36
466.05	7824.41
466.23	8187.19
466.41	8088.89
466.60	8306.56
466.78	7999.95
466.96	7829.09
467.14	7925.05
467.32	8013.99
467.51	8177.83
467.69	8009.31
467.87	8208.26
468.05	8156.77
468.23	7920.37
468.41	8093.57
468.60	8152.09
468.78	8217.62
468.96	8124.00
469.14	8315.92
469.32	8358.05
469.50	8299.54
469.69	8395.50
469.87	8346.35
470.05	8521.89
470.23	8617.85
470.41	8685.73
470.59	8645.94
470.77	8313.58
470.95	8690.41
471.14	8798.07
471.32	8617.85
471.50	8777.01
471.68	8542.96
471.86	8627.21
472.04	8854.25
472.22	9172.56
472.40	8819.14
472.58	8863.61
472.77	8772.33
472.95	9074.26
473.13	9301.29
473.31	9104.68
473.49	9282.56
473.67	9125.75
473.85	9401.93
474.03	9582.15
474.21	9415.98
474.39	9598.54
474.57	9497.89
474.75	9586.83
474.93	9453.42
475.12	9823.23
475.30	9764.72
475.48	9652.37
475.66	9774.08
475.84	9666.41
476.02	9884.08
476.20	9994.09
476.38	10104.09
476.56	10413.04
476.74	10310.06
476.92	10338.15
477.10	10216.44
477.28	10469.22
477.46	10321.76
477.64	10403.68
477.82	10635.39
478.00	10824.98
478.18	10663.48
478.36	11023.92
478.54	10913.92
478.72	11077.76
478.90	11232.23
479.08	11173.72
479.26	11356.28
479.44	11138.61
479.62	11396.07
479.80	11646.51
479.98	11580.97
480.16	11955.46
480.34	11875.88
480.52	11861.84
480.70	12154.40
480.88	11772.89
481.06	12013.97
481.24	12194.19
481.41	12367.39
481.59	12453.99
481.77	12556.97
481.95	12554.63
482.13	12477.40
482.31	12636.55
482.49	12875.29
482.67	12943.16
482.85	13186.58
483.03	13125.72
483.21	13275.52
483.39	13327.01
483.57	13453.40
483.74	13348.08
483.92	13635.96
484.10	13422.97
484.28	13729.58
484.46	14073.64
484.64	14174.28
484.82	13926.19
485.00	14333.44
485.18	14476.21
485.35	14595.58
485.53	14391.95
485.71	14541.75
485.89	15250.93
486.07	15000.49
486.25	15302.42
486.43	15084.75
486.61	15211.14
486.78	15475.62
486.96	15185.40
487.14	15803.30
487.32	15693.29
487.50	15789.25
487.68	16011.60
487.85	16236.30
488.03	16074.80
488.21	16517.16
488.39	16498.44
488.57	16547.59
488.75	16734.83
488.92	16725.47
489.10	17184.21
489.28	17039.10
489.46	17355.07
489.64	17118.68
489.81	17617.21
489.99	17254.43
490.17	17664.02
490.35	17928.50
490.53	17881.69
490.70	18099.36
490.88	18050.21
491.06	18178.94
491.24	18181.28
491.41	18757.05
491.59	18831.95
491.77	18586.19
491.95	18984.09
492.13	19138.56
492.30	19016.85
492.48	18963.02
492.66	19124.52
492.84	19014.51
493.01	19314.10
493.19	19517.73
493.37	19730.72
493.54	19711.99
493.72	20027.96
493.90	19866.47
494.08	20123.93
494.25	20603.74
494.43	20552.24
494.61	20503.09
494.79	20531.18
494.96	20636.50
495.14	20943.11
495.32	21195.89
495.49	21301.22
495.67	21329.30
495.85	21350.37
496.02	21397.18
496.20	21612.51
496.38	21888.69
496.55	21715.49
496.73	22331.05
496.91	21965.93
497.09	22040.82
497.26	22207.00
497.44	21975.29
497.62	22408.29
497.79	22712.56
497.97	22640.00
498.14	22747.67
498.32	23068.32
498.50	23007.47
498.67	23122.15
498.85	23161.94
499.03	23293.01
499.20	23468.55
499.38	23608.98
499.56	23693.24
499.73	23922.62
499.91	24107.52
500.08	24053.69
500.26	23976.45
500.44	23999.85
500.61	24041.98
500.79	24098.16
500.97	24482.00
501.14	24503.07
501.32	24266.67
501.49	24592.01
501.67	24446.90
501.84	25163.10
502.02	24383.70
502.20	24730.10
502.37	24702.01
502.55	25062.46
502.72	25123.31
502.90	25050.75
503.07	25034.37
503.25	25577.37
503.43	25022.67
503.60	25338.64
503.78	25715.47
503.95	25720.15
504.13	25722.49
504.30	26040.80
504.48	25965.90
504.65	25956.54
504.83	26253.79
505.01	26590.83
505.18	26211.66
505.36	26424.65
505.53	26331.03
505.71	26675.09
505.88	26480.82
506.06	26476.14
506.23	27105.74
506.41	26710.19
506.58	27094.04
506.76	27501.29
506.93	27190.00
507.11	26958.29
507.28	27171.28
507.46	27115.11
507.63	27395.97
507.81	27491.93
507.98	27388.95
508.16	27576.19
508.33	27878.12
508.50	28196.43
508.68	27637.05
508.85	28056.00
509.03	27768.12
509.20	28126.22
509.38	28133.24
509.55	28215.16
509.73	28369.63
509.90	28423.47
510.08	28498.36
510.25	28659.86
510.42	28830.72
510.60	28989.88
510.77	28704.33
510.95	29240.31
511.12	29060.09
511.30	28926.68
511.47	29076.48
511.64	29149.03
511.82	29528.20
511.99	29090.52
512.17	29654.59
512.34	29926.09
512.51	30036.09
512.69	29514.16
512.86	29813.74
513.04	29816.08
513.21	30108.65
513.38	30298.23
513.56	30338.02
513.73	30471.43
513.90	29848.85
514.08	30579.10
514.25	30888.05
514.43	30553.35
514.60	30485.48
514.77	30955.93
514.95	30918.48
515.12	30789.75
515.29	30651.66
515.47	31143.17
515.64	31393.61
515.81	30604.84
515.99	31480.21
516.16	31213.38
516.33	30965.29
516.51	31365.52
516.68	31447.44
516.85	31571.49
517.03	31740.00
517.20	31838.31
517.37	31527.02
517.54	31646.38
517.72	32058.32
517.89	31805.54
518.06	32013.85
518.24	32067.68
518.41	32048.96
518.58	32268.97
518.75	32023.21
518.93	32100.45
519.10	32130.87
519.27	32266.63
519.45	32629.41
519.62	32697.28
519.79	32786.22
519.96	32748.78
520.14	33088.15
520.31	32652.81
520.48	32870.48
520.65	32622.39
520.83	33149.01
521.00	33687.33
521.17	33228.59
521.34	33586.69
521.52	33432.21
521.69	32961.76
521.86	33663.93
522.03	33792.65
522.20	34071.18
522.38	33940.11
522.55	34422.26
522.72	34157.78
522.89	33645.20
523.07	34490.13
523.24	33940.11
523.41	34368.43
523.58	34064.16
523.75	34300.55
523.92	34363.75
524.10	34492.47
524.27	34560.35
524.44	34579.07
524.61	34630.57
524.78	34677.38
524.96	34948.88
525.13	34873.98
525.30	35220.38
525.47	35218.04
525.64	35028.46
525.81	35267.19
525.98	35391.24
526.16	35178.25
526.33	35283.58
526.50	35225.06
526.67	35281.24
526.84	35503.59
527.01	35454.44
527.18	35391.24
527.36	35728.28
527.53	35662.74
527.70	36006.80
527.87	36273.62
528.04	35522.31
528.21	36198.73
528.38	35826.58
528.55	36383.63
528.72	35889.77
528.89	36095.74
529.07	36030.21
529.24	36130.85
529.41	36463.21
529.58	36474.91
529.75	36210.43
529.92	36634.06
530.09	36238.51
530.26	36856.42
530.43	36734.71
530.60	36355.54
530.77	36657.47
530.94	36795.56
531.11	36570.87
531.28	36809.61
531.46	36627.04
531.63	36587.25
531.80	36933.65
531.97	37277.71
532.14	37408.78
532.31	36765.14
532.48	37338.57
532.65	37448.57
532.82	37317.50
532.99	37350.27
533.16	37373.67
533.33	37516.45
533.50	37530.49
533.67	37619.43
533.84	37851.14
534.01	37869.87
534.18	37841.78
534.35	38389.47
534.52	37443.89
534.69	38106.26
534.86	38333.29
535.03	37778.59
535.20	38199.88
535.37	38288.82
535.54	38291.16
535.71	38679.69
535.88	38859.91
536.05	38366.06
536.22	38801.40
536.38	38813.10
536.55	38726.50
536.72	38752.25
536.89	38504.15
537.06	38834.17
537.23	39281.21
537.40	38703.10
537.57	38602.46
537.74	38834.17
537.91	39100.99
538.08	38857.57
538.25	38885.66
538.42	39119.71
538.59	39365.47
538.75	39138.44
538.92	39524.63
539.09	39742.30
539.26	39536.33
539.43	39400.58
539.60	39126.74
539.77	39304.62
539.94	39496.54
540.11	39435.69
540.28	39049.50
540.44	39674.42
540.61	39316.32
540.78	39255.46
540.95	39749.32
541.12	39742.30
541.29	39438.03
541.46	39885.07
541.62	39613.57
541.79	40226.79
541.96	39718.89
542.13	39943.58
542.30	39871.03
542.47	39969.33
542.63	40407.01
542.80	40666.81
542.97	40484.25
543.14	40135.51
543.31	40411.69
543.48	40947.67
543.64	40910.22
543.81	40720.64
543.98	40933.63
544.15	40463.18
544.32	41010.87
544.48	41502.38
544.65	41078.74
544.82	40919.59
544.99	41008.53
545.16	41008.53
545.32	41446.21
545.49	41537.49
545.66	41261.30
545.83	41628.77
546.00	41022.57
546.16	41174.70
546.33	41282.37
546.50	41219.17
546.67	41516.42
546.83	41134.92
547.00	41294.07
547.17	41315.14
547.34	41785.58
547.50	41509.40
547.67	42029.00
547.84	41640.47
548.00	41586.64
548.17	42185.82
548.34	41930.70
548.51	42270.08
548.67	41778.56
548.84	41883.89
549.01	41722.39
549.18	41862.82
549.34	42253.69
549.51	42438.59
549.68	41921.34
549.84	41825.37
550.01	42564.98
550.18	42391.78
550.34	42298.16
550.51	42635.20
550.68	42251.35
550.84	42089.85
551.01	42522.85
551.18	42515.83
551.34	42405.83
551.51	42410.51
551.68	42726.48
551.84	42548.60
552.01	42639.88
552.18	42532.22
552.34	42466.68
552.51	42749.88
552.68	42885.64
552.84	42396.46
553.01	43138.41
553.18	43005.00
553.34	42958.19
553.51	42979.26
553.67	42953.51
553.84	43105.65
554.01	42646.90
554.17	43119.69
554.34	43496.52
554.51	42946.49
554.67	43597.16
554.84	43564.39
555.00	42789.67
555.17	43522.26
555.33	43217.99
555.50	43423.96
555.67	43438.00
555.83	43318.64
556.00	43409.92
556.16	44268.89
556.33	43316.29
556.50	43578.43
556.66	43540.99
556.83	43384.17
556.99	43524.60
557.16	43796.10
557.32	44149.53
557.49	44062.93
557.65	43627.59
557.82	43833.55
557.98	43894.41
558.15	43786.74
558.32	43938.88
558.48	43323.32
558.65	43885.04
558.81	43604.18
558.98	43845.26
559.14	43459.07
559.31	43681.42
559.47	43992.71
559.64	44016.11
559.80	43793.76
559.97	44488.90
560.13	43817.17
560.30	44369.54
560.46	44479.54
560.63	44774.45
560.79	44339.11
560.96	44612.95
561.12	44505.29
561.29	44222.08
561.45	44481.88
561.61	44402.30
561.78	44390.60
561.94	44336.77
562.11	43927.17
562.27	44531.03
562.44	44318.04
562.60	44259.53
562.77	44512.31
562.93	44296.98
563.10	44996.80
563.26	44854.03
563.42	45530.44
563.59	44439.75
563.75	44514.65
563.92	44437.41
564.08	44835.30
564.24	44737.00
564.41	44425.71
564.57	44325.07
564.74	44729.98
564.90	44729.98
565.07	44837.64
565.23	44718.28
565.39	44924.24
565.56	45184.04
565.72	44966.37
565.88	44800.19
566.05	45064.67
566.21	45172.34
566.38	44971.05
566.54	45062.33
566.70	44966.37
566.87	45052.97
567.03	44896.16
567.19	45450.86
567.36	45490.65
567.52	45125.53
567.68	45408.73
567.85	44837.64
568.01	45432.14
568.17	45233.19
568.34	45174.68
568.50	45390.01
568.66	44776.79
568.83	44744.02
568.99	45038.93
569.15	45017.86
569.32	45090.42
569.48	45579.59
569.64	45350.22
569.81	45511.72
569.97	45427.46
570.13	45766.84
570.30	44900.84
570.46	45551.51
570.62	45720.02
570.78	45443.84
570.95	45155.96
571.11	45525.76
571.27	45605.34
571.43	45633.42
571.60	45453.20
571.76	45759.81
571.92	45394.69
572.09	45312.77
572.25	45518.74
572.41	45298.73
572.57	45401.71
572.74	45516.40
572.90	45640.45
573.06	45993.87
573.22	45544.48
573.38	45595.98
573.55	45530.44
573.71	45603.00
573.87	45769.18
574.03	45628.74
574.20	45909.61
574.36	46078.13
574.52	46012.59
574.68	45745.77
574.84	46223.24
575.01	45773.86
575.17	45879.18
575.33	45514.06
575.49	45565.55
575.65	45846.41
575.82	45820.67
575.98	45446.18
576.14	46340.27
576.30	46026.63
576.46	45853.44
576.62	45474.27
576.79	45670.87
576.95	45237.87
577.11	45518.74
577.27	45717.68
577.43	45799.60
577.59	45757.47
577.75	45605.34
577.92	45684.92
578.08	45762.15
578.24	45872.16
578.40	45916.63
578.56	45865.14
578.72	45698.96
578.88	46014.93
579.04	46026.63
579.21	45579.59
579.37	45961.10
579.53	46120.26
579.69	45876.84
579.85	46012.59
580.01	45614.70
580.17	46007.91
580.33	45677.90
580.49	45890.88
580.65	46040.68
580.82	46010.25
580.98	45584.27
581.14	45694.28
581.30	46162.39
581.46	45799.60
581.62	46291.12
581.78	45935.35
581.94	45762.15
582.10	45677.90
582.26	46183.45
582.42	46337.93
582.58	45813.65
582.74	46244.30
582.90	46337.93
583.06	46241.96
583.22	45797.26
583.38	46314.52
583.54	46103.87
583.70	45860.46
583.86	46050.04
584.02	45764.49
584.18	46309.84
584.34	46190.47
584.50	46136.64
584.66	45954.08
584.82	45853.44
584.98	46195.15
585.14	46195.15
585.30	45975.14
585.46	46167.07
585.62	45911.95
585.78	46330.90
585.94	45993.87
586.10	45528.10
586.26	45811.31
586.42	45998.55
586.58	45839.39
586.74	45890.88
586.90	46305.16
587.06	46146.00
587.22	46225.58
587.38	46143.66
587.54	46501.76
587.70	46263.03
587.86	46438.57
588.02	46014.93
588.18	46286.43
588.34	46024.29
588.49	46494.74
588.65	46099.19
588.81	45923.65
588.97	46337.93
589.13	46412.82
589.29	46499.42
589.45	46583.68
589.61	46541.55
589.77	46220.90
589.93	46506.44
590.08	46401.12
590.24	46410.48
590.40	47028.38
590.56	46469.00
590.72	46564.96
590.88	46623.47
591.04	46569.64
591.20	46862.21
591.35	46714.75
591.51	47016.68
591.67	46822.42
591.83	46405.80
591.99	46775.61
592.15	46696.03
592.31	46588.36
592.46	46529.85
592.62	46003.23
592.78	46609.43
592.94	46742.84
593.10	46979.23
593.26	46845.82
593.41	46681.98
593.57	46848.16
593.73	46726.46
593.89	47192.22
594.05	46852.84
594.20	46644.54
594.36	46995.62
594.52	46934.76
594.68	46796.67
594.84	46541.55
594.99	46749.86
595.15	47105.62
595.31	47044.77
595.47	46813.05
595.62	46775.61
595.78	46869.23
595.94	46972.21
596.10	46658.58
596.25	46955.83
596.41	47098.60
596.57	46469.00
596.73	47239.03
596.88	46618.79
597.04	46579.00
597.20	47168.82
597.36	46913.70
597.51	46997.96
597.67	46366.01
597.83	46768.58
597.99	47192.22
598.14	46808.37
598.30	46923.06
598.46	47093.92
598.61	47250.74
598.77	46742.84
598.93	46885.61
599.09	46918.38
599.24	47454.36
599.40	47194.56
599.56	47154.77
599.71	47042.43
599.87	47215.63
600.03	46515.81
600.18	47138.39
600.34	46796.67
600.50	46951.15
600.65	46967.53
600.81	47517.56
600.97	46990.94
601.12	47203.92
601.28	47037.75
601.44	46988.60
601.59	47203.92
601.75	46766.24
601.91	47189.88
602.06	46894.97
602.22	47267.12
602.37	47035.41
602.53	47309.25
602.69	47426.28
602.84	47004.98
603.00	46983.91
603.16	47047.11
603.31	46880.93
603.47	47356.06
603.62	47323.29
603.78	46995.62
603.94	47164.14
604.09	47473.09
604.25	46813.05
604.40	47133.71
604.56	47320.95
604.71	47538.62
604.87	46836.46
605.03	46787.31
605.18	47229.67
605.34	47091.58
605.49	46990.94
605.65	47414.57
605.80	46817.74
605.96	46866.89
606.12	46670.28
606.27	46887.95
606.43	46637.51
606.58	47145.41
606.74	47026.04
606.89	47114.98
607.05	47255.42
607.20	47150.09
607.36	46630.49
607.51	46623.47
607.67	46733.48
607.82	46644.54
607.98	46490.06
608.13	46642.20
608.29	46670.28
608.44	47033.07
608.60	46904.34
608.75	46604.75
608.91	46616.45
609.06	46532.19
609.22	46625.81
609.37	46649.22
609.53	47082.22
609.68	46967.53
609.84	46560.28
609.99	46272.39
610.15	47068.17
610.30	46887.95
610.46	46703.05
610.61	46693.69
610.76	46834.12
610.92	46288.77
611.07	46534.53
611.23	46335.59
611.38	46527.51
611.54	47323.29
611.69	46569.64
611.84	46927.74
612.00	46454.95
612.15	46548.57
612.31	46628.15
612.46	46178.77
612.62	46459.63
612.77	46405.80
612.92	46862.21
613.08	45893.22
613.23	46724.11
613.39	46230.26
613.54	46124.94
613.69	46735.82
613.85	46426.87
614.00	46557.94
614.15	46281.75
614.31	45792.58
614.46	46422.19
614.62	46241.96
614.77	46162.39
614.92	46284.09
615.08	46513.47
615.23	46335.59
615.38	46520.49
615.54	46684.33
615.69	45818.33
615.84	46471.34
616.00	46712.41
616.15	46548.57
616.30	46167.07
616.46	45598.32
616.61	46061.74
616.76	46176.43
616.92	46148.34
617.07	45937.69
617.22	45947.06
617.37	45865.14
617.53	46024.29
617.68	45663.85
617.83	46153.02
617.99	46438.57
618.14	46127.28
618.29	45958.76
618.45	45851.09
618.60	45640.45
618.75	45308.09
618.90	45504.70
619.06	45647.47
619.21	45911.95
619.36	46033.66
619.51	45741.09
619.67	45832.37
619.82	45347.88
619.97	46050.04
620.12	45937.69
620.28	45368.94
620.43	45783.22
620.58	45488.31
620.73	45556.19
620.89	45378.31
621.04	45759.81
621.19	45635.77
621.34	45235.53
621.49	45523.42
621.65	45380.65
621.80	45970.46
621.95	45942.38
622.10	45993.87
622.25	45043.61
622.41	45287.03
622.56	45083.40
622.71	45558.53
622.86	45654.49
623.01	45174.68
623.16	45076.38
623.32	45076.38
623.47	45633.42
623.62	45399.37
623.77	44954.67
623.92	45689.60
624.07	45621.72
624.23	45806.62
624.38	45404.05
624.53	45207.45
624.68	44762.75
624.83	45301.07
624.98	45507.04
625.13	44437.41
625.29	45052.97
625.44	44884.45
625.59	44961.69
625.74	44697.21
625.89	44634.02
626.04	44779.13
626.19	44942.97
626.34	44985.10
626.49	44818.92
626.65	44818.92
626.80	44533.37
626.95	44261.87
627.10	44147.18
627.25	44264.21
627.40	44442.09
627.55	44996.80
627.70	44662.10
627.85	44776.79
628.00	44308.68
628.15	44996.80
628.30	44315.70
628.45	44165.91
628.60	44133.14
628.76	44083.99
628.91	44189.31
629.06	44067.61
629.21	44009.09
629.36	44409.32
629.51	43889.73
629.66	44430.39
629.81	44341.45
629.96	44804.88
630.11	44327.41
630.26	43995.05
630.41	44105.06
630.56	44016.11
630.71	44119.10
630.86	44224.42
631.01	43826.53
631.16	44313.36
631.31	44140.16
631.46	43938.88
631.61	44626.99
631.76	44076.97
631.91	43882.70
632.06	44355.49
632.21	43718.87
632.36	43819.51
632.51	43543.33
632.66	44128.46
632.81	43688.44
632.96	43917.81
633.10	42838.83
633.25	43564.39
633.40	43782.06
633.55	44184.63
633.70	43789.08
633.85	43246.08
634.00	43435.66
634.15	43384.17
634.30	43384.17
634.45	43044.79
634.60	43311.61
634.75	43643.97
634.90	43737.59
635.05	43702.48
635.19	43461.41
635.34	43253.10
635.49	42897.34
635.64	43239.06
635.79	43683.76
635.94	43519.92
636.09	43889.73
636.24	42862.23
636.39	43423.96
636.53	43159.48
636.68	42841.17
636.83	42820.10
636.98	42925.42
637.13	43311.61
637.28	43035.43
637.43	43117.35
637.57	42843.51
637.72	42724.14
637.87	43278.85
638.02	43044.79
638.17	42801.38
638.32	42462.00
638.46	42777.97
638.61	42197.52
638.76	42852.87
638.91	42520.51
639.06	42232.63
639.20	42190.50
639.35	42480.72
639.50	42813.08
639.65	42464.34
639.80	42845.85
639.94	42429.23
640.09	42958.19
640.24	42604.77
640.39	42347.31
640.54	42377.74
640.68	42567.32
640.83	42274.76
640.98	42115.60
641.13	42567.32
641.27	42864.57
641.42	42546.26
641.57	42251.35
641.72	42258.37
641.86	42148.37
642.01	41968.15
642.16	41787.92
642.31	42096.88
642.45	42171.77
642.60	42024.32
642.75	41996.23
642.90	42204.54
643.04	42043.04
643.19	41390.03
643.34	41722.39
643.48	41429.82
643.63	42169.43
643.78	41588.98
643.93	42277.10
644.07	41806.65
644.22	42043.04
644.37	41628.77
644.51	42211.56
644.66	41860.48
644.81	41581.96
644.95	42141.35
645.10	41853.46
645.25	41731.75
645.39	41818.35
645.54	41724.73
645.69	41170.02
645.83	41361.95
645.98	41270.67
646.13	41745.80
646.27	41212.15
646.42	41340.88
646.57	41420.46
646.71	41258.96
646.86	41399.40
647.00	41361.95
647.15	41504.72
647.30	41319.82
647.44	41188.75
647.59	41308.11
647.74	40772.13
647.88	41558.55
648.03	41380.67
648.17	41806.65
648.32	41333.86
648.47	41776.22
648.61	41017.89
648.76	41151.30
648.90	41179.39
649.05	40926.61
649.20	41083.42
649.34	41048.32
649.49	41006.19
649.63	41298.75
649.78	41675.58
649.92	41127.89
650.07	41579.62
650.21	41141.94
650.36	41333.86
650.51	40966.40
650.65	41345.56
650.80	40807.24
650.94	41125.55
651.09	40907.88
651.23	40350.84
651.38	40428.07
651.52	40198.70
651.67	40612.98
651.81	40524.04
651.96	40612.98
652.10	40428.07
652.25	40137.85
652.39	40861.07
652.54	40371.90
652.68	40240.83
652.83	40341.47
652.97	40435.10
653.12	40383.60
653.26	40357.86
653.41	40641.06
653.55	40594.25
653.70	40512.33
653.84	40486.59
653.99	40425.73
654.13	40608.29
654.27	40069.97
654.42	40449.14
654.56	39716.55
654.71	40339.13
654.85	40147.21
655.00	40575.53
655.14	40463.18
655.29	40250.19
655.43	40325.09
655.57	40016.14
655.72	39639.31
655.86	39945.92
656.01	39779.74
656.15	39232.06
656.30	40140.19
656.44	40023.16
656.58	40147.21
656.73	40285.30
656.87	39576.12
657.01	39814.85
657.16	39632.29
657.30	39976.35
657.45	39974.01
657.59	39690.80
657.73	39615.91
657.88	39665.06
658.02	39524.63
658.16	39681.44
658.31	39873.37
658.45	39871.03
658.60	39122.05
658.74	39260.15
658.88	39489.52
659.03	39358.45
659.17	38892.68
659.31	39117.37
659.46	39068.22
659.60	38780.34
659.74	39054.18
659.89	39199.29
660.03	39040.14
660.17	39009.71
660.32	38909.07
660.46	38885.66
660.60	38831.83
660.74	38717.14
660.89	38581.39
661.03	38658.63
661.17	38546.28
661.32	38045.41
661.46	38672.67
661.60	38286.48
661.74	38199.88
661.89	38120.31
662.03	38281.80
662.17	38440.96
662.31	38117.96
662.46	38181.16
662.60	38277.12
662.74	37947.11
662.88	37755.18
663.03	37570.28
663.17	38071.15
663.31	37666.24
663.45	37998.60
663.60	38298.19
663.74	37947.11
663.88	37347.93
664.02	37708.37
664.17	37991.58
664.31	37359.63
664.45	37635.81
664.59	37408.78
664.73	37839.44
664.88	37083.45
665.02	37270.69
665.16	36830.67
665.30	37085.79
665.44	36872.80
665.59	36933.65
665.73	36767.48
665.87	36402.35
666.01	37179.41
666.15	36725.35
666.29	36711.30
666.44	37013.23
666.58	36928.97
666.72	36505.34
666.86	36725.35
667.00	36250.22
667.14	36498.31
667.28	36666.83
667.43	36285.33
667.57	36325.11
667.71	36484.27
667.85	36367.24
667.99	36561.51
668.13	35576.14
668.27	35798.49
668.41	35859.35
668.56	35323.36
668.70	35690.83
668.84	35407.62
668.98	35629.98
669.12	35512.95
669.26	35400.60
669.40	35667.42
669.54	35899.14
669.68	35749.34
669.82	34962.92
669.96	35061.22
670.10	35075.27
670.25	35253.15
670.39	34925.47
670.53	34960.58
670.67	35037.82
670.81	35218.04
670.95	34885.68
671.09	34593.12
671.23	34403.53
671.37	34590.78
671.51	34871.64
671.65	34738.23
671.79	34139.05
671.93	34511.20
672.07	34492.47
672.21	34525.24
672.35	33909.68
672.49	34260.76
672.63	33858.19
672.77	34047.77
672.91	34080.54
673.05	33935.43
673.19	33322.21
673.33	33652.22
673.47	33284.76
673.61	33516.47
673.75	33212.20
673.89	33237.95
674.03	33193.48
674.17	32830.69
674.31	32985.17
674.45	32774.52
674.59	32863.46
674.73	32868.14
674.87	32723.03
675.01	32580.26
675.15	32147.26
675.29	32622.39
675.43	32203.43
675.56	32842.40
675.70	32488.98
675.84	32383.65
675.98	31145.51
676.12	32245.56
676.26	32060.66
676.40	31807.88
676.54	31768.09
676.68	31620.64
676.82	31344.45
676.96	31620.64
677.10	31576.17
677.23	31400.63
677.37	31091.68
677.51	31253.17
677.65	31218.07
677.79	31281.26
677.93	30941.88
678.07	31091.68
678.21	30611.87
678.34	30480.80
678.48	30263.13
678.62	30448.03
678.76	30363.77
678.90	30281.85
679.04	30281.85
679.18	30228.02
679.31	30178.87
679.45	29975.24
679.59	29762.25
679.73	29780.98
679.87	29418.19
680.00	29404.15
680.14	29380.74
680.28	29546.92
680.42	29500.11
680.56	28900.94
680.70	29181.80
680.83	28922.00
680.97	29024.98
681.11	29212.23
681.25	28900.94
681.39	28308.78
681.52	28261.97
681.66	28386.02
681.80	27892.16
681.94	27924.93
682.07	27744.71
682.21	27793.86
682.35	27812.59
682.49	27901.53
682.62	27683.86
682.76	28004.51
682.90	27889.82
683.04	27676.83
683.17	27440.44
683.31	27435.76
683.45	26927.86
683.59	26742.96
683.72	26689.13
683.86	26953.61
684.00	26623.59
684.13	26579.12
684.27	26335.71
684.41	26277.19
684.55	26356.77
684.68	26459.76
684.82	26279.54
684.96	26029.10
685.09	26181.23
685.23	26157.83
685.37	26211.66
685.50	26019.74
685.64	25661.63
685.78	25781.00
685.91	25434.60
686.05	25312.89
686.19	24723.08
686.32	24905.64
686.46	24812.02
686.60	24540.52
686.73	24992.24
686.87	24617.75
687.01	24854.15
687.14	24659.88
687.28	24608.39
687.42	24510.09
687.55	24137.94
687.69	24276.04
687.82	24170.71
687.96	24039.64
688.10	24170.71
688.23	23990.49
688.37	24074.75
688.50	24283.06
688.64	23789.20
688.78	23946.02
688.91	23552.81
689.05	23328.12
689.18	23391.31
689.32	22955.97
689.46	23183.01
689.59	22984.06
689.73	23262.58
689.86	23300.03
690.00	22731.28
690.13	22799.16
690.27	22672.77
690.41	22787.46
690.54	22256.15
690.68	22480.85
690.81	22192.96
690.95	22389.56
691.08	22057.21
691.22	21930.82
691.35	21851.24
691.49	21977.63
691.62	21741.24
691.76	21434.63
691.89	21436.97
692.03	20989.92
692.16	21193.55
692.30	21443.99
692.43	21057.80
692.57	21095.25
692.70	21195.89
692.84	20741.83
692.97	20641.18
693.11	20800.34
693.24	20599.05
693.38	20498.41
693.51	20369.68
693.65	20126.27
693.78	20109.88
693.92	20329.89
694.05	20152.01
694.19	19943.70
694.32	20184.78
694.45	20081.80
694.59	20032.65
694.72	19962.43
694.86	19620.71
694.99	19555.18
695.13	19302.40
695.26	19183.03
695.39	19089.41
695.53	19023.87
695.66	19119.84
695.80	19173.67
695.93	18853.02
696.07	18764.07
696.20	18600.24
696.33	17956.59
696.47	18230.43
696.60	18321.71
696.73	18630.66
696.87	18492.57
697.00	18253.84
697.14	18164.90
697.27	17940.21
697.40	17816.16
697.54	17905.10
697.67	17956.59
697.80	18207.03
697.94	17582.10
698.07	17937.87
698.21	17390.18
698.34	17415.93
698.47	17287.20
698.61	16886.97
698.74	17207.62
698.87	17095.27
699.01	16872.92
699.14	17022.72
699.27	16980.59
699.40	16985.27
699.54	16465.67
699.67	16662.27
699.80	16781.64
699.94	16456.31
700.07	16437.58
700.20	16428.22
700.34	16580.36
700.47	16121.61
700.60	16308.85
700.73	16315.87
700.87	15932.03
701.00	15702.65
701.13	16039.69
701.26	15630.10
701.40	15559.88
701.53	15384.34
701.66	15391.36
701.79	15592.65
701.93	15119.86
702.06	15246.25
702.19	15400.72
702.32	15068.37
702.46	15257.95
702.59	15133.90
702.72	15037.94
702.85	14930.28
702.99	15075.39
703.12	14740.69
703.25	14534.73
703.38	14380.25
703.51	14398.98
703.65	14085.34
703.78	14150.88
703.91	14122.79
704.04	14204.71
704.17	13874.70
704.31	14001.08
704.44	14097.05
704.57	13785.76
704.70	13961.30
704.83	13451.06
704.96	13654.69
705.10	13401.91
705.23	13603.19
>>>>>End Processed Spectral Data<<<<<
