SpectraSuite Data File
++++++++++++++++++++++++++++++++++++
Date: Fri Oct 25 11:34:32 EDT 2013
User: price-jones
Dark Spectrum Present: No
Reference Spectrum Present: No
Number of Sampled Component Spectra: 1
Spectrometers: USB2+H05261
Integration Time (usec): 100000 (USB2+H05261)
Spectra Averaged: 1 (USB2+H05261)
Boxcar Smoothing: 0 (USB2+H05261)
Correct for Electrical Dark: No (USB2+H05261)
Strobe/Lamp Enabled: No (USB2+H05261)
Correct for Detector Non-linearity: No (USB2+H05261)
Correct for Stray Light: No (USB2+H05261)
Number of Pixels in Processed Spectrum: 2048
>>>>>Begin Processed Spectral Data<<<<<
365.73	299.59
365.92	299.59
366.12	299.59
366.32	208.31
366.52	163.84
366.72	217.67
366.91	166.18
367.11	121.71
367.31	187.24
367.51	135.75
367.70	220.01
367.90	196.60
368.10	149.79
368.30	191.92
368.49	147.45
368.69	198.95
368.89	173.20
369.09	154.48
369.28	205.97
369.48	154.48
369.68	234.05
369.87	250.44
370.07	212.99
370.27	250.44
370.47	306.61
370.66	404.91
370.86	510.24
371.06	559.39
371.25	552.37
371.45	519.60
371.65	554.71
371.84	535.98
372.04	587.47
372.24	538.32
372.44	533.64
372.63	587.47
372.83	531.30
373.03	641.31
373.22	528.96
373.42	573.43
373.62	568.75
373.81	683.44
374.01	638.97
374.21	699.82
374.40	627.26
374.60	641.31
374.79	650.67
374.99	599.18
375.19	711.52
375.38	650.67
375.58	664.71
375.78	713.86
375.97	636.63
376.17	645.99
376.37	702.16
376.56	601.52
376.76	615.56
376.95	650.67
377.15	704.50
377.35	662.37
377.54	681.10
377.74	690.46
377.93	695.14
378.13	685.78
378.33	727.91
378.52	676.41
378.72	716.20
378.91	826.21
379.11	624.92
379.31	704.50
379.50	655.35
379.70	734.93
379.89	699.82
380.09	697.48
380.28	667.05
380.48	826.21
380.68	760.67
380.87	755.99
381.07	718.54
381.26	695.14
381.46	720.88
381.65	713.86
381.85	753.65
382.04	704.50
382.24	737.27
382.43	725.57
382.63	683.44
382.83	788.76
383.02	751.31
383.22	833.23
383.41	812.17
383.61	842.59
383.80	809.83
384.00	877.70
384.19	849.61
384.39	767.70
384.58	777.06
384.78	779.40
384.97	802.80
385.17	837.91
385.36	849.61
385.56	851.96
385.75	835.57
385.95	826.21
386.14	800.46
386.34	767.70
386.53	866.00
386.72	807.48
386.92	814.51
387.11	856.64
387.31	858.98
387.50	905.79
387.70	910.47
387.89	901.11
388.09	786.42
388.28	802.80
388.48	896.43
388.67	861.32
388.86	863.66
389.06	924.51
389.25	880.04
389.45	933.87
389.64	898.77
389.84	952.60
390.03	926.85
390.22	915.15
390.42	945.58
390.61	968.98
390.81	917.49
391.00	912.81
391.19	896.43
391.39	1036.86
391.58	957.28
391.78	971.32
391.97	931.53
392.16	983.02
392.36	1078.99
392.55	1184.31
392.75	983.02
392.94	1043.88
393.13	1050.90
393.33	1015.79
393.52	1083.67
393.71	1114.10
393.91	997.07
394.10	1015.79
394.29	1050.90
394.49	1041.54
394.68	1074.31
394.88	1074.31
395.07	1174.95
395.26	1135.16
395.46	1048.56
395.65	1242.82
395.84	1151.54
396.04	1165.59
396.23	1172.61
396.42	1153.88
396.62	1167.93
396.81	1191.33
397.00	1179.63
397.19	1109.41
397.39	1228.78
397.58	1139.84
397.77	1172.61
397.97	1153.88
398.16	1210.06
398.35	1245.16
398.55	1287.29
398.74	1235.80
398.93	1252.19
399.12	1348.15
399.32	1233.46
399.51	1240.48
399.70	1256.87
399.90	1282.61
400.09	1310.70
400.28	1306.02
400.47	1362.19
400.67	1355.17
400.86	1380.92
401.05	1336.45
401.24	1359.85
401.44	1462.83
401.63	1467.52
401.82	1273.25
402.01	1296.66
402.21	1406.66
402.40	1394.96
402.59	1448.79
402.78	1331.76
402.97	1458.15
403.17	1469.86
403.36	1535.39
403.55	1500.28
403.74	1575.18
403.93	1551.78
404.13	1554.12
404.32	1551.78
404.51	1507.30
404.70	1540.07
404.89	1584.54
405.09	1600.93
405.28	1621.99
405.47	1535.39
405.66	1626.67
405.85	1638.38
406.05	1729.66
406.24	1621.99
406.43	1734.34
406.62	1746.04
406.81	1760.08
407.00	1710.93
407.20	1654.76
407.39	1729.66
407.58	1769.44
407.77	1694.55
407.96	1797.53
408.15	1849.02
408.34	1788.17
408.54	1802.21
408.73	1849.02
408.92	1870.09
409.11	1881.79
409.30	1907.54
409.49	1881.79
409.68	1996.48
409.87	1928.60
410.07	2064.35
410.26	2024.56
410.45	1916.90
410.64	2001.16
410.83	1902.86
411.02	2134.57
411.21	2097.12
411.40	1961.37
411.59	2106.48
411.78	2043.29
411.98	2221.17
412.17	2087.76
412.36	2134.57
412.55	2209.47
412.74	2258.62
412.93	2256.28
413.12	2176.70
413.31	2354.58
413.50	2352.24
413.69	2267.98
413.88	2480.97
414.07	2448.20
414.26	2415.43
414.45	2513.74
414.64	2513.74
414.83	2455.22
415.02	2483.31
415.22	2551.18
415.41	2476.29
415.60	2490.33
415.79	2469.27
415.98	2621.40
416.17	2635.44
416.36	2600.34
416.55	2712.68
416.74	2712.68
416.93	2691.62
417.12	2827.37
417.31	2778.22
417.50	2686.94
417.69	2832.05
417.88	2843.75
418.07	2752.47
418.26	2752.47
418.45	2881.20
418.64	2897.58
418.83	3014.61
419.02	2986.52
419.21	2981.84
419.39	2928.01
419.58	2953.76
419.77	2939.71
419.96	2904.60
420.15	2972.48
420.34	2981.84
420.53	3089.51
420.72	2984.18
420.91	3068.44
421.10	3206.53
421.29	3124.62
421.48	2998.23
421.67	3040.36
421.86	3103.55
422.05	3183.13
422.24	3150.36
422.43	3098.87
422.61	3229.94
422.80	3318.88
422.99	3190.15
423.18	3323.56
423.37	3295.47
423.56	3304.84
423.75	3183.13
423.94	3316.54
424.13	3061.42
424.32	3236.96
424.50	3358.67
424.69	3389.10
424.88	3229.94
425.07	3419.52
425.26	3211.22
425.45	3150.36
425.64	3321.22
425.83	3241.64
426.01	3463.99
426.20	3349.31
426.39	3243.98
426.58	3358.67
426.77	3417.18
426.96	3335.26
427.15	3424.20
427.33	3480.38
427.52	3463.99
427.71	3541.23
427.90	3272.07
428.09	3478.04
428.28	3508.46
428.46	3529.53
428.65	3433.57
428.84	3698.05
429.03	3557.61
429.22	3669.96
429.40	3634.85
429.59	3606.77
429.78	3506.12
429.97	3449.95
430.16	3672.30
430.34	3630.17
430.53	3733.15
430.72	3740.18
430.91	3726.13
431.10	3695.71
431.28	3801.03
431.47	3742.52
431.66	3990.61
431.85	3836.14
432.03	3779.97
432.22	3817.41
432.41	3824.44
432.60	3784.65
432.79	3889.97
432.97	4058.49
433.16	3899.33
433.35	4037.42
433.54	3850.18
433.72	3964.87
433.91	4093.60
434.10	4009.34
434.28	3981.25
434.47	4063.17
434.66	4086.58
434.85	4198.92
435.03	3936.78
435.22	4187.22
435.41	4131.05
435.59	4107.64
435.78	4124.02
435.97	4341.69
436.16	4187.22
436.34	4322.97
436.53	4133.39
436.72	4269.14
436.90	4227.01
437.09	4283.18
437.28	4299.56
437.46	4329.99
437.65	4390.84
437.84	4477.44
438.02	4304.25
438.21	4528.94
438.40	4379.14
438.58	4575.75
438.77	4510.21
438.96	4447.02
439.14	4550.00
439.33	4592.13
439.52	4678.73
439.70	4767.67
439.89	4730.22
440.08	4800.44
440.26	4690.43
440.45	4873.00
440.63	4793.42
440.82	4861.29
441.01	4791.08
441.19	4975.98
441.38	5022.79
441.57	5013.43
441.75	5137.48
441.94	5203.01
442.12	5203.01
442.31	5305.99
442.50	5212.37
442.68	5142.16
442.87	5296.63
443.05	5172.58
443.24	5294.29
443.43	5170.24
443.61	5387.91
443.80	5497.92
443.98	5139.82
444.17	5153.86
444.35	5210.03
444.54	5289.61
444.73	5448.77
444.91	5547.07
445.10	5441.75
445.28	5380.89
445.47	5451.11
445.65	5387.91
445.84	5516.64
446.02	5465.15
446.21	5369.19
446.39	5486.22
446.58	5561.11
446.77	5537.71
446.95	5383.23
447.14	5441.75
447.32	5465.15
447.51	5514.30
447.69	5465.15
447.88	5469.83
448.06	5533.03
448.25	5586.86
448.43	5451.11
448.62	5565.79
448.80	5502.60
448.99	5521.32
449.17	5446.43
449.36	5568.13
449.54	5650.05
449.73	5771.76
449.91	5781.12
450.10	5900.49
450.28	5947.30
450.46	5858.36
450.65	5881.77
450.83	5675.80
451.02	5792.83
451.20	5980.07
451.39	5549.41
451.57	5731.97
451.76	5731.97
451.94	5994.11
452.13	6029.22
452.31	5928.58
452.49	5837.30
452.68	6148.59
452.86	5956.66
453.05	6197.74
453.23	6076.03
453.42	6167.31
453.60	6125.18
453.78	6120.50
453.97	6031.56
454.15	6207.10
454.34	6071.35
454.52	6183.70
454.70	6197.74
454.89	6321.79
455.07	6286.68
455.26	6282.00
455.44	6225.82
455.62	6272.64
455.81	6466.90
455.99	6448.18
456.17	6415.41
456.36	6394.34
456.54	6434.13
456.73	6630.74
456.91	6593.29
457.09	6562.86
457.28	6792.23
457.46	6609.67
457.64	6822.66
457.83	6775.85
458.01	6834.36
458.19	7019.27
458.38	6654.14
458.56	6820.32
458.74	6738.40
458.93	6789.89
459.11	6925.65
459.29	6909.26
459.48	6888.20
459.66	6920.96
459.84	7073.10
460.03	6920.96
460.21	7049.69
460.39	6993.52
460.57	7276.73
460.76	7037.99
460.94	7279.07
461.12	7178.42
461.31	7302.47
461.49	7297.79
461.67	7169.06
461.85	7321.20
462.04	7126.93
462.22	7770.58
462.40	7311.83
462.59	7414.82
462.77	7283.75
462.95	7382.05
463.13	7473.33
463.32	7360.98
463.50	7466.31
463.68	7616.10
463.86	7559.93
464.05	7283.75
464.23	7459.29
464.41	7557.59
464.59	7386.73
464.78	7796.32
464.96	7435.88
465.14	7583.34
465.32	7803.35
465.50	7808.03
465.69	7686.32
465.87	7716.75
466.05	7744.83
466.23	7719.09
466.41	7903.99
466.60	8002.29
466.78	7639.51
466.96	7695.68
467.14	7686.32
467.32	7983.57
467.51	7978.89
467.69	7758.88
467.87	7840.79
468.05	8135.70
468.23	7981.23
468.41	8065.49
468.60	8002.29
468.78	7981.23
468.96	8189.53
469.14	8063.15
469.32	8320.60
469.50	7995.27
469.69	8077.19
469.87	8386.14
470.05	8369.76
470.23	8257.41
470.41	8318.26
470.59	8404.86
470.77	8421.25
470.95	8418.91
471.14	8678.71
471.32	8315.92
471.50	8575.72
471.68	8622.53
471.86	8484.44
472.04	8868.29
472.22	8774.67
472.40	8690.41
472.58	8872.97
472.77	8875.31
472.95	8992.34
473.13	9212.35
473.31	8908.08
473.49	8931.48
473.67	9092.98
473.85	9067.24
474.03	9312.99
474.21	9380.87
474.39	9334.06
474.57	9195.96
474.75	9509.60
474.93	9437.04
475.12	9493.21
475.30	9439.38
475.48	9607.90
475.66	9724.93
475.84	9657.05
476.02	9741.31
476.20	9825.57
476.38	9755.35
476.56	10122.82
476.74	9900.47
476.92	10169.63
477.10	9996.43
477.28	10363.89
477.46	10197.71
477.64	10125.16
477.82	10567.52
478.00	10581.56
478.18	10565.18
478.36	10670.50
478.54	10885.83
478.72	10689.23
478.90	10972.43
479.08	10810.93
479.26	11159.67
479.44	10979.45
479.62	11204.14
479.80	11545.86
479.98	11300.11
480.16	11822.05
480.34	11602.04
480.52	11571.61
480.70	11555.22
480.88	11613.74
481.06	11709.70
481.24	11698.00
481.41	11974.18
481.59	11758.85
481.77	12393.14
481.95	12393.14
482.13	12348.67
482.31	12383.77
482.49	12917.42
482.67	12659.96
482.85	13015.72
483.03	13249.77
483.21	13296.58
483.39	12999.34
483.57	12894.01
483.74	13317.65
483.92	13373.82
484.10	13420.63
484.28	13497.87
484.46	13678.09
484.64	13947.25
484.82	13874.70
485.00	13933.21
485.18	14352.16
485.35	14415.36
485.53	14375.57
485.71	14260.88
485.89	14813.25
486.07	14733.67
486.25	14516.00
486.43	14764.10
486.61	14958.36
486.78	15026.24
486.96	15342.21
487.14	15384.34
487.32	15295.40
487.50	15466.26
487.68	15391.36
487.85	15454.56
488.03	16016.29
488.21	16098.20
488.39	16112.25
488.57	16196.51
488.75	16152.04
488.92	16657.59
489.10	16659.93
489.28	16622.48
489.46	16819.09
489.64	16702.06
489.81	17043.78
489.99	17165.49
490.17	17151.45
490.35	17570.40
490.53	17556.36
490.70	17661.68
490.88	17682.75
491.06	18185.96
491.24	18113.41
491.41	18127.45
491.59	18363.84
491.77	18031.49
491.95	18450.44
492.13	18221.07
492.30	18712.58
492.48	18836.63
492.66	18878.76
492.84	18698.54
493.01	19257.93
493.19	19236.86
493.37	19283.67
493.54	19066.00
493.72	19503.68
493.90	19274.31
494.08	19807.95
494.25	20025.62
494.43	19971.79
494.61	19948.39
494.79	20219.89
494.96	20271.38
495.14	20453.94
495.32	20428.20
495.49	20432.88
495.67	20552.24
495.85	20826.09
496.02	21113.97
496.20	21324.62
496.38	21301.22
496.55	21355.05
496.73	21762.30
496.91	21558.67
497.09	21706.13
497.26	21558.67
497.44	21680.38
497.62	22312.33
497.79	22136.79
497.97	22143.81
498.14	22356.80
498.32	22618.94
498.50	22691.49
498.67	22883.42
498.85	22670.43
499.03	23016.83
499.20	22618.94
499.38	23101.09
499.56	23213.43
499.73	22855.33
499.91	23372.59
500.08	23412.38
500.26	23342.16
500.44	23501.32
500.61	23583.24
500.79	23637.07
500.97	23878.15
501.14	23999.85
501.32	24180.07
501.49	24086.45
501.67	24006.87
501.84	24524.13
502.02	24112.20
502.20	24425.83
502.37	24645.84
502.55	24379.02
502.72	24903.30
502.90	24552.22
503.07	24631.80
503.25	24844.79
503.43	24678.61
503.60	25102.25
503.78	25123.31
503.95	24919.68
504.13	25282.47
504.30	25663.97
504.48	25436.94
504.65	25308.21
504.83	25766.96
505.01	25869.94
505.18	25825.47
505.36	26017.40
505.53	25898.03
505.71	26015.05
505.88	26260.81
506.06	25816.11
506.23	26216.34
506.41	25708.44
506.58	26352.09
506.76	26370.82
506.93	26789.77
507.11	26717.22
507.28	26663.38
507.46	26654.02
507.63	26859.99
507.81	26649.34
507.98	26827.22
508.16	26998.08
508.33	27192.34
508.50	27349.16
508.68	27365.54
508.85	27658.11
509.03	27417.04
509.20	27665.13
509.38	28133.24
509.55	28002.17
509.73	28088.77
509.90	27683.86
510.08	28315.80
510.25	28261.97
510.42	28299.42
510.60	27967.06
510.77	28355.59
510.95	28432.83
511.12	28589.64
511.30	28573.26
511.47	28421.13
511.64	28428.15
511.82	28889.23
511.99	28758.16
512.17	28999.24
512.34	28662.20
512.51	28936.04
512.69	29015.62
512.86	28851.78
513.04	29659.27
513.21	29755.23
513.38	29481.39
513.56	29413.51
513.73	29979.92
513.90	29603.10
514.08	29528.20
514.25	29584.37
514.43	30029.07
514.60	29860.55
514.77	30000.99
514.95	30099.29
515.12	30003.33
515.29	30010.35
515.47	30410.58
515.64	30773.36
515.81	30305.26
515.99	30815.49
516.16	31019.12
516.33	30565.06
516.51	30895.07
516.68	30583.78
516.85	30597.82
517.03	31089.34
517.20	31007.42
517.37	30866.98
517.54	31072.95
517.72	30801.45
517.89	31220.41
518.06	31697.88
518.24	31503.61
518.41	31498.93
518.58	31339.77
518.75	31278.92
518.93	31765.75
519.10	31669.79
519.27	31751.71
519.45	31941.29
519.62	32093.43
519.79	32301.73
519.96	32144.92
520.14	32051.30
520.31	31831.29
520.48	32638.77
520.65	32367.27
520.83	32671.54
521.00	32921.98
521.17	32332.16
521.34	32659.84
521.52	33172.41
521.69	32662.18
521.86	33060.07
522.03	32863.46
522.20	33411.15
522.38	33481.36
522.55	33408.81
522.72	33256.67
522.89	33647.54
523.07	33404.13
523.24	33521.15
523.41	33745.84
523.58	33230.93
523.75	33816.06
523.92	33591.37
524.10	33797.34
524.27	34125.01
524.44	33582.01
524.61	33830.10
524.78	33846.49
524.96	34354.38
525.13	34338.00
525.30	34499.50
525.47	34518.22
525.64	34635.25
525.81	34319.28
525.98	35007.39
526.16	34359.06
526.33	34291.19
526.50	34438.64
526.67	34841.21
526.84	34829.51
527.01	34782.70
527.18	35026.12
527.36	34890.37
527.53	35150.17
527.70	35091.65
527.87	35323.36
528.04	35681.47
528.21	34955.90
528.38	35522.31
528.55	35611.25
528.72	35571.46
528.89	35297.62
529.07	35276.55
529.24	35175.91
529.41	35910.84
529.58	35861.69
529.75	35683.81
529.92	35697.85
530.09	35175.91
530.26	35716.58
530.43	35952.97
530.60	35814.88
530.77	36081.70
530.94	36233.83
531.11	35566.78
531.28	35833.60
531.46	36116.81
531.63	36388.31
531.80	36383.63
531.97	36381.29
532.14	36402.35
532.31	36484.27
532.48	36608.32
532.65	36587.25
532.82	36357.88
532.99	36563.85
533.16	36292.35
533.33	36376.61
533.50	36505.34
533.67	36898.55
533.84	36692.58
534.01	37165.37
534.18	37013.23
534.35	37542.19
534.52	36964.08
534.69	37450.91
534.86	37443.89
535.03	37071.75
535.20	37755.18
535.37	37738.80
535.54	37504.74
535.71	37729.44
535.88	37443.89
536.05	37581.98
536.22	38284.14
536.38	37532.83
536.55	37907.32
536.72	37708.37
536.89	37656.88
537.06	37827.74
537.23	38305.21
537.40	37706.03
537.57	37509.43
537.74	38050.09
537.91	38183.50
538.08	37991.58
538.25	37904.98
538.42	38270.10
538.59	38780.34
538.75	38230.31
538.92	38539.26
539.09	38272.44
539.26	38572.03
539.43	38239.67
539.60	38565.01
539.77	38726.50
539.94	39047.16
540.11	38749.91
540.28	38721.82
540.44	39026.09
540.61	38873.96
540.78	38703.10
540.95	38806.08
541.12	39002.69
541.29	38408.19
541.46	39161.84
541.62	38993.32
541.79	39384.19
541.96	38806.08
542.13	38972.26
542.30	39234.40
542.47	39583.14
542.63	39484.84
542.80	39632.29
542.97	39693.15
543.14	40067.63
543.31	39463.77
543.48	39868.69
543.64	40098.06
543.81	40198.70
543.98	40278.28
544.15	40058.27
544.32	40297.00
544.48	40210.40
544.65	40020.82
544.82	40767.45
544.99	40187.00
545.16	40313.39
545.32	40161.25
545.49	40615.32
545.66	40910.22
545.83	40472.54
546.00	40449.14
546.16	40610.64
546.33	40519.35
546.50	40257.21
546.67	40772.13
546.83	40376.58
547.00	40615.32
547.17	40804.90
547.34	40849.37
547.50	40779.15
547.67	41523.44
547.84	40755.75
548.00	41022.57
548.17	41177.04
548.34	41209.81
548.51	41177.04
548.67	41352.58
548.84	40795.54
549.01	41109.17
549.18	41212.15
549.34	41062.36
549.51	41031.93
549.68	41516.42
549.84	41188.75
550.01	41420.46
550.18	41460.25
550.34	41057.68
550.51	41722.39
550.68	41844.10
550.84	41188.75
551.01	42014.96
551.18	41453.23
551.34	41911.97
551.51	42344.97
551.68	41682.60
551.84	41904.95
552.01	41804.31
552.18	41642.81
552.34	41698.98
552.51	41949.42
552.68	41364.29
552.84	41808.99
553.01	42129.64
553.18	41855.80
553.34	42169.43
553.51	41794.95
553.67	42087.51
553.84	42492.43
554.01	41989.21
554.17	42199.86
554.34	41858.14
554.51	42618.81
554.67	43042.45
554.84	42572.00
555.00	42298.16
555.17	42057.09
555.33	42920.74
555.50	42595.41
555.67	42417.53
555.83	42682.01
556.00	42476.04
556.16	43051.81
556.33	42815.42
556.50	42815.42
556.66	42665.63
556.83	42937.13
556.99	42892.66
557.16	42965.21
557.32	43136.07
557.49	43030.75
557.65	43042.45
557.82	43140.75
557.98	43129.05
558.15	42946.49
558.32	42873.93
558.48	42969.90
558.65	42972.24
558.81	43409.92
558.98	42962.87
559.14	43229.69
559.31	43086.92
559.47	43196.93
559.64	43484.81
559.80	43019.05
559.97	43882.70
560.13	43147.78
560.30	43192.25
560.46	43480.13
560.63	43358.42
560.79	43840.57
560.96	43856.96
561.12	43049.47
561.29	43290.55
561.45	43643.97
561.61	43496.52
561.78	43313.95
561.94	43618.22
562.11	43592.48
562.27	43220.33
562.44	43611.20
562.60	43662.69
562.77	43814.83
562.93	43339.70
563.10	43969.30
563.26	43510.56
563.42	44058.24
563.59	43840.57
563.75	43412.26
563.92	43625.25
564.08	44013.77
564.24	43966.96
564.41	43723.55
564.57	43562.05
564.74	43735.25
564.90	43728.23
565.07	44388.26
565.23	43800.79
565.39	44065.27
565.56	43906.11
565.72	43920.15
565.88	44474.86
566.05	44170.59
566.21	44130.80
566.38	44175.27
566.54	44212.72
566.70	44116.76
566.87	44081.65
567.03	43913.13
567.19	44811.90
567.36	44051.22
567.52	44112.08
567.68	44659.76
567.85	44135.48
568.01	44575.50
568.17	43791.42
568.34	44203.36
568.50	44732.32
568.66	44055.90
568.83	44172.93
568.99	44105.06
569.15	44271.23
569.32	43875.68
569.48	43878.02
569.64	45045.95
569.81	44814.24
569.97	44737.00
570.13	44601.25
570.30	43943.56
570.46	44622.31
570.62	44285.28
570.78	44467.84
570.95	44282.94
571.11	44547.42
571.27	44304.00
571.43	44203.36
571.60	44666.78
571.76	44238.47
571.92	44638.70
572.09	44172.93
572.25	44973.39
572.41	44226.76
572.57	44463.16
572.74	44821.26
572.90	44999.14
573.06	44505.29
573.22	44863.39
573.38	44844.66
573.55	44807.22
573.71	45022.54
573.87	44884.45
574.03	44903.18
574.20	44800.19
574.36	44832.96
574.52	45078.72
574.68	44910.20
574.84	44863.39
575.01	44636.36
575.17	45242.56
575.33	44568.48
575.49	44816.58
575.65	44847.00
575.82	44708.91
575.98	44437.41
576.14	45069.36
576.30	45357.24
576.46	44673.81
576.62	45120.85
576.79	44996.80
576.95	44528.69
577.11	44634.02
577.27	45022.54
577.43	44832.96
577.59	44498.26
577.75	44755.72
577.92	44369.54
578.08	44790.83
578.24	44973.39
578.40	45207.45
578.56	44947.65
578.72	45055.31
578.88	45366.60
579.04	44856.37
579.21	45003.82
579.37	45134.89
579.53	45336.18
579.69	44872.75
579.85	44982.76
580.01	45141.91
580.17	45179.36
580.33	45467.25
580.49	45242.56
580.65	44952.33
580.82	45074.04
580.98	45127.87
581.14	44933.60
581.30	45148.93
581.46	44769.77
581.62	45008.50
581.78	44949.99
581.94	44893.82
582.10	45050.63
582.26	45375.97
582.42	45270.64
582.58	45010.84
582.74	45137.23
582.90	45148.93
583.06	45219.15
583.22	44891.48
583.38	45610.02
583.54	45254.26
583.70	45144.25
583.86	45371.28
584.02	45055.31
584.18	45689.60
584.34	45186.38
584.50	45535.12
584.66	45104.46
584.82	45226.17
584.98	45469.59
585.14	45205.11
585.30	45146.59
585.46	45031.91
585.62	44898.50
585.78	45006.16
585.94	44884.45
586.10	45160.64
586.26	45219.15
586.42	44919.56
586.58	44994.46
586.74	44734.66
586.90	44919.56
587.06	44706.57
587.22	45455.54
587.38	45488.31
587.54	45530.44
587.70	45640.45
587.86	44884.45
588.02	45375.97
588.18	45134.89
588.34	45268.30
588.49	45523.42
588.65	45055.31
588.81	45123.19
588.97	45130.21
589.13	45289.37
589.29	45263.62
589.45	45715.34
589.61	45364.26
589.77	45436.82
589.93	45235.53
590.08	45565.55
590.24	45715.34
590.40	45837.05
590.56	45834.71
590.72	45752.79
590.88	45354.90
591.04	45272.98
591.20	46007.91
591.35	45715.34
591.51	46099.19
591.67	45815.99
591.83	45837.05
591.99	45375.97
592.15	45661.51
592.31	45570.23
592.46	45743.43
592.62	45666.19
592.78	46225.58
592.94	46230.26
593.10	46225.58
593.26	46349.63
593.41	45991.53
593.57	46073.45
593.73	45668.53
593.89	46403.46
594.05	46190.47
594.20	45787.90
594.36	46174.09
594.52	46101.53
594.68	46080.47
594.84	46160.05
594.99	45736.41
595.15	45984.51
595.31	45918.97
595.47	45705.98
595.62	45949.40
595.78	45701.30
595.94	45947.06
596.10	45633.42
596.25	45684.92
596.41	45876.84
596.57	46003.23
596.73	46138.98
596.88	45757.47
597.04	45780.88
597.20	45776.20
597.36	45521.08
597.51	45844.07
597.67	45872.16
597.83	46110.89
597.99	46143.66
598.14	45909.61
598.30	46080.47
598.46	45888.54
598.61	46258.35
598.77	45804.28
598.93	46012.59
599.09	46520.49
599.24	46195.15
599.40	46171.75
599.56	46190.47
599.71	45813.65
599.87	46719.43
600.03	46471.34
600.18	46415.16
600.34	46124.94
600.50	46199.83
600.65	46241.96
600.81	46326.22
600.97	46218.56
601.12	46319.20
601.28	46117.92
601.44	46012.59
601.59	46241.96
601.75	46117.92
601.91	46583.68
602.06	46019.61
602.22	45979.82
602.37	45720.02
602.53	46461.97
602.69	46143.66
602.84	46031.32
603.00	46127.28
603.16	46052.38
603.31	46328.56
603.47	46190.47
603.62	46106.21
603.78	46600.07
603.94	46689.01
604.09	45947.06
604.25	45858.12
604.40	45841.73
604.56	46096.85
604.71	46300.48
604.87	45949.40
605.03	45720.02
605.18	45865.14
605.34	45925.99
605.49	45823.01
605.65	46089.83
605.80	46050.04
605.96	45837.05
606.12	45729.39
606.27	45881.52
606.43	46115.58
606.58	46122.60
606.74	45909.61
606.89	46410.48
607.05	46461.97
607.20	46403.46
607.36	45741.09
607.51	45909.61
607.67	46031.32
607.82	45638.11
607.98	45984.51
608.13	46052.38
608.29	45914.29
608.44	45837.05
608.60	45619.38
608.75	45628.74
608.91	45626.40
609.06	45654.49
609.22	46469.00
609.37	45422.78
609.53	45867.48
609.68	46169.41
609.84	45673.21
609.99	45631.08
610.15	45937.69
610.30	45823.01
610.46	45911.95
610.61	45773.86
610.76	45549.17
610.92	45546.82
611.07	45666.19
611.23	45532.78
611.38	45326.81
611.54	45893.22
611.69	45525.76
611.84	46017.27
612.00	46110.89
612.15	45572.57
612.31	45694.28
612.46	45357.24
612.62	45294.05
612.77	45223.83
612.92	45975.14
613.08	45759.81
613.23	45296.39
613.39	45464.91
613.54	45588.95
613.69	45450.86
613.85	45610.02
614.00	45806.62
614.15	45902.59
614.31	45153.62
614.46	45294.05
614.62	45191.06
614.77	45492.99
614.92	45401.71
615.08	45350.22
615.23	45179.36
615.38	45675.55
615.54	45031.91
615.69	45390.01
615.84	45434.48
616.00	45638.11
616.15	44921.90
616.30	45556.19
616.46	45329.16
616.61	45265.96
616.76	45329.16
616.92	45373.63
617.07	45502.35
617.22	45324.47
617.37	44713.59
617.53	45050.63
617.68	44935.95
617.83	44804.88
617.99	45228.51
618.14	45146.59
618.29	44816.58
618.45	45036.59
618.60	44783.81
618.75	44706.57
618.90	44919.56
619.06	44734.66
619.21	44774.45
619.36	45523.42
619.51	44442.09
619.67	44704.23
619.82	44935.95
619.97	45354.90
620.12	44655.08
620.28	45158.30
620.43	44865.73
620.58	45153.62
620.73	45186.38
620.89	44945.31
621.04	45008.50
621.19	44037.18
621.34	44832.96
621.49	44514.65
621.65	44830.62
621.80	45219.15
621.95	44868.07
622.10	44704.23
622.25	44619.97
622.41	44839.98
622.56	44196.34
622.71	44737.00
622.86	44648.06
623.01	44123.78
623.16	44086.33
623.32	44383.58
623.47	44149.53
623.62	44673.81
623.77	44573.16
623.92	44016.11
624.07	44105.06
624.23	44343.79
624.38	44292.30
624.53	44390.60
624.68	44339.11
624.83	43854.62
624.98	44116.76
625.13	43849.94
625.29	43936.54
625.44	43990.37
625.59	44374.22
625.74	43835.89
625.89	44329.75
626.04	43817.17
626.19	43901.43
626.34	43796.10
626.49	43845.26
626.65	43435.66
626.80	43887.39
626.95	43421.62
627.10	43370.13
627.25	44044.20
627.40	43512.90
627.55	43580.78
627.70	43711.84
627.85	43402.89
628.00	43906.11
628.15	43576.09
628.30	43288.21
628.45	43496.52
628.60	43063.52
628.76	43086.92
628.91	43793.76
629.06	43257.78
629.21	42724.14
629.36	42799.04
629.51	43484.81
629.66	43302.25
629.81	43716.53
629.96	43622.90
630.11	42932.45
630.26	42892.66
630.41	43639.29
630.56	42834.14
630.71	43203.95
630.86	43093.94
631.01	43384.17
631.16	42906.70
631.31	43215.65
631.46	42986.28
631.61	43489.49
631.76	43276.51
631.91	43061.18
632.06	43519.92
632.21	43381.83
632.36	43473.11
632.51	42714.78
632.66	43185.22
632.81	42593.07
632.96	43250.76
633.10	42586.05
633.25	43374.81
633.40	42625.84
633.55	42836.48
633.70	42291.14
633.85	42511.15
634.00	42351.99
634.15	42539.24
634.30	42469.02
634.45	42763.93
634.60	42256.03
634.75	42768.61
634.90	42658.60
635.05	42925.42
635.19	42693.71
635.34	42417.53
635.49	41979.85
635.64	42841.17
635.79	42679.67
635.94	42288.80
636.09	42667.97
636.24	42567.32
636.39	42546.26
636.53	42548.60
636.68	42398.80
636.83	41956.44
636.98	42089.85
637.13	42178.79
637.28	41972.83
637.43	41897.93
637.57	42232.63
637.72	41776.22
637.87	41757.50
638.02	42087.51
638.17	42380.08
638.32	42534.56
638.46	41467.27
638.61	41757.50
638.76	41518.76
638.91	42073.47
639.06	41743.45
639.20	41481.31
639.35	41331.52
639.50	41457.91
639.65	41439.18
639.80	41904.95
639.94	41825.37
640.09	42089.85
640.24	41858.14
640.39	41645.15
640.54	41347.90
640.68	41858.14
640.83	41689.62
640.98	41359.61
641.13	41181.73
641.27	41591.32
641.42	41546.85
641.57	41280.03
641.72	41603.02
641.86	41123.21
642.01	41371.31
642.16	41331.52
642.31	40868.09
642.45	41474.29
642.60	40933.63
642.75	40985.12
642.90	41628.77
643.04	41277.69
643.19	40952.35
643.34	40879.80
643.48	40699.58
643.63	40727.66
643.78	40898.52
643.93	41408.76
644.07	41558.55
644.22	41064.70
644.37	41017.89
644.51	41104.49
644.66	40788.52
644.81	40720.64
644.95	41069.38
645.10	40996.82
645.25	40451.48
645.39	40699.58
645.54	40385.94
645.69	40762.77
645.83	40540.42
645.98	40659.79
646.13	40818.94
646.27	40381.26
646.42	40308.71
646.57	40598.93
646.71	40980.44
646.86	40727.66
647.00	40535.74
647.15	40973.42
647.30	40851.71
647.44	40329.77
647.59	40374.24
647.74	40332.11
647.88	40980.44
648.03	40479.57
648.17	40957.03
648.32	40318.07
648.47	40369.56
648.61	40219.77
648.76	39999.76
648.90	40037.20
649.05	40622.34
649.20	40051.25
649.34	40383.60
649.49	40451.48
649.63	40151.89
649.78	40158.91
649.92	39988.05
650.07	40428.07
650.21	39852.30
650.36	40364.88
650.51	39784.43
650.65	40210.40
650.80	40105.08
650.94	40409.35
651.09	39634.63
651.23	39585.48
651.38	39660.38
651.52	39557.39
651.67	39812.51
651.81	39611.23
651.96	40058.27
652.10	39470.79
652.25	39702.51
652.39	39660.38
652.54	39840.60
652.68	39782.09
652.83	39295.25
652.97	39906.13
653.12	39894.43
653.26	39777.40
653.41	39634.63
653.55	39232.06
653.70	39498.88
653.84	39651.02
653.99	39690.80
654.13	39856.98
654.27	39218.02
654.42	39529.31
654.56	39086.95
654.71	39569.10
654.85	39611.23
655.00	39529.31
655.14	39318.66
655.29	39660.38
655.43	39370.15
655.57	39381.85
655.72	38646.93
655.86	39002.69
656.01	39140.78
656.15	39182.91
656.30	39009.71
656.44	39278.87
656.58	39124.40
656.73	39023.75
656.87	38731.18
657.01	38471.39
657.16	38831.83
657.30	38813.10
657.45	38998.01
657.59	38508.83
657.73	39037.80
657.88	38850.55
658.02	38747.57
658.16	38920.77
658.31	39122.05
658.45	38810.76
658.60	38274.78
658.74	38845.87
658.88	38763.95
659.03	38291.16
659.17	38302.87
659.31	38113.28
659.46	38117.96
659.60	38436.28
659.74	38202.22
659.89	37883.91
660.03	37666.24
660.17	38501.81
660.32	37860.51
660.46	38155.41
660.60	37886.25
660.74	37696.67
660.89	37928.38
661.03	37766.88
661.17	37258.99
661.32	37488.36
661.46	37258.99
661.60	37886.25
661.74	37493.04
661.89	37453.25
662.03	37298.78
662.17	36992.17
662.31	37434.53
662.46	37329.20
662.60	36751.09
662.74	36786.20
662.88	36748.75
663.03	36662.15
663.17	37076.43
663.31	36706.62
663.45	37376.01
663.60	37020.25
663.74	37486.02
663.88	37015.57
664.02	36699.60
664.17	37036.64
664.31	36484.27
664.45	36493.63
664.59	36751.09
664.73	36088.72
664.88	36299.37
665.02	36135.53
665.16	35978.72
665.30	36257.24
665.44	36243.20
665.59	36205.75
665.73	35962.33
665.87	35791.47
666.01	36133.19
666.15	36034.89
666.29	35941.27
666.44	36086.38
666.58	36030.21
666.72	35339.75
666.86	35938.93
667.00	35894.46
667.14	35732.96
667.28	35414.65
667.43	35566.78
667.57	35674.45
667.71	35864.03
667.85	35124.42
667.99	35082.29
668.13	35241.45
668.27	35089.31
668.41	35129.10
668.56	34834.19
668.70	34927.81
668.84	34586.10
668.98	34747.59
669.12	35002.71
669.26	35093.99
669.40	35112.72
669.54	34824.83
669.68	34483.11
669.82	34567.37
669.96	34663.33
670.10	34258.42
670.25	34649.29
670.39	34244.38
670.53	33914.36
670.67	34295.87
670.81	34403.53
670.95	33937.77
671.09	34202.25
671.23	33858.19
671.37	33813.72
671.51	34003.30
671.65	33338.59
671.79	33883.94
671.93	33537.54
672.07	33809.04
672.21	33787.97
672.35	33429.87
672.49	33504.77
672.63	33235.61
672.77	33418.17
672.91	33310.50
673.05	33317.53
673.19	32790.91
673.33	33027.30
673.47	32512.38
673.61	32821.33
673.75	32432.80
673.89	32905.59
674.03	32594.30
674.17	32318.12
674.31	32432.80
674.45	32505.36
674.59	32428.12
674.73	32318.12
674.87	32318.12
675.01	31840.65
675.15	31761.07
675.29	31674.47
675.43	31737.66
675.56	31985.76
675.70	31552.76
675.84	31459.14
675.98	30403.56
676.12	31412.33
676.26	31634.68
676.40	31166.57
676.54	30742.94
676.68	30742.94
676.82	30417.60
676.96	30885.71
677.10	30820.17
677.23	30321.64
677.37	30469.09
677.51	30522.93
677.65	30197.59
677.79	30546.33
677.93	30471.43
678.07	30342.70
678.21	30052.48
678.34	30064.18
678.48	29954.18
678.62	29441.60
678.76	29804.38
678.90	29633.52
679.04	29287.12
679.18	29507.13
679.31	29804.38
679.45	29324.57
679.59	28835.40
679.73	28765.18
679.87	29001.58
680.00	28685.61
680.14	29027.32
680.28	28795.61
680.42	28884.55
680.56	28453.89
680.70	28421.13
680.83	28151.96
680.97	28025.57
681.11	27796.20
681.25	28196.43
681.39	27779.82
681.52	27903.87
681.66	27410.01
681.80	27307.03
681.94	27632.36
682.07	27166.60
682.21	27199.37
682.35	27192.34
682.49	27182.98
682.62	27363.20
682.76	27264.90
682.90	27082.34
683.04	27117.45
683.17	26848.29
683.31	26235.06
683.45	26354.43
683.59	26316.98
683.72	26340.39
683.86	26204.64
684.00	25582.06
684.13	26242.09
684.27	25958.88
684.41	26005.69
684.55	25844.20
684.68	25781.00
684.82	25507.16
684.96	25507.16
685.09	25373.75
685.23	25422.90
685.37	25542.27
685.50	25362.04
685.64	25509.50
685.78	25305.87
685.91	24748.82
686.05	24339.23
686.19	24559.24
686.32	24322.85
686.46	24196.46
686.60	23981.13
686.73	24276.04
686.87	24077.09
687.01	24210.50
687.14	24327.53
687.28	24180.07
687.42	23873.46
687.55	23592.60
687.69	23623.03
687.82	23681.54
687.96	23730.69
688.10	23789.20
688.23	23618.35
688.37	23314.08
688.50	23370.25
688.64	23161.94
688.78	23290.67
688.91	23185.35
689.05	22810.86
689.18	22647.02
689.32	22429.35
689.46	22438.72
689.59	22459.78
689.73	22675.11
689.86	22246.79
690.00	22155.51
690.13	22293.60
690.27	22317.01
690.41	22352.12
690.54	22024.44
690.68	21942.52
690.81	21865.28
690.95	21528.25
691.08	21392.50
691.22	21619.53
691.35	21373.77
691.49	21561.02
691.62	21598.46
691.76	21149.08
691.89	20849.49
692.03	20751.19
692.16	20680.97
692.30	20702.04
692.43	20498.41
692.57	20341.60
692.70	20608.42
692.84	20273.72
692.97	20046.69
693.11	20250.32
693.24	19878.17
693.38	20156.69
693.51	19646.46
693.65	19777.53
693.78	19623.05
693.92	19447.51
694.05	19894.55
694.19	19683.91
694.32	19417.08
694.45	19613.69
694.59	19669.86
694.72	19323.46
694.86	19267.29
694.99	19080.05
695.13	18862.38
695.26	18757.05
695.39	18609.60
695.53	18466.83
695.66	18712.58
695.80	18441.08
695.93	18506.62
696.07	18324.05
696.20	17947.23
696.33	18333.42
696.47	17851.27
696.60	17926.16
696.73	18050.21
696.87	17900.42
697.00	18043.19
697.14	17858.29
697.27	17598.49
697.40	17640.62
697.54	17687.43
697.67	17479.12
697.80	17444.01
697.94	17226.34
698.07	17378.48
698.21	17018.04
698.34	17163.15
698.47	16713.77
698.61	16561.63
698.74	16652.91
698.87	16559.29
699.01	16468.01
699.14	16547.59
699.27	16423.54
699.40	16355.66
699.54	16306.51
699.67	16257.36
699.80	16362.69
699.94	15974.16
700.07	16123.95
700.20	15840.75
700.34	15922.66
700.47	15749.46
700.60	16016.29
700.73	16013.95
700.87	15763.51
701.00	15473.28
701.13	15140.93
701.26	15211.14
701.40	15002.83
701.53	15164.33
701.66	15536.48
701.79	15180.71
701.93	15007.52
702.06	14541.75
702.19	14867.08
702.32	14696.22
702.46	14869.42
702.59	14839.00
702.72	14853.04
702.85	14583.88
702.99	14595.58
703.12	14567.49
703.25	14452.81
703.38	14132.15
703.51	14228.12
703.65	14193.01
703.78	13813.84
703.91	13680.43
704.04	13762.35
704.17	13678.09
704.31	13844.27
704.44	13422.97
704.57	13666.39
704.70	13467.44
704.83	13493.19
704.96	13125.72
705.10	13036.78
705.23	13228.71
>>>>>End Processed Spectral Data<<<<<
