SpectraSuite Data File
++++++++++++++++++++++++++++++++++++
Date: Fri Oct 25 10:48:04 EDT 2013
User: price-jones
Dark Spectrum Present: No
Reference Spectrum Present: No
Number of Sampled Component Spectra: 1
Spectrometers: USB2+H05261
Integration Time (usec): 100000 (USB2+H05261)
Spectra Averaged: 1 (USB2+H05261)
Boxcar Smoothing: 0 (USB2+H05261)
Correct for Electrical Dark: No (USB2+H05261)
Strobe/Lamp Enabled: No (USB2+H05261)
Correct for Detector Non-linearity: No (USB2+H05261)
Correct for Stray Light: No (USB2+H05261)
Number of Pixels in Processed Spectrum: 2048
>>>>>Begin Processed Spectral Data<<<<<
365.73	163.84
365.92	163.84
366.12	163.84
366.32	100.64
366.52	0.00
366.72	114.69
366.91	102.98
367.11	49.15
367.31	11.70
367.51	37.45
367.70	114.69
367.90	51.49
368.10	72.56
368.30	11.70
368.49	117.03
368.69	107.66
368.89	37.45
369.09	91.28
369.28	46.81
369.48	70.22
369.68	74.90
369.87	105.32
370.07	140.43
370.27	126.39
370.47	215.33
370.66	341.72
370.86	369.80
371.06	458.74
371.25	538.32
371.45	355.76
371.65	440.02
371.84	402.57
372.04	407.25
372.24	456.40
372.44	498.53
372.63	519.60
372.83	482.15
373.03	489.17
373.22	500.87
373.42	521.94
373.62	608.54
373.81	517.26
374.01	540.66
374.21	571.09
374.40	554.71
374.60	547.69
374.79	444.70
374.99	580.45
375.19	512.58
375.38	521.94
375.58	571.09
375.78	566.41
375.97	620.24
376.17	512.58
376.37	543.00
376.56	573.43
376.76	622.58
376.95	528.96
377.15	594.50
377.35	641.31
377.54	592.16
377.74	599.18
377.93	622.58
378.13	578.11
378.33	629.60
378.52	634.29
378.72	631.94
378.91	653.01
379.11	624.92
379.31	561.73
379.50	587.47
379.70	648.33
379.89	699.82
380.09	636.63
380.28	634.29
380.48	627.26
380.68	669.39
380.87	645.99
381.07	582.79
381.26	622.58
381.46	638.97
381.65	669.39
381.85	592.16
382.04	601.52
382.24	636.63
382.43	695.14
382.63	690.46
382.83	699.82
383.02	739.61
383.22	758.33
383.41	645.99
383.61	739.61
383.80	709.18
384.00	709.18
384.19	678.76
384.39	748.97
384.58	720.88
384.78	791.10
384.97	807.48
385.17	774.72
385.36	763.01
385.56	755.99
385.75	755.99
385.95	840.25
386.14	795.78
386.34	809.83
386.53	739.61
386.72	770.04
386.92	945.58
387.11	844.93
387.31	807.48
387.50	725.57
387.70	802.80
387.89	873.02
388.09	812.17
388.28	763.01
388.48	739.61
388.67	788.76
388.86	823.87
389.06	940.90
389.25	870.68
389.45	908.13
389.64	898.77
389.84	875.36
390.03	917.49
390.22	849.61
390.42	903.45
390.61	842.59
390.81	868.34
391.00	990.05
391.19	1029.84
391.39	889.40
391.58	924.51
391.78	938.55
391.97	1025.15
392.16	1036.86
392.36	997.07
392.55	971.32
392.75	980.68
392.94	968.98
393.13	1039.20
393.33	894.08
393.52	980.68
393.71	947.92
393.91	1043.88
394.10	910.47
394.29	1064.94
394.49	1034.52
394.68	1076.65
394.88	1055.58
395.07	1128.14
395.26	1013.45
395.46	1107.07
395.65	1170.27
395.84	1174.95
396.04	1086.01
396.23	1100.05
396.42	1076.65
396.62	1055.58
396.81	1156.22
397.00	1100.05
397.19	1181.97
397.39	1242.82
397.58	1247.51
397.77	1151.54
397.97	1242.82
398.16	1268.57
398.35	1306.02
398.55	1294.32
398.74	1287.29
398.93	1376.24
399.12	1191.33
399.32	1245.16
399.51	1238.14
399.70	1364.53
399.90	1303.68
400.09	1385.60
400.28	1338.79
400.47	1291.98
400.67	1479.22
400.86	1394.96
401.05	1406.66
401.24	1390.28
401.44	1434.75
401.63	1439.43
401.82	1483.90
402.01	1444.11
402.21	1549.43
402.40	1511.99
402.59	1540.07
402.78	1497.94
402.97	1530.71
403.17	1526.03
403.36	1540.07
403.55	1612.63
403.74	1547.09
403.93	1582.20
404.13	1631.35
404.32	1558.80
404.51	1586.88
404.70	1626.67
404.89	1617.31
405.09	1659.44
405.28	1720.29
405.47	1729.66
405.66	1701.57
405.85	1760.08
406.05	1687.53
406.24	1734.34
406.43	1701.57
406.62	1774.13
406.81	1849.02
407.00	1750.72
407.20	1722.63
407.39	1732.00
407.58	1727.32
407.77	1839.66
407.96	1867.75
408.15	1994.14
408.34	1930.94
408.54	1940.30
408.73	1830.30
408.92	2001.16
409.11	2003.50
409.30	2010.52
409.49	1926.26
409.68	2031.58
409.87	2073.71
410.07	1942.64
410.26	2083.08
410.45	2111.16
410.64	2090.10
410.83	2150.95
411.02	2106.48
411.21	2174.36
411.40	2165.00
411.59	2153.29
411.78	2127.55
411.98	2111.16
412.17	2300.75
412.36	2275.00
412.55	2310.11
412.74	2251.60
412.93	2326.49
413.12	2307.77
413.31	2415.43
413.50	2452.88
413.69	2455.22
413.88	2586.29
414.07	2499.69
414.26	2487.99
414.45	2551.18
414.64	2602.68
414.83	2595.65
415.02	2574.59
415.22	2731.41
415.41	2696.30
415.60	2644.81
415.79	2752.47
415.98	2806.30
416.17	2731.41
416.36	2726.72
416.55	2757.15
416.74	2799.28
416.93	2801.62
417.12	2825.03
417.31	2946.73
417.50	2920.99
417.69	3005.25
417.88	3023.97
418.07	2841.41
418.26	2902.26
418.45	2970.14
418.64	3038.02
418.83	3150.36
419.02	3033.33
419.21	3145.68
419.39	3033.33
419.58	3002.91
419.77	3061.42
419.96	3077.80
420.15	3176.11
420.34	3185.47
420.53	3211.22
420.72	3253.34
420.91	3330.58
421.10	3234.62
421.29	3384.41
421.48	3293.13
421.67	3405.48
421.86	3356.33
422.05	3302.50
422.24	3241.64
422.43	3246.32
422.61	3386.76
422.80	3391.44
422.99	3541.23
423.18	3384.41
423.37	3515.48
423.56	3538.89
423.75	3515.48
423.94	3396.12
424.13	3248.66
424.32	3435.91
424.50	3428.88
424.69	3471.01
424.88	3426.54
425.07	3445.27
425.26	3398.46
425.45	3316.54
425.64	3499.10
425.83	3405.48
426.01	3508.46
426.20	3538.89
426.39	3513.14
426.58	3496.76
426.77	3480.38
426.96	3510.80
427.15	3393.78
427.33	3644.21
427.52	3576.34
427.71	3613.79
427.90	3779.97
428.09	3599.74
428.28	3681.66
428.46	3779.97
428.65	3742.52
428.84	3730.81
429.03	3817.41
429.22	3691.02
429.40	3728.47
429.59	3819.75
429.78	3559.95
429.97	3482.72
430.16	3604.42
430.34	3613.79
430.53	3700.39
430.72	3801.03
430.91	3796.35
431.10	3684.00
431.28	3922.74
431.47	3899.33
431.66	4095.94
431.85	4011.68
432.03	4049.13
432.22	4046.79
432.41	4037.42
432.60	4133.39
432.79	4051.47
432.97	4152.11
433.16	4109.98
433.35	4163.81
433.54	4065.51
433.72	4107.64
433.91	4271.48
434.10	4117.00
434.28	4215.30
434.47	4327.65
434.66	4287.86
434.85	4320.63
435.03	4369.78
435.22	4198.92
435.41	4535.96
435.59	4461.06
435.78	4414.25
435.97	4524.26
436.16	4381.48
436.34	4432.97
436.53	4533.62
436.72	4505.53
436.90	4547.66
437.09	4402.55
437.28	4498.51
437.46	4643.62
437.65	4594.47
437.84	4638.94
438.02	4631.92
438.21	4648.30
438.40	4636.60
438.58	4889.38
438.77	4812.14
438.96	4809.80
439.14	4821.50
439.33	4975.98
439.52	4947.89
439.70	5034.49
439.89	5186.63
440.08	4936.19
440.26	5071.94
440.45	5121.09
440.63	5074.28
440.82	5193.65
441.01	5100.03
441.19	5214.71
441.38	5177.26
441.57	5289.61
441.75	5458.13
441.94	5495.58
442.12	5418.34
442.31	5394.93
442.50	5654.73
442.68	5324.72
442.87	5467.49
443.05	5439.40
443.24	5558.77
443.43	5645.37
443.61	5621.97
443.80	5746.02
443.98	5624.31
444.17	5514.30
444.35	5633.67
444.54	5839.64
444.73	5600.90
444.91	5743.67
445.10	5614.95
445.28	5575.16
445.47	5636.01
445.65	5570.48
445.84	5727.29
446.02	5898.15
446.21	5806.87
446.39	5727.29
446.58	5792.83
446.77	5856.02
446.95	5535.37
447.14	5741.33
447.32	5837.30
447.51	5874.74
447.69	5834.96
447.88	5867.72
448.06	5834.96
448.25	5790.49
448.43	5790.49
448.62	5940.28
448.80	5963.68
448.99	6026.88
449.17	5961.34
449.36	5933.26
449.54	5956.66
449.73	6113.48
449.91	6148.59
450.10	6164.97
450.28	6157.95
450.46	6127.52
450.65	6108.80
450.83	6284.34
451.02	6214.12
451.20	6317.11
451.39	6429.45
451.57	6139.23
451.76	6338.17
451.94	6317.11
452.13	6361.58
452.31	6366.26
452.49	6134.54
452.68	6534.78
452.86	6298.38
453.05	6506.69
453.23	6361.58
453.42	6431.79
453.60	6333.49
453.78	6438.81
453.97	6469.24
454.15	6558.18
454.34	6410.73
454.52	6518.39
454.70	6614.35
454.89	6710.32
455.07	6595.63
455.26	6771.17
455.44	6715.00
455.62	6567.54
455.81	6679.89
455.99	6834.36
456.17	6799.26
456.36	6874.15
456.54	7012.24
456.73	6984.16
456.91	7122.25
457.09	7183.10
457.28	7396.09
457.46	6956.07
457.64	7155.02
457.83	7176.08
458.01	7075.44
458.19	7159.70
458.38	7110.55
458.56	7148.00
458.74	7157.36
458.93	7283.75
459.11	7382.05
459.29	7222.89
459.48	7403.11
459.66	7314.17
459.84	7328.22
460.03	7707.38
460.21	7412.48
460.39	7442.90
460.57	7377.37
460.76	7384.39
460.94	7555.25
461.12	7438.22
461.31	7566.95
461.49	7625.47
461.67	7595.04
461.85	7723.77
462.04	7683.98
462.22	8021.02
462.40	7936.76
462.59	7768.24
462.77	7988.25
462.95	7852.50
463.13	7730.79
463.32	7756.54
463.50	7889.95
463.68	7992.93
463.86	7960.16
464.05	7836.11
464.23	7934.42
464.41	8063.15
464.59	7803.35
464.78	8121.66
464.96	8088.89
465.14	7915.69
465.32	8131.02
465.50	8210.60
465.69	8318.26
465.87	8159.11
466.05	8093.57
466.23	8166.13
466.41	8030.38
466.60	8369.76
466.78	8009.31
466.96	8131.02
467.14	8257.41
467.32	8243.37
467.51	8568.70
467.69	8198.90
467.87	8322.94
468.05	8226.98
468.23	8138.04
468.41	8510.19
468.60	8451.67
468.78	8386.14
468.96	8376.78
469.14	8636.58
469.32	8383.80
469.50	8535.93
469.69	8587.43
469.87	8610.83
470.05	8674.03
470.23	8648.28
470.41	8697.43
470.59	8812.12
470.77	8821.48
470.95	8982.98
471.14	9081.28
471.32	8758.28
471.50	8971.27
471.68	9046.17
471.86	9025.11
472.04	8997.02
472.22	9371.50
472.40	9165.54
472.58	9095.32
472.77	9408.95
472.95	9406.61
473.13	9769.40
473.31	9324.69
473.49	9448.74
473.67	9268.52
473.85	9612.58
474.03	9647.69
474.21	9453.42
474.39	9703.86
474.57	9586.83
474.75	9942.60
474.93	9818.55
475.12	9830.25
475.30	10134.52
475.48	9930.89
475.66	9977.70
475.84	10183.67
476.02	10253.89
476.20	10090.05
476.38	10448.15
476.56	10782.85
476.74	10490.28
476.92	10565.18
477.10	10314.74
477.28	10810.93
477.46	10747.74
477.64	10775.83
477.82	10963.07
478.00	11262.66
478.18	10939.66
478.36	11112.86
478.54	11063.71
478.72	11445.22
478.90	11676.93
479.08	11625.44
479.26	11620.76
479.44	11456.92
479.62	11653.53
479.80	11934.39
479.98	12006.95
480.16	12451.65
480.34	12084.19
480.52	12182.49
480.70	12182.49
480.88	12133.34
481.06	12105.25
481.24	12336.96
481.41	12575.70
481.59	12730.17
481.77	12800.39
481.95	12685.70
482.13	12704.43
482.31	12819.11
482.49	13221.69
482.67	13219.35
482.85	13432.33
483.03	13509.57
483.21	13502.55
483.39	13776.39
483.57	13729.58
483.74	13862.99
483.92	13858.31
484.10	13736.60
484.28	14150.88
484.46	14352.16
484.64	14618.99
484.82	14303.01
485.00	14413.02
485.18	14937.30
485.35	14759.42
485.53	14913.89
485.71	14916.23
485.89	14988.79
486.07	15124.54
486.25	14923.26
486.43	15463.92
486.61	15255.61
486.78	15573.92
486.96	15859.47
487.14	16049.05
487.32	15887.56
487.50	16217.57
487.68	16472.69
487.85	16231.62
488.03	16795.68
488.21	17015.69
488.39	16622.48
488.57	16610.78
488.75	16903.35
488.92	17099.95
489.10	17359.75
489.28	17514.23
489.46	17490.82
489.64	17542.32
489.81	18185.96
489.99	17881.69
490.17	18370.86
490.35	18232.77
490.53	18054.89
490.70	18347.46
490.88	18237.45
491.06	18815.57
491.24	18876.42
491.41	18890.46
491.59	19021.53
491.77	18799.18
491.95	19250.91
492.13	19037.92
492.30	19246.23
492.48	19342.19
492.66	19756.46
492.84	19534.11
493.01	20037.33
493.19	19875.83
493.37	20166.06
493.54	20205.84
493.72	20362.66
493.90	20365.00
494.08	20688.00
494.25	20840.13
494.43	20779.28
494.61	20723.10
494.79	21043.76
494.96	21048.44
495.14	21195.89
495.32	21453.35
495.49	21312.92
495.67	21640.59
495.85	21727.19
496.02	21781.03
496.20	22253.81
496.38	21970.61
496.55	22319.35
496.73	22623.62
496.91	22317.01
497.09	22490.21
497.26	22195.30
497.44	22490.21
497.62	22787.46
497.79	23110.45
497.97	22728.94
498.14	23171.30
498.32	23353.87
498.50	23403.02
498.67	23412.38
498.85	23351.52
499.03	23637.07
499.20	23473.23
499.38	23950.70
499.56	23990.49
499.73	23962.40
499.91	24201.14
500.08	24350.93
500.26	24465.62
500.44	24198.80
500.61	24177.73
500.79	24011.56
500.97	24362.64
501.14	25006.28
501.32	24964.15
501.49	24905.64
501.67	24849.47
501.84	24706.70
502.02	24893.94
502.20	25223.95
502.37	25301.19
502.55	25273.10
502.72	25364.39
502.90	25383.11
503.07	25312.89
503.25	25600.78
503.43	25619.50
503.60	25692.06
503.78	25720.15
503.95	25881.64
504.13	26288.90
504.30	26417.63
504.48	25944.84
504.65	26139.10
504.83	26450.39
505.01	26462.10
505.18	26139.10
505.36	26773.39
505.53	26689.13
505.71	26991.06
505.88	27229.79
506.06	26831.90
506.23	27115.11
506.41	26764.03
506.58	26904.46
506.76	27419.38
506.93	27297.67
507.11	27550.45
507.28	27353.84
507.46	27314.05
507.63	27538.74
507.81	27651.09
507.98	27054.25
508.16	27770.46
508.33	27665.13
508.50	27971.74
508.68	28177.71
508.85	28329.84
509.03	28381.34
509.20	28135.58
509.38	28577.94
509.55	28854.12
509.73	28711.35
509.90	28814.34
510.08	28662.20
510.25	28617.73
510.42	29036.69
510.60	29436.92
510.77	28966.47
510.95	29366.70
511.12	29123.29
511.30	29097.54
511.47	29422.87
511.64	29806.72
511.82	29874.60
511.99	29741.19
512.17	29898.00
512.34	29539.90
512.51	29930.77
512.69	29907.37
512.86	30195.25
513.04	30185.89
513.21	30108.65
513.38	30096.95
513.56	30171.85
513.73	30047.80
513.90	30394.20
514.08	30033.75
514.25	30630.59
514.43	30120.35
514.60	30501.86
514.77	30677.40
514.95	30986.35
515.12	30494.84
515.29	30789.75
515.47	31370.20
515.64	31253.17
515.81	31365.52
515.99	31077.63
516.16	31573.83
516.33	31054.23
516.51	31599.57
516.68	31126.78
516.85	31023.80
517.03	31075.29
517.20	31438.08
517.37	31545.74
517.54	31688.51
517.72	31482.55
517.89	31592.55
518.06	31503.61
518.24	31381.90
518.41	31779.79
518.58	31960.02
518.75	32163.64
518.93	32488.98
519.10	32407.06
519.27	32554.51
519.45	32779.20
519.62	32631.75
519.79	32737.07
519.96	32706.65
520.14	32842.40
520.31	32826.01
520.48	32973.47
520.65	32369.61
520.83	33074.11
521.00	32964.10
521.17	33256.67
521.34	33317.53
521.52	33516.47
521.69	33528.17
521.86	33642.86
522.03	33551.58
522.20	33963.51
522.38	33722.44
522.55	33666.27
522.72	33380.72
522.89	33905.00
523.07	33724.78
523.24	33883.94
523.41	34050.11
523.58	33729.46
523.75	34401.19
523.92	34244.38
524.10	34469.07
524.27	34368.43
524.44	34424.60
524.61	34323.96
524.78	34668.02
524.96	34520.56
525.13	34726.53
525.30	34852.92
525.47	34850.58
525.64	34579.07
525.81	34981.65
525.98	34588.44
526.16	35056.54
526.33	34892.71
526.50	35292.94
526.67	35096.33
526.84	35030.80
527.01	35204.00
527.18	35098.67
527.36	35456.78
527.53	35323.36
527.70	35852.33
527.87	35948.29
528.04	35690.83
528.21	35526.99
528.38	35828.92
528.55	36039.57
528.72	35756.36
528.89	36201.07
529.07	36016.16
529.24	35505.93
529.41	36121.49
529.58	36341.50
529.75	35817.22
529.92	36158.94
530.09	36334.48
530.26	36596.62
530.43	36718.32
530.60	35849.99
530.77	36432.78
530.94	36552.15
531.11	36378.95
531.28	36734.71
531.46	36720.66
531.63	36645.77
531.80	37148.98
531.97	36549.81
532.14	36671.51
532.31	36531.08
532.48	36898.55
532.65	37247.29
532.82	37228.56
532.99	37156.00
533.16	37172.39
533.33	37443.89
533.50	37464.96
533.67	37118.56
533.84	37572.62
534.01	37408.78
534.18	37111.53
534.35	37855.82
534.52	37371.33
534.69	37734.12
534.86	37750.50
535.03	37741.14
535.20	37750.50
535.37	38014.98
535.54	37935.40
535.71	37801.99
535.88	37579.64
536.05	37773.91
536.22	38050.09
536.38	37991.58
536.55	37942.42
536.72	38176.48
536.89	38209.25
537.06	38103.92
537.23	37928.38
537.40	38031.36
537.57	38321.59
537.74	38532.24
537.91	38513.52
538.08	38691.40
538.25	38174.14
538.42	38590.75
538.59	38902.04
538.75	38700.76
538.92	38394.15
539.09	38705.44
539.26	38990.98
539.43	38878.64
539.60	38515.86
539.77	38932.47
539.94	38696.08
540.11	38581.39
540.28	38703.10
540.44	38822.47
540.61	39257.81
540.78	38590.75
540.95	38885.66
541.12	38443.30
541.29	38602.46
541.46	38918.43
541.62	39353.77
541.79	39688.46
541.96	39220.36
542.13	39306.96
542.30	39283.55
542.47	39665.06
542.63	39269.51
542.80	39564.42
542.97	39510.58
543.14	39983.37
543.31	39913.16
543.48	39587.82
543.64	40781.49
543.81	40266.58
543.98	40046.57
544.15	40013.80
544.32	40154.23
544.48	40315.73
544.65	40187.00
544.82	40137.85
544.99	40011.46
545.16	40041.88
545.32	39770.38
545.49	40116.78
545.66	40935.97
545.83	40697.24
546.00	41076.40
546.16	40573.19
546.33	40404.67
546.50	40046.57
546.67	40531.06
546.83	40210.40
547.00	40332.11
547.17	40786.18
547.34	40458.50
547.50	40978.10
547.67	40914.90
547.84	41158.32
548.00	41003.85
548.17	41462.59
548.34	40954.69
548.51	41371.31
548.67	41146.62
548.84	41394.71
549.01	41460.25
549.18	40985.12
549.34	41099.81
549.51	41682.60
549.68	41464.93
549.84	41130.23
550.01	41280.03
550.18	41024.91
550.34	41116.19
550.51	41116.19
550.68	41326.84
550.84	40924.27
551.01	41565.57
551.18	41317.48
551.34	41591.32
551.51	41581.96
551.68	41750.48
551.84	41794.95
552.01	41715.37
552.18	41546.85
552.34	41729.41
552.51	41996.23
552.68	41663.88
552.84	41937.72
553.01	41713.03
553.18	41574.94
553.34	41642.81
553.51	41766.86
553.67	41748.14
553.84	42143.69
554.01	42202.20
554.17	42106.24
554.34	42199.86
554.51	41865.16
554.67	42679.67
554.84	42007.94
555.00	41954.10
555.17	42075.81
555.33	42293.48
555.50	41984.53
555.67	42672.65
555.83	42047.72
556.00	42658.60
556.16	42595.41
556.33	42749.88
556.50	42494.77
556.66	42712.44
556.83	42129.64
556.99	43091.60
557.16	43260.12
557.32	42686.69
557.49	42567.32
557.65	42239.65
557.82	42267.73
557.98	42691.37
558.15	42691.37
558.32	43072.88
558.48	42440.93
558.65	42698.39
558.81	42527.53
558.98	43129.05
559.14	43356.08
559.31	42705.41
559.47	42951.17
559.64	43220.33
559.80	42960.53
559.97	43384.17
560.13	42960.53
560.30	42696.05
560.46	42827.12
560.63	43021.39
560.79	43398.21
560.96	43070.54
561.12	43220.33
561.29	43260.12
561.45	43386.51
561.61	42974.58
561.78	42937.13
561.94	43217.99
562.11	43136.07
562.27	43068.20
562.44	43402.89
562.60	43761.00
562.77	43304.59
562.93	43419.28
563.10	43140.75
563.26	43267.14
563.42	43201.61
563.59	42988.62
563.75	43112.67
563.92	43728.23
564.08	43730.57
564.24	43564.39
564.41	43597.16
564.57	43363.11
564.74	43386.51
564.90	42997.98
565.07	43489.49
565.23	43643.97
565.39	43480.13
565.56	43583.12
565.72	43562.05
565.88	43503.54
566.05	43374.81
566.21	43533.96
566.38	43838.23
566.54	43571.41
566.70	44051.22
566.87	44306.34
567.03	43728.23
567.19	44133.14
567.36	44006.75
567.52	43552.69
567.68	43650.99
567.85	43487.15
568.01	43643.97
568.17	44191.65
568.34	43803.13
568.50	43871.00
568.66	44203.36
568.83	43917.81
568.99	43681.42
569.15	43835.89
569.32	43826.53
569.48	43889.73
569.64	43880.36
569.81	43625.25
569.97	43636.95
570.13	43906.11
570.30	43587.80
570.46	43871.00
570.62	43669.72
570.78	43571.41
570.95	43952.92
571.11	44135.48
571.27	43981.01
571.43	44112.08
571.60	43812.49
571.76	43714.19
571.92	44247.83
572.09	43995.05
572.25	43852.28
572.41	43833.55
572.57	44194.00
572.74	44151.87
572.90	44177.61
573.06	43917.81
573.22	44055.90
573.38	44123.78
573.55	43709.50
573.71	43842.92
573.87	43955.26
574.03	43667.37
574.20	44194.00
574.36	44086.33
574.52	43824.19
574.68	44151.87
574.84	43810.15
575.01	44030.16
575.17	43950.58
575.33	43786.74
575.49	44205.70
575.65	44343.79
575.82	44402.30
575.98	44229.10
576.14	44519.33
576.30	43962.28
576.46	44121.44
576.62	43899.09
576.79	43913.13
576.95	43871.00
577.11	44168.25
577.27	44168.25
577.43	44404.64
577.59	43934.20
577.75	44149.53
577.92	43721.21
578.08	43714.19
578.24	43667.37
578.40	43758.66
578.56	44259.53
578.72	44287.62
578.88	44278.25
579.04	44053.56
579.21	44381.24
579.37	44100.37
579.53	44495.92
579.69	43962.28
579.85	44325.07
580.01	44121.44
580.17	44484.22
580.33	44648.06
580.49	44285.28
580.65	44383.58
580.82	44184.63
580.98	44186.97
581.14	43859.30
581.30	44545.08
581.46	44664.44
581.62	44217.40
581.78	43833.55
581.94	44502.95
582.10	44376.56
582.26	44165.91
582.42	44842.32
582.58	44308.68
582.74	43800.79
582.90	44444.43
583.06	44505.29
583.22	44252.51
583.38	44191.65
583.54	43887.39
583.70	44259.53
583.86	44240.81
584.02	44210.38
584.18	44315.70
584.34	44076.97
584.50	44477.20
584.66	44186.97
584.82	44002.07
584.98	43945.90
585.14	44435.07
585.30	44137.82
585.46	44568.48
585.62	44037.18
585.78	44353.15
585.94	43999.73
586.10	44318.04
586.26	44598.91
586.42	44236.12
586.58	44252.51
586.74	44538.05
586.90	43981.01
587.06	44322.72
587.22	44411.67
587.38	44545.08
587.54	44582.52
587.70	44556.78
587.86	44488.90
588.02	44350.81
588.18	44556.78
588.34	44215.06
588.49	44383.58
588.65	44170.59
588.81	44439.75
588.97	44268.89
589.13	44418.69
589.29	44449.11
589.45	44465.50
589.61	44458.48
589.77	44617.63
589.93	44402.30
590.08	44971.05
590.24	45160.64
590.40	44334.43
590.56	44996.80
590.72	44414.01
590.88	44402.30
591.04	44287.62
591.20	44605.93
591.35	44772.11
591.51	45172.34
591.67	44619.97
591.83	44126.12
591.99	44247.83
592.15	44224.42
592.31	44828.28
592.46	44392.94
592.62	44353.15
592.78	44727.64
592.94	44437.41
593.10	44498.26
593.26	44500.61
593.41	44456.14
593.57	44430.39
593.73	44746.36
593.89	44580.18
594.05	44542.74
594.20	44428.05
594.36	45013.18
594.52	44580.18
594.68	44509.97
594.84	44985.10
594.99	45406.39
595.15	44821.26
595.31	44746.36
595.47	44865.73
595.62	44666.78
595.78	44282.94
595.94	45282.34
596.10	44926.58
596.25	45324.47
596.41	45090.42
596.57	44542.74
596.73	45310.43
596.88	44109.74
597.04	44865.73
597.20	45017.86
597.36	45425.12
597.51	45333.84
597.67	45095.10
597.83	44861.05
597.99	44975.73
598.14	45397.03
598.30	44996.80
598.46	44430.39
598.61	44830.62
598.77	44516.99
598.93	45010.84
599.09	44538.05
599.24	44999.14
599.40	45148.93
599.56	44971.05
599.71	45268.30
599.87	44797.85
600.03	44961.69
600.18	44821.26
600.34	44879.77
600.50	44931.26
600.65	44959.35
600.81	45088.08
600.97	44839.98
601.12	44797.85
601.28	45024.89
601.44	44802.53
601.59	45134.89
601.75	44390.60
601.91	44734.66
602.06	44589.55
602.22	44676.15
602.37	44559.12
602.53	44905.52
602.69	44823.60
602.84	44657.42
603.00	44762.75
603.16	44671.46
603.31	44940.63
603.47	44720.62
603.62	44917.22
603.78	44844.66
603.94	45153.62
604.09	44842.32
604.25	44940.63
604.40	44549.76
604.56	44397.62
604.71	44502.95
604.87	44610.61
605.03	44516.99
605.18	44776.79
605.34	44605.93
605.49	44692.53
605.65	44978.07
605.80	44509.97
605.96	44666.78
606.12	44360.17
606.27	44889.13
606.43	44392.94
606.58	44758.06
606.74	44655.08
606.89	44758.06
607.05	44512.31
607.20	44608.27
607.36	44491.24
607.51	44708.91
607.67	44266.55
607.82	44802.53
607.98	44268.89
608.13	44816.58
608.29	44128.46
608.44	44247.83
608.60	43948.24
608.75	44626.99
608.91	44369.54
609.06	44399.96
609.22	44706.57
609.37	44266.55
609.53	44631.68
609.68	44786.15
609.84	44397.62
609.99	44591.89
610.15	44357.83
610.30	44308.68
610.46	44144.84
610.61	44215.06
610.76	44250.17
610.92	44816.58
611.07	44318.04
611.23	43945.90
611.38	44301.66
611.54	43517.58
611.69	44224.42
611.84	44062.93
612.00	44013.77
612.15	44095.69
612.31	44168.25
612.46	44212.72
612.62	44617.63
612.77	43775.04
612.92	44205.70
613.08	44083.99
613.23	43966.96
613.39	44158.89
613.54	43576.09
613.69	44051.22
613.85	44105.06
614.00	44301.66
614.15	44350.81
614.31	44198.68
614.46	44240.81
614.62	44158.89
614.77	43751.63
614.92	43903.77
615.08	43435.66
615.23	43636.95
615.38	43999.73
615.54	43688.44
615.69	43772.70
615.84	43178.20
616.00	43849.94
616.15	43938.88
616.30	43540.99
616.46	43430.98
616.61	43311.61
616.76	43597.16
616.92	43276.51
617.07	43349.06
617.22	43622.90
617.37	43061.18
617.53	43161.82
617.68	43393.53
617.83	43365.45
617.99	43978.67
618.14	43611.20
618.29	43550.35
618.45	43047.13
618.60	43253.10
618.75	43276.51
618.90	43339.70
619.06	43622.90
619.21	43091.60
619.36	43365.45
619.51	42880.95
619.67	43110.33
619.82	43281.19
619.97	43370.13
620.12	42656.26
620.28	42553.28
620.43	42820.10
620.58	43021.39
620.73	43164.16
620.89	42759.25
621.04	43002.66
621.19	43023.73
621.34	42855.21
621.49	42590.73
621.65	42955.85
621.80	42740.52
621.95	42349.65
622.10	42637.54
622.25	42745.20
622.41	42667.97
622.56	42756.91
622.71	42719.46
622.86	43035.43
623.01	42693.71
623.16	42719.46
623.32	42869.25
623.47	42602.43
623.62	42391.78
623.77	42831.80
623.92	42232.63
624.07	42536.90
624.23	42265.39
624.38	42258.37
624.53	42454.98
624.68	42506.47
624.83	42710.10
624.98	42225.60
625.13	42445.62
625.29	42693.71
625.44	42267.73
625.59	42307.52
625.74	41841.76
625.89	41778.56
626.04	42014.96
626.19	42110.92
626.34	42256.03
626.49	41956.44
626.65	42267.73
626.80	42103.90
626.95	41888.57
627.10	41577.28
627.25	41495.36
627.40	41439.18
627.55	41294.07
627.70	41172.36
627.85	41874.52
628.00	41701.32
628.15	41598.34
628.30	41378.33
628.45	42017.30
628.60	41375.99
628.76	41591.32
628.91	41511.74
629.06	41450.89
629.21	41383.01
629.36	41574.94
629.51	41464.93
629.66	41305.77
629.81	41130.23
629.96	41237.90
630.11	41577.28
630.26	41457.91
630.41	41717.71
630.56	41038.95
630.71	41359.61
630.86	41361.95
631.01	41024.91
631.16	41146.62
631.31	40673.83
631.46	40746.39
631.61	40573.19
631.76	41151.30
631.91	41144.28
632.06	41188.75
632.21	41691.96
632.36	41212.15
632.51	40898.52
632.66	41038.95
632.81	40896.18
632.96	40832.99
633.10	40779.15
633.25	40573.19
633.40	40842.35
633.55	41329.18
633.70	40989.80
633.85	40673.83
634.00	40575.53
634.15	40369.56
634.30	40615.32
634.45	41001.50
634.60	40758.09
634.75	40641.06
634.90	40353.18
635.05	40849.37
635.19	40608.29
635.34	41319.82
635.49	40552.12
635.64	40102.74
635.79	40275.94
635.94	40062.95
636.09	40643.40
636.24	40287.64
636.39	40121.46
636.53	40069.97
636.68	39854.64
636.83	40467.86
636.98	40112.10
637.13	39966.99
637.28	39985.71
637.43	40243.17
637.57	40325.09
637.72	40105.08
637.87	39971.67
638.02	40203.38
638.17	40168.27
638.32	40025.50
638.46	39943.58
638.61	40006.78
638.76	39878.05
638.91	39515.26
639.06	39613.57
639.20	39826.56
639.35	39814.85
639.50	40076.99
639.65	39880.39
639.80	39826.56
639.94	39681.44
640.09	39562.08
640.24	39473.13
640.39	39494.20
640.54	39728.25
640.68	39433.35
640.83	39491.86
640.98	39686.12
641.13	39828.90
641.27	40004.44
641.42	39751.66
641.57	39906.13
641.72	39002.69
641.86	38731.18
642.01	38721.82
642.16	39363.13
642.31	38321.59
642.45	39129.08
642.60	38609.48
642.75	38862.26
642.90	39061.20
643.04	39103.33
643.19	39208.65
643.34	39175.89
643.48	39220.36
643.63	39206.31
643.78	39037.80
643.93	38780.34
644.07	38742.89
644.22	38909.07
644.37	38745.23
644.51	38747.57
644.66	38466.70
644.81	39206.31
644.95	39070.56
645.10	39178.23
645.25	38820.13
645.39	38852.89
645.54	38799.06
645.69	38885.66
645.83	38904.38
645.98	38902.04
646.13	39353.77
646.27	38579.05
646.42	38616.50
646.57	38565.01
646.71	38745.23
646.86	38766.29
647.00	38841.19
647.15	38504.15
647.30	38206.90
647.44	38536.92
647.59	38557.99
647.74	38270.10
647.88	38256.06
648.03	38305.21
648.17	38106.26
648.32	38504.15
648.47	38045.41
648.61	38377.76
648.76	38785.02
648.90	38183.50
649.05	38459.68
649.20	37963.49
649.34	38223.29
649.49	37813.70
649.63	38258.40
649.78	38270.10
649.92	37818.38
650.07	38361.38
650.21	38022.00
650.36	37935.40
650.51	37993.92
650.65	38370.74
650.80	38094.56
650.94	38483.09
651.09	38089.88
651.23	38014.98
651.38	37874.55
651.52	37687.31
651.67	37916.68
651.81	38047.75
651.96	37755.18
652.10	37483.68
652.25	37813.70
652.39	37479.00
652.54	37535.17
652.68	37715.39
652.83	37495.38
652.97	37923.70
653.12	37427.51
653.26	37689.65
653.41	37322.18
653.55	36935.99
653.70	37404.10
653.84	37738.80
653.99	37809.01
654.13	37720.07
654.27	37507.08
654.42	37471.98
654.56	37750.50
654.71	37280.05
654.85	37677.94
655.00	37453.25
655.14	37151.32
655.29	37085.79
655.43	37287.07
655.57	36734.71
655.72	36861.10
655.86	36861.10
656.01	36921.95
656.15	36697.26
656.30	36662.15
656.44	36861.10
656.58	36889.18
656.73	36776.84
656.87	37003.87
657.01	36390.65
657.16	36615.34
657.30	36542.78
657.45	36477.25
657.59	36603.64
657.73	36598.96
657.88	36430.44
658.02	36388.31
658.16	36737.05
658.31	36699.60
658.45	36615.34
658.60	36458.52
658.74	36336.82
658.88	36760.45
659.03	36290.01
659.17	36184.68
659.31	36055.95
659.46	36304.05
659.60	36077.02
659.74	36350.86
659.89	35971.69
660.03	35400.60
660.17	36158.94
660.32	35924.88
660.46	36479.59
660.60	36100.42
660.74	36116.81
660.89	36046.59
661.03	35777.43
661.17	35442.73
661.32	35501.25
661.46	35611.25
661.60	35278.89
661.74	35105.70
661.89	35690.83
662.03	35173.57
662.17	35534.01
662.31	35358.47
662.46	35562.10
662.60	35070.59
662.74	35058.88
662.88	35260.17
663.03	35105.70
663.17	35295.28
663.31	35330.39
663.45	35103.35
663.60	35264.85
663.74	34539.29
663.88	35086.97
664.02	34714.83
664.17	34991.01
664.31	34429.28
664.45	34366.09
664.59	34469.07
664.73	34754.61
664.88	34504.18
665.02	34157.78
665.16	34522.90
665.30	34696.10
665.44	34539.29
665.59	34061.82
665.73	34363.75
665.87	33935.43
666.01	34143.74
666.15	34064.16
666.29	34082.88
666.44	34628.23
666.58	34029.05
666.72	33954.15
666.86	33797.34
667.00	33865.21
667.14	33666.27
667.28	33696.69
667.43	33165.39
667.57	33425.19
667.71	33385.40
667.85	33787.97
667.99	33046.02
668.13	33125.60
668.27	33472.00
668.41	33193.48
668.56	33273.06
668.70	33303.48
668.84	33146.67
668.98	33329.23
669.12	33198.16
669.26	33256.67
669.40	33237.95
669.54	32903.25
669.68	32870.48
669.82	32861.12
669.96	32517.06
670.10	32591.96
670.25	32510.04
670.39	33076.45
670.53	31976.40
670.67	32301.73
670.81	32545.15
670.95	32818.99
671.09	32577.92
671.23	32315.78
671.37	32350.88
671.51	32327.48
671.65	32053.64
671.79	32128.53
671.93	31873.42
672.07	32116.83
672.21	31889.80
672.35	31686.17
672.49	31576.17
672.63	32070.02
672.77	31400.63
672.91	31496.59
673.05	31267.22
673.19	31218.07
673.33	31679.15
673.47	31281.26
673.61	31332.75
673.75	31131.47
673.89	30829.54
674.03	30522.93
674.17	30541.65
674.31	30576.76
674.45	30562.72
674.59	30817.83
674.73	30862.30
674.87	30799.11
675.01	30679.74
675.15	30375.47
675.29	30536.97
675.43	30567.40
675.56	30258.45
675.70	30520.59
675.84	30087.59
675.98	29088.18
676.12	29762.25
676.26	29926.09
676.40	29593.73
676.54	29476.71
676.68	29759.91
676.82	29336.27
676.96	29661.61
677.10	29165.42
677.23	29139.67
677.37	29326.91
677.51	29291.80
677.65	28922.00
677.79	28563.90
677.93	29249.67
678.07	28718.37
678.21	28767.52
678.34	28409.42
678.48	28156.64
678.62	28350.91
678.76	28346.23
678.90	28135.58
679.04	28184.73
679.18	27946.00
679.31	27686.20
679.45	27566.83
679.59	27447.46
679.73	27669.81
679.87	27676.83
680.00	27854.72
680.14	27550.45
680.28	27328.10
680.42	27171.28
680.56	27070.64
680.70	27077.66
680.83	26813.18
680.97	26733.60
681.11	27117.45
681.25	26595.51
681.39	26710.19
681.52	27154.90
681.66	26515.93
681.80	26649.34
681.94	26398.90
682.07	26359.11
682.21	26377.84
682.35	26045.48
682.49	26396.56
682.62	26113.36
682.76	26036.12
682.90	25898.03
683.04	26024.42
683.17	25673.34
683.31	25565.67
683.45	25778.66
683.59	25453.33
683.72	25170.12
683.86	25352.68
684.00	24893.94
684.13	25563.33
684.27	25123.31
684.41	24996.92
684.55	24961.81
684.68	24683.29
684.82	24531.15
684.96	24547.54
685.09	24694.99
685.23	24252.63
685.37	24505.41
685.50	24257.31
685.64	24198.80
685.78	24126.24
685.91	24079.43
686.05	23988.15
686.19	23616.01
686.32	23754.10
686.46	23625.37
686.60	23445.15
686.73	23529.41
686.87	23281.31
687.01	23461.53
687.14	23026.19
687.28	22977.04
687.42	22874.06
687.55	22906.82
687.69	22963.00
687.82	22731.28
687.96	22724.26
688.10	22501.91
688.23	22373.18
688.37	22157.85
688.50	22314.67
688.64	21994.01
688.78	22111.04
688.91	21860.60
689.05	21839.54
689.18	21874.65
689.32	21483.78
689.46	21813.79
689.59	21825.50
689.73	21769.32
689.86	21680.38
690.00	21465.05
690.13	21935.50
690.27	21612.51
690.41	21631.23
690.54	21170.15
690.68	21057.80
690.81	21146.74
690.95	20868.22
691.08	20959.50
691.22	20676.29
691.35	20748.85
691.49	20769.91
691.62	20746.51
691.76	20805.02
691.89	20304.15
692.03	20357.98
692.16	20325.21
692.30	20400.11
692.43	20226.91
692.57	20058.39
692.70	20109.88
692.84	19440.49
692.97	19868.81
693.11	19702.63
693.24	19410.06
693.38	19456.87
693.51	19417.08
693.65	19768.16
693.78	19304.74
693.92	19136.22
694.05	19009.83
694.19	19157.28
694.32	19044.94
694.45	18913.87
694.59	19119.84
694.72	18857.70
694.86	18780.46
694.99	18436.40
695.13	18429.38
695.26	18162.56
695.39	18104.04
695.53	18324.05
695.66	18221.07
695.80	18043.19
695.93	18164.90
696.07	17947.23
696.20	18361.50
696.33	17743.60
696.47	17799.77
696.60	17802.11
696.73	17649.98
696.87	17612.53
697.00	17668.70
697.14	17631.26
697.27	17291.88
697.40	17476.78
697.54	17420.61
697.67	17266.13
697.80	17200.60
697.94	17006.33
698.07	17032.08
698.21	16933.78
698.34	17020.38
698.47	16706.74
698.61	16514.82
698.74	16475.03
698.87	16133.31
699.01	16262.04
699.14	16468.01
699.27	16189.49
699.40	16116.93
699.54	16161.40
699.67	16016.29
699.80	16013.95
699.94	15817.34
700.07	15843.09
700.20	15578.61
700.34	15599.67
700.47	15667.55
700.60	15583.29
700.73	15740.10
700.87	15372.64
701.00	15344.55
701.13	15538.82
701.26	15269.66
701.40	15515.41
701.53	15248.59
701.66	15180.71
701.79	15005.17
701.93	14857.72
702.06	14888.15
702.19	14871.76
702.32	14757.08
702.46	14719.63
702.59	14754.74
702.72	14712.61
702.85	14827.29
702.99	15007.52
703.12	14808.57
703.25	14354.51
703.38	14492.60
703.51	14558.13
703.65	14239.82
703.78	14298.33
703.91	14331.10
704.04	13872.36
704.17	14015.13
704.31	13865.33
704.44	13568.09
704.57	13675.75
704.70	13357.44
704.83	13589.15
704.96	13586.81
705.10	13212.32
705.23	13734.26
>>>>>End Processed Spectral Data<<<<<
