SpectraSuite Data File
++++++++++++++++++++++++++++++++++++
Date: Fri Oct 25 10:43:54 EDT 2013
User: price-jones
Dark Spectrum Present: No
Reference Spectrum Present: No
Number of Sampled Component Spectra: 1
Spectrometers: USB2+H05261
Integration Time (usec): 100000 (USB2+H05261)
Spectra Averaged: 1 (USB2+H05261)
Boxcar Smoothing: 0 (USB2+H05261)
Correct for Electrical Dark: No (USB2+H05261)
Strobe/Lamp Enabled: No (USB2+H05261)
Correct for Detector Non-linearity: No (USB2+H05261)
Correct for Stray Light: No (USB2+H05261)
Number of Pixels in Processed Spectrum: 2048
>>>>>Begin Processed Spectral Data<<<<<
365.73	128.73
365.92	128.73
366.12	128.73
366.32	0.00
366.52	0.00
366.72	49.15
366.91	0.00
367.11	0.00
367.31	0.00
367.51	4.68
367.70	2.34
367.90	25.75
368.10	2.34
368.30	53.83
368.49	0.00
368.69	37.45
368.89	0.00
369.09	16.38
369.28	102.98
369.48	72.56
369.68	0.00
369.87	65.54
370.07	105.32
370.27	93.62
370.47	238.73
370.66	437.68
370.86	409.59
371.06	496.19
371.25	573.43
371.45	430.66
371.65	498.53
371.84	528.96
372.04	533.64
372.24	543.00
372.44	503.22
372.63	484.49
372.83	557.05
373.03	510.24
373.22	433.00
373.42	454.06
373.62	545.34
373.81	660.03
374.01	566.41
374.21	564.07
374.40	573.43
374.60	603.86
374.79	589.82
374.99	610.88
375.19	594.50
375.38	594.50
375.58	564.07
375.78	554.71
375.97	535.98
376.17	660.03
376.37	655.35
376.56	662.37
376.76	650.67
376.95	657.69
377.15	634.29
377.35	568.75
377.54	695.14
377.74	643.65
377.93	674.07
378.13	638.97
378.33	711.52
378.52	655.35
378.72	760.67
378.91	631.94
379.11	641.31
379.31	582.79
379.50	648.33
379.70	727.91
379.89	779.40
380.09	674.07
380.28	681.10
380.48	734.93
380.68	713.86
380.87	692.80
381.07	758.33
381.26	732.59
381.46	772.38
381.65	737.27
381.85	753.65
382.04	755.99
382.24	660.03
382.43	681.10
382.63	660.03
382.83	716.20
383.02	781.74
383.22	812.17
383.41	767.70
383.61	779.40
383.80	732.59
384.00	777.06
384.19	727.91
384.39	779.40
384.58	849.61
384.78	816.85
384.97	856.64
385.17	856.64
385.36	861.32
385.56	781.74
385.75	748.97
385.95	896.43
386.14	875.36
386.34	880.04
386.53	812.17
386.72	898.77
386.92	866.00
387.11	994.73
387.31	870.68
387.50	896.43
387.70	875.36
387.89	922.17
388.09	833.23
388.28	936.21
388.48	924.51
388.67	1001.75
388.86	936.21
389.06	997.07
389.25	1095.37
389.45	1036.86
389.64	1004.09
389.84	1001.75
390.03	976.00
390.22	1015.79
390.42	1093.03
390.61	1071.97
390.81	1146.86
391.00	1128.14
391.19	1259.21
391.39	1062.60
391.58	1123.46
391.78	1114.10
391.97	1130.48
392.16	1118.78
392.36	1205.38
392.55	1057.92
392.75	1004.09
392.94	1060.26
393.13	938.55
393.33	1041.54
393.52	1086.01
393.71	1158.57
393.91	1188.99
394.10	1125.80
394.29	1263.89
394.49	1193.67
394.68	1238.14
394.88	1242.82
395.07	1345.81
395.26	1247.51
395.46	1186.65
395.65	1320.06
395.84	1224.10
396.04	1371.55
396.23	1118.78
396.42	1235.80
396.62	1149.20
396.81	1249.85
397.00	1303.68
397.19	1392.62
397.39	1378.58
397.58	1439.43
397.77	1409.00
397.97	1511.99
398.16	1554.12
398.35	1542.41
398.55	1502.62
398.74	1523.69
398.93	1636.03
399.12	1593.90
399.32	1547.09
399.51	1528.37
399.70	1696.89
399.90	1715.61
400.09	1750.72
400.28	1736.68
400.47	1668.80
400.67	1668.80
400.86	1661.78
401.05	1736.68
401.24	1818.60
401.44	1888.81
401.63	1867.75
401.82	1865.41
402.01	1886.47
402.21	1839.66
402.40	1839.66
402.59	1853.70
402.78	1942.64
402.97	1792.85
403.17	1996.48
403.36	1863.07
403.55	1949.67
403.74	1961.37
403.93	1921.58
404.13	1935.62
404.32	1966.05
404.51	1907.54
404.70	2043.29
404.89	1994.14
405.09	2120.53
405.28	2165.00
405.47	2092.44
405.66	2022.22
405.85	2186.06
406.05	2120.53
406.24	2059.67
406.43	2118.18
406.62	2094.78
406.81	2167.34
407.00	2176.70
407.20	2090.10
407.39	2169.68
407.58	2422.45
407.77	2265.64
407.96	2373.30
408.15	2291.38
408.34	2317.13
408.54	2525.44
408.73	2392.03
408.92	2462.24
409.11	2375.64
409.30	2434.16
409.49	2377.98
409.68	2431.82
409.87	2401.39
410.07	2473.95
410.26	2448.20
410.45	2487.99
410.64	2555.86
410.83	2562.89
411.02	2642.46
411.21	2605.02
411.40	2679.91
411.59	2698.64
411.78	2771.19
411.98	2799.28
412.17	2876.52
412.36	2883.54
412.55	2878.86
412.74	2890.56
412.93	2946.73
413.12	2832.05
413.31	2977.16
413.50	2972.48
413.69	3038.02
413.88	2988.86
414.07	2995.89
414.26	3183.13
414.45	3192.49
414.64	3115.25
414.83	3157.38
415.02	3213.56
415.22	3346.97
415.41	3321.22
415.60	3248.66
415.79	3304.84
415.98	3307.18
416.17	3487.40
416.36	3328.24
416.55	3314.20
416.74	3475.70
416.93	3419.52
417.12	3426.54
417.31	3508.46
417.50	3328.24
417.69	3583.36
417.88	3538.89
418.07	3644.21
418.26	3672.30
418.45	3721.45
418.64	3824.44
418.83	3836.14
419.02	3716.77
419.21	3801.03
419.39	3728.47
419.58	3693.37
419.77	3625.49
419.96	3861.88
420.15	3782.31
420.34	3892.31
420.53	3941.46
420.72	4114.66
420.91	4011.68
421.10	3953.16
421.29	4053.81
421.48	3976.57
421.67	4009.34
421.86	3838.48
422.05	3941.46
422.24	3857.20
422.43	4053.81
422.61	3943.80
422.80	4077.21
422.99	4135.73
423.18	4173.18
423.37	4145.09
423.56	4161.47
423.75	4152.11
423.94	4028.06
424.13	3749.54
424.32	3960.19
424.50	4133.39
424.69	4014.02
424.88	4063.17
425.07	4264.46
425.26	4042.11
425.45	4229.35
425.64	4095.94
425.83	3971.89
426.01	4117.00
426.20	4147.43
426.39	4142.75
426.58	4124.02
426.77	4135.73
426.96	4058.49
427.15	4131.05
427.33	4217.65
427.52	4114.66
427.71	4215.30
427.90	4269.14
428.09	4390.84
428.28	4224.67
428.46	4353.40
428.65	4388.50
428.84	4428.29
429.03	4395.53
429.22	4416.59
429.40	4358.08
429.59	4393.19
429.78	4023.38
429.97	4065.51
430.16	4114.66
430.34	4177.86
430.53	4421.27
430.72	4231.69
430.91	4374.46
431.10	4547.66
431.28	4755.97
431.47	4777.03
431.66	4739.58
431.85	4711.50
432.03	4840.23
432.22	4975.98
432.41	4718.52
432.60	4842.57
432.79	4936.19
432.97	4929.17
433.16	4922.15
433.35	5055.56
433.54	4870.65
433.72	4779.37
433.91	4809.80
434.10	4975.98
434.28	5043.85
434.47	4945.55
434.66	5109.39
434.85	5067.26
435.03	5083.64
435.22	5224.08
435.41	5315.36
435.59	5366.85
435.78	5310.68
435.97	5289.61
436.16	5493.24
436.34	5263.86
436.53	5430.04
436.72	5593.88
436.90	5294.29
437.09	5380.89
437.28	5369.19
437.46	5305.99
437.65	5425.36
437.84	5416.00
438.02	5408.98
438.21	5530.69
438.40	5469.83
438.58	5572.82
438.77	5570.48
438.96	5710.91
439.14	5813.89
439.33	5708.57
439.52	6012.84
439.70	5734.31
439.89	5830.27
440.08	5809.21
440.26	6064.33
440.45	5951.98
440.63	5914.53
440.82	6157.95
441.01	6179.01
441.19	6209.44
441.38	6377.96
441.57	6377.96
441.75	6380.30
441.94	6527.75
442.12	6726.70
442.31	6548.82
442.50	6682.23
442.68	6523.07
442.87	6567.54
443.05	6408.39
443.24	6829.68
443.43	6658.82
443.61	6820.32
443.80	7007.56
443.98	6689.25
444.17	6445.84
444.35	6822.66
444.54	6918.62
444.73	6897.56
444.91	6834.36
445.10	6740.74
445.28	6710.32
445.47	6679.89
445.65	6766.49
445.84	6724.36
446.02	6874.15
446.21	6792.23
446.39	6895.22
446.58	6977.14
446.77	6801.60
446.95	6890.54
447.14	7016.93
447.32	7042.67
447.51	6927.99
447.69	7019.27
447.88	6878.83
448.06	6803.94
448.25	6988.84
448.43	7012.24
448.62	7033.31
448.80	7152.68
448.99	7213.53
449.17	7143.32
449.36	7084.80
449.54	7206.51
449.73	7414.82
449.91	7382.05
450.10	7386.73
450.28	7590.36
450.46	7473.33
450.65	7501.42
450.83	7700.36
451.02	7452.27
451.20	7470.99
451.39	7616.10
451.57	7597.38
451.76	7494.40
451.94	7569.29
452.13	7683.98
452.31	7606.74
452.49	7384.39
452.68	7714.41
452.86	7475.67
453.05	7658.23
453.23	7595.04
453.42	7573.97
453.60	7728.45
453.78	7777.60
453.97	7641.85
454.15	7651.21
454.34	7782.28
454.52	7932.08
454.70	7712.07
454.89	7786.96
455.07	7815.05
455.26	8060.80
455.44	8114.64
455.62	8100.59
455.81	8035.06
455.99	8250.39
456.17	8107.62
456.36	8243.37
456.54	8299.54
456.73	8395.50
456.91	8437.63
457.09	8346.35
457.28	8734.88
457.46	8386.14
457.64	8362.73
457.83	8519.55
458.01	8439.97
458.19	8608.49
458.38	8446.99
458.56	8526.57
458.74	8592.11
458.93	8493.80
459.11	8713.81
459.29	8669.34
459.48	8554.66
459.66	8615.51
459.84	8664.66
460.03	8957.23
460.21	8898.72
460.39	8978.30
460.57	8791.05
460.76	9104.68
460.94	9177.24
461.12	8931.48
461.31	9046.17
461.49	9046.17
461.67	8812.12
461.85	9362.14
462.04	9298.95
462.22	9390.23
462.40	9266.18
462.59	9245.12
462.77	9394.91
462.95	9195.96
463.13	9254.48
463.32	9238.09
463.50	9446.40
463.68	9474.49
463.86	9514.28
464.05	9202.99
464.23	9090.64
464.41	9430.02
464.59	9380.87
464.78	9657.05
464.96	9502.58
465.14	9444.06
465.32	9738.97
465.50	9593.86
465.69	9647.69
465.87	9710.88
466.05	9430.02
466.23	9554.07
466.41	9460.45
466.60	9540.02
466.78	9467.47
466.96	9661.73
467.14	9748.33
467.32	9745.99
467.51	9720.24
467.69	9792.80
467.87	9795.14
468.05	10118.14
468.23	9909.83
468.41	9717.90
468.60	9755.35
468.78	10052.60
468.96	9806.84
469.14	10164.95
469.32	10310.06
469.50	10059.62
469.69	10253.89
469.87	10214.10
470.05	10209.42
470.23	10221.12
470.41	10218.78
470.59	10272.61
470.77	10197.71
470.95	10406.02
471.14	10480.92
471.32	10324.10
471.50	10785.19
471.68	10824.98
471.86	10927.96
472.04	10864.77
472.22	10862.43
472.40	10906.90
472.58	10780.51
472.77	10953.71
472.95	10995.84
473.13	11056.69
473.31	10867.11
473.49	11054.35
473.67	11190.10
473.85	11178.40
474.03	11709.70
474.21	11276.70
474.39	11475.65
474.57	11538.84
474.75	11590.33
474.93	11873.54
475.12	11812.68
475.30	11866.52
475.48	11772.89
475.66	11815.02
475.84	11960.14
476.02	11800.98
476.20	11903.96
476.38	12140.36
476.56	12346.33
476.74	12205.89
476.92	12217.60
477.10	12372.07
477.28	12594.42
477.46	12578.04
477.64	12802.73
477.82	12996.99
478.00	13165.51
478.18	13153.81
478.36	12966.57
478.54	13238.07
478.72	13366.80
478.90	13383.18
479.08	13680.43
479.26	13722.56
479.44	13614.90
479.62	13741.29
479.80	14097.05
479.98	14251.52
480.16	14398.98
480.34	14108.75
480.52	14366.21
480.70	14508.98
480.88	14265.57
481.06	14366.21
481.24	14675.16
481.41	14787.50
481.59	15005.17
481.77	15016.88
481.95	15082.41
482.13	14979.43
482.31	15133.90
482.49	15625.42
482.67	15414.77
482.85	15578.61
483.03	15852.45
483.21	15803.30
483.39	16002.24
483.57	15800.96
483.74	16339.28
483.92	16329.92
484.10	16128.63
484.28	16505.46
484.46	16606.10
484.64	17006.33
484.82	16858.88
485.00	16987.61
485.18	16950.16
485.35	17137.40
485.53	16872.92
485.71	16601.42
485.89	17135.06
486.07	17048.46
486.25	17298.90
486.43	17621.89
486.61	17713.17
486.78	18237.45
486.96	17909.78
487.14	18204.69
487.32	18391.93
487.50	18965.36
487.68	18845.99
487.85	19021.53
488.03	19192.39
488.21	19269.63
488.39	19396.02
488.57	19524.75
488.75	19597.31
488.92	19784.55
489.10	20308.83
489.28	20112.22
489.46	20517.14
489.64	20341.60
489.81	21062.48
489.99	21069.50
490.17	21198.23
490.35	21130.36
490.53	21167.80
490.70	21062.48
490.88	21551.65
491.06	21336.32
491.24	21406.54
491.41	21673.36
491.59	21727.19
491.77	21607.83
491.95	22141.47
492.13	22319.35
492.30	22270.20
492.48	22373.18
492.66	22883.42
492.84	22508.93
493.01	22988.74
493.19	22717.24
493.37	23164.28
493.54	22944.27
493.72	23674.52
493.90	23227.48
494.08	23550.47
494.25	24212.84
494.43	24086.45
494.61	24376.68
494.79	24547.54
494.96	24346.25
495.14	24627.12
495.32	24713.72
495.49	25113.95
495.67	24856.49
495.85	25235.66
496.02	25331.62
496.20	25113.95
496.38	25046.07
496.55	25521.20
496.73	26078.25
496.91	25881.64
497.09	25879.30
497.26	25827.81
497.44	25893.35
497.62	26209.32
497.79	26342.73
497.97	26019.74
498.14	26616.57
498.32	26682.11
498.50	26522.95
498.67	27161.92
498.85	26876.37
499.03	27267.24
499.20	27227.45
499.38	27440.44
499.56	27201.71
499.73	27255.54
499.91	27426.40
500.08	27470.87
500.26	27175.96
500.44	27960.04
500.61	27721.30
500.79	27922.59
500.97	27639.39
501.14	28261.97
501.32	27960.04
501.49	28257.29
501.67	27838.33
501.84	28327.50
502.02	29099.88
502.20	28315.80
502.37	29099.88
502.55	28795.61
502.72	28865.83
502.90	28847.10
503.07	28760.50
503.25	28826.04
503.43	28882.21
503.60	29144.35
503.78	29193.50
503.95	29050.73
504.13	29373.72
504.30	29680.33
504.48	29596.07
504.65	29898.00
504.83	29722.46
505.01	30125.04
505.18	29879.28
505.36	30555.69
505.53	30426.96
505.71	30532.29
505.88	30558.03
506.06	30473.78
506.23	30464.41
506.41	30932.52
506.58	30485.48
506.76	30700.81
506.93	31145.51
507.11	30927.84
507.28	31204.02
507.46	31009.76
507.63	31400.63
507.81	31091.68
507.98	30965.29
508.16	31763.41
508.33	31295.30
508.50	32039.59
508.68	31962.36
508.85	32453.87
509.03	31908.52
509.20	32112.15
509.38	32027.89
509.55	32006.83
509.73	32283.01
509.90	32353.23
510.08	32442.17
510.25	32554.51
510.42	32617.71
510.60	32840.06
510.77	32505.36
510.95	33099.86
511.12	32849.42
511.30	33001.55
511.47	33710.74
511.64	33242.63
511.82	33415.83
511.99	32978.15
512.17	33521.15
512.34	33514.13
512.51	33902.66
512.69	33677.97
512.86	33989.26
513.04	34082.88
513.21	34061.82
513.38	33804.36
513.56	34071.18
513.73	33741.16
513.90	33970.54
514.08	34384.81
514.25	33846.49
514.43	34153.10
514.60	34113.31
514.77	34277.15
514.95	34632.91
515.12	34522.90
515.29	35028.46
515.47	35531.67
515.64	35360.81
515.81	35065.91
515.99	35208.68
516.16	34719.51
516.33	34569.71
516.51	34810.79
516.68	34412.90
516.85	34415.24
517.03	34756.96
517.20	35234.42
517.37	35674.45
517.54	35164.21
517.72	34815.47
517.89	34543.97
518.06	34749.93
518.24	35187.61
518.41	35395.92
518.58	35709.55
518.75	35955.31
518.93	35950.63
519.10	35688.49
519.27	35995.10
519.45	35924.88
519.62	36470.23
519.79	36814.29
519.96	36290.01
520.14	36711.30
520.31	36765.14
520.48	36715.98
520.65	36376.61
520.83	37240.26
521.00	37095.15
521.17	37221.54
521.34	37467.30
521.52	37422.83
521.69	37432.19
521.86	37254.31
522.03	37354.95
522.20	37940.08
522.38	37156.00
522.55	37483.68
522.72	37195.79
522.89	37450.91
523.07	37596.03
523.24	37628.79
523.41	38007.96
523.58	37904.98
523.75	38469.04
523.92	38452.66
524.10	38300.53
524.27	38703.10
524.44	38270.10
524.61	38202.22
524.78	38693.74
524.96	38820.13
525.13	38595.43
525.30	38824.81
525.47	39124.40
525.64	38810.76
525.81	38569.69
525.98	38347.34
526.16	38845.87
526.33	38583.73
526.50	38611.82
526.67	38169.46
526.84	38660.97
527.01	38256.06
527.18	38651.61
527.36	39496.54
527.53	39065.88
527.70	40065.29
527.87	39421.64
528.04	39426.32
528.21	39704.85
528.38	39903.79
528.55	39927.20
528.72	40229.13
528.89	39943.58
529.07	39796.13
529.24	39878.05
529.41	39861.66
529.58	39601.86
529.75	40046.57
529.92	40027.84
530.09	40371.90
530.26	40416.37
530.43	40840.01
530.60	40121.46
530.77	40531.06
530.94	40615.32
531.11	40449.14
531.28	40580.21
531.46	40830.65
531.63	41216.83
531.80	41010.87
531.97	40418.71
532.14	40769.79
532.31	40467.86
532.48	40435.10
532.65	40863.41
532.82	40718.30
532.99	41081.08
533.16	40676.17
533.33	41214.49
533.50	40952.35
533.67	40479.57
533.84	41078.74
534.01	41064.70
534.18	41013.21
534.35	41270.67
534.52	41256.62
534.69	41043.63
534.86	41216.83
535.03	41242.58
535.20	42124.96
535.37	42057.09
535.54	42129.64
535.71	41764.52
535.88	41720.05
536.05	41483.66
536.22	42038.36
536.38	42174.11
536.55	41773.88
536.72	41621.75
536.89	41720.05
537.06	41698.98
537.23	42515.83
537.40	42653.92
537.57	42665.63
537.74	42426.89
537.91	42415.19
538.08	42038.36
538.25	42120.28
538.42	42366.04
538.59	42344.97
538.75	42227.95
538.92	42672.65
539.09	42213.90
539.26	42300.50
539.43	42485.40
539.60	42094.53
539.77	42501.79
539.94	42316.89
540.11	42450.30
540.28	42817.76
540.44	42747.54
540.61	42777.97
540.78	42562.64
540.95	42649.24
541.12	42513.49
541.29	42885.64
541.46	42855.21
541.62	43068.20
541.79	42871.59
541.96	42876.27
542.13	43005.00
542.30	43335.02
542.47	43196.93
542.63	43395.87
542.80	43133.73
542.97	43562.05
543.14	43737.59
543.31	44179.95
543.48	43917.81
543.64	43732.91
543.81	43964.62
543.98	44044.20
544.15	43838.23
544.32	43810.15
544.48	44395.28
544.65	44069.95
544.82	44229.10
544.99	43377.15
545.16	44002.07
545.32	44032.50
545.49	44568.48
545.66	44509.97
545.83	44353.15
546.00	44477.20
546.16	44142.50
546.33	44130.80
546.50	43765.68
546.67	44355.49
546.83	43934.20
547.00	44322.72
547.17	44126.12
547.34	44257.19
547.50	44559.12
547.67	44491.24
547.84	44570.82
548.00	44849.35
548.17	44886.79
548.34	44917.22
548.51	44535.71
548.67	44872.75
548.84	44877.43
549.01	44720.62
549.18	44769.77
549.34	44634.02
549.51	45050.63
549.68	45085.74
549.84	45137.23
550.01	44636.36
550.18	44926.58
550.34	44847.00
550.51	45347.88
550.68	44954.67
550.84	44495.92
551.01	45127.87
551.18	45167.66
551.34	45216.81
551.51	45631.08
551.68	45429.80
551.84	45008.50
552.01	45600.66
552.18	45209.79
552.34	45408.73
552.51	45460.23
552.68	45722.37
552.84	45294.05
553.01	45455.54
553.18	45577.25
553.34	45617.04
553.51	45408.73
553.67	45570.23
553.84	46131.96
554.01	45799.60
554.17	46323.88
554.34	45965.78
554.51	45521.08
554.67	46000.89
554.84	45263.62
555.00	45521.08
555.17	45359.58
555.33	45638.11
555.50	45530.44
555.67	45542.14
555.83	45757.47
556.00	45984.51
556.16	45956.42
556.33	46136.64
556.50	45787.90
556.66	46021.95
556.83	46075.79
556.99	46192.81
557.16	45860.46
557.32	46232.60
557.49	46089.83
557.65	45748.11
557.82	45914.29
557.98	46171.75
558.15	46040.68
558.32	46302.82
558.48	45998.55
558.65	46059.40
558.81	45586.61
558.98	45921.31
559.14	46190.47
559.31	46124.94
559.47	46298.14
559.64	46197.49
559.80	46094.51
559.97	46440.91
560.13	46092.17
560.30	45991.53
560.46	46349.63
560.63	46534.53
560.79	46550.91
560.96	46380.06
561.12	46522.83
561.29	46218.56
561.45	46452.61
561.61	46461.97
561.78	46192.81
561.94	46309.84
562.11	46436.23
562.27	46307.50
562.44	46064.08
562.60	46827.10
562.77	47019.02
562.93	46639.86
563.10	46382.40
563.26	46167.07
563.42	46815.40
563.59	46230.26
563.75	46382.40
563.92	46344.95
564.08	46735.82
564.24	46780.29
564.41	46670.28
564.57	46969.87
564.74	46543.89
564.90	46719.43
565.07	47215.63
565.23	46791.99
565.39	46691.35
565.56	46454.95
565.72	46536.87
565.88	46644.54
566.05	46251.33
566.21	46394.10
566.38	46382.40
566.54	46553.26
566.70	46829.44
566.87	46983.91
567.03	47058.81
567.19	46756.88
567.36	47122.01
567.52	46698.37
567.68	46944.12
567.85	47107.96
568.01	47035.41
568.17	46674.96
568.34	47119.66
568.50	46841.14
568.66	46560.28
568.83	46925.40
568.99	46398.78
569.15	46532.19
569.32	46721.77
569.48	46288.77
569.64	47159.45
569.81	46501.76
569.97	46464.32
570.13	46710.07
570.30	46244.30
570.46	46344.95
570.62	46787.31
570.78	46447.93
570.95	46773.27
571.11	47002.64
571.27	46869.23
571.43	46859.87
571.60	46920.72
571.76	47004.98
571.92	47131.37
572.09	46742.84
572.25	46813.05
572.41	46986.25
572.57	47028.38
572.74	46932.42
572.90	46904.34
573.06	46918.38
573.22	46897.31
573.38	46824.76
573.55	46696.03
573.71	47288.18
573.87	47037.75
574.03	47150.09
574.20	47002.64
574.36	47189.88
574.52	46897.31
574.68	46955.83
574.84	46644.54
575.01	47042.43
575.17	46897.31
575.33	47002.64
575.49	46600.07
575.65	46681.98
575.82	47000.30
575.98	46454.95
576.14	47138.39
576.30	47091.58
576.46	46763.90
576.62	46930.08
576.79	47002.64
576.95	46791.99
577.11	46925.40
577.27	46974.55
577.43	46880.93
577.59	47056.47
577.75	46787.31
577.92	46906.68
578.08	46859.87
578.24	46923.06
578.40	47093.92
578.56	47040.09
578.72	47072.85
578.88	47061.15
579.04	47168.82
579.21	46850.50
579.37	47007.32
579.53	47159.45
579.69	46480.70
579.85	47002.64
580.01	47466.06
580.17	46939.44
580.33	46862.21
580.49	47042.43
580.65	47161.79
580.82	46850.50
580.98	47114.98
581.14	46979.23
581.30	47229.67
581.46	47489.47
581.62	47119.66
581.78	46791.99
581.94	47880.34
582.10	47421.59
582.26	46857.52
582.42	47367.76
582.58	47054.13
582.74	47021.36
582.90	47236.69
583.06	47529.26
583.22	47147.75
583.38	47349.04
583.54	47316.27
583.70	47327.97
583.86	47133.71
584.02	46810.71
584.18	47562.03
584.34	46789.65
584.50	47026.04
584.66	47065.83
584.82	47171.16
584.98	47023.70
585.14	47215.63
585.30	47173.50
585.46	47042.43
585.62	46710.07
585.78	46775.61
585.94	46398.78
586.10	46618.79
586.26	46948.81
586.42	47072.85
586.58	47065.83
586.74	47098.60
586.90	47140.73
587.06	47236.69
587.22	47597.13
587.38	46941.78
587.54	47391.17
587.70	47370.10
587.86	47145.41
588.02	46972.21
588.18	47239.03
588.34	46756.88
588.49	46277.07
588.65	46667.94
588.81	46436.23
588.97	46581.34
589.13	46340.27
589.29	46745.18
589.45	46653.90
589.61	47098.60
589.77	47260.10
589.93	47086.90
590.08	47040.09
590.24	47037.75
590.40	47070.51
590.56	47388.83
590.72	47519.90
590.88	46824.76
591.04	47271.80
591.20	47636.92
591.35	47388.83
591.51	47880.34
591.67	47480.11
591.83	47452.02
591.99	47009.66
592.15	47012.00
592.31	47459.04
592.46	47271.80
592.62	47283.50
592.78	47590.11
592.94	47356.06
593.10	46948.81
593.26	47334.99
593.41	47236.69
593.57	47182.86
593.73	47316.27
593.89	46878.59
594.05	47468.40
594.20	47150.09
594.36	47203.92
594.52	47498.83
594.68	47072.85
594.84	47044.77
594.99	47224.99
595.15	46754.54
595.31	47306.91
595.47	47044.77
595.62	47194.56
595.78	46948.81
595.94	47271.80
596.10	47299.89
596.25	47320.95
596.41	47203.92
596.57	47140.73
596.73	47409.89
596.88	46939.44
597.04	47180.52
597.20	47150.09
597.36	47339.68
597.51	47367.76
597.67	47318.61
597.83	46990.94
597.99	47435.64
598.14	47112.64
598.30	47213.29
598.46	47035.41
598.61	47311.59
598.77	46731.14
598.93	46969.87
599.09	47435.64
599.24	47449.68
599.40	47421.59
599.56	47353.72
599.71	46850.50
599.87	47110.30
600.03	47194.56
600.18	47402.87
600.34	47318.61
600.50	47847.57
600.65	47093.92
600.81	47295.21
600.97	46918.38
601.12	47491.81
601.28	46686.67
601.44	47143.07
601.59	46747.52
601.75	46791.99
601.91	46911.36
602.06	47016.68
602.22	47201.58
602.37	46834.12
602.53	47061.15
602.69	47381.80
602.84	47012.00
603.00	47445.00
603.16	47220.31
603.31	47004.98
603.47	47164.14
603.62	47547.98
603.78	47016.68
603.94	47192.22
604.09	47372.44
604.25	46990.94
604.40	47210.95
604.56	47105.62
604.71	47423.93
604.87	46995.62
605.03	47180.52
605.18	47239.03
605.34	46656.24
605.49	46604.75
605.65	47044.77
605.80	47070.51
605.96	46937.10
606.12	47330.31
606.27	47213.29
606.43	46920.72
606.58	47061.15
606.74	46953.49
606.89	47004.98
607.05	47049.45
607.20	47122.01
607.36	46820.08
607.51	46939.44
607.67	46958.17
607.82	46995.62
607.98	46822.42
608.13	46810.71
608.29	46429.21
608.44	46700.71
608.60	46019.61
608.75	46667.94
608.91	46710.07
609.06	46990.94
609.22	46728.80
609.37	46368.35
609.53	46791.99
609.68	46684.33
609.84	46487.72
609.99	46536.87
610.15	46361.33
610.30	46377.72
610.46	46101.53
610.61	46295.80
610.76	46656.24
610.92	47051.79
611.07	46677.30
611.23	46171.75
611.38	46712.41
611.54	46218.56
611.69	46354.31
611.84	46028.98
612.00	46071.10
612.15	46384.74
612.31	46794.33
612.46	46256.01
612.62	46586.02
612.77	46146.00
612.92	46309.84
613.08	45876.84
613.23	46096.85
613.39	46366.01
613.54	45738.75
613.69	46270.05
613.85	46209.20
614.00	46281.75
614.15	46483.04
614.31	46085.15
614.46	46178.77
614.62	45841.73
614.77	46089.83
614.92	46218.56
615.08	45858.12
615.23	46150.68
615.38	45694.28
615.54	45652.15
615.69	46050.04
615.84	45600.66
616.00	45930.67
616.15	45469.59
616.30	45633.42
616.46	45382.99
616.61	45605.34
616.76	45689.60
616.92	45305.75
617.07	45371.28
617.22	45326.81
617.37	45303.41
617.53	46103.87
617.68	45598.32
617.83	45815.99
617.99	45694.28
618.14	45408.73
618.29	45214.47
618.45	44718.28
618.60	45303.41
618.75	45031.91
618.90	44811.90
619.06	45148.93
619.21	45595.98
619.36	45408.73
619.51	44945.31
619.67	45345.54
619.82	45345.54
619.97	45560.87
620.12	44680.83
620.28	44521.67
620.43	45275.32
620.58	44837.64
620.73	45233.19
620.89	45275.32
621.04	44964.03
621.19	44938.29
621.34	44795.51
621.49	44999.14
621.65	44650.40
621.80	45207.45
621.95	44474.86
622.10	44832.96
622.25	44528.69
622.41	44755.72
622.56	44458.48
622.71	45422.78
622.86	44264.21
623.01	44495.92
623.16	44566.14
623.32	44313.36
623.47	44800.19
623.62	44194.00
623.77	44397.62
623.92	44481.88
624.07	44655.08
624.23	44172.93
624.38	44322.72
624.53	44282.94
624.68	44807.22
624.83	44032.50
624.98	44177.61
625.13	43753.97
625.29	44154.21
625.44	43878.02
625.59	43704.82
625.74	43983.35
625.89	43697.80
626.04	43966.96
626.19	43746.95
626.34	43945.90
626.49	43880.36
626.65	43423.96
626.80	44076.97
626.95	43784.40
627.10	43587.80
627.25	43739.93
627.40	43672.06
627.55	43005.00
627.70	43241.40
627.85	43309.27
628.00	43414.60
628.15	43531.62
628.30	43346.72
628.45	43178.20
628.60	43358.42
628.76	43597.16
628.91	43196.93
629.06	42768.61
629.21	43295.23
629.36	42930.11
629.51	43250.76
629.66	43288.21
629.81	42962.87
629.96	42862.23
630.11	43721.21
630.26	43168.84
630.41	43126.71
630.56	42955.85
630.71	43232.04
630.86	43042.45
631.01	42937.13
631.16	42850.53
631.31	42747.54
631.46	42621.16
631.61	42548.60
631.76	42976.92
631.91	42705.41
632.06	42920.74
632.21	43040.11
632.36	43096.28
632.51	42408.17
632.66	42588.39
632.81	41979.85
632.96	42777.97
633.10	42382.42
633.25	43056.50
633.40	42986.28
633.55	42129.64
633.70	42866.91
633.85	42450.30
634.00	42555.62
634.15	42478.38
634.30	42230.29
634.45	42092.19
634.60	42220.92
634.75	42192.84
634.90	42492.43
635.05	42490.09
635.19	42153.05
635.34	42541.58
635.49	42068.79
635.64	42005.59
635.79	42148.37
635.94	41787.92
636.09	42024.32
636.24	41593.66
636.39	41666.22
636.53	41993.89
636.68	41874.52
636.83	42033.68
636.98	42054.75
637.13	41745.80
637.28	41811.33
637.43	42136.66
637.57	41890.91
637.72	41567.91
637.87	41776.22
638.02	42103.90
638.17	42150.71
638.32	41347.90
638.46	41944.74
638.61	41322.16
638.76	42019.64
638.91	42047.72
639.06	41684.94
639.20	41804.31
639.35	41827.71
639.50	41439.18
639.65	41579.62
639.80	41448.55
639.94	41219.17
640.09	41493.02
640.24	41270.67
640.39	41153.64
640.54	40872.78
640.68	41256.62
640.83	40992.14
640.98	41064.70
641.13	40828.30
641.27	41411.10
641.42	40942.99
641.57	41088.10
641.72	41006.19
641.86	40823.62
642.01	40509.99
642.16	40755.75
642.31	40538.08
642.45	41139.60
642.60	40706.60
642.75	40818.94
642.90	40542.76
643.04	40512.33
643.19	40699.58
643.34	40882.14
643.48	40790.86
643.63	40687.87
643.78	40676.17
643.93	40620.00
644.07	40863.41
644.22	40495.95
644.37	40135.51
644.51	40418.71
644.66	40229.13
644.81	40376.58
644.95	40456.16
645.10	40259.55
645.25	40713.62
645.39	40542.76
645.54	40360.20
645.69	39981.03
645.83	40044.23
645.98	40109.76
646.13	40163.59
646.27	40058.27
646.42	39789.11
646.57	39824.22
646.71	39686.12
646.86	39938.90
647.00	40465.52
647.15	39847.62
647.30	39772.72
647.44	39875.71
647.59	39978.69
647.74	39562.08
647.88	40109.76
648.03	39725.91
648.17	39962.31
648.32	39742.30
648.47	39990.39
648.61	39438.03
648.76	39526.97
648.90	39714.21
649.05	40217.43
649.20	39571.44
649.34	39461.43
649.49	39168.87
649.63	39215.68
649.78	39459.09
649.92	39304.62
650.07	39585.48
650.21	39337.38
650.36	39360.79
650.51	39409.94
650.65	40137.85
650.80	39744.64
650.94	39894.43
651.09	39367.81
651.23	39346.75
651.38	39655.70
651.52	39494.20
651.67	39009.71
651.81	38923.11
651.96	39075.24
652.10	38976.94
652.25	39185.25
652.39	39412.28
652.54	39220.36
652.68	39203.97
652.83	39225.04
652.97	39503.56
653.12	39058.86
653.26	38902.04
653.41	38759.27
653.55	38824.81
653.70	38775.66
653.84	38752.25
653.99	38787.36
654.13	38850.55
654.27	38639.90
654.42	38672.67
654.56	38438.62
654.71	38850.55
654.85	38574.37
655.00	38766.29
655.14	38403.51
655.29	38139.03
655.43	38291.16
655.57	38087.54
655.72	38068.81
655.86	37724.75
656.01	37729.44
656.15	37462.61
656.30	37504.74
656.44	37853.48
656.58	37642.84
656.73	38003.28
656.87	37895.61
657.01	38281.80
657.16	37792.63
657.30	37453.25
657.45	37441.55
657.59	37542.19
657.73	38031.36
657.88	38333.29
658.02	38277.12
658.16	38164.78
658.31	38036.05
658.45	38251.38
658.60	38143.71
658.74	38029.02
658.88	37621.77
659.03	37717.73
659.17	37434.53
659.31	37479.00
659.46	37514.11
659.60	37415.80
659.74	37661.56
659.89	37219.20
660.03	37247.29
660.17	37258.99
660.32	37296.44
660.46	37434.53
660.60	37233.24
660.74	37287.07
660.89	37298.78
661.03	36868.12
661.17	36999.19
661.32	36601.30
661.46	36975.78
661.60	37003.87
661.74	36863.44
661.89	36715.98
662.03	36830.67
662.17	36409.37
662.31	36687.90
662.46	36877.48
662.60	36830.67
662.74	36706.62
662.88	36624.70
663.03	36376.61
663.17	36774.50
663.31	36395.33
663.45	36339.16
663.60	36077.02
663.74	36467.89
663.88	36306.39
664.02	35929.56
664.17	35971.69
664.31	35634.66
664.45	35564.44
664.59	35728.28
664.73	35747.00
664.88	35456.78
665.02	35424.01
665.16	35552.74
665.30	35580.82
665.44	35332.73
665.59	35306.98
665.73	35309.32
665.87	34703.12
666.01	35501.25
666.15	35335.07
666.29	35407.62
666.44	35393.58
666.58	35395.92
666.72	35150.17
666.86	34855.26
667.00	34983.99
667.14	34672.70
667.28	35009.73
667.43	34981.65
667.57	35185.27
667.71	34778.02
667.85	34965.26
667.99	34623.54
668.13	34459.71
668.27	34827.17
668.41	35019.10
668.56	34483.11
668.70	34394.17
668.84	34651.63
668.98	33944.79
669.12	33809.04
669.26	33928.41
669.40	34354.38
669.54	33734.14
669.68	33961.17
669.82	33570.30
669.96	33621.80
670.10	33366.68
670.25	33411.15
670.39	33483.70
670.53	33661.58
670.67	33380.72
670.81	33439.23
670.95	33577.33
671.09	33331.57
671.23	33113.90
671.37	33282.42
671.51	33141.99
671.65	33177.09
671.79	32851.76
671.93	32900.91
672.07	33078.79
672.21	33390.08
672.35	32531.11
672.49	32907.93
672.63	33062.41
672.77	32907.93
672.91	32603.66
673.05	32278.33
673.19	32451.53
673.33	32189.39
673.47	32095.77
673.61	32311.10
673.75	31583.19
673.89	31915.54
674.03	31992.78
674.17	31866.39
674.31	31552.76
674.45	31592.55
674.59	31632.34
674.73	31983.42
674.87	31503.61
675.01	31517.65
675.15	31653.40
675.29	31299.98
675.43	31674.47
675.56	31328.07
675.70	30916.14
675.84	31035.50
675.98	30401.22
676.12	30824.86
676.26	31005.08
676.40	30714.85
676.54	30775.70
676.68	30710.17
676.82	30480.80
676.96	30307.60
677.10	30284.19
677.23	30377.81
677.37	30073.54
677.51	29921.41
677.65	30206.95
677.79	29797.36
677.93	29677.99
678.07	29446.28
678.21	29230.95
678.34	29036.69
678.48	29163.08
678.62	29467.34
678.76	28896.25
678.90	28701.99
679.04	28627.09
679.18	29060.09
679.31	28657.52
679.45	28500.70
679.59	28687.95
679.73	28535.81
679.87	28341.55
680.00	28458.57
680.14	27938.97
680.28	28086.43
680.42	28264.31
680.56	28198.77
680.70	28388.36
680.83	27910.89
680.97	27971.74
681.11	27564.49
681.25	27580.87
681.39	27740.03
681.52	27615.98
681.66	27225.11
681.80	27695.56
681.94	27475.55
682.07	27068.30
682.21	26951.27
682.35	27000.42
682.49	27161.92
682.62	26841.26
682.76	26579.12
682.90	26899.78
683.04	26595.51
683.17	26017.40
683.31	26300.60
683.45	26183.57
683.59	26082.93
683.72	26082.93
683.86	26197.62
684.00	26342.73
684.13	25954.20
684.27	25600.78
684.41	25867.60
684.55	25621.84
684.68	25429.92
684.82	25472.05
684.96	25216.93
685.09	25605.46
685.23	24891.60
685.37	25256.72
685.50	25158.42
685.64	25099.90
685.78	24844.79
685.91	24453.92
686.05	24449.24
686.19	24149.65
686.32	24315.83
686.46	23763.46
686.60	23564.51
686.73	23538.77
686.87	23510.68
687.01	23442.81
687.14	23618.35
687.28	23012.15
687.42	23431.10
687.55	23391.31
687.69	23557.49
687.82	23351.52
687.96	23274.29
688.10	23346.84
688.23	22750.01
688.37	23140.88
688.50	23000.44
688.64	23002.78
688.78	22628.30
688.91	22696.17
689.05	22609.58
689.18	22338.07
689.32	22349.78
689.46	22525.32
689.59	22647.02
689.73	22649.36
689.86	22097.00
690.00	22045.51
690.13	22221.05
690.27	22050.19
690.41	21869.97
690.54	21319.94
690.68	21511.86
690.81	21743.58
690.95	21586.76
691.08	21273.13
691.22	21448.67
691.35	21350.37
691.49	21472.07
691.62	21219.30
691.76	21106.95
691.89	21231.00
692.03	20830.77
692.16	20996.95
692.30	20493.73
692.43	20540.54
692.57	20594.37
692.70	20482.03
692.84	20079.46
692.97	20233.93
693.11	20056.05
693.24	19969.45
693.38	19955.41
693.51	19906.26
693.65	20276.06
693.78	19922.64
693.92	19819.66
694.05	19438.15
694.19	19721.35
694.32	19407.72
694.45	19510.71
694.59	19410.06
694.72	19391.34
694.86	19215.80
694.99	19068.34
695.13	19147.92
695.26	19051.96
695.39	18616.62
695.53	18946.64
695.66	19159.63
695.80	18707.90
695.93	18815.57
696.07	18640.03
696.20	18546.40
696.33	18675.13
696.47	18286.61
696.60	18370.86
696.73	18075.96
696.87	17895.74
697.00	17853.61
697.14	17841.90
697.27	17561.04
697.40	17898.08
697.54	17596.15
697.67	17539.97
697.80	17584.44
697.94	17247.41
698.07	17181.87
698.21	17137.40
698.34	17242.73
698.47	17486.14
698.61	16861.22
698.74	17069.53
698.87	17219.32
699.01	16655.25
699.14	16762.92
699.27	16365.03
699.40	16603.76
699.54	16390.77
699.67	16402.47
699.80	16489.07
699.94	16285.45
700.07	16332.26
700.20	16219.91
700.34	16133.31
700.47	16346.30
700.60	16304.17
700.73	16240.98
700.87	16149.70
701.00	15854.79
701.13	15686.27
701.26	15688.61
701.40	15503.71
701.53	15321.15
701.66	15328.17
701.79	14998.15
701.93	15286.04
702.06	14909.21
702.19	14960.70
702.32	14960.70
702.46	15042.62
702.59	15047.30
702.72	15108.16
702.85	14820.27
702.99	14782.82
703.12	14878.79
703.25	14780.48
703.38	14534.73
703.51	14413.02
703.65	14342.80
703.78	14356.85
703.91	14078.32
704.04	14136.84
704.17	14207.05
704.31	13872.36
704.44	14232.80
704.57	13947.25
704.70	13928.53
704.83	13692.13
704.96	13893.42
705.10	13802.14
705.23	14146.20
>>>>>End Processed Spectral Data<<<<<
