SpectraSuite Data File
++++++++++++++++++++++++++++++++++++
Date: Fri Oct 25 11:34:36 EDT 2013
User: price-jones
Dark Spectrum Present: No
Reference Spectrum Present: No
Number of Sampled Component Spectra: 1
Spectrometers: USB2+H05261
Integration Time (usec): 100000 (USB2+H05261)
Spectra Averaged: 1 (USB2+H05261)
Boxcar Smoothing: 0 (USB2+H05261)
Correct for Electrical Dark: No (USB2+H05261)
Strobe/Lamp Enabled: No (USB2+H05261)
Correct for Detector Non-linearity: No (USB2+H05261)
Correct for Stray Light: No (USB2+H05261)
Number of Pixels in Processed Spectrum: 2048
>>>>>Begin Processed Spectral Data<<<<<
365.73	278.52
365.92	278.52
366.12	278.52
366.32	159.16
366.52	128.73
366.72	234.05
366.91	203.63
367.11	196.60
367.31	163.84
367.51	222.35
367.70	184.90
367.90	283.20
368.10	180.22
368.30	222.35
368.49	154.48
368.69	180.22
368.89	194.26
369.09	173.20
369.28	208.31
369.48	208.31
369.68	201.29
369.87	217.67
370.07	255.12
370.27	330.02
370.47	353.42
370.66	423.64
370.86	503.22
371.06	545.34
371.25	540.66
371.45	568.75
371.65	479.81
371.84	517.26
372.04	510.24
372.24	571.09
372.44	512.58
372.63	589.82
372.83	650.67
373.03	493.85
373.22	559.39
373.42	592.16
373.62	587.47
373.81	592.16
374.01	697.48
374.21	629.60
374.40	568.75
374.60	608.54
374.79	622.58
374.99	620.24
375.19	636.63
375.38	685.78
375.58	760.67
375.78	711.52
375.97	657.69
376.17	819.19
376.37	645.99
376.56	624.92
376.76	709.18
376.95	650.67
377.15	725.57
377.35	657.69
377.54	676.41
377.74	713.86
377.93	697.48
378.13	676.41
378.33	704.50
378.52	713.86
378.72	716.20
378.91	711.52
379.11	629.60
379.31	748.97
379.50	692.80
379.70	786.42
379.89	702.16
380.09	791.10
380.28	744.29
380.48	676.41
380.68	744.29
380.87	711.52
381.07	692.80
381.26	753.65
381.46	716.20
381.65	767.70
381.85	741.95
382.04	732.59
382.24	723.23
382.43	758.33
382.63	755.99
382.83	720.88
383.02	786.42
383.22	765.36
383.41	763.01
383.61	751.31
383.80	763.01
384.00	772.38
384.19	777.06
384.39	866.00
384.58	734.93
384.78	812.17
384.97	777.06
385.17	777.06
385.36	781.74
385.56	833.23
385.75	882.38
385.95	854.30
386.14	812.17
386.34	772.38
386.53	828.55
386.72	842.59
386.92	840.25
387.11	866.00
387.31	849.61
387.50	809.83
387.70	763.01
387.89	894.08
388.09	847.27
388.28	786.42
388.48	842.59
388.67	1015.79
388.86	856.64
389.06	917.49
389.25	917.49
389.45	922.17
389.64	933.87
389.84	919.83
390.03	924.51
390.22	966.64
390.42	915.15
390.61	866.00
390.81	912.81
391.00	922.17
391.19	884.72
391.39	990.05
391.58	985.37
391.78	968.98
391.97	1032.18
392.16	1029.84
392.36	1025.15
392.55	1060.26
392.75	1039.20
392.94	1006.43
393.13	980.68
393.33	992.39
393.52	1027.50
393.71	1032.18
393.91	1001.75
394.10	1032.18
394.29	987.71
394.49	1036.86
394.68	1097.71
394.88	1067.28
395.07	1137.50
395.26	1160.91
395.46	1071.97
395.65	1104.73
395.84	1146.86
396.04	1186.65
396.23	1261.55
396.42	1172.61
396.62	1184.31
396.81	1158.57
397.00	1156.22
397.19	1181.97
397.39	1090.69
397.58	1228.78
397.77	1184.31
397.97	1198.35
398.16	1170.27
398.35	1306.02
398.55	1247.51
398.74	1233.46
398.93	1303.68
399.12	1256.87
399.32	1329.42
399.51	1254.53
399.70	1277.93
399.90	1320.06
400.09	1324.74
400.28	1294.32
400.47	1273.25
400.67	1390.28
400.86	1338.79
401.05	1352.83
401.24	1430.07
401.44	1359.85
401.63	1394.96
401.82	1416.02
402.01	1406.66
402.21	1315.38
402.40	1390.28
402.59	1373.89
402.78	1343.47
402.97	1427.73
403.17	1556.46
403.36	1423.05
403.55	1458.15
403.74	1568.16
403.93	1610.29
404.13	1626.67
404.32	1521.35
404.51	1593.90
404.70	1509.65
404.89	1474.54
405.09	1614.97
405.28	1659.44
405.47	1640.72
405.66	1671.14
405.85	1717.95
406.05	1612.63
406.24	1661.78
406.43	1743.70
406.62	1633.69
406.81	1720.29
407.00	1680.50
407.20	1696.89
407.39	1689.87
407.58	1713.27
407.77	1832.64
407.96	1781.15
408.15	1820.94
408.34	1856.04
408.54	1769.44
408.73	1865.41
408.92	1834.98
409.11	1865.41
409.30	1930.94
409.49	1818.60
409.68	1877.11
409.87	1888.81
410.07	2052.65
410.26	2001.16
410.45	1970.73
410.64	2033.93
410.83	2012.86
411.02	2008.18
411.21	2127.55
411.40	2101.80
411.59	2099.46
411.78	2104.14
411.98	2010.52
412.17	2136.91
412.36	2209.47
412.55	2129.89
412.74	2211.81
412.93	2235.21
413.12	2253.94
413.31	2260.96
413.50	2275.00
413.69	2296.07
413.88	2448.20
414.07	2347.56
414.26	2373.30
414.45	2392.03
414.64	2394.37
414.83	2380.32
415.02	2431.82
415.22	2511.39
415.41	2534.80
415.60	2473.95
415.79	2583.95
415.98	2525.44
416.17	2612.04
416.36	2609.70
416.55	2537.14
416.74	2602.68
416.93	2579.27
417.12	2736.09
417.31	2733.75
417.50	2731.41
417.69	2787.58
417.88	2792.26
418.07	2771.19
418.26	2853.11
418.45	2796.94
418.64	2892.90
418.83	2818.00
419.02	2822.69
419.21	2939.71
419.39	3012.27
419.58	2883.54
419.77	2911.63
419.96	2939.71
420.15	2902.26
420.34	3049.72
420.53	3038.02
420.72	3077.80
420.91	3030.99
421.10	2974.82
421.29	3218.24
421.48	3183.13
421.67	3171.43
421.86	3075.46
422.05	3098.87
422.24	3129.30
422.43	3183.13
422.61	3251.00
422.80	3201.85
422.99	3232.28
423.18	3220.58
423.37	3365.69
423.56	3321.22
423.75	3379.73
423.94	3220.58
424.13	3049.72
424.32	3119.93
424.50	3222.92
424.69	3456.97
424.88	3323.56
425.07	3272.07
425.26	3225.26
425.45	3332.92
425.64	3297.81
425.83	3288.45
426.01	3229.94
426.20	3279.09
426.39	3396.12
426.58	3239.30
426.77	3311.86
426.96	3335.26
427.15	3279.09
427.33	3349.31
427.52	3468.67
427.71	3412.50
427.90	3442.93
428.09	3564.64
428.28	3550.59
428.46	3435.91
428.65	3447.61
428.84	3613.79
429.03	3714.43
429.22	3517.83
429.40	3595.06
429.59	3632.51
429.78	3581.02
429.97	3496.76
430.16	3508.46
430.34	3513.14
430.53	3721.45
430.72	3691.02
430.91	3808.05
431.10	3705.07
431.28	3786.99
431.47	4042.11
431.66	3756.56
431.85	3761.24
432.03	3794.01
432.22	3784.65
432.41	3943.80
432.60	3925.08
432.79	3751.88
432.97	3847.84
433.16	3988.27
433.35	3969.55
433.54	3929.76
433.72	4004.66
433.91	4039.76
434.10	4046.79
434.28	3894.65
434.47	3936.78
434.66	4016.36
434.85	4046.79
435.03	4086.58
435.22	4145.09
435.41	4318.29
435.59	4180.20
435.78	4234.03
435.97	4205.94
436.16	4170.83
436.34	4217.65
436.53	4191.90
436.72	4332.33
436.90	4287.86
437.09	4231.69
437.28	4297.22
437.46	4231.69
437.65	4322.97
437.84	4477.44
438.02	4512.55
438.21	4362.76
438.40	4299.56
438.58	4550.00
438.77	4559.36
438.96	4533.62
439.14	4582.77
439.33	4660.01
439.52	4781.71
439.70	4461.06
439.89	4870.65
440.08	4645.96
440.26	4655.33
440.45	4800.44
440.63	4720.86
440.82	4812.14
441.01	4938.53
441.19	4873.00
441.38	4957.25
441.57	4919.81
441.75	4973.64
441.94	5011.09
442.12	5078.96
442.31	5069.60
442.50	5259.18
442.68	5207.69
442.87	5284.93
443.05	5198.33
443.24	5214.71
443.43	5224.08
443.61	5242.80
443.80	5434.72
443.98	5191.31
444.17	5263.86
444.35	5118.75
444.54	5385.57
444.73	5511.96
444.91	5193.65
445.10	5507.28
445.28	5224.08
445.47	5355.15
445.65	5481.53
445.84	5357.49
446.02	5628.99
446.21	5387.91
446.39	5387.91
446.58	5521.32
446.77	5657.07
446.95	5416.00
447.14	5511.96
447.32	5558.77
447.51	5420.68
447.69	5598.56
447.88	5493.24
448.06	5416.00
448.25	5502.60
448.43	5413.66
448.62	5537.71
448.80	5554.09
448.99	5469.83
449.17	5612.60
449.36	5523.66
449.54	5614.95
449.73	5724.95
449.91	5748.36
450.10	5870.06
450.28	5914.53
450.46	5795.17
450.65	5816.23
450.83	5853.68
451.02	5799.85
451.20	6031.56
451.39	5947.30
451.57	5813.89
451.76	5736.65
451.94	5982.41
452.13	5954.32
452.31	5959.00
452.49	5963.68
452.68	5895.81
452.86	6104.12
453.05	6099.44
453.23	6239.87
453.42	5998.79
453.60	6017.52
453.78	6043.26
453.97	6125.18
454.15	5968.37
454.34	6090.07
454.52	6071.35
454.70	6221.14
454.89	6291.36
455.07	6207.10
455.26	6251.57
455.44	6328.81
455.62	6296.04
455.81	6438.81
455.99	6459.88
456.17	6258.59
456.36	6562.86
456.54	6691.59
456.73	6452.86
456.91	6679.89
457.09	6607.33
457.28	6722.02
457.46	6593.29
457.64	6740.74
457.83	6637.76
458.01	6724.36
458.19	6927.99
458.38	6771.17
458.56	6789.89
458.74	6991.18
458.93	6782.87
459.11	6820.32
459.29	6909.26
459.48	6759.47
459.66	6909.26
459.84	6958.41
460.03	7084.80
460.21	6951.39
460.39	7042.67
460.57	7080.12
460.76	6902.24
460.94	7045.01
461.12	7262.68
461.31	7150.34
461.49	7052.03
461.67	7059.06
461.85	7314.17
462.04	7082.46
462.22	7683.98
462.40	7342.26
462.59	7302.47
462.77	7295.45
462.95	7478.01
463.13	7328.22
463.32	7517.80
463.50	7541.21
463.68	7389.07
463.86	7597.38
464.05	7321.20
464.23	7328.22
464.41	7538.87
464.59	7393.75
464.78	7712.07
464.96	7861.86
465.14	7590.36
465.32	7545.89
465.50	7595.04
465.69	7896.97
465.87	7653.55
466.05	7695.68
466.23	7819.73
466.41	7564.61
466.60	7906.33
466.78	7882.92
466.96	7784.62
467.14	7660.57
467.32	7880.58
467.51	7990.59
467.69	7665.25
467.87	7838.45
468.05	7861.86
468.23	7754.19
468.41	7878.24
468.60	7920.37
468.78	8025.70
468.96	7983.57
469.14	8184.85
469.32	8173.15
469.50	8023.36
469.69	8266.77
469.87	8250.39
470.05	8376.78
470.23	8290.18
470.41	8196.56
470.59	8416.57
470.77	8409.54
470.95	8290.18
471.14	8468.06
471.32	8421.25
471.50	8645.94
471.68	8402.52
471.86	8526.57
472.04	8723.18
472.22	8837.86
472.40	8585.08
472.58	8840.20
472.77	8814.46
472.95	8667.00
473.13	9184.26
473.31	8877.65
473.49	8919.78
473.67	8954.89
473.85	9107.02
474.03	9359.80
474.21	9268.52
474.39	9399.59
474.57	9305.97
474.75	9418.32
474.93	9504.92
475.12	9294.27
475.30	9563.43
475.48	9483.85
475.66	9809.19
475.84	9439.38
476.02	9764.72
476.20	9757.69
476.38	10026.86
476.56	9951.96
476.74	10040.90
476.92	9771.74
477.10	9790.46
477.28	10256.23
477.46	10209.42
477.64	10029.20
477.82	10579.22
478.00	10590.92
478.18	10527.73
478.36	10595.61
478.54	10729.02
478.72	10717.31
478.90	10946.69
479.08	10867.11
479.26	11164.36
479.44	10827.32
479.62	11236.91
479.80	11267.34
479.98	11365.64
480.16	11676.93
480.34	11447.56
480.52	11690.98
480.70	11489.69
480.88	11571.61
481.06	11676.93
481.24	11798.64
481.41	11815.02
481.59	11976.52
481.77	12119.29
481.95	12116.95
482.13	12145.04
482.31	12194.19
482.49	12601.44
482.67	12493.78
482.85	12681.02
483.03	12826.14
483.21	13018.06
483.39	13289.56
483.57	13252.11
483.74	13303.60
483.92	13359.78
484.10	13209.98
484.28	13460.42
484.46	13790.44
484.64	14057.26
484.82	13848.95
485.00	13668.73
485.18	13905.12
485.35	14272.59
485.53	14223.44
485.71	14406.00
485.89	14544.09
486.07	14937.30
486.25	14637.71
486.43	14750.06
486.61	14719.63
486.78	14883.47
486.96	15084.75
487.14	15241.57
487.32	15241.57
487.50	15360.94
487.68	15613.71
487.85	15545.84
488.03	16006.92
488.21	16142.67
488.39	15901.60
488.57	16154.38
488.75	16304.17
488.92	16643.55
489.10	16514.82
489.28	16662.27
489.46	16842.50
489.64	16720.79
489.81	16978.25
489.99	17160.81
490.17	17500.19
490.35	17298.90
490.53	17469.76
490.70	17694.45
490.88	17511.89
491.06	17514.23
491.24	17926.16
491.41	17804.46
491.59	18178.94
491.77	18073.62
491.95	18118.09
492.13	18539.38
492.30	18415.34
492.48	18576.83
492.66	18768.76
492.84	18951.32
493.01	18930.25
493.19	19044.94
493.37	19164.31
493.54	19360.91
493.72	19550.49
493.90	19447.51
494.08	19323.46
494.25	19744.76
494.43	19845.40
494.61	20266.70
494.79	20018.60
494.96	20093.50
495.14	20428.20
495.32	20521.82
495.49	20493.73
495.67	20449.26
495.85	20992.26
496.02	20889.28
496.20	21120.99
496.38	20858.85
496.55	21160.78
496.73	21523.57
496.91	21523.57
497.09	21357.39
497.26	21638.25
497.44	21528.25
497.62	22003.38
497.79	21954.22
497.97	22092.32
498.14	21947.20
498.32	22415.31
498.50	22284.24
498.67	22703.20
498.85	22377.86
499.03	22604.89
499.20	22359.14
499.38	23073.00
499.56	22974.70
499.73	23016.83
499.91	22986.40
500.08	23573.88
500.26	23445.15
500.44	23335.14
500.61	23527.06
500.79	23431.10
500.97	23758.78
501.14	24088.79
501.32	23903.89
501.49	23648.77
501.67	23828.99
501.84	24357.96
502.02	24231.57
502.20	24231.57
502.37	24105.18
502.55	24369.66
502.72	24563.92
502.90	24606.05
503.07	24648.18
503.25	24697.33
503.43	24751.17
503.60	25027.35
503.78	25099.90
503.95	24910.32
504.13	25123.31
504.30	25333.96
504.48	25198.21
504.65	25254.38
504.83	25610.14
505.01	25582.06
505.18	25640.57
505.36	25820.79
505.53	25907.39
505.71	25741.21
505.88	25930.80
506.06	25771.64
506.23	26192.94
506.41	26061.87
506.58	26324.01
506.76	26113.36
506.93	26609.55
507.11	26457.42
507.28	26518.27
507.46	26487.84
507.63	26857.65
507.81	26829.56
507.98	27136.17
508.16	27101.06
508.33	26869.35
508.50	26953.61
508.68	27241.50
508.85	27447.46
509.03	27208.73
509.20	27569.17
509.38	27857.06
509.55	27737.69
509.73	27737.69
509.90	28039.62
510.08	27819.61
510.25	27620.66
510.42	28006.85
510.60	28004.51
510.77	28315.80
510.95	28449.21
511.12	28158.99
511.30	28196.43
511.47	28236.22
511.64	28498.36
511.82	28790.93
511.99	28893.91
512.17	28893.91
512.34	29027.32
512.51	28978.17
512.69	29270.74
512.86	29230.95
513.04	29319.89
513.21	29151.37
513.38	29287.12
513.56	29209.89
513.73	29282.44
513.90	29556.28
514.08	29708.42
514.25	29832.47
514.43	29663.95
514.60	29944.81
514.77	29921.41
514.95	30305.26
515.12	29982.26
515.29	29970.56
515.47	29993.97
515.64	30361.43
515.81	30183.55
515.99	30265.47
516.16	30890.39
516.33	30644.63
516.51	30541.65
516.68	30752.30
516.85	30752.30
517.03	30586.12
517.20	30829.54
517.37	30707.83
517.54	31042.53
517.72	30726.55
517.89	31131.47
518.06	31246.15
518.24	31271.90
518.41	31419.35
518.58	31398.29
518.75	31484.89
518.93	31079.97
519.10	31517.65
519.27	31260.20
519.45	31615.96
519.62	32388.33
519.79	31735.32
519.96	32023.21
520.14	31943.63
520.31	32016.19
520.48	32215.13
520.65	32133.21
520.83	32650.47
521.00	32374.29
521.17	32486.64
521.34	32540.47
521.52	32678.56
521.69	32451.53
521.86	33113.90
522.03	32718.35
522.20	32704.31
522.38	33167.73
522.55	33067.09
522.72	32858.78
522.89	33057.73
523.07	33734.14
523.24	33001.55
523.41	33413.49
523.58	33429.87
523.75	33614.77
523.92	33226.24
524.10	33596.05
524.27	33699.03
524.44	33244.97
524.61	33832.44
524.78	33752.87
524.96	34340.34
525.13	34249.06
525.30	33928.41
525.47	34307.57
525.64	33647.54
525.81	33968.19
525.98	34459.71
526.16	34115.65
526.33	34387.15
526.50	35058.88
526.67	34499.50
526.84	34417.58
527.01	34443.32
527.18	34796.74
527.36	34602.48
527.53	34864.62
527.70	35271.87
527.87	35084.63
528.04	34995.69
528.21	35208.68
528.38	35409.96
528.55	35435.71
528.72	35194.64
528.89	34909.09
529.07	35517.63
529.24	34998.03
529.41	35323.36
529.58	35159.53
529.75	35264.85
529.92	35784.45
530.09	35168.89
530.26	35730.62
530.43	35655.72
530.60	35379.54
530.77	35922.54
530.94	35517.63
531.11	35674.45
531.28	35929.56
531.46	36311.07
531.63	35999.78
531.80	36161.28
531.97	36332.14
532.14	36432.78
532.31	36100.42
532.48	36371.92
532.65	36531.08
532.82	36172.98
532.99	36645.77
533.16	36350.86
533.33	36517.04
533.50	36849.39
533.67	36659.81
533.84	36533.42
534.01	36659.81
534.18	36753.43
534.35	37043.66
534.52	37013.23
534.69	37340.91
534.86	37055.36
535.03	37034.30
535.20	37383.04
535.37	37394.74
535.54	37720.07
535.71	37275.37
535.88	37022.59
536.05	37479.00
536.22	37645.18
536.38	37408.78
536.55	37673.26
536.72	37883.91
536.89	37837.10
537.06	37535.17
537.23	37902.64
537.40	37757.52
537.57	37954.13
537.74	37322.18
537.91	38141.37
538.08	37525.81
538.25	37509.43
538.42	38227.97
538.59	38288.82
538.75	38183.50
538.92	38684.37
539.09	38476.07
539.26	38220.95
539.43	38424.57
539.60	38368.40
539.77	38471.39
539.94	38721.82
540.11	38639.90
540.28	38756.93
540.44	38742.89
540.61	38614.16
540.78	38611.82
540.95	38979.28
541.12	38869.28
541.29	38630.54
541.46	38918.43
541.62	38646.93
541.79	39234.40
541.96	38974.60
542.13	38473.73
542.30	38953.54
542.47	39180.57
542.63	38714.80
542.80	39253.12
542.97	39587.82
543.14	39889.75
543.31	39171.21
543.48	39578.46
543.64	40144.87
543.81	40046.57
543.98	39805.49
544.15	39625.27
544.32	39754.00
544.48	40074.65
544.65	40107.42
544.82	40009.12
544.99	39529.31
545.16	39789.11
545.32	39613.57
545.49	40615.32
545.66	40252.53
545.83	40519.35
546.00	40243.17
546.16	40163.59
546.33	40060.61
546.50	39709.53
546.67	40428.07
546.83	40133.17
547.00	40320.41
547.17	39981.03
547.34	40861.07
547.50	40760.43
547.67	40980.44
547.84	40629.36
548.00	40362.54
548.17	40957.03
548.34	40760.43
548.51	40973.42
548.67	41347.90
548.84	40959.38
549.01	40589.57
549.18	40840.01
549.34	41193.43
549.51	40971.08
549.68	40919.59
549.84	40730.00
550.01	41296.41
550.18	41104.49
550.34	41752.82
550.51	41500.04
550.68	41567.91
550.84	41010.87
551.01	41544.51
551.18	41022.57
551.34	41237.90
551.51	41638.13
551.68	41130.23
551.84	41493.02
552.01	41605.36
552.18	41759.84
552.34	41446.21
552.51	41848.78
552.68	41251.94
552.84	41556.21
553.01	42054.75
553.18	41886.23
553.34	41794.95
553.51	41806.65
553.67	41771.54
553.84	41846.44
554.01	41539.83
554.17	41972.83
554.34	42181.13
554.51	41816.01
554.67	42457.32
554.84	42274.76
555.00	42092.19
555.17	42232.63
555.33	42534.56
555.50	42120.28
555.67	42555.62
555.83	42244.33
556.00	42946.49
556.16	43257.78
556.33	42939.47
556.50	42382.42
556.66	42356.67
556.83	42403.49
556.99	42808.40
557.16	42747.54
557.32	42749.88
557.49	43044.79
557.65	42239.65
557.82	42267.73
557.98	42693.71
558.15	42600.09
558.32	42909.04
558.48	42405.83
558.65	43014.37
558.81	43117.35
558.98	42887.98
559.14	42784.99
559.31	42733.50
559.47	43122.03
559.64	43311.61
559.80	42932.45
559.97	42731.16
560.13	43241.40
560.30	43129.05
560.46	43414.60
560.63	43473.11
560.79	43051.81
560.96	43154.80
561.12	43412.26
561.29	43332.68
561.45	43100.97
561.61	43311.61
561.78	43229.69
561.94	43107.99
562.11	43154.80
562.27	43543.33
562.44	43093.94
562.60	43538.65
562.77	43370.13
562.93	43475.45
563.10	43683.76
563.26	43428.64
563.42	44486.56
563.59	43686.10
563.75	43391.19
563.92	43559.71
564.08	43770.36
564.24	43810.15
564.41	43480.13
564.57	43590.14
564.74	43557.37
564.90	43861.64
565.07	43423.96
565.23	44030.16
565.39	43875.68
565.56	43798.44
565.72	43697.80
565.88	43688.44
566.05	43929.51
566.21	43910.79
566.38	43868.66
566.54	43824.19
566.70	44088.67
566.87	43803.13
567.03	43786.74
567.19	44247.83
567.36	43770.36
567.52	43903.77
567.68	44154.21
567.85	44296.98
568.01	44605.93
568.17	43597.16
568.34	44320.38
568.50	44224.42
568.66	43723.55
568.83	43908.45
568.99	43753.97
569.15	44065.27
569.32	44006.75
569.48	44098.03
569.64	44182.29
569.81	43421.62
569.97	43962.28
570.13	44964.03
570.30	43892.07
570.46	44315.70
570.62	44516.99
570.78	43959.94
570.95	44292.30
571.11	44320.38
571.27	44474.86
571.43	44374.22
571.60	44121.44
571.76	44402.30
571.92	44254.85
572.09	44161.23
572.25	44100.37
572.41	44147.18
572.57	44325.07
572.74	44484.22
572.90	44135.48
573.06	44514.65
573.22	44402.30
573.38	44966.37
573.55	44690.19
573.71	44748.70
573.87	44388.26
574.03	44692.53
574.20	44849.35
574.36	44399.96
574.52	44842.32
574.68	44591.89
574.84	45134.89
575.01	44615.29
575.17	44765.09
575.33	44418.69
575.49	44767.43
575.65	44505.29
575.82	44325.07
575.98	44493.58
576.14	44648.06
576.30	45165.32
576.46	44566.14
576.62	44739.34
576.79	44428.05
576.95	44547.42
577.11	44697.21
577.27	45172.34
577.43	44486.56
577.59	44790.83
577.75	44449.11
577.92	44479.54
578.08	44727.64
578.24	44395.28
578.40	44804.88
578.56	44711.25
578.72	45141.91
578.88	45071.70
579.04	44486.56
579.21	44669.12
579.37	44802.53
579.53	45315.11
579.69	44554.44
579.85	44575.50
580.01	44748.70
580.17	44737.00
580.33	44772.11
580.49	44552.10
580.65	44877.43
580.82	44926.58
580.98	45083.40
581.14	44076.97
581.30	44858.71
581.46	44587.21
581.62	44669.12
581.78	44830.62
581.94	44957.01
582.10	44720.62
582.26	45076.38
582.42	44676.15
582.58	45034.25
582.74	44825.94
582.90	44783.81
583.06	45038.93
583.22	44821.26
583.38	45083.40
583.54	45045.95
583.70	45265.96
583.86	45134.89
584.02	44381.24
584.18	44987.44
584.34	44971.05
584.50	44980.42
584.66	45399.37
584.82	44938.29
584.98	45272.98
585.14	45345.54
585.30	45137.23
585.46	45310.43
585.62	44732.32
585.78	45034.25
585.94	44821.26
586.10	45006.16
586.26	44493.58
586.42	44875.09
586.58	44971.05
586.74	44844.66
586.90	44877.43
587.06	45343.20
587.22	45233.19
587.38	45223.83
587.54	45415.76
587.70	45326.81
587.86	45160.64
588.02	44802.53
588.18	45174.68
588.34	45045.95
588.49	45184.04
588.65	44978.07
588.81	44755.72
588.97	45050.63
589.13	45282.34
589.29	44870.41
589.45	45521.08
589.61	45380.65
589.77	45324.47
589.93	44928.92
590.08	45476.61
590.24	46244.30
590.40	45710.66
590.56	45970.46
590.72	45635.77
590.88	45315.11
591.04	45399.37
591.20	45708.32
591.35	45668.53
591.51	45951.74
591.67	45287.03
591.83	45771.52
591.99	45198.09
592.15	45682.58
592.31	45715.34
592.46	45387.67
592.62	45390.01
592.78	45364.26
592.94	45715.34
593.10	45783.22
593.26	45801.94
593.41	46075.79
593.57	45598.32
593.73	45654.49
593.89	45998.55
594.05	45663.85
594.20	45675.55
594.36	46344.95
594.52	45638.11
594.68	45776.20
594.84	45720.02
594.99	45820.67
595.15	46033.66
595.31	45617.04
595.47	45815.99
595.62	45624.06
595.78	45563.21
595.94	45319.79
596.10	45792.58
596.25	45638.11
596.41	45839.39
596.57	45652.15
596.73	46003.23
596.88	45893.22
597.04	45705.98
597.20	45872.16
597.36	45769.18
597.51	45895.56
597.67	45170.00
597.83	45593.64
597.99	45710.66
598.14	45539.80
598.30	45848.75
598.46	45586.61
598.61	45998.55
598.77	46036.00
598.93	45900.25
599.09	46220.90
599.24	46277.07
599.40	45652.15
599.56	45593.64
599.71	46061.74
599.87	46230.26
600.03	45893.22
600.18	46197.49
600.34	45785.56
600.50	45703.64
600.65	45621.72
600.81	46099.19
600.97	46515.81
601.12	45989.19
601.28	46050.04
601.44	45972.80
601.59	45815.99
601.75	46012.59
601.91	45998.55
602.06	45970.46
602.22	46358.99
602.37	46277.07
602.53	45853.44
602.69	46258.35
602.84	45787.90
603.00	45787.90
603.16	45773.86
603.31	45888.54
603.47	45911.95
603.62	45918.97
603.78	46178.77
603.94	46054.72
604.09	45947.06
604.25	45722.37
604.40	45785.56
604.56	46295.80
604.71	46141.32
604.87	45846.41
605.03	45537.46
605.18	45947.06
605.34	46237.28
605.49	45680.24
605.65	45858.12
605.80	45319.79
605.96	45687.26
606.12	45521.08
606.27	46033.66
606.43	45689.60
606.58	45291.71
606.74	45818.33
606.89	45745.77
607.05	45837.05
607.20	46045.36
607.36	45794.92
607.51	45336.18
607.67	45483.63
607.82	45448.52
607.98	45572.57
608.13	45806.62
608.29	45563.21
608.44	45631.08
608.60	45614.70
608.75	45876.84
608.91	45485.97
609.06	45329.16
609.22	45879.18
609.37	45310.43
609.53	45837.05
609.68	45614.70
609.84	45399.37
609.99	45471.93
610.15	45832.37
610.30	46134.30
610.46	45724.71
610.61	45729.39
610.76	45556.19
610.92	45177.02
611.07	45666.19
611.23	45677.90
611.38	45476.61
611.54	45731.73
611.69	45715.34
611.84	45603.00
612.00	45497.67
612.15	45233.19
612.31	45698.96
612.46	45228.51
612.62	45050.63
612.77	45132.55
612.92	45708.32
613.08	45172.34
613.23	45497.67
613.39	45074.04
613.54	45074.04
613.69	45240.21
613.85	44980.42
614.00	44924.24
614.15	45666.19
614.31	44563.80
614.46	44931.26
614.62	45031.91
614.77	44975.73
614.92	45251.92
615.08	44818.92
615.23	45184.04
615.38	45687.26
615.54	45141.91
615.69	45336.18
615.84	45050.63
616.00	45174.68
616.15	45069.36
616.30	45062.33
616.46	45041.27
616.61	44924.24
616.76	45027.23
616.92	44706.57
617.07	45193.40
617.22	44502.95
617.37	44645.72
617.53	44931.26
617.68	44519.33
617.83	44699.55
617.99	45322.13
618.14	45043.61
618.29	44493.58
618.45	44552.10
618.60	44655.08
618.75	44126.12
618.90	44165.91
619.06	44641.04
619.21	44641.04
619.36	44900.84
619.51	44603.59
619.67	44266.55
619.82	44554.44
619.97	44851.69
620.12	44325.07
620.28	44809.56
620.43	44638.70
620.58	44381.24
620.73	44603.59
620.89	45310.43
621.04	44610.61
621.19	44273.57
621.34	44814.24
621.49	44027.82
621.65	44233.78
621.80	44610.61
621.95	44521.67
622.10	44334.43
622.25	44381.24
622.41	44041.86
622.56	44423.37
622.71	44100.37
622.86	44467.84
623.01	44350.81
623.16	44488.90
623.32	44301.66
623.47	44385.92
623.62	44280.60
623.77	44123.78
623.92	44023.14
624.07	44165.91
624.23	44053.56
624.38	44311.02
624.53	43997.39
624.68	43646.31
624.83	43704.82
624.98	43922.49
625.13	43625.25
625.29	43885.04
625.44	43636.95
625.59	43761.00
625.74	44072.29
625.89	43468.43
626.04	43704.82
626.19	43976.33
626.34	43250.76
626.49	43164.16
626.65	43618.22
626.80	43786.74
626.95	43337.36
627.10	42834.14
627.25	43840.57
627.40	43480.13
627.55	43639.29
627.70	43381.83
627.85	43959.94
628.00	43360.76
628.15	43381.83
628.30	42962.87
628.45	42976.92
628.60	42843.51
628.76	43058.84
628.91	43569.07
629.06	42660.94
629.21	43047.13
629.36	43154.80
629.51	43304.59
629.66	43597.16
629.81	43379.49
629.96	43044.79
630.11	43091.60
630.26	42859.89
630.41	43021.39
630.56	42628.18
630.71	43028.41
630.86	42417.53
631.01	42777.97
631.16	42581.37
631.31	42515.83
631.46	42873.93
631.61	43484.81
631.76	43072.88
631.91	42810.74
632.06	43239.06
632.21	43112.67
632.36	42726.48
632.51	42155.39
632.66	42902.02
632.81	42691.37
632.96	42773.29
633.10	42597.75
633.25	42469.02
633.40	42234.97
633.55	42803.72
633.70	42106.24
633.85	42117.94
634.00	42012.62
634.15	42618.81
634.30	42115.60
634.45	42272.42
634.60	42344.97
634.75	42529.87
634.90	42230.29
635.05	42120.28
635.19	42375.40
635.34	42146.03
635.49	42122.62
635.64	42270.08
635.79	42447.96
635.94	42234.97
636.09	42368.38
636.24	42131.98
636.39	41918.99
636.53	42351.99
636.68	41911.97
636.83	41619.41
636.98	42094.53
637.13	41640.47
637.28	41771.54
637.43	41869.84
637.57	41858.14
637.72	41745.80
637.87	41542.17
638.02	41710.69
638.17	42096.88
638.32	41588.98
638.46	41881.55
638.61	41074.06
638.76	41434.50
638.91	41408.76
639.06	41020.23
639.20	41205.13
639.35	41350.24
639.50	41006.19
639.65	41673.24
639.80	41883.89
639.94	41640.47
640.09	41570.25
640.24	41603.02
640.39	40950.01
640.54	41013.21
640.68	41460.25
640.83	41907.29
640.98	41085.76
641.13	40982.78
641.27	41207.47
641.42	41265.99
641.57	40914.90
641.72	41364.29
641.86	41202.79
642.01	40879.80
642.16	40549.78
642.31	40488.93
642.45	41427.48
642.60	40734.68
642.75	40926.61
642.90	41256.62
643.04	40505.31
643.19	40397.65
643.34	40683.19
643.48	40362.54
643.63	40814.26
643.78	41357.27
643.93	41193.43
644.07	40725.32
644.22	40559.14
644.37	40509.99
644.51	40402.33
644.66	40847.03
644.81	40935.97
644.95	41031.93
645.10	40435.10
645.25	41067.04
645.39	40268.92
645.54	40680.85
645.69	40329.77
645.83	40112.10
645.98	40545.10
646.13	40421.05
646.27	40126.14
646.42	40222.11
646.57	40378.92
646.71	40505.31
646.86	40467.86
647.00	40383.60
647.15	40144.87
647.30	40453.82
647.44	40224.45
647.59	40547.44
647.74	39931.88
647.88	40158.91
648.03	40423.39
648.17	40418.71
648.32	40421.05
648.47	40559.14
648.61	39817.19
648.76	40069.97
648.90	39819.53
649.05	39845.28
649.20	40009.12
649.34	39964.65
649.49	39847.62
649.63	40671.49
649.78	40116.78
649.92	39931.88
650.07	40453.82
650.21	40245.51
650.36	39966.99
650.51	39924.86
650.65	39974.01
650.80	39688.46
650.94	39555.05
651.09	39899.11
651.23	39012.05
651.38	39374.83
651.52	39548.03
651.67	39367.81
651.81	39629.95
651.96	39379.51
652.10	39351.43
652.25	39550.37
652.39	39358.45
652.54	39447.39
652.68	38986.30
652.83	39559.73
652.97	39395.90
653.12	39253.12
653.26	39012.05
653.41	39496.54
653.55	39161.84
653.70	39526.97
653.84	39365.47
653.99	39285.89
654.13	39077.58
654.27	38995.67
654.42	39234.40
654.56	39028.43
654.71	39248.44
654.85	39213.34
655.00	39309.30
655.14	38864.60
655.29	39281.21
655.43	39075.24
655.57	39028.43
655.72	38623.52
655.86	39056.52
656.01	38689.06
656.15	38532.24
656.30	38483.09
656.44	38927.79
656.58	39187.59
656.73	38602.46
656.87	38068.81
657.01	38309.89
657.16	38658.63
657.30	38625.86
657.45	38653.95
657.59	38557.99
657.73	38295.85
657.88	38693.74
658.02	38778.00
658.16	38911.41
658.31	38438.62
658.45	38560.33
658.60	38274.78
658.74	38354.36
658.88	38232.65
659.03	38295.85
659.17	38066.47
659.31	38361.38
659.46	38050.09
659.60	38417.55
659.74	37471.98
659.89	37659.22
660.03	37607.73
660.17	38251.38
660.32	37839.44
660.46	37771.57
660.60	37116.22
660.74	37801.99
660.89	38019.66
661.03	36999.19
661.17	37684.97
661.32	37230.90
661.46	37715.39
661.60	37429.85
661.74	37333.89
661.89	37516.45
662.03	37195.79
662.17	37053.02
662.31	36837.69
662.46	37151.32
662.60	36900.89
662.74	36910.25
662.88	37081.11
663.03	37081.11
663.17	36615.34
663.31	36526.40
663.45	37022.59
663.60	37298.78
663.74	36573.21
663.88	36900.89
664.02	36322.77
664.17	37118.56
664.31	36423.42
664.45	36149.57
664.59	36383.63
664.73	35962.33
664.88	36299.37
665.02	36016.16
665.16	36355.54
665.30	36350.86
665.44	36238.51
665.59	35854.67
665.73	35754.02
665.87	35555.08
666.01	35751.68
666.15	35864.03
666.29	35950.63
666.44	36058.29
666.58	35885.09
666.72	35632.32
666.86	35536.35
667.00	35264.85
667.14	35316.34
667.28	35498.91
667.43	35648.70
667.57	35583.16
667.71	35456.78
667.85	35618.27
667.99	35196.98
668.13	35353.79
668.27	34993.35
668.41	34789.72
668.56	34450.35
668.70	34583.76
668.84	34274.80
668.98	34806.11
669.12	35108.04
669.26	34810.79
669.40	34604.82
669.54	34398.85
669.68	34796.74
669.82	34377.79
669.96	34281.83
670.10	33731.80
670.25	33722.44
670.39	33706.05
670.53	34143.74
670.67	33942.45
670.81	34169.48
670.95	34043.09
671.09	34031.39
671.23	33586.69
671.37	33989.26
671.51	33654.56
671.65	33654.56
671.79	33551.58
671.93	33914.36
672.07	33677.97
672.21	33401.79
672.35	33322.21
672.49	33333.91
672.63	33354.97
672.77	32912.61
672.91	33387.74
673.05	33354.97
673.19	32781.54
673.33	32872.82
673.47	32648.13
673.61	32226.84
673.75	32128.53
673.89	32072.36
674.03	31828.95
674.17	31978.74
674.31	31901.50
674.45	31868.73
674.59	32264.28
674.73	32336.84
674.87	31749.37
675.01	31428.71
675.15	31538.72
675.29	31487.23
675.43	31356.16
675.56	31693.19
675.70	31573.83
675.84	31257.85
675.98	30352.07
676.12	31103.38
676.26	31388.92
676.40	31101.04
676.54	30595.48
676.68	30939.54
676.82	30384.83
676.96	31014.44
677.10	30738.26
677.23	30408.24
677.37	30848.26
677.51	30338.02
677.65	30499.52
677.79	30171.85
677.93	30288.87
678.07	29865.24
678.21	29846.51
678.34	29811.40
678.48	29486.07
678.62	29167.76
678.76	29202.86
678.90	29436.92
679.04	29345.64
679.18	29769.27
679.31	28973.49
679.45	28975.83
679.59	29088.18
679.73	29179.46
679.87	28652.84
680.00	28350.91
680.14	28870.51
680.28	28329.84
680.42	28666.88
680.56	28285.37
680.70	28123.88
680.83	27859.40
680.97	28065.36
681.11	28205.80
681.25	27765.78
681.39	27971.74
681.52	27723.65
681.66	27304.69
681.80	26979.36
681.94	27096.38
682.07	27070.64
682.21	27161.92
682.35	27248.52
682.49	26972.33
682.62	26916.16
682.76	26991.06
682.90	26506.57
683.04	26478.48
683.17	26883.39
683.31	26733.60
683.45	26398.90
683.59	25933.14
683.72	25841.85
683.86	26071.23
684.00	25989.31
684.13	25680.36
684.27	25490.77
684.41	25610.14
684.55	25589.08
684.68	25715.47
684.82	25142.03
684.96	25109.27
685.09	25593.76
685.23	25324.60
685.37	25216.93
685.50	25694.40
685.64	25259.06
685.78	24989.90
685.91	24746.48
686.05	24350.93
686.19	24240.93
686.32	24283.06
686.46	24285.40
686.60	24023.26
686.73	24264.33
686.87	24032.62
687.01	24301.78
687.14	24020.92
687.28	23894.53
687.42	23901.55
687.55	23630.05
687.69	23857.08
687.82	23419.40
687.96	23545.79
688.10	23417.06
688.23	23611.32
688.37	23587.92
688.50	23199.39
688.64	22876.40
688.78	23040.23
688.91	23014.49
689.05	22738.30
689.18	22518.29
689.32	22181.26
689.46	22272.54
689.59	22342.75
689.73	22445.74
689.86	22714.90
690.00	22359.14
690.13	22382.54
690.27	22005.72
690.41	22118.06
690.54	22115.72
690.68	21483.78
690.81	21488.46
690.95	21392.50
691.08	21364.41
691.22	21348.03
691.35	21317.60
691.49	21135.04
691.62	21029.71
691.76	21006.31
691.89	20943.11
692.03	20788.64
692.16	20631.82
692.30	20629.48
692.43	20339.26
692.57	20334.57
692.70	20285.42
692.84	20114.56
692.97	19974.13
693.11	20091.16
693.24	19878.17
693.38	19681.56
693.51	19852.42
693.65	19653.48
693.78	19573.90
693.92	19470.92
694.05	19393.68
694.19	19267.29
694.32	19337.51
694.45	19424.11
694.59	19222.82
694.72	19410.06
694.86	18953.66
694.99	18780.46
695.13	18565.13
695.26	18752.37
695.39	18518.32
695.53	18511.30
695.66	18448.10
695.80	18420.02
695.93	18604.92
696.07	18452.78
696.20	17923.82
696.33	17949.57
696.47	17881.69
696.60	17806.80
696.73	17872.33
696.87	18064.25
697.00	17579.76
697.14	17809.14
697.27	17572.74
697.40	17610.19
697.54	17652.32
697.67	17551.68
697.80	17245.07
697.94	17277.83
698.07	17088.25
698.21	17390.18
698.34	17205.28
698.47	16791.00
698.61	16336.94
698.74	16563.97
698.87	16517.16
699.01	16152.04
699.14	16353.32
699.27	16369.71
699.40	16233.96
699.54	15990.54
699.67	16215.23
699.80	16332.26
699.94	16091.18
700.07	16032.67
700.20	15913.30
700.34	15831.38
700.47	15714.36
700.60	15653.50
700.73	15929.69
700.87	15756.49
701.00	15239.23
701.13	15325.83
701.26	15349.23
701.40	15183.06
701.53	14991.13
701.66	15103.48
701.79	15119.86
701.93	14869.42
702.06	14693.88
702.19	14927.94
702.32	14721.97
702.46	14787.50
702.59	14684.52
702.72	14972.41
702.85	14710.27
702.99	14214.07
703.12	14373.23
703.25	14099.39
703.38	14132.15
703.51	14153.22
703.65	13820.86
703.78	13867.67
703.91	13675.75
704.04	13710.86
704.17	13507.23
704.31	13596.17
704.44	13465.10
704.57	13474.46
704.70	13469.78
704.83	13226.37
704.96	13252.11
705.10	13181.90
705.23	13102.32
>>>>>End Processed Spectral Data<<<<<
