SpectraSuite Data File
++++++++++++++++++++++++++++++++++++
Date: Fri Oct 25 10:47:50 EDT 2013
User: price-jones
Dark Spectrum Present: No
Reference Spectrum Present: No
Number of Sampled Component Spectra: 1
Spectrometers: USB2+H05261
Integration Time (usec): 100000 (USB2+H05261)
Spectra Averaged: 1 (USB2+H05261)
Boxcar Smoothing: 0 (USB2+H05261)
Correct for Electrical Dark: No (USB2+H05261)
Strobe/Lamp Enabled: No (USB2+H05261)
Correct for Detector Non-linearity: No (USB2+H05261)
Correct for Stray Light: No (USB2+H05261)
Number of Pixels in Processed Spectrum: 2048
>>>>>Begin Processed Spectral Data<<<<<
365.73	110.01
365.92	110.01
366.12	110.01
366.32	42.13
366.52	18.72
366.72	28.09
366.91	28.09
367.11	60.85
367.31	0.00
367.51	0.00
367.70	0.00
367.90	60.85
368.10	37.45
368.30	44.47
368.49	23.41
368.69	70.22
368.89	39.79
369.09	58.51
369.28	72.56
369.48	95.96
369.68	65.54
369.87	79.58
370.07	70.22
370.27	201.29
370.47	220.01
370.66	416.62
370.86	390.87
371.06	468.11
371.25	461.09
371.45	442.36
371.65	479.81
371.84	397.89
372.04	390.87
372.24	430.66
372.44	533.64
372.63	524.28
372.83	500.87
373.03	463.43
373.22	496.19
373.42	482.15
373.62	486.83
373.81	496.19
374.01	547.69
374.21	582.79
374.40	475.13
374.60	550.03
374.79	533.64
374.99	573.43
375.19	503.22
375.38	606.20
375.58	531.30
375.78	505.56
375.97	653.01
376.17	580.45
376.37	559.39
376.56	575.77
376.76	547.69
376.95	622.58
377.15	575.77
377.35	585.13
377.54	613.22
377.74	568.75
377.93	514.92
378.13	627.26
378.33	629.60
378.52	613.22
378.72	627.26
378.91	582.79
379.11	681.10
379.31	608.54
379.50	608.54
379.70	580.45
379.89	697.48
380.09	704.50
380.28	620.24
380.48	648.33
380.68	620.24
380.87	671.73
381.07	744.29
381.26	725.57
381.46	657.69
381.65	685.78
381.85	638.97
382.04	718.54
382.24	720.88
382.43	610.88
382.63	685.78
382.83	711.52
383.02	709.18
383.22	709.18
383.41	720.88
383.61	704.50
383.80	802.80
384.00	678.76
384.19	723.23
384.39	690.46
384.58	774.72
384.78	809.83
384.97	709.18
385.17	814.51
385.36	758.33
385.56	821.53
385.75	814.51
385.95	800.46
386.14	823.87
386.34	739.61
386.53	758.33
386.72	814.51
386.92	781.74
387.11	812.17
387.31	844.93
387.50	823.87
387.70	823.87
387.89	791.10
388.09	767.70
388.28	823.87
388.48	826.21
388.67	901.11
388.86	887.06
389.06	854.30
389.25	917.49
389.45	940.90
389.64	880.04
389.84	990.05
390.03	933.87
390.22	950.26
390.42	950.26
390.61	936.21
390.81	919.83
391.00	1050.90
391.19	1039.20
391.39	1034.52
391.58	992.39
391.78	950.26
391.97	978.34
392.16	976.00
392.36	1039.20
392.55	1062.60
392.75	936.21
392.94	976.00
393.13	1008.77
393.33	964.30
393.52	1004.09
393.71	1011.11
393.91	1067.28
394.10	1114.10
394.29	1015.79
394.49	1076.65
394.68	1088.35
394.88	1090.69
395.07	1123.46
395.26	1109.41
395.46	1193.67
395.65	1111.75
395.84	1177.29
396.04	1156.22
396.23	1041.54
396.42	1053.24
396.62	1205.38
396.81	1086.01
397.00	1102.39
397.19	1233.46
397.39	1104.73
397.58	1252.19
397.77	1238.14
397.97	1324.74
398.16	1275.59
398.35	1350.49
398.55	1252.19
398.74	1392.62
398.93	1291.98
399.12	1362.19
399.32	1369.21
399.51	1280.27
399.70	1315.38
399.90	1320.06
400.09	1413.68
400.28	1401.98
400.47	1467.52
400.67	1441.77
400.86	1497.94
401.05	1497.94
401.24	1469.86
401.44	1453.47
401.63	1511.99
401.82	1558.80
402.01	1495.60
402.21	1542.41
402.40	1542.41
402.59	1521.35
402.78	1582.20
402.97	1617.31
403.17	1533.05
403.36	1640.72
403.55	1640.72
403.74	1610.29
403.93	1678.16
404.13	1645.40
404.32	1614.97
404.51	1671.14
404.70	1732.00
404.89	1767.10
405.09	1851.36
405.28	1612.63
405.47	1727.32
405.66	1820.94
405.85	1790.51
406.05	1720.29
406.24	1645.40
406.43	1804.55
406.62	1851.36
406.81	1893.49
407.00	1809.23
407.20	1956.69
407.39	1813.92
407.58	1853.70
407.77	1937.96
407.96	1998.82
408.15	1963.71
408.34	1905.20
408.54	1898.17
408.73	1966.05
408.92	2087.76
409.11	2003.50
409.30	2136.91
409.49	2022.22
409.68	2038.61
409.87	1980.09
410.07	2101.80
410.26	2167.34
410.45	2106.48
410.64	2228.19
410.83	2235.21
411.02	2143.93
411.21	2263.30
411.40	2202.44
411.59	2328.83
411.78	2249.25
411.98	2356.92
412.17	2389.69
412.36	2359.26
412.55	2328.83
412.74	2392.03
412.93	2434.16
413.12	2394.37
413.31	2448.20
413.50	2307.77
413.69	2555.86
413.88	2530.12
414.07	2537.14
414.26	2635.44
414.45	2715.02
414.64	2684.59
414.83	2689.28
415.02	2679.91
415.22	2752.47
415.41	2771.19
415.60	2906.95
415.79	2733.75
415.98	2918.65
416.17	2888.22
416.36	2895.24
416.55	2895.24
416.74	2855.45
416.93	2860.13
417.12	2897.58
417.31	3016.95
417.50	2998.23
417.69	3061.42
417.88	3028.65
418.07	3122.27
418.26	3215.90
418.45	3101.21
418.64	3211.22
418.83	3159.72
419.02	3145.68
419.21	3098.87
419.39	3213.56
419.58	3143.34
419.77	3063.76
419.96	3286.11
420.15	3225.26
420.34	3330.58
420.53	3398.46
420.72	3377.39
420.91	3307.18
421.10	3236.96
421.29	3396.12
421.48	3377.39
421.67	3442.93
421.86	3475.70
422.05	3595.06
422.24	3449.95
422.43	3419.52
422.61	3405.48
422.80	3686.34
422.99	3454.63
423.18	3440.59
423.37	3550.59
423.56	3592.72
423.75	3609.11
423.94	3424.20
424.13	3288.45
424.32	3384.41
424.50	3550.59
424.69	3592.72
424.88	3613.79
425.07	3510.80
425.26	3478.04
425.45	3529.53
425.64	3585.70
425.83	3527.19
426.01	3606.77
426.20	3503.78
426.39	3555.27
426.58	3590.38
426.77	3536.55
426.96	3592.72
427.15	3592.72
427.33	3669.96
427.52	3693.37
427.71	3719.11
427.90	3698.05
428.09	3679.32
428.28	3761.24
428.46	3803.37
428.65	3744.86
428.84	3887.63
429.03	3932.10
429.22	3733.15
429.40	3904.01
429.59	3822.09
429.78	3737.84
429.97	3618.47
430.16	3695.71
430.34	3761.24
430.53	3885.29
430.72	3988.27
430.91	3770.60
431.10	3857.20
431.28	4035.08
431.47	4173.18
431.66	4133.39
431.85	4098.28
432.03	4121.68
432.22	4177.86
432.41	4173.18
432.60	4140.41
432.79	4102.96
432.97	4266.80
433.16	4299.56
433.35	4255.09
433.54	4217.65
433.72	4250.41
433.91	4283.18
434.10	4287.86
434.28	4313.61
434.47	4271.48
434.66	4423.61
434.85	4489.15
435.03	4353.40
435.22	4465.74
435.41	4599.15
435.59	4461.06
435.78	4624.90
435.97	4739.58
436.16	4760.65
436.34	4599.15
436.53	4489.15
436.72	4755.97
436.90	4676.39
437.09	4690.43
437.28	4620.22
437.46	4699.80
437.65	4695.11
437.84	4669.37
438.02	4517.23
438.21	4662.35
438.40	4589.79
438.58	4882.36
438.77	4830.87
438.96	5069.60
439.14	4968.96
439.33	5100.03
439.52	5132.79
439.70	5172.58
439.89	5053.22
440.08	4997.04
440.26	5210.03
440.45	5217.05
440.63	5158.54
440.82	5481.53
441.01	5341.10
441.19	5366.85
441.38	5448.77
441.57	5303.65
441.75	5434.72
441.94	5626.65
442.12	5682.82
442.31	5535.37
442.50	5717.93
442.68	5549.41
442.87	5633.67
443.05	5715.59
443.24	5685.16
443.43	5720.27
443.61	5799.85
443.80	5844.32
443.98	5617.29
444.17	5612.60
444.35	5823.25
444.54	6045.60
444.73	5832.62
444.91	5834.96
445.10	5928.58
445.28	5788.14
445.47	5696.86
445.65	5668.78
445.84	5727.29
446.02	5874.74
446.21	5858.36
446.39	5858.36
446.58	6043.26
446.77	5909.85
446.95	5813.89
447.14	5940.28
447.32	5928.58
447.51	6038.58
447.69	5902.83
447.88	6150.93
448.06	5961.34
448.25	5966.03
448.43	6174.33
448.62	5982.41
448.80	5959.00
448.99	6047.94
449.17	6176.67
449.36	6097.10
449.54	6356.90
449.73	6340.51
449.91	6317.11
450.10	6438.81
450.28	6572.22
450.46	6401.37
450.65	6546.48
450.83	6387.32
451.02	6422.43
451.20	6368.60
451.39	6539.46
451.57	6438.81
451.76	6363.92
451.94	6569.88
452.13	6487.96
452.31	6553.50
452.49	6532.44
452.68	6420.09
452.86	6389.66
453.05	6583.93
453.23	6539.46
453.42	6527.75
453.60	6525.41
453.78	6684.57
453.97	6747.76
454.15	6640.10
454.34	6637.76
454.52	6827.34
454.70	6726.70
454.89	6658.82
455.07	6789.89
455.26	6693.93
455.44	6972.46
455.62	6881.18
455.81	6932.67
455.99	7014.59
456.17	6995.86
456.36	7103.53
456.54	7201.83
456.73	7166.72
456.91	7382.05
457.09	7220.55
457.28	7435.88
457.46	7281.41
457.64	7304.81
457.83	7169.06
458.01	7206.51
458.19	7480.35
458.38	7440.56
458.56	7300.13
458.74	7232.26
458.93	7489.71
459.11	7447.58
459.29	7602.06
459.48	7700.36
459.66	7403.11
459.84	7506.10
460.03	7810.37
460.21	7733.13
460.39	7768.24
460.57	7782.28
460.76	7754.19
460.94	7641.85
461.12	7918.03
461.31	7768.24
461.49	7723.77
461.67	7805.69
461.85	7988.25
462.04	7798.66
462.22	8418.91
462.40	8255.07
462.59	7946.12
462.77	8021.02
462.95	8081.87
463.13	8037.40
463.32	8002.29
463.50	8098.25
463.68	8229.32
463.86	8100.59
464.05	8032.72
464.23	7981.23
464.41	8121.66
464.59	8009.31
464.78	8329.97
464.96	8044.42
465.14	8252.73
465.32	8119.32
465.50	8395.50
465.69	8414.23
465.87	8163.79
466.05	8407.20
466.23	8145.06
466.41	8425.93
466.60	8676.37
466.78	8226.98
466.96	8437.63
467.14	8346.35
467.32	8526.57
467.51	8667.00
467.69	8308.90
467.87	8655.30
468.05	8650.62
468.23	8439.97
468.41	8521.89
468.60	8816.80
468.78	8587.43
468.96	8627.21
469.14	8725.52
469.32	8940.85
469.50	8636.58
469.69	8786.37
469.87	9043.83
470.05	8940.85
470.23	9067.24
470.41	8762.97
470.59	9055.53
470.77	8945.53
470.95	9043.83
471.14	9074.26
471.32	9167.88
471.50	9305.97
471.68	9303.63
471.86	9282.56
472.04	9444.06
472.22	9444.06
472.40	9282.56
472.58	9394.91
472.77	9404.27
472.95	9563.43
473.13	10010.47
473.31	9631.30
473.49	9448.74
473.67	9657.05
473.85	9788.12
474.03	9823.23
474.21	9867.70
474.39	10061.96
474.57	9909.83
474.75	10033.88
474.93	10106.43
475.12	10181.33
475.30	10249.21
475.48	10115.80
475.66	10296.02
475.84	10443.47
476.02	10342.83
476.20	10560.50
476.38	10644.76
476.56	10729.02
476.74	10640.08
476.92	10626.03
477.10	10934.98
477.28	11080.10
477.46	11073.07
477.64	11115.20
477.82	11101.16
478.00	11501.39
478.18	11342.24
478.36	11405.43
478.54	11719.06
478.72	11520.12
478.90	11676.93
479.08	11913.33
479.26	11854.81
479.44	11899.28
479.62	11927.37
479.80	11918.01
479.98	12208.23
480.16	12327.60
480.34	12226.96
480.52	12411.86
480.70	12241.00
480.88	12332.28
481.06	12676.34
481.24	12659.96
481.41	12882.31
481.59	12945.50
481.77	13046.15
481.95	13146.79
482.13	13289.56
482.31	13078.91
482.49	13554.04
482.67	13715.54
482.85	13652.34
483.03	13900.44
483.21	13923.85
483.39	14031.51
483.57	14097.05
483.74	14097.05
483.92	14188.33
484.10	14286.63
484.28	14698.56
484.46	14691.54
484.64	14815.59
484.82	14647.07
485.00	15047.30
485.18	15126.88
485.35	15051.99
485.53	14988.79
485.71	15044.96
485.89	15227.53
486.07	15124.54
486.25	15358.60
486.43	15295.40
486.61	15941.39
486.78	15819.68
486.96	16074.80
487.14	16145.02
487.32	16198.85
487.50	16329.92
487.68	16620.14
487.85	16922.07
488.03	16989.95
488.21	17184.21
488.39	17013.35
488.57	17289.54
488.75	17287.20
488.92	17554.02
489.10	17364.43
489.28	17797.43
489.46	17951.91
489.64	18214.05
489.81	18520.66
489.99	18185.96
490.17	18696.20
490.35	18806.20
490.53	18820.25
490.70	19014.51
490.88	18764.07
491.06	19183.03
491.24	18932.59
491.41	19215.80
491.59	19026.21
491.77	19023.87
491.95	19660.50
492.13	19403.04
492.30	19910.94
492.48	19857.10
492.66	20018.60
492.84	19915.62
493.01	19985.83
493.19	20624.80
493.37	20365.00
493.54	20554.58
493.72	20830.77
493.90	20954.82
494.08	20678.63
494.25	21048.44
494.43	21406.54
494.61	21642.93
494.79	21694.43
494.96	21209.93
495.14	21734.21
495.32	21898.05
495.49	21844.22
495.67	22064.23
495.85	22064.23
496.02	22436.38
496.20	22216.36
496.38	22707.88
496.55	22272.54
496.73	23047.26
496.91	22735.96
497.09	22883.42
497.26	23063.64
497.44	23166.62
497.62	23094.07
497.79	23583.24
497.97	23175.98
498.14	23648.77
498.32	23833.68
498.50	23889.85
498.67	23625.37
498.85	23758.78
499.03	24107.52
499.20	24173.05
499.38	24051.34
499.56	24535.84
499.73	24418.81
499.91	24456.26
500.08	24805.00
500.26	24304.12
500.44	24575.62
500.61	25223.95
500.79	24650.52
500.97	24954.79
501.14	25308.21
501.32	25298.85
501.49	25245.02
501.67	25324.60
501.84	25191.19
502.02	25282.47
502.20	25809.09
502.37	25706.10
502.55	25600.78
502.72	25874.62
502.90	25834.83
503.07	25923.77
503.25	25970.58
503.43	25823.13
503.60	26426.99
503.78	26019.74
503.95	26003.35
504.13	26178.89
504.30	26448.05
504.48	26377.84
504.65	26593.17
504.83	27065.96
505.01	26941.91
505.18	26810.84
505.36	27012.12
505.53	27309.37
505.71	27335.12
505.88	27714.28
506.06	27297.67
506.23	27613.64
506.41	27431.08
506.58	27349.16
506.76	27721.30
506.93	27665.13
507.11	27658.11
507.28	27934.29
507.46	27859.40
507.63	27992.81
507.81	28350.91
507.98	27852.38
508.16	28350.91
508.33	28615.39
508.50	28776.89
508.68	28519.43
508.85	28837.74
509.03	28498.36
509.20	28582.62
509.38	28980.51
509.55	29198.18
509.73	29338.62
509.90	29570.33
510.08	29139.67
510.25	29411.17
510.42	29415.85
510.60	29682.67
510.77	29413.51
510.95	29694.38
511.12	29773.95
511.30	29476.71
511.47	29820.77
511.64	30293.55
511.82	30314.62
511.99	30185.89
512.17	30216.32
512.34	29879.28
512.51	30670.38
512.69	30642.29
512.86	30876.35
513.04	30778.04
513.21	30508.88
513.38	30974.65
513.56	30794.43
513.73	30796.77
513.90	30600.16
514.08	30710.17
514.25	30974.65
514.43	31503.61
514.60	31131.47
514.77	31009.76
514.95	31646.38
515.12	30958.27
515.29	31302.32
515.47	31405.31
515.64	31194.66
515.81	31658.09
515.99	31665.11
516.16	31833.63
516.33	31861.71
516.51	31763.41
516.68	31381.90
516.85	31639.36
517.03	31803.20
517.20	31915.54
517.37	32299.39
517.54	32367.27
517.72	32439.82
517.89	32315.78
518.06	31814.90
518.24	32114.49
518.41	32397.70
518.58	32545.15
518.75	32313.44
518.93	32734.73
519.10	32613.02
519.27	32978.15
519.45	32975.81
519.62	33219.22
519.79	32933.68
519.96	33448.60
520.14	33359.66
520.31	33188.80
520.48	33654.56
520.65	33418.17
520.83	33558.60
521.00	33935.43
521.17	33823.08
521.34	33930.75
521.52	33717.76
521.69	33921.38
521.86	33792.65
522.03	33668.61
522.20	34462.05
522.38	34305.23
522.55	34504.18
522.72	33984.58
522.89	34286.51
523.07	34312.25
523.24	34403.53
523.41	35075.27
523.58	34565.03
523.75	34801.43
523.92	34836.53
524.10	34611.84
524.27	34859.94
524.44	35007.39
524.61	35150.17
524.78	35384.22
524.96	35072.93
525.13	34986.33
525.30	35613.59
525.47	35669.76
525.64	35314.00
525.81	35688.49
525.98	35676.79
526.16	35491.88
526.33	35407.62
526.50	35749.34
526.67	35873.39
526.84	35667.42
527.01	35173.57
527.18	35749.34
527.36	36020.84
527.53	36062.97
527.70	36236.17
527.87	36577.89
528.04	36023.19
528.21	36416.40
528.38	36236.17
528.55	36313.41
528.72	36301.71
528.89	36657.47
529.07	36273.62
529.24	36617.68
529.41	36495.97
529.58	36837.69
529.75	36577.89
529.92	37024.93
530.09	36540.44
530.26	37350.27
530.43	36790.88
530.60	36882.16
530.77	37160.69
530.94	37406.44
531.11	36910.25
531.28	37078.77
531.46	36957.06
531.63	37579.64
531.80	37179.41
531.97	37132.60
532.14	37511.77
532.31	37404.10
532.48	37177.07
532.65	37783.27
532.82	37413.46
532.99	38022.00
533.16	37336.23
533.33	38101.58
533.50	38176.48
533.67	38384.79
533.84	37823.06
534.01	37390.06
534.18	37888.59
534.35	38010.30
534.52	38136.69
534.69	38288.82
534.86	38164.78
535.03	37900.29
535.20	38623.52
535.37	38550.96
535.54	38653.95
535.71	38160.09
535.88	38614.16
536.05	38412.87
536.22	38515.86
536.38	38628.20
536.55	38871.62
536.72	38869.28
536.89	38541.60
537.06	38754.59
537.23	38583.73
537.40	38752.25
537.57	38497.13
537.74	39007.37
537.91	38843.53
538.08	39091.63
538.25	39016.73
538.42	38796.72
538.59	39407.60
538.75	38852.89
538.92	38965.24
539.09	39674.42
539.26	39571.44
539.43	39463.77
539.60	39267.17
539.77	39367.81
539.94	39227.38
540.11	39501.22
540.28	39601.86
540.44	39426.32
540.61	39592.50
540.78	39335.04
540.95	39503.56
541.12	39456.75
541.29	39466.11
541.46	39786.77
541.62	39690.80
541.79	40046.57
541.96	39817.19
542.13	39718.89
542.30	39915.50
542.47	40226.79
542.63	40009.12
542.80	40027.84
542.97	40299.34
543.14	40732.34
543.31	40554.46
543.48	40421.05
543.64	40910.22
543.81	40488.93
543.98	40603.61
544.15	40825.96
544.32	40837.67
544.48	40821.28
544.65	40683.19
544.82	40444.46
544.99	41027.25
545.16	41027.25
545.32	40884.48
545.49	41188.75
545.66	41263.64
545.83	41256.62
546.00	41350.24
546.16	41074.06
546.33	41076.40
546.50	40861.07
546.67	41273.01
546.83	40327.43
547.00	41153.64
547.17	41195.77
547.34	40844.69
547.50	41628.77
547.67	41511.74
547.84	41603.02
548.00	41811.33
548.17	41769.20
548.34	41399.40
548.51	41392.37
548.67	41591.32
548.84	42003.25
549.01	41727.07
549.18	41354.93
549.34	41682.60
549.51	41858.14
549.68	41544.51
549.84	42029.00
550.01	42199.86
550.18	41937.72
550.34	41642.81
550.51	41628.77
550.68	41996.23
550.84	41764.52
551.01	42101.56
551.18	42052.41
551.34	42330.93
551.51	42401.14
551.68	41797.29
551.84	42019.64
552.01	42330.93
552.18	42543.92
552.34	42433.91
552.51	42265.39
552.68	42714.78
552.84	43042.45
553.01	42497.11
553.18	42429.23
553.34	42541.58
553.51	42471.36
553.67	42281.78
553.84	42593.07
554.01	42773.29
554.17	42625.84
554.34	42609.45
554.51	42562.64
554.67	42871.59
554.84	42815.42
555.00	43182.88
555.17	42880.95
555.33	42941.81
555.50	42808.40
555.67	42871.59
555.83	42803.72
556.00	42878.61
556.16	43419.28
556.33	43035.43
556.50	42857.55
556.66	43239.06
556.83	42972.24
556.99	43260.12
557.16	43725.89
557.32	43227.35
557.49	43449.70
557.65	43014.37
557.82	42981.60
557.98	43377.15
558.15	43281.19
558.32	43552.69
558.48	43028.41
558.65	43597.16
558.81	43461.41
558.98	43515.24
559.14	43129.05
559.31	43320.98
559.47	43686.10
559.64	43927.17
559.80	43721.21
559.97	43517.58
560.13	43386.51
560.30	43395.87
560.46	43676.74
560.63	43503.54
560.79	43922.49
560.96	44179.95
561.12	43545.67
561.29	43508.22
561.45	43625.25
561.61	43887.39
561.78	43800.79
561.94	43440.34
562.11	43770.36
562.27	43878.02
562.44	43658.01
562.60	43772.70
562.77	43416.94
562.93	43480.13
563.10	43709.50
563.26	43768.02
563.42	44135.48
563.59	44016.11
563.75	43828.87
563.92	43985.69
564.08	44119.10
564.24	44259.53
564.41	43810.15
564.57	43758.66
564.74	43997.39
564.90	43920.15
565.07	43782.06
565.23	43917.81
565.39	44020.80
565.56	44044.20
565.72	43903.77
565.88	44320.38
566.05	44313.36
566.21	43742.27
566.38	43885.04
566.54	43814.83
566.70	44271.23
566.87	44397.62
567.03	44041.86
567.19	44149.53
567.36	44179.95
567.52	44236.12
567.68	44563.80
567.85	44126.12
568.01	44542.74
568.17	44098.03
568.34	44308.68
568.50	43941.22
568.66	43611.20
568.83	44079.31
568.99	44093.35
569.15	44156.55
569.32	44168.25
569.48	43817.17
569.64	44304.00
569.81	44289.96
569.97	44439.75
570.13	44587.21
570.30	43959.94
570.46	44212.72
570.62	43983.35
570.78	44107.40
570.95	44039.52
571.11	44311.02
571.27	44306.34
571.43	44357.83
571.60	44676.15
571.76	44266.55
571.92	44624.65
572.09	44605.93
572.25	44421.03
572.41	44032.50
572.57	44556.78
572.74	44907.86
572.90	44767.43
573.06	44563.80
573.22	44329.75
573.38	44161.23
573.55	44142.50
573.71	44638.70
573.87	44451.45
574.03	43971.64
574.20	44093.35
574.36	44453.79
574.52	44795.51
574.68	44608.27
574.84	44825.94
575.01	44552.10
575.17	44722.96
575.33	44729.98
575.49	44289.96
575.65	44975.73
575.82	44945.31
575.98	44533.37
576.14	44942.97
576.30	44561.46
576.46	44748.70
576.62	44495.92
576.79	44348.47
576.95	44406.98
577.11	44261.87
577.27	44566.14
577.43	44542.74
577.59	44896.16
577.75	44964.03
577.92	44460.82
578.08	44516.99
578.24	44353.15
578.40	44493.58
578.56	44205.70
578.72	44353.15
578.88	45001.48
579.04	44917.22
579.21	44676.15
579.37	44367.20
579.53	44926.58
579.69	44437.41
579.85	44690.19
580.01	45111.49
580.17	44907.86
580.33	44898.50
580.49	45198.09
580.65	44655.08
580.82	44715.93
580.98	44751.04
581.14	44322.72
581.30	44921.90
581.46	44680.83
581.62	44521.67
581.78	44589.55
581.94	44760.40
582.10	44531.03
582.26	45104.46
582.42	44381.24
582.58	44924.24
582.74	44437.41
582.90	44755.72
583.06	44296.98
583.22	44788.49
583.38	44861.05
583.54	44872.75
583.70	44615.29
583.86	44587.21
584.02	44505.29
584.18	44825.94
584.34	45109.14
584.50	44463.16
584.66	44832.96
584.82	45003.82
584.98	45069.36
585.14	45085.74
585.30	44699.55
585.46	44502.95
585.62	44535.71
585.78	44884.45
585.94	44580.18
586.10	45127.87
586.26	44446.77
586.42	44718.28
586.58	45134.89
586.74	44954.67
586.90	44488.90
587.06	44556.78
587.22	44673.81
587.38	44957.01
587.54	44957.01
587.70	44851.69
587.86	44814.24
588.02	44528.69
588.18	45223.83
588.34	44535.71
588.49	44678.49
588.65	44442.09
588.81	44921.90
588.97	44856.37
589.13	44378.90
589.29	44762.75
589.45	45029.57
589.61	44982.76
589.77	45141.91
589.93	45294.05
590.08	45345.54
590.24	45020.20
590.40	45230.85
590.56	44961.69
590.72	45151.27
590.88	44465.50
591.04	45153.62
591.20	45179.36
591.35	45322.13
591.51	45298.73
591.67	44985.10
591.83	45118.51
591.99	45308.09
592.15	45055.31
592.31	45186.38
592.46	45315.11
592.62	44631.68
592.78	45125.53
592.94	44797.85
593.10	45015.52
593.26	45628.74
593.41	45322.13
593.57	44968.71
593.73	45123.19
593.89	45359.58
594.05	45153.62
594.20	45088.08
594.36	45237.87
594.52	45057.65
594.68	45413.41
594.84	45216.81
594.99	45497.67
595.15	44973.39
595.31	44942.97
595.47	44945.31
595.62	45464.91
595.78	45420.44
595.94	45333.84
596.10	45471.93
596.25	45148.93
596.41	44882.11
596.57	44856.37
596.73	45174.68
596.88	44781.47
597.04	44861.05
597.20	44994.46
597.36	45226.17
597.51	45476.61
597.67	45045.95
597.83	45258.94
597.99	45528.10
598.14	44973.39
598.30	45439.16
598.46	45434.48
598.61	45095.10
598.77	44882.11
598.93	45251.92
599.09	44928.92
599.24	45443.84
599.40	45382.99
599.56	45284.68
599.71	45174.68
599.87	45272.98
600.03	45340.86
600.18	45170.00
600.34	45347.88
600.50	45249.58
600.65	45408.73
600.81	45289.37
600.97	45364.26
601.12	45485.97
601.28	45425.12
601.44	45198.09
601.59	45420.44
601.75	45191.06
601.91	45034.25
602.06	44842.32
602.22	45380.65
602.37	45518.74
602.53	44952.33
602.69	45242.56
602.84	45418.10
603.00	45024.89
603.16	45340.86
603.31	45331.50
603.47	44896.16
603.62	44828.28
603.78	45462.57
603.94	45371.28
604.09	45542.14
604.25	45801.94
604.40	44966.37
604.56	45102.12
604.71	45340.86
604.87	44615.29
605.03	45233.19
605.18	45268.30
605.34	44903.18
605.49	45083.40
605.65	45127.87
605.80	45024.89
605.96	45123.19
606.12	45013.18
606.27	45518.74
606.43	45361.92
606.58	45294.05
606.74	44898.50
606.89	45207.45
607.05	44935.95
607.20	45172.34
607.36	45172.34
607.51	45460.23
607.67	44837.64
607.82	44687.85
607.98	44821.26
608.13	45036.59
608.29	45041.27
608.44	44666.78
608.60	44151.87
608.75	44296.98
608.91	44545.08
609.06	45003.82
609.22	45170.00
609.37	44596.57
609.53	44477.20
609.68	45160.64
609.84	44779.13
609.99	44678.49
610.15	44629.34
610.30	44924.24
610.46	44807.22
610.61	44105.06
610.76	44676.15
610.92	44905.52
611.07	44357.83
611.23	44755.72
611.38	44694.87
611.54	44271.23
611.69	44722.96
611.84	44531.03
612.00	44435.07
612.15	44495.92
612.31	44636.36
612.46	44397.62
612.62	44507.63
612.77	44547.42
612.92	44893.82
613.08	44294.64
613.23	44175.27
613.39	44484.22
613.54	44065.27
613.69	44421.03
613.85	44348.47
614.00	44414.01
614.15	44041.86
614.31	44409.32
614.46	44357.83
614.62	44023.14
614.77	43758.66
614.92	43728.23
615.08	44418.69
615.23	44222.08
615.38	43620.56
615.54	43697.80
615.69	44236.12
615.84	43758.66
616.00	44182.29
616.15	43798.44
616.30	43548.01
616.46	44091.01
616.61	43697.80
616.76	44044.20
616.92	43562.05
617.07	43426.30
617.22	43470.77
617.37	43842.92
617.53	43936.54
617.68	43791.42
617.83	43725.89
617.99	43810.15
618.14	43871.00
618.29	43833.55
618.45	43606.52
618.60	43655.67
618.75	44182.29
618.90	43580.78
619.06	43842.92
619.21	43892.07
619.36	43655.67
619.51	43660.35
619.67	43702.48
619.82	43576.09
619.97	43571.41
620.12	43601.84
620.28	42593.07
620.43	43206.29
620.58	43641.63
620.73	43255.44
620.89	43391.19
621.04	43248.42
621.19	43421.62
621.34	43269.48
621.49	43117.35
621.65	43124.37
621.80	43302.25
621.95	43185.22
622.10	42990.96
622.25	43175.86
622.41	42799.04
622.56	43049.47
622.71	43274.16
622.86	43110.33
623.01	43189.91
623.16	43084.58
623.32	42997.98
623.47	43199.27
623.62	43100.97
623.77	43054.15
623.92	42817.76
624.07	42745.20
624.23	42806.06
624.38	42848.19
624.53	42450.30
624.68	42628.18
624.83	42539.24
624.98	42667.97
625.13	42443.27
625.29	42646.90
625.44	42995.64
625.59	42373.06
625.74	42483.06
625.89	42265.39
626.04	42415.19
626.19	42094.53
626.34	42712.44
626.49	42466.68
626.65	41904.95
626.80	42270.08
626.95	42698.39
627.10	42267.73
627.25	42085.17
627.40	42017.30
627.55	41729.41
627.70	41832.39
627.85	42206.88
628.00	42124.96
628.15	42454.98
628.30	42293.48
628.45	42141.35
628.60	42337.95
628.76	42117.94
628.91	42024.32
629.06	41839.42
629.21	41703.67
629.36	41823.03
629.51	41497.70
629.66	41738.77
629.81	41434.50
629.96	41895.59
630.11	41778.56
630.26	41706.01
630.41	41727.07
630.56	41542.17
630.71	41230.88
630.86	41727.07
631.01	41422.80
631.16	41450.89
631.31	41230.88
631.46	41216.83
631.61	41380.67
631.76	41567.91
631.91	41184.07
632.06	41596.00
632.21	41624.09
632.36	41940.06
632.51	41228.54
632.66	41099.81
632.81	40664.47
632.96	41029.59
633.10	40952.35
633.25	41109.17
633.40	41141.94
633.55	41331.52
633.70	41165.34
633.85	40910.22
634.00	40957.03
634.15	41022.57
634.30	41312.80
634.45	41406.42
634.60	41228.54
634.75	40940.65
634.90	40973.42
635.05	41177.04
635.19	41090.44
635.34	41031.93
635.49	40875.12
635.64	40538.08
635.79	40299.34
635.94	40500.63
636.09	40711.28
636.24	40985.12
636.39	40627.02
636.53	40301.68
636.68	40320.41
636.83	40123.80
636.98	40811.92
637.13	39917.84
637.28	40374.24
637.43	40629.36
637.57	40493.61
637.72	40414.03
637.87	40517.01
638.02	40343.81
638.17	40231.47
638.32	39784.43
638.46	40191.68
638.61	40020.82
638.76	40123.80
638.91	40250.19
639.06	40074.65
639.20	40282.96
639.35	40339.13
639.50	40107.42
639.65	40404.67
639.80	39952.94
639.94	40346.15
640.09	40062.95
640.24	39508.24
640.39	39920.18
640.54	39601.86
640.68	39601.86
640.83	39463.77
640.98	39636.97
641.13	39695.49
641.27	40395.31
641.42	39777.40
641.57	40069.97
641.72	39976.35
641.86	39697.83
642.01	39555.05
642.16	39356.11
642.31	39519.95
642.45	39351.43
642.60	39337.38
642.75	39241.42
642.90	39604.20
643.04	39639.31
643.19	39283.55
643.34	39522.29
643.48	39636.97
643.63	39255.46
643.78	39435.69
643.93	39363.13
644.07	38883.32
644.22	39288.23
644.37	39131.42
644.51	38780.34
644.66	38873.96
644.81	39276.53
644.95	39442.71
645.10	38911.41
645.25	39112.69
645.39	39077.58
645.54	39358.45
645.69	39374.83
645.83	38602.46
645.98	39264.83
646.13	39047.16
646.27	38911.41
646.42	38806.08
646.57	39262.49
646.71	39007.37
646.86	38913.75
647.00	38866.94
647.15	39201.63
647.30	38778.00
647.44	38918.43
647.59	38667.99
647.74	38483.09
647.88	38813.10
648.03	38387.13
648.17	38401.17
648.32	38270.10
648.47	38258.40
648.61	38469.04
648.76	38766.29
648.90	38522.88
649.05	38993.32
649.20	38525.22
649.34	38588.41
649.49	38394.15
649.63	38387.13
649.78	38504.15
649.92	38635.22
650.07	38447.98
650.21	37813.70
650.36	38567.35
650.51	38106.26
650.65	39096.31
650.80	38728.84
650.94	38679.69
651.09	37926.04
651.23	37584.32
651.38	37935.40
651.52	38012.64
651.67	38096.90
651.81	38490.11
651.96	38054.77
652.10	37940.08
652.25	37900.29
652.39	37797.31
652.54	38040.73
652.68	37701.35
652.83	37832.42
652.97	37958.81
653.12	37991.58
653.26	37624.11
653.41	37729.44
653.55	37631.13
653.70	37266.01
653.84	37663.90
653.99	37773.91
654.13	37387.72
654.27	37324.52
654.42	37638.15
654.56	37453.25
654.71	37811.35
654.85	37387.72
655.00	37411.12
655.14	37689.65
655.29	37078.77
655.43	37399.42
655.57	36840.03
655.72	37219.20
655.86	37036.64
656.01	37137.28
656.15	37422.83
656.30	37251.97
656.44	37338.57
656.58	37036.64
656.73	37048.34
656.87	37048.34
657.01	36952.38
657.16	36980.46
657.30	36893.86
657.45	36718.32
657.59	37102.17
657.73	36788.54
657.88	36825.99
658.02	36917.27
658.16	36833.01
658.31	36725.35
658.45	37078.77
658.60	36659.81
658.74	36704.28
658.88	36634.06
659.03	36510.02
659.17	36226.81
659.31	36233.83
659.46	36201.07
659.60	36313.41
659.74	36620.02
659.89	36526.40
660.03	35763.39
660.17	36161.28
660.32	36266.60
660.46	36404.69
660.60	36463.21
660.74	36334.48
660.89	36219.79
661.03	35831.26
661.17	35885.09
661.32	36079.36
661.46	35639.34
661.60	35714.23
661.74	35669.76
661.89	35873.39
662.03	35999.78
662.17	35337.41
662.31	35374.86
662.46	35627.63
662.60	35592.53
662.74	35962.33
662.88	35915.52
663.03	35421.67
663.17	35634.66
663.31	35271.87
663.45	35037.82
663.60	35299.96
663.74	35147.82
663.88	34948.88
664.02	34494.82
664.17	35147.82
664.31	34553.33
664.45	34857.60
664.59	35000.37
664.73	34738.23
664.88	34780.36
665.02	34651.63
665.16	34576.73
665.30	34621.20
665.44	34485.45
665.59	34328.64
665.73	34583.76
665.87	34338.00
666.01	34270.12
666.15	34047.77
666.29	34508.86
666.44	34457.37
666.58	33940.11
666.72	34387.15
666.86	34469.07
667.00	34632.91
667.14	34171.82
667.28	33682.65
667.43	33949.47
667.57	33818.40
667.71	33399.44
667.85	33675.63
667.99	33600.73
668.13	33542.22
668.27	33394.76
668.41	33537.54
668.56	33649.88
668.70	33820.74
668.84	33359.66
668.98	33221.56
669.12	32921.98
669.26	33305.82
669.40	33163.05
669.54	33092.83
669.68	33469.66
669.82	33015.60
669.96	32854.10
670.10	32348.54
670.25	32893.89
670.39	33003.89
670.53	32575.58
670.67	32477.27
670.81	33036.66
670.95	32828.35
671.09	32622.39
671.23	32268.97
671.37	32512.38
671.51	32713.67
671.65	32456.21
671.79	32385.99
671.93	31817.24
672.07	31887.46
672.21	31892.14
672.35	31667.45
672.49	31857.03
672.63	31842.99
672.77	32287.69
672.91	31819.58
673.05	31665.11
673.19	31519.99
673.33	31278.92
673.47	31365.52
673.61	31199.34
673.75	31115.08
673.89	31077.63
674.03	30670.38
674.17	31288.28
674.31	30969.97
674.45	30972.31
674.59	30848.26
674.73	31782.13
674.87	30731.23
675.01	30452.71
675.15	30955.93
675.29	30696.13
675.43	30508.88
675.56	30581.44
675.70	30433.99
675.84	30480.80
675.98	28886.89
676.12	30309.94
676.26	30132.06
676.40	29792.68
676.54	29813.74
676.68	29802.04
676.82	29472.03
676.96	29876.94
677.10	29631.18
677.23	29385.43
677.37	29425.22
677.51	29495.43
677.65	29064.77
677.79	28910.30
677.93	29207.55
678.07	29043.71
678.21	28905.62
678.34	28826.04
678.48	28514.75
678.62	28493.68
678.76	28212.82
678.90	28184.73
679.04	28283.03
679.18	28503.04
679.31	27894.50
679.45	28032.60
679.59	27634.71
679.73	27789.18
679.87	28067.70
680.00	27906.21
680.14	27585.55
680.28	27559.81
680.42	26897.44
680.56	27559.81
680.70	27379.59
680.83	27442.78
680.97	26862.33
681.11	27089.36
681.25	26855.31
681.39	27180.64
681.52	26888.07
681.66	26820.20
681.80	26829.56
681.94	26714.87
682.07	26532.31
682.21	26251.45
682.35	26455.08
682.49	26452.73
682.62	26682.11
682.76	26019.74
682.90	26059.52
683.04	26345.07
683.17	25905.05
683.31	25764.62
683.45	25781.00
683.59	25638.23
683.72	25493.12
683.86	25549.29
684.00	25039.05
684.13	25523.54
684.27	25277.79
684.41	25350.34
684.55	25219.27
684.68	24664.57
684.82	24809.68
684.96	24847.13
685.09	24673.93
685.23	24629.46
685.37	24484.34
685.50	24636.48
685.64	24659.88
685.78	24603.71
685.91	24070.07
686.05	24081.77
686.19	23889.85
686.32	23880.49
686.46	23737.71
686.60	23215.77
686.73	23583.24
686.87	23339.82
687.01	23040.23
687.14	23002.78
687.28	23229.82
687.42	23154.92
687.55	23264.92
687.69	23007.47
687.82	22670.43
687.96	22799.16
688.10	22574.47
688.23	21942.52
688.37	22654.05
688.50	22387.22
688.64	22188.28
688.78	21942.52
688.91	22043.17
689.05	22068.91
689.18	22211.68
689.32	21640.59
689.46	22108.70
689.59	22015.08
689.73	22251.47
689.86	21549.31
690.00	21757.62
690.13	21820.81
690.27	21448.67
690.41	21467.39
690.54	21228.66
690.68	21170.15
690.81	20917.37
690.95	21043.76
691.08	20903.32
691.22	21076.52
691.35	20996.95
691.49	20821.41
691.62	21170.15
691.76	20879.92
691.89	20826.09
692.03	20512.46
692.16	20512.46
692.30	20283.08
692.43	20133.29
692.57	19892.21
692.70	20262.02
692.84	19978.81
692.97	20163.72
693.11	19646.46
693.24	19882.85
693.38	19765.82
693.51	19573.90
693.65	19693.27
693.78	19616.03
693.92	19243.88
694.05	19424.11
694.19	19262.61
694.32	19037.92
694.45	19295.38
694.59	18625.98
694.72	18845.99
694.86	19026.21
694.99	19030.90
695.13	18417.68
695.26	18230.43
695.39	18462.15
695.53	18302.99
695.66	18621.30
695.80	18569.81
695.93	18298.31
696.07	18267.88
696.20	18288.95
696.33	17940.21
696.47	18043.19
696.60	17989.36
696.73	17788.07
696.87	17596.15
697.00	17837.22
697.14	17514.23
697.27	17598.49
697.40	17577.42
697.54	17399.54
697.67	17099.95
697.80	17357.41
697.94	17331.67
698.07	17015.69
698.21	17099.95
698.34	16854.20
698.47	16823.77
698.61	16837.81
698.74	16528.86
698.87	16599.08
699.01	16329.92
699.14	16280.77
699.27	16102.89
699.40	16107.57
699.54	16430.56
699.67	15990.54
699.80	15999.90
699.94	16058.42
700.07	16159.06
700.20	15934.37
700.34	15824.36
700.47	16056.08
700.60	16166.08
700.73	16149.70
700.87	15791.59
701.00	15293.06
701.13	15653.50
701.26	15501.37
701.40	15391.36
701.53	15300.08
701.66	15569.24
701.79	15049.64
701.93	14855.38
702.06	14780.48
702.19	14672.82
702.32	14593.24
702.46	14733.67
702.59	14686.86
702.72	14810.91
702.85	14803.89
702.99	14906.87
703.12	14953.68
703.25	14752.40
703.38	14586.22
703.51	14375.57
703.65	14345.14
703.78	14164.92
703.91	14293.65
704.04	14160.24
704.17	14235.14
704.31	14026.83
704.44	13516.59
704.57	13741.29
704.70	13771.71
704.83	13914.48
704.96	13706.18
705.10	13837.25
705.23	13582.13
>>>>>End Processed Spectral Data<<<<<
