SpectraSuite Data File
++++++++++++++++++++++++++++++++++++
Date: Fri Oct 25 11:34:35 EDT 2013
User: price-jones
Dark Spectrum Present: No
Reference Spectrum Present: No
Number of Sampled Component Spectra: 1
Spectrometers: USB2+H05261
Integration Time (usec): 100000 (USB2+H05261)
Spectra Averaged: 1 (USB2+H05261)
Boxcar Smoothing: 0 (USB2+H05261)
Correct for Electrical Dark: No (USB2+H05261)
Strobe/Lamp Enabled: No (USB2+H05261)
Correct for Detector Non-linearity: No (USB2+H05261)
Correct for Stray Light: No (USB2+H05261)
Number of Pixels in Processed Spectrum: 2048
>>>>>Begin Processed Spectral Data<<<<<
365.73	241.08
365.92	241.08
366.12	241.08
366.32	215.33
366.52	191.92
366.72	152.13
366.91	187.24
367.11	191.92
367.31	119.37
367.51	161.50
367.70	170.86
367.90	224.69
368.10	205.97
368.30	194.26
368.49	243.42
368.69	238.73
368.89	189.58
369.09	163.84
369.28	238.73
369.48	187.24
369.68	159.16
369.87	217.67
370.07	285.55
370.27	318.31
370.47	355.76
370.66	498.53
370.86	510.24
371.06	500.87
371.25	477.47
371.45	589.82
371.65	601.52
371.84	641.31
372.04	580.45
372.24	547.69
372.44	526.62
372.63	589.82
372.83	564.07
373.03	573.43
373.22	557.05
373.42	575.77
373.62	629.60
373.81	664.71
374.01	645.99
374.21	657.69
374.40	636.63
374.60	617.90
374.79	655.35
374.99	655.35
375.19	671.73
375.38	638.97
375.58	643.65
375.78	636.63
375.97	660.03
376.17	699.82
376.37	615.56
376.56	589.82
376.76	648.33
376.95	674.07
377.15	667.05
377.35	678.76
377.54	732.59
377.74	629.60
377.93	613.22
378.13	671.73
378.33	777.06
378.52	709.18
378.72	706.84
378.91	746.63
379.11	667.05
379.31	702.16
379.50	685.78
379.70	709.18
379.89	718.54
380.09	702.16
380.28	645.99
380.48	704.50
380.68	739.61
380.87	732.59
381.07	777.06
381.26	713.86
381.46	784.08
381.65	713.86
381.85	807.48
382.04	744.29
382.24	788.76
382.43	739.61
382.63	730.25
382.83	807.48
383.02	786.42
383.22	807.48
383.41	847.27
383.61	772.38
383.80	840.25
384.00	699.82
384.19	851.96
384.39	784.08
384.58	744.29
384.78	809.83
384.97	779.40
385.17	835.57
385.36	709.18
385.56	809.83
385.75	779.40
385.95	737.27
386.14	798.12
386.34	868.34
386.53	917.49
386.72	858.98
386.92	835.57
387.11	882.38
387.31	877.70
387.50	835.57
387.70	786.42
387.89	748.97
388.09	870.68
388.28	851.96
388.48	933.87
388.67	940.90
388.86	938.55
389.06	957.28
389.25	919.83
389.45	940.90
389.64	1004.09
389.84	978.34
390.03	980.68
390.22	980.68
390.42	936.21
390.61	943.24
390.81	961.96
391.00	954.94
391.19	992.39
391.39	994.73
391.58	994.73
391.78	950.26
391.97	968.98
392.16	938.55
392.36	1104.73
392.55	1008.77
392.75	1102.39
392.94	1032.18
393.13	1032.18
393.33	1011.11
393.52	1078.99
393.71	1060.26
393.91	1039.20
394.10	1060.26
394.29	1064.94
394.49	1025.15
394.68	1088.35
394.88	1139.84
395.07	1104.73
395.26	1149.20
395.46	1060.26
395.65	1156.22
395.84	1116.44
396.04	1193.67
396.23	1163.25
396.42	1165.59
396.62	1179.63
396.81	1245.16
397.00	1238.14
397.19	1172.61
397.39	1196.01
397.58	1338.79
397.77	1242.82
397.97	1252.19
398.16	1238.14
398.35	1287.29
398.55	1252.19
398.74	1170.27
398.93	1242.82
399.12	1280.27
399.32	1238.14
399.51	1320.06
399.70	1303.68
399.90	1345.81
400.09	1242.82
400.28	1268.57
400.47	1266.23
400.67	1345.81
400.86	1413.68
401.05	1390.28
401.24	1385.60
401.44	1373.89
401.63	1296.66
401.82	1291.98
402.01	1373.89
402.21	1476.88
402.40	1355.17
402.59	1427.73
402.78	1359.85
402.97	1430.07
403.17	1591.56
403.36	1418.36
403.55	1392.62
403.74	1465.18
403.93	1451.13
404.13	1579.86
404.32	1511.99
404.51	1537.73
404.70	1521.35
404.89	1462.83
405.09	1586.88
405.28	1605.61
405.47	1689.87
405.66	1570.50
405.85	1654.76
406.05	1666.46
406.24	1741.36
406.43	1659.44
406.62	1729.66
406.81	1774.13
407.00	1659.44
407.20	1760.08
407.39	1799.87
407.58	1867.75
407.77	1825.62
407.96	1778.81
408.15	1755.40
408.34	1816.26
408.54	1851.36
408.73	1865.41
408.92	1839.66
409.11	1785.83
409.30	1846.68
409.49	1949.67
409.68	1907.54
409.87	1900.52
410.07	1987.11
410.26	1952.01
410.45	2059.67
410.64	1954.35
410.83	2050.31
411.02	2038.61
411.21	2129.89
411.40	2045.63
411.59	2162.66
411.78	2111.16
411.98	2092.44
412.17	2122.87
412.36	2331.17
412.55	2113.50
412.74	2204.78
412.93	2165.00
413.12	2190.74
413.31	2361.60
413.50	2396.71
413.69	2232.87
413.88	2324.15
414.07	2331.17
414.26	2263.30
414.45	2382.67
414.64	2420.11
414.83	2457.56
415.02	2565.23
415.22	2530.12
415.41	2420.11
415.60	2483.31
415.79	2623.74
415.98	2628.42
416.17	2551.18
416.36	2572.25
416.55	2670.55
416.74	2670.55
416.93	2703.32
417.12	2658.85
417.31	2754.81
417.50	2787.58
417.69	2843.75
417.88	2909.29
418.07	2743.11
418.26	2813.32
418.45	2874.18
418.64	2906.95
418.83	2930.35
419.02	2782.90
419.21	2963.12
419.39	2937.37
419.58	3002.91
419.77	2822.69
419.96	3023.97
420.15	3049.72
420.34	3148.02
420.53	3138.66
420.72	3045.04
420.91	3016.95
421.10	3080.14
421.29	3157.38
421.48	3105.89
421.67	3070.78
421.86	3185.47
422.05	3122.27
422.24	3148.02
422.43	3159.72
422.61	3232.28
422.80	3220.58
422.99	3227.60
423.18	3220.58
423.37	3361.01
423.56	3152.70
423.75	3225.26
423.94	3131.64
424.13	3059.08
424.32	3094.19
424.50	3304.84
424.69	3412.50
424.88	3304.84
425.07	3220.58
425.26	3265.05
425.45	3304.84
425.64	3274.41
425.83	3295.47
426.01	3358.67
426.20	3330.58
426.39	3239.30
426.58	3211.22
426.77	3262.71
426.96	3349.31
427.15	3431.23
427.33	3417.18
427.52	3449.95
427.71	3473.36
427.90	3445.27
428.09	3536.55
428.28	3496.76
428.46	3478.04
428.65	3538.89
428.84	3604.42
429.03	3632.51
429.22	3672.30
429.40	3616.13
429.59	3658.26
429.78	3445.27
429.97	3459.31
430.16	3618.47
430.34	3698.05
430.53	3782.31
430.72	3620.81
430.91	3658.26
431.10	3623.15
431.28	3847.84
431.47	3742.52
431.66	3831.46
431.85	3693.37
432.03	3889.97
432.22	3957.85
432.41	3899.33
432.60	3887.63
432.79	3698.05
432.97	3911.04
433.16	4070.19
433.35	3894.65
433.54	3950.82
433.72	4035.08
433.91	4007.00
434.10	4109.98
434.28	4007.00
434.47	4091.26
434.66	4067.85
434.85	4168.49
435.03	4297.22
435.22	4114.66
435.41	4212.96
435.59	4276.16
435.78	4140.41
435.97	4156.79
436.16	4400.21
436.34	4166.15
436.53	4327.65
436.72	4329.99
436.90	4301.90
437.09	4262.12
437.28	4196.58
437.46	4376.80
437.65	4379.14
437.84	4339.35
438.02	4421.27
438.21	4292.54
438.40	4521.92
438.58	4475.10
438.77	4550.00
438.96	4648.30
439.14	4617.88
439.33	4704.48
439.52	4762.99
439.70	4718.52
439.89	4770.01
440.08	4980.66
440.26	4755.97
440.45	4901.08
440.63	4788.74
440.82	5041.51
441.01	4849.59
441.19	4983.00
441.38	5050.88
441.57	4943.21
441.75	4975.98
441.94	5146.84
442.12	5186.63
442.31	5205.35
442.50	5158.54
442.68	5160.88
442.87	5343.44
443.05	5167.90
443.24	5432.38
443.43	5097.69
443.61	5296.63
443.80	5446.43
443.98	5062.58
444.17	5053.22
444.35	5348.12
444.54	5476.85
444.73	5460.47
444.91	5352.81
445.10	5504.94
445.28	5380.89
445.47	5511.96
445.65	5399.62
445.84	5474.51
446.02	5593.88
446.21	5458.13
446.39	5605.58
446.58	5486.22
446.77	5486.22
446.95	5301.31
447.14	5446.43
447.32	5434.72
447.51	5664.10
447.69	5486.22
447.88	5460.47
448.06	5540.05
448.25	5530.69
448.43	5535.37
448.62	5507.28
448.80	5502.60
448.99	5617.29
449.17	5607.92
449.36	5643.03
449.54	5685.16
449.73	5834.96
449.91	5753.04
450.10	5844.32
450.28	5907.51
450.46	5799.85
450.65	5804.53
450.83	5895.81
451.02	5909.85
451.20	6015.18
451.39	5907.51
451.57	5888.79
451.76	5949.64
451.94	5893.47
452.13	6054.97
452.31	6031.56
452.49	5966.03
452.68	5966.03
452.86	6047.94
453.05	5968.37
453.23	6179.01
453.42	6031.56
453.60	5994.11
453.78	6069.01
453.97	6017.52
454.15	6045.60
454.34	6071.35
454.52	6282.00
454.70	6473.92
454.89	6134.54
455.07	6354.55
455.26	6349.87
455.44	6296.04
455.62	6289.02
455.81	6263.27
455.99	6289.02
456.17	6511.37
456.36	6450.52
456.54	6464.56
456.73	6609.67
456.91	6712.66
457.09	6679.89
457.28	6759.47
457.46	6647.12
457.64	6700.95
457.83	6686.91
458.01	6724.36
458.19	6909.26
458.38	6752.45
458.56	6839.05
458.74	6815.64
458.93	6864.79
459.11	6925.65
459.29	6916.28
459.48	6993.52
459.66	6956.07
459.84	7016.93
460.03	7255.66
460.21	7129.27
460.39	6993.52
460.57	7042.67
460.76	7131.61
460.94	7258.00
461.12	7019.27
461.31	7047.35
461.49	7108.21
461.67	6991.18
461.85	7173.74
462.04	7356.30
462.22	7683.98
462.40	7552.91
462.59	7452.27
462.77	7241.62
462.95	7473.33
463.13	7398.43
463.32	7435.88
463.50	7372.69
463.68	7585.68
463.86	7751.85
464.05	7456.95
464.23	7487.37
464.41	7667.60
464.59	7590.36
464.78	7681.64
464.96	7527.16
465.14	7459.29
465.32	7597.38
465.50	7592.70
465.69	7927.39
465.87	7756.54
466.05	7782.28
466.23	7709.72
466.41	7716.75
466.60	7976.55
466.78	7768.24
466.96	7789.30
467.14	7920.37
467.32	7857.18
467.51	8039.74
467.69	7641.85
467.87	7901.65
468.05	7950.80
468.23	7948.46
468.41	7948.46
468.60	7932.08
468.78	8229.32
468.96	8056.12
469.14	8327.63
469.32	8217.62
469.50	8154.43
469.69	8212.94
469.87	8358.05
470.05	8170.81
470.23	8280.82
470.41	8379.12
470.59	8638.92
470.77	8351.03
470.95	8280.82
471.14	8606.15
471.32	8491.46
471.50	8779.35
471.68	8622.53
471.86	8695.09
472.04	8561.68
472.22	8802.75
472.40	8624.87
472.58	8772.33
472.77	8917.44
472.95	8905.74
473.13	9331.72
473.31	9064.89
473.49	9181.92
473.67	9013.40
473.85	9151.49
474.03	9179.58
474.21	9387.89
474.39	9235.75
474.57	9362.14
474.75	9497.89
474.93	9394.91
475.12	9425.34
475.30	9451.08
475.48	9444.06
475.66	9703.86
475.84	9650.03
476.02	9837.27
476.20	9982.38
476.38	9963.66
476.56	10054.94
476.74	10115.80
476.92	10061.96
477.10	9919.19
477.28	10178.99
477.46	10164.95
477.64	10272.61
477.82	10443.47
478.00	10401.34
478.18	10553.48
478.36	10881.15
478.54	10878.81
478.72	10956.05
478.90	11066.05
479.08	11073.07
479.26	11304.79
479.44	10927.96
479.62	11087.12
479.80	11309.47
479.98	11386.71
480.16	11669.91
480.34	11417.13
480.52	11702.68
480.70	11744.81
480.88	11707.36
481.06	11932.05
481.24	11782.26
481.41	12004.61
481.59	12072.48
481.77	12423.56
481.95	12463.35
482.13	12287.81
482.31	12472.71
482.49	12786.35
482.67	12484.42
482.85	12744.22
483.03	12837.84
483.21	12816.77
483.39	13048.49
483.57	13076.57
483.74	13263.82
483.92	13165.51
484.10	13256.79
484.28	13790.44
484.46	13647.66
484.64	13928.53
484.82	13710.86
485.00	13855.97
485.18	14083.00
485.35	14291.31
485.53	14256.20
485.71	14260.88
485.89	14682.18
486.07	14642.39
486.25	14675.16
486.43	14747.72
486.61	15082.41
486.78	15056.67
486.96	15049.64
487.14	15239.23
487.32	15204.12
487.50	15527.11
487.68	15557.54
487.85	15473.28
488.03	15878.19
488.21	16119.27
488.39	15981.18
488.57	16477.37
488.75	16423.54
488.92	16430.56
489.10	16531.20
489.28	16739.51
489.46	16833.13
489.64	16992.29
489.81	17373.80
489.99	17125.70
490.17	17345.71
490.35	17378.48
490.53	17542.32
490.70	17631.26
490.88	17582.10
491.06	17921.48
491.24	18190.64
491.41	18225.75
491.59	18347.46
491.77	18375.55
491.95	18743.01
492.13	18614.28
492.30	18642.37
492.48	18586.19
492.66	19044.94
492.84	18963.02
493.01	19255.59
493.19	18995.79
493.37	19192.39
493.54	19328.14
493.72	19616.03
493.90	19564.54
494.08	19674.54
494.25	20002.22
494.43	19976.47
494.61	19765.82
494.79	20362.66
494.96	20294.79
495.14	20407.13
495.32	20746.51
495.49	20538.20
495.67	20559.27
495.85	20475.01
496.02	21193.55
496.20	20903.32
496.38	21120.99
496.55	21113.97
496.73	21841.88
496.91	21652.30
497.09	21380.79
497.26	21561.02
497.44	21900.39
497.62	22043.17
497.79	21963.59
497.97	22235.09
498.14	22195.30
498.32	22565.10
498.50	22574.47
498.67	22712.56
498.85	22253.81
499.03	22841.29
499.20	22991.08
499.38	23019.17
499.56	22817.88
499.73	23428.76
499.91	23222.80
500.08	23751.76
500.26	23487.28
500.44	23477.91
500.61	23641.75
500.79	23316.42
500.97	23679.20
501.14	23850.06
501.32	24107.52
501.49	23754.10
501.67	24114.54
501.84	24086.45
502.02	24259.65
502.20	24467.96
502.37	24313.48
502.55	24514.77
502.72	24570.94
502.90	24753.51
503.07	24540.52
503.25	24910.32
503.43	24865.85
503.60	25106.93
503.78	25390.13
503.95	24980.54
504.13	24767.55
504.30	25170.12
504.48	25507.16
504.65	25502.48
504.83	25715.47
505.01	25860.58
505.18	25249.70
505.36	25584.40
505.53	25682.70
505.71	25979.95
505.88	26525.29
506.06	26017.40
506.23	26284.22
506.41	26223.36
506.58	26092.29
506.76	26345.07
506.93	26759.34
507.11	26501.89
507.28	26508.91
507.46	26850.63
507.63	26838.92
507.81	26771.05
507.98	26752.32
508.16	27168.94
508.33	27372.57
508.50	27117.45
508.68	27496.61
508.85	27080.00
509.03	27548.11
509.20	27637.05
509.38	27920.25
509.55	27751.73
509.73	27946.00
509.90	27821.95
510.08	27889.82
510.25	27887.48
510.42	28238.56
510.60	28400.06
510.77	28456.23
510.95	28236.22
511.12	28631.77
511.30	28053.66
511.47	28699.65
511.64	28973.49
511.82	29280.10
511.99	28505.38
512.17	28868.17
512.34	28933.70
512.51	29095.20
512.69	29460.32
512.86	29439.26
513.04	29256.70
513.21	29380.74
513.38	29553.94
513.56	29486.07
513.73	29699.06
513.90	29780.98
514.08	29745.87
514.25	29701.40
514.43	29933.11
514.60	30387.18
514.77	29820.77
514.95	30190.57
515.12	30094.61
515.29	30005.67
515.47	30305.26
515.64	30551.01
515.81	30412.92
515.99	30569.74
516.16	30991.03
516.33	30682.08
516.51	31058.91
516.68	30771.02
516.85	30925.50
517.03	30918.48
517.20	30965.29
517.37	31182.96
517.54	31072.95
517.72	31187.64
517.89	31548.08
518.06	31353.82
518.24	31353.82
518.41	31194.66
518.58	31552.76
518.75	31374.88
518.93	32027.89
519.10	31606.59
519.27	31658.09
519.45	31831.29
519.62	32355.57
519.79	31707.24
519.96	32163.64
520.14	32091.09
520.31	31978.74
520.48	32369.61
520.65	32208.11
520.83	32854.10
521.00	32538.13
521.17	32463.23
521.34	32753.46
521.52	32985.17
521.69	32755.80
521.86	33076.45
522.03	32744.09
522.20	33179.43
522.38	33390.08
522.55	33408.81
522.72	32870.48
522.89	33223.90
523.07	33813.72
523.24	33333.91
523.41	33912.02
523.58	33366.68
523.75	33635.84
523.92	33949.47
524.10	34043.09
524.27	33895.64
524.44	34235.02
524.61	34543.97
524.78	33867.55
524.96	34195.23
525.13	34246.72
525.30	34309.91
525.47	34338.00
525.64	34204.59
525.81	34227.99
525.98	34375.45
526.16	34174.16
526.33	34920.79
526.50	34892.71
526.67	34288.85
526.84	34838.87
527.01	34527.58
527.18	34759.30
527.36	34897.39
527.53	34953.56
527.70	35002.71
527.87	35040.16
528.04	34820.15
528.21	35042.50
528.38	35276.55
528.55	34801.43
528.72	35367.84
528.89	35372.52
529.07	35281.24
529.24	35344.43
529.41	35632.32
529.58	35470.82
529.75	35873.39
529.92	35749.34
530.09	35658.06
530.26	35601.89
530.43	35964.67
530.60	35821.90
530.77	35583.16
530.94	35501.25
531.11	35772.75
531.28	36039.57
531.46	36271.28
531.63	36512.36
531.80	36404.69
531.97	36613.00
532.14	36411.71
532.31	36163.62
532.48	36362.56
532.65	36561.51
532.82	36577.89
532.99	37209.84
533.16	36318.09
533.33	36687.90
533.50	37008.55
533.67	36760.45
533.84	36596.62
534.01	37277.71
534.18	36856.42
534.35	37207.50
534.52	36690.24
534.69	37656.88
534.86	37088.13
535.03	36893.86
535.20	37645.18
535.37	37053.02
535.54	37689.65
535.71	37457.93
535.88	37916.68
536.05	37467.30
536.22	37937.74
536.38	37682.62
536.55	37448.57
536.72	37771.57
536.89	37537.51
537.06	37581.98
537.23	37813.70
537.40	37511.77
537.57	37883.91
537.74	37652.20
537.91	38155.41
538.08	38445.64
538.25	37755.18
538.42	38225.63
538.59	38607.14
538.75	38103.92
538.92	38459.68
539.09	38520.54
539.26	38590.75
539.43	38462.02
539.60	38363.72
539.77	38740.55
539.94	38742.89
540.11	38836.51
540.28	38403.51
540.44	38443.30
540.61	38969.92
540.78	38359.04
540.95	38916.09
541.12	38869.28
541.29	38602.46
541.46	39206.31
541.62	38892.68
541.79	39133.76
541.96	39365.47
542.13	38770.97
542.30	39250.78
542.47	39480.16
542.63	39112.69
542.80	39683.78
542.97	39714.21
543.14	39672.08
543.31	39620.59
543.48	39754.00
543.64	39873.37
543.81	40020.82
543.98	39995.07
544.15	39700.17
544.32	39943.58
544.48	40023.16
544.65	39894.43
544.82	40233.81
544.99	39924.86
545.16	40325.09
545.32	40095.72
545.49	40257.21
545.66	40849.37
545.83	40739.36
546.00	40776.81
546.16	40531.06
546.33	40254.87
546.50	40425.73
546.67	40818.94
546.83	40399.99
547.00	40360.20
547.17	40692.55
547.34	40947.67
547.50	40610.64
547.67	41345.56
547.84	40938.31
548.00	40950.01
548.17	41027.25
548.34	40966.40
548.51	41301.09
548.67	40968.74
548.84	40865.75
549.01	41198.11
549.18	41263.64
549.34	41130.23
549.51	41481.31
549.68	41242.58
549.84	41312.80
550.01	41319.82
550.18	41298.75
550.34	40966.40
550.51	41839.42
550.68	41593.66
550.84	41322.16
551.01	41525.78
551.18	41254.28
551.34	41720.05
551.51	41645.15
551.68	41273.01
551.84	41668.56
552.01	41368.97
552.18	41668.56
552.34	41528.13
552.51	41998.57
552.68	41570.25
552.84	41813.67
553.01	42160.07
553.18	41933.04
553.34	42206.88
553.51	41972.83
553.67	42169.43
553.84	42244.33
554.01	42000.91
554.17	42183.48
554.34	42150.71
554.51	42440.93
554.67	42501.79
554.84	42143.69
555.00	42644.56
555.17	42176.45
555.33	42754.57
555.50	42330.93
555.67	42139.00
555.83	42466.68
556.00	42682.01
556.16	42642.22
556.33	42724.14
556.50	42792.01
556.66	42855.21
556.83	42380.08
556.99	42904.36
557.16	43061.18
557.32	43166.50
557.49	42972.24
557.65	42323.91
557.82	43140.75
557.98	42925.42
558.15	42663.28
558.32	42979.26
558.48	42632.86
558.65	43122.03
558.81	43065.86
558.98	43330.34
559.14	43325.66
559.31	42784.99
559.47	43152.46
559.64	43861.64
559.80	43480.13
559.97	43217.99
560.13	42958.19
560.30	43466.09
560.46	43882.70
560.63	43320.98
560.79	43674.40
560.96	43896.75
561.12	43517.58
561.29	43821.85
561.45	43372.47
561.61	43360.76
561.78	43758.66
561.94	43105.65
562.11	43964.62
562.27	43529.28
562.44	43620.56
562.60	43676.74
562.77	43903.77
562.93	43166.50
563.10	43770.36
563.26	43913.13
563.42	43950.58
563.59	43730.57
563.75	43419.28
563.92	43503.54
564.08	44168.25
564.24	44098.03
564.41	43510.56
564.57	43693.12
564.74	43681.42
564.90	43931.86
565.07	43414.60
565.23	43852.28
565.39	43878.02
565.56	43859.30
565.72	43945.90
565.88	44236.12
566.05	43831.21
566.21	43892.07
566.38	44154.21
566.54	44179.95
566.70	44416.35
566.87	44144.84
567.03	43786.74
567.19	44126.12
567.36	44055.90
567.52	44692.53
567.68	43973.98
567.85	44231.44
568.01	44547.42
568.17	44144.84
568.34	43990.37
568.50	44385.92
568.66	43934.20
568.83	44210.38
568.99	44065.27
569.15	44105.06
569.32	44058.24
569.48	44308.68
569.64	44648.06
569.81	44371.88
569.97	44442.09
570.13	44638.70
570.30	44629.34
570.46	44624.65
570.62	44296.98
570.78	44357.83
570.95	44603.59
571.11	44758.06
571.27	44678.49
571.43	44114.42
571.60	44502.95
571.76	44832.96
571.92	44535.71
572.09	44395.28
572.25	44545.08
572.41	44065.27
572.57	44460.82
572.74	44877.43
572.90	44739.34
573.06	44671.46
573.22	44891.48
573.38	44776.79
573.55	44601.25
573.71	45186.38
573.87	44645.72
574.03	44978.07
574.20	45006.16
574.36	44935.95
574.52	45104.46
574.68	44662.10
574.84	45059.99
575.01	44865.73
575.17	45109.14
575.33	44875.09
575.49	44924.24
575.65	44816.58
575.82	45038.93
575.98	44500.61
576.14	44673.81
576.30	45247.24
576.46	44641.04
576.62	44641.04
576.79	44598.91
576.95	44692.53
577.11	44704.23
577.27	44671.46
577.43	44903.18
577.59	44729.98
577.75	44692.53
577.92	44458.48
578.08	44893.82
578.24	44765.09
578.40	45291.71
578.56	44751.04
578.72	44797.85
578.88	44928.92
579.04	45013.18
579.21	44961.69
579.37	44837.64
579.53	44783.81
579.69	44886.79
579.85	44858.71
580.01	44793.17
580.17	44638.70
580.33	45090.42
580.49	45031.91
580.65	45008.50
580.82	44935.95
580.98	44692.53
581.14	44825.94
581.30	45212.13
581.46	44739.34
581.62	45270.64
581.78	44619.97
581.94	44989.78
582.10	44790.83
582.26	45244.90
582.42	44666.78
582.58	44926.58
582.74	44566.14
582.90	45153.62
583.06	44877.43
583.22	45083.40
583.38	45074.04
583.54	45144.25
583.70	44957.01
583.86	45478.95
584.02	44875.09
584.18	45127.87
584.34	45319.79
584.50	45329.16
584.66	45359.58
584.82	45263.62
584.98	45244.90
585.14	45291.71
585.30	45172.34
585.46	45083.40
585.62	44849.35
585.78	45071.70
585.94	44926.58
586.10	45404.05
586.26	45200.43
586.42	44776.79
586.58	44907.86
586.74	45181.70
586.90	44924.24
587.06	44596.57
587.22	45144.25
587.38	45361.92
587.54	45352.56
587.70	45247.24
587.86	45151.27
588.02	45043.61
588.18	45305.75
588.34	45305.75
588.49	45371.28
588.65	45055.31
588.81	45102.12
588.97	45610.02
589.13	44882.11
589.29	45198.09
589.45	45691.94
589.61	45413.41
589.77	45287.03
589.93	45649.81
590.08	45638.11
590.24	45762.15
590.40	45701.30
590.56	45741.09
590.72	45476.61
590.88	45158.30
591.04	45429.80
591.20	45553.85
591.35	45890.88
591.51	45883.86
591.67	45514.06
591.83	46028.98
591.99	45764.49
592.15	45322.13
592.31	45390.01
592.46	45254.26
592.62	45448.52
592.78	45961.10
592.94	45911.95
593.10	45837.05
593.26	45925.99
593.41	46167.07
593.57	45605.34
593.73	46167.07
593.89	45848.75
594.05	46300.48
594.20	45773.86
594.36	46354.31
594.52	46204.52
594.68	45544.48
594.84	45642.79
594.99	46181.11
595.15	46129.62
595.31	45904.93
595.47	45977.48
595.62	45741.09
595.78	45921.31
595.94	46181.11
596.10	45820.67
596.25	45792.58
596.41	46038.34
596.57	45659.17
596.73	46108.55
596.88	46279.41
597.04	45546.82
597.20	45968.12
597.36	46344.95
597.51	46092.17
597.67	45528.10
597.83	45305.75
597.99	45918.97
598.14	46052.38
598.30	46103.87
598.46	46146.00
598.61	45928.33
598.77	46263.03
598.93	45947.06
599.09	46263.03
599.24	46050.04
599.40	46258.35
599.56	46403.46
599.71	46150.68
599.87	46527.51
600.03	46050.04
600.18	45837.05
600.34	45916.63
600.50	46000.89
600.65	46066.42
600.81	46052.38
600.97	46040.68
601.12	46452.61
601.28	46197.49
601.44	45972.80
601.59	46270.05
601.75	46017.27
601.91	46326.22
602.06	46403.46
602.22	46127.28
602.37	46033.66
602.53	46171.75
602.69	46436.23
602.84	45858.12
603.00	46019.61
603.16	46024.29
603.31	45956.42
603.47	46138.98
603.62	45874.50
603.78	45956.42
603.94	46103.87
604.09	46082.81
604.25	46061.74
604.40	46195.15
604.56	46377.72
604.71	46518.15
604.87	45893.22
605.03	45745.77
605.18	45860.46
605.34	45783.22
605.49	45457.88
605.65	46473.68
605.80	45886.20
605.96	46036.00
606.12	46031.32
606.27	46127.28
606.43	45811.31
606.58	46089.83
606.74	46000.89
606.89	45853.44
607.05	46251.33
607.20	46265.37
607.36	45715.34
607.51	46101.53
607.67	45794.92
607.82	45928.33
607.98	45928.33
608.13	45923.65
608.29	46120.26
608.44	45909.61
608.60	45603.00
608.75	45804.28
608.91	46028.98
609.06	45521.08
609.22	46162.39
609.37	45521.08
609.53	46197.49
609.68	45776.20
609.84	45724.71
609.99	45752.79
610.15	45556.19
610.30	45930.67
610.46	45806.62
610.61	45537.46
610.76	46031.32
610.92	45521.08
611.07	45675.55
611.23	45656.83
611.38	45612.36
611.54	45951.74
611.69	46040.68
611.84	45443.84
612.00	45593.64
612.15	45378.31
612.31	45757.47
612.46	44996.80
612.62	45584.27
612.77	45694.28
612.92	45593.64
613.08	45771.52
613.23	45467.25
613.39	45631.08
613.54	45750.45
613.69	45624.06
613.85	45654.49
614.00	45713.00
614.15	45628.74
614.31	44889.13
614.46	45612.36
614.62	44942.97
614.77	45425.12
614.92	45401.71
615.08	45595.98
615.23	45738.75
615.38	45975.14
615.54	45202.77
615.69	45296.39
615.84	45272.98
616.00	45186.38
616.15	45495.33
616.30	45399.37
616.46	45401.71
616.61	44797.85
616.76	45207.45
616.92	45191.06
617.07	45069.36
617.22	44528.69
617.37	44781.47
617.53	45212.13
617.68	45045.95
617.83	45104.46
617.99	45343.20
618.14	45462.57
618.29	44921.90
618.45	44875.09
618.60	44547.42
618.75	44751.04
618.90	44751.04
619.06	44596.57
619.21	45027.23
619.36	44964.03
619.51	44727.64
619.67	44877.43
619.82	44949.99
619.97	44863.39
620.12	44727.64
620.28	44786.15
620.43	44886.79
620.58	44886.79
620.73	44509.97
620.89	44877.43
621.04	44678.49
621.19	44804.88
621.34	44762.75
621.49	44477.20
621.65	44737.00
621.80	44662.10
621.95	44514.65
622.10	44802.53
622.25	44418.69
622.41	44360.17
622.56	44238.47
622.71	44348.47
622.86	44168.25
623.01	44664.44
623.16	44442.09
623.32	44168.25
623.47	44102.71
623.62	44502.95
623.77	44301.66
623.92	44535.71
624.07	44414.01
624.23	44526.35
624.38	44289.96
624.53	43952.92
624.68	44037.18
624.83	44093.35
624.98	44329.75
625.13	44142.50
625.29	43840.57
625.44	43892.07
625.59	44219.74
625.74	44186.97
625.89	43871.00
626.04	43438.00
626.19	43583.12
626.34	43695.46
626.49	44044.20
626.65	43550.35
626.80	43386.51
626.95	43746.95
627.10	43416.94
627.25	43543.33
627.40	43611.20
627.55	43849.94
627.70	43276.51
627.85	43908.45
628.00	43440.34
628.15	43768.02
628.30	42834.14
628.45	43166.50
628.60	42801.38
628.76	43412.26
628.91	43428.64
629.06	43239.06
629.21	43182.88
629.36	43061.18
629.51	43409.92
629.66	43732.91
629.81	43126.71
629.96	43423.96
630.11	43044.79
630.26	43428.64
630.41	42899.68
630.56	42979.26
630.71	43110.33
630.86	42841.17
631.01	42932.45
631.16	42728.82
631.31	43042.45
631.46	42831.80
631.61	43435.66
631.76	43037.77
631.91	43091.60
632.06	43103.31
632.21	43103.31
632.36	42768.61
632.51	42897.34
632.66	43021.39
632.81	42689.03
632.96	42628.18
633.10	42230.29
633.25	42916.06
633.40	42740.52
633.55	42770.95
633.70	42244.33
633.85	42382.42
634.00	42440.93
634.15	42548.60
634.30	42359.02
634.45	42190.50
634.60	42328.59
634.75	42761.59
634.90	42480.72
635.05	42586.05
635.19	42660.94
635.34	42450.30
635.49	42391.78
635.64	42497.11
635.79	42178.79
635.94	42429.23
636.09	42117.94
636.24	42277.10
636.39	41839.42
636.53	42309.86
636.68	42129.64
636.83	41907.29
636.98	41883.89
637.13	41972.83
637.28	41937.72
637.43	41979.85
637.57	42288.80
637.72	41867.50
637.87	41881.55
638.02	42323.91
638.17	41797.29
638.32	42122.62
638.46	41757.50
638.61	41722.39
638.76	41701.32
638.91	41764.52
639.06	41406.42
639.20	41165.34
639.35	41617.07
639.50	41268.33
639.65	41514.08
639.80	41998.57
639.94	41457.91
640.09	41830.05
640.24	41881.55
640.39	41743.45
640.54	41399.40
640.68	41486.00
640.83	41586.64
640.98	41549.19
641.13	41478.97
641.27	41429.82
641.42	41380.67
641.57	41148.96
641.72	41387.69
641.86	41198.11
642.01	41202.79
642.16	40652.76
642.31	41109.17
642.45	41067.04
642.60	41092.79
642.75	41528.13
642.90	41462.59
643.04	40849.37
643.19	41111.51
643.34	40769.79
643.48	40823.62
643.63	40748.73
643.78	40414.03
643.93	41504.72
644.07	40966.40
644.22	41013.21
644.37	40746.39
644.51	41031.93
644.66	41174.70
644.81	41172.36
644.95	41053.00
645.10	40479.57
645.25	40891.50
645.39	40701.92
645.54	40201.04
645.69	40399.99
645.83	40521.69
645.98	40205.72
646.13	40133.17
646.27	40563.82
646.42	40348.50
646.57	40570.85
646.71	40715.96
646.86	40818.94
647.00	40877.46
647.15	40470.20
647.30	40254.87
647.44	40137.85
647.59	40521.69
647.74	39894.43
647.88	40751.07
648.03	40399.99
648.17	40933.63
648.32	40259.55
648.47	40304.02
648.61	40161.25
648.76	40505.31
648.90	39861.66
649.05	40175.30
649.20	40219.77
649.34	40495.95
649.49	39995.07
649.63	40299.34
649.78	40289.98
649.92	40158.91
650.07	40266.58
650.21	40402.33
650.36	40268.92
650.51	40018.48
650.65	39871.03
650.80	40060.61
650.94	40285.30
651.09	39789.11
651.23	39831.24
651.38	39597.18
651.52	39318.66
651.67	39482.50
651.81	39562.08
651.96	39990.39
652.10	39470.79
652.25	39360.79
652.39	39615.91
652.54	39435.69
652.68	39180.57
652.83	39335.04
652.97	39641.65
653.12	39498.88
653.26	39391.22
653.41	39466.11
653.55	39622.93
653.70	40016.14
653.84	39292.91
653.99	39379.51
654.13	39611.23
654.27	39234.40
654.42	39147.80
654.56	39131.42
654.71	39030.77
654.85	39550.37
655.00	39634.63
655.14	39529.31
655.29	39356.11
655.43	39428.66
655.57	38995.67
655.72	39089.29
655.86	39182.91
656.01	38541.60
656.15	38880.98
656.30	39056.52
656.44	38497.13
656.58	39349.09
656.73	39229.72
656.87	38555.64
657.01	38794.38
657.16	39255.46
657.30	38721.82
657.45	38511.17
657.59	38518.20
657.73	38719.48
657.88	39222.70
658.02	39178.23
658.16	38703.10
658.31	38962.90
658.45	38696.08
658.60	38581.39
658.74	38845.87
658.88	38396.49
659.03	38707.78
659.17	38469.04
659.31	38120.31
659.46	38234.99
659.60	38382.45
659.74	37818.38
659.89	38115.62
660.03	37418.14
660.17	38101.58
660.32	38244.35
660.46	37631.13
660.60	37427.51
660.74	37799.65
660.89	38078.18
661.03	37940.08
661.17	37361.97
661.32	37415.80
661.46	37762.20
661.60	37256.65
661.74	37308.14
661.89	37628.79
662.03	37408.78
662.17	37488.36
662.31	37385.38
662.46	37226.22
662.60	37027.28
662.74	37200.47
662.88	37156.00
663.03	36725.35
663.17	36566.19
663.31	36666.83
663.45	36999.19
663.60	36959.40
663.74	37024.93
663.88	36638.75
664.02	36823.65
664.17	36863.44
664.31	36701.94
664.45	36191.70
664.59	36706.62
664.73	36392.99
664.88	36357.88
665.02	35967.01
665.16	36526.40
665.30	36112.13
665.44	36100.42
665.59	35887.43
665.73	35938.93
665.87	35576.14
666.01	35981.06
666.15	36020.84
666.29	36107.44
666.44	35739.98
666.58	35847.64
666.72	35714.23
666.86	35578.48
667.00	35854.67
667.14	35531.67
667.28	35496.56
667.43	35648.70
667.57	36018.50
667.71	35761.05
667.85	35611.25
667.99	35187.61
668.13	34969.94
668.27	35138.46
668.41	34955.90
668.56	34808.45
668.70	34532.26
668.84	34618.86
668.98	34843.56
669.12	34429.28
669.26	35054.20
669.40	34675.04
669.54	34930.16
669.68	34586.10
669.82	34340.34
669.96	34120.33
670.10	34038.41
670.25	34284.17
670.39	34433.96
670.53	34401.19
670.67	33979.90
670.81	34284.17
670.95	33928.41
671.09	34242.04
671.23	33907.34
671.37	33635.84
671.51	34167.14
671.65	33907.34
671.79	33172.41
671.93	33584.35
672.07	33766.91
672.21	33647.54
672.35	33209.86
672.49	33191.14
672.63	33373.70
672.77	33528.17
672.91	33347.95
673.05	33029.64
673.19	32613.02
673.33	32713.67
673.47	32517.06
673.61	32505.36
673.75	32678.56
673.89	32463.23
674.03	32023.21
674.17	32025.55
674.31	32353.23
674.45	31945.97
674.59	32306.41
674.73	32257.26
674.87	31917.89
675.01	31922.57
675.15	31917.89
675.29	31683.83
675.43	31311.69
675.56	32002.14
675.70	31566.81
675.84	31213.38
675.98	30323.98
676.12	31665.11
676.26	31569.15
676.40	31269.56
676.54	30738.26
676.68	30986.35
676.82	30543.99
676.96	30801.45
677.10	31012.10
677.23	30541.65
677.37	30483.14
677.51	30625.91
677.65	30560.37
677.79	30066.52
677.93	30132.06
678.07	29933.11
678.21	29935.45
678.34	29598.41
678.48	30054.82
678.62	29860.55
678.76	29315.21
678.90	29275.42
679.04	29385.43
679.18	29759.91
679.31	29219.25
679.45	29242.65
679.59	29132.65
679.73	28865.83
679.87	29181.80
680.00	29151.37
680.14	28587.30
680.28	28636.45
680.42	28603.69
680.56	28369.63
680.70	28606.03
680.83	27978.76
680.97	28271.33
681.11	28371.97
681.25	27716.62
681.39	27861.74
681.52	27571.51
681.66	27721.30
681.80	26986.38
681.94	27161.92
682.07	27077.66
682.21	27283.62
682.35	27171.28
682.49	26995.74
682.62	26752.32
682.76	26890.41
682.90	27232.13
683.04	26944.25
683.17	26939.57
683.31	26506.57
683.45	26492.52
683.59	26321.66
683.72	26047.82
683.86	25984.63
684.00	25986.97
684.13	26146.12
684.27	25771.64
684.41	25965.90
684.55	25682.70
684.68	25848.88
684.82	25048.41
684.96	25352.68
685.09	25460.35
685.23	24835.42
685.37	25942.50
685.50	25289.49
685.64	25511.84
685.78	25156.08
685.91	24687.97
686.05	24542.86
686.19	24189.44
686.32	24318.17
686.46	24182.42
686.60	24163.69
686.73	24559.24
686.87	23929.64
687.01	24341.57
687.14	23594.94
687.28	23969.43
687.42	23889.85
687.55	23967.09
687.69	23814.95
687.82	23634.73
687.96	23517.70
688.10	23594.94
688.23	23559.83
688.37	23534.09
688.50	23194.71
688.64	23168.96
688.78	23035.55
688.91	22927.89
689.05	23051.94
689.18	22515.95
689.32	22766.39
689.46	22415.31
689.59	22679.79
689.73	22604.89
689.86	22864.69
690.00	22309.99
690.13	22387.22
690.27	22045.51
690.41	22190.62
690.54	21734.21
690.68	21949.54
690.81	21752.94
690.95	21376.11
691.08	21804.43
691.22	21584.42
691.35	21549.31
691.49	21369.09
691.62	21357.39
691.76	20847.15
691.89	20772.25
692.03	20851.83
692.16	20596.71
692.30	20783.96
692.43	20432.88
692.57	20393.09
692.70	20435.22
692.84	20067.75
692.97	20053.71
693.11	20081.80
693.24	19985.83
693.38	19852.42
693.51	19985.83
693.65	19756.46
693.78	19803.27
693.92	19564.54
694.05	19555.18
694.19	19494.32
694.32	19496.66
694.45	19555.18
694.59	19655.82
694.72	19524.75
694.86	19248.57
694.99	19009.83
695.13	18806.20
695.26	18611.94
695.39	18595.56
695.53	18705.56
695.66	18630.66
695.80	18546.40
695.93	18160.22
696.07	18366.18
696.20	17825.52
696.33	17844.24
696.47	17982.34
696.60	17841.90
696.73	17844.24
696.87	17741.26
697.00	17837.22
697.14	17694.45
697.27	17408.90
697.40	17673.39
697.54	17680.41
697.67	17467.42
697.80	17855.95
697.94	17216.98
698.07	17170.17
698.21	17139.74
698.34	16786.32
698.47	16673.98
698.61	16519.50
698.74	16453.97
698.87	16662.27
699.01	16500.78
699.14	16367.37
699.27	16184.80
699.40	16257.36
699.54	16624.83
699.67	16093.52
699.80	16280.77
699.94	15917.98
700.07	15908.62
700.20	16027.99
700.34	15988.20
700.47	15503.71
700.60	15925.00
700.73	15875.85
700.87	15414.77
701.00	15267.31
701.13	15365.62
701.26	15192.42
701.40	15112.84
701.53	15124.54
701.66	15035.60
701.79	14972.41
701.93	14841.34
702.06	14712.61
702.19	14796.87
702.32	14984.11
702.46	14913.89
702.59	14595.58
702.72	14621.33
702.85	14752.40
702.99	14483.24
703.12	14193.01
703.25	14153.22
703.38	14295.99
703.51	14286.63
703.65	13951.93
703.78	13734.26
703.91	13855.97
704.04	13820.86
704.17	13448.72
704.31	13879.38
704.44	13619.58
704.57	13675.75
704.70	13551.70
704.83	13411.27
704.96	13130.41
705.10	13254.45
705.23	13081.25
>>>>>End Processed Spectral Data<<<<<
