SpectraSuite Data File
++++++++++++++++++++++++++++++++++++
Date: Fri Oct 25 10:43:54 EDT 2013
User: price-jones
Dark Spectrum Present: No
Reference Spectrum Present: No
Number of Sampled Component Spectra: 1
Spectrometers: USB2+H05261
Integration Time (usec): 100000 (USB2+H05261)
Spectra Averaged: 1 (USB2+H05261)
Boxcar Smoothing: 0 (USB2+H05261)
Correct for Electrical Dark: No (USB2+H05261)
Strobe/Lamp Enabled: No (USB2+H05261)
Correct for Detector Non-linearity: No (USB2+H05261)
Correct for Stray Light: No (USB2+H05261)
Number of Pixels in Processed Spectrum: 2048
>>>>>Begin Processed Spectral Data<<<<<
365.73	102.98
365.92	102.98
366.12	102.98
366.32	9.36
366.52	32.77
366.72	21.06
366.91	0.00
367.11	14.04
367.31	18.72
367.51	28.09
367.70	60.85
367.90	53.83
368.10	100.64
368.30	30.43
368.49	44.47
368.69	58.51
368.89	9.36
369.09	23.41
369.28	0.00
369.48	119.37
369.68	84.26
369.87	107.66
370.07	114.69
370.27	133.41
370.47	84.26
370.66	440.02
370.86	430.66
371.06	503.22
371.25	458.74
371.45	362.78
371.65	505.56
371.84	444.70
372.04	442.36
372.24	496.19
372.44	498.53
372.63	505.56
372.83	493.85
373.03	491.51
373.22	540.66
373.42	559.39
373.62	615.56
373.81	526.62
374.01	573.43
374.21	507.90
374.40	559.39
374.60	514.92
374.79	580.45
374.99	601.52
375.19	580.45
375.38	615.56
375.58	573.43
375.78	589.82
375.97	587.47
376.17	575.77
376.37	606.20
376.56	601.52
376.76	667.05
376.95	571.09
377.15	655.35
377.35	622.58
377.54	732.59
377.74	622.58
377.93	660.03
378.13	627.26
378.33	688.12
378.52	627.26
378.72	692.80
378.91	606.20
379.11	631.94
379.31	627.26
379.50	535.98
379.70	706.84
379.89	674.07
380.09	671.73
380.28	798.12
380.48	706.84
380.68	678.76
380.87	657.69
381.07	695.14
381.26	791.10
381.46	732.59
381.65	755.99
381.85	718.54
382.04	746.63
382.24	748.97
382.43	772.38
382.63	634.29
382.83	755.99
383.02	772.38
383.22	849.61
383.41	751.31
383.61	791.10
383.80	940.90
384.00	837.91
384.19	809.83
384.39	828.55
384.58	772.38
384.78	819.19
384.97	854.30
385.17	793.44
385.36	844.93
385.56	812.17
385.75	805.14
385.95	856.64
386.14	908.13
386.34	896.43
386.53	833.23
386.72	809.83
386.92	870.68
387.11	840.25
387.31	840.25
387.50	898.77
387.70	957.28
387.89	842.59
388.09	887.06
388.28	992.39
388.48	957.28
388.67	917.49
388.86	891.74
389.06	1062.60
389.25	1078.99
389.45	1018.13
389.64	1067.28
389.84	997.07
390.03	1060.26
390.22	1025.15
390.42	1053.24
390.61	1001.75
390.81	1015.79
391.00	1078.99
391.19	1081.33
391.39	1093.03
391.58	1057.92
391.78	1043.88
391.97	1121.12
392.16	1060.26
392.36	1160.91
392.55	1020.47
392.75	1064.94
392.94	954.94
393.13	1062.60
393.33	1036.86
393.52	1029.84
393.71	1114.10
393.91	1104.73
394.10	1104.73
394.29	1170.27
394.49	1179.63
394.68	1226.44
394.88	1310.70
395.07	1315.38
395.26	1259.21
395.46	1256.87
395.65	1411.34
395.84	1291.98
396.04	1249.85
396.23	1186.65
396.42	1132.82
396.62	1231.12
396.81	1224.10
397.00	1289.64
397.19	1371.55
397.39	1369.21
397.58	1462.83
397.77	1479.22
397.97	1427.73
398.16	1462.83
398.35	1549.43
398.55	1469.86
398.74	1664.12
398.93	1664.12
399.12	1572.84
399.32	1544.75
399.51	1584.54
399.70	1603.27
399.90	1652.42
400.09	1720.29
400.28	1654.76
400.47	1694.55
400.67	1664.12
400.86	1687.53
401.05	1743.70
401.24	1694.55
401.44	1769.44
401.63	1715.61
401.82	1860.73
402.01	1849.02
402.21	1806.89
402.40	1902.86
402.59	1863.07
402.78	1849.02
402.97	1724.97
403.17	1900.52
403.36	1919.24
403.55	2033.93
403.74	1970.73
403.93	1947.33
404.13	1900.52
404.32	1926.26
404.51	2008.18
404.70	2054.99
404.89	1984.77
405.09	2026.90
405.28	2047.97
405.47	2040.95
405.66	2118.18
405.85	2057.33
406.05	2057.33
406.24	2113.50
406.43	2157.97
406.62	2118.18
406.81	2169.68
407.00	2064.35
407.20	2162.66
407.39	2202.44
407.58	2225.85
407.77	2232.87
407.96	2277.34
408.15	2399.05
408.34	2305.43
408.54	2338.20
408.73	2361.60
408.92	2455.22
409.11	2338.20
409.30	2410.75
409.49	2370.96
409.68	2380.32
409.87	2443.52
410.07	2487.99
410.26	2513.74
410.45	2476.29
410.64	2551.18
410.83	2665.87
411.02	2651.83
411.21	2689.28
411.40	2670.55
411.59	2600.34
411.78	2733.75
411.98	2668.21
412.17	2789.92
412.36	2733.75
412.55	2874.18
412.74	2925.67
412.93	2920.99
413.12	2822.69
413.31	2953.76
413.50	2918.65
413.69	2981.84
413.88	3026.31
414.07	2963.12
414.26	3080.14
414.45	3000.57
414.64	3117.59
414.83	3169.09
415.02	3197.17
415.22	3119.93
415.41	3400.80
415.60	3279.09
415.79	3246.32
415.98	3496.76
416.17	3351.65
416.36	3445.27
416.55	3529.53
416.74	3468.67
416.93	3290.79
417.12	3375.05
417.31	3398.46
417.50	3506.12
417.69	3611.45
417.88	3557.61
418.07	3604.42
418.26	3669.96
418.45	3536.55
418.64	3653.58
418.83	3695.71
419.02	3623.15
419.21	3922.74
419.39	3728.47
419.58	3646.55
419.77	3737.84
419.96	3779.97
420.15	3805.71
420.34	4030.40
420.53	3920.40
420.72	3868.91
420.91	3941.46
421.10	3969.55
421.29	3927.42
421.48	4021.04
421.67	4224.67
421.86	4007.00
422.05	3974.23
422.24	3913.38
422.43	3920.40
422.61	3850.18
422.80	4133.39
422.99	4156.79
423.18	4105.30
423.37	4219.99
423.56	4264.46
423.75	4107.64
423.94	3985.93
424.13	3925.08
424.32	4133.39
424.50	4194.24
424.69	4044.45
424.88	4028.06
425.07	4032.74
425.26	3960.19
425.45	4119.34
425.64	4007.00
425.83	4095.94
426.01	4166.15
426.20	4264.46
426.39	4156.79
426.58	3999.98
426.77	4159.13
426.96	4212.96
427.15	4107.64
427.33	4250.41
427.52	4152.11
427.71	4236.37
427.90	4264.46
428.09	4276.16
428.28	4449.36
428.46	4428.29
428.65	4503.19
428.84	4407.23
429.03	4514.89
429.22	4121.68
429.40	4114.66
429.59	4170.83
429.78	4161.47
429.97	4128.70
430.16	4273.82
430.34	4379.14
430.53	4341.69
430.72	4248.07
430.91	4196.58
431.10	4641.28
431.28	4755.97
431.47	4793.42
431.66	4971.30
431.85	4877.68
432.03	4739.58
432.22	4828.53
432.41	4919.81
432.60	4830.87
432.79	4917.47
432.97	5043.85
433.16	4919.81
433.35	5025.13
433.54	4936.19
433.72	5011.09
433.91	4966.62
434.10	4873.00
434.28	5085.98
434.47	5004.07
434.66	5130.45
434.85	5195.99
435.03	5022.79
435.22	5085.98
435.41	5301.31
435.59	5364.51
435.78	5231.10
435.97	5343.44
436.16	5163.22
436.34	5277.91
436.53	5397.28
436.72	5500.26
436.90	5238.12
437.09	5364.51
437.28	5371.53
437.46	5373.87
437.65	5490.90
437.84	5570.48
438.02	5313.02
438.21	5320.04
438.40	5453.45
438.58	5575.16
438.77	5736.65
438.96	5636.01
439.14	5832.62
439.33	5778.78
439.52	5832.62
439.70	5914.53
439.89	6045.60
440.08	5839.64
440.26	6122.84
440.45	6038.58
440.63	6010.50
440.82	6272.64
441.01	6092.41
441.19	6256.25
441.38	6235.19
441.57	6342.85
441.75	6242.21
441.94	6595.63
442.12	6497.33
442.31	6579.25
442.50	6574.56
442.68	6621.38
442.87	6675.21
443.05	6670.53
443.24	6799.26
443.43	6726.70
443.61	6576.91
443.80	7033.31
443.98	6803.94
444.17	6438.81
444.35	6803.94
444.54	6972.46
444.73	6930.33
444.91	6888.20
445.10	6579.25
445.28	6874.15
445.47	6623.72
445.65	6684.57
445.84	6834.36
446.02	7077.78
446.21	6906.92
446.39	6860.11
446.58	7077.78
446.77	6780.53
446.95	6841.39
447.14	6869.47
447.32	7183.10
447.51	6841.39
447.69	6958.41
447.88	7138.63
448.06	6874.15
448.25	7124.59
448.43	7030.97
448.62	6949.05
448.80	6832.02
448.99	7096.50
449.17	7131.61
449.36	7059.06
449.54	7325.88
449.73	7400.77
449.91	7360.98
450.10	7414.82
450.28	7808.03
450.46	7616.10
450.65	7470.99
450.83	7585.68
451.02	7489.71
451.20	7604.40
451.39	7599.72
451.57	7681.64
451.76	7372.69
451.94	7492.05
452.13	7688.66
452.31	7363.33
452.49	7412.48
452.68	7442.90
452.86	7386.73
453.05	7602.06
453.23	7534.18
453.42	7641.85
453.60	7456.95
453.78	7719.09
453.97	7630.15
454.15	7772.92
454.34	7824.41
454.52	8051.44
454.70	7691.00
454.89	7824.41
455.07	7737.81
455.26	7985.91
455.44	8161.45
455.62	8093.57
455.81	8191.88
455.99	8126.34
456.17	8098.25
456.36	8159.11
456.54	8210.60
456.73	8219.96
456.91	8468.06
457.09	8444.65
457.28	8688.07
457.46	8311.24
457.64	8493.80
457.83	8519.55
458.01	8369.76
458.19	8379.12
458.38	8393.16
458.56	8716.16
458.74	8692.75
458.93	8622.53
459.11	8730.20
459.29	8547.64
459.48	8826.16
459.66	8664.66
459.84	8692.75
460.03	8901.06
460.21	8919.78
460.39	8908.08
460.57	8898.72
460.76	8961.91
460.94	8968.93
461.12	9104.68
461.31	8973.61
461.49	9055.53
461.67	8999.36
461.85	9109.36
462.04	9151.49
462.22	9301.29
462.40	9238.09
462.59	9151.49
462.77	9071.92
462.95	9476.83
463.13	9392.57
463.32	9242.78
463.50	9369.16
463.68	9411.29
463.86	9406.61
464.05	9238.09
464.23	9212.35
464.41	9383.21
464.59	9348.10
464.78	9561.09
464.96	9603.22
465.14	9329.38
465.32	9626.62
465.50	9612.58
465.69	9621.94
465.87	9741.31
466.05	9617.26
466.23	9465.13
466.41	9614.92
466.60	9820.89
466.78	9729.61
466.96	9659.39
467.14	9827.91
467.32	9727.27
467.51	9923.87
467.69	9727.27
467.87	9804.50
468.05	10061.96
468.23	9951.96
468.41	9846.63
468.60	9954.30
468.78	10033.88
468.96	9961.32
469.14	10237.50
469.32	10153.24
469.50	9980.04
469.69	10036.22
469.87	10211.76
470.05	10141.54
470.23	10319.42
470.41	10331.12
470.59	10120.48
470.77	10389.64
470.95	10382.62
471.14	10551.14
471.32	10324.10
471.50	10801.57
471.68	10611.99
471.86	10862.43
472.04	10956.05
472.22	10904.56
472.40	10815.62
472.58	10963.07
472.77	10782.85
472.95	11124.57
473.13	11028.60
473.31	10810.93
473.49	10951.37
473.67	10937.32
473.85	11253.30
474.03	11295.43
474.21	11169.04
474.39	11346.92
474.57	11463.94
474.75	11480.33
474.93	11536.50
475.12	11646.51
475.30	11566.93
475.48	11618.42
475.66	11782.26
475.84	11676.93
476.02	11943.75
476.20	11658.21
476.38	12030.35
476.56	12430.59
476.74	12107.59
476.92	12439.95
477.10	12533.57
477.28	12788.69
477.46	12624.85
477.64	12781.67
477.82	12727.83
478.00	13027.42
478.18	13114.02
478.36	13132.75
478.54	13247.43
478.72	13149.13
478.90	13226.37
479.08	13645.32
479.26	13544.68
479.44	13642.98
479.62	13682.77
479.80	13919.17
479.98	13846.61
480.16	14104.07
480.34	14057.26
480.52	14616.65
480.70	14087.68
480.88	14099.39
481.06	14471.53
481.24	14658.78
481.41	14822.61
481.59	14731.33
481.77	14810.91
481.95	15000.49
482.13	15178.37
482.31	15213.48
482.49	15545.84
482.67	15419.45
482.85	15592.65
483.03	15676.91
483.21	16030.33
483.39	15810.32
483.57	15693.29
483.74	15962.45
483.92	16245.66
484.10	15894.58
484.28	16407.16
484.46	16393.11
484.64	16781.64
484.82	16648.23
485.00	16758.24
485.18	16980.59
485.35	16975.91
485.53	16903.35
485.71	16573.33
485.89	16917.39
486.07	17020.38
486.25	17198.26
486.43	17331.67
486.61	17872.33
486.78	17631.26
486.96	18071.28
487.14	18452.78
487.32	18274.90
487.50	18401.29
487.68	18911.53
487.85	19475.60
488.03	19332.82
488.21	19166.65
488.39	19529.43
488.57	19466.24
488.75	19702.63
488.92	19913.28
489.10	20252.66
489.28	19981.15
489.46	20383.73
489.64	20336.91
489.81	20798.00
489.99	20971.20
490.17	21013.33
490.35	21186.53
490.53	20931.41
490.70	21043.76
490.88	21238.02
491.06	21305.90
491.24	21539.95
491.41	21329.30
491.59	21535.27
491.77	21373.77
491.95	21626.55
492.13	22019.76
492.30	22331.05
492.48	22621.28
492.66	22438.72
492.84	22602.55
493.01	22707.88
493.19	22876.40
493.37	22787.46
493.54	23356.21
493.72	23503.66
493.90	23480.25
494.08	23662.82
494.25	24030.28
494.43	24215.18
494.61	24388.38
494.79	24229.23
494.96	24437.53
495.14	24376.68
495.32	24755.85
495.49	24592.01
495.67	24772.23
495.85	24809.68
496.02	25076.50
496.20	25221.61
496.38	25249.70
496.55	25558.65
496.73	26103.99
496.91	25572.69
497.09	25673.34
497.26	26115.70
497.44	26209.32
497.62	26015.05
497.79	26178.89
497.97	25839.51
498.14	26221.02
498.32	26590.83
498.50	26539.33
498.67	27033.19
498.85	27084.68
499.03	27253.20
499.20	26995.74
499.38	27119.79
499.56	27173.62
499.73	27414.69
499.91	27721.30
500.08	27796.20
500.26	27236.81
500.44	27747.05
500.61	27344.48
500.79	27381.93
500.97	27690.88
501.14	27735.35
501.32	27847.69
501.49	27992.81
501.67	27943.66
501.84	28371.97
502.02	28739.44
502.20	28257.29
502.37	28861.15
502.55	29034.35
502.72	29055.41
502.90	28938.38
503.07	29048.39
503.25	29247.33
503.43	28657.52
503.60	28744.12
503.78	28940.72
503.95	29163.08
504.13	29455.64
504.30	29551.60
504.48	29851.19
504.65	29846.51
504.83	29898.00
505.01	30115.67
505.18	30225.68
505.36	30169.51
505.53	30279.51
505.71	30527.61
505.88	30490.16
506.06	30476.12
506.23	30590.80
506.41	30745.28
506.58	30995.71
506.76	30888.05
506.93	30778.04
507.11	30920.82
507.28	30735.92
507.46	30616.55
507.63	31459.14
507.81	31000.40
507.98	31157.21
508.16	31321.05
508.33	31180.62
508.50	31920.23
508.68	31695.53
508.85	32018.53
509.03	31967.04
509.20	31852.35
509.38	32744.09
509.55	32044.27
509.73	32713.67
509.90	32500.68
510.08	32376.63
510.25	32229.18
510.42	32355.57
510.60	32086.40
510.77	33127.94
510.95	33153.69
511.12	32917.29
511.30	32910.27
511.47	33390.08
511.64	33570.30
511.82	33563.28
511.99	32886.87
512.17	33303.48
512.34	33457.96
512.51	33565.62
512.69	33514.13
512.86	33769.25
513.04	33727.12
513.21	33834.78
513.38	33649.88
513.56	34029.05
513.73	33436.89
513.90	34075.86
514.08	33965.85
514.25	34139.05
514.43	34480.77
514.60	34340.34
514.77	34242.04
514.95	34890.37
515.12	34565.03
515.29	34660.99
515.47	35147.82
515.64	34829.51
515.81	34981.65
515.99	34848.24
516.16	34953.56
516.33	34485.45
516.51	34838.87
516.68	34075.86
516.85	33963.51
517.03	34756.96
517.20	34668.02
517.37	35311.66
517.54	35634.66
517.72	35133.78
517.89	35201.66
518.06	34656.31
518.24	35072.93
518.41	35414.65
518.58	35782.11
518.75	35393.58
518.93	36261.92
519.10	36016.16
519.27	35929.56
519.45	36091.06
519.62	36627.04
519.79	36390.65
519.96	36428.10
520.14	36561.51
520.31	36275.96
520.48	36357.88
520.65	36282.98
520.83	36690.24
521.00	36858.76
521.17	36790.88
521.34	37420.48
521.52	37057.70
521.69	37081.11
521.86	37614.75
522.03	37251.97
522.20	37156.00
522.38	37907.32
522.55	37378.36
522.72	37223.88
522.89	37340.91
523.07	38115.62
523.24	37684.97
523.41	37897.95
523.58	37825.40
523.75	38565.01
523.92	38565.01
524.10	38199.88
524.27	38345.00
524.44	38593.09
524.61	38305.21
524.78	38204.56
524.96	38590.75
525.13	38773.31
525.30	39014.39
525.47	39100.99
525.64	38337.98
525.81	39028.43
525.98	38663.31
526.16	38792.04
526.33	38284.14
526.50	38527.56
526.67	38190.52
526.84	38600.12
527.01	38157.75
527.18	38527.56
527.36	39119.71
527.53	39227.38
527.70	39496.54
527.87	39225.04
528.04	39449.73
528.21	39594.84
528.38	39679.10
528.55	40076.99
528.72	39990.39
528.89	40341.47
529.07	39873.37
529.24	39632.29
529.41	40308.71
529.58	39814.85
529.75	39969.33
529.92	39981.03
530.09	40184.66
530.26	39988.05
530.43	40423.39
530.60	40034.86
530.77	40627.02
530.94	40912.56
531.11	40474.88
531.28	40975.76
531.46	40598.93
531.63	40809.58
531.80	40978.10
531.97	40346.15
532.14	40395.31
532.31	40020.82
532.48	40500.63
532.65	40767.45
532.82	40722.98
532.99	40594.25
533.16	40935.97
533.33	40830.65
533.50	41329.18
533.67	41127.89
533.84	41006.19
534.01	41390.03
534.18	41324.50
534.35	41425.14
534.52	41017.89
534.69	41247.26
534.86	41556.21
535.03	41530.47
535.20	42115.60
535.37	41998.57
535.54	41874.52
535.71	41806.65
535.88	41682.60
536.05	41612.38
536.22	41851.12
536.38	41900.27
536.55	41947.08
536.72	41762.18
536.89	41523.44
537.06	41628.77
537.23	42693.71
537.40	42054.75
537.57	42548.60
537.74	42424.55
537.91	42492.43
538.08	42359.02
538.25	42073.47
538.42	41862.82
538.59	42534.56
538.75	42092.19
538.92	42307.52
539.09	42127.30
539.26	42323.91
539.43	42438.59
539.60	42557.96
539.77	42249.01
539.94	42672.65
540.11	42143.69
540.28	42691.37
540.44	42438.59
540.61	42534.56
540.78	42623.50
540.95	42408.17
541.12	42597.75
541.29	42487.74
541.46	42834.14
541.62	42997.98
541.79	43292.89
541.96	42909.04
542.13	43196.93
542.30	42930.11
542.47	42997.98
542.63	43203.95
542.80	43505.88
542.97	43819.51
543.14	43473.11
543.31	43693.12
543.48	43798.44
543.64	44194.00
543.81	43873.34
543.98	44175.27
544.15	43658.01
544.32	43931.86
544.48	44378.90
544.65	43775.04
544.82	43992.71
544.99	43835.89
545.16	43669.72
545.32	43690.78
545.49	44619.97
545.66	44542.74
545.83	44498.26
546.00	44025.48
546.16	43814.83
546.33	44261.87
546.50	43997.39
546.67	44301.66
546.83	44020.80
547.00	44582.52
547.17	44528.69
547.34	44282.94
547.50	44334.43
547.67	44851.69
547.84	44512.31
548.00	44666.78
548.17	44940.63
548.34	44624.65
548.51	44940.63
548.67	44961.69
548.84	44762.75
549.01	44648.06
549.18	45153.62
549.34	44753.38
549.51	44966.37
549.68	44615.29
549.84	45024.89
550.01	45059.99
550.18	44622.31
550.34	44641.04
550.51	45132.55
550.68	45111.49
550.84	44629.34
551.01	44797.85
551.18	45483.63
551.34	45467.25
551.51	45148.93
551.68	45375.97
551.84	45116.17
552.01	45200.43
552.18	45631.08
552.34	44952.33
552.51	45291.71
552.68	45287.03
552.84	45806.62
553.01	45717.68
553.18	45090.42
553.34	45710.66
553.51	45727.05
553.67	45944.72
553.84	46092.17
554.01	45935.35
554.17	45804.28
554.34	45902.59
554.51	45762.15
554.67	45766.84
554.84	46115.58
555.00	45818.33
555.17	45537.46
555.33	45830.03
555.50	45801.94
555.67	45965.78
555.83	45986.85
556.00	45764.49
556.16	46089.83
556.33	45832.37
556.50	45708.32
556.66	45542.14
556.83	45567.89
556.99	45818.33
557.16	45977.48
557.32	46241.96
557.49	46473.68
557.65	46267.71
557.82	46082.81
557.98	46382.40
558.15	45951.74
558.32	46490.06
558.48	46319.20
558.65	46010.25
558.81	45579.59
558.98	46230.26
559.14	45762.15
559.31	46146.00
559.47	46368.35
559.64	46354.31
559.80	46174.09
559.97	46672.62
560.13	45937.69
560.30	46256.01
560.46	46389.42
560.63	46384.74
560.79	46562.62
560.96	46253.67
561.12	46494.74
561.29	46131.96
561.45	46115.58
561.61	46363.67
561.78	46101.53
561.94	45837.05
562.11	46579.00
562.27	45881.52
562.44	46351.97
562.60	46576.66
562.77	46579.00
562.93	46117.92
563.10	46796.67
563.26	46043.02
563.42	46588.36
563.59	46417.50
563.75	46806.03
563.92	46574.32
564.08	46443.25
564.24	46871.57
564.41	46789.65
564.57	46141.32
564.74	46770.93
564.90	46571.98
565.07	46176.43
565.23	46658.58
565.39	46473.68
565.56	46576.66
565.72	46211.54
565.88	46536.87
566.05	46387.08
566.21	46609.43
566.38	46808.37
566.54	46583.68
566.70	46747.52
566.87	47175.84
567.03	46925.40
567.19	47035.41
567.36	46773.27
567.52	46508.79
567.68	46836.46
567.85	46941.78
568.01	46934.76
568.17	46681.98
568.34	46937.10
568.50	46754.54
568.66	46515.81
568.83	46876.25
568.99	46630.49
569.15	46649.22
569.32	46813.05
569.48	46625.81
569.64	46761.56
569.81	46965.19
569.97	46443.25
570.13	46665.60
570.30	46043.02
570.46	46700.71
570.62	46354.31
570.78	46663.26
570.95	46431.55
571.11	47124.35
571.27	46370.69
571.43	46763.90
571.60	46848.16
571.76	46782.63
571.92	46873.91
572.09	46822.42
572.25	46930.08
572.41	47049.45
572.57	47145.41
572.74	47033.07
572.90	46988.60
573.06	47475.43
573.22	47058.81
573.38	47430.96
573.55	46728.80
573.71	47086.90
573.87	47196.90
574.03	46684.33
574.20	46930.08
574.36	46948.81
574.52	46948.81
574.68	46997.96
574.84	46738.16
575.01	46979.23
575.17	46787.31
575.33	46543.89
575.49	46845.82
575.65	46806.03
575.82	46808.37
575.98	46754.54
576.14	47124.35
576.30	46747.52
576.46	46749.86
576.62	46794.33
576.79	46651.56
576.95	46780.29
577.11	46937.10
577.27	47047.11
577.43	46953.49
577.59	46791.99
577.75	46679.64
577.92	46696.03
578.08	46899.65
578.24	46417.50
578.40	46623.47
578.56	47040.09
578.72	46843.48
578.88	47400.53
579.04	46918.38
579.21	46632.83
579.37	46831.78
579.53	46834.12
579.69	46742.84
579.85	47040.09
580.01	47131.37
580.17	47082.22
580.33	47098.60
580.49	47323.29
580.65	47295.21
580.82	46658.58
580.98	46817.74
581.14	46476.02
581.30	47119.66
581.46	47084.56
581.62	47276.48
581.78	46918.38
581.94	47248.39
582.10	47030.72
582.26	47234.35
582.42	47356.06
582.58	47243.71
582.74	46611.77
582.90	47002.64
583.06	47309.25
583.22	47407.55
583.38	47257.76
583.54	47360.74
583.70	46939.44
583.86	47353.72
584.02	46981.57
584.18	47505.85
584.34	47285.84
584.50	47246.05
584.66	46894.97
584.82	46618.79
584.98	47171.16
585.14	47107.96
585.30	47012.00
585.46	46845.82
585.62	46745.18
585.78	47173.50
585.94	46923.06
586.10	47201.58
586.26	46794.33
586.42	47360.74
586.58	47171.16
586.74	46735.82
586.90	46445.59
587.06	47175.84
587.22	47159.45
587.38	47206.26
587.54	47306.91
587.70	47414.57
587.86	46997.96
588.02	46806.03
588.18	47042.43
588.34	46799.01
588.49	46658.58
588.65	46621.13
588.81	46567.30
588.97	46651.56
589.13	46593.04
589.29	46583.68
589.45	46649.22
589.61	47239.03
589.77	47248.39
589.93	46951.15
590.08	47122.01
590.24	47241.37
590.40	47201.58
590.56	47510.53
590.72	47437.98
590.88	47033.07
591.04	47070.51
591.20	47391.17
591.35	47154.77
591.51	47503.51
591.67	46887.95
591.83	46836.46
591.99	46864.55
592.15	47304.57
592.31	47222.65
592.46	47358.40
592.62	47363.08
592.78	47473.09
592.94	47416.91
593.10	46899.65
593.26	47206.26
593.41	47264.78
593.57	47175.84
593.73	47007.32
593.89	47255.42
594.05	47227.33
594.20	47000.30
594.36	47007.32
594.52	47019.02
594.68	46756.88
594.84	46923.06
594.99	47047.11
595.15	46983.91
595.31	47077.54
595.47	46887.95
595.62	47054.13
595.78	47065.83
595.94	47351.38
596.10	47086.90
596.25	46969.87
596.41	46864.55
596.57	47178.18
596.73	46902.00
596.88	46988.60
597.04	47306.91
597.20	47395.85
597.36	47327.97
597.51	47501.17
597.67	47040.09
597.83	47107.96
597.99	47271.80
598.14	47531.60
598.30	46969.87
598.46	47098.60
598.61	47360.74
598.77	46784.97
598.93	46731.14
599.09	47374.78
599.24	47264.78
599.40	47185.20
599.56	47145.41
599.71	47117.32
599.87	47491.81
600.03	47068.17
600.18	47332.65
600.34	47084.56
600.50	46890.29
600.65	47126.69
600.81	47295.21
600.97	46981.57
601.12	47819.49
601.28	46724.11
601.44	46660.92
601.59	46630.49
601.75	47000.30
601.91	46749.86
602.06	46852.84
602.22	46927.74
602.37	46770.93
602.53	46916.04
602.69	47166.48
602.84	46717.09
603.00	46829.44
603.16	47119.66
603.31	46822.42
603.47	47283.50
603.62	47262.44
603.78	47798.42
603.94	47611.18
604.09	46946.47
604.25	47250.74
604.40	46775.61
604.56	47201.58
604.71	47580.75
604.87	46958.17
605.03	47157.11
605.18	47222.65
605.34	47061.15
605.49	46740.50
605.65	46733.48
605.80	47180.52
605.96	46955.83
606.12	47019.02
606.27	47054.13
606.43	46639.86
606.58	47353.72
606.74	46836.46
606.89	47250.74
607.05	47002.64
607.20	47332.65
607.36	46824.76
607.51	47171.16
607.67	47372.44
607.82	47164.14
607.98	46670.28
608.13	46707.73
608.29	46527.51
608.44	46738.16
608.60	46515.81
608.75	46899.65
608.91	46859.87
609.06	46656.24
609.22	46518.15
609.37	46272.39
609.53	46780.29
609.68	46248.99
609.84	46555.60
609.99	46366.01
610.15	46153.02
610.30	46340.27
610.46	46000.89
610.61	46543.89
610.76	46850.50
610.92	46808.37
611.07	46272.39
611.23	46747.52
611.38	46813.05
611.54	46490.06
611.69	46204.52
611.84	46012.59
612.00	46129.62
612.15	45928.33
612.31	46562.62
612.46	46253.67
612.62	46410.48
612.77	46335.59
612.92	46838.80
613.08	45832.37
613.23	46050.04
613.39	45848.75
613.54	45815.99
613.69	46045.36
613.85	45970.46
614.00	46110.89
614.15	46248.99
614.31	46167.07
614.46	46256.01
614.62	45785.56
614.77	46174.09
614.92	45841.73
615.08	45743.43
615.23	45748.11
615.38	45839.39
615.54	45270.64
615.69	45956.42
615.84	45776.20
616.00	45848.75
616.15	45535.12
616.30	45684.92
616.46	45514.06
616.61	45745.77
616.76	45485.97
616.92	45216.81
617.07	45455.54
617.22	45036.59
617.37	45181.70
617.53	45659.17
617.68	45876.84
617.83	45883.86
617.99	45844.07
618.14	45069.36
618.29	45244.90
618.45	44924.24
618.60	45357.24
618.75	45118.51
618.90	45408.73
619.06	44896.16
619.21	45209.79
619.36	45694.28
619.51	45378.31
619.67	45366.60
619.82	45186.38
619.97	45340.86
620.12	45132.55
620.28	44776.79
620.43	45237.87
620.58	44809.56
620.73	45270.64
620.89	44666.78
621.04	44903.18
621.19	45015.52
621.34	45275.32
621.49	44596.57
621.65	44556.78
621.80	45418.10
621.95	44404.64
622.10	44821.26
622.25	44556.78
622.41	44463.16
622.56	44308.68
622.71	44706.57
622.86	44744.02
623.01	44741.68
623.16	44196.34
623.32	44444.43
623.47	44612.95
623.62	44491.24
623.77	44465.50
623.92	44467.84
624.07	44339.11
624.23	44350.81
624.38	44191.65
624.53	44095.69
624.68	44355.49
624.83	44168.25
624.98	44488.90
625.13	43859.30
625.29	43887.39
625.44	43889.73
625.59	43620.56
625.74	43679.08
625.89	43693.12
626.04	44191.65
626.19	44114.42
626.34	43742.27
626.49	44079.31
626.65	43887.39
626.80	43913.13
626.95	43714.19
627.10	43463.75
627.25	43871.00
627.40	43358.42
627.55	42885.64
627.70	42983.94
627.85	43065.86
628.00	43320.98
628.15	43313.95
628.30	43625.25
628.45	43917.81
628.60	43449.70
628.76	43213.31
628.91	43283.53
629.06	43257.78
629.21	43583.12
629.36	43061.18
629.51	43225.01
629.66	43320.98
629.81	43365.45
629.96	43299.91
630.11	43089.26
630.26	43143.09
630.41	43620.56
630.56	43356.08
630.71	42705.41
630.86	42787.33
631.01	42745.20
631.16	43098.62
631.31	42539.24
631.46	42529.87
631.61	42815.42
631.76	43103.31
631.91	42850.53
632.06	42930.11
632.21	42738.18
632.36	43005.00
632.51	42321.57
632.66	42693.71
632.81	42330.93
632.96	42611.79
633.10	42394.12
633.25	42632.86
633.40	43026.07
633.55	42576.69
633.70	42476.04
633.85	42246.67
634.00	42384.76
634.15	42689.03
634.30	42426.89
634.45	42183.48
634.60	42209.22
634.75	42581.37
634.90	41832.39
635.05	42136.66
635.19	42033.68
635.34	42600.09
635.49	42499.45
635.64	41986.87
635.79	42333.27
635.94	42139.00
636.09	41813.67
636.24	41378.33
636.39	41621.75
636.53	42124.96
636.68	41958.78
636.83	42122.62
636.98	42012.62
637.13	41832.39
637.28	41794.95
637.43	42033.68
637.57	42234.97
637.72	41804.31
637.87	42007.94
638.02	42232.63
638.17	42061.77
638.32	41429.82
638.46	41729.41
638.61	41738.77
638.76	41757.50
638.91	41691.96
639.06	41359.61
639.20	41734.09
639.35	41656.85
639.50	41378.33
639.65	41406.42
639.80	41415.78
639.94	41429.82
640.09	41333.86
640.24	41474.29
640.39	40818.94
640.54	41045.97
640.68	41287.05
640.83	40989.80
640.98	40954.69
641.13	41038.95
641.27	41155.98
641.42	40638.72
641.57	41144.28
641.72	40769.79
641.86	40594.25
642.01	41118.53
642.16	40966.40
642.31	40634.04
642.45	40947.67
642.60	40491.27
642.75	40671.49
642.90	41155.98
643.04	40704.26
643.19	40793.20
643.34	40919.59
643.48	40575.53
643.63	40343.81
643.78	40378.92
643.93	40889.16
644.07	40828.30
644.22	40236.15
644.37	40161.25
644.51	40493.61
644.66	40521.69
644.81	40533.40
644.95	40622.34
645.10	40542.76
645.25	40322.75
645.39	40421.05
645.54	40381.26
645.69	40194.02
645.83	40170.61
645.98	40392.97
646.13	40680.85
646.27	40217.43
646.42	39943.58
646.57	39847.62
646.71	40147.21
646.86	39810.17
647.00	39974.01
647.15	39871.03
647.30	39658.04
647.44	40034.86
647.59	39990.39
647.74	39922.52
647.88	39873.37
648.03	40308.71
648.17	40065.29
648.32	39599.52
648.47	39983.37
648.61	39402.92
648.76	39590.16
648.90	39555.05
649.05	39503.56
649.20	39559.73
649.34	39208.65
649.49	39730.59
649.63	39515.26
649.78	39529.31
649.92	39658.04
650.07	39845.28
650.21	39325.68
650.36	39480.16
650.51	39452.07
650.65	40254.87
650.80	40013.80
650.94	39768.04
651.09	39681.44
651.23	39105.67
651.38	39552.71
651.52	39178.23
651.67	39325.68
651.81	38944.17
651.96	39276.53
652.10	39122.05
652.25	39196.95
652.39	38806.08
652.54	39292.91
652.68	39098.65
652.83	39147.80
652.97	39407.60
653.12	39388.88
653.26	38869.28
653.41	39002.69
653.55	38616.50
653.70	38660.97
653.84	39021.41
653.99	38485.43
654.13	38841.19
654.27	38759.27
654.42	38738.21
654.56	38281.80
654.71	38728.84
654.85	38616.50
655.00	38557.99
655.14	38316.91
655.29	38277.12
655.43	38447.98
655.57	37357.29
655.72	37801.99
655.86	37668.58
656.01	37434.53
656.15	37642.84
656.30	37851.14
656.44	37741.14
656.58	38396.49
656.73	38288.82
656.87	38033.71
657.01	37687.31
657.16	38064.13
657.30	37855.82
657.45	37397.08
657.59	37455.59
657.73	37654.54
657.88	38363.72
658.02	37710.71
658.16	38298.19
658.31	37738.80
658.45	37771.57
658.60	37846.46
658.74	38050.09
658.88	37675.60
659.03	37633.47
659.17	37926.04
659.31	37406.44
659.46	37474.32
659.60	37617.09
659.74	37251.97
659.89	37069.40
660.03	37371.33
660.17	37628.79
660.32	37315.16
660.46	37298.78
660.60	37193.45
660.74	37294.10
660.89	36903.23
661.03	36596.62
661.17	37127.92
661.32	36645.77
661.46	37298.78
661.60	36940.68
661.74	36563.85
661.89	36760.45
662.03	36903.23
662.17	36755.77
662.31	36615.34
662.46	36678.54
662.60	36858.76
662.74	36479.59
662.88	36500.65
663.03	35831.26
663.17	36699.60
663.31	36011.48
663.45	35936.59
663.60	35913.18
663.74	35945.95
663.88	35913.18
664.02	35744.66
664.17	35969.35
664.31	35639.34
664.45	35807.86
664.59	35819.56
664.73	35934.24
664.88	35852.33
665.02	35576.14
665.16	35882.75
665.30	35515.29
665.44	35236.77
665.59	35110.38
665.73	35342.09
665.87	35412.31
666.01	35112.72
666.15	35264.85
666.29	35138.46
666.44	35494.22
666.58	34962.92
666.72	34902.07
666.86	34939.52
667.00	34927.81
667.14	34497.16
667.28	34565.03
667.43	34583.76
667.57	34890.37
667.71	34604.82
667.85	34902.07
667.99	34508.86
668.13	34478.43
668.27	34981.65
668.41	34789.72
668.56	34742.91
668.70	34279.49
668.84	33881.60
668.98	34031.39
669.12	34031.39
669.26	34050.11
669.40	34197.57
669.54	34082.88
669.68	33736.48
669.82	33483.70
669.96	33591.37
670.10	33479.02
670.25	33628.82
670.39	33771.59
670.53	33546.90
670.67	33493.07
670.81	33418.17
670.95	33668.61
671.09	33450.94
671.23	33357.32
671.37	33120.92
671.51	32753.46
671.65	33291.78
671.79	32486.64
671.93	33200.50
672.07	32828.35
672.21	32584.94
672.35	33078.79
672.49	33137.30
672.63	32636.43
672.77	32545.15
672.91	32947.72
673.05	32395.35
673.19	32584.94
673.33	32556.85
673.47	32325.14
673.61	32198.75
673.75	31768.09
673.89	31805.54
674.03	31864.05
674.17	31896.82
674.31	31761.07
674.45	31847.67
674.59	31587.87
674.73	31906.18
674.87	31758.73
675.01	31220.41
675.15	31515.31
675.29	31548.08
675.43	31047.21
675.56	31285.94
675.70	31063.59
675.84	31608.93
675.98	29975.24
676.12	30984.01
676.26	30883.37
676.40	31049.55
676.54	31473.18
676.68	30775.70
676.82	30405.90
676.96	30628.25
677.10	30335.68
677.23	30218.66
677.37	29785.66
677.51	30476.12
677.65	30022.05
677.79	29088.18
677.93	29893.32
678.07	29582.03
678.21	29146.69
678.34	29369.04
678.48	29195.84
678.62	29191.16
678.76	28959.45
678.90	28760.50
679.04	28987.53
679.18	28716.03
679.31	28723.05
679.45	28481.98
679.59	28379.00
679.73	28725.39
679.87	28713.69
680.00	27840.67
680.14	28517.09
680.28	28364.95
680.42	28140.26
680.56	28397.72
680.70	27702.58
680.83	27889.82
680.97	27983.44
681.11	27969.40
681.25	27494.27
681.39	27414.69
681.52	27637.05
681.66	27274.26
681.80	27438.10
681.94	27491.93
682.07	27075.32
682.21	26588.49
682.35	26614.23
682.49	27166.60
682.62	26829.56
682.76	27056.59
682.90	26319.32
683.04	26604.87
683.17	26270.17
683.31	25727.17
683.45	26045.48
683.59	26221.02
683.72	26008.03
683.86	25895.69
684.00	26239.75
684.13	25624.18
684.27	25654.61
684.41	25640.57
684.55	25898.03
684.68	25654.61
684.82	25092.88
684.96	25603.12
685.09	25418.22
685.23	24898.62
685.37	25062.46
685.50	25575.03
685.64	25214.59
685.78	24510.09
685.91	24512.43
686.05	24184.76
686.19	24290.08
686.32	24074.75
686.46	23899.21
686.60	23812.61
686.73	23578.56
686.87	23243.86
687.01	23283.65
687.14	23115.13
687.28	23381.95
687.42	23456.85
687.55	23515.36
687.69	23276.63
687.82	23183.01
687.96	23276.63
688.10	22923.21
688.23	22822.56
688.37	22651.70
688.50	22998.10
688.64	22761.71
688.78	22508.93
688.91	22576.81
689.05	22782.77
689.18	22270.20
689.32	21944.86
689.46	22604.89
689.59	22462.12
689.73	22345.09
689.86	22005.72
690.00	22008.06
690.13	22040.82
690.27	21575.06
690.41	22059.55
690.54	21654.64
690.68	21523.57
690.81	21174.83
690.95	21490.80
691.08	21401.86
691.22	21158.44
691.35	21640.59
691.49	21624.21
691.62	21172.49
691.76	20992.26
691.89	21032.05
692.03	21043.76
692.16	21006.31
692.30	20308.83
692.43	20568.63
692.57	20360.32
692.70	20156.69
692.84	20283.08
692.97	20187.12
693.11	20081.80
693.24	20116.90
693.38	19679.22
693.51	19906.26
693.65	20140.31
693.78	19901.58
693.92	19714.33
694.05	19812.63
694.19	19323.46
694.32	19278.99
694.45	19386.66
694.59	19393.68
694.72	19260.27
694.86	19152.60
694.99	18876.42
695.13	19220.48
695.26	18946.64
695.39	19000.47
695.53	19070.68
695.66	18951.32
695.80	19068.34
695.93	18745.35
696.07	18827.27
696.20	18923.23
696.33	18668.11
696.47	18478.53
696.60	18405.97
696.73	17930.84
696.87	18251.50
697.00	18298.31
697.14	17743.60
697.27	17802.11
697.40	17661.68
697.54	17701.47
697.67	17624.23
697.80	17284.86
697.94	17516.57
698.07	17401.88
698.21	17132.72
698.34	17130.38
698.47	17392.52
698.61	16791.00
698.74	16999.31
698.87	17132.72
699.01	16767.60
699.14	16730.15
699.27	16559.29
699.40	16606.10
699.54	16465.67
699.67	16411.84
699.80	16208.21
699.94	16166.08
700.07	16170.76
700.20	16091.18
700.34	16369.71
700.47	16196.51
700.60	16128.63
700.73	16152.04
700.87	16032.67
701.00	15653.50
701.13	15648.82
701.26	15433.49
701.40	15634.78
701.53	15662.86
701.66	15290.72
701.79	15592.65
701.93	15243.91
702.06	15037.94
702.19	14911.55
702.32	14846.02
702.46	14766.44
702.59	15307.10
702.72	14998.15
702.85	14897.51
702.99	14899.85
703.12	14752.40
703.25	14553.45
703.38	14368.55
703.51	14609.62
703.65	14670.48
703.78	14394.29
703.91	14265.57
704.04	14228.12
704.17	14347.48
704.31	14005.77
704.44	14176.62
704.57	13898.10
704.70	13884.06
704.83	13914.48
704.96	13991.72
705.10	13809.16
705.23	13802.14
>>>>>End Processed Spectral Data<<<<<
