SpectraSuite Data File
++++++++++++++++++++++++++++++++++++
Date: Fri Oct 25 10:47:49 EDT 2013
User: price-jones
Dark Spectrum Present: No
Reference Spectrum Present: No
Number of Sampled Component Spectra: 1
Spectrometers: USB2+H05261
Integration Time (usec): 100000 (USB2+H05261)
Spectra Averaged: 1 (USB2+H05261)
Boxcar Smoothing: 0 (USB2+H05261)
Correct for Electrical Dark: No (USB2+H05261)
Strobe/Lamp Enabled: No (USB2+H05261)
Correct for Detector Non-linearity: No (USB2+H05261)
Correct for Stray Light: No (USB2+H05261)
Number of Pixels in Processed Spectrum: 2048
>>>>>Begin Processed Spectral Data<<<<<
365.73	110.01
365.92	110.01
366.12	110.01
366.32	11.70
366.52	72.56
366.72	79.58
366.91	74.90
367.11	21.06
367.31	77.24
367.51	21.06
367.70	23.41
367.90	18.72
368.10	58.51
368.30	46.81
368.49	79.58
368.69	91.28
368.89	77.24
369.09	51.49
369.28	102.98
369.48	0.00
369.68	56.17
369.87	131.07
370.07	70.22
370.27	201.29
370.47	215.33
370.66	360.44
370.86	360.44
371.06	418.96
371.25	421.30
371.45	430.66
371.65	458.74
371.84	477.47
372.04	440.02
372.24	454.06
372.44	512.58
372.63	463.43
372.83	456.40
373.03	472.79
373.22	449.38
373.42	547.69
373.62	463.43
373.81	550.03
374.01	505.56
374.21	540.66
374.40	559.39
374.60	550.03
374.79	491.51
374.99	650.67
375.19	538.32
375.38	512.58
375.58	526.62
375.78	664.71
375.97	634.29
376.17	566.41
376.37	603.86
376.56	585.13
376.76	587.47
376.95	559.39
377.15	585.13
377.35	545.34
377.54	645.99
377.74	622.58
377.93	606.20
378.13	566.41
378.33	608.54
378.52	622.58
378.72	660.03
378.91	622.58
379.11	594.50
379.31	683.44
379.50	566.41
379.70	627.26
379.89	634.29
380.09	617.90
380.28	645.99
380.48	695.14
380.68	706.84
380.87	617.90
381.07	645.99
381.26	716.20
381.46	702.16
381.65	741.95
381.85	650.67
382.04	685.78
382.24	690.46
382.43	653.01
382.63	664.71
382.83	655.35
383.02	739.61
383.22	713.86
383.41	692.80
383.61	683.44
383.80	777.06
384.00	706.84
384.19	676.41
384.39	767.70
384.58	795.78
384.78	784.08
384.97	748.97
385.17	634.29
385.36	744.29
385.56	781.74
385.75	765.36
385.95	765.36
386.14	858.98
386.34	833.23
386.53	755.99
386.72	765.36
386.92	760.67
387.11	826.21
387.31	861.32
387.50	788.76
387.70	833.23
387.89	788.76
388.09	858.98
388.28	812.17
388.48	800.46
388.67	880.04
388.86	842.59
389.06	835.57
389.25	908.13
389.45	926.85
389.64	908.13
389.84	875.36
390.03	924.51
390.22	940.90
390.42	943.24
390.61	795.78
390.81	1034.52
391.00	856.64
391.19	1004.09
391.39	933.87
391.58	1004.09
391.78	990.05
391.97	1018.13
392.16	973.66
392.36	1050.90
392.55	992.39
392.75	978.34
392.94	919.83
393.13	954.94
393.33	994.73
393.52	896.43
393.71	938.55
393.91	1062.60
394.10	1060.26
394.29	1160.91
394.49	1086.01
394.68	1118.78
394.88	1121.12
395.07	1114.10
395.26	1142.18
395.46	1153.88
395.65	1158.57
395.84	1163.25
396.04	1172.61
396.23	1137.50
396.42	1107.07
396.62	1219.42
396.81	1107.07
397.00	1111.75
397.19	1203.04
397.39	1193.67
397.58	1277.93
397.77	1252.19
397.97	1280.27
398.16	1299.00
398.35	1313.04
398.55	1338.79
398.74	1287.29
398.93	1280.27
399.12	1348.15
399.32	1357.51
399.51	1268.57
399.70	1341.13
399.90	1343.47
400.09	1439.43
400.28	1401.98
400.47	1451.13
400.67	1322.40
400.86	1423.05
401.05	1469.86
401.24	1577.52
401.44	1526.03
401.63	1586.88
401.82	1455.81
402.01	1540.07
402.21	1469.86
402.40	1502.62
402.59	1589.22
402.78	1493.26
402.97	1544.75
403.17	1575.18
403.36	1570.50
403.55	1586.88
403.74	1682.85
403.93	1605.61
404.13	1666.46
404.32	1647.74
404.51	1769.44
404.70	1694.55
404.89	1694.55
405.09	1680.50
405.28	1757.74
405.47	1750.72
405.66	1809.23
405.85	1746.04
406.05	1736.68
406.24	1748.38
406.43	1774.13
406.62	1858.39
406.81	1954.35
407.00	1912.22
407.20	1856.04
407.39	1872.43
407.58	1966.05
407.77	1916.90
407.96	1895.83
408.15	1933.28
408.34	1968.39
408.54	2017.54
408.73	2057.33
408.92	1933.28
409.11	1947.33
409.30	2008.18
409.49	2001.16
409.68	2111.16
409.87	2036.27
410.07	2120.53
410.26	2008.18
410.45	2188.40
410.64	2143.93
410.83	2275.00
411.02	2172.02
411.21	2237.55
411.40	2256.28
411.59	2258.62
411.78	2289.04
411.98	2354.58
412.17	2342.88
412.36	2408.41
412.55	2509.05
412.74	2422.45
412.93	2370.96
413.12	2314.79
413.31	2551.18
413.50	2452.88
413.69	2588.63
413.88	2635.44
414.07	2413.09
414.26	2583.95
414.45	2602.68
414.64	2581.61
414.83	2691.62
415.02	2843.75
415.22	2747.79
415.41	2747.79
415.60	2792.26
415.79	2932.69
415.98	2963.12
416.17	2775.88
416.36	2939.71
416.55	2897.58
416.74	2892.90
416.93	2869.50
417.12	2991.20
417.31	2944.39
417.50	3105.89
417.69	3103.55
417.88	3073.12
418.07	3091.85
418.26	3038.02
418.45	3183.13
418.64	3211.22
418.83	3262.71
419.02	3215.90
419.21	3236.96
419.39	3321.22
419.58	3185.47
419.77	3201.85
419.96	3255.69
420.15	3265.05
420.34	3199.51
420.53	3332.92
420.72	3419.52
420.91	3386.76
421.10	3421.86
421.29	3379.73
421.48	3314.20
421.67	3494.42
421.86	3382.07
422.05	3393.78
422.24	3531.87
422.43	3365.69
422.61	3543.57
422.80	3485.06
422.99	3616.13
423.18	3559.95
423.37	3590.38
423.56	3602.08
423.75	3524.85
423.94	3433.57
424.13	3344.63
424.32	3435.91
424.50	3604.42
424.69	3700.39
424.88	3599.74
425.07	3562.30
425.26	3599.74
425.45	3581.02
425.64	3602.08
425.83	3660.60
426.01	3566.98
426.20	3627.83
426.39	3618.47
426.58	3574.00
426.77	3555.27
426.96	3515.48
427.15	3625.49
427.33	3674.64
427.52	3630.17
427.71	3651.24
427.90	3868.91
428.09	3740.18
428.28	3674.64
428.46	3733.15
428.65	3768.26
428.84	3861.88
429.03	3775.28
429.22	3684.00
429.40	3791.67
429.59	3850.18
429.78	3679.32
429.97	3620.81
430.16	3768.26
430.34	3892.31
430.53	3913.38
430.72	3936.78
430.91	3801.03
431.10	4081.89
431.28	4184.88
431.47	4163.81
431.66	4283.18
431.85	4138.07
432.03	4259.78
432.22	4250.41
432.41	4088.92
432.60	4098.28
432.79	4177.86
432.97	4393.19
433.16	4334.67
433.35	4114.66
433.54	4224.67
433.72	4290.20
433.91	4454.04
434.10	4299.56
434.28	4234.03
434.47	4325.31
434.66	4388.50
434.85	4479.79
435.03	4545.32
435.22	4383.82
435.41	4727.88
435.59	4545.32
435.78	4550.00
435.97	4526.60
436.16	4671.71
436.34	4531.28
436.53	4720.86
436.72	4781.71
436.90	4652.98
437.09	4559.36
437.28	4643.62
437.46	4582.77
437.65	4798.10
437.84	4645.96
438.02	4580.43
438.21	4760.65
438.40	4723.20
438.58	4887.04
438.77	4943.21
438.96	4854.27
439.14	5006.41
439.33	5121.09
439.52	5130.45
439.70	5085.98
439.89	5100.03
440.08	5034.49
440.26	5334.08
440.45	5060.24
440.63	5289.61
440.82	5453.45
441.01	5242.80
441.19	5383.23
441.38	5439.40
441.57	5371.53
441.75	5523.66
441.94	5640.69
442.12	5444.09
442.31	5633.67
442.50	5682.82
442.68	5706.23
442.87	5675.80
443.05	5863.04
443.24	5769.42
443.43	5856.02
443.61	5696.86
443.80	5970.71
443.98	5689.84
444.17	5596.22
444.35	5874.74
444.54	5921.56
444.73	5834.96
444.91	5804.53
445.10	5891.13
445.28	5881.77
445.47	5675.80
445.65	5654.73
445.84	5743.67
446.02	5914.53
446.21	5935.60
446.39	6047.94
446.58	5968.37
446.77	5963.68
446.95	5764.74
447.14	6148.59
447.32	5933.26
447.51	5928.58
447.69	5820.91
447.88	6092.41
448.06	6047.94
448.25	6050.28
448.43	6050.28
448.62	5973.05
448.80	6080.71
448.99	6310.08
449.17	6207.10
449.36	5916.87
449.54	6094.76
449.73	6359.24
449.91	6534.78
450.10	6408.39
450.28	6314.77
450.46	6375.62
450.65	6396.68
450.83	6370.94
451.02	6527.75
451.20	6586.27
451.39	6551.16
451.57	6296.04
451.76	6537.12
451.94	6415.41
452.13	6665.85
452.31	6502.01
452.49	6443.49
452.68	6300.72
452.86	6576.91
453.05	6640.10
453.23	6825.00
453.42	6590.95
453.60	6707.98
453.78	6686.91
453.97	6644.78
454.15	6651.80
454.34	6661.16
454.52	6869.47
454.70	6862.45
454.89	6853.09
455.07	6766.49
455.26	6930.33
455.44	6953.73
455.62	6935.01
455.81	6855.43
455.99	7070.76
456.17	7138.63
456.36	7204.17
456.54	7103.53
456.73	7255.66
456.91	7328.22
457.09	7236.94
457.28	7353.96
457.46	7379.71
457.64	7248.64
457.83	7360.98
458.01	7323.54
458.19	7452.27
458.38	7368.01
458.56	7332.90
458.74	7382.05
458.93	7424.18
459.11	7566.95
459.29	7592.70
459.48	7609.08
459.66	7559.93
459.84	7716.75
460.03	7770.58
460.21	7737.81
460.39	7700.36
460.57	7784.62
460.76	7941.44
460.94	7728.45
461.12	7885.26
461.31	7833.77
461.49	7777.60
461.67	7655.89
461.85	8119.32
462.04	7866.54
462.22	8500.83
462.40	8112.30
462.59	7894.63
462.77	8081.87
462.95	8222.30
463.13	7995.27
463.32	8079.53
463.50	8021.02
463.68	8308.90
463.86	8037.40
464.05	8006.97
464.23	8184.85
464.41	8362.73
464.59	8025.70
464.78	8252.73
464.96	8248.05
465.14	8234.00
465.32	8308.90
465.50	8479.76
465.69	8449.33
465.87	8479.76
466.05	8409.54
466.23	8290.18
466.41	8526.57
466.60	8418.91
466.78	8236.35
466.96	8297.20
467.14	8542.96
467.32	8571.04
467.51	8629.56
467.69	8257.41
467.87	8510.19
468.05	8702.11
468.23	8283.16
468.41	8334.65
468.60	8798.07
468.78	8727.86
468.96	8643.60
469.14	8744.24
469.32	9071.92
469.50	8812.12
469.69	9081.28
469.87	8725.52
470.05	9177.24
470.23	9062.55
470.41	8994.68
470.59	8947.87
470.77	8973.61
470.95	9139.79
471.14	9235.75
471.32	8877.65
471.50	9376.19
471.68	9249.80
471.86	9348.10
472.04	9294.27
472.22	9430.02
472.40	9350.44
472.58	9488.53
472.77	9593.86
472.95	9628.96
473.13	9968.34
473.31	9673.43
473.49	9586.83
473.67	9666.41
473.85	9617.26
474.03	9806.84
474.21	9886.42
474.39	10356.87
474.57	9949.62
474.75	10076.01
474.93	10441.13
475.12	10476.24
475.30	10438.79
475.48	10244.52
475.66	10342.83
475.84	10132.18
476.02	10551.14
476.20	10525.39
476.38	10644.76
476.56	10857.75
476.74	10841.36
476.92	10750.08
477.10	10895.19
477.28	11037.97
477.46	10899.87
477.64	11138.61
477.82	11162.01
478.00	11613.74
478.18	11250.96
478.36	11529.48
478.54	11550.54
478.72	11468.62
478.90	11833.75
479.08	11971.84
479.26	11864.18
479.44	11826.73
479.62	11967.16
479.80	12336.96
479.98	12386.12
480.16	12578.04
480.34	12224.62
480.52	12486.76
480.70	12542.93
480.88	12276.11
481.06	12662.30
481.24	12641.23
481.41	12992.31
481.59	13123.38
481.77	13156.15
481.95	13205.30
482.13	13336.37
482.31	13249.77
482.49	13497.87
482.67	13816.18
482.85	13767.03
483.03	13767.03
483.21	13825.54
483.39	14071.30
483.57	14083.00
483.74	14548.77
483.92	14473.87
484.10	14338.12
484.28	14473.87
484.46	14740.69
484.64	15037.94
484.82	14626.01
485.00	14799.21
485.18	14836.66
485.35	15440.51
485.53	15021.56
485.71	15049.64
485.89	15480.30
486.07	15370.30
486.25	15468.60
486.43	15585.63
486.61	15728.40
486.78	15756.49
486.96	16180.12
487.14	16381.41
487.32	16348.64
487.50	16512.48
487.68	16601.42
487.85	16631.85
488.03	16882.28
488.21	16945.48
488.39	17018.04
488.57	17214.64
488.75	17242.73
488.92	17734.24
489.10	17806.80
489.28	17797.43
489.46	17891.06
489.64	17858.29
489.81	18523.00
489.99	18424.70
490.17	18487.89
490.35	18778.12
490.53	18869.40
490.70	18958.34
490.88	19051.96
491.06	19236.86
491.24	18848.33
491.41	19222.82
491.59	19183.03
491.77	19293.04
491.95	19756.46
492.13	19735.40
492.30	19784.55
492.48	19910.94
492.66	19887.53
492.84	19997.54
493.01	20517.14
493.19	20112.22
493.37	20648.21
493.54	20517.14
493.72	20875.24
493.90	20922.05
494.08	20886.94
494.25	21205.25
494.43	21598.46
494.61	21570.38
494.79	21528.25
494.96	21654.64
495.14	21671.02
495.32	21771.66
495.49	21926.14
495.67	21851.24
495.85	21905.07
496.02	22499.57
496.20	22347.44
496.38	22625.96
496.55	22689.15
496.73	23208.75
496.91	22642.34
497.09	22955.97
497.26	22792.14
497.44	23147.90
497.62	23185.35
497.79	23140.88
497.97	22958.31
498.14	23679.20
498.32	23751.76
498.50	23803.25
498.67	24034.96
498.85	23894.53
499.03	24180.07
499.20	24034.96
499.38	24561.58
499.56	24325.19
499.73	24442.21
499.91	24540.52
500.08	24753.51
500.26	24290.08
500.44	24489.03
500.61	24783.93
500.79	24950.11
500.97	25041.39
501.14	25556.31
501.32	25488.43
501.49	25102.25
501.67	25233.32
501.84	25656.95
502.02	25476.73
502.20	25888.67
502.37	25673.34
502.55	25965.90
502.72	25944.84
502.90	25977.61
503.07	25888.67
503.25	26148.46
503.43	26059.52
503.60	26134.42
503.78	26125.06
503.95	26284.22
504.13	26485.50
504.30	26836.58
504.48	26544.02
504.65	26773.39
504.83	26871.69
505.01	26960.63
505.18	26497.20
505.36	27513.00
505.53	27309.37
505.71	27634.71
505.88	27835.99
506.06	27281.28
506.23	27791.52
506.41	27524.70
506.58	27262.56
506.76	27896.85
506.93	27934.29
507.11	27728.33
507.28	28006.85
507.46	28051.32
507.63	27917.91
507.81	28477.30
507.98	27861.74
508.16	28121.54
508.33	28386.02
508.50	28680.92
508.68	28996.90
508.85	28891.57
509.03	28718.37
509.20	28767.52
509.38	29174.78
509.55	29160.73
509.73	29397.13
509.90	29193.50
510.08	29518.84
510.25	29432.24
510.42	29762.25
510.60	29750.55
510.77	29434.58
510.95	29921.41
511.12	29762.25
511.30	29738.85
511.47	29720.12
511.64	30122.69
511.82	30368.45
511.99	30085.25
512.17	30274.83
512.34	30361.43
512.51	30209.29
512.69	30658.68
512.86	30518.25
513.04	30787.41
513.21	30698.47
513.38	30972.31
513.56	30771.02
513.73	31044.87
513.90	30883.37
514.08	30794.43
514.25	30923.16
514.43	30745.28
514.60	31133.81
514.77	31608.93
514.95	31204.02
515.12	31374.88
515.29	31618.30
515.47	31452.12
515.64	31938.95
515.81	31398.29
515.99	31627.66
516.16	32009.17
516.33	31821.92
516.51	31861.71
516.68	31468.50
516.85	31592.55
517.03	31723.62
517.20	31814.90
517.37	32030.23
517.54	32685.58
517.72	32460.89
517.89	32053.64
518.06	32280.67
518.24	32025.55
518.41	32163.64
518.58	32528.77
518.75	32643.45
518.93	32692.60
519.10	32524.08
519.27	33006.23
519.45	32872.82
519.62	33064.75
519.79	33034.32
519.96	33500.09
520.14	33570.30
520.31	33556.26
520.48	33507.11
520.65	33563.28
520.83	33614.77
521.00	33874.57
521.17	33921.38
521.34	33411.15
521.52	33926.07
521.69	34120.33
521.86	34005.64
522.03	34286.51
522.20	34377.79
522.38	34422.26
522.55	34073.52
522.72	33635.84
522.89	34122.67
523.07	34061.82
523.24	34579.07
523.41	34597.80
523.58	34621.20
523.75	34857.60
523.92	35119.74
524.10	34944.20
524.27	35248.47
524.44	35103.35
524.61	35208.68
524.78	35157.19
524.96	35269.53
525.13	35466.14
525.30	35545.72
525.47	35644.02
525.64	35133.78
525.81	35723.60
525.98	35381.88
526.16	35325.71
526.33	35292.94
526.50	36072.34
526.67	35482.52
526.84	35648.70
527.01	35337.41
527.18	35473.16
527.36	35660.40
527.53	35871.05
527.70	36692.58
527.87	36556.83
528.04	36376.61
528.21	36336.82
528.38	36432.78
528.55	36694.92
528.72	36711.30
528.89	36973.44
529.07	36582.57
529.24	36741.73
529.41	37003.87
529.58	36683.22
529.75	36931.31
529.92	36664.49
530.09	36542.78
530.26	36964.08
530.43	37132.60
530.60	36769.82
530.77	36989.83
530.94	37406.44
531.11	37097.49
531.28	37476.66
531.46	37251.97
531.63	37137.28
531.80	37483.68
531.97	37282.39
532.14	37586.66
532.31	37263.67
532.48	37584.32
532.65	37546.87
532.82	37223.88
532.99	38064.13
533.16	37624.11
533.33	37427.51
533.50	37867.53
533.67	37940.08
533.84	37677.94
534.01	38199.88
534.18	37776.25
534.35	38405.85
534.52	38120.31
534.69	38059.45
534.86	38129.67
535.03	38359.04
535.20	38876.30
535.37	39051.84
535.54	38703.10
535.71	38433.94
535.88	38089.88
536.05	38485.43
536.22	39026.09
536.38	38845.87
536.55	38253.72
536.72	38396.49
536.89	38426.92
537.06	38398.83
537.23	38955.88
537.40	38611.82
537.57	39093.97
537.74	39002.69
537.91	39461.43
538.08	39367.81
538.25	38880.98
538.42	38962.90
538.59	39431.01
538.75	39044.82
538.92	38859.91
539.09	39791.45
539.26	39461.43
539.43	39061.20
539.60	39370.15
539.77	39391.22
539.94	39370.15
540.11	39203.97
540.28	39384.19
540.44	39686.12
540.61	39440.37
540.78	39571.44
540.95	39234.40
541.12	39667.40
541.29	39356.11
541.46	39590.16
541.62	39964.65
541.79	40301.68
541.96	39679.10
542.13	39777.40
542.30	39658.04
542.47	40348.50
542.63	40081.67
542.80	40491.27
542.97	40208.06
543.14	40683.19
543.31	40840.01
543.48	40849.37
543.64	40774.47
543.81	40858.73
543.98	40779.15
544.15	40734.68
544.32	40769.79
544.48	41528.13
544.65	40837.67
544.82	40818.94
544.99	40711.28
545.16	40608.29
545.32	40783.83
545.49	41074.06
545.66	41076.40
545.83	41055.34
546.00	41226.20
546.16	41375.99
546.33	41163.00
546.50	40957.03
546.67	41064.70
546.83	40507.65
547.00	40732.34
547.17	40938.31
547.34	41050.66
547.50	41476.63
547.67	41638.13
547.84	41324.50
548.00	41722.39
548.17	41591.32
548.34	41336.20
548.51	41862.82
548.67	41993.89
548.84	41710.69
549.01	41509.40
549.18	41947.08
549.34	41694.30
549.51	41909.63
549.68	42071.13
549.84	41677.92
550.01	42377.74
550.18	42265.39
550.34	41794.95
550.51	41940.06
550.68	42213.90
550.84	41654.51
551.01	42131.98
551.18	42307.52
551.34	42213.90
551.51	42054.75
551.68	42464.34
551.84	42263.05
552.01	42080.49
552.18	42089.85
552.34	42277.10
552.51	42712.44
552.68	42698.39
552.84	42845.85
553.01	43061.18
553.18	42424.55
553.34	42653.92
553.51	42017.30
553.67	42604.77
553.84	42934.79
554.01	42747.54
554.17	43117.35
554.34	43030.75
554.51	43232.04
554.67	43339.70
554.84	42693.71
555.00	42916.06
555.17	42682.01
555.33	42906.70
555.50	42916.06
555.67	42988.62
555.83	43473.11
556.00	42983.94
556.16	43320.98
556.33	43180.54
556.50	42834.14
556.66	43487.15
556.83	43208.63
556.99	43138.41
557.16	43182.88
557.32	43386.51
557.49	42916.06
557.65	43398.21
557.82	43033.09
557.98	43164.16
558.15	42946.49
558.32	43910.79
558.48	43503.54
558.65	43414.60
558.81	43529.28
558.98	43578.43
559.14	43690.78
559.31	43323.32
559.47	43391.19
559.64	43814.83
559.80	43775.04
559.97	44051.22
560.13	43138.41
560.30	43648.65
560.46	43599.50
560.63	43526.94
560.79	43665.03
560.96	43669.72
561.12	43856.96
561.29	43761.00
561.45	43363.11
561.61	44009.09
561.78	43618.22
561.94	43709.50
562.11	43611.20
562.27	43948.24
562.44	43622.90
562.60	43524.60
562.77	44184.63
562.93	43718.87
563.10	44182.29
563.26	43545.67
563.42	44037.18
563.59	43658.01
563.75	43749.29
563.92	44032.50
564.08	44149.53
564.24	44156.55
564.41	43945.90
564.57	43936.54
564.74	44006.75
564.90	44098.03
565.07	44201.02
565.23	44100.37
565.39	44119.10
565.56	44032.50
565.72	43833.55
565.88	43838.23
566.05	44030.16
566.21	44130.80
566.38	44098.03
566.54	43915.47
566.70	44521.67
566.87	44353.15
567.03	44116.76
567.19	44360.17
567.36	44184.63
567.52	44336.77
567.68	44725.30
567.85	44734.66
568.01	44421.03
568.17	44006.75
568.34	44453.79
568.50	44114.42
568.66	44126.12
568.83	44341.45
568.99	44128.46
569.15	44648.06
569.32	43786.74
569.48	44067.61
569.64	44463.16
569.81	44465.50
569.97	44123.78
570.13	44678.49
570.30	44123.78
570.46	44343.79
570.62	44465.50
570.78	44093.35
570.95	44034.84
571.11	44816.58
571.27	44374.22
571.43	44198.68
571.60	44634.02
571.76	44615.29
571.92	44289.96
572.09	44758.06
572.25	44498.26
572.41	44308.68
572.57	44406.98
572.74	45184.04
572.90	44842.32
573.06	44570.82
573.22	44559.12
573.38	44788.49
573.55	44692.53
573.71	45172.34
573.87	44662.10
574.03	44165.91
574.20	44493.58
574.36	44177.61
574.52	44854.03
574.68	44481.88
574.84	44479.54
575.01	44524.01
575.17	44823.60
575.33	44098.03
575.49	44547.42
575.65	44968.71
575.82	44460.82
575.98	44484.22
576.14	44685.51
576.30	44580.18
576.46	44952.33
576.62	44699.55
576.79	44435.07
576.95	44268.89
577.11	44409.32
577.27	44753.38
577.43	44619.97
577.59	44610.61
577.75	44758.06
577.92	44346.13
578.08	44402.30
578.24	44388.26
578.40	44744.02
578.56	44788.49
578.72	44854.03
578.88	44816.58
579.04	44896.16
579.21	44903.18
579.37	44807.22
579.53	44229.10
579.69	44201.02
579.85	44418.69
580.01	44591.89
580.17	44788.49
580.33	45006.16
580.49	45137.23
580.65	44486.56
580.82	45254.26
580.98	44933.60
581.14	44493.58
581.30	45275.32
581.46	44477.20
581.62	44676.15
581.78	44762.75
581.94	45144.25
582.10	45043.61
582.26	44851.69
582.42	44992.12
582.58	44556.78
582.74	44786.15
582.90	44945.31
583.06	44713.59
583.22	44900.84
583.38	45064.67
583.54	44835.30
583.70	44830.62
583.86	44854.03
584.02	44486.56
584.18	44708.91
584.34	44741.68
584.50	44837.64
584.66	44701.89
584.82	44669.12
584.98	45102.12
585.14	45071.70
585.30	45038.93
585.46	44722.96
585.62	44463.16
585.78	44835.30
585.94	44411.67
586.10	44535.71
586.26	44502.95
586.42	44854.03
586.58	44896.16
586.74	45181.70
586.90	44938.29
587.06	44465.50
587.22	45167.66
587.38	44804.88
587.54	45233.19
587.70	45085.74
587.86	45088.08
588.02	45118.51
588.18	45191.06
588.34	44851.69
588.49	44926.58
588.65	44481.88
588.81	44484.22
588.97	44554.44
589.13	44737.00
589.29	44978.07
589.45	45055.31
589.61	45071.70
589.77	45186.38
589.93	45153.62
590.08	45153.62
590.24	45331.50
590.40	45418.10
590.56	45067.02
590.72	44989.78
590.88	45127.87
591.04	45038.93
591.20	45289.37
591.35	45507.04
591.51	45450.86
591.67	45008.50
591.83	45427.46
591.99	44676.15
592.15	44945.31
592.31	44832.96
592.46	44690.19
592.62	45027.23
592.78	45453.20
592.94	45471.93
593.10	45088.08
593.26	45275.32
593.41	45162.98
593.57	45303.41
593.73	45052.97
593.89	45125.53
594.05	45090.42
594.20	44662.10
594.36	45673.21
594.52	45137.23
594.68	45263.62
594.84	45387.67
594.99	45705.98
595.15	45214.47
595.31	45415.76
595.47	45603.00
595.62	45233.19
595.78	45202.77
595.94	45343.20
596.10	45469.59
596.25	45357.24
596.41	45141.91
596.57	44858.71
596.73	45427.46
596.88	44664.44
597.04	45375.97
597.20	44931.26
597.36	45308.09
597.51	45408.73
597.67	45125.53
597.83	45305.75
597.99	45834.71
598.14	45223.83
598.30	45675.55
598.46	45006.16
598.61	45254.26
598.77	45268.30
598.93	45141.91
599.09	45291.71
599.24	45497.67
599.40	44914.88
599.56	45275.32
599.71	45092.76
599.87	46059.40
600.03	45158.30
600.18	45322.13
600.34	45553.85
600.50	45495.33
600.65	45085.74
600.81	45102.12
600.97	45764.49
601.12	46078.13
601.28	45827.69
601.44	45024.89
601.59	45357.24
601.75	45106.80
601.91	45275.32
602.06	45586.61
602.22	45415.76
602.37	45352.56
602.53	45485.97
602.69	45280.00
602.84	45441.50
603.00	45031.91
603.16	45240.21
603.31	44912.54
603.47	45153.62
603.62	45017.86
603.78	45638.11
603.94	44875.09
604.09	45553.85
604.25	45329.16
604.40	45244.90
604.56	45268.30
604.71	45109.14
604.87	45258.94
605.03	45158.30
605.18	45015.52
605.34	45076.38
605.49	44987.44
605.65	45155.96
605.80	44842.32
605.96	45326.81
606.12	45249.58
606.27	45345.54
606.43	45195.74
606.58	45595.98
606.74	44973.39
606.89	45181.70
607.05	45324.47
607.20	45216.81
607.36	44952.33
607.51	45511.72
607.67	45003.82
607.82	45205.11
607.98	45162.98
608.13	44942.97
608.29	44765.09
608.44	44570.82
608.60	44584.86
608.75	44814.24
608.91	44851.69
609.06	44942.97
609.22	45373.63
609.37	44737.00
609.53	44889.13
609.68	44870.41
609.84	44648.06
609.99	45010.84
610.15	44619.97
610.30	44624.65
610.46	44458.48
610.61	44371.88
610.76	44931.26
610.92	44952.33
611.07	44311.02
611.23	44952.33
611.38	44470.18
611.54	44210.38
611.69	44458.48
611.84	44893.82
612.00	43995.05
612.15	44322.72
612.31	45090.42
612.46	44355.49
612.62	44809.56
612.77	44364.85
612.92	44406.98
613.08	44252.51
613.23	44376.56
613.39	44488.90
613.54	43955.26
613.69	43983.35
613.85	44397.62
614.00	44549.76
614.15	44472.52
614.31	44725.30
614.46	44692.53
614.62	44589.55
614.77	44147.18
614.92	44315.70
615.08	44423.37
615.23	44065.27
615.38	43854.62
615.54	43660.35
615.69	43885.04
615.84	44285.28
616.00	44034.84
616.15	43988.03
616.30	44261.87
616.46	43821.85
616.61	43658.01
616.76	43962.28
616.92	43636.95
617.07	44069.95
617.22	43519.92
617.37	44086.33
617.53	43852.28
617.68	43749.29
617.83	43789.08
617.99	43805.47
618.14	43468.43
618.29	43819.51
618.45	43660.35
618.60	43896.75
618.75	43913.13
618.90	44182.29
619.06	43847.60
619.21	43695.46
619.36	43571.41
619.51	43592.48
619.67	43372.47
619.82	43819.51
619.97	43648.65
620.12	43353.74
620.28	43150.12
620.43	43456.73
620.58	43674.40
620.73	43707.16
620.89	43538.65
621.04	43372.47
621.19	43203.95
621.34	43559.71
621.49	43005.00
621.65	43150.12
621.80	43363.11
621.95	43079.90
622.10	43213.31
622.25	43145.44
622.41	43023.73
622.56	43068.20
622.71	43367.79
622.86	42955.85
623.01	43194.59
623.16	43227.35
623.32	43082.24
623.47	43405.23
623.62	43189.91
623.77	42941.81
623.92	42859.89
624.07	42871.59
624.23	42600.09
624.38	42895.00
624.53	42113.26
624.68	42862.23
624.83	43007.34
624.98	43028.41
625.13	42667.97
625.29	42850.53
625.44	42925.42
625.59	42628.18
625.74	42244.33
625.89	41752.82
626.04	42326.25
626.19	42469.02
626.34	42712.44
626.49	42483.06
626.65	42553.28
626.80	42246.67
626.95	42298.16
627.10	41928.36
627.25	42204.54
627.40	41972.83
627.55	42328.59
627.70	41528.13
627.85	41937.72
628.00	42244.33
628.15	42658.60
628.30	41787.92
628.45	42209.22
628.60	41787.92
628.76	42553.28
628.91	42150.71
629.06	41937.72
629.21	41914.31
629.36	41713.03
629.51	41092.79
629.66	41804.31
629.81	41127.89
629.96	41794.95
630.11	41633.45
630.26	41837.08
630.41	41832.39
630.56	41434.50
630.71	42284.12
630.86	41500.04
631.01	41539.83
631.16	41926.02
631.31	41228.54
631.46	41296.41
631.61	41373.65
631.76	41546.85
631.91	42071.13
632.06	41558.55
632.21	41574.94
632.36	41879.21
632.51	41139.60
632.66	41350.24
632.81	40816.60
632.96	41296.41
633.10	41603.02
633.25	40961.72
633.40	41532.81
633.55	41698.98
633.70	40938.31
633.85	41364.29
634.00	41191.09
634.15	41165.34
634.30	40992.14
634.45	40968.74
634.60	41198.11
634.75	40910.22
634.90	40907.88
635.05	40807.24
635.19	41062.36
635.34	41284.71
635.49	40580.21
635.64	40994.48
635.79	40484.25
635.94	40538.08
636.09	40683.19
636.24	40594.25
636.39	40179.98
636.53	40744.05
636.68	40271.26
636.83	40093.38
636.98	41163.00
637.13	40046.57
637.28	40631.70
637.43	40928.95
637.57	40608.29
637.72	40741.71
637.87	40353.18
638.02	40196.36
638.17	39658.04
638.32	40135.51
638.46	40184.66
638.61	40229.13
638.76	40315.73
638.91	40140.19
639.06	40362.54
639.20	40233.81
639.35	40114.44
639.50	40472.54
639.65	40114.44
639.80	40383.60
639.94	40072.31
640.09	40215.08
640.24	40175.30
640.39	39974.01
640.54	39824.22
640.68	39782.09
640.83	40161.25
640.98	39878.05
641.13	39758.68
641.27	39917.84
641.42	39763.36
641.57	40023.16
641.72	39929.54
641.86	39620.59
642.01	39943.58
642.16	39192.27
642.31	39196.95
642.45	39861.66
642.60	39449.73
642.75	39470.79
642.90	39594.84
643.04	39473.13
643.19	39524.63
643.34	39545.69
643.48	39615.91
643.63	39297.59
643.78	38817.78
643.93	39346.75
644.07	38934.81
644.22	39395.90
644.37	39002.69
644.51	39210.99
644.66	39524.63
644.81	39091.63
644.95	39255.46
645.10	39477.82
645.25	39510.58
645.39	39232.06
645.54	39342.06
645.69	39068.22
645.83	39042.48
645.98	38979.28
646.13	39281.21
646.27	39512.92
646.42	39072.90
646.57	38998.01
646.71	38656.29
646.86	38895.02
647.00	39086.95
647.15	39306.96
647.30	39253.12
647.44	38911.41
647.59	38979.28
647.74	38766.29
647.88	38766.29
648.03	38817.78
648.17	38534.58
648.32	38354.36
648.47	38520.54
648.61	38763.95
648.76	38909.07
648.90	38436.28
649.05	39096.31
649.20	38880.98
649.34	38649.27
649.49	38340.32
649.63	38635.22
649.78	38609.48
649.92	37874.55
650.07	38789.70
650.21	37996.26
650.36	38347.34
650.51	38129.67
650.65	39021.41
650.80	38979.28
650.94	38607.14
651.09	38286.48
651.23	38471.39
651.38	38071.15
651.52	38244.35
651.67	38204.56
651.81	38417.55
651.96	38129.67
652.10	38031.36
652.25	37914.34
652.39	38014.98
652.54	38263.08
652.68	38305.21
652.83	37923.70
652.97	38223.29
653.12	38022.00
653.26	37715.39
653.41	38183.50
653.55	37862.85
653.70	37446.23
653.84	37830.08
653.99	37741.14
654.13	37890.93
654.27	37434.53
654.42	37935.40
654.56	37909.66
654.71	37303.46
654.85	37937.74
655.00	37961.15
655.14	37406.44
655.29	36954.72
655.43	37598.37
655.57	36811.95
655.72	37275.37
655.86	36816.63
656.01	37132.60
656.15	36928.97
656.30	36971.10
656.44	36865.78
656.58	36928.97
656.73	37003.87
656.87	36971.10
657.01	36804.92
657.16	36416.40
657.30	36573.21
657.45	36809.61
657.59	36715.98
657.73	36776.84
657.88	37038.98
658.02	36561.51
658.16	37170.05
658.31	36587.25
658.45	37125.58
658.60	36566.19
658.74	36842.37
658.88	36657.47
659.03	36900.89
659.17	36594.28
659.31	36444.48
659.46	36552.15
659.60	36273.62
659.74	36086.38
659.89	36400.01
660.03	36247.88
660.17	36472.57
660.32	36191.70
660.46	36481.93
660.60	36257.24
660.74	36383.63
660.89	36219.79
661.03	35901.48
661.17	35604.23
661.32	35969.35
661.46	35871.05
661.60	35508.27
661.74	36009.14
661.89	35416.99
662.03	35681.47
662.17	35564.44
662.31	35852.33
662.46	35807.86
662.60	35882.75
662.74	35639.34
662.88	35585.50
663.03	35683.81
663.17	35475.50
663.31	35189.95
663.45	35566.78
663.60	35370.18
663.74	35152.51
663.88	35271.87
664.02	35168.89
664.17	35309.32
664.31	34487.79
664.45	35019.10
664.59	35204.00
664.73	34838.87
664.88	34504.18
665.02	34389.49
665.16	34862.28
665.30	34637.59
665.44	34541.63
665.59	34293.53
665.73	34464.39
665.87	33921.38
666.01	34436.30
666.15	33968.19
666.29	34410.56
666.44	34649.29
666.58	34403.53
666.72	33897.98
666.86	34010.32
667.00	34227.99
667.14	34181.18
667.28	34117.99
667.43	33731.80
667.57	34120.33
667.71	33275.40
667.85	33727.12
667.99	33589.03
668.13	33558.60
668.27	33795.00
668.41	34007.98
668.56	33769.25
668.70	33563.28
668.84	33209.86
668.98	32898.57
669.12	33359.66
669.26	33383.06
669.40	33340.93
669.54	33071.77
669.68	33139.65
669.82	32802.61
669.96	32814.31
670.10	32680.90
670.25	33020.28
670.39	32694.94
670.53	32762.82
670.67	32725.37
670.81	32842.40
670.95	32711.33
671.09	32582.60
671.23	33074.11
671.37	32538.13
671.51	32659.84
671.65	32287.69
671.79	32243.22
671.93	32250.24
672.07	32385.99
672.21	32491.32
672.35	32140.24
672.49	32144.92
672.63	31821.92
672.77	31878.10
672.91	31967.04
673.05	31618.30
673.19	31559.78
673.33	31346.79
673.47	31435.74
673.61	31201.68
673.75	31295.30
673.89	30817.83
674.03	31206.36
674.17	31070.61
674.31	31386.58
674.45	31005.08
674.59	31178.28
674.73	30813.15
674.87	31143.17
675.01	31103.38
675.15	30923.16
675.29	31070.61
675.43	30728.89
675.56	30843.58
675.70	30455.05
675.84	30508.88
675.98	29778.64
676.12	29827.79
676.26	30012.69
676.40	29820.77
676.54	29605.44
676.68	29823.11
676.82	29521.18
676.96	29795.02
677.10	29411.17
677.23	29560.97
677.37	29539.90
677.51	29326.91
677.65	29233.29
677.79	29081.16
677.93	29174.78
678.07	29017.96
678.21	28584.96
678.34	28844.76
678.48	28542.83
678.62	28386.02
678.76	28727.74
678.90	28381.34
679.04	28606.03
679.18	28360.27
679.31	27917.91
679.45	27885.14
679.59	27950.68
679.73	28065.36
679.87	27936.63
680.00	27887.48
680.14	27641.73
680.28	27594.92
680.42	27555.13
680.56	27384.27
680.70	27278.94
680.83	27243.84
680.97	27044.89
681.11	26998.08
681.25	26878.71
681.39	26979.36
681.52	26771.05
681.66	26822.54
681.80	26794.45
681.94	26682.11
682.07	26494.86
682.21	26005.69
682.35	26312.30
682.49	26026.76
682.62	26307.62
682.76	26242.09
682.90	25837.17
683.04	25734.19
683.17	26050.16
683.31	25813.77
683.45	26106.34
683.59	25970.58
683.72	25530.56
683.86	25301.19
684.00	25380.77
684.13	25535.24
684.27	25656.95
684.41	25123.31
684.55	25057.78
684.68	24741.80
684.82	24704.35
684.96	24407.11
685.09	25015.65
685.23	24685.63
685.37	24329.87
685.50	24702.01
685.64	24554.56
685.78	24458.60
685.91	24018.58
686.05	24217.52
686.19	23847.72
686.32	24189.44
686.46	23901.55
686.60	23405.36
686.73	23606.64
686.87	23515.36
687.01	23433.44
687.14	22972.36
687.28	22838.95
687.42	22970.02
687.55	22948.95
687.69	23005.13
687.82	22780.43
687.96	23157.26
688.10	22789.80
688.23	22757.03
688.37	22431.69
688.50	22628.30
688.64	22286.58
688.78	22450.42
688.91	22190.62
689.05	22211.68
689.18	22202.32
689.32	21759.96
689.46	22008.06
689.59	22450.42
689.73	22162.53
689.86	21656.98
690.00	21640.59
690.13	21661.66
690.27	21483.78
690.41	21647.61
690.54	21369.09
690.68	21041.42
690.81	21020.35
690.95	21003.97
691.08	21029.71
691.22	20943.11
691.35	21212.28
691.49	20802.68
691.62	21128.02
691.76	21006.31
691.89	20800.34
692.03	20510.11
692.16	20467.98
692.30	20280.74
692.43	20294.79
692.57	20135.63
692.70	20039.67
692.84	20325.21
692.97	20100.52
693.11	19618.37
693.24	19393.68
693.38	19847.74
693.51	19421.77
693.65	19822.00
693.78	19309.42
693.92	19798.59
694.05	19260.27
694.19	19475.60
694.32	19178.35
694.45	19180.69
694.59	19234.52
694.72	18796.84
694.86	19040.26
694.99	18576.83
695.13	18445.76
695.26	18670.45
695.39	18307.67
695.53	18822.59
695.66	18366.18
695.80	18628.32
695.93	18195.32
696.07	18090.00
696.20	18150.85
696.33	18169.58
696.47	17998.72
696.60	18015.10
696.73	17914.46
696.87	17759.98
697.00	17860.63
697.14	17926.16
697.27	17930.84
697.40	17666.36
697.54	17397.20
697.67	17137.40
697.80	17404.22
697.94	17249.75
698.07	16924.41
698.21	16987.61
698.34	16959.52
698.47	17090.59
698.61	16788.66
698.74	16692.70
698.87	16585.04
699.01	16137.99
699.14	16386.09
699.27	16496.10
699.40	16271.40
699.54	16177.78
699.67	16109.91
699.80	15880.53
699.94	15953.09
700.07	16004.58
700.20	15826.70
700.34	15964.79
700.47	15744.78
700.60	15777.55
700.73	15859.47
700.87	15836.06
701.00	15597.33
701.13	15440.51
701.26	15386.68
701.40	15358.60
701.53	15349.23
701.66	15344.55
701.79	15227.53
701.93	15145.61
702.06	14824.95
702.19	14960.70
702.32	14956.02
702.46	14930.28
702.59	14764.10
702.72	14593.24
702.85	14867.08
702.99	14991.13
703.12	14752.40
703.25	14544.09
703.38	14539.41
703.51	14244.50
703.65	14406.00
703.78	14270.25
703.91	14207.05
704.04	14195.35
704.17	14242.16
704.31	14087.68
704.44	13584.47
704.57	13781.07
704.70	13404.25
704.83	13689.79
704.96	13448.72
705.10	13987.04
705.23	13671.07
>>>>>End Processed Spectral Data<<<<<
