SpectraSuite Data File
++++++++++++++++++++++++++++++++++++
Date: Fri Oct 25 10:44:07 EDT 2013
User: price-jones
Dark Spectrum Present: No
Reference Spectrum Present: No
Number of Sampled Component Spectra: 1
Spectrometers: USB2+H05261
Integration Time (usec): 100000 (USB2+H05261)
Spectra Averaged: 1 (USB2+H05261)
Boxcar Smoothing: 0 (USB2+H05261)
Correct for Electrical Dark: No (USB2+H05261)
Strobe/Lamp Enabled: No (USB2+H05261)
Correct for Detector Non-linearity: No (USB2+H05261)
Correct for Stray Light: No (USB2+H05261)
Number of Pixels in Processed Spectrum: 2048
>>>>>Begin Processed Spectral Data<<<<<
365.73	124.05
365.92	124.05
366.12	124.05
366.32	49.15
366.52	86.60
366.72	4.68
366.91	0.00
367.11	0.00
367.31	11.70
367.51	77.24
367.70	56.17
367.90	0.00
368.10	0.00
368.30	25.75
368.49	56.17
368.69	126.39
368.89	25.75
369.09	100.64
369.28	51.49
369.48	23.41
369.68	105.32
369.87	30.43
370.07	131.07
370.27	56.17
370.47	184.90
370.66	348.74
370.86	367.46
371.06	454.06
371.25	547.69
371.45	444.70
371.65	425.98
371.84	449.38
372.04	442.36
372.24	454.06
372.44	559.39
372.63	550.03
372.83	521.94
373.03	538.32
373.22	519.60
373.42	517.26
373.62	500.87
373.81	486.83
374.01	545.34
374.21	575.77
374.40	505.56
374.60	512.58
374.79	500.87
374.99	641.31
375.19	631.94
375.38	589.82
375.58	559.39
375.78	617.90
375.97	697.48
376.17	688.12
376.37	596.84
376.56	617.90
376.76	599.18
376.95	587.47
377.15	582.79
377.35	557.05
377.54	667.05
377.74	631.94
377.93	662.37
378.13	683.44
378.33	734.93
378.52	608.54
378.72	648.33
378.91	660.03
379.11	648.33
379.31	624.92
379.50	678.76
379.70	727.91
379.89	730.25
380.09	681.10
380.28	704.50
380.48	676.41
380.68	723.23
380.87	706.84
381.07	603.86
381.26	704.50
381.46	758.33
381.65	723.23
381.85	706.84
382.04	760.67
382.24	655.35
382.43	695.14
382.63	653.01
382.83	697.48
383.02	758.33
383.22	828.55
383.41	713.86
383.61	781.74
383.80	821.53
384.00	795.78
384.19	772.38
384.39	821.53
384.58	753.65
384.78	791.10
384.97	844.93
385.17	826.21
385.36	805.14
385.56	777.06
385.75	777.06
385.95	795.78
386.14	968.98
386.34	849.61
386.53	851.96
386.72	800.46
386.92	964.30
387.11	851.96
387.31	779.40
387.50	866.00
387.70	863.66
387.89	847.27
388.09	854.30
388.28	931.53
388.48	912.81
388.67	950.26
388.86	887.06
389.06	938.55
389.25	957.28
389.45	1006.43
389.64	933.87
389.84	924.51
390.03	945.58
390.22	1008.77
390.42	1118.78
390.61	1050.90
390.81	1015.79
391.00	1048.56
391.19	1100.05
391.39	1034.52
391.58	1081.33
391.78	1078.99
391.97	1100.05
392.16	1064.94
392.36	1050.90
392.55	1027.50
392.75	992.39
392.94	1053.24
393.13	1013.45
393.33	994.73
393.52	973.66
393.71	1174.95
393.91	1090.69
394.10	1191.33
394.29	1151.54
394.49	1151.54
394.68	1233.46
394.88	1118.78
395.07	1219.42
395.26	1238.14
395.46	1191.33
395.65	1191.33
395.84	1289.64
396.04	1282.61
396.23	1193.67
396.42	1256.87
396.62	1259.21
396.81	1210.06
397.00	1259.21
397.19	1259.21
397.39	1294.32
397.58	1465.18
397.77	1423.05
397.97	1434.75
398.16	1385.60
398.35	1481.56
398.55	1448.79
398.74	1432.41
398.93	1565.82
399.12	1544.75
399.32	1448.79
399.51	1511.99
399.70	1643.06
399.90	1535.39
400.09	1624.33
400.28	1565.82
400.47	1558.80
400.67	1544.75
400.86	1675.82
401.05	1591.56
401.24	1671.14
401.44	1673.48
401.63	1741.36
401.82	1657.10
402.01	1771.79
402.21	1717.95
402.40	1750.72
402.59	1710.93
402.78	1673.48
402.97	1778.81
403.17	1753.06
403.36	1877.11
403.55	1830.30
403.74	1909.88
403.93	1795.19
404.13	1886.47
404.32	1820.94
404.51	1954.35
404.70	1909.88
404.89	1802.21
405.09	1994.14
405.28	2045.63
405.47	2001.16
405.66	1994.14
405.85	1982.43
406.05	2022.22
406.24	2085.42
406.43	1994.14
406.62	2080.74
406.81	2104.14
407.00	2045.63
407.20	2043.29
407.39	2043.29
407.58	2209.47
407.77	2251.60
407.96	2202.44
408.15	2204.78
408.34	2270.32
408.54	2328.83
408.73	2335.85
408.92	2251.60
409.11	2291.38
409.30	2403.73
409.49	2375.64
409.68	2286.70
409.87	2265.64
410.07	2312.45
410.26	2408.41
410.45	2354.58
410.64	2469.27
410.83	2406.07
411.02	2466.92
411.21	2665.87
411.40	2513.74
411.59	2537.14
411.78	2679.91
411.98	2600.34
412.17	2693.96
412.36	2621.40
412.55	2736.09
412.74	2705.66
412.93	2684.59
413.12	2684.59
413.31	2867.16
413.50	2717.36
413.69	2925.67
413.88	2803.96
414.07	2836.73
414.26	2876.52
414.45	2836.73
414.64	2848.43
414.83	3042.70
415.02	2951.42
415.22	2972.48
415.41	3169.09
415.60	3059.08
415.79	3232.28
415.98	3241.64
416.17	3239.30
416.36	3136.32
416.55	3194.83
416.74	3286.11
416.93	3243.98
417.12	3269.73
417.31	3344.63
417.50	3346.97
417.69	3482.72
417.88	3489.74
418.07	3468.67
418.26	3323.56
418.45	3555.27
418.64	3604.42
418.83	3698.05
419.02	3562.30
419.21	3597.40
419.39	3599.74
419.58	3471.01
419.77	3494.42
419.96	3616.13
420.15	3765.92
420.34	3705.07
420.53	3716.77
420.72	3831.46
420.91	3822.09
421.10	3770.60
421.29	3915.72
421.48	3772.94
421.67	3833.80
421.86	3726.13
422.05	3805.71
422.24	3695.71
422.43	3709.75
422.61	3857.20
422.80	3997.64
422.99	3925.08
423.18	3873.59
423.37	4042.11
423.56	3962.53
423.75	3920.40
423.94	3950.82
424.13	3840.82
424.32	3784.65
424.50	4042.11
424.69	3957.85
424.88	4042.11
425.07	3904.01
425.26	3819.75
425.45	3845.50
425.64	3985.93
425.83	4011.68
426.01	3904.01
426.20	4074.87
426.39	3976.57
426.58	3941.46
426.77	4037.42
426.96	3875.93
427.15	4098.28
427.33	4142.75
427.52	4051.47
427.71	4124.02
427.90	4149.77
428.09	4170.83
428.28	4166.15
428.46	4180.20
428.65	4081.89
428.84	4217.65
429.03	4234.03
429.22	4152.11
429.40	4189.56
429.59	4081.89
429.78	4021.04
429.97	3894.65
430.16	4046.79
430.34	4109.98
430.53	4149.77
430.72	4217.65
430.91	4229.35
431.10	4341.69
431.28	4475.10
431.47	4550.00
431.66	4760.65
431.85	4451.70
432.03	4676.39
432.22	4709.16
432.41	4657.67
432.60	4760.65
432.79	4774.69
432.97	4723.20
433.16	4786.40
433.35	4660.01
433.54	4557.02
433.72	4582.77
433.91	4657.67
434.10	4770.01
434.28	4840.23
434.47	4945.55
434.66	4943.21
434.85	4947.89
435.03	5043.85
435.22	4940.87
435.41	5053.22
435.59	5116.41
435.78	5104.71
435.97	5249.82
436.16	5160.88
436.34	4964.28
436.53	4929.17
436.72	5205.35
436.90	5013.43
437.09	5179.61
437.28	5160.88
437.46	5172.58
437.65	5156.20
437.84	5200.67
438.02	5109.39
438.21	5268.55
438.40	5135.14
438.58	5210.03
438.77	5390.25
438.96	5296.63
439.14	5406.64
439.33	5521.32
439.52	5614.95
439.70	5544.73
439.89	5518.98
440.08	5734.31
440.26	5696.86
440.45	5668.78
440.63	5998.79
440.82	5912.19
441.01	5774.10
441.19	5891.13
441.38	6118.16
441.57	5963.68
441.75	6197.74
441.94	6143.91
442.12	6221.14
442.31	6326.47
442.50	6415.41
442.68	6424.77
442.87	6370.94
443.05	6354.55
443.24	6462.22
443.43	6410.73
443.61	6263.27
443.80	6438.81
443.98	6310.08
444.17	6303.06
444.35	6420.09
444.54	6600.31
444.73	6509.03
444.91	6572.22
445.10	6562.86
445.28	6422.43
445.47	6452.86
445.65	6384.98
445.84	6445.84
446.02	6642.44
446.21	6438.81
446.39	6469.24
446.58	6654.14
446.77	6595.63
446.95	6609.67
447.14	6574.56
447.32	6902.24
447.51	6665.85
447.69	6459.88
447.88	6644.78
448.06	6822.66
448.25	6595.63
448.43	6743.08
448.62	6836.70
448.80	6715.00
448.99	6841.39
449.17	6698.61
449.36	6773.51
449.54	6878.83
449.73	7016.93
449.91	6986.50
450.10	7059.06
450.28	7157.36
450.46	7246.30
450.65	7096.50
450.83	7293.11
451.02	7171.40
451.20	7185.44
451.39	7220.55
451.57	7262.68
451.76	7133.95
451.94	7309.49
452.13	7304.81
452.31	7133.95
452.49	6974.80
452.68	7152.68
452.86	7045.01
453.05	7169.06
453.23	7164.38
453.42	7339.92
453.60	7330.56
453.78	7463.97
453.97	7386.73
454.15	7454.61
454.34	7232.26
454.52	7506.10
454.70	7454.61
454.89	7337.58
455.07	7531.84
455.26	7770.58
455.44	7695.68
455.62	7618.44
455.81	7744.83
455.99	7751.85
456.17	7712.07
456.36	7899.31
456.54	7915.69
456.73	8161.45
456.91	8063.15
457.09	8327.63
457.28	8191.88
457.46	7915.69
457.64	7953.14
457.83	7957.82
458.01	7985.91
458.19	8264.43
458.38	8259.75
458.56	8182.51
458.74	8355.71
458.93	8409.54
459.11	8259.75
459.29	8180.17
459.48	8416.57
459.66	8339.33
459.84	8276.13
460.03	8348.69
460.21	8589.77
460.39	8739.56
460.57	8360.39
460.76	8468.06
460.94	8823.82
461.12	8601.47
461.31	8667.00
461.49	8601.47
461.67	8568.70
461.85	8814.46
462.04	8945.53
462.22	9345.76
462.40	9252.14
462.59	8725.52
462.77	9020.42
462.95	8910.42
463.13	8849.57
463.32	8795.73
463.50	8915.10
463.68	8945.53
463.86	9067.24
464.05	8910.42
464.23	8954.89
464.41	8994.68
464.59	9057.87
464.78	8947.87
464.96	9123.41
465.14	9184.26
465.32	9036.81
465.50	9423.00
465.69	9100.00
465.87	9259.16
466.05	9277.88
466.23	9128.09
466.41	9156.18
466.60	9214.69
466.78	9053.19
466.96	9256.82
467.14	9193.62
467.32	9476.83
467.51	9383.21
467.69	9420.66
467.87	9455.76
468.05	9425.34
468.23	9369.16
468.41	9404.27
468.60	9593.86
468.78	9652.37
468.96	9563.43
469.14	9561.09
469.32	9640.67
469.50	9415.98
469.69	9554.07
469.87	9856.00
470.05	9764.72
470.23	9947.28
470.41	9844.29
470.59	9984.73
470.77	9664.07
470.95	10106.43
471.14	10167.29
471.32	9818.55
471.50	10361.55
471.68	10281.97
471.86	10445.81
472.04	10380.28
472.22	10665.82
472.40	10604.97
472.58	10415.38
472.77	10595.61
472.95	10499.64
473.13	10904.56
473.31	10544.11
473.49	10417.72
473.67	10597.95
473.85	10815.62
474.03	10853.06
474.21	10843.70
474.39	10946.69
474.57	11023.92
474.75	11075.42
474.93	11272.02
475.12	11131.59
475.30	11377.34
475.48	11234.57
475.66	11241.59
475.84	11293.08
476.02	11293.08
476.20	11428.84
476.38	11566.93
476.56	11833.75
476.74	12081.85
476.92	11833.75
477.10	11840.77
477.28	12131.00
477.46	12109.93
477.64	12315.90
477.82	12381.43
478.00	12690.38
478.18	12360.37
478.36	12610.81
478.54	12643.57
478.72	12564.00
478.90	12879.97
479.08	12891.67
479.26	12830.82
479.44	13095.30
479.62	13027.42
479.80	13352.76
479.98	13371.48
480.16	13678.09
480.34	13429.99
480.52	13937.89
480.70	13446.38
480.88	13422.97
481.06	13930.87
481.24	14038.53
481.41	14150.88
481.59	14471.53
481.77	14347.48
481.95	14141.52
482.13	14403.66
482.31	14508.98
482.49	14780.48
482.67	14726.65
482.85	15000.49
483.03	15393.70
483.21	15152.63
483.39	15211.14
483.57	15538.82
483.74	15723.72
483.92	15639.46
484.10	15611.37
484.28	16161.40
484.46	16004.58
484.64	16561.63
484.82	15999.90
485.00	16468.01
485.18	16442.26
485.35	16800.37
485.53	16280.77
485.71	16018.63
485.89	16716.11
486.07	16435.24
486.25	16800.37
486.43	16741.85
486.61	17263.79
486.78	17401.88
486.96	17453.37
487.14	17860.63
487.32	17568.06
487.50	18085.32
487.68	18230.43
487.85	18209.37
488.03	18471.51
488.21	18850.67
488.39	18738.33
488.57	18719.60
488.75	18745.35
488.92	19154.94
489.10	19136.22
489.28	19435.81
489.46	19466.24
489.64	19529.43
489.81	20093.50
489.99	20222.23
490.17	19840.72
490.35	20545.22
490.53	20137.97
490.70	20662.25
490.88	20533.52
491.06	20414.15
491.24	20444.58
491.41	20863.54
491.59	20908.01
491.77	20879.92
491.95	21331.64
492.13	21352.71
492.30	21752.94
492.48	21809.11
492.66	21804.43
492.84	21940.18
493.01	22104.02
493.19	22092.32
493.37	22396.59
493.54	22305.31
493.72	22686.81
493.90	22625.96
494.08	22663.41
494.25	23042.57
494.43	23131.51
494.61	23379.61
494.79	23388.97
494.96	23396.00
495.14	23407.70
495.32	23784.52
495.49	23545.79
495.67	23871.12
495.85	23847.72
496.02	24367.32
496.20	24601.37
496.38	24105.18
496.55	24683.29
496.73	25205.23
496.91	24865.85
497.09	25359.70
497.26	25074.16
497.44	25310.55
497.62	25163.10
497.79	25830.15
497.97	25376.09
498.14	25542.27
498.32	25638.23
498.50	25511.84
498.67	25989.31
498.85	26082.93
499.03	26342.73
499.20	26525.29
499.38	26022.08
499.56	26508.91
499.73	26499.55
499.91	26651.68
500.08	26647.00
500.26	26373.16
500.44	26394.22
500.61	26529.97
500.79	26726.58
500.97	27002.76
501.14	27321.07
501.32	27187.66
501.49	26850.63
501.67	27161.92
501.84	27332.78
502.02	27332.78
502.20	27639.39
502.37	28037.28
502.55	28093.45
502.72	27983.44
502.90	27967.06
503.07	28484.32
503.25	28404.74
503.43	27983.44
503.60	28243.24
503.78	27915.57
503.95	28278.35
504.13	28442.19
504.30	28811.99
504.48	28737.10
504.65	28959.45
504.83	29060.09
505.01	29139.67
505.18	28994.56
505.36	29490.75
505.53	29663.95
505.71	29720.12
505.88	29729.48
506.06	28982.85
506.23	29453.30
506.41	29355.00
506.58	29720.12
506.76	29766.93
506.93	30256.11
507.11	29839.49
507.28	30008.01
507.46	29773.95
507.63	29956.52
507.81	30064.18
507.98	30490.16
508.16	30668.04
508.33	30593.14
508.50	30785.07
508.68	30778.04
508.85	31115.08
509.03	30986.35
509.20	31372.54
509.38	31243.81
509.55	31318.71
509.73	31131.47
509.90	31503.61
510.08	31400.63
510.25	31634.68
510.42	31379.56
510.60	31740.00
510.77	31985.76
510.95	32034.91
511.12	31674.47
511.30	31887.46
511.47	32133.21
511.64	32524.08
511.82	32070.02
511.99	32091.09
512.17	32437.48
512.34	32259.60
512.51	32610.68
512.69	32971.13
512.86	32816.65
513.04	33497.75
513.21	32821.33
513.38	32723.03
513.56	33020.28
513.73	32701.96
513.90	33076.45
514.08	32989.85
514.25	33371.36
514.43	33404.13
514.60	33448.60
514.77	33153.69
514.95	33677.97
515.12	33193.48
515.29	33301.14
515.47	34054.79
515.64	34188.21
515.81	33766.91
515.99	34040.75
516.16	33621.80
516.33	33703.71
516.51	33383.06
516.68	33420.51
516.85	33453.28
517.03	33757.55
517.20	34199.91
517.37	34696.10
517.54	34309.91
517.72	34506.52
517.89	34319.28
518.06	34129.69
518.24	34235.02
518.41	34213.95
518.58	34436.30
518.75	34918.45
518.93	34747.59
519.10	34979.31
519.27	34946.54
519.45	34815.47
519.62	35206.34
519.79	35056.54
519.96	35529.33
520.14	35648.70
520.31	35445.07
520.48	35679.13
520.65	35229.74
520.83	35875.73
521.00	36119.15
521.17	35962.33
521.34	35978.72
521.52	36030.21
521.69	36341.50
521.86	36133.19
522.03	36114.47
522.20	36266.60
522.38	36715.98
522.55	36694.92
522.72	36870.46
522.89	36779.18
523.07	36739.39
523.24	36517.04
523.41	36947.70
523.58	36940.68
523.75	37333.89
523.92	37221.54
524.10	37586.66
524.27	37099.83
524.44	37394.74
524.61	37647.52
524.78	37331.54
524.96	37263.67
525.13	37600.71
525.30	38005.62
525.47	37724.75
525.64	37483.68
525.81	37729.44
525.98	37455.59
526.16	37514.11
526.33	37443.89
526.50	37890.93
526.67	37411.12
526.84	37422.83
527.01	37296.44
527.18	37900.29
527.36	38050.09
527.53	38541.60
527.70	38457.34
527.87	38508.83
528.04	38202.22
528.21	38419.89
528.38	38623.52
528.55	38848.21
528.72	38583.73
528.89	39253.12
529.07	38962.90
529.24	38848.21
529.41	38850.55
529.58	39054.18
529.75	39026.09
529.92	39604.20
530.09	39159.50
530.26	39203.97
530.43	39325.68
530.60	39117.37
530.77	39035.45
530.94	39868.69
531.11	39278.87
531.28	39182.91
531.46	39924.86
531.63	39751.66
531.80	39386.54
531.97	39351.43
532.14	39491.86
532.31	39328.02
532.48	39550.37
532.65	40208.06
532.82	39484.84
532.99	39807.83
533.16	39707.19
533.33	40175.30
533.50	40088.70
533.67	40018.48
533.84	39894.43
534.01	40414.03
534.18	39952.94
534.35	40208.06
534.52	40275.94
534.69	40615.32
534.86	40442.12
535.03	40446.80
535.20	40861.07
535.37	40891.50
535.54	40947.67
535.71	40556.80
535.88	40631.70
536.05	40676.17
536.22	40676.17
536.38	40868.09
536.55	41137.26
536.72	40821.28
536.89	40631.70
537.06	41099.81
537.23	41324.50
537.40	40889.16
537.57	41020.23
537.74	40666.81
537.91	41191.09
538.08	41251.94
538.25	41081.08
538.42	41303.43
538.59	41600.68
538.75	41392.37
538.92	41383.01
539.09	41715.37
539.26	41198.11
539.43	41509.40
539.60	41832.39
539.77	41184.07
539.94	41617.07
540.11	41486.00
540.28	41525.78
540.44	41869.84
540.61	41581.96
540.78	41855.80
540.95	41930.70
541.12	41663.88
541.29	41621.75
541.46	42197.52
541.62	41893.25
541.79	42241.99
541.96	42033.68
542.13	41830.05
542.30	42082.83
542.47	42431.57
542.63	42012.62
542.80	42139.00
542.97	42445.62
543.14	42763.93
543.31	42707.76
543.48	43206.29
543.64	43370.13
543.81	43084.58
543.98	43243.74
544.15	42939.47
544.32	43100.97
544.48	43105.65
544.65	43054.15
544.82	43152.46
544.99	42632.86
545.16	43386.51
545.32	42806.06
545.49	43583.12
545.66	43901.43
545.83	43447.36
546.00	43587.80
546.16	43077.56
546.33	43257.78
546.50	42763.93
546.67	43339.70
546.83	43180.54
547.00	43512.90
547.17	43232.04
547.34	43459.07
547.50	43505.88
547.67	43487.15
547.84	43377.15
548.00	43997.39
548.17	43665.03
548.34	44126.12
548.51	44278.25
548.67	43819.51
548.84	43885.04
549.01	43730.57
549.18	43737.59
549.34	44032.50
549.51	44306.34
549.68	43950.58
549.84	43800.79
550.01	44238.47
550.18	44222.08
550.34	43899.09
550.51	44491.24
550.68	43969.30
550.84	43723.55
551.01	43966.96
551.18	44126.12
551.34	44519.33
551.51	44451.45
551.68	44224.42
551.84	44570.82
552.01	44023.14
552.18	44016.11
552.34	44411.67
552.51	44388.26
552.68	44414.01
552.84	44252.51
553.01	45130.21
553.18	44624.65
553.34	44170.59
553.51	44360.17
553.67	44528.69
553.84	45020.20
554.01	44486.56
554.17	45132.55
554.34	45296.39
554.51	45111.49
554.67	44952.33
554.84	45333.84
555.00	44851.69
555.17	44421.03
555.33	44474.86
555.50	44397.62
555.67	45006.16
555.83	44910.20
556.00	45139.57
556.16	45181.70
556.33	45144.25
556.50	45141.91
556.66	45165.32
556.83	44898.50
556.99	45270.64
557.16	44839.98
557.32	44905.52
557.49	45441.50
557.65	44804.88
557.82	44708.91
557.98	45495.33
558.15	45476.61
558.32	45298.73
558.48	45298.73
558.65	45202.77
558.81	44713.59
558.98	45048.29
559.14	45022.54
559.31	45322.13
559.47	45474.27
559.64	45588.95
559.80	45439.16
559.97	45415.76
560.13	45123.19
560.30	45331.50
560.46	45495.33
560.63	45890.88
560.79	45446.18
560.96	45778.54
561.12	45595.98
561.29	45532.78
561.45	45432.14
561.61	45507.04
561.78	45528.10
561.94	45193.40
562.11	45041.27
562.27	45439.16
562.44	45492.99
562.60	45918.97
562.77	45586.61
562.93	45883.86
563.10	45961.10
563.26	45373.63
563.42	45794.92
563.59	45766.84
563.75	45514.06
563.92	45956.42
564.08	45883.86
564.24	45858.12
564.41	45727.05
564.57	45748.11
564.74	45886.20
564.90	45397.03
565.07	45876.84
565.23	45895.56
565.39	45778.54
565.56	45942.38
565.72	45497.67
565.88	45792.58
566.05	45832.37
566.21	46047.70
566.38	45811.31
566.54	45862.80
566.70	46520.49
566.87	46241.96
567.03	46021.95
567.19	46288.77
567.36	46024.29
567.52	45890.88
567.68	46288.77
567.85	45563.21
568.01	46110.89
568.17	45626.40
568.34	45869.82
568.50	45588.95
568.66	45888.54
568.83	46181.11
568.99	45525.76
569.15	45858.12
569.32	45956.42
569.48	45801.94
569.64	45741.09
569.81	45715.34
569.97	45380.65
570.13	45909.61
570.30	45694.28
570.46	45628.74
570.62	45591.30
570.78	45516.40
570.95	45312.77
571.11	45869.82
571.27	46000.89
571.43	45567.89
571.60	46160.05
571.76	46068.76
571.92	45696.62
572.09	46211.54
572.25	45907.27
572.41	46160.05
572.57	46511.13
572.74	46515.81
572.90	45867.48
573.06	46237.28
573.22	45965.78
573.38	45860.46
573.55	46183.45
573.71	46625.81
573.87	46202.18
574.03	46527.51
574.20	46340.27
574.36	46071.10
574.52	46623.47
574.68	46274.73
574.84	46337.93
575.01	45989.19
575.17	46401.12
575.33	46272.39
575.49	45958.76
575.65	46541.55
575.82	46579.00
575.98	46052.38
576.14	46569.64
576.30	46569.64
576.46	46263.03
576.62	45722.37
576.79	45741.09
576.95	46092.17
577.11	46017.27
577.27	46099.19
577.43	46138.98
577.59	46457.29
577.75	45993.87
577.92	45776.20
578.08	45916.63
578.24	46307.50
578.40	46113.23
578.56	46099.19
578.72	46148.34
578.88	46571.98
579.04	46440.91
579.21	46127.28
579.37	46368.35
579.53	46183.45
579.69	46106.21
579.85	46220.90
580.01	46579.00
580.17	46452.61
580.33	46436.23
580.49	46412.82
580.65	46527.51
580.82	46162.39
580.98	46274.73
581.14	46005.57
581.30	46291.12
581.46	46667.94
581.62	46164.73
581.78	46628.15
581.94	46469.00
582.10	46164.73
582.26	46705.39
582.42	46410.48
582.58	45895.56
582.74	46213.88
582.90	46337.93
583.06	46663.26
583.22	46347.29
583.38	46745.18
583.54	46855.18
583.70	46667.94
583.86	46293.46
584.02	46328.56
584.18	46609.43
584.34	46443.25
584.50	46426.87
584.66	46096.85
584.82	46124.94
584.98	46375.37
585.14	46625.81
585.30	46506.44
585.46	46375.37
585.62	45633.42
585.78	46148.34
585.94	45844.07
586.10	46270.05
586.26	46536.87
586.42	46075.79
586.58	46478.36
586.74	46417.50
586.90	46384.74
587.06	46607.09
587.22	46504.10
587.38	46546.23
587.54	46337.93
587.70	46321.54
587.86	46590.70
588.02	46483.04
588.18	46368.35
588.34	46351.97
588.49	45902.59
588.65	45563.21
588.81	45713.00
588.97	45436.82
589.13	45394.69
589.29	46185.79
589.45	46258.35
589.61	46469.00
589.77	46749.86
589.93	46450.27
590.08	46501.76
590.24	46567.30
590.40	46672.62
590.56	46864.55
590.72	46761.56
590.88	46405.80
591.04	46490.06
591.20	46988.60
591.35	46700.71
591.51	46731.14
591.67	46815.40
591.83	46337.93
591.99	46742.84
592.15	46710.07
592.31	46766.24
592.46	46693.69
592.62	46251.33
592.78	46553.26
592.94	47133.71
593.10	46358.99
593.26	46752.20
593.41	46061.74
593.57	46476.02
593.73	46377.72
593.89	46616.45
594.05	46410.48
594.20	46389.42
594.36	46820.08
594.52	46216.22
594.68	46515.81
594.84	46328.56
594.99	46770.93
595.15	46513.47
595.31	47026.04
595.47	46564.96
595.62	46419.84
595.78	46527.51
595.94	46997.96
596.10	46735.82
596.25	46857.52
596.41	46794.33
596.57	46651.56
596.73	46761.56
596.88	46323.88
597.04	46532.19
597.20	46436.23
597.36	46644.54
597.51	46806.03
597.67	46887.95
597.83	46464.32
597.99	46827.10
598.14	46497.08
598.30	46150.68
598.46	46731.14
598.61	46843.48
598.77	46120.26
598.93	46541.55
599.09	46719.43
599.24	47143.07
599.40	46569.64
599.56	46878.59
599.71	46518.15
599.87	46845.82
600.03	46445.59
600.18	46480.70
600.34	46546.23
600.50	46354.31
600.65	46511.13
600.81	46735.82
600.97	46820.08
601.12	46632.83
601.28	46667.94
601.44	47079.88
601.59	46803.69
601.75	46263.03
601.91	46452.61
602.06	46000.89
602.22	46674.96
602.37	46567.30
602.53	46686.67
602.69	46988.60
602.84	46445.59
603.00	46237.28
603.16	46920.72
603.31	46260.69
603.47	46857.52
603.62	46234.94
603.78	46759.22
603.94	46316.86
604.09	46717.09
604.25	46153.02
604.40	46593.04
604.56	46691.35
604.71	46326.22
604.87	46469.00
605.03	46614.11
605.18	46256.01
605.34	46314.52
605.49	46314.52
605.65	46438.57
605.80	46366.01
605.96	46316.86
606.12	46466.66
606.27	46459.63
606.43	45968.12
606.58	46590.70
606.74	46096.85
606.89	46054.72
607.05	46370.69
607.20	46185.79
607.36	46328.56
607.51	46529.85
607.67	46401.12
607.82	46326.22
607.98	46124.94
608.13	46012.59
608.29	46218.56
608.44	46000.89
608.60	45745.77
608.75	46492.40
608.91	45874.50
609.06	46623.47
609.22	46220.90
609.37	45853.44
609.53	46061.74
609.68	46017.27
609.84	45942.38
609.99	46005.57
610.15	45780.88
610.30	45876.84
610.46	45811.31
610.61	45766.84
610.76	46131.96
610.92	46120.26
611.07	46103.87
611.23	45792.58
611.38	45846.41
611.54	45872.16
611.69	45595.98
611.84	45612.36
612.00	45673.21
612.15	45371.28
612.31	45488.31
612.46	45443.84
612.62	46043.02
612.77	45436.82
612.92	46272.39
613.08	45331.50
613.23	45666.19
613.39	45729.39
613.54	45162.98
613.69	45556.19
613.85	45144.25
614.00	45621.72
614.15	45834.71
614.31	45333.84
614.46	45462.57
614.62	45471.93
614.77	45303.41
614.92	45485.97
615.08	45165.32
615.23	45375.97
615.38	45067.02
615.54	45043.61
615.69	44931.26
615.84	45024.89
616.00	45319.79
616.15	45090.42
616.30	45148.93
616.46	44926.58
616.61	44603.59
616.76	45240.21
616.92	44465.50
617.07	44856.37
617.22	44868.07
617.37	44547.42
617.53	44835.30
617.68	44835.30
617.83	45088.08
617.99	45081.06
618.14	45198.09
618.29	44734.66
618.45	44966.37
618.60	44561.46
618.75	44662.10
618.90	44596.57
619.06	44531.03
619.21	44732.32
619.36	44947.65
619.51	44870.41
619.67	44999.14
619.82	44383.58
619.97	44507.63
620.12	44484.22
620.28	44067.61
620.43	44243.15
620.58	44626.99
620.73	44425.71
620.89	44451.45
621.04	44692.53
621.19	44315.70
621.34	44498.26
621.49	44500.61
621.65	44304.00
621.80	44694.87
621.95	44144.84
622.10	44116.76
622.25	44222.08
622.41	43959.94
622.56	44006.75
622.71	44006.75
622.86	44289.96
623.01	44044.20
623.16	43915.47
623.32	43725.89
623.47	43866.32
623.62	44275.91
623.77	44100.37
623.92	43995.05
624.07	43959.94
624.23	43749.29
624.38	43800.79
624.53	43632.27
624.68	44055.90
624.83	43803.13
624.98	44175.27
625.13	43264.80
625.29	43325.66
625.44	43210.97
625.59	43557.37
625.74	43075.22
625.89	42869.25
626.04	43353.74
626.19	43454.39
626.34	43606.52
626.49	43412.26
626.65	43667.37
626.80	43388.85
626.95	43061.18
627.10	43030.75
627.25	42969.90
627.40	42660.94
627.55	42784.99
627.70	42555.62
627.85	43084.58
628.00	42850.53
628.15	42803.72
628.30	42682.01
628.45	42958.19
628.60	42990.96
628.76	43283.53
628.91	42740.52
629.06	43122.03
629.21	42457.32
629.36	42574.34
629.51	42309.86
629.66	42160.07
629.81	42398.80
629.96	42031.34
630.11	42906.70
630.26	42651.58
630.41	42756.91
630.56	42513.49
630.71	42033.68
630.86	42195.18
631.01	42141.35
631.16	42653.92
631.31	42103.90
631.46	41574.94
631.61	42529.87
631.76	42092.19
631.91	42181.13
632.06	42499.45
632.21	42527.53
632.36	42777.97
632.51	42139.00
632.66	42349.65
632.81	41923.68
632.96	41930.70
633.10	41965.81
633.25	41666.22
633.40	42021.98
633.55	42239.65
633.70	41383.01
633.85	41921.34
634.00	42291.14
634.15	41787.92
634.30	42075.81
634.45	41853.46
634.60	41900.27
634.75	42005.59
634.90	41560.89
635.05	41486.00
635.19	41694.30
635.34	42078.15
635.49	41928.36
635.64	41184.07
635.79	41237.90
635.94	41514.08
636.09	41600.68
636.24	41191.09
636.39	41165.34
636.53	41265.99
636.68	41387.69
636.83	41408.76
636.98	41596.00
637.13	40931.29
637.28	41710.69
637.43	41368.97
637.57	41624.09
637.72	41567.91
637.87	41097.47
638.02	41773.88
638.17	41441.53
638.32	41432.16
638.46	41078.74
638.61	41085.76
638.76	41088.10
638.91	41523.44
639.06	40832.99
639.20	41024.91
639.35	41331.52
639.50	40788.52
639.65	40870.43
639.80	40739.36
639.94	41001.50
640.09	40884.48
640.24	40547.44
640.39	40706.60
640.54	40306.37
640.68	41038.95
640.83	40500.63
640.98	40460.84
641.13	40580.21
641.27	40500.63
641.42	40620.00
641.57	40512.33
641.72	40624.68
641.86	40517.01
642.01	40278.28
642.16	40371.90
642.31	40018.48
642.45	40247.85
642.60	40147.21
642.75	39990.39
642.90	40282.96
643.04	40179.98
643.19	40425.73
643.34	40428.07
643.48	39658.04
643.63	39742.30
643.78	40226.79
643.93	40268.92
644.07	39878.05
644.22	40278.28
644.37	39952.94
644.51	39962.31
644.66	40390.62
644.81	39845.28
644.95	39966.99
645.10	39824.22
645.25	39702.51
645.39	39878.05
645.54	40313.39
645.69	39433.35
645.83	40060.61
645.98	39819.53
646.13	40076.99
646.27	39594.84
646.42	39793.79
646.57	39496.54
646.71	39501.22
646.86	39732.93
647.00	39894.43
647.15	39604.20
647.30	40086.36
647.44	39316.32
647.59	39477.82
647.74	39391.22
647.88	39374.83
648.03	39505.90
648.17	39606.55
648.32	39405.26
648.47	39716.55
648.61	39079.92
648.76	39498.88
648.90	39009.71
649.05	39353.77
649.20	39400.58
649.34	39283.55
649.49	39016.73
649.63	38979.28
649.78	39323.34
649.92	39126.74
650.07	39281.21
650.21	38539.26
650.36	39316.32
650.51	39335.04
650.65	39702.51
650.80	39449.73
650.94	39585.48
651.09	39143.12
651.23	38864.60
651.38	38813.10
651.52	38747.57
651.67	38443.30
651.81	38803.74
651.96	38775.66
652.10	38768.63
652.25	38515.86
652.39	38614.16
652.54	38675.01
652.68	38483.09
652.83	38595.43
652.97	38789.70
653.12	38796.72
653.26	38328.61
653.41	38132.01
653.55	38436.28
653.70	38396.49
653.84	38288.82
653.99	38466.70
654.13	38167.12
654.27	37832.42
654.42	38132.01
654.56	38307.55
654.71	38040.73
654.85	37930.72
655.00	37783.27
655.14	38040.73
655.29	37778.59
655.43	37956.47
655.57	37336.23
655.72	37422.83
655.86	37453.25
656.01	37523.47
656.15	37347.93
656.30	37420.48
656.44	37514.11
656.58	37839.44
656.73	37684.97
656.87	37909.66
657.01	37628.79
657.16	37450.91
657.30	37275.37
657.45	37111.53
657.59	37579.64
657.73	37663.90
657.88	37816.04
658.02	37874.55
658.16	37724.75
658.31	37933.06
658.45	37640.50
658.60	37111.53
658.74	37237.92
658.88	37579.64
659.03	37364.31
659.17	37258.99
659.31	36840.03
659.46	36863.44
659.60	37095.15
659.74	37134.94
659.89	37268.35
660.03	36673.85
660.17	36847.05
660.32	37090.47
660.46	37209.84
660.60	36814.29
660.74	36538.10
660.89	36783.86
661.03	36360.22
661.17	36392.99
661.32	36336.82
661.46	36414.05
661.60	36404.69
661.74	36500.65
661.89	36622.36
662.03	36334.48
662.17	36203.41
662.31	35777.43
662.46	36605.98
662.60	36158.94
662.74	36329.80
662.88	36144.89
663.03	36341.50
663.17	36318.09
663.31	35772.75
663.45	35906.16
663.60	35718.92
663.74	35784.45
663.88	35576.14
664.02	35695.51
664.17	35873.39
664.31	35569.12
664.45	35754.02
664.59	35690.83
664.73	35637.00
664.88	35662.74
665.02	35220.38
665.16	35150.17
665.30	35218.04
665.44	35253.15
665.59	34691.42
665.73	35019.10
665.87	34775.68
666.01	34895.05
666.15	35117.40
666.29	34817.81
666.44	35000.37
666.58	34771.00
666.72	34885.68
666.86	34822.49
667.00	34752.27
667.14	34373.11
667.28	34005.64
667.43	34649.29
667.57	34583.76
667.71	34340.34
667.85	34412.90
667.99	34120.33
668.13	34410.56
668.27	34157.78
668.41	34260.76
668.56	33956.49
668.70	34202.25
668.84	33596.05
668.98	33692.01
669.12	33373.70
669.26	33525.83
669.40	33516.47
669.54	33759.89
669.68	33989.26
669.82	33436.89
669.96	33577.33
670.10	33291.78
670.25	33280.08
670.39	33418.17
670.53	32863.46
670.67	33240.29
670.81	33413.49
670.95	32917.29
671.09	33034.32
671.23	32994.53
671.37	32823.67
671.51	32936.02
671.65	32603.66
671.79	32397.70
671.93	32549.83
672.07	33001.55
672.21	32624.73
672.35	32496.00
672.49	32580.26
672.63	32404.72
672.77	32437.48
672.91	32535.79
673.05	32273.65
673.19	32016.19
673.33	32147.26
673.47	31929.59
673.61	31737.66
673.75	31552.76
673.89	31585.53
674.03	31351.48
674.17	31218.07
674.31	31690.85
674.45	31337.43
674.59	31496.59
674.73	31295.30
674.87	31063.59
675.01	30979.33
675.15	31620.64
675.29	31040.18
675.43	31030.82
675.56	30995.71
675.70	30756.98
675.84	30731.23
675.98	29893.32
676.12	30850.60
676.26	30562.72
676.40	30424.62
676.54	30286.53
676.68	30487.82
676.82	30101.63
676.96	30033.75
677.10	30143.76
677.23	29933.11
677.37	30038.44
677.51	29748.21
677.65	29858.21
677.79	28811.99
677.93	29455.64
678.07	29338.62
678.21	28933.70
678.34	28690.29
678.48	28678.58
678.62	28966.47
678.76	28531.13
678.90	28280.69
679.04	28884.55
679.18	28570.92
679.31	28058.34
679.45	28367.29
679.59	28315.80
679.73	28369.63
679.87	28177.71
680.00	28149.62
680.14	27702.58
680.28	28072.39
680.42	27892.16
680.56	27910.89
680.70	27943.66
680.83	28304.10
680.97	27559.81
681.11	27503.64
681.25	27391.29
681.39	27276.60
681.52	27405.33
681.66	27182.98
681.80	26969.99
681.94	26747.64
682.07	26948.93
682.21	26995.74
682.35	26780.41
682.49	26902.12
682.62	26010.37
682.76	26647.00
682.90	26614.23
683.04	26216.34
683.17	25958.88
683.31	26092.29
683.45	25923.77
683.59	26157.83
683.72	25869.94
683.86	25516.52
684.00	25963.56
684.13	25731.85
684.27	25411.20
684.41	25715.47
684.55	25563.33
684.68	25434.60
684.82	25165.44
684.96	25088.20
685.09	25390.13
685.23	24769.89
685.37	24720.74
685.50	24489.03
685.64	24900.96
685.78	24463.28
685.91	24261.99
686.05	24615.41
686.19	24254.97
686.32	23889.85
686.46	23880.49
686.60	23342.16
686.73	23639.41
686.87	23281.31
687.01	23208.75
687.14	23555.15
687.28	22970.02
687.42	23110.45
687.55	23138.54
687.69	22902.14
687.82	23126.83
687.96	23428.76
688.10	22487.87
688.23	22801.50
688.37	22511.27
688.50	22380.20
688.64	22349.78
688.78	23047.26
688.91	22787.46
689.05	22405.95
689.18	22197.64
689.32	22148.49
689.46	22075.93
689.59	22366.16
689.73	22431.69
689.86	22066.57
690.00	21900.39
690.13	21851.24
690.27	22118.06
690.41	21736.56
690.54	21132.70
690.68	21165.46
690.81	21151.42
690.95	21326.96
691.08	21254.40
691.22	21050.78
691.35	21331.64
691.49	21369.09
691.62	21170.15
691.76	20912.69
691.89	21062.48
692.03	21015.67
692.16	20781.62
692.30	20734.81
692.43	20201.16
692.57	20287.76
692.70	20116.90
692.84	20147.33
692.97	19861.79
693.11	20126.27
693.24	19896.89
693.38	19555.18
693.51	19709.65
693.65	20259.68
693.78	19740.08
693.92	19812.63
694.05	19431.13
694.19	19283.67
694.32	19384.32
694.45	19246.23
694.59	19199.41
694.72	18899.83
694.86	18906.85
694.99	18864.72
695.13	18998.13
695.26	18750.03
695.39	18974.72
695.53	19066.00
695.66	19066.00
695.80	18775.78
695.93	18703.22
696.07	18635.35
696.20	18340.44
696.33	18429.38
696.47	18609.60
696.60	18104.04
696.73	17846.58
696.87	17940.21
697.00	17942.55
697.14	17621.89
697.27	17989.36
697.40	17598.49
697.54	17635.94
697.67	17261.45
697.80	17163.15
697.94	17266.13
698.07	16945.48
698.21	17184.21
698.34	17128.04
698.47	17123.36
698.61	17060.16
698.74	16774.62
698.87	16788.66
699.01	16365.03
699.14	16475.03
699.27	16266.72
699.40	16262.04
699.54	16327.58
699.67	16215.23
699.80	16283.11
699.94	16154.38
700.07	16173.10
700.20	16184.80
700.34	16065.44
700.47	15985.86
700.60	16051.39
700.73	16325.24
700.87	15882.88
701.00	15969.48
701.13	15723.72
701.26	15391.36
701.40	15719.04
701.53	15515.41
701.66	15585.63
701.79	14979.43
701.93	15255.61
702.06	15117.52
702.19	14977.09
702.32	14778.14
702.46	15080.07
702.59	15019.22
702.72	15101.14
702.85	14712.61
702.99	14555.79
703.12	14530.05
703.25	14595.58
703.38	14464.51
703.51	14239.82
703.65	14328.76
703.78	14345.14
703.91	14132.15
704.04	14445.79
704.17	14239.82
704.31	14125.13
704.44	13872.36
704.57	13912.14
704.70	13944.91
704.83	13748.31
704.96	13799.80
705.10	13998.74
705.23	13893.42
>>>>>End Processed Spectral Data<<<<<
