SpectraSuite Data File
++++++++++++++++++++++++++++++++++++
Date: Fri Oct 25 10:43:54 EDT 2013
User: price-jones
Dark Spectrum Present: No
Reference Spectrum Present: No
Number of Sampled Component Spectra: 1
Spectrometers: USB2+H05261
Integration Time (usec): 100000 (USB2+H05261)
Spectra Averaged: 1 (USB2+H05261)
Boxcar Smoothing: 0 (USB2+H05261)
Correct for Electrical Dark: No (USB2+H05261)
Strobe/Lamp Enabled: No (USB2+H05261)
Correct for Detector Non-linearity: No (USB2+H05261)
Correct for Stray Light: No (USB2+H05261)
Number of Pixels in Processed Spectrum: 2048
>>>>>Begin Processed Spectral Data<<<<<
365.73	159.16
365.92	159.16
366.12	159.16
366.32	9.36
366.52	23.41
366.72	124.05
366.91	39.79
367.11	51.49
367.31	46.81
367.51	14.04
367.70	0.00
367.90	77.24
368.10	0.00
368.30	9.36
368.49	16.38
368.69	25.75
368.89	30.43
369.09	67.88
369.28	0.00
369.48	30.43
369.68	112.35
369.87	49.15
370.07	77.24
370.27	117.03
370.47	170.86
370.66	390.87
370.86	465.77
371.06	449.38
371.25	465.77
371.45	505.56
371.65	411.93
371.84	437.68
372.04	454.06
372.24	472.79
372.44	463.43
372.63	496.19
372.83	540.66
373.03	505.56
373.22	451.72
373.42	557.05
373.62	571.09
373.81	526.62
374.01	596.84
374.21	507.90
374.40	557.05
374.60	573.43
374.79	559.39
374.99	608.54
375.19	636.63
375.38	613.22
375.58	594.50
375.78	592.16
375.97	566.41
376.17	688.12
376.37	662.37
376.56	650.67
376.76	692.80
376.95	603.86
377.15	727.91
377.35	692.80
377.54	704.50
377.74	660.03
377.93	634.29
378.13	758.33
378.33	720.88
378.52	622.58
378.72	732.59
378.91	674.07
379.11	660.03
379.31	636.63
379.50	678.76
379.70	638.97
379.89	739.61
380.09	758.33
380.28	760.67
380.48	709.18
380.68	734.93
380.87	748.97
381.07	777.06
381.26	763.01
381.46	718.54
381.65	697.48
381.85	711.52
382.04	685.78
382.24	706.84
382.43	746.63
382.63	697.48
382.83	835.57
383.02	875.36
383.22	772.38
383.41	807.48
383.61	753.65
383.80	746.63
384.00	908.13
384.19	772.38
384.39	840.25
384.58	835.57
384.78	791.10
384.97	891.74
385.17	877.70
385.36	858.98
385.56	781.74
385.75	802.80
385.95	851.96
386.14	856.64
386.34	830.89
386.53	844.93
386.72	866.00
386.92	919.83
387.11	858.98
387.31	959.62
387.50	851.96
387.70	910.47
387.89	854.30
388.09	908.13
388.28	880.04
388.48	971.32
388.67	978.34
388.86	882.38
389.06	903.45
389.25	926.85
389.45	994.73
389.64	978.34
389.84	992.39
390.03	1008.77
390.22	1004.09
390.42	1107.07
390.61	1029.84
390.81	1025.15
391.00	1121.12
391.19	1090.69
391.39	1198.35
391.58	1111.75
391.78	1025.15
391.97	1125.80
392.16	1107.07
392.36	1128.14
392.55	1086.01
392.75	1095.37
392.94	1008.77
393.13	968.98
393.33	1123.46
393.52	1081.33
393.71	1100.05
393.91	1163.25
394.10	1177.29
394.29	1249.85
394.49	1212.40
394.68	1268.57
394.88	1153.88
395.07	1331.76
395.26	1235.80
395.46	1296.66
395.65	1266.23
395.84	1245.16
396.04	1310.70
396.23	1205.38
396.42	1167.93
396.62	1217.08
396.81	1203.04
397.00	1294.32
397.19	1355.17
397.39	1306.02
397.58	1357.51
397.77	1390.28
397.97	1437.09
398.16	1551.78
398.35	1605.61
398.55	1551.78
398.74	1591.56
398.93	1666.46
399.12	1521.35
399.32	1511.99
399.51	1600.93
399.70	1732.00
399.90	1582.20
400.09	1633.69
400.28	1706.25
400.47	1717.95
400.67	1727.32
400.86	1706.25
401.05	1837.32
401.24	1748.38
401.44	1771.79
401.63	1767.10
401.82	1771.79
402.01	1713.27
402.21	1863.07
402.40	1785.83
402.59	1870.09
402.78	1923.92
402.97	1884.13
403.17	1912.22
403.36	1722.63
403.55	1959.03
403.74	2008.18
403.93	1867.75
404.13	2043.29
404.32	1907.54
404.51	2012.86
404.70	2087.76
404.89	2076.06
405.09	2024.56
405.28	2115.84
405.47	2024.56
405.66	2008.18
405.85	2162.66
406.05	2052.65
406.24	2125.21
406.43	2244.57
406.62	2253.94
406.81	2183.72
407.00	2146.27
407.20	2190.74
407.39	2153.29
407.58	2132.23
407.77	2221.17
407.96	2284.36
408.15	2345.22
408.34	2319.47
408.54	2427.14
408.73	2368.62
408.92	2434.16
409.11	2504.37
409.30	2469.27
409.49	2478.63
409.68	2373.30
409.87	2410.75
410.07	2349.90
410.26	2478.63
410.45	2593.31
410.64	2649.49
410.83	2595.65
411.02	2485.65
411.21	2740.77
411.40	2649.49
411.59	2691.62
411.78	2839.07
411.98	2799.28
412.17	2806.30
412.36	2794.60
412.55	2874.18
412.74	2857.79
412.93	2846.09
413.12	2813.32
413.31	2995.89
413.50	3009.93
413.69	2904.60
413.88	3028.65
414.07	2918.65
414.26	3105.89
414.45	3103.55
414.64	3124.62
414.83	3206.53
415.02	3094.19
415.22	3206.53
415.41	3176.11
415.60	3332.92
415.79	3311.86
415.98	3524.85
416.17	3501.44
416.36	3433.57
416.55	3534.21
416.74	3372.71
416.93	3442.93
417.12	3382.07
417.31	3494.42
417.50	3545.91
417.69	3695.71
417.88	3501.44
418.07	3524.85
418.26	3609.11
418.45	3630.17
418.64	3768.26
418.83	3751.88
419.02	3634.85
419.21	3796.35
419.39	3826.78
419.58	3761.24
419.77	3705.07
419.96	3712.09
420.15	3826.78
420.34	3644.21
420.53	3887.63
420.72	3936.78
420.91	3999.98
421.10	3990.61
421.29	4053.81
421.48	4014.02
421.67	4002.32
421.86	3899.33
422.05	4063.17
422.24	3901.67
422.43	3976.57
422.61	3957.85
422.80	4102.96
422.99	4091.26
423.18	4196.58
423.37	4212.96
423.56	4095.94
423.75	4149.77
423.94	3997.64
424.13	3815.07
424.32	3896.99
424.50	4194.24
424.69	4262.12
424.88	4191.90
425.07	4095.94
425.26	4021.04
425.45	4217.65
425.64	4091.26
425.83	4147.43
426.01	4229.35
426.20	4177.86
426.39	4067.85
426.58	4128.70
426.77	4119.34
426.96	4156.79
427.15	4093.60
427.33	4182.54
427.52	4285.52
427.71	4297.22
427.90	4208.28
428.09	4337.01
428.28	4442.34
428.46	4360.42
428.65	4395.53
428.84	4496.17
429.03	4437.66
429.22	4360.42
429.40	4248.07
429.59	4201.26
429.78	4051.47
429.97	4135.73
430.16	4161.47
430.34	4161.47
430.53	4327.65
430.72	4444.68
430.91	4329.99
431.10	4477.44
431.28	4741.93
431.47	4770.01
431.66	4648.30
431.85	4629.58
432.03	4896.40
432.22	4945.55
432.41	4835.55
432.60	4912.78
432.79	4997.04
432.97	5055.56
433.16	4943.21
433.35	4863.63
433.54	4851.93
433.72	4891.72
433.91	4835.55
434.10	4973.64
434.28	4795.76
434.47	5081.30
434.66	5083.64
434.85	5093.01
435.03	5233.44
435.22	5064.92
435.41	5451.11
435.59	5366.85
435.78	5383.23
435.97	5401.96
436.16	5383.23
436.34	5401.96
436.53	5371.53
436.72	5511.96
436.90	5324.72
437.09	5537.71
437.28	5352.81
437.46	5474.51
437.65	5458.13
437.84	5446.43
438.02	5313.02
438.21	5378.55
438.40	5390.25
438.58	5418.34
438.77	5853.68
438.96	5640.69
439.14	5867.72
439.33	5804.53
439.52	6052.63
439.70	5825.59
439.89	5944.96
440.08	6022.20
440.26	6115.82
440.45	6005.81
440.63	6263.27
440.82	6249.23
441.01	6122.84
441.19	6464.56
441.38	6274.98
441.57	6335.83
441.75	6434.13
441.94	6396.68
442.12	6544.14
442.31	6623.72
442.50	6619.04
442.68	6649.46
442.87	6595.63
443.05	6675.21
443.24	6743.08
443.43	6642.44
443.61	6719.68
443.80	6965.43
443.98	6785.21
444.17	6574.56
444.35	6801.60
444.54	6913.94
444.73	6862.45
444.91	6707.98
445.10	6731.38
445.28	6883.52
445.47	6738.40
445.65	6609.67
445.84	6832.02
446.02	6843.73
446.21	6700.95
446.39	6759.47
446.58	6820.32
446.77	6857.77
446.95	6958.41
447.14	6942.03
447.32	7012.24
447.51	6974.80
447.69	6883.52
447.88	6944.37
448.06	7110.55
448.25	6890.54
448.43	7173.74
448.62	7042.67
448.80	6951.39
448.99	7061.40
449.17	7293.11
449.36	6967.77
449.54	7365.67
449.73	7332.90
449.91	7445.24
450.10	7253.32
450.28	7625.47
450.46	7618.44
450.65	7541.21
450.83	7585.68
451.02	7384.39
451.20	7660.57
451.39	7735.47
451.57	7838.45
451.76	7630.15
451.94	7735.47
452.13	7712.07
452.31	7424.18
452.49	7344.60
452.68	7513.12
452.86	7480.35
453.05	7618.44
453.23	7700.36
453.42	7691.00
453.60	7555.25
453.78	7742.49
453.97	7810.37
454.15	7784.62
454.34	7571.63
454.52	7775.26
454.70	7983.57
454.89	7812.71
455.07	7997.61
455.26	8135.70
455.44	7992.93
455.62	8044.42
455.81	8138.04
455.99	8051.44
456.17	8163.79
456.36	8030.38
456.54	8114.64
456.73	8304.22
456.91	8358.05
457.09	8344.01
457.28	8510.19
457.46	8446.99
457.64	8491.46
457.83	8549.98
458.01	8397.84
458.19	8685.73
458.38	8446.99
458.56	8650.62
458.74	8566.36
458.93	8510.19
459.11	8540.61
459.29	8629.56
459.48	8718.50
459.66	8617.85
459.84	8753.60
460.03	8882.33
460.21	8777.01
460.39	9008.72
460.57	8856.59
460.76	9062.55
460.94	9142.13
461.12	9142.13
461.31	9076.60
461.49	9146.81
461.67	9062.55
461.85	9231.07
462.04	9224.05
462.22	9451.08
462.40	9315.33
462.59	9474.49
462.77	9317.67
462.95	9408.95
463.13	9097.66
463.32	9198.31
463.50	9378.53
463.68	9500.23
463.86	9577.47
464.05	9167.88
464.23	9163.20
464.41	9432.36
464.59	9296.61
464.78	9586.83
464.96	9451.08
465.14	9483.85
465.32	9462.79
465.50	9678.12
465.69	9708.54
465.87	9565.77
466.05	9554.07
466.23	9474.49
466.41	9633.64
466.60	9921.53
466.78	9500.23
466.96	9621.94
467.14	9710.88
467.32	9753.01
467.51	9984.73
467.69	9479.17
467.87	9617.26
468.05	9867.70
468.23	9863.02
468.41	9937.91
468.60	9839.61
468.78	10097.07
468.96	10036.22
469.14	9958.98
469.32	10150.90
469.50	9893.44
469.69	9958.98
469.87	10239.84
470.05	10167.29
470.23	10281.97
470.41	10298.36
470.59	10300.70
470.77	10375.59
470.95	10490.28
471.14	10619.01
471.32	10391.98
471.50	10644.76
471.68	10551.14
471.86	10949.03
472.04	10918.60
472.22	11087.12
472.40	10588.58
472.58	10878.81
472.77	10834.34
472.95	11052.01
473.13	11344.58
473.31	10939.66
473.49	10981.79
473.67	10993.50
473.85	11222.87
474.03	11510.75
474.21	11414.79
474.39	11662.89
474.57	11508.41
474.75	11534.16
474.93	11557.57
475.12	11655.87
475.30	11609.06
475.48	11599.70
475.66	11922.69
475.84	11735.45
476.02	11831.41
476.20	11967.16
476.38	12098.23
476.56	12367.39
476.74	12236.32
476.92	12383.77
477.10	12533.57
477.28	12805.07
477.46	12788.69
477.64	12727.83
477.82	12882.31
478.00	13219.35
478.18	12992.31
478.36	13128.06
478.54	13060.19
478.72	13261.48
478.90	13448.72
479.08	13577.45
479.26	13827.88
479.44	13710.86
479.62	13965.98
479.80	13724.90
479.98	13935.55
480.16	14298.33
480.34	14377.91
480.52	14153.22
480.70	14193.01
480.88	14242.16
481.06	14492.60
481.24	14628.35
481.41	14801.55
481.59	15089.43
481.77	14759.42
481.95	15124.54
482.13	15103.48
482.31	15005.17
482.49	15660.52
482.67	15246.25
482.85	15815.00
483.03	15735.42
483.21	15866.49
483.39	16074.80
483.57	15721.38
483.74	16154.38
483.92	16156.72
484.10	16248.00
484.28	16479.71
484.46	16975.91
484.64	16690.36
484.82	16823.77
485.00	16889.31
485.18	16936.12
485.35	16868.24
485.53	16594.40
485.71	16753.55
485.89	16952.50
486.07	16903.35
486.25	17181.87
486.43	17429.97
486.61	17727.22
486.78	17694.45
486.96	17818.50
487.14	18506.62
487.32	18310.01
487.50	18780.46
487.68	19077.71
487.85	19061.32
488.03	19164.31
488.21	19276.65
488.39	19124.52
488.57	19044.94
488.75	19239.20
488.92	19728.38
489.10	19845.40
489.28	20070.09
489.46	20629.48
489.64	20620.12
489.81	20634.16
489.99	20980.56
490.17	20982.90
490.35	21191.21
490.53	21184.19
490.70	21366.75
490.88	21280.15
491.06	21724.85
491.24	21535.27
491.41	21413.56
491.59	21626.55
491.77	21188.87
491.95	21745.92
492.13	21881.67
492.30	22485.53
492.48	22567.45
492.66	22651.70
492.84	22462.12
493.01	22829.59
493.19	22972.36
493.37	22850.65
493.54	22888.10
493.72	23412.38
493.90	23484.94
494.08	24009.22
494.25	24018.58
494.43	24144.97
494.61	24304.12
494.79	24341.57
494.96	24453.92
495.14	24510.09
495.32	24456.26
495.49	24737.12
495.67	24662.22
495.85	24706.70
496.02	24903.30
496.20	25385.45
496.38	25371.41
496.55	25776.32
496.73	25844.20
496.91	25469.71
497.09	25961.22
497.26	25937.82
497.44	25909.73
497.62	26232.72
497.79	26143.78
497.97	26136.76
498.14	26614.23
498.32	26356.77
498.50	26321.66
498.67	27061.27
498.85	26941.91
499.03	27358.52
499.20	27068.30
499.38	27402.99
499.56	27501.29
499.73	27288.31
499.91	27510.66
500.08	27358.52
500.26	27395.97
500.44	27405.33
500.61	27487.25
500.79	27529.38
500.97	27845.35
501.14	27845.35
501.32	28231.54
501.49	27992.81
501.67	27903.87
501.84	28542.83
502.02	28292.40
502.20	28491.34
502.37	28507.72
502.55	28718.37
502.72	29017.96
502.90	28896.25
503.07	29048.39
503.25	29174.78
503.43	29392.45
503.60	28790.93
503.78	29088.18
503.95	29343.30
504.13	29886.30
504.30	29682.67
504.48	29827.79
504.65	29942.47
504.83	29940.13
505.01	30120.35
505.18	30146.10
505.36	30185.89
505.53	30253.76
505.71	30693.79
505.88	30775.70
506.06	30525.27
506.23	30618.89
506.41	30810.81
506.58	31112.74
506.76	30881.03
506.93	30899.75
507.11	31124.44
507.28	31082.31
507.46	30621.23
507.63	31330.41
507.81	31087.00
507.98	31101.04
508.16	31145.51
508.33	31620.64
508.50	31700.22
508.68	32126.19
508.85	31899.16
509.03	32254.92
509.20	32297.05
509.38	31960.02
509.55	32533.45
509.73	32238.54
509.90	32526.42
510.08	32521.74
510.25	32414.08
510.42	32652.81
510.60	32870.48
510.77	32753.46
510.95	33156.03
511.12	32694.94
511.30	33240.29
511.47	33362.00
511.64	32936.02
511.82	33331.57
511.99	33404.13
512.17	33806.70
512.34	33062.41
512.51	33954.15
512.69	33834.78
512.86	33855.85
513.04	34185.86
513.21	34031.39
513.38	33628.82
513.56	33890.96
513.73	33626.48
513.90	34302.89
514.08	33888.62
514.25	34480.77
514.43	34581.42
514.60	34473.75
514.77	34677.38
514.95	34560.35
515.12	34593.12
515.29	34918.45
515.47	35269.53
515.64	34731.21
515.81	34913.77
515.99	34735.89
516.16	34555.67
516.33	34295.87
516.51	34543.97
516.68	34176.50
516.85	34333.32
517.03	34679.72
517.20	34866.96
517.37	35232.08
517.54	35566.78
517.72	35309.32
517.89	34918.45
518.06	35075.27
518.24	34972.28
518.41	35332.73
518.58	35484.86
518.75	35482.52
518.93	35667.42
519.10	35732.96
519.27	36421.08
519.45	35952.97
519.62	36334.48
519.79	36507.68
519.96	36395.33
520.14	36762.79
520.31	36271.28
520.48	36669.17
520.65	36641.09
520.83	37099.83
521.00	37031.96
521.17	36823.65
521.34	37043.66
521.52	37294.10
521.69	36889.18
521.86	37223.88
522.03	37710.71
522.20	37542.19
522.38	37305.80
522.55	37926.04
522.72	37666.24
522.89	37462.61
523.07	38019.66
523.24	37436.87
523.41	38096.90
523.58	37818.38
523.75	38499.47
523.92	38316.91
524.10	38366.06
524.27	38710.12
524.44	38447.98
524.61	38866.94
524.78	38450.32
524.96	38752.25
525.13	39065.88
525.30	38806.08
525.47	38969.92
525.64	38738.21
525.81	39075.24
525.98	38417.55
526.16	38209.25
526.33	38426.92
526.50	38403.51
526.67	38164.78
526.84	38429.26
527.01	38600.12
527.18	38962.90
527.36	39435.69
527.53	39129.08
527.70	39721.23
527.87	39409.94
528.04	39131.42
528.21	39412.28
528.38	39381.85
528.55	39632.29
528.72	40076.99
528.89	40023.16
529.07	39936.56
529.24	39824.22
529.41	39803.15
529.58	39817.19
529.75	40196.36
529.92	40130.83
530.09	40336.79
530.26	40130.83
530.43	40739.36
530.60	40484.25
530.77	40292.32
530.94	40559.14
531.11	40697.24
531.28	40641.06
531.46	40814.26
531.63	41198.11
531.80	40699.58
531.97	40760.43
532.14	40348.50
532.31	40107.42
532.48	40474.88
532.65	40430.41
532.82	40336.79
532.99	40561.48
533.16	40870.43
533.33	40816.60
533.50	41172.36
533.67	41120.87
533.84	40673.83
534.01	41003.85
534.18	41060.02
534.35	41148.96
534.52	41684.94
534.69	41509.40
534.86	41741.11
535.03	41776.22
535.20	41715.37
535.37	41926.02
535.54	41982.19
535.71	41972.83
535.88	42288.80
536.05	41750.48
536.22	41486.00
536.38	41614.72
536.55	41523.44
536.72	41596.00
536.89	41647.49
537.06	41729.41
537.23	42150.71
537.40	41649.83
537.57	42206.88
537.74	42501.79
537.91	42586.05
538.08	42333.27
538.25	42464.34
538.42	42480.72
538.59	42604.77
538.75	41605.36
538.92	42312.20
539.09	42347.31
539.26	42401.14
539.43	42445.62
539.60	42632.86
539.77	42188.16
539.94	42405.83
540.11	42417.53
540.28	42581.37
540.44	42344.97
540.61	42520.51
540.78	42398.80
540.95	42576.69
541.12	42817.76
541.29	42941.81
541.46	42932.45
541.62	43356.08
541.79	43040.11
541.96	42614.13
542.13	42967.55
542.30	42913.72
542.47	43454.39
542.63	43306.93
542.80	43440.34
542.97	43646.31
543.14	43910.79
543.31	43136.07
543.48	43227.35
543.64	44037.18
543.81	44222.08
543.98	44250.17
544.15	43985.69
544.32	43871.00
544.48	44109.74
544.65	43746.95
544.82	44027.82
544.99	43763.34
545.16	43620.56
545.32	43803.13
545.49	44463.16
545.66	44411.67
545.83	44222.08
546.00	44126.12
546.16	44168.25
546.33	44245.49
546.50	43749.29
546.67	44189.31
546.83	44105.06
547.00	44671.46
547.17	44210.38
547.34	44301.66
547.50	44114.42
547.67	44877.43
547.84	44629.34
548.00	44924.24
548.17	44854.03
548.34	44825.94
548.51	44903.18
548.67	45123.19
548.84	44430.39
549.01	44596.57
549.18	44690.19
549.34	44320.38
549.51	45167.66
549.68	45137.23
549.84	45088.08
550.01	45003.82
550.18	44807.22
550.34	44762.75
550.51	45270.64
550.68	45235.53
550.84	44465.50
551.01	45191.06
551.18	45315.11
551.34	45174.68
551.51	45083.40
551.68	45467.25
551.84	45057.65
552.01	45525.76
552.18	45247.24
552.34	45158.30
552.51	45556.19
552.68	44992.12
552.84	45113.83
553.01	45247.24
553.18	45645.13
553.34	45462.57
553.51	45806.62
553.67	45598.32
553.84	45865.14
554.01	45607.68
554.17	45462.57
554.34	45933.01
554.51	45731.73
554.67	45736.41
554.84	46213.88
555.00	45918.97
555.17	45642.79
555.33	45532.78
555.50	45928.33
555.67	45830.03
555.83	45799.60
556.00	45612.36
556.16	46354.31
556.33	45764.49
556.50	46117.92
556.66	46239.62
556.83	45340.86
556.99	46211.54
557.16	46199.83
557.32	46061.74
557.49	46321.54
557.65	45869.82
557.82	46291.12
557.98	45642.79
558.15	46382.40
558.32	46342.61
558.48	45984.51
558.65	45944.72
558.81	46188.13
558.98	46211.54
559.14	46218.56
559.31	46103.87
559.47	45991.53
559.64	46642.20
559.80	45729.39
559.97	46099.19
560.13	46012.59
560.30	46068.76
560.46	45799.60
560.63	46265.37
560.79	46464.32
560.96	46490.06
561.12	46176.43
561.29	46216.22
561.45	46199.83
561.61	46398.78
561.78	46487.72
561.94	46188.13
562.11	46389.42
562.27	46014.93
562.44	46387.08
562.60	46698.37
562.77	46366.01
562.93	46504.10
563.10	46639.86
563.26	46562.62
563.42	46642.20
563.59	46401.12
563.75	46286.43
563.92	46541.55
564.08	46845.82
564.24	46637.51
564.41	46911.36
564.57	46611.77
564.74	46366.01
564.90	46499.42
565.07	46611.77
565.23	46663.26
565.39	46101.53
565.56	46344.95
565.72	46625.81
565.88	46768.58
566.05	46780.29
566.21	46546.23
566.38	46195.15
566.54	46726.46
566.70	47388.83
566.87	46979.23
567.03	47096.26
567.19	46995.62
567.36	46766.24
567.52	46305.16
567.68	46822.42
567.85	46976.89
568.01	46876.25
568.17	46681.98
568.34	47129.03
568.50	46913.70
568.66	46824.76
568.83	46887.95
568.99	46579.00
569.15	46534.53
569.32	46777.95
569.48	46567.30
569.64	46923.06
569.81	46899.65
569.97	46483.04
570.13	46665.60
570.30	46457.29
570.46	46164.73
570.62	46171.75
570.78	46768.58
570.95	46476.02
571.11	46995.62
571.27	46766.24
571.43	46904.34
571.60	46993.28
571.76	46824.76
571.92	46927.74
572.09	47070.51
572.25	46820.08
572.41	46904.34
572.57	47178.18
572.74	46862.21
572.90	46784.97
573.06	47012.00
573.22	46887.95
573.38	46969.87
573.55	47360.74
573.71	47517.56
573.87	46831.78
574.03	46588.36
574.20	46829.44
574.36	46986.25
574.52	47028.38
574.68	46976.89
574.84	46829.44
575.01	46909.02
575.17	46625.81
575.33	46923.06
575.49	46756.88
575.65	47533.94
575.82	47068.17
575.98	46501.76
576.14	47232.01
576.30	46892.63
576.46	46742.84
576.62	46911.36
576.79	46684.33
576.95	46609.43
577.11	47203.92
577.27	47103.28
577.43	47168.82
577.59	46754.54
577.75	47063.49
577.92	46696.03
578.08	46660.92
578.24	46553.26
578.40	46782.63
578.56	46787.31
578.72	47035.41
578.88	47133.71
579.04	47241.37
579.21	46958.17
579.37	47194.56
579.53	46780.29
579.69	46836.46
579.85	46939.44
580.01	46705.39
580.17	46689.01
580.33	46883.27
580.49	47171.16
580.65	46752.20
580.82	46602.41
580.98	46539.21
581.14	46670.28
581.30	47353.72
581.46	46981.57
581.62	47068.17
581.78	47302.23
581.94	47232.01
582.10	47012.00
582.26	47482.45
582.42	46913.70
582.58	46909.02
582.74	47138.39
582.90	46981.57
583.06	47002.64
583.22	46969.87
583.38	46885.61
583.54	47210.95
583.70	47248.39
583.86	47459.04
584.02	46761.56
584.18	47367.76
584.34	47302.23
584.50	47040.09
584.66	46920.72
584.82	47189.88
584.98	47267.12
585.14	47445.00
585.30	47063.49
585.46	47271.80
585.62	46885.61
585.78	46883.27
585.94	46752.20
586.10	47330.31
586.26	46733.48
586.42	46923.06
586.58	47587.77
586.74	47199.24
586.90	47402.87
587.06	47302.23
587.22	46782.63
587.38	47035.41
587.54	47065.83
587.70	47615.86
587.86	46887.95
588.02	47346.70
588.18	47007.32
588.34	46885.61
588.49	46511.13
588.65	46202.18
588.81	46574.32
588.97	46791.99
589.13	46405.80
589.29	46560.28
589.45	46639.86
589.61	46930.08
589.77	47239.03
589.93	46997.96
590.08	46981.57
590.24	47526.92
590.40	47161.79
590.56	47573.73
590.72	47276.48
590.88	46829.44
591.04	46927.74
591.20	47847.57
591.35	47316.27
591.51	47519.90
591.67	47332.65
591.83	46735.82
591.99	46714.75
592.15	47365.42
592.31	47763.31
592.46	47306.91
592.62	47288.18
592.78	47091.58
592.94	47124.35
593.10	47133.71
593.26	46841.14
593.41	47004.98
593.57	47054.13
593.73	46862.21
593.89	47002.64
594.05	47047.11
594.20	47143.07
594.36	47152.43
594.52	47051.79
594.68	47267.12
594.84	46689.01
594.99	47129.03
595.15	47035.41
595.31	47061.15
595.47	47075.19
595.62	47253.08
595.78	47065.83
595.94	47285.84
596.10	47454.36
596.25	47201.58
596.41	47400.53
596.57	47096.26
596.73	47224.99
596.88	47227.33
597.04	46986.25
597.20	47353.72
597.36	47412.23
597.51	47290.52
597.67	47203.92
597.83	47114.98
597.99	47559.69
598.14	46997.96
598.30	47480.11
598.46	46960.51
598.61	47295.21
598.77	47182.86
598.93	46813.05
599.09	46990.94
599.24	47578.41
599.40	47398.19
599.56	47058.81
599.71	46684.33
599.87	47260.10
600.03	46909.02
600.18	47117.32
600.34	47194.56
600.50	47063.49
600.65	47327.97
600.81	47426.28
600.97	47505.85
601.12	47255.42
601.28	47522.24
601.44	46983.91
601.59	46754.54
601.75	46761.56
601.91	47063.49
602.06	47068.17
602.22	47409.89
602.37	47171.16
602.53	46923.06
602.69	47407.55
602.84	47143.07
603.00	47019.02
603.16	47136.05
603.31	46829.44
603.47	47122.01
603.62	46813.05
603.78	47175.84
603.94	47054.13
604.09	47435.64
604.25	47131.37
604.40	46920.72
604.56	47035.41
604.71	47278.82
604.87	47327.97
605.03	47037.75
605.18	47056.47
605.34	46822.42
605.49	46777.95
605.65	47042.43
605.80	46890.29
605.96	47063.49
606.12	47124.35
606.27	47166.48
606.43	46962.85
606.58	46813.05
606.74	47140.73
606.89	46890.29
607.05	46880.93
607.20	46660.92
607.36	47063.49
607.51	46780.29
607.67	46450.27
607.82	46684.33
607.98	46553.26
608.13	46340.27
608.29	46525.17
608.44	46005.57
608.60	46658.58
608.75	46628.15
608.91	46923.06
609.06	46665.60
609.22	46808.37
609.37	46337.93
609.53	46698.37
609.68	46733.48
609.84	46469.00
609.99	46047.70
610.15	46660.92
610.30	46401.12
610.46	46129.62
610.61	46459.63
610.76	46894.97
610.92	46799.01
611.07	46653.90
611.23	46288.77
611.38	46497.08
611.54	46389.42
611.69	45827.69
611.84	45773.86
612.00	45792.58
612.15	46120.26
612.31	46178.77
612.46	45907.27
612.62	46211.54
612.77	45888.54
612.92	46504.10
613.08	46188.13
613.23	45977.48
613.39	46160.05
613.54	45708.32
613.69	46103.87
613.85	45539.80
614.00	46068.76
614.15	46497.08
614.31	46274.73
614.46	46396.44
614.62	45963.44
614.77	46122.60
614.92	46040.68
615.08	45907.27
615.23	46190.47
615.38	45563.21
615.54	45404.05
615.69	45858.12
615.84	45291.71
616.00	45762.15
616.15	45584.27
616.30	46106.21
616.46	45588.95
616.61	45598.32
616.76	45642.79
616.92	45184.04
617.07	45333.84
617.22	45216.81
617.37	45537.46
617.53	45762.15
617.68	45495.33
617.83	45759.81
617.99	45661.51
618.14	45179.36
618.29	45390.01
618.45	45076.38
618.60	44987.44
618.75	45354.90
618.90	45275.32
619.06	44839.98
619.21	45235.53
619.36	45301.07
619.51	45031.91
619.67	45783.22
619.82	44891.48
619.97	45254.26
620.12	44851.69
620.28	44720.62
620.43	45165.32
620.58	44886.79
620.73	45116.17
620.89	44989.78
621.04	45076.38
621.19	45296.39
621.34	44928.92
621.49	44959.35
621.65	45017.86
621.80	44961.69
621.95	44699.55
622.10	44533.37
622.25	44994.46
622.41	44371.88
622.56	44619.97
622.71	45010.84
622.86	44690.19
623.01	44861.05
623.16	44772.11
623.32	44406.98
623.47	44425.71
623.62	44428.05
623.77	44629.34
623.92	44725.30
624.07	44411.67
624.23	44357.83
624.38	44151.87
624.53	44161.23
624.68	44418.69
624.83	44458.48
624.98	44418.69
625.13	43487.15
625.29	43854.62
625.44	43377.15
625.59	43775.04
625.74	43714.19
625.89	43632.27
626.04	43686.10
626.19	43594.82
626.34	43992.71
626.49	44053.56
626.65	43552.69
626.80	44154.21
626.95	43819.51
627.10	43597.16
627.25	43842.92
627.40	43400.55
627.55	43302.25
627.70	43269.48
627.85	43662.69
628.00	43533.96
628.15	43569.07
628.30	43510.56
628.45	43454.39
628.60	43639.29
628.76	43634.61
628.91	43538.65
629.06	43391.19
629.21	43463.75
629.36	43239.06
629.51	43037.77
629.66	43222.67
629.81	42953.51
629.96	43409.92
630.11	43241.40
630.26	43658.01
630.41	43138.41
630.56	42850.53
630.71	42600.09
630.86	43079.90
631.01	42674.99
631.16	42866.91
631.31	42696.05
631.46	42604.77
631.61	42525.19
631.76	42717.12
631.91	43107.99
632.06	42871.59
632.21	43119.69
632.36	43168.84
632.51	42792.01
632.66	42611.79
632.81	42494.77
632.96	42916.06
633.10	42787.33
633.25	42717.12
633.40	42742.86
633.55	42595.41
633.70	42312.20
633.85	42249.01
634.00	42700.73
634.15	42429.23
634.30	42391.78
634.45	42260.71
634.60	42602.43
634.75	42663.28
634.90	41921.34
635.05	41628.77
635.19	42522.85
635.34	42473.70
635.49	42438.59
635.64	41907.29
635.79	41846.44
635.94	42019.64
636.09	42075.81
636.24	41656.85
636.39	42054.75
636.53	41872.18
636.68	41801.97
636.83	41661.54
636.98	42148.37
637.13	41698.98
637.28	41806.65
637.43	41867.50
637.57	41804.31
637.72	41469.61
637.87	41516.42
638.02	41635.79
638.17	41617.07
638.32	42101.56
638.46	41883.89
638.61	41481.31
638.76	41443.87
638.91	41675.58
639.06	41949.42
639.20	41659.20
639.35	41649.83
639.50	41415.78
639.65	41301.09
639.80	41289.39
639.94	41476.63
640.09	41336.20
640.24	41123.21
640.39	40912.56
640.54	40849.37
640.68	41181.73
640.83	41521.10
640.98	41120.87
641.13	41057.68
641.27	41326.84
641.42	40985.12
641.57	40921.93
641.72	41202.79
641.86	40945.33
642.01	40657.45
642.16	40893.84
642.31	40694.89
642.45	41048.32
642.60	40404.67
642.75	40650.42
642.90	40872.78
643.04	40884.48
643.19	40549.78
643.34	40994.48
643.48	40402.33
643.63	40481.91
643.78	40645.74
643.93	40610.64
644.07	40491.27
644.22	40428.07
644.37	40474.88
644.51	40842.35
644.66	40268.92
644.81	40519.35
644.95	41081.08
645.10	40505.31
645.25	40322.75
645.39	40320.41
645.54	39976.35
645.69	40390.62
645.83	40252.53
645.98	39945.92
646.13	40357.86
646.27	40411.69
646.42	40149.55
646.57	39831.24
646.71	40023.16
646.86	40081.67
647.00	40259.55
647.15	39983.37
647.30	40217.43
647.44	40194.02
647.59	39681.44
647.74	39835.92
647.88	39779.74
648.03	39906.13
648.17	40233.81
648.32	39632.29
648.47	39704.85
648.61	39026.09
648.76	39475.48
648.90	39000.35
649.05	39934.22
649.20	39784.43
649.34	39604.20
649.49	39342.06
649.63	39489.52
649.78	39611.23
649.92	39524.63
650.07	39651.02
650.21	39332.70
650.36	39203.97
650.51	39765.70
650.65	39920.18
650.80	40325.09
650.94	39620.59
651.09	39545.69
651.23	39313.98
651.38	39019.07
651.52	38953.54
651.67	38726.50
651.81	38761.61
651.96	39194.61
652.10	39002.69
652.25	39302.28
652.39	38946.51
652.54	39192.27
652.68	39274.19
652.83	38904.38
652.97	39178.23
653.12	39597.18
653.26	39150.14
653.41	38869.28
653.55	38824.81
653.70	39061.20
653.84	39133.76
653.99	38667.99
654.13	38677.35
654.27	38843.53
654.42	38541.60
654.56	38157.75
654.71	38866.94
654.85	38504.15
655.00	38553.30
655.14	38345.00
655.29	38602.46
655.43	38316.91
655.57	37855.82
655.72	37476.66
655.86	37691.99
656.01	37825.40
656.15	37647.52
656.30	38160.09
656.44	37666.24
656.58	37991.58
656.73	37897.95
656.87	37872.21
657.01	37809.01
657.16	37982.21
657.30	37614.75
657.45	37553.90
657.59	37640.50
657.73	37769.22
657.88	38293.50
658.02	38108.60
658.16	37893.27
658.31	38169.46
658.45	37792.63
658.60	37710.71
658.74	37951.79
658.88	37734.12
659.03	37532.83
659.17	37649.86
659.31	37191.11
659.46	37258.99
659.60	37574.96
659.74	37209.84
659.89	37200.47
660.03	37177.07
660.17	37406.44
660.32	37418.14
660.46	37280.05
660.60	37368.99
660.74	36790.88
660.89	37317.50
661.03	36940.68
661.17	36886.84
661.32	36835.35
661.46	36568.53
661.60	37223.88
661.74	36495.97
661.89	36491.29
662.03	36795.56
662.17	36648.11
662.31	36847.05
662.46	36837.69
662.60	36804.92
662.74	36549.81
662.88	36613.00
663.03	36098.08
663.17	36390.65
663.31	36301.71
663.45	36414.05
663.60	36662.15
663.74	36369.58
663.88	35992.76
664.02	35913.18
664.17	36545.12
664.31	35814.88
664.45	35463.80
664.59	35611.25
664.73	35824.24
664.88	35782.11
665.02	35292.94
665.16	35807.86
665.30	35269.53
665.44	35557.42
665.59	34902.07
665.73	35611.25
665.87	35211.02
666.01	35086.97
666.15	35166.55
666.29	35206.34
666.44	35285.92
666.58	35185.27
666.72	35253.15
666.86	35288.26
667.00	35309.32
667.14	34747.59
667.28	34471.41
667.43	35028.46
667.57	34773.34
667.71	34328.64
667.85	34707.80
667.99	34487.79
668.13	34691.42
668.27	34567.37
668.41	34806.11
668.56	34663.33
668.70	34129.69
668.84	34153.10
668.98	33729.46
669.12	33757.55
669.26	34047.77
669.40	33720.10
669.54	33797.34
669.68	34106.29
669.82	33708.40
669.96	33813.72
670.10	33298.80
670.25	33837.12
670.39	33277.74
670.53	33411.15
670.67	33376.04
670.81	33647.54
670.95	33418.17
671.09	33324.55
671.23	33132.62
671.37	33055.39
671.51	32877.51
671.65	32964.10
671.79	32701.96
671.93	33039.00
672.07	33385.40
672.21	33118.58
672.35	32442.17
672.49	32685.58
672.63	33043.68
672.77	32889.21
672.91	32474.93
673.05	32027.89
673.19	32477.27
673.33	32107.47
673.47	32151.94
673.61	31749.37
673.75	31728.30
673.89	31988.10
674.03	31983.42
674.17	32077.04
674.31	31835.97
674.45	32095.77
674.59	31620.64
674.73	31999.80
674.87	31655.75
675.01	31173.60
675.15	31269.56
675.29	31332.75
675.43	31063.59
675.56	31634.68
675.70	31063.59
675.84	30829.54
675.98	30298.23
676.12	31257.85
676.26	30930.18
676.40	31044.87
676.54	31164.23
676.68	30951.24
676.82	30040.78
676.96	30452.71
677.10	30078.22
677.23	30228.02
677.37	30450.37
677.51	30148.44
677.65	29837.15
677.79	29497.77
677.93	29607.78
678.07	29481.39
678.21	29640.54
678.34	29029.66
678.48	28849.44
678.62	29268.40
678.76	28971.15
678.90	28655.18
679.04	28872.85
679.18	29083.50
679.31	28584.96
679.45	28402.40
679.59	28510.07
679.73	28177.71
679.87	28456.23
680.00	28577.94
680.14	28147.28
680.28	28046.64
680.42	28034.94
680.56	27917.91
680.70	28198.77
680.83	27648.75
680.97	27543.42
681.11	27672.15
681.25	27592.58
681.39	27505.98
681.52	27328.10
681.66	27597.26
681.80	27110.43
681.94	27204.05
682.07	27262.56
682.21	26941.91
682.35	26967.65
682.49	27089.36
682.62	26544.02
682.76	26567.42
682.90	26581.46
683.04	26373.16
683.17	26661.04
683.31	25954.20
683.45	26452.73
683.59	26155.49
683.72	26157.83
683.86	26232.72
684.00	26380.18
684.13	26050.16
684.27	25656.95
684.41	25568.01
684.55	25434.60
684.68	25406.52
684.82	25500.14
684.96	25221.61
685.09	25266.08
685.23	25146.72
685.37	25270.76
685.50	25088.20
685.64	24879.89
685.78	24842.45
685.91	24683.29
686.05	24301.78
686.19	24208.16
686.32	24390.72
686.46	23857.08
686.60	23653.45
686.73	23651.11
686.87	23255.56
687.01	23122.15
687.14	23592.60
687.28	23143.22
687.42	23253.22
687.55	23449.83
687.69	23398.34
687.82	23449.83
687.96	23173.64
688.10	23033.21
688.23	23000.44
688.37	22579.15
688.50	23000.44
688.64	22948.95
688.78	22539.36
688.91	22848.31
689.05	22747.67
689.18	22293.60
689.32	22169.55
689.46	22375.52
689.59	22504.25
689.73	22085.30
689.86	22017.42
690.00	21769.32
690.13	22043.17
690.27	21977.63
690.41	22045.51
690.54	21488.46
690.68	21687.40
690.81	21699.11
690.95	21715.49
691.08	21523.57
691.22	21757.62
691.35	21500.16
691.49	21708.47
691.62	21207.59
691.76	21128.02
691.89	20924.39
692.03	21069.50
692.16	20879.92
692.30	20397.77
692.43	20514.80
692.57	20425.86
692.70	20159.03
692.84	20273.72
692.97	20322.87
693.11	19948.39
693.24	19932.00
693.38	20222.23
693.51	19999.88
693.65	20018.60
693.78	19744.76
693.92	19875.83
694.05	19515.39
694.19	19494.32
694.32	19555.18
694.45	19463.90
694.59	19431.13
694.72	19300.06
694.86	19257.93
694.99	18616.62
695.13	19220.48
695.26	18775.78
695.39	18618.96
695.53	19168.99
695.66	19030.90
695.80	18824.93
695.93	18600.24
696.07	18838.97
696.20	18754.71
696.33	18834.29
696.47	18494.91
696.60	18314.69
696.73	18031.49
696.87	17984.68
697.00	18160.22
697.14	17851.27
697.27	17729.56
697.40	17919.14
697.54	17483.80
697.67	17561.04
697.80	17575.08
697.94	17181.87
698.07	17259.11
698.21	17305.92
698.34	17324.65
698.47	17170.17
698.61	16924.41
698.74	17216.98
698.87	16847.18
699.01	16760.58
699.14	16617.80
699.27	16383.75
699.40	16573.33
699.54	16699.72
699.67	16411.84
699.80	16460.99
699.94	15946.07
700.07	16233.96
700.20	16294.81
700.34	16269.06
700.47	16287.79
700.60	16147.36
700.73	16299.49
700.87	15953.09
701.00	15889.90
701.13	15749.46
701.26	15564.56
701.40	15510.73
701.53	15442.85
701.66	15300.08
701.79	15573.92
701.93	15414.77
702.06	15272.00
702.19	14916.23
702.32	15119.86
702.46	15044.96
702.59	15222.84
702.72	15068.37
702.85	15042.62
702.99	14951.34
703.12	14616.65
703.25	14920.92
703.38	14787.50
703.51	14820.27
703.65	14548.77
703.78	14441.11
703.91	14464.51
704.04	14633.03
704.17	14054.92
704.31	14249.18
704.44	14237.48
704.57	14146.20
704.70	13745.97
704.83	13872.36
704.96	13898.10
705.10	13628.94
705.23	14155.56
>>>>>End Processed Spectral Data<<<<<
