SpectraSuite Data File
++++++++++++++++++++++++++++++++++++
Date: Fri Oct 25 11:33:41 EDT 2013
User: price-jones
Dark Spectrum Present: No
Reference Spectrum Present: No
Number of Sampled Component Spectra: 1
Spectrometers: USB2+H05261
Integration Time (usec): 100000 (USB2+H05261)
Spectra Averaged: 1 (USB2+H05261)
Boxcar Smoothing: 0 (USB2+H05261)
Correct for Electrical Dark: No (USB2+H05261)
Strobe/Lamp Enabled: No (USB2+H05261)
Correct for Detector Non-linearity: No (USB2+H05261)
Correct for Stray Light: No (USB2+H05261)
Number of Pixels in Processed Spectrum: 2048
>>>>>Begin Processed Spectral Data<<<<<
365.73	313.63
365.92	313.63
366.12	313.63
366.32	177.88
366.52	187.24
366.72	168.52
366.91	194.26
367.11	107.66
367.31	149.79
367.51	161.50
367.70	205.97
367.90	194.26
368.10	175.54
368.30	168.52
368.49	180.22
368.69	161.50
368.89	170.86
369.09	161.50
369.28	180.22
369.48	243.42
369.68	182.56
369.87	252.78
370.07	217.67
370.27	294.91
370.47	341.72
370.66	430.66
370.86	496.19
371.06	505.56
371.25	568.75
371.45	510.24
371.65	606.20
371.84	561.73
372.04	540.66
372.24	580.45
372.44	538.32
372.63	582.79
372.83	543.00
373.03	566.41
373.22	564.07
373.42	568.75
373.62	528.96
373.81	615.56
374.01	592.16
374.21	559.39
374.40	653.01
374.60	713.86
374.79	599.18
374.99	674.07
375.19	603.86
375.38	671.73
375.58	702.16
375.78	730.25
375.97	627.26
376.17	709.18
376.37	664.71
376.56	676.41
376.76	748.97
376.95	627.26
377.15	653.01
377.35	699.82
377.54	622.58
377.74	669.39
377.93	615.56
378.13	650.67
378.33	734.93
378.52	711.52
378.72	784.08
378.91	688.12
379.11	732.59
379.31	730.25
379.50	716.20
379.70	725.57
379.89	748.97
380.09	758.33
380.28	739.61
380.48	704.50
380.68	755.99
380.87	734.93
381.07	699.82
381.26	702.16
381.46	725.57
381.65	779.40
381.85	830.89
382.04	786.42
382.24	786.42
382.43	823.87
382.63	858.98
382.83	835.57
383.02	903.45
383.22	840.25
383.41	870.68
383.61	873.02
383.80	840.25
384.00	746.63
384.19	753.65
384.39	866.00
384.58	896.43
384.78	894.08
384.97	908.13
385.17	830.89
385.36	807.48
385.56	795.78
385.75	798.12
385.95	823.87
386.14	800.46
386.34	833.23
386.53	835.57
386.72	828.55
386.92	929.19
387.11	856.64
387.31	873.02
387.50	954.94
387.70	901.11
387.89	898.77
388.09	894.08
388.28	873.02
388.48	980.68
388.67	954.94
388.86	905.79
389.06	924.51
389.25	940.90
389.45	966.64
389.64	976.00
389.84	983.02
390.03	992.39
390.22	919.83
390.42	1022.81
390.61	959.62
390.81	992.39
391.00	971.32
391.19	1018.13
391.39	978.34
391.58	1069.62
391.78	983.02
391.97	1006.43
392.16	1027.50
392.36	1048.56
392.55	987.71
392.75	1069.62
392.94	1055.58
393.13	1029.84
393.33	1083.67
393.52	1109.41
393.71	1093.03
393.91	1104.73
394.10	1116.44
394.29	1107.07
394.49	1093.03
394.68	1139.84
394.88	1186.65
395.07	1181.97
395.26	1170.27
395.46	1193.67
395.65	1146.86
395.84	1233.46
396.04	1289.64
396.23	1203.04
396.42	1205.38
396.62	1296.66
396.81	1214.74
397.00	1181.97
397.19	1217.08
397.39	1231.12
397.58	1249.85
397.77	1179.63
397.97	1275.59
398.16	1252.19
398.35	1240.48
398.55	1207.72
398.74	1226.44
398.93	1235.80
399.12	1359.85
399.32	1275.59
399.51	1245.16
399.70	1329.42
399.90	1409.00
400.09	1416.02
400.28	1413.68
400.47	1376.24
400.67	1392.62
400.86	1380.92
401.05	1495.60
401.24	1336.45
401.44	1406.66
401.63	1509.65
401.82	1526.03
402.01	1451.13
402.21	1561.14
402.40	1528.37
402.59	1486.24
402.78	1448.79
402.97	1493.26
403.17	1460.49
403.36	1589.22
403.55	1516.67
403.74	1542.41
403.93	1652.42
404.13	1591.56
404.32	1591.56
404.51	1547.09
404.70	1666.46
404.89	1610.29
405.09	1621.99
405.28	1643.06
405.47	1689.87
405.66	1645.40
405.85	1678.16
406.05	1710.93
406.24	1732.00
406.43	1802.21
406.62	1727.32
406.81	1818.60
407.00	1811.57
407.20	1788.17
407.39	1834.98
407.58	1764.76
407.77	1856.04
407.96	1860.73
408.15	1907.54
408.34	1884.13
408.54	1975.41
408.73	1968.39
408.92	1940.30
409.11	1959.03
409.30	2052.65
409.49	1977.75
409.68	2003.50
409.87	1942.64
410.07	2057.33
410.26	2029.24
410.45	2127.55
410.64	2125.21
410.83	2066.69
411.02	2033.93
411.21	2179.04
411.40	2169.68
411.59	2221.17
411.78	2139.25
411.98	2249.25
412.17	2230.53
412.36	2237.55
412.55	2286.70
412.74	2326.49
412.93	2406.07
413.12	2286.70
413.31	2385.01
413.50	2352.24
413.69	2366.28
413.88	2476.29
414.07	2499.69
414.26	2588.63
414.45	2532.46
414.64	2495.01
414.83	2562.89
415.02	2600.34
415.22	2647.15
415.41	2665.87
415.60	2689.28
415.79	2689.28
415.98	2651.83
416.17	2733.75
416.36	2787.58
416.55	2785.24
416.74	2766.51
416.93	2839.07
417.12	2787.58
417.31	2813.32
417.50	2977.16
417.69	2918.65
417.88	2956.10
418.07	2944.39
418.26	2930.35
418.45	3047.38
418.64	3061.42
418.83	3103.55
419.02	3012.27
419.21	3119.93
419.39	3080.14
419.58	3009.93
419.77	3119.93
419.96	3208.87
420.15	3229.94
420.34	3206.53
420.53	3201.85
420.72	3229.94
420.91	3265.05
421.10	3211.22
421.29	3265.05
421.48	3220.58
421.67	3255.69
421.86	3246.32
422.05	3239.30
422.24	3283.77
422.43	3279.09
422.61	3442.93
422.80	3384.41
422.99	3485.06
423.18	3452.29
423.37	3538.89
423.56	3337.60
423.75	3314.20
423.94	3300.16
424.13	3150.36
424.32	3307.18
424.50	3405.48
424.69	3438.25
424.88	3461.65
425.07	3370.37
425.26	3368.03
425.45	3442.93
425.64	3353.99
425.83	3550.59
426.01	3588.04
426.20	3459.31
426.39	3407.82
426.58	3459.31
426.77	3508.46
426.96	3609.11
427.15	3515.48
427.33	3503.78
427.52	3534.21
427.71	3559.95
427.90	3651.24
428.09	3700.39
428.28	3637.19
428.46	3616.13
428.65	3691.02
428.84	3641.87
429.03	3754.22
429.22	3543.57
429.40	3730.81
429.59	3833.80
429.78	3691.02
429.97	3616.13
430.16	3719.11
430.34	3927.42
430.53	3899.33
430.72	3969.55
430.91	3866.56
431.10	3779.97
431.28	3887.63
431.47	3894.65
431.66	3995.29
431.85	3985.93
432.03	3964.87
432.22	4091.26
432.41	4011.68
432.60	3899.33
432.79	4156.79
432.97	4021.04
433.16	4067.85
433.35	4142.75
433.54	4180.20
433.72	4222.33
433.91	4149.77
434.10	4145.09
434.28	4170.83
434.47	4196.58
434.66	4238.71
434.85	4367.44
435.03	4257.43
435.22	4379.14
435.41	4362.76
435.59	4318.29
435.78	4271.48
435.97	4493.83
436.16	4465.74
436.34	4304.25
436.53	4311.27
436.72	4470.42
436.90	4498.51
437.09	4582.77
437.28	4477.44
437.46	4428.29
437.65	4636.60
437.84	4554.68
438.02	4676.39
438.21	4739.58
438.40	4589.79
438.58	4753.63
438.77	4795.76
438.96	4748.95
439.14	4720.86
439.33	4805.12
439.52	4997.04
439.70	5078.96
439.89	4987.68
440.08	4964.28
440.26	5015.77
440.45	4933.85
440.63	5137.48
440.82	5153.86
441.01	4978.32
441.19	5266.21
441.38	5142.16
441.57	5369.19
441.75	5287.27
441.94	5465.15
442.12	5355.15
442.31	5518.98
442.50	5387.91
442.68	5511.96
442.87	5476.85
443.05	5511.96
443.24	5549.41
443.43	5579.84
443.61	5607.92
443.80	5696.86
443.98	5516.64
444.17	5362.17
444.35	5631.33
444.54	5792.83
444.73	5636.01
444.91	5584.52
445.10	5795.17
445.28	5650.05
445.47	5612.60
445.65	5832.62
445.84	5806.87
446.02	5694.52
446.21	5678.14
446.39	5706.23
446.58	5795.17
446.77	5556.43
446.95	5668.78
447.14	5610.26
447.32	5886.45
447.51	5886.45
447.69	5593.88
447.88	5853.68
448.06	5767.08
448.25	5727.29
448.43	5823.25
448.62	5900.49
448.80	5944.96
448.99	5912.19
449.17	5949.64
449.36	5785.80
449.54	5994.11
449.73	5905.17
449.91	5930.92
450.10	6176.67
450.28	6108.80
450.46	6057.31
450.65	6242.21
450.83	6073.69
451.02	6071.35
451.20	6370.94
451.39	6141.57
451.57	6221.14
451.76	6085.39
451.94	6211.78
452.13	6242.21
452.31	6209.44
452.49	6260.93
452.68	6349.87
452.86	6345.19
453.05	6370.94
453.23	6396.68
453.42	6370.94
453.60	6434.13
453.78	6312.42
453.97	6164.97
454.15	6595.63
454.34	6263.27
454.52	6534.78
454.70	6642.44
454.89	6502.01
455.07	6616.69
455.26	6696.27
455.44	6860.11
455.62	6693.93
455.81	6619.04
455.99	6862.45
456.17	6832.02
456.36	6768.83
456.54	6834.36
456.73	6827.34
456.91	7042.67
457.09	6930.33
457.28	6949.05
457.46	6885.86
457.64	7054.37
457.83	7002.88
458.01	6949.05
458.19	6986.50
458.38	7211.19
458.56	7105.87
458.74	7248.64
458.93	7197.15
459.11	7260.34
459.29	7236.94
459.48	7382.05
459.66	7302.47
459.84	7332.90
460.03	7691.00
460.21	7377.37
460.39	7463.97
460.57	7351.62
460.76	7538.87
460.94	7602.06
461.12	7524.82
461.31	7578.65
461.49	7515.46
461.67	7428.86
461.85	7691.00
462.04	7630.15
462.22	8203.58
462.40	7683.98
462.59	7618.44
462.77	7742.49
462.95	7733.13
463.13	7803.35
463.32	7878.24
463.50	7875.90
463.68	7901.65
463.86	8042.08
464.05	7721.43
464.23	7899.31
464.41	7988.25
464.59	7786.96
464.78	8194.22
464.96	8058.46
465.14	8245.71
465.32	8021.02
465.50	8084.21
465.69	8201.24
465.87	8109.96
466.05	8353.37
466.23	8191.88
466.41	8187.19
466.60	8355.71
466.78	8102.93
466.96	8243.37
467.14	7990.59
467.32	8229.32
467.51	8250.39
467.69	8346.35
467.87	8236.35
468.05	8505.51
468.23	8315.92
468.41	8248.05
468.60	8503.17
468.78	8622.53
468.96	8327.63
469.14	8615.51
469.32	8631.90
469.50	8613.17
469.69	8730.20
469.87	8704.45
470.05	8667.00
470.23	8791.05
470.41	8877.65
470.59	9130.43
470.77	8760.63
470.95	8819.14
471.14	9001.70
471.32	8779.35
471.50	9048.51
471.68	9055.53
471.86	9301.29
472.04	9191.28
472.22	9266.18
472.40	9167.88
472.58	9296.61
472.77	9427.68
472.95	9439.38
473.13	9713.22
473.31	9202.99
473.49	9453.42
473.67	9411.29
473.85	9474.49
474.03	9612.58
474.21	9729.61
474.39	9804.50
474.57	9734.29
474.75	9944.94
474.93	9799.82
475.12	9848.97
475.30	10190.69
475.48	9799.82
475.66	10017.49
475.84	10183.67
476.02	10277.29
476.20	10258.57
476.38	10396.66
476.56	10675.18
476.74	10511.35
476.92	10429.43
477.10	10399.00
477.28	10703.27
477.46	10834.34
477.64	10647.10
477.82	11052.01
478.00	11180.74
478.18	11162.01
478.36	11222.87
478.54	11037.97
478.72	11272.02
478.90	11585.65
479.08	11548.20
479.26	11531.82
479.44	11850.13
479.62	11861.84
479.80	11822.05
479.98	11918.01
480.16	12238.66
480.34	12037.38
480.52	12477.40
480.70	12301.86
480.88	12278.45
481.06	12362.71
481.24	12493.78
481.41	12737.20
481.59	12978.27
481.77	12987.63
481.95	12816.77
482.13	13193.60
482.31	13004.02
482.49	13231.05
482.67	13156.15
482.85	13551.70
483.03	13727.24
483.21	13738.94
483.39	13874.70
483.57	13949.59
483.74	13980.02
483.92	14005.77
484.10	14104.07
484.28	14108.75
484.46	14459.83
484.64	14991.13
484.82	14326.42
485.00	14565.15
485.18	15016.88
485.35	15131.56
485.53	14686.86
485.71	15012.20
485.89	15587.97
486.07	15255.61
486.25	15712.02
486.43	15536.48
486.61	15634.78
486.78	15807.98
486.96	16271.40
487.14	16058.42
487.32	16350.98
487.50	16587.38
487.68	16350.98
487.85	16397.79
488.03	16699.72
488.21	16854.20
488.39	17057.82
488.57	17319.96
488.75	17202.94
488.92	17462.74
489.10	17951.91
489.28	17582.10
489.46	17902.76
489.64	17610.19
489.81	18132.13
489.99	18242.14
490.17	18178.94
490.35	18618.96
490.53	18518.32
490.70	18586.19
490.88	18658.75
491.06	18675.13
491.24	19056.64
491.41	19051.96
491.59	19218.14
491.77	19194.73
491.95	19082.39
492.13	19325.80
492.30	19744.76
492.48	19681.56
492.66	19733.06
492.84	20042.01
493.01	20051.37
493.19	20079.46
493.37	20233.93
493.54	20446.92
493.72	20627.14
493.90	20732.47
494.08	20893.96
494.25	20961.84
494.43	21069.50
494.61	21142.06
494.79	21198.23
494.96	21413.56
495.14	21500.16
495.32	22029.12
495.49	21928.48
495.67	21841.88
495.85	21975.29
496.02	21989.33
496.20	22412.97
496.38	22204.66
496.55	22359.14
496.73	22981.72
496.91	22616.60
497.09	22752.35
497.26	22920.87
497.44	22972.36
497.62	23199.39
497.79	23379.61
497.97	23431.10
498.14	23585.58
498.32	23646.43
498.50	23749.42
498.67	24063.05
498.85	23852.40
499.03	24219.86
499.20	24123.90
499.38	24123.90
499.56	24538.18
499.73	24355.61
499.91	24549.88
500.08	24828.40
500.26	24877.55
500.44	24816.70
500.61	24687.97
500.79	25102.25
500.97	25081.18
501.14	25434.60
501.32	25404.17
501.49	25450.99
501.67	25188.85
501.84	25600.78
502.02	25628.87
502.20	25572.69
502.37	25652.27
502.55	26043.14
502.72	25923.77
502.90	25944.84
503.07	25905.05
503.25	26132.08
503.43	26214.00
503.60	26515.93
503.78	26632.96
503.95	26890.41
504.13	26354.43
504.30	26771.05
504.48	26881.05
504.65	26740.62
504.83	27178.30
505.01	27080.00
505.18	27297.67
505.36	27342.14
505.53	27405.33
505.71	27213.41
505.88	27585.55
506.06	27407.67
506.23	27983.44
506.41	28168.35
506.58	27510.66
506.76	27866.42
506.93	28156.64
507.11	27924.93
507.28	28119.20
507.46	28236.22
507.63	28025.57
507.81	28196.43
507.98	28222.18
508.16	28301.76
508.33	28535.81
508.50	28879.87
508.68	28786.25
508.85	28868.17
509.03	29078.82
509.20	29062.43
509.38	29219.25
509.55	29013.28
509.73	29502.45
509.90	29315.21
510.08	29596.07
510.25	29497.77
510.42	29675.65
510.60	29495.43
510.77	30115.67
510.95	30333.34
511.12	29900.34
511.30	30010.35
511.47	29970.56
511.64	30054.82
511.82	30394.20
511.99	30143.76
512.17	30735.92
512.34	30565.06
512.51	31122.10
512.69	31035.50
512.86	30789.75
513.04	31094.02
513.21	31337.43
513.38	31278.92
513.56	31379.56
513.73	31194.66
513.90	31180.62
514.08	31192.32
514.25	31482.55
514.43	31630.00
514.60	31875.76
514.77	31594.89
514.95	31707.24
515.12	31798.52
515.29	31714.26
515.47	31962.36
515.64	31704.90
515.81	31672.13
515.99	32154.28
516.16	32376.63
516.33	32444.51
516.51	32500.68
516.68	32320.46
516.85	32947.72
517.03	32790.91
517.20	32975.81
517.37	33160.71
517.54	32811.97
517.72	32727.71
517.89	32505.36
518.06	33144.33
518.24	33134.96
518.41	32982.83
518.58	32926.66
518.75	32987.51
518.93	33619.46
519.10	33331.57
519.27	33390.08
519.45	33572.64
519.62	33469.66
519.79	33818.40
519.96	33942.45
520.14	34169.48
520.31	33862.87
520.48	34279.49
520.65	33986.92
520.83	34586.10
521.00	34789.72
521.17	34206.93
521.34	34623.54
521.52	34527.58
521.69	34305.23
521.86	34686.74
522.03	34911.43
522.20	35033.14
522.38	34803.77
522.55	34558.01
522.72	35002.71
522.89	34817.81
523.07	35625.29
523.24	35101.01
523.41	35494.22
523.58	34829.51
523.75	35821.90
523.92	35384.22
524.10	35522.31
524.27	35915.52
524.44	36027.87
524.61	35763.39
524.78	35770.41
524.96	35826.58
525.13	36158.94
525.30	36217.45
525.47	36053.61
525.64	35761.05
525.81	36355.54
525.98	36732.37
526.16	36030.21
526.33	36184.68
526.50	37043.66
526.67	36591.94
526.84	36741.73
527.01	36842.37
527.18	36556.83
527.36	36734.71
527.53	36786.20
527.70	37394.74
527.87	37053.02
528.04	37179.41
528.21	37251.97
528.38	37120.90
528.55	37694.33
528.72	37275.37
528.89	37493.04
529.07	36889.18
529.24	37092.81
529.41	37235.58
529.58	37659.22
529.75	37570.28
529.92	37787.95
530.09	37366.65
530.26	37872.21
530.43	37790.29
530.60	37383.04
530.77	37778.59
530.94	38258.40
531.11	37867.53
531.28	38169.46
531.46	38092.22
531.63	38370.74
531.80	38141.37
531.97	38300.53
532.14	38253.72
532.31	38408.19
532.48	38499.47
532.65	38494.79
532.82	38555.64
532.99	38876.30
533.16	38808.42
533.33	39288.23
533.50	38553.30
533.67	38766.29
533.84	38501.81
534.01	38850.55
534.18	39072.90
534.35	39063.54
534.52	38983.96
534.69	39730.59
534.86	39723.57
535.03	39292.91
535.20	39257.81
535.37	39969.33
535.54	39775.06
535.71	39077.58
535.88	39697.83
536.05	39187.59
536.22	39559.73
536.38	39639.31
536.55	39721.23
536.72	39875.71
536.89	39697.83
537.06	39594.84
537.23	40566.16
537.40	39555.05
537.57	40203.38
537.74	39704.85
537.91	40392.97
538.08	40381.26
538.25	40095.72
538.42	40128.48
538.59	40491.27
538.75	40219.77
538.92	40566.16
539.09	40584.89
539.26	40779.15
539.43	40816.60
539.60	40856.39
539.77	40987.46
539.94	40842.35
540.11	40830.65
540.28	40814.26
540.44	40722.98
540.61	40870.43
540.78	40652.76
540.95	40875.12
541.12	40811.92
541.29	41148.96
541.46	41024.91
541.62	41340.88
541.79	41265.99
541.96	40917.25
542.13	41116.19
542.30	41598.34
542.47	41167.68
542.63	41270.67
542.80	41596.00
542.97	41654.51
543.14	41729.41
543.31	41448.55
543.48	41837.08
543.64	42410.51
543.81	41930.70
543.98	41834.74
544.15	41799.63
544.32	42340.29
544.48	42171.77
544.65	41813.67
544.82	42459.66
544.99	42244.33
545.16	42667.97
545.32	42487.74
545.49	42679.67
545.66	42557.96
545.83	42384.76
546.00	42611.79
546.16	42553.28
546.33	42707.76
546.50	42665.63
546.67	43313.95
546.83	42349.65
547.00	42738.18
547.17	42490.09
547.34	42686.69
547.50	42869.25
547.67	43210.97
547.84	42981.60
548.00	43014.37
548.17	43358.42
548.34	43306.93
548.51	43363.11
548.67	43725.89
548.84	43292.89
549.01	43515.24
549.18	43398.21
549.34	43522.26
549.51	43210.97
549.68	43634.61
549.84	43674.40
550.01	43669.72
550.18	43489.49
550.34	43473.11
550.51	43627.59
550.68	43463.75
550.84	43463.75
551.01	44112.08
551.18	43608.86
551.34	43789.08
551.51	43571.41
551.68	43821.85
551.84	43681.42
552.01	44264.21
552.18	43920.15
552.34	43707.16
552.51	44158.89
552.68	43707.16
552.84	44194.00
553.01	44421.03
553.18	44025.48
553.34	44694.87
553.51	43936.54
553.67	44404.64
553.84	44463.16
554.01	44236.12
554.17	44694.87
554.34	44671.46
554.51	44612.95
554.67	45045.95
554.84	44851.69
555.00	44481.88
555.17	44556.78
555.33	44835.30
555.50	44664.44
555.67	44968.71
555.83	44498.26
556.00	45240.21
556.16	45439.16
556.33	45223.83
556.50	45237.87
556.66	45275.32
556.83	44968.71
556.99	45151.27
557.16	45228.51
557.32	45092.76
557.49	45387.67
557.65	44692.53
557.82	44994.46
557.98	44989.78
558.15	45263.62
558.32	45343.20
558.48	44856.37
558.65	45170.00
558.81	45099.78
558.98	45368.94
559.14	45507.04
559.31	45244.90
559.47	45268.30
559.64	45359.58
559.80	45338.52
559.97	45490.65
560.13	45120.85
560.30	45310.43
560.46	45940.04
560.63	45879.18
560.79	45766.84
560.96	45951.74
561.12	45820.67
561.29	46071.10
561.45	45792.58
561.61	45841.73
561.78	45830.03
561.94	45745.77
562.11	45551.51
562.27	46010.25
562.44	46005.57
562.60	45549.17
562.77	45820.67
562.93	45823.01
563.10	46050.04
563.26	45928.33
563.42	46628.15
563.59	45928.33
563.75	45766.84
563.92	45895.56
564.08	45851.09
564.24	46099.19
564.41	45879.18
564.57	46136.64
564.74	46057.06
564.90	46068.76
565.07	46162.39
565.23	46026.63
565.39	45855.78
565.56	46237.28
565.72	46216.22
565.88	46199.83
566.05	46431.55
566.21	46274.73
566.38	46122.60
566.54	46670.28
566.70	46342.61
566.87	46389.42
567.03	45940.04
567.19	45956.42
567.36	46513.47
567.52	46267.71
567.68	46328.56
567.85	46799.01
568.01	46749.86
568.17	46361.33
568.34	46590.70
568.50	46384.74
568.66	46092.17
568.83	46480.70
568.99	46593.04
569.15	46658.58
569.32	46347.29
569.48	46628.15
569.64	47049.45
569.81	46604.75
569.97	46899.65
570.13	46878.59
570.30	46410.48
570.46	46719.43
570.62	46703.05
570.78	46983.91
570.95	46869.23
571.11	46969.87
571.27	46902.00
571.43	46995.62
571.60	46960.51
571.76	46824.76
571.92	46700.71
572.09	46300.48
572.25	46686.67
572.41	46630.49
572.57	47004.98
572.74	47227.33
572.90	46527.51
573.06	47019.02
573.22	46789.65
573.38	46866.89
573.55	46946.47
573.71	47180.52
573.87	47299.89
574.03	47126.69
574.20	47133.71
574.36	47466.06
574.52	47026.04
574.68	47126.69
574.84	46824.76
575.01	47257.76
575.17	47517.56
575.33	47079.88
575.49	47096.26
575.65	47253.08
575.82	46993.28
575.98	46850.50
576.14	47353.72
576.30	47533.94
576.46	47166.48
576.62	47227.33
576.79	46588.36
576.95	46356.65
577.11	46918.38
577.27	47056.47
577.43	47065.83
577.59	47058.81
577.75	47086.90
577.92	46953.49
578.08	47084.56
578.24	47466.06
578.40	47346.70
578.56	47201.58
578.72	46845.82
578.88	47400.53
579.04	47255.42
579.21	47208.61
579.37	47388.83
579.53	47213.29
579.69	47236.69
579.85	46969.87
580.01	47260.10
580.17	46897.31
580.33	47405.21
580.49	47239.03
580.65	47166.48
580.82	46948.81
580.98	47124.35
581.14	47086.90
581.30	47622.88
581.46	47215.63
581.62	47316.27
581.78	46576.66
581.94	47447.34
582.10	47196.90
582.26	47653.31
582.42	47068.17
582.58	47143.07
582.74	47309.25
582.90	47159.45
583.06	47494.15
583.22	47217.97
583.38	47667.35
583.54	47517.56
583.70	47555.00
583.86	47480.11
584.02	47391.17
584.18	47959.92
584.34	47709.48
584.50	47695.44
584.66	47423.93
584.82	47721.18
584.98	48107.37
585.14	47938.85
585.30	47482.45
585.46	47414.57
585.62	47435.64
585.78	47435.64
585.94	47309.25
586.10	47082.22
586.26	47318.61
586.42	47367.76
586.58	47543.30
586.74	47377.12
586.90	47344.36
587.06	47320.95
587.22	47683.73
587.38	47131.37
587.54	47522.24
587.70	48182.27
587.86	47271.80
588.02	47370.10
588.18	47512.88
588.34	47395.85
588.49	47693.10
588.65	47379.46
588.81	47585.43
588.97	48095.67
589.13	47688.42
589.29	47735.23
589.45	47847.57
589.61	47604.16
589.77	48020.77
589.93	47751.61
590.08	47660.33
590.24	47878.00
590.40	47831.19
590.56	48093.33
590.72	48112.05
590.88	47758.63
591.04	47739.91
591.20	47931.83
591.35	47934.17
591.51	48140.14
591.67	48067.58
591.83	48041.84
591.99	47903.74
592.15	47915.45
592.31	48079.28
592.46	47833.53
592.62	47772.67
592.78	48009.07
592.94	48350.79
593.10	48119.07
593.26	48502.92
593.41	48360.15
593.57	48329.72
593.73	48282.91
593.89	48439.73
594.05	48156.52
594.20	48142.48
594.36	48655.06
594.52	48423.34
594.68	47952.90
594.84	48002.05
594.99	48264.19
595.15	47990.34
595.31	47929.49
595.47	47983.32
595.62	47948.21
595.78	48182.27
595.94	48123.75
596.10	47943.53
596.25	48053.54
596.41	48259.51
596.57	48210.35
596.73	48531.01
596.88	48294.61
597.04	48428.02
597.20	48617.61
597.36	48327.38
597.51	48622.29
597.67	48041.84
597.83	48011.41
597.99	48121.41
598.14	47901.40
598.30	48189.29
598.46	48514.62
598.61	48432.71
598.77	48135.46
598.93	48474.84
599.09	48198.65
599.24	48327.38
599.40	48226.74
599.56	48399.94
599.71	48268.87
599.87	48910.17
600.03	48584.84
600.18	48390.58
600.34	48259.51
600.50	48346.11
600.65	48149.50
600.81	48594.20
600.97	48601.22
601.12	48392.92
601.28	48343.77
601.44	48355.47
601.59	48296.95
601.75	48643.35
601.91	48350.79
602.06	48224.40
602.22	48587.18
602.37	48065.24
602.53	48329.72
602.69	48257.17
602.84	48308.66
603.00	48229.08
603.16	47936.51
603.31	48404.62
603.47	48399.94
603.62	48210.35
603.78	49076.35
603.94	48243.12
604.09	48678.46
604.25	47964.60
604.40	48624.63
604.56	48523.99
604.71	48744.00
604.87	48133.12
605.03	48186.95
605.18	48346.11
605.34	48502.92
605.49	48320.36
605.65	48402.28
605.80	48325.04
605.96	48428.02
606.12	48130.78
606.27	48369.51
606.43	48205.67
606.58	48257.17
606.74	48161.20
606.89	48273.55
607.05	48493.56
607.20	48444.41
607.36	48336.74
607.51	48051.20
607.67	48413.98
607.82	48037.16
607.98	48137.80
608.13	48046.52
608.29	47763.31
608.44	48245.46
608.60	48072.26
608.75	48165.88
608.91	48072.26
609.06	47550.32
609.22	48334.40
609.37	48072.26
609.53	48421.00
609.68	48268.87
609.84	48369.51
609.99	48191.63
610.15	48083.97
610.30	48196.31
610.46	47826.51
610.61	47917.79
610.76	47959.92
610.92	47758.63
611.07	48278.23
611.23	47440.32
611.38	48020.77
611.54	48126.10
611.69	47952.90
611.84	48177.59
612.00	47632.24
612.15	47849.91
612.31	47948.21
612.46	47913.11
612.62	47318.61
612.77	47866.30
612.92	48016.09
613.08	47889.70
613.23	47835.87
613.39	47452.02
613.54	47688.42
613.69	48140.14
613.85	47683.73
614.00	47737.57
614.15	47948.21
614.31	47372.44
614.46	47400.53
614.62	47107.96
614.77	47269.46
614.92	47381.80
615.08	47627.56
615.23	47887.36
615.38	48121.41
615.54	47199.24
615.69	47466.06
615.84	47367.76
616.00	47608.84
616.15	47524.58
616.30	47704.80
616.46	47870.98
616.61	47496.49
616.76	47332.65
616.92	47220.31
617.07	47416.91
617.22	47185.20
617.37	47068.17
617.53	47255.42
617.68	47243.71
617.83	47035.41
617.99	47299.89
618.14	47632.24
618.29	47496.49
618.45	46983.91
618.60	47026.04
618.75	46925.40
618.90	47136.05
619.06	46894.97
619.21	47260.10
619.36	47325.63
619.51	47253.08
619.67	46997.96
619.82	47215.63
619.97	47459.04
620.12	46705.39
620.28	47114.98
620.43	47297.55
620.58	46672.62
620.73	47049.45
620.89	47103.28
621.04	46993.28
621.19	47072.85
621.34	47084.56
621.49	46614.11
621.65	47033.07
621.80	46714.75
621.95	46986.25
622.10	47157.11
622.25	47004.98
622.41	47014.34
622.56	46754.54
622.71	46752.20
622.86	47178.18
623.01	46487.72
623.16	46995.62
623.32	46569.64
623.47	46932.42
623.62	46492.40
623.77	46749.86
623.92	46363.67
624.07	46674.96
624.23	46431.55
624.38	46958.17
624.53	46553.26
624.68	46625.81
624.83	46653.90
624.98	46595.38
625.13	46082.81
625.29	46373.03
625.44	46438.57
625.59	46192.81
625.74	46323.88
625.89	46085.15
626.04	46103.87
626.19	46190.47
626.34	45862.80
626.49	46110.89
626.65	45748.11
626.80	46234.94
626.95	45748.11
627.10	45500.01
627.25	46403.46
627.40	45923.65
627.55	45940.04
627.70	46068.76
627.85	46146.00
628.00	45881.52
628.15	45549.17
628.30	45492.99
628.45	45546.82
628.60	45478.95
628.76	45521.08
628.91	45502.35
629.06	45270.64
629.21	45294.05
629.36	45696.62
629.51	45291.71
629.66	46174.09
629.81	45425.12
629.96	45703.64
630.11	45696.62
630.26	45207.45
630.41	45729.39
630.56	45462.57
630.71	45595.98
630.86	45064.67
631.01	45399.37
631.16	45235.53
631.31	45207.45
631.46	45069.36
631.61	45521.08
631.76	45373.63
631.91	45455.54
632.06	45516.40
632.21	45303.41
632.36	45258.94
632.51	45336.18
632.66	45432.14
632.81	45249.58
632.96	45118.51
633.10	45024.89
633.25	44821.26
633.40	45233.19
633.55	45586.61
633.70	45420.44
633.85	44769.77
634.00	44907.86
634.15	44952.33
634.30	44868.07
634.45	44935.95
634.60	44863.39
634.75	45038.93
634.90	44708.91
635.05	44795.51
635.19	45116.17
635.34	44774.45
635.49	44566.14
635.64	44765.09
635.79	44650.40
635.94	44657.42
636.09	44776.79
636.24	44769.77
636.39	44594.23
636.53	45090.42
636.68	44292.30
636.83	44294.64
636.98	44217.40
637.13	44271.23
637.28	44313.36
637.43	44341.45
637.57	44016.11
637.72	44172.93
637.87	44655.08
638.02	44634.02
638.17	44430.39
638.32	44299.32
638.46	43753.97
638.61	43945.90
638.76	43587.80
638.91	44287.62
639.06	43985.69
639.20	43742.27
639.35	43983.35
639.50	43964.62
639.65	43847.60
639.80	44191.65
639.94	44147.18
640.09	44502.95
640.24	44095.69
640.39	43599.50
640.54	43658.01
640.68	44128.46
640.83	43887.39
640.98	43791.42
641.13	43529.28
641.27	44126.12
641.42	43625.25
641.57	43859.30
641.72	44086.33
641.86	43449.70
642.01	43292.89
642.16	43519.92
642.31	42775.63
642.45	43452.05
642.60	43449.70
642.75	43430.98
642.90	43241.40
643.04	43648.65
643.19	43079.90
643.34	43463.75
643.48	42899.68
643.63	43084.58
643.78	42789.67
643.93	43470.77
644.07	43040.11
644.22	43351.40
644.37	42979.26
644.51	43203.95
644.66	43384.17
644.81	43285.87
644.95	43342.04
645.10	42955.85
645.25	42749.88
645.39	42679.67
645.54	42817.76
645.69	42843.51
645.83	42677.33
645.98	42642.22
646.13	42948.83
646.27	42925.42
646.42	42541.58
646.57	42527.53
646.71	42777.97
646.86	43075.22
647.00	42813.08
647.15	42667.97
647.30	43016.71
647.44	42738.18
647.59	42508.81
647.74	42625.84
647.88	42691.37
648.03	43021.39
648.17	42773.29
648.32	42862.23
648.47	42880.95
648.61	42351.99
648.76	42562.64
648.90	42216.24
649.05	41907.29
649.20	42506.47
649.34	42543.92
649.49	42485.40
649.63	42550.94
649.78	42651.58
649.92	42649.24
650.07	42848.19
650.21	42866.91
650.36	42361.36
650.51	42361.36
650.65	42710.10
650.80	42405.83
650.94	42277.10
651.09	42122.62
651.23	41663.88
651.38	41668.56
651.52	41703.67
651.67	41762.18
651.81	42527.53
651.96	42007.94
652.10	41467.27
652.25	42078.15
652.39	41542.17
652.54	42010.28
652.68	41691.96
652.83	41596.00
652.97	41832.39
653.12	41654.51
653.26	41661.54
653.41	41535.15
653.55	41713.03
653.70	41914.31
653.84	41949.42
653.99	41872.18
654.13	41488.34
654.27	41158.32
654.42	41841.76
654.56	41233.22
654.71	41734.09
654.85	42021.98
655.00	41586.64
655.14	41668.56
655.29	41500.04
655.43	41518.76
655.57	41528.13
655.72	41240.24
655.86	41163.00
656.01	40924.27
656.15	41088.10
656.30	41209.81
656.44	41549.19
656.58	41460.25
656.73	41345.56
656.87	41151.30
657.01	40945.33
657.16	40772.13
657.30	41130.23
657.45	41109.17
657.59	40910.22
657.73	41048.32
657.88	40854.05
658.02	41141.94
658.16	41139.60
658.31	41205.13
658.45	41067.04
658.60	40582.55
658.74	40811.92
658.88	40620.00
659.03	40467.86
659.17	40320.41
659.31	40554.46
659.46	40308.71
659.60	40353.18
659.74	40416.37
659.89	40477.22
660.03	40177.64
660.17	40404.67
660.32	40238.49
660.46	39611.23
660.60	40208.06
660.74	39894.43
660.89	39913.16
661.03	39306.96
661.17	40229.13
661.32	39679.10
661.46	40297.00
661.60	39405.26
661.74	39543.35
661.89	39484.84
662.03	39866.34
662.17	39878.05
662.31	39208.65
662.46	39894.43
662.60	38976.94
662.74	39152.48
662.88	38983.96
663.03	38710.12
663.17	39227.38
663.31	38763.95
663.45	39068.22
663.60	39185.25
663.74	39042.48
663.88	39161.84
664.02	38684.37
664.17	39124.40
664.31	38630.54
664.45	38703.10
664.59	38822.47
664.73	38539.26
664.88	39037.80
665.02	38590.75
665.16	38443.30
665.30	38518.20
665.44	38316.91
665.59	38199.88
665.73	38506.49
665.87	38143.71
666.01	38340.32
666.15	38583.73
666.29	37816.04
666.44	37977.53
666.58	38132.01
666.72	37612.41
666.86	37670.92
667.00	37914.34
667.14	37469.64
667.28	37797.31
667.43	37776.25
667.57	37883.91
667.71	37743.48
667.85	37897.95
667.99	37684.97
668.13	37170.05
668.27	37130.26
668.41	36987.49
668.56	36975.78
668.70	37261.33
668.84	36615.34
668.98	36610.66
669.12	36889.18
669.26	36650.45
669.40	36954.72
669.54	36715.98
669.68	36697.26
669.82	36617.68
669.96	36177.66
670.10	36126.17
670.25	36224.47
670.39	36400.01
670.53	36868.12
670.67	36392.99
670.81	36617.68
670.95	36287.67
671.09	35887.43
671.23	35651.04
671.37	36327.45
671.51	35887.43
671.65	35653.38
671.79	35730.62
671.93	35739.98
672.07	35424.01
672.21	35967.01
672.35	35126.76
672.49	35534.01
672.63	35002.71
672.77	34799.08
672.91	35379.54
673.05	34845.90
673.19	34471.41
673.33	34677.38
673.47	34590.78
673.61	34515.88
673.75	34440.98
673.89	34600.14
674.03	34230.33
674.17	33989.26
674.31	34218.63
674.45	34359.06
674.59	34064.16
674.73	34043.09
674.87	33825.42
675.01	33553.92
675.15	33631.16
675.29	33486.04
675.43	33666.27
675.56	33830.10
675.70	33354.97
675.84	33273.06
675.98	32428.12
676.12	33151.35
676.26	33572.64
676.40	33116.24
676.54	32748.78
676.68	32830.69
676.82	32343.86
676.96	32692.60
677.10	32795.59
677.23	32636.43
677.37	32393.01
677.51	32290.03
677.65	32238.54
677.79	32275.99
677.93	31915.54
678.07	32051.30
678.21	31690.85
678.34	31641.70
678.48	31253.17
678.62	31253.17
678.76	31398.29
678.90	31211.04
679.04	31222.75
679.18	31688.51
679.31	31098.70
679.45	30721.87
679.59	30951.24
679.73	30679.74
679.87	30654.00
680.00	30480.80
680.14	30630.59
680.28	30635.27
680.42	30190.57
680.56	30309.94
680.70	29919.07
680.83	29879.28
680.97	29858.21
681.11	29778.64
681.25	29696.72
681.39	29362.02
681.52	29575.01
681.66	29102.22
681.80	28800.29
681.94	28987.53
682.07	28606.03
682.21	28601.35
682.35	29298.83
682.49	28966.47
682.62	28830.72
682.76	28489.00
682.90	28678.58
683.04	28271.33
683.17	28247.93
683.31	28187.07
683.45	27913.23
683.59	27520.02
683.72	27545.76
683.86	28128.56
684.00	27543.42
684.13	27840.67
684.27	27363.20
684.41	27449.80
684.55	27063.61
684.68	27367.88
684.82	27131.49
684.96	27094.04
685.09	27101.06
685.23	26852.97
685.37	27243.84
685.50	27295.33
685.64	26719.56
685.78	26710.19
685.91	26377.84
686.05	26515.93
686.19	26064.21
686.32	26380.18
686.46	25776.32
686.60	25738.87
686.73	25689.72
686.87	25631.21
687.01	25474.39
687.14	25605.46
687.28	25542.27
687.42	25275.45
687.55	25102.25
687.69	25336.30
687.82	25057.78
687.96	25186.50
688.10	24966.49
688.23	24933.73
688.37	25207.57
688.50	25034.37
688.64	24657.54
688.78	24781.59
688.91	24554.56
689.05	24243.27
689.18	24128.58
689.32	23585.58
689.46	23784.52
689.59	23524.72
689.73	24217.52
689.86	24173.05
690.00	23899.21
690.13	23616.01
690.27	23627.71
690.41	23491.96
690.54	23131.51
690.68	23459.19
690.81	22785.12
690.95	22754.69
691.08	23077.68
691.22	22836.61
691.35	22661.07
691.49	22979.38
691.62	22539.36
691.76	22366.16
691.89	22101.68
692.03	21867.63
692.16	22246.79
692.30	21799.75
692.43	21818.47
692.57	21652.30
692.70	21668.68
692.84	21483.78
692.97	21546.97
693.11	21298.88
693.24	21043.76
693.38	21481.44
693.51	21032.05
693.65	21001.63
693.78	21018.01
693.92	20741.83
694.05	20704.38
694.19	20917.37
694.32	20622.46
694.45	20858.85
694.59	20755.87
694.72	20262.02
694.86	20327.55
694.99	20294.79
695.13	20219.89
695.26	20238.61
695.39	19770.51
695.53	19962.43
695.66	19676.88
695.80	19634.75
695.93	19667.52
696.07	19545.81
696.20	19040.26
696.33	19068.34
696.47	18834.29
696.60	19199.41
696.73	19475.60
696.87	19246.23
697.00	19328.14
697.14	18766.42
697.27	18644.71
697.40	18710.24
697.54	18618.96
697.67	18427.04
697.80	18349.80
697.94	18609.60
698.07	18026.81
698.21	17919.14
698.34	18122.77
698.47	17804.46
698.61	17444.01
698.74	17855.95
698.87	17558.70
699.01	17383.16
699.14	17455.72
699.27	17516.57
699.40	17291.88
699.54	17338.69
699.67	17317.62
699.80	16980.59
699.94	17146.76
700.07	17001.65
700.20	16781.64
700.34	16599.08
700.47	16844.84
700.60	17003.99
700.73	16716.11
700.87	16678.66
701.00	16301.83
701.13	16528.86
701.26	16358.00
701.40	16177.78
701.53	15999.90
701.66	16023.31
701.79	15976.50
701.93	15775.21
702.06	15594.99
702.19	15360.94
702.32	15885.22
702.46	15772.87
702.59	15594.99
702.72	15637.12
702.85	15342.21
702.99	15604.35
703.12	15279.02
703.25	15161.99
703.38	15091.77
703.51	14965.39
703.65	14668.14
703.78	14651.75
703.91	14857.72
704.04	14368.55
704.17	14633.03
704.31	14644.73
704.44	14574.52
704.57	14293.65
704.70	14260.88
704.83	13958.96
704.96	14143.86
705.10	14127.47
705.23	14066.62
>>>>>End Processed Spectral Data<<<<<
