SpectraSuite Data File
++++++++++++++++++++++++++++++++++++
Date: Fri Oct 25 10:46:54 EDT 2013
User: price-jones
Dark Spectrum Present: No
Reference Spectrum Present: No
Number of Sampled Component Spectra: 1
Spectrometers: USB2+H05261
Integration Time (usec): 100000 (USB2+H05261)
Spectra Averaged: 1 (USB2+H05261)
Boxcar Smoothing: 0 (USB2+H05261)
Correct for Electrical Dark: No (USB2+H05261)
Strobe/Lamp Enabled: No (USB2+H05261)
Correct for Detector Non-linearity: No (USB2+H05261)
Correct for Stray Light: No (USB2+H05261)
Number of Pixels in Processed Spectrum: 2048
>>>>>Begin Processed Spectral Data<<<<<
365.73	72.56
365.92	72.56
366.12	72.56
366.32	39.79
366.52	42.13
366.72	0.00
366.91	49.15
367.11	56.17
367.31	67.88
367.51	46.81
367.70	0.00
367.90	67.88
368.10	51.49
368.30	7.02
368.49	88.94
368.69	32.77
368.89	95.96
369.09	9.36
369.28	9.36
369.48	60.85
369.68	63.19
369.87	49.15
370.07	145.11
370.27	182.56
370.47	210.65
370.66	358.10
370.86	355.76
371.06	463.43
371.25	451.72
371.45	482.15
371.65	479.81
371.84	456.40
372.04	437.68
372.24	498.53
372.44	479.81
372.63	493.85
372.83	507.90
373.03	554.71
373.22	526.62
373.42	557.05
373.62	543.00
373.81	561.73
374.01	568.75
374.21	538.32
374.40	568.75
374.60	573.43
374.79	580.45
374.99	545.34
375.19	573.43
375.38	568.75
375.58	669.39
375.78	589.82
375.97	645.99
376.17	702.16
376.37	631.94
376.56	587.47
376.76	578.11
376.95	627.26
377.15	653.01
377.35	695.14
377.54	702.16
377.74	580.45
377.93	685.78
378.13	699.82
378.33	662.37
378.52	709.18
378.72	685.78
378.91	643.65
379.11	603.86
379.31	671.73
379.50	627.26
379.70	674.07
379.89	730.25
380.09	620.24
380.28	653.01
380.48	711.52
380.68	699.82
380.87	662.37
381.07	748.97
381.26	744.29
381.46	737.27
381.65	730.25
381.85	713.86
382.04	748.97
382.24	755.99
382.43	732.59
382.63	669.39
382.83	723.23
383.02	774.72
383.22	751.31
383.41	739.61
383.61	711.52
383.80	786.42
384.00	781.74
384.19	809.83
384.39	812.17
384.58	755.99
384.78	868.34
384.97	844.93
385.17	835.57
385.36	819.19
385.56	901.11
385.75	833.23
385.95	807.48
386.14	823.87
386.34	959.62
386.53	802.80
386.72	889.40
386.92	819.19
387.11	905.79
387.31	910.47
387.50	863.66
387.70	903.45
387.89	858.98
388.09	830.89
388.28	814.51
388.48	877.70
388.67	940.90
388.86	889.40
389.06	1013.45
389.25	1020.47
389.45	954.94
389.64	966.64
389.84	945.58
390.03	968.98
390.22	1036.86
390.42	954.94
390.61	976.00
390.81	1104.73
391.00	1011.11
391.19	1100.05
391.39	1015.79
391.58	1086.01
391.78	1114.10
391.97	957.28
392.16	1090.69
392.36	1046.22
392.55	1015.79
392.75	1001.75
392.94	968.98
393.13	940.90
393.33	1071.97
393.52	1018.13
393.71	1057.92
393.91	1135.16
394.10	1160.91
394.29	1181.97
394.49	1139.84
394.68	1184.31
394.88	1268.57
395.07	1322.40
395.26	1165.59
395.46	1184.31
395.65	1266.23
395.84	1132.82
396.04	1193.67
396.23	1252.19
396.42	1186.65
396.62	1231.12
396.81	1235.80
397.00	1217.08
397.19	1277.93
397.39	1306.02
397.58	1310.70
397.77	1308.36
397.97	1444.11
398.16	1390.28
398.35	1448.79
398.55	1425.39
398.74	1434.75
398.93	1577.52
399.12	1572.84
399.32	1521.35
399.51	1458.15
399.70	1551.78
399.90	1500.28
400.09	1488.58
400.28	1549.43
400.47	1563.48
400.67	1692.21
400.86	1593.90
401.05	1652.42
401.24	1624.33
401.44	1650.08
401.63	1565.82
401.82	1666.46
402.01	1586.88
402.21	1710.93
402.40	1685.19
402.59	1863.07
402.78	1706.25
402.97	1678.16
403.17	1778.81
403.36	1736.68
403.55	1863.07
403.74	1907.54
403.93	1799.87
404.13	1792.85
404.32	1802.21
404.51	1764.76
404.70	1926.26
404.89	1907.54
405.09	2069.03
405.28	1956.69
405.47	1914.56
405.66	1984.77
405.85	2005.84
406.05	1952.01
406.24	2031.58
406.43	1968.39
406.62	2139.25
406.81	2172.02
407.00	2047.97
407.20	2003.50
407.39	1991.80
407.58	2108.82
407.77	2225.85
407.96	2223.51
408.15	2249.25
408.34	2293.72
408.54	2209.47
408.73	2260.96
408.92	2228.19
409.11	2300.75
409.30	2321.81
409.49	2249.25
409.68	2235.21
409.87	2230.53
410.07	2324.15
410.26	2246.91
410.45	2300.75
410.64	2457.56
410.83	2492.67
411.02	2431.82
411.21	2537.14
411.40	2509.05
411.59	2588.63
411.78	2628.42
411.98	2583.95
412.17	2567.57
412.36	2588.63
412.55	2583.95
412.74	2635.44
412.93	2633.10
413.12	2722.04
413.31	2857.79
413.50	2857.79
413.69	2780.56
413.88	2888.22
414.07	2848.43
414.26	3023.97
414.45	2920.99
414.64	2932.69
414.83	3009.93
415.02	2920.99
415.22	3101.21
415.41	3052.06
415.60	3084.83
415.79	3159.72
415.98	3183.13
416.17	3162.06
416.36	3225.26
416.55	3206.53
416.74	3199.51
416.93	3229.94
417.12	3199.51
417.31	3372.71
417.50	3155.04
417.69	3344.63
417.88	3447.61
418.07	3368.03
418.26	3449.95
418.45	3468.67
418.64	3471.01
418.83	3646.55
419.02	3599.74
419.21	3681.66
419.39	3508.46
419.58	3548.25
419.77	3541.23
419.96	3609.11
420.15	3644.21
420.34	3571.66
420.53	3641.87
420.72	3728.47
420.91	3698.05
421.10	3742.52
421.29	3845.50
421.48	3775.28
421.67	3824.44
421.86	3681.66
422.05	3672.30
422.24	3688.68
422.43	3688.68
422.61	3791.67
422.80	3695.71
422.99	3693.37
423.18	3749.54
423.37	3964.87
423.56	3875.93
423.75	3822.09
423.94	3904.01
424.13	3808.05
424.32	3754.22
424.50	3866.56
424.69	4011.68
424.88	3908.69
425.07	3901.67
425.26	3754.22
425.45	3904.01
425.64	3854.86
425.83	3864.22
426.01	4016.36
426.20	3892.31
426.39	4058.49
426.58	3953.16
426.77	3953.16
426.96	3962.53
427.15	3901.67
427.33	4074.87
427.52	4056.15
427.71	4081.89
427.90	4084.23
428.09	4166.15
428.28	4032.74
428.46	4117.00
428.65	4128.70
428.84	4198.92
429.03	4234.03
429.22	4121.68
429.40	4070.19
429.59	3992.95
429.78	3992.95
429.97	3964.87
430.16	3985.93
430.34	4191.90
430.53	4180.20
430.72	4177.86
430.91	4404.89
431.10	4245.73
431.28	4334.67
431.47	4592.13
431.66	4521.92
431.85	4592.13
432.03	4547.66
432.22	4613.20
432.41	4557.02
432.60	4580.43
432.79	4557.02
432.97	4695.11
433.16	4655.33
433.35	4545.32
433.54	4674.05
433.72	4667.03
433.91	4603.83
434.10	4758.31
434.28	4840.23
434.47	4781.71
434.66	4898.74
434.85	4709.16
435.03	4777.03
435.22	4865.97
435.41	4992.36
435.59	4975.98
435.78	5039.17
435.97	5125.77
436.16	5151.52
436.34	5179.61
436.53	5149.18
436.72	5167.90
436.90	4896.40
437.09	5034.49
437.28	5076.62
437.46	5170.24
437.65	4999.38
437.84	5036.83
438.02	5071.94
438.21	5118.75
438.40	4999.38
438.58	5352.81
438.77	5275.57
438.96	5364.51
439.14	5490.90
439.33	5509.62
439.52	5427.70
439.70	5547.07
439.89	5650.05
440.08	5570.48
440.26	5968.37
440.45	5621.97
440.63	5767.08
440.82	5870.06
441.01	5757.72
441.19	5895.81
441.38	5994.11
441.57	5961.34
441.75	6008.16
441.94	6207.10
442.12	6237.53
442.31	6183.70
442.50	6183.70
442.68	6230.51
442.87	6232.85
443.05	6211.78
443.24	6380.30
443.43	6289.02
443.61	6420.09
443.80	6689.25
443.98	6174.33
444.17	6157.95
444.35	6354.55
444.54	6637.76
444.73	6553.50
444.91	6480.94
445.10	6511.37
445.28	6485.62
445.47	6221.14
445.65	6347.53
445.84	6420.09
446.02	6422.43
446.21	6473.92
446.39	6296.04
446.58	6548.82
446.77	6452.86
446.95	6459.88
447.14	6558.18
447.32	6740.74
447.51	6558.18
447.69	6389.66
447.88	6670.53
448.06	6541.80
448.25	6633.08
448.43	6640.10
448.62	6497.33
448.80	6724.36
448.99	6661.16
449.17	6705.63
449.36	6565.20
449.54	6862.45
449.73	6890.54
449.91	6904.58
450.10	7101.19
450.28	7133.95
450.46	7108.21
450.65	7162.04
450.83	6916.28
451.02	6902.24
451.20	7152.68
451.39	7155.02
451.57	7002.88
451.76	6963.09
451.94	7222.89
452.13	7133.95
452.31	7028.63
452.49	7000.54
452.68	7089.48
452.86	7056.72
453.05	7185.44
453.23	7297.79
453.42	7143.32
453.60	7250.98
453.78	7391.41
453.97	7323.54
454.15	7300.13
454.34	7234.60
454.52	7302.47
454.70	7412.48
454.89	7328.22
455.07	7466.31
455.26	7599.72
455.44	7639.51
455.62	7466.31
455.81	7721.43
455.99	7545.89
456.17	7899.31
456.36	7707.38
456.54	7868.88
456.73	7920.37
456.91	7700.36
457.09	7903.99
457.28	8053.78
457.46	7885.26
457.64	8077.19
457.83	7831.43
458.01	7815.05
458.19	8079.53
458.38	8070.17
458.56	8116.98
458.74	8201.24
458.93	8070.17
459.11	8105.28
459.29	8180.17
459.48	8287.84
459.66	8262.09
459.84	8236.35
460.03	8355.71
460.21	8400.18
460.39	8304.22
460.57	8351.03
460.76	8430.61
460.94	8418.91
461.12	8215.28
461.31	8439.97
461.49	8601.47
461.67	8386.14
461.85	8582.74
462.04	8540.61
462.22	9095.32
462.40	8755.94
462.59	8688.07
462.77	8788.71
462.95	8711.47
463.13	8819.14
463.32	8552.32
463.50	8938.51
463.68	9048.51
463.86	8865.95
464.05	8821.48
464.23	8943.19
464.41	9151.49
464.59	8868.29
464.78	9097.66
464.96	8973.61
465.14	8856.59
465.32	9027.45
465.50	9160.86
465.69	9301.29
465.87	8980.64
466.05	9158.52
466.23	9170.22
466.41	9100.00
466.60	9329.38
466.78	9020.42
466.96	9022.77
467.14	9102.34
467.32	9252.14
467.51	9261.50
467.69	9095.32
467.87	9153.84
468.05	9128.09
468.23	9224.05
468.41	9280.22
468.60	9507.26
468.78	9689.82
468.96	9355.12
469.14	9745.99
469.32	9540.02
469.50	9177.24
469.69	9579.81
469.87	9884.08
470.05	9830.25
470.23	9713.22
470.41	9535.34
470.59	9708.54
470.77	9792.80
470.95	9928.55
471.14	10122.82
471.32	9954.30
471.50	10338.15
471.68	10181.33
471.86	10331.12
472.04	10197.71
472.22	10258.57
472.40	10134.52
472.58	10157.92
472.77	10448.15
472.95	10513.69
473.13	10693.91
473.31	10296.02
473.49	10665.82
473.67	10335.81
473.85	10799.23
474.03	10740.72
474.21	10965.41
474.39	10942.00
474.57	10934.98
474.75	11066.05
474.93	10951.37
475.12	11101.16
475.30	11267.34
475.48	11239.25
475.66	11112.86
475.84	11199.46
476.02	11330.53
476.20	11438.20
476.38	11669.91
476.56	11721.40
476.74	11590.33
476.92	11700.34
477.10	11606.72
477.28	11815.02
477.46	12091.21
477.64	11824.39
477.82	12203.55
478.00	12430.59
478.18	12542.93
478.36	12503.14
478.54	12573.36
478.72	12578.04
478.90	12751.24
479.08	12917.42
479.26	12966.57
479.44	12950.18
479.62	12901.03
479.80	12765.28
479.98	13263.82
480.16	13383.18
480.34	13509.57
480.52	13605.53
480.70	13460.42
480.88	13495.53
481.06	13645.32
481.24	13745.97
481.41	14085.34
481.59	14125.13
481.77	14155.56
481.95	14312.38
482.13	14293.65
482.31	14434.08
482.49	14721.97
482.67	14780.48
482.85	15028.58
483.03	14984.11
483.21	15171.35
483.39	15171.35
483.57	15229.87
483.74	15297.74
483.92	15445.20
484.10	15307.10
484.28	15789.25
484.46	15697.97
484.64	16140.33
484.82	16091.18
485.00	15903.94
485.18	16329.92
485.35	16112.25
485.53	16020.97
485.71	16280.77
485.89	16538.23
486.07	16276.09
486.25	16725.47
486.43	16624.83
486.61	16861.22
486.78	17371.46
486.96	17441.67
487.14	17525.93
487.32	17530.61
487.50	17638.28
487.68	18146.17
487.85	18008.08
488.03	18480.87
488.21	18293.63
488.39	18586.19
488.57	18504.28
488.75	18677.48
488.92	19281.33
489.10	19058.98
489.28	18972.38
489.46	19822.00
489.64	19477.94
489.81	19620.71
489.99	19421.77
490.17	19910.94
490.35	19978.81
490.53	19707.31
490.70	20563.95
490.88	20161.37
491.06	20437.56
491.24	20423.51
491.41	20334.57
491.59	20795.66
491.77	20954.82
491.95	20891.62
492.13	21050.78
492.30	21411.22
492.48	21469.73
492.66	21443.99
492.84	21633.57
493.01	21986.99
493.19	21575.06
493.37	21832.52
493.54	22101.68
493.72	22312.33
493.90	22361.48
494.08	22761.71
494.25	22546.38
494.43	22848.31
494.61	23234.50
494.79	23157.26
494.96	23168.96
495.14	23192.37
495.32	23559.83
495.49	23377.27
495.67	23833.68
495.85	23845.38
496.02	23763.46
496.20	24102.84
496.38	23953.04
496.55	24116.88
496.73	24835.42
496.91	24491.37
497.09	24800.32
497.26	25013.31
497.44	24931.39
497.62	24987.56
497.79	25064.80
497.97	25088.20
498.14	25256.72
498.32	25399.49
498.50	25635.89
498.67	25795.04
498.85	25776.32
499.03	26092.29
499.20	25865.26
499.38	26024.42
499.56	26064.21
499.73	26169.53
499.91	26347.41
500.08	26429.33
500.26	26293.58
500.44	26583.80
500.61	26354.43
500.79	26426.99
500.97	26740.62
501.14	26752.32
501.32	26693.81
501.49	26771.05
501.67	26881.05
501.84	27475.55
502.02	27398.31
502.20	27501.29
502.37	27330.44
502.55	27447.46
502.72	27618.32
502.90	27793.86
503.07	27573.85
503.25	27924.93
503.43	28039.62
503.60	28114.52
503.78	27903.87
503.95	28444.53
504.13	28297.08
504.30	28582.62
504.48	28641.14
504.65	28332.18
504.83	28912.64
505.01	28914.98
505.18	28833.06
505.36	29027.32
505.53	28662.20
505.71	29659.27
505.88	29797.36
506.06	29249.67
506.23	29486.07
506.41	29294.14
506.58	29455.64
506.76	29242.65
506.93	30228.02
507.11	29528.20
507.28	30022.05
507.46	29855.87
507.63	29898.00
507.81	29855.87
507.98	29893.32
508.16	30132.06
508.33	30602.50
508.50	30675.06
508.68	30766.34
508.85	31246.15
509.03	30590.80
509.20	30581.44
509.38	30881.03
509.55	31119.76
509.73	31159.55
509.90	31489.57
510.08	31243.81
510.25	30864.64
510.42	31351.48
510.60	31098.70
510.77	31587.87
510.95	31885.12
511.12	31868.73
511.30	31828.95
511.47	32023.21
511.64	32020.87
511.82	32053.64
511.99	32168.32
512.17	32229.18
512.34	32060.66
512.51	32236.20
512.69	32622.39
512.86	32542.81
513.04	32666.86
513.21	32711.33
513.38	33017.94
513.56	32463.23
513.73	32664.52
513.90	32966.45
514.08	32730.05
514.25	32945.38
514.43	33191.14
514.60	32723.03
514.77	33132.62
514.95	33270.72
515.12	33453.28
515.29	33062.41
515.47	33933.09
515.64	34015.01
515.81	33582.01
515.99	33645.20
516.16	33500.09
516.33	33818.40
516.51	33551.58
516.68	33090.49
516.85	33137.30
517.03	33544.56
517.20	33902.66
517.37	34115.65
517.54	34293.53
517.72	34286.51
517.89	34375.45
518.06	34015.01
518.24	33977.56
518.41	34061.82
518.58	34174.16
518.75	34249.06
518.93	34696.10
519.10	35152.51
519.27	34873.98
519.45	34789.72
519.62	35000.37
519.79	34614.18
519.96	35552.74
520.14	35866.37
520.31	35342.09
520.48	35454.44
520.65	35601.89
520.83	35690.83
521.00	35648.70
521.17	35786.79
521.34	35840.62
521.52	35718.92
521.69	35688.49
521.86	36411.71
522.03	36163.62
522.20	36187.02
522.38	35611.25
522.55	36367.24
522.72	36243.20
522.89	36486.61
523.07	36439.80
523.24	36453.84
523.41	36624.70
523.58	36800.24
523.75	36978.12
523.92	37027.28
524.10	37380.70
524.27	37181.75
524.44	37202.82
524.61	37481.34
524.78	37134.94
524.96	37680.28
525.13	37319.84
525.30	37741.14
525.47	37748.16
525.64	37610.07
525.81	37666.24
525.98	37315.16
526.16	37092.81
526.33	37364.31
526.50	37809.01
526.67	37095.15
526.84	37495.38
527.01	37366.65
527.18	37577.30
527.36	37811.35
527.53	38419.89
527.70	38054.77
527.87	38370.74
528.04	38204.56
528.21	38848.21
528.38	38478.41
528.55	38595.43
528.72	38635.22
528.89	38932.47
529.07	39035.45
529.24	39037.80
529.41	38890.34
529.58	38646.93
529.75	38763.95
529.92	38953.54
530.09	38714.80
530.26	38759.27
530.43	39276.53
530.60	38866.94
530.77	39508.24
530.94	38841.19
531.11	39234.40
531.28	39234.40
531.46	39386.54
531.63	39402.92
531.80	39742.30
531.97	39295.25
532.14	39377.17
532.31	39538.67
532.48	39374.83
532.65	39454.41
532.82	39730.59
532.99	39552.71
533.16	39735.27
533.33	40114.44
533.50	39871.03
533.67	39903.79
533.84	39842.94
534.01	40179.98
534.18	40095.72
534.35	40212.74
534.52	39962.31
534.69	39833.58
534.86	40212.74
535.03	40437.44
535.20	40526.38
535.37	40662.13
535.54	40732.34
535.71	40561.48
535.88	40517.01
536.05	40561.48
536.22	40659.79
536.38	40594.25
536.55	40627.02
536.72	40538.08
536.89	40392.97
537.06	40858.73
537.23	40982.78
537.40	41015.55
537.57	41050.66
537.74	41013.21
537.91	41205.13
538.08	41507.06
538.25	40900.86
538.42	41305.77
538.59	41113.85
538.75	40900.86
538.92	40999.16
539.09	41392.37
539.26	41067.04
539.43	41392.37
539.60	41375.99
539.77	40914.90
539.94	41387.69
540.11	41277.69
540.28	41326.84
540.44	41577.28
540.61	41748.14
540.78	41500.04
540.95	41504.72
541.12	41375.99
541.29	41514.08
541.46	41537.49
541.62	41872.18
541.79	42251.35
541.96	41841.76
542.13	41715.37
542.30	41965.81
542.47	41612.38
542.63	42071.13
542.80	42284.12
542.97	42529.87
543.14	42864.57
543.31	42607.11
543.48	42803.72
543.64	43311.61
543.81	42997.98
543.98	42639.88
544.15	42871.59
544.32	42822.44
544.48	42829.46
544.65	42712.44
544.82	43028.41
544.99	42794.36
545.16	43037.77
545.32	42298.16
545.49	43203.95
545.66	43079.90
545.83	42990.96
546.00	43679.08
546.16	43445.02
546.33	43107.99
546.50	42705.41
546.67	43299.91
546.83	43119.69
547.00	43007.34
547.17	43063.52
547.34	42993.30
547.50	43077.56
547.67	43955.26
547.84	43480.13
548.00	43746.95
548.17	43812.49
548.34	43559.71
548.51	43985.69
548.67	44212.72
548.84	43765.68
549.01	43175.86
549.18	43704.82
549.34	43646.31
549.51	43395.87
549.68	43742.27
549.84	44009.09
550.01	44151.87
550.18	44348.47
550.34	44065.27
550.51	44163.57
550.68	43913.13
550.84	43845.26
551.01	44158.89
551.18	43650.99
551.34	43702.48
551.51	44151.87
551.68	44404.64
551.84	44247.83
552.01	44133.14
552.18	43962.28
552.34	44002.07
552.51	44130.80
552.68	44112.08
552.84	44360.17
553.01	44645.72
553.18	44818.92
553.34	44800.19
553.51	44479.54
553.67	44114.42
553.84	45228.51
554.01	44800.19
554.17	44842.32
554.34	45008.50
554.51	45151.27
554.67	45045.95
554.84	45184.04
555.00	44626.99
555.17	44514.65
555.33	44755.72
555.50	44729.98
555.67	44882.11
555.83	44701.89
556.00	44767.43
556.16	44870.41
556.33	44884.45
556.50	44793.17
556.66	45088.08
556.83	44858.71
556.99	44989.78
557.16	45624.06
557.32	44952.33
557.49	45256.60
557.65	44758.06
557.82	44964.03
557.98	44680.83
558.15	44933.60
558.32	45366.60
558.48	44540.39
558.65	45085.74
558.81	45153.62
558.98	45071.70
559.14	45261.28
559.31	45123.19
559.47	45284.68
559.64	45453.20
559.80	45469.59
559.97	45017.86
560.13	45139.57
560.30	45251.92
560.46	45237.87
560.63	45258.94
560.79	45689.60
560.96	45642.79
561.12	45511.72
561.29	45511.72
561.45	45310.43
561.61	45570.23
561.78	45567.89
561.94	45584.27
562.11	45673.21
562.27	45387.67
562.44	45588.95
562.60	45621.72
562.77	45918.97
562.93	45921.31
563.10	45584.27
563.26	45631.08
563.42	45684.92
563.59	45907.27
563.75	45560.87
563.92	46059.40
564.08	45530.44
564.24	45975.14
564.41	46272.39
564.57	45523.42
564.74	45380.65
564.90	45890.88
565.07	45947.06
565.23	46131.96
565.39	46155.36
565.56	46045.36
565.72	45778.54
565.88	45907.27
566.05	45581.93
566.21	45876.84
566.38	45689.60
566.54	45916.63
566.70	45998.55
566.87	46424.53
567.03	45925.99
567.19	46241.96
567.36	46005.57
567.52	45558.53
567.68	46036.00
567.85	45535.12
568.01	45673.21
568.17	45923.65
568.34	45972.80
568.50	46115.58
568.66	46127.28
568.83	46305.16
568.99	45776.20
569.15	45846.41
569.32	46185.79
569.48	46195.15
569.64	46146.00
569.81	45911.95
569.97	45989.19
570.13	45970.46
570.30	45724.71
570.46	45588.95
570.62	45975.14
570.78	46075.79
570.95	46150.68
571.11	46351.97
571.27	46024.29
571.43	45825.35
571.60	45628.74
571.76	46155.36
571.92	45930.67
572.09	45930.67
572.25	46244.30
572.41	45797.26
572.57	45874.50
572.74	46466.66
572.90	46342.61
573.06	46061.74
573.22	46028.98
573.38	46138.98
573.55	45907.27
573.71	46557.94
573.87	45846.41
574.03	45752.79
574.20	46021.95
574.36	45654.49
574.52	45738.75
574.68	46309.84
574.84	46401.12
575.01	46335.59
575.17	46239.62
575.33	45617.04
575.49	46403.46
575.65	46370.69
575.82	46504.10
575.98	46082.81
576.14	46342.61
576.30	46396.44
576.46	46028.98
576.62	45986.85
576.79	46169.41
576.95	45986.85
577.11	46155.36
577.27	46377.72
577.43	46670.28
577.59	46005.57
577.75	46246.65
577.92	45947.06
578.08	46094.51
578.24	46340.27
578.40	46309.84
578.56	45940.04
578.72	46354.31
578.88	46412.82
579.04	46197.49
579.21	46461.97
579.37	46153.02
579.53	46396.44
579.69	46148.34
579.85	46178.77
580.01	46382.40
580.17	46174.09
580.33	46115.58
580.49	46534.53
580.65	46218.56
580.82	46424.53
580.98	46305.16
581.14	46192.81
581.30	46670.28
581.46	46534.53
581.62	46117.92
581.78	46464.32
581.94	46981.57
582.10	46288.77
582.26	46639.86
582.42	46298.14
582.58	46106.21
582.74	46586.02
582.90	46508.79
583.06	46864.55
583.22	46452.61
583.38	46923.06
583.54	46983.91
583.70	46672.62
583.86	46380.06
584.02	46277.07
584.18	46543.89
584.34	46557.94
584.50	46241.96
584.66	46539.21
584.82	46277.07
584.98	46106.21
585.14	46447.93
585.30	46422.19
585.46	46480.70
585.62	46490.06
585.78	46358.99
585.94	45907.27
586.10	46461.97
586.26	46691.35
586.42	46562.62
586.58	46047.70
586.74	46597.73
586.90	46529.85
587.06	46602.41
587.22	46738.16
587.38	46000.89
587.54	46550.91
587.70	46323.88
587.86	46639.86
588.02	46295.80
588.18	46529.85
588.34	46232.60
588.49	45993.87
588.65	45930.67
588.81	46040.68
588.97	45998.55
589.13	46078.13
589.29	46005.57
589.45	46377.72
589.61	46576.66
589.77	46497.08
589.93	46461.97
590.08	46607.09
590.24	46443.25
590.40	46841.14
590.56	46543.89
590.72	46787.31
590.88	46667.94
591.04	46520.49
591.20	46967.53
591.35	46885.61
591.51	47042.43
591.67	46684.33
591.83	46347.29
591.99	46478.36
592.15	46000.89
592.31	46766.24
592.46	46492.40
592.62	46227.92
592.78	47037.75
592.94	46815.40
593.10	46337.93
593.26	46574.32
593.41	46146.00
593.57	46614.11
593.73	46534.53
593.89	46817.74
594.05	46349.63
594.20	46560.28
594.36	46349.63
594.52	46557.94
594.68	46527.51
594.84	46983.91
594.99	46686.67
595.15	46284.09
595.31	46660.92
595.47	46677.30
595.62	46806.03
595.78	46653.90
595.94	46588.36
596.10	46607.09
596.25	46340.27
596.41	47054.13
596.57	46553.26
596.73	46801.35
596.88	46424.53
597.04	46862.21
597.20	46878.59
597.36	46600.07
597.51	46560.28
597.67	46864.55
597.83	46590.70
597.99	46841.14
598.14	46754.54
598.30	47086.90
598.46	46618.79
598.61	46579.00
598.77	46628.15
598.93	46663.26
599.09	46777.95
599.24	46981.57
599.40	46918.38
599.56	47103.28
599.71	46796.67
599.87	47016.68
600.03	47386.49
600.18	46766.24
600.34	46567.30
600.50	46897.31
600.65	46810.71
600.81	46990.94
600.97	46756.88
601.12	46871.57
601.28	46939.44
601.44	46436.23
601.59	46829.44
601.75	46749.86
601.91	46504.10
602.06	46415.16
602.22	46845.82
602.37	46574.32
602.53	46471.34
602.69	46892.63
602.84	46520.49
603.00	46754.54
603.16	46555.60
603.31	46616.45
603.47	46483.04
603.62	46174.09
603.78	46749.86
603.94	46770.93
604.09	46677.30
604.25	46986.25
604.40	46361.33
604.56	46749.86
604.71	46815.40
604.87	46195.15
605.03	46719.43
605.18	46721.77
605.34	46438.57
605.49	46220.90
605.65	47030.72
605.80	46539.21
605.96	46150.68
606.12	46438.57
606.27	46768.58
606.43	46108.55
606.58	46260.69
606.74	46508.79
606.89	46417.50
607.05	46059.40
607.20	46581.34
607.36	46541.55
607.51	46642.20
607.67	46265.37
607.82	46525.17
607.98	46174.09
608.13	46518.15
608.29	46059.40
608.44	46117.92
608.60	45771.52
608.75	45996.21
608.91	46546.23
609.06	45914.29
609.22	46337.93
609.37	45825.35
609.53	46195.15
609.68	46050.04
609.84	46150.68
609.99	46370.69
610.15	45839.39
610.30	45989.19
610.46	45876.84
610.61	45399.37
610.76	46445.59
610.92	46380.06
611.07	46323.88
611.23	46220.90
611.38	46270.05
611.54	45572.57
611.69	45509.38
611.84	45818.33
612.00	45474.27
612.15	45668.53
612.31	45942.38
612.46	46014.93
612.62	46234.94
612.77	45722.37
612.92	46234.94
613.08	45549.17
613.23	45883.86
613.39	45104.46
613.54	45251.92
613.69	45794.92
613.85	45476.61
614.00	45846.41
614.15	45986.85
614.31	45801.94
614.46	45916.63
614.62	45799.60
614.77	45698.96
614.92	45619.38
615.08	45579.59
615.23	45432.14
615.38	45249.58
615.54	45067.02
615.69	45354.90
615.84	45041.27
616.00	45504.70
616.15	45642.79
616.30	45729.39
616.46	44987.44
616.61	45181.70
616.76	44837.64
616.92	44980.42
617.07	44821.26
617.22	45027.23
617.37	44921.90
617.53	45406.39
617.68	45446.18
617.83	45048.29
617.99	45228.51
618.14	45518.74
618.29	45118.51
618.45	44870.41
618.60	44690.19
618.75	45148.93
618.90	44783.81
619.06	45024.89
619.21	44507.63
619.36	44882.11
619.51	45095.10
619.67	44507.63
619.82	44502.95
619.97	44961.69
620.12	44437.41
620.28	44477.20
620.43	44474.86
620.58	44690.19
620.73	44549.76
620.89	44748.70
621.04	44444.43
621.19	44753.38
621.34	44182.29
621.49	44278.25
621.65	44554.44
621.80	44772.11
621.95	43978.67
622.10	44442.09
622.25	44034.84
622.41	44107.40
622.56	44098.03
622.71	44404.64
622.86	44133.14
623.01	44739.34
623.16	44493.58
623.32	44177.61
623.47	44325.07
623.62	43896.75
623.77	43866.32
623.92	43978.67
624.07	44095.69
624.23	43941.22
624.38	43700.14
624.53	43929.51
624.68	43917.81
624.83	44093.35
624.98	43840.57
625.13	43737.59
625.29	44177.61
625.44	43920.15
625.59	43735.25
625.74	43559.71
625.89	43540.99
626.04	43419.28
626.19	43089.26
626.34	43559.71
626.49	43129.05
626.65	43810.15
626.80	43505.88
626.95	43154.80
627.10	43264.80
627.25	42990.96
627.40	43290.55
627.55	42717.12
627.70	42370.72
627.85	42728.82
628.00	42960.53
628.15	42962.87
628.30	42972.24
628.45	43133.73
628.60	43229.69
628.76	43501.20
628.91	42937.13
629.06	43098.62
629.21	43012.02
629.36	42911.38
629.51	42864.57
629.66	42693.71
629.81	42822.44
629.96	43131.39
630.11	42944.15
630.26	42930.11
630.41	43021.39
630.56	43180.54
630.71	42878.61
630.86	42632.86
631.01	42974.58
631.16	42794.36
631.31	42436.25
631.46	42099.22
631.61	42925.42
631.76	42665.63
631.91	42560.30
632.06	42564.98
632.21	42485.40
632.36	42902.02
632.51	42274.76
632.66	42579.03
632.81	42450.30
632.96	42363.70
633.10	41940.06
633.25	42162.41
633.40	41996.23
633.55	42366.04
633.70	42433.91
633.85	41958.78
634.00	42462.00
634.15	42293.48
634.30	41811.33
634.45	42031.34
634.60	41933.04
634.75	41923.68
634.90	41722.39
635.05	41963.46
635.19	41598.34
635.34	42115.60
635.49	42064.11
635.64	41956.44
635.79	41827.71
635.94	41794.95
636.09	41783.24
636.24	41336.20
636.39	41509.40
636.53	41497.70
636.68	41116.19
636.83	41450.89
636.98	41748.14
637.13	41338.54
637.28	41596.00
637.43	41832.39
637.57	42211.56
637.72	41820.69
637.87	42141.35
638.02	41909.63
638.17	41666.22
638.32	41593.66
638.46	41467.27
638.61	41074.06
638.76	41081.08
638.91	41111.51
639.06	41338.54
639.20	41621.75
639.35	41757.50
639.50	41317.48
639.65	41591.32
639.80	41624.09
639.94	41273.01
640.09	41167.68
640.24	41008.53
640.39	40744.05
640.54	41067.04
640.68	40928.95
640.83	40935.97
640.98	41336.20
641.13	40332.11
641.27	41284.71
641.42	40851.71
641.57	40992.14
641.72	41031.93
641.86	40268.92
642.01	40755.75
642.16	40854.05
642.31	40388.28
642.45	40861.07
642.60	40409.35
642.75	40821.28
642.90	40587.23
643.04	40332.11
643.19	39751.66
643.34	40697.24
643.48	40662.13
643.63	40720.64
643.78	40299.34
643.93	40339.13
644.07	40360.20
644.22	40634.04
644.37	40048.91
644.51	39889.75
644.66	40364.88
644.81	40329.77
644.95	40383.60
645.10	40231.47
645.25	40442.12
645.39	40266.58
645.54	40088.70
645.69	39976.35
645.83	39681.44
645.98	40353.18
646.13	40509.99
646.27	40224.45
646.42	39688.46
646.57	40091.04
646.71	39686.12
646.86	40079.33
647.00	39885.07
647.15	39814.85
647.30	39878.05
647.44	39559.73
647.59	39892.09
647.74	39737.62
647.88	39915.50
648.03	40044.23
648.17	39854.64
648.32	39557.39
648.47	39629.95
648.61	39442.71
648.76	40105.08
648.90	39313.98
649.05	39704.85
649.20	39524.63
649.34	39651.02
649.49	39536.33
649.63	39285.89
649.78	39241.42
649.92	39168.87
650.07	39838.26
650.21	39257.81
650.36	39487.18
650.51	39508.24
650.65	39739.96
650.80	39665.06
650.94	39496.54
651.09	39573.78
651.23	38864.60
651.38	39063.54
651.52	39306.96
651.67	38981.62
651.81	39456.75
651.96	38710.12
652.10	39054.18
652.25	38721.82
652.39	38319.25
652.54	39636.97
652.68	38890.34
652.83	38953.54
652.97	38885.66
653.12	38909.07
653.26	38621.18
653.41	38590.75
653.55	38749.91
653.70	38822.47
653.84	38904.38
653.99	39012.05
654.13	38550.96
654.27	38775.66
654.42	38506.49
654.56	38466.70
654.71	38597.77
654.85	37968.17
655.00	38382.45
655.14	38174.14
655.29	37968.17
655.43	38150.73
655.57	37769.22
655.72	37867.53
655.86	38000.94
656.01	37390.06
656.15	37666.24
656.30	37797.31
656.44	37809.01
656.58	37897.95
656.73	37343.25
656.87	37933.06
657.01	37942.42
657.16	37839.44
657.30	37902.64
657.45	37752.84
657.59	37722.41
657.73	37724.75
657.88	37415.80
658.02	37893.27
658.16	38026.68
658.31	37748.16
658.45	38038.39
658.60	37277.71
658.74	37766.88
658.88	37408.78
659.03	37329.20
659.17	36992.17
659.31	37141.96
659.46	37200.47
659.60	37329.20
659.74	37539.85
659.89	37067.06
660.03	37020.25
660.17	36811.95
660.32	37118.56
660.46	37237.92
660.60	36947.70
660.74	36858.76
660.89	37083.45
661.03	36818.97
661.17	37013.23
661.32	36620.02
661.46	36924.29
661.60	37156.00
661.74	36678.54
661.89	36858.76
662.03	36510.02
662.17	36545.12
662.31	36341.50
662.46	36746.41
662.60	36512.36
662.74	36730.03
662.88	36313.41
663.03	36460.87
663.17	35948.29
663.31	35786.79
663.45	36442.14
663.60	36107.44
663.74	35814.88
663.88	36107.44
664.02	35971.69
664.17	35920.20
664.31	35859.35
664.45	35608.91
664.59	35957.65
664.73	35587.85
664.88	35931.90
665.02	35606.57
665.16	35218.04
665.30	35505.93
665.44	35356.13
665.59	35344.43
665.73	35482.52
665.87	35086.97
666.01	35442.73
666.15	35683.81
666.29	35285.92
666.44	35232.08
666.58	34976.97
666.72	34859.94
666.86	35044.84
667.00	35098.67
667.14	34939.52
667.28	34768.66
667.43	34799.08
667.57	34284.17
667.71	34361.40
667.85	34459.71
667.99	34623.54
668.13	34265.44
668.27	34366.09
668.41	34698.44
668.56	34199.91
668.70	34642.27
668.84	34071.18
668.98	33783.29
669.12	34237.36
669.26	34099.26
669.40	33713.08
669.54	33862.87
669.68	33996.28
669.82	34082.88
669.96	33727.12
670.10	33947.13
670.25	33448.60
670.39	33855.85
670.53	33830.10
670.67	33177.09
670.81	33766.91
670.95	33645.20
671.09	33244.97
671.23	33209.86
671.37	33446.26
671.51	33144.33
671.65	33106.88
671.79	32673.88
671.93	32643.45
672.07	33125.60
672.21	33064.75
672.35	32362.59
672.49	32926.66
672.63	32556.85
672.77	32858.78
672.91	32641.11
673.05	32430.46
673.19	32318.12
673.33	32194.07
673.47	32105.13
673.61	31901.50
673.75	31796.18
673.89	31887.46
674.03	31278.92
674.17	31833.63
674.31	31857.03
674.45	31854.69
674.59	31307.01
674.73	31969.38
674.87	31665.11
675.01	31353.82
675.15	31618.30
675.29	31543.40
675.43	31463.82
675.56	31487.23
675.70	31519.99
675.84	30773.36
675.98	30188.23
676.12	30930.18
676.26	30717.19
676.40	30672.72
676.54	30635.27
676.68	30541.65
676.82	30019.71
676.96	30305.26
677.10	30295.89
677.23	30157.80
677.37	30132.06
677.51	29741.19
677.65	29659.27
677.79	29722.46
677.93	29734.17
678.07	29500.11
678.21	29343.30
678.34	29158.39
678.48	29165.42
678.62	29015.62
678.76	28973.49
678.90	29273.08
679.04	29188.82
679.18	29106.90
679.31	28706.67
679.45	28456.23
679.59	28545.17
679.73	28552.20
679.87	28402.40
680.00	28313.46
680.14	28336.87
680.28	28357.93
680.42	27845.35
680.56	28009.19
680.70	28067.70
680.83	28020.89
680.97	27901.53
681.11	27669.81
681.25	27651.09
681.39	27728.33
681.52	27487.25
681.66	27417.04
681.80	27154.90
681.94	27175.96
682.07	27051.91
682.21	26946.59
682.35	27075.32
682.49	26993.40
682.62	27220.43
682.76	26941.91
682.90	26525.29
683.04	26635.30
683.17	26888.07
683.31	26380.18
683.45	26529.97
683.59	26670.40
683.72	25972.92
683.86	25811.43
684.00	26017.40
684.13	25937.82
684.27	25839.51
684.41	25544.61
684.55	25458.01
684.68	25539.93
684.82	25453.33
684.96	25291.83
685.09	25392.47
685.23	25212.25
685.37	24837.76
685.50	24830.74
685.64	24753.51
685.78	25043.73
685.91	24732.44
686.05	24915.00
686.19	24444.56
686.32	24271.36
686.46	24013.90
686.60	24063.05
686.73	23742.39
686.87	23915.59
687.01	23779.84
687.14	23503.66
687.28	23503.66
687.42	24006.87
687.55	23644.09
687.69	23208.75
687.82	23035.55
687.96	23346.84
688.10	23089.38
688.23	23283.65
688.37	23087.04
688.50	23178.33
688.64	23154.92
688.78	22719.58
688.91	22691.49
689.05	22579.15
689.18	22412.97
689.32	21919.12
689.46	22422.33
689.59	22150.83
689.73	22436.38
689.86	22403.61
690.00	22164.87
690.13	22216.36
690.27	21766.98
690.41	21907.41
690.54	21481.44
690.68	21472.07
690.81	21806.77
690.95	21460.37
691.08	21249.72
691.22	21294.19
691.35	21380.79
691.49	21495.48
691.62	21481.44
691.76	21252.06
691.89	21006.31
692.03	20903.32
692.16	20491.39
692.30	20624.80
692.43	21036.74
692.57	20423.51
692.70	20507.77
692.84	20386.07
692.97	20152.01
693.11	20283.08
693.24	20395.43
693.38	20231.59
693.51	20006.90
693.65	20016.26
693.78	20086.48
693.92	20194.14
694.05	19683.91
694.19	19796.25
694.32	19587.94
694.45	19454.53
694.59	19522.41
694.72	19164.31
694.86	19129.20
694.99	19119.84
695.13	19255.59
695.26	19176.01
695.39	18953.66
695.53	18831.95
695.66	18967.70
695.80	18970.04
695.93	18684.50
696.07	18331.08
696.20	18558.11
696.33	18633.00
696.47	18291.29
696.60	18155.54
696.73	17991.70
696.87	18204.69
697.00	18136.81
697.14	18122.77
697.27	18003.40
697.40	18113.41
697.54	17867.65
697.67	17415.93
697.80	17397.20
697.94	17352.73
698.07	17605.51
698.21	17137.40
698.34	17479.12
698.47	17284.86
698.61	16875.26
698.74	16898.67
698.87	16978.25
699.01	16627.17
699.14	16528.86
699.27	16725.47
699.40	16741.85
699.54	16418.86
699.67	16166.08
699.80	16444.60
699.94	16685.68
700.07	16486.73
700.20	16128.63
700.34	16095.86
700.47	16451.63
700.60	16444.60
700.73	16236.30
700.87	16035.01
701.00	15831.38
701.13	16035.01
701.26	15695.63
701.40	15578.61
701.53	15700.31
701.66	15332.85
701.79	15456.90
701.93	15461.58
702.06	15070.71
702.19	15049.64
702.32	15147.95
702.46	15288.38
702.59	15178.37
702.72	14993.47
702.85	14728.99
702.99	14883.47
703.12	14949.00
703.25	14717.29
703.38	14700.90
703.51	14721.97
703.65	14406.00
703.78	14434.08
703.91	14415.36
704.04	14466.85
704.17	14380.25
704.31	14288.97
704.44	14024.49
704.57	14143.86
704.70	13949.59
704.83	13870.01
704.96	14017.47
705.10	14066.62
705.23	13984.70
>>>>>End Processed Spectral Data<<<<<
