SpectraSuite Data File
++++++++++++++++++++++++++++++++++++
Date: Fri Oct 25 11:34:11 EDT 2013
User: price-jones
Dark Spectrum Present: No
Reference Spectrum Present: No
Number of Sampled Component Spectra: 1
Spectrometers: USB2+H05261
Integration Time (usec): 100000 (USB2+H05261)
Spectra Averaged: 1 (USB2+H05261)
Boxcar Smoothing: 0 (USB2+H05261)
Correct for Electrical Dark: No (USB2+H05261)
Strobe/Lamp Enabled: No (USB2+H05261)
Correct for Detector Non-linearity: No (USB2+H05261)
Correct for Stray Light: No (USB2+H05261)
Number of Pixels in Processed Spectrum: 2048
>>>>>Begin Processed Spectral Data<<<<<
365.73	245.76
365.92	245.76
366.12	245.76
366.32	210.65
366.52	196.60
366.72	194.26
366.91	210.65
367.11	140.43
367.31	131.07
367.51	133.41
367.70	156.82
367.90	187.24
368.10	187.24
368.30	175.54
368.49	128.73
368.69	149.79
368.89	182.56
369.09	180.22
369.28	142.77
369.48	220.01
369.68	273.84
369.87	234.05
370.07	287.89
370.27	222.35
370.47	311.29
370.66	484.49
370.86	608.54
371.06	514.92
371.25	484.49
371.45	454.06
371.65	589.82
371.84	514.92
372.04	500.87
372.24	594.50
372.44	514.92
372.63	650.67
372.83	575.77
373.03	561.73
373.22	566.41
373.42	610.88
373.62	594.50
373.81	617.90
374.01	655.35
374.21	678.76
374.40	643.65
374.60	645.99
374.79	664.71
374.99	634.29
375.19	681.10
375.38	690.46
375.58	678.76
375.78	709.18
375.97	671.73
376.17	737.27
376.37	662.37
376.56	657.69
376.76	620.24
376.95	681.10
377.15	631.94
377.35	657.69
377.54	697.48
377.74	634.29
377.93	676.41
378.13	688.12
378.33	674.07
378.52	732.59
378.72	599.18
378.91	704.50
379.11	758.33
379.31	744.29
379.50	671.73
379.70	730.25
379.89	786.42
380.09	669.39
380.28	800.46
380.48	723.23
380.68	704.50
380.87	741.95
381.07	765.36
381.26	880.04
381.46	763.01
381.65	723.23
381.85	828.55
382.04	781.74
382.24	786.42
382.43	833.23
382.63	690.46
382.83	793.44
383.02	770.04
383.22	844.93
383.41	809.83
383.61	823.87
383.80	851.96
384.00	753.65
384.19	812.17
384.39	777.06
384.58	816.85
384.78	854.30
384.97	767.70
385.17	844.93
385.36	835.57
385.56	835.57
385.75	781.74
385.95	849.61
386.14	901.11
386.34	828.55
386.53	891.74
386.72	866.00
386.92	891.74
387.11	805.14
387.31	898.77
387.50	912.81
387.70	912.81
387.89	917.49
388.09	837.91
388.28	882.38
388.48	887.06
388.67	861.32
388.86	847.27
389.06	816.85
389.25	882.38
389.45	887.06
389.64	959.62
389.84	973.66
390.03	938.55
390.22	903.45
390.42	924.51
390.61	1011.11
390.81	964.30
391.00	896.43
391.19	978.34
391.39	952.60
391.58	973.66
391.78	1004.09
391.97	1076.65
392.16	1060.26
392.36	1078.99
392.55	1139.84
392.75	1097.71
392.94	1004.09
393.13	1022.81
393.33	1057.92
393.52	1067.28
393.71	1074.31
393.91	1132.82
394.10	1071.97
394.29	1130.48
394.49	1048.56
394.68	1130.48
394.88	1081.33
395.07	1081.33
395.26	1135.16
395.46	1163.25
395.65	1123.46
395.84	1149.20
396.04	1224.10
396.23	1146.86
396.42	1193.67
396.62	1146.86
396.81	1158.57
397.00	1198.35
397.19	1231.12
397.39	1228.78
397.58	1284.95
397.77	1207.72
397.97	1212.40
398.16	1289.64
398.35	1291.98
398.55	1256.87
398.74	1186.65
398.93	1282.61
399.12	1252.19
399.32	1282.61
399.51	1338.79
399.70	1345.81
399.90	1256.87
400.09	1341.13
400.28	1444.11
400.47	1334.11
400.67	1413.68
400.86	1406.66
401.05	1401.98
401.24	1378.58
401.44	1467.52
401.63	1420.71
401.82	1366.87
402.01	1434.75
402.21	1394.96
402.40	1444.11
402.59	1434.75
402.78	1523.69
402.97	1409.00
403.17	1488.58
403.36	1469.86
403.55	1490.92
403.74	1572.84
403.93	1540.07
404.13	1493.26
404.32	1586.88
404.51	1516.67
404.70	1647.74
404.89	1549.43
405.09	1596.25
405.28	1661.78
405.47	1661.78
405.66	1739.02
405.85	1760.08
406.05	1689.87
406.24	1621.99
406.43	1671.14
406.62	1657.10
406.81	1778.81
407.00	1659.44
407.20	1582.20
407.39	1675.82
407.58	1865.41
407.77	1743.70
407.96	1811.57
408.15	1961.37
408.34	1792.85
408.54	1909.88
408.73	1797.53
408.92	1872.43
409.11	1933.28
409.30	1853.70
409.49	1926.26
409.68	1944.99
409.87	1937.96
410.07	1973.07
410.26	2003.50
410.45	2087.76
410.64	2076.06
410.83	2118.18
411.02	2057.33
411.21	2197.76
411.40	2275.00
411.59	2083.08
411.78	2186.06
411.98	2249.25
412.17	2106.48
412.36	2211.81
412.55	2277.34
412.74	2326.49
412.93	2321.81
413.12	2265.64
413.31	2396.71
413.50	2413.09
413.69	2331.17
413.88	2380.32
414.07	2406.07
414.26	2399.05
414.45	2485.65
414.64	2523.10
414.83	2490.33
415.02	2602.68
415.22	2518.42
415.41	2605.02
415.60	2555.86
415.79	2750.13
415.98	2708.00
416.17	2530.12
416.36	2640.12
416.55	2700.98
416.74	2679.91
416.93	2705.66
417.12	2715.02
417.31	2698.64
417.50	2855.45
417.69	2944.39
417.88	2956.10
418.07	2832.05
418.26	2881.20
418.45	2932.69
418.64	3054.40
418.83	2942.05
419.02	2869.50
419.21	3049.72
419.39	3208.87
419.58	2998.23
419.77	2972.48
419.96	3061.42
420.15	3143.34
420.34	3026.31
420.53	3159.72
420.72	3206.53
420.91	3213.56
421.10	3021.63
421.29	3201.85
421.48	3098.87
421.67	3197.17
421.86	3253.34
422.05	3183.13
422.24	3220.58
422.43	3227.60
422.61	3215.90
422.80	3346.97
422.99	3351.65
423.18	3412.50
423.37	3258.03
423.56	3248.66
423.75	3246.32
423.94	3269.73
424.13	2970.14
424.32	3119.93
424.50	3405.48
424.69	3346.97
424.88	3438.25
425.07	3323.56
425.26	3384.41
425.45	3246.32
425.64	3286.11
425.83	3332.92
426.01	3440.59
426.20	3461.65
426.39	3236.96
426.58	3412.50
426.77	3393.78
426.96	3375.05
427.15	3400.80
427.33	3431.23
427.52	3487.40
427.71	3569.32
427.90	3410.16
428.09	3482.72
428.28	3550.59
428.46	3562.30
428.65	3700.39
428.84	3698.05
429.03	3653.58
429.22	3618.47
429.40	3679.32
429.59	3662.94
429.78	3508.46
429.97	3522.51
430.16	3744.86
430.34	3810.39
430.53	3756.56
430.72	3684.00
430.91	3686.34
431.10	3733.15
431.28	3838.48
431.47	3852.52
431.66	3988.27
431.85	3838.48
432.03	4004.66
432.22	4035.08
432.41	3913.38
432.60	3882.95
432.79	3889.97
432.97	4095.94
433.16	4135.73
433.35	3962.53
433.54	4021.04
433.72	4147.43
433.91	4002.32
434.10	4168.49
434.28	4025.72
434.47	4056.15
434.66	4264.46
434.85	4273.82
435.03	4259.78
435.22	4124.02
435.41	4344.03
435.59	4273.82
435.78	4262.12
435.97	4395.53
436.16	4271.48
436.34	4348.72
436.53	4435.32
436.72	4447.02
436.90	4353.40
437.09	4315.95
437.28	4372.12
437.46	4379.14
437.65	4318.29
437.84	4571.07
438.02	4514.89
438.21	4507.87
438.40	4454.04
438.58	4550.00
438.77	4669.37
438.96	4631.92
439.14	4674.05
439.33	4739.58
439.52	4856.61
439.70	4807.46
439.89	4847.25
440.08	4908.10
440.26	4903.42
440.45	4791.08
440.63	4882.36
440.82	4997.04
441.01	4983.00
441.19	5116.41
441.38	5151.52
441.57	5104.71
441.75	5181.95
441.94	5221.74
442.12	5310.68
442.31	5270.89
442.50	5320.04
442.68	5118.75
442.87	5320.04
443.05	5212.37
443.24	5444.09
443.43	5317.70
443.61	5394.93
443.80	5502.60
443.98	5329.40
444.17	5104.71
444.35	5521.32
444.54	5380.89
444.73	5348.12
444.91	5434.72
445.10	5376.21
445.28	5472.17
445.47	5425.36
445.65	5453.45
445.84	5572.82
446.02	5724.95
446.21	5591.54
446.39	5476.85
446.58	5694.52
446.77	5446.43
446.95	5359.83
447.14	5540.05
447.32	5724.95
447.51	5668.78
447.69	5535.37
447.88	5607.92
448.06	5579.84
448.25	5668.78
448.43	5570.48
448.62	5530.69
448.80	5640.69
448.99	5818.57
449.17	5715.59
449.36	5708.57
449.54	5825.59
449.73	5884.11
449.91	5919.21
450.10	5809.21
450.28	6061.99
450.46	5893.47
450.65	5956.66
450.83	6052.63
451.02	5884.11
451.20	6012.84
451.39	5998.79
451.57	6167.31
451.76	6033.90
451.94	5944.96
452.13	6183.70
452.31	6167.31
452.49	6026.88
452.68	6024.54
452.86	6113.48
453.05	6279.66
453.23	6195.40
453.42	6244.55
453.60	6108.80
453.78	6216.46
453.97	6211.78
454.15	6045.60
454.34	6246.89
454.52	6471.58
454.70	6448.18
454.89	6462.22
455.07	6443.49
455.26	6546.48
455.44	6300.72
455.62	6590.95
455.81	6469.24
455.99	6782.87
456.17	6637.76
456.36	6633.08
456.54	6604.99
456.73	6803.94
456.91	6841.39
457.09	6698.61
457.28	6871.81
457.46	6633.08
457.64	6979.48
457.83	6806.28
458.01	6927.99
458.19	7073.10
458.38	6867.13
458.56	7176.08
458.74	7068.42
458.93	7131.61
459.11	7026.29
459.29	6946.71
459.48	7194.81
459.66	7206.51
459.84	7162.04
460.03	7148.00
460.21	7176.08
460.39	7009.90
460.57	7421.84
460.76	7129.27
460.94	7456.95
461.12	7250.98
461.31	7375.03
461.49	7283.75
461.67	7536.52
461.85	7478.01
462.04	7358.64
462.22	7903.99
462.40	7627.81
462.59	7447.58
462.77	7316.51
462.95	7658.23
463.13	7510.78
463.32	7639.51
463.50	7730.79
463.68	7583.34
463.86	7761.22
464.05	7487.37
464.23	7716.75
464.41	7693.34
464.59	7641.85
464.78	7808.03
464.96	7918.03
465.14	7833.77
465.32	7925.05
465.50	8060.80
465.69	7978.89
465.87	7878.24
466.05	7772.92
466.23	7955.48
466.41	7833.77
466.60	8196.56
466.78	8074.85
466.96	8044.42
467.14	7957.82
467.32	8004.63
467.51	8133.36
467.69	7990.59
467.87	8222.30
468.05	8182.51
468.23	8191.88
468.41	8306.56
468.60	8222.30
468.78	8395.50
468.96	8449.33
469.14	8322.94
469.32	8353.37
469.50	8355.71
469.69	8449.33
469.87	8561.68
470.05	8376.78
470.23	8575.72
470.41	8589.77
470.59	8418.91
470.77	8531.25
470.95	8821.48
471.14	8795.73
471.32	8538.27
471.50	8950.21
471.68	8720.84
471.86	8908.08
472.04	8870.63
472.22	8968.93
472.40	8854.25
472.58	9025.11
472.77	9179.58
472.95	9305.97
473.13	9551.73
473.31	9078.94
473.49	9247.46
473.67	9085.96
473.85	9296.61
474.03	9497.89
474.21	9448.74
474.39	9420.66
474.57	9540.02
474.75	9757.69
474.93	9610.24
475.12	9596.20
475.30	9673.43
475.48	9444.06
475.66	9736.63
475.84	9839.61
476.02	9912.17
476.20	10024.51
476.38	10054.94
476.56	10244.52
476.74	10174.31
476.92	10338.15
477.10	10347.51
477.28	10377.94
477.46	10555.82
477.64	10565.18
477.82	10546.45
478.00	10923.28
478.18	10939.66
478.36	11042.65
478.54	11019.24
478.72	11145.63
478.90	11084.78
479.08	11325.85
479.26	11424.15
479.44	11243.93
479.62	11375.00
479.80	11735.45
479.98	11510.75
480.16	12032.69
480.34	11946.09
480.52	12035.03
480.70	12074.82
480.88	11948.43
481.06	12156.74
481.24	12023.33
481.41	12210.57
481.59	12269.09
481.77	12582.72
481.95	12503.14
482.13	12645.91
482.31	12346.33
482.49	12802.73
482.67	12978.27
482.85	13034.44
483.03	13558.72
483.21	13102.32
483.39	13612.56
483.57	13570.43
483.74	13554.04
483.92	13720.22
484.10	13631.28
484.28	13738.94
484.46	14307.69
484.64	14291.31
484.82	13879.38
485.00	14586.22
485.18	14478.55
485.35	14745.38
485.53	14710.27
485.71	14590.90
485.89	15054.33
486.07	14806.23
486.25	14972.41
486.43	14951.34
486.61	15229.87
486.78	15286.04
486.96	15407.75
487.14	15538.82
487.32	15681.59
487.50	15894.58
487.68	16051.39
487.85	16018.63
488.03	16339.28
488.21	16636.53
488.39	16414.18
488.57	16505.46
488.75	16669.30
488.92	16755.90
489.10	16802.71
489.28	16872.92
489.46	17497.84
489.64	17390.18
489.81	17680.41
489.99	17708.49
490.17	17558.70
490.35	17935.53
490.53	17956.59
490.70	17975.31
490.88	18221.07
491.06	18295.97
491.24	18504.28
491.41	18368.52
491.59	18679.82
491.77	18647.05
491.95	18834.29
492.13	18991.11
492.30	18948.98
492.48	19192.39
492.66	19484.96
492.84	19304.74
493.01	19470.92
493.19	19510.71
493.37	19475.60
493.54	19672.20
493.72	20273.72
493.90	20032.65
494.08	20292.44
494.25	20294.79
494.43	20346.28
494.61	20875.24
494.79	20535.86
494.96	20886.94
495.14	21074.18
495.32	20847.15
495.49	21085.89
495.67	21263.77
495.85	21235.68
496.02	21523.57
496.20	21846.56
496.38	21811.45
496.55	22061.89
496.73	21902.73
496.91	22174.24
497.09	22146.15
497.26	22499.57
497.44	22345.09
497.62	22604.89
497.79	22735.96
497.97	22822.56
498.14	22913.84
498.32	22963.00
498.50	22993.42
498.67	23035.55
498.85	23143.22
499.03	23398.34
499.20	23410.04
499.38	23828.99
499.56	23449.83
499.73	23819.63
499.91	24065.39
500.08	24004.53
500.26	23726.01
500.44	24177.73
500.61	24114.54
500.79	23931.98
500.97	24699.67
501.14	24648.18
501.32	24634.14
501.49	24730.10
501.67	24582.65
501.84	24861.17
502.02	24570.94
502.20	24959.47
502.37	25167.78
502.55	25135.01
502.72	25186.50
502.90	24975.86
503.07	25252.04
503.25	25027.35
503.43	25654.61
503.60	25804.41
503.78	25996.33
503.95	25666.31
504.13	25921.43
504.30	26073.57
504.48	25930.80
504.65	26171.87
504.83	26099.31
505.01	26352.09
505.18	26202.30
505.36	26651.68
505.53	26340.39
505.71	26614.23
505.88	26813.18
506.06	26829.56
506.23	26829.56
506.41	27026.17
506.58	27136.17
506.76	26927.86
506.93	27349.16
507.11	27124.47
507.28	27321.07
507.46	27674.49
507.63	27358.52
507.81	27611.30
507.98	27618.32
508.16	27529.38
508.33	27601.94
508.50	28084.09
508.68	27875.78
508.85	27999.83
509.03	27819.61
509.20	28196.43
509.38	28254.95
509.55	28339.21
509.73	28215.16
509.90	28561.56
510.08	28709.01
510.25	28690.29
510.42	28914.98
510.60	28835.40
510.77	28772.21
510.95	28910.30
511.12	29067.11
511.30	29326.91
511.47	29525.86
511.64	29343.30
511.82	29500.11
511.99	29553.94
512.17	29614.80
512.34	29598.41
512.51	30267.81
512.69	30366.11
512.86	30000.99
513.04	30415.26
513.21	30426.96
513.38	30134.40
513.56	30593.14
513.73	30225.68
513.90	30373.13
514.08	30197.59
514.25	30726.55
514.43	30644.63
514.60	30642.29
514.77	30803.79
514.95	30717.19
515.12	30670.38
515.29	30623.57
515.47	31157.21
515.64	30733.57
515.81	30733.57
515.99	31246.15
516.16	31634.68
516.33	31395.95
516.51	31571.49
516.68	31150.19
516.85	31637.02
517.03	31765.75
517.20	31381.90
517.37	31931.93
517.54	31847.67
517.72	32048.96
517.89	31887.46
518.06	32123.85
518.24	31866.39
518.41	32182.37
518.58	32287.69
518.75	32095.77
518.93	31852.35
519.10	32556.85
519.27	32350.88
519.45	32498.34
519.62	32610.68
519.79	32776.86
519.96	32966.45
520.14	33088.15
520.31	32903.25
520.48	32978.15
520.65	33013.26
520.83	33333.91
521.00	33481.36
521.17	33247.31
521.34	33553.92
521.52	33825.42
521.69	33589.03
521.86	33464.98
522.03	33900.32
522.20	33762.23
522.38	33989.26
522.55	34316.93
522.72	34120.33
522.89	34314.59
523.07	34412.90
523.24	34433.96
523.41	34270.12
523.58	34483.11
523.75	34483.11
523.92	34410.56
524.10	34628.23
524.27	34787.38
524.44	34944.20
524.61	35115.06
524.78	34862.28
524.96	35175.91
525.13	34822.49
525.30	35522.31
525.47	34934.84
525.64	34700.78
525.81	35969.35
525.98	35524.65
526.16	34923.13
526.33	35629.98
526.50	35723.60
526.67	35063.57
526.84	35861.69
527.01	35147.82
527.18	35819.56
527.36	35754.02
527.53	35964.67
527.70	36299.37
527.87	35840.62
528.04	35962.33
528.21	35997.44
528.38	35779.77
528.55	36062.97
528.72	36107.44
528.89	36208.09
529.07	36266.60
529.24	35651.04
529.41	36617.68
529.58	36437.46
529.75	36229.15
529.92	36591.94
530.09	36357.88
530.26	36737.05
530.43	36825.99
530.60	36636.41
530.77	36304.05
530.94	36912.59
531.11	36554.49
531.28	36734.71
531.46	36737.05
531.63	37219.20
531.80	37043.66
531.97	37558.58
532.14	37380.70
532.31	37041.32
532.48	37687.31
532.65	37684.97
532.82	37530.49
532.99	38005.62
533.16	37228.56
533.33	37816.04
533.50	37848.80
533.67	37804.33
533.84	37605.39
534.01	37631.13
534.18	37549.21
534.35	38342.66
534.52	38092.22
534.69	38059.45
534.86	38326.27
535.03	38106.26
535.20	38632.88
535.37	37961.15
535.54	38136.69
535.71	38368.40
535.88	38534.58
536.05	38356.70
536.22	38752.25
536.38	38653.95
536.55	38380.10
536.72	38352.02
536.89	38560.33
537.06	39058.86
537.23	38682.03
537.40	38660.97
537.57	38794.38
537.74	39070.56
537.91	38693.74
538.08	39318.66
538.25	38642.24
538.42	39541.01
538.59	39381.85
538.75	39093.97
538.92	39267.17
539.09	39468.45
539.26	39342.06
539.43	39433.35
539.60	39587.82
539.77	39115.03
539.94	39690.80
540.11	39756.34
540.28	40198.70
540.44	39866.34
540.61	39374.83
540.78	39847.62
540.95	39821.87
541.12	39761.02
541.29	39468.45
541.46	40238.49
541.62	40245.51
541.79	40119.12
541.96	39452.07
542.13	39887.41
542.30	40205.72
542.47	40554.46
542.63	40259.55
542.80	40961.72
542.97	40327.43
543.14	40795.54
543.31	40849.37
543.48	40297.00
543.64	40870.43
543.81	41116.19
543.98	41045.97
544.15	41144.28
544.32	40933.63
544.48	41338.54
544.65	40858.73
544.82	41069.38
544.99	40938.31
545.16	40975.76
545.32	41064.70
545.49	41670.90
545.66	41750.48
545.83	41315.14
546.00	41654.51
546.16	41394.71
546.33	41331.52
546.50	40957.03
546.67	41687.28
546.83	40989.80
547.00	41390.03
547.17	41734.09
547.34	41689.62
547.50	42225.60
547.67	41874.52
547.84	42113.26
548.00	42143.69
548.17	42181.13
548.34	42078.15
548.51	41694.30
548.67	42087.51
548.84	41762.18
549.01	41731.75
549.18	42136.66
549.34	42497.11
549.51	41986.87
549.68	42178.79
549.84	42171.77
550.01	42249.01
550.18	42450.30
550.34	42527.53
550.51	42466.68
550.68	42539.24
550.84	42389.44
551.01	42719.46
551.18	42185.82
551.34	42604.77
551.51	42927.77
551.68	42773.29
551.84	42394.12
552.01	42335.61
552.18	42480.72
552.34	42433.91
552.51	42726.48
552.68	42810.74
552.84	42394.12
553.01	42639.88
553.18	42850.53
553.34	43082.24
553.51	42789.67
553.67	43189.91
553.84	43536.30
554.01	43180.54
554.17	43416.94
554.34	44027.82
554.51	43180.54
554.67	43098.62
554.84	43613.54
555.00	43346.72
555.17	43290.55
555.33	43491.83
555.50	43697.80
555.67	43655.67
555.83	43236.72
556.00	43571.41
556.16	43971.64
556.33	43782.06
556.50	43669.72
556.66	43552.69
556.83	43487.15
556.99	43861.64
557.16	44020.80
557.32	43859.30
557.49	43973.98
557.65	42885.64
557.82	43571.41
557.98	43758.66
558.15	43718.87
558.32	43966.96
558.48	43693.12
558.65	43711.84
558.81	44067.61
558.98	44177.61
559.14	44079.31
559.31	44034.84
559.47	44254.85
559.64	44552.10
559.80	44271.23
559.97	44968.71
560.13	43564.39
560.30	44114.42
560.46	44662.10
560.63	44505.29
560.79	44839.98
560.96	44676.15
561.12	44421.03
561.29	44460.82
561.45	44456.14
561.61	44404.64
561.78	44306.34
561.94	44495.92
562.11	44800.19
562.27	44720.62
562.44	44706.57
562.60	44584.86
562.77	45064.67
562.93	44662.10
563.10	44788.49
563.26	44327.41
563.42	45242.56
563.59	44610.61
563.75	44589.55
563.92	44601.25
564.08	44706.57
564.24	44931.26
564.41	44830.62
564.57	44626.99
564.74	44886.79
564.90	44545.08
565.07	44488.90
565.23	44849.35
565.39	44832.96
565.56	45045.95
565.72	44390.60
565.88	44821.26
566.05	45029.57
566.21	45289.37
566.38	44816.58
566.54	45406.39
566.70	44863.39
566.87	45076.38
567.03	44715.93
567.19	45385.33
567.36	44964.03
567.52	45099.78
567.68	45181.70
567.85	45200.43
568.01	45303.41
568.17	45181.70
568.34	44884.45
568.50	45483.63
568.66	44680.83
568.83	45216.81
568.99	45378.31
569.15	45298.73
569.32	45673.21
569.48	45322.13
569.64	45897.91
569.81	45397.03
569.97	45516.40
570.13	45406.39
570.30	45390.01
570.46	45352.56
570.62	45696.62
570.78	45591.30
570.95	45736.41
571.11	45867.48
571.27	45523.42
571.43	45579.59
571.60	45333.84
571.76	45439.16
571.92	45296.39
572.09	45598.32
572.25	45876.84
572.41	45497.67
572.57	45261.28
572.74	45921.31
572.90	45935.35
573.06	45490.65
573.22	45776.20
573.38	45745.77
573.55	45813.65
573.71	46230.26
573.87	45801.94
574.03	45460.23
574.20	46225.58
574.36	45492.99
574.52	45890.88
574.68	45504.70
574.84	45944.72
575.01	46019.61
575.17	45628.74
575.33	45813.65
575.49	46064.08
575.65	45820.67
575.82	45694.28
575.98	45867.48
576.14	45883.86
576.30	45844.07
576.46	45787.90
576.62	46218.56
576.79	45860.46
576.95	45155.96
577.11	45521.08
577.27	45755.13
577.43	45605.34
577.59	45652.15
577.75	45361.92
577.92	45322.13
578.08	46220.90
578.24	45799.60
578.40	45902.59
578.56	46150.68
578.72	46174.09
578.88	45883.86
579.04	45986.85
579.21	45542.14
579.37	45748.11
579.53	46124.94
579.69	46007.91
579.85	45710.66
580.01	45776.20
580.17	45780.88
580.33	46333.24
580.49	45776.20
580.65	45722.37
580.82	46028.98
580.98	45818.33
581.14	45631.08
581.30	46045.36
581.46	45649.81
581.62	45916.63
581.78	45914.29
581.94	46632.83
582.10	46000.89
582.26	46501.76
582.42	45895.56
582.58	46232.60
582.74	46227.92
582.90	46438.57
583.06	46223.24
583.22	45652.15
583.38	46171.75
583.54	46162.39
583.70	46314.52
583.86	46260.69
584.02	45984.51
584.18	46223.24
584.34	46363.67
584.50	46637.51
584.66	46274.73
584.82	46335.59
584.98	46623.47
585.14	46424.53
585.30	45982.16
585.46	46230.26
585.62	46288.77
585.78	46691.35
585.94	45975.14
586.10	45991.53
586.26	45645.13
586.42	46122.60
586.58	46621.13
586.74	45511.72
586.90	45785.56
587.06	46361.33
587.22	46333.24
587.38	46108.55
587.54	46230.26
587.70	47114.98
587.86	46410.48
588.02	46389.42
588.18	46412.82
588.34	46270.05
588.49	46160.05
588.65	46089.83
588.81	46473.68
588.97	46454.95
589.13	46579.00
589.29	46513.47
589.45	46513.47
589.61	46274.73
589.77	46190.47
589.93	46080.47
590.08	47105.62
590.24	47040.09
590.40	46539.21
590.56	47077.54
590.72	46429.21
590.88	46604.75
591.04	46115.58
591.20	46871.57
591.35	46539.21
591.51	47065.83
591.67	46906.68
591.83	46653.90
591.99	46677.30
592.15	46574.32
592.31	46887.95
592.46	46574.32
592.62	46628.15
592.78	46681.98
592.94	46972.21
593.10	47072.85
593.26	46948.81
593.41	46878.59
593.57	46932.42
593.73	46696.03
593.89	46871.57
594.05	46890.29
594.20	46639.86
594.36	47365.42
594.52	47009.66
594.68	46820.08
594.84	46962.85
594.99	47201.58
595.15	46993.28
595.31	46834.12
595.47	46923.06
595.62	46876.25
595.78	46876.25
595.94	46923.06
596.10	46492.40
596.25	47033.07
596.41	47019.02
596.57	46873.91
596.73	47026.04
596.88	47114.98
597.04	46848.16
597.20	47133.71
597.36	46817.74
597.51	47030.72
597.67	46969.87
597.83	46857.52
597.99	47332.65
598.14	46347.29
598.30	46703.05
598.46	46717.09
598.61	47398.19
598.77	47182.86
598.93	47232.01
599.09	46703.05
599.24	47426.28
599.40	46944.12
599.56	47065.83
599.71	47515.22
599.87	47473.09
600.03	47206.26
600.18	47512.88
600.34	47100.94
600.50	46791.99
600.65	47281.16
600.81	47388.83
600.97	47487.13
601.12	47096.26
601.28	47023.70
601.44	47103.28
601.59	47082.22
601.75	46918.38
601.91	47522.24
602.06	46827.10
602.22	47124.35
602.37	46681.98
602.53	46937.10
602.69	46958.17
602.84	46644.54
603.00	46986.25
603.16	47309.25
603.31	47222.65
603.47	47285.84
603.62	46841.14
603.78	47154.77
603.94	47613.52
604.09	47105.62
604.25	46843.48
604.40	47274.14
604.56	47196.90
604.71	47489.47
604.87	46595.38
605.03	47023.70
605.18	46937.10
605.34	47445.00
605.49	46714.75
605.65	47246.05
605.80	46726.46
605.96	46485.38
606.12	46932.42
606.27	46845.82
606.43	46712.41
606.58	47288.18
606.74	46836.46
606.89	46852.84
607.05	46993.28
607.20	47342.02
607.36	46784.97
607.51	46834.12
607.67	47393.51
607.82	47016.68
607.98	46508.79
608.13	46885.61
608.29	46309.84
608.44	46820.08
608.60	46756.88
608.75	46927.74
608.91	46775.61
609.06	46480.70
609.22	47131.37
609.37	46740.50
609.53	46763.90
609.68	47054.13
609.84	46651.56
609.99	46932.42
610.15	46979.23
610.30	47152.43
610.46	46632.83
610.61	47007.32
610.76	46611.77
610.92	46461.97
611.07	46604.75
611.23	46717.09
611.38	46930.08
611.54	46534.53
611.69	47206.26
611.84	47161.79
612.00	46660.92
612.15	46373.03
612.31	46850.50
612.46	46375.37
612.62	46834.12
612.77	46527.51
612.92	46848.16
613.08	46602.41
613.23	46656.24
613.39	46319.20
613.54	46206.86
613.69	46913.70
613.85	46382.40
614.00	46270.05
614.15	46408.14
614.31	46431.55
614.46	46478.36
614.62	46314.52
614.77	46691.35
614.92	46260.69
615.08	46211.54
615.23	46431.55
615.38	46791.99
615.54	46312.18
615.69	46415.16
615.84	46209.20
616.00	46263.03
616.15	46253.67
616.30	46476.02
616.46	46293.46
616.61	46351.97
616.76	46197.49
616.92	45624.06
617.07	46122.60
617.22	46181.11
617.37	45708.32
617.53	46492.40
617.68	45759.81
617.83	46291.12
617.99	46171.75
618.14	46124.94
618.29	45837.05
618.45	45694.28
618.60	46096.85
618.75	45801.94
618.90	45951.74
619.06	45914.29
619.21	45680.24
619.36	46337.93
619.51	45993.87
619.67	46005.57
619.82	45783.22
619.97	46047.70
620.12	45588.95
620.28	45865.14
620.43	46267.71
620.58	45961.10
620.73	45869.82
620.89	45813.65
621.04	45890.88
621.19	45516.40
621.34	45705.98
621.49	45549.17
621.65	45462.57
621.80	46113.23
621.95	45406.39
622.10	45830.03
622.25	45446.18
622.41	45448.52
622.56	45221.49
622.71	45130.21
622.86	45310.43
623.01	45333.84
623.16	45282.34
623.32	45518.74
623.47	45380.65
623.62	44882.11
623.77	45621.72
623.92	44999.14
624.07	45235.53
624.23	45553.85
624.38	45392.35
624.53	45223.83
624.68	44715.93
624.83	45420.44
624.98	44968.71
625.13	44877.43
625.29	45036.59
625.44	44751.04
625.59	45462.57
625.74	45280.00
625.89	44669.12
626.04	44835.30
626.19	44795.51
626.34	44940.63
626.49	44687.85
626.65	44685.51
626.80	44505.29
626.95	44531.03
627.10	44545.08
627.25	44615.29
627.40	44685.51
627.55	44722.96
627.70	44556.78
627.85	44617.63
628.00	44795.51
628.15	44907.86
628.30	44376.56
628.45	44589.55
628.60	44222.08
628.76	44257.19
628.91	44421.03
629.06	43564.39
629.21	44142.50
629.36	44133.14
629.51	44313.36
629.66	44626.99
629.81	44119.10
629.96	44531.03
630.11	44011.43
630.26	43585.46
630.41	44100.37
630.56	44107.40
630.71	44016.11
630.86	44067.61
631.01	43871.00
631.16	44402.30
631.31	43592.48
631.46	44229.10
631.61	44289.96
631.76	44292.30
631.91	44294.64
632.06	44631.68
632.21	44257.19
632.36	44432.73
632.51	43906.11
632.66	43662.69
632.81	43826.53
632.96	44079.31
633.10	43983.35
633.25	43943.56
633.40	43899.09
633.55	43679.08
633.70	43587.80
633.85	43896.75
634.00	44257.19
634.15	43519.92
634.30	43625.25
634.45	43473.11
634.60	43889.73
634.75	43730.57
634.90	43372.47
635.05	43833.55
635.19	43459.07
635.34	43185.22
635.49	43737.59
635.64	43430.98
635.79	43192.25
635.94	43239.06
636.09	43634.61
636.24	43519.92
636.39	43098.62
636.53	43330.34
636.68	43255.44
636.83	43098.62
636.98	43119.69
637.13	42611.79
637.28	42775.63
637.43	42934.79
637.57	43264.80
637.72	42873.93
637.87	42625.84
638.02	42880.95
638.17	42902.02
638.32	42756.91
638.46	42721.80
638.61	42429.23
638.76	43309.27
638.91	42700.73
639.06	42775.63
639.20	43098.62
639.35	42649.24
639.50	42710.10
639.65	42904.36
639.80	42796.70
639.94	42562.64
640.09	42202.20
640.24	42480.72
640.39	42576.69
640.54	42110.92
640.68	42265.39
640.83	42429.23
640.98	42274.76
641.13	42040.70
641.27	43061.18
641.42	42656.26
641.57	42405.83
641.72	42731.16
641.86	42632.86
642.01	41729.41
642.16	42092.19
642.31	41954.10
642.45	42876.27
642.60	42199.86
642.75	42045.38
642.90	42518.17
643.04	42050.06
643.19	42232.63
643.34	41603.02
643.48	42330.93
643.63	41855.80
643.78	41757.50
643.93	42440.93
644.07	42246.67
644.22	42349.65
644.37	41998.57
644.51	42258.37
644.66	41797.29
644.81	41986.87
644.95	41792.61
645.10	41820.69
645.25	41986.87
645.39	41598.34
645.54	41860.48
645.69	41450.89
645.83	41797.29
645.98	41464.93
646.13	41464.93
646.27	41567.91
646.42	41202.79
646.57	41092.79
646.71	41792.61
646.86	41626.43
647.00	41446.21
647.15	41633.45
647.30	41830.05
647.44	41404.08
647.59	41752.82
647.74	41373.65
647.88	41462.59
648.03	41490.68
648.17	41677.92
648.32	41715.37
648.47	41586.64
648.61	41137.26
648.76	41261.30
648.90	41160.66
649.05	41415.78
649.20	41031.93
649.34	40947.67
649.49	41165.34
649.63	41237.90
649.78	41118.53
649.92	40851.71
650.07	41216.83
650.21	40961.72
650.36	41490.68
650.51	40950.01
650.65	41497.70
650.80	41120.87
650.94	41317.48
651.09	40851.71
651.23	40783.83
651.38	40289.98
651.52	40467.86
651.67	40322.75
651.81	40699.58
651.96	40278.28
652.10	40556.80
652.25	40243.17
652.39	40329.77
652.54	41184.07
652.68	40601.27
652.83	40308.71
652.97	41038.95
653.12	40179.98
653.26	40247.85
653.41	40645.74
653.55	40549.78
653.70	40919.59
653.84	40634.04
653.99	40421.05
654.13	40203.38
654.27	40069.97
654.42	40332.11
654.56	40149.55
654.71	40509.99
654.85	40348.50
655.00	40662.13
655.14	40690.21
655.29	40315.73
655.43	40549.78
655.57	39814.85
655.72	39831.24
655.86	39988.05
656.01	40006.78
656.15	39732.93
656.30	39765.70
656.44	40526.38
656.58	39938.90
656.73	40142.53
656.87	39426.32
657.01	39604.20
657.16	39889.75
657.30	39690.80
657.45	39821.87
657.59	39423.98
657.73	39281.21
657.88	39819.53
658.02	40018.48
658.16	40184.66
658.31	40208.06
658.45	39658.04
658.60	39651.02
658.74	39798.47
658.88	39356.11
659.03	39246.10
659.17	39365.47
659.31	39159.50
659.46	39246.10
659.60	39618.25
659.74	38986.30
659.89	38721.82
660.03	38756.93
660.17	39466.11
660.32	39023.75
660.46	38789.70
660.60	38541.60
660.74	38871.62
660.89	38824.81
661.03	38457.34
661.17	38408.19
661.32	38829.49
661.46	38548.62
661.60	38508.83
661.74	38160.09
661.89	38038.39
662.03	38639.90
662.17	38279.46
662.31	37897.95
662.46	38525.22
662.60	38050.09
662.74	37661.56
662.88	38139.03
663.03	37481.34
663.17	37755.18
663.31	37373.67
663.45	37806.67
663.60	37722.41
663.74	38340.32
663.88	37801.99
664.02	37427.51
664.17	37958.81
664.31	37551.56
664.45	37518.79
664.59	37867.53
664.73	37408.78
664.88	37406.44
665.02	37160.69
665.16	37357.29
665.30	37177.07
665.44	37287.07
665.59	37174.73
665.73	37359.63
665.87	36833.01
666.01	37156.00
666.15	37088.13
666.29	36809.61
666.44	37092.81
666.58	36788.54
666.72	36336.82
666.86	36486.61
667.00	36428.10
667.14	36299.37
667.28	36697.26
667.43	36116.81
667.57	36769.82
667.71	36790.88
667.85	36823.65
667.99	36825.99
668.13	36254.90
668.27	35711.89
668.41	35915.52
668.56	35290.60
668.70	35779.77
668.84	35669.76
668.98	35477.84
669.12	35742.32
669.26	35641.68
669.40	35648.70
669.54	35777.43
669.68	35311.66
669.82	35323.36
669.96	35365.49
670.10	35189.95
670.25	35290.60
670.39	34703.12
670.53	34983.99
670.67	34686.74
670.81	35063.57
670.95	34869.30
671.09	34810.79
671.23	34621.20
671.37	34974.63
671.51	34583.76
671.65	34569.71
671.79	34799.08
671.93	34586.10
672.07	34579.07
672.21	34422.26
672.35	34389.49
672.49	34089.90
672.63	34087.56
672.77	34171.82
672.91	34075.86
673.05	33839.47
673.19	33947.13
673.33	33584.35
673.47	33495.41
673.61	33757.55
673.75	33249.65
673.89	33177.09
674.03	32999.21
674.17	33132.62
674.31	33001.55
674.45	32929.00
674.59	33319.87
674.73	32971.13
674.87	32816.65
675.01	32334.50
675.15	32292.37
675.29	32308.76
675.43	32318.12
675.56	32341.52
675.70	32524.08
675.84	32577.92
675.98	31459.14
676.12	32116.83
676.26	32652.81
676.40	31747.03
676.54	31917.89
676.68	31372.54
676.82	31414.67
676.96	31763.41
677.10	31613.62
677.23	31505.95
677.37	31510.63
677.51	31374.88
677.65	31213.38
677.79	30834.22
677.93	31047.21
678.07	30962.95
678.21	30691.44
678.34	30455.05
678.48	30410.58
678.62	30672.72
678.76	30213.98
678.90	30326.32
679.04	30338.02
679.18	30522.93
679.31	29802.04
679.45	30003.33
679.59	29937.79
679.73	30174.19
679.87	29724.80
680.00	29820.77
680.14	29598.41
680.28	29413.51
680.42	29467.34
680.56	29001.58
680.70	28769.86
680.83	29111.58
680.97	28662.20
681.11	28966.47
681.25	28774.55
681.39	28339.21
681.52	28636.45
681.66	28465.60
681.80	27938.97
681.94	28016.21
682.07	28070.04
682.21	28243.24
682.35	27718.96
682.49	27838.33
682.62	27740.03
682.76	27702.58
682.90	27859.40
683.04	27644.07
683.17	27426.40
683.31	27175.96
683.45	27316.39
683.59	26946.59
683.72	26541.68
683.86	26782.75
684.00	26930.20
684.13	26843.60
684.27	26611.89
684.41	26574.44
684.55	26529.97
684.68	26281.88
684.82	26167.19
684.96	25979.95
685.09	26263.15
685.23	26331.03
685.37	26312.30
685.50	26349.75
685.64	26059.52
685.78	25692.06
685.91	25352.68
686.05	25238.00
686.19	25111.61
686.32	25228.63
686.46	25041.39
686.60	24723.08
686.73	25404.17
686.87	24999.26
687.01	24821.38
687.14	24849.47
687.28	24769.89
687.42	24339.23
687.55	24346.25
687.69	24372.00
687.82	24102.84
687.96	23978.79
688.10	24226.89
688.23	24168.37
688.37	24065.39
688.50	24114.54
688.64	24044.32
688.78	23871.12
688.91	23681.54
689.05	23578.56
689.18	23040.23
689.32	23026.19
689.46	23094.07
689.59	23211.09
689.73	23040.23
689.86	23386.63
690.00	22710.22
690.13	22876.40
690.27	22813.20
690.41	22670.43
690.54	22415.31
690.68	22368.50
690.81	22438.72
690.95	22476.16
691.08	22043.17
691.22	21965.93
691.35	21837.20
691.49	22141.47
691.62	21900.39
691.76	21551.65
691.89	21401.86
692.03	21191.21
692.16	21041.42
692.30	21294.19
692.43	21343.35
692.57	20996.95
692.70	20788.64
692.84	20678.63
692.97	20767.57
693.11	20772.25
693.24	20348.62
693.38	20465.64
693.51	20388.41
693.65	20332.23
693.78	20152.01
693.92	20264.36
694.05	19892.21
694.19	20070.09
694.32	19819.66
694.45	19857.10
694.59	20182.44
694.72	19978.81
694.86	19999.88
694.99	19414.74
695.13	19454.53
695.26	19414.74
695.39	18801.52
695.53	19126.86
695.66	19241.54
695.80	19185.37
695.93	18853.02
696.07	18595.56
696.20	18597.90
696.33	18555.77
696.47	18452.78
696.60	18302.99
696.73	18705.56
696.87	18637.69
697.00	18366.18
697.14	18052.55
697.27	17729.56
697.40	17893.40
697.54	17862.97
697.67	17830.20
697.80	17823.18
697.94	17334.01
698.07	17518.91
698.21	17413.59
698.34	17425.29
698.47	17434.65
698.61	16994.63
698.74	16964.20
698.87	16938.46
699.01	16882.28
699.14	16929.09
699.27	16961.86
699.40	17039.10
699.54	16961.86
699.67	16470.35
699.80	16903.35
699.94	16477.37
700.07	16442.26
700.20	16177.78
700.34	16468.01
700.47	16395.45
700.60	16442.26
700.73	16217.57
700.87	16009.26
701.00	15632.44
701.13	15623.08
701.26	15768.19
701.40	15866.49
701.53	15845.43
701.66	15410.09
701.79	15520.09
701.93	15307.10
702.06	15169.01
702.19	15122.20
702.32	15171.35
702.46	15042.62
702.59	15166.67
702.72	15070.71
702.85	15208.80
702.99	14892.83
703.12	14494.94
703.25	14457.49
703.38	14537.07
703.51	14675.16
703.65	14331.10
703.78	14382.59
703.91	13774.05
704.04	14160.24
704.17	14068.96
704.31	13933.21
704.44	13877.04
704.57	14005.77
704.70	13650.00
704.83	13888.74
704.96	13488.51
705.10	13547.02
705.23	13544.68
>>>>>End Processed Spectral Data<<<<<
