SpectraSuite Data File
++++++++++++++++++++++++++++++++++++
Date: Fri Oct 25 11:33:18 EDT 2013
User: price-jones
Dark Spectrum Present: No
Reference Spectrum Present: No
Number of Sampled Component Spectra: 1
Spectrometers: USB2+H05261
Integration Time (usec): 100000 (USB2+H05261)
Spectra Averaged: 1 (USB2+H05261)
Boxcar Smoothing: 0 (USB2+H05261)
Correct for Electrical Dark: No (USB2+H05261)
Strobe/Lamp Enabled: No (USB2+H05261)
Correct for Detector Non-linearity: No (USB2+H05261)
Correct for Stray Light: No (USB2+H05261)
Number of Pixels in Processed Spectrum: 2048
>>>>>Begin Processed Spectral Data<<<<<
365.73	248.10
365.92	248.10
366.12	248.10
366.32	220.01
366.52	138.09
366.72	145.11
366.91	170.86
367.11	182.56
367.31	177.88
367.51	149.79
367.70	173.20
367.90	142.77
368.10	152.13
368.30	135.75
368.49	138.09
368.69	208.31
368.89	212.99
369.09	112.35
369.28	264.48
369.48	154.48
369.68	191.92
369.87	271.50
370.07	262.14
370.27	269.16
370.47	292.57
370.66	505.56
370.86	517.26
371.06	587.47
371.25	587.47
371.45	568.75
371.65	582.79
371.84	573.43
372.04	568.75
372.24	571.09
372.44	634.29
372.63	603.86
372.83	636.63
373.03	582.79
373.22	543.00
373.42	655.35
373.62	631.94
373.81	599.18
374.01	704.50
374.21	706.84
374.40	634.29
374.60	706.84
374.79	671.73
374.99	669.39
375.19	732.59
375.38	688.12
375.58	587.47
375.78	716.20
375.97	674.07
376.17	697.48
376.37	720.88
376.56	692.80
376.76	624.92
376.95	606.20
377.15	732.59
377.35	697.48
377.54	734.93
377.74	709.18
377.93	711.52
378.13	711.52
378.33	767.70
378.52	727.91
378.72	753.65
378.91	770.04
379.11	641.31
379.31	734.93
379.50	688.12
379.70	683.44
379.89	737.27
380.09	692.80
380.28	751.31
380.48	732.59
380.68	688.12
380.87	699.82
381.07	702.16
381.26	802.80
381.46	730.25
381.65	716.20
381.85	781.74
382.04	774.72
382.24	809.83
382.43	786.42
382.63	767.70
382.83	833.23
383.02	763.01
383.22	842.59
383.41	847.27
383.61	805.14
383.80	926.85
384.00	837.91
384.19	866.00
384.39	884.72
384.58	821.53
384.78	851.96
384.97	835.57
385.17	826.21
385.36	866.00
385.56	915.15
385.75	875.36
385.95	858.98
386.14	887.06
386.34	875.36
386.53	866.00
386.72	896.43
386.92	924.51
387.11	884.72
387.31	952.60
387.50	903.45
387.70	894.08
387.89	905.79
388.09	945.58
388.28	826.21
388.48	861.32
388.67	915.15
388.86	912.81
389.06	980.68
389.25	952.60
389.45	940.90
389.64	931.53
389.84	1057.92
390.03	1064.94
390.22	968.98
390.42	971.32
390.61	903.45
390.81	985.37
391.00	1025.15
391.19	931.53
391.39	1018.13
391.58	1043.88
391.78	1027.50
391.97	1043.88
392.16	987.71
392.36	992.39
392.55	1116.44
392.75	1088.35
392.94	1130.48
393.13	1153.88
393.33	1048.56
393.52	1135.16
393.71	1071.97
393.91	1153.88
394.10	1102.39
394.29	1036.86
394.49	1097.71
394.68	1132.82
394.88	1165.59
395.07	1170.27
395.26	1170.27
395.46	1146.86
395.65	1284.95
395.84	1170.27
396.04	1306.02
396.23	1146.86
396.42	1184.31
396.62	1277.93
396.81	1219.42
397.00	1203.04
397.19	1203.04
397.39	1259.21
397.58	1263.89
397.77	1299.00
397.97	1172.61
398.16	1149.20
398.35	1294.32
398.55	1280.27
398.74	1296.66
398.93	1390.28
399.12	1322.40
399.32	1322.40
399.51	1245.16
399.70	1315.38
399.90	1322.40
400.09	1409.00
400.28	1366.87
400.47	1430.07
400.67	1394.96
400.86	1366.87
401.05	1425.39
401.24	1547.09
401.44	1488.58
401.63	1394.96
401.82	1462.83
402.01	1561.14
402.21	1472.20
402.40	1554.12
402.59	1502.62
402.78	1561.14
402.97	1511.99
403.17	1547.09
403.36	1530.71
403.55	1593.90
403.74	1561.14
403.93	1612.63
404.13	1596.25
404.32	1640.72
404.51	1689.87
404.70	1706.25
404.89	1645.40
405.09	1785.83
405.28	1724.97
405.47	1750.72
405.66	1708.59
405.85	1746.04
406.05	1790.51
406.24	1732.00
406.43	1673.48
406.62	1790.51
406.81	1818.60
407.00	1790.51
407.20	1867.75
407.39	1830.30
407.58	1872.43
407.77	1963.71
407.96	1820.94
408.15	1919.24
408.34	2017.54
408.54	1923.92
408.73	1926.26
408.92	2073.71
409.11	2017.54
409.30	2059.67
409.49	2062.01
409.68	2097.12
409.87	2001.16
410.07	2200.10
410.26	2033.93
410.45	2010.52
410.64	1984.77
410.83	2073.71
411.02	2157.97
411.21	2354.58
411.40	2181.38
411.59	2193.08
411.78	2286.70
411.98	2141.59
412.17	2216.49
412.36	2237.55
412.55	2305.43
412.74	2249.25
412.93	2394.37
413.12	2333.51
413.31	2459.90
413.50	2317.13
413.69	2368.62
413.88	2441.18
414.07	2438.84
414.26	2600.34
414.45	2555.86
414.64	2567.57
414.83	2572.25
415.02	2644.81
415.22	2651.83
415.41	2752.47
415.60	2633.10
415.79	2668.21
415.98	2750.13
416.17	2719.70
416.36	2778.22
416.55	2897.58
416.74	2801.62
416.93	2806.30
417.12	2752.47
417.31	2832.05
417.50	2799.28
417.69	3049.72
417.88	3019.29
418.07	2951.42
418.26	3042.70
418.45	2998.23
418.64	3066.10
418.83	3108.23
419.02	3126.96
419.21	3063.76
419.39	3150.36
419.58	3077.80
419.77	3098.87
419.96	3183.13
420.15	3267.39
420.34	3206.53
420.53	3194.83
420.72	3323.56
420.91	3325.90
421.10	3295.47
421.29	3468.67
421.48	3215.90
421.67	3241.64
421.86	3353.99
422.05	3356.33
422.24	3281.43
422.43	3353.99
422.61	3400.80
422.80	3496.76
422.99	3417.18
423.18	3428.88
423.37	3506.12
423.56	3475.70
423.75	3527.19
423.94	3372.71
424.13	3229.94
424.32	3332.92
424.50	3527.19
424.69	3513.14
424.88	3478.04
425.07	3461.65
425.26	3503.78
425.45	3424.20
425.64	3478.04
425.83	3543.57
426.01	3517.83
426.20	3562.30
426.39	3513.14
426.58	3545.91
426.77	3534.21
426.96	3604.42
427.15	3592.72
427.33	3623.15
427.52	3557.61
427.71	3564.64
427.90	3630.17
428.09	3618.47
428.28	3550.59
428.46	3735.50
428.65	3712.09
428.84	3918.06
429.03	3976.57
429.22	3721.45
429.40	3744.86
429.59	3805.71
429.78	3669.96
429.97	3733.15
430.16	3782.31
430.34	3868.91
430.53	3899.33
430.72	3999.98
430.91	4018.70
431.10	3936.78
431.28	4023.38
431.47	3880.61
431.66	4042.11
431.85	3957.85
432.03	4018.70
432.22	4135.73
432.41	4093.60
432.60	4065.51
432.79	4065.51
432.97	4203.60
433.16	4100.62
433.35	4138.07
433.54	4248.07
433.72	4269.14
433.91	4271.48
434.10	4224.67
434.28	4175.52
434.47	4236.37
434.66	4315.95
434.85	4411.91
435.03	4388.50
435.22	4306.59
435.41	4498.51
435.59	4423.61
435.78	4479.79
435.97	4411.91
436.16	4517.23
436.34	4318.29
436.53	4512.55
436.72	4479.79
436.90	4514.89
437.09	4662.35
437.28	4411.91
437.46	4484.47
437.65	4418.93
437.84	4638.94
438.02	4615.54
438.21	4652.98
438.40	4514.89
438.58	4751.29
438.77	4840.23
438.96	4842.57
439.14	4868.31
439.33	4842.57
439.52	5013.43
439.70	4854.27
439.89	4896.40
440.08	5093.01
440.26	5011.09
440.45	4891.72
440.63	5064.92
440.82	5317.70
441.01	5217.05
441.19	5188.97
441.38	5338.76
441.57	5317.70
441.75	5305.99
441.94	5462.81
442.12	5537.71
442.31	5528.35
442.50	5483.88
442.68	5301.31
442.87	5596.22
443.05	5556.43
443.24	5682.82
443.43	5408.98
443.61	5387.91
443.80	5708.57
443.98	5481.53
444.17	5362.17
444.35	5589.20
444.54	5710.91
444.73	5603.24
444.91	5720.27
445.10	5664.10
445.28	5708.57
445.47	5710.91
445.65	5692.18
445.84	5832.62
446.02	5694.52
446.21	5916.87
446.39	5748.36
446.58	5902.83
446.77	5839.64
446.95	5570.48
447.14	5767.08
447.32	5884.11
447.51	5813.89
447.69	5816.23
447.88	5755.38
448.06	5888.79
448.25	5755.38
448.43	5905.17
448.62	6108.80
448.80	5996.45
448.99	5916.87
449.17	6010.50
449.36	5790.49
449.54	6148.59
449.73	6209.44
449.91	5977.73
450.10	6113.48
450.28	6211.78
450.46	6200.08
450.65	6064.33
450.83	6029.22
451.02	6099.44
451.20	6179.01
451.39	6069.01
451.57	6324.13
451.76	6143.91
451.94	6134.54
452.13	6544.14
452.31	6382.64
452.49	6483.28
452.68	6502.01
452.86	6534.78
453.05	6403.71
453.23	6469.24
453.42	6251.57
453.60	6483.28
453.78	6490.31
453.97	6375.62
454.15	6401.37
454.34	6384.98
454.52	6562.86
454.70	6478.60
454.89	6640.10
455.07	6731.38
455.26	6677.55
455.44	6766.49
455.62	6754.79
455.81	6703.29
455.99	6794.58
456.17	6885.86
456.36	6743.08
456.54	6899.90
456.73	7002.88
456.91	6953.73
457.09	7012.24
457.28	7138.63
457.46	6998.20
457.64	7215.87
457.83	7115.23
458.01	7236.94
458.19	7297.79
458.38	7398.43
458.56	7330.56
458.74	7213.53
458.93	7234.60
459.11	7295.45
459.29	7379.71
459.48	7559.93
459.66	7204.17
459.84	7435.88
460.03	7438.22
460.21	7417.16
460.39	7569.29
460.57	7360.98
460.76	7452.27
460.94	7576.31
461.12	7573.97
461.31	7644.19
461.49	7658.23
461.67	7541.21
461.85	7812.71
462.04	7714.41
462.22	8058.46
462.40	7929.74
462.59	7854.84
462.77	7723.77
462.95	7915.69
463.13	7861.86
463.32	7894.63
463.50	7990.59
463.68	7962.50
463.86	7978.89
464.05	7812.71
464.23	7875.90
464.41	7960.16
464.59	7969.52
464.78	8224.64
464.96	8194.22
465.14	7971.86
465.32	8297.20
465.50	8271.45
465.69	8271.45
465.87	8086.55
466.05	8161.45
466.23	8170.81
466.41	8290.18
466.60	8311.24
466.78	8269.11
466.96	7985.91
467.14	8161.45
467.32	8493.80
467.51	8402.52
467.69	8346.35
467.87	8418.91
468.05	8461.04
468.23	8407.20
468.41	8332.31
468.60	8461.04
468.78	8463.38
468.96	8388.48
469.14	8730.20
469.32	8744.24
469.50	8365.07
469.69	8711.47
469.87	8889.35
470.05	8709.13
470.23	8884.67
470.41	8854.25
470.59	8819.14
470.77	8936.17
470.95	8887.01
471.14	8943.19
471.32	8809.78
471.50	9273.20
471.68	9324.69
471.86	9067.24
472.04	9165.54
472.22	9437.04
472.40	9097.66
472.58	9254.48
472.77	9263.84
472.95	9453.42
473.13	9753.01
473.31	9533.00
473.49	9502.58
473.67	9441.72
473.85	9650.03
474.03	9893.44
474.21	9699.18
474.39	9966.00
474.57	9886.42
474.75	9970.68
474.93	9916.85
475.12	9841.95
475.30	10291.34
475.48	10155.58
475.66	10375.59
475.84	10162.61
476.02	10391.98
476.20	10277.29
476.38	10602.63
476.56	10380.28
476.74	10672.84
476.92	10747.74
477.10	10616.67
477.28	10911.58
477.46	10899.87
477.64	11042.65
477.82	11056.69
478.00	11386.71
478.18	11056.69
478.36	11309.47
478.54	11646.51
478.72	11506.07
478.90	11665.23
479.08	11578.63
479.26	11676.93
479.44	11698.00
479.62	11868.86
479.80	11854.81
479.98	12311.22
480.16	12496.12
480.34	12196.53
480.52	12606.13
480.70	12545.27
480.88	12299.52
481.06	12407.18
481.24	12477.40
481.41	12950.18
481.59	13001.68
481.77	12912.74
481.95	12847.20
482.13	13144.45
482.31	13092.96
482.49	13640.64
482.67	13628.94
482.85	13542.34
483.03	13645.32
483.21	13755.33
483.39	13809.16
483.57	13572.77
483.74	14064.28
483.92	14026.83
484.10	13930.87
484.28	14569.83
484.46	14672.82
484.64	14934.96
484.82	14794.53
485.00	14820.27
485.18	15054.33
485.35	15201.78
485.53	15115.18
485.71	15286.04
485.89	15845.43
486.07	15487.32
486.25	15477.96
486.43	15651.16
486.61	15735.42
486.78	16051.39
486.96	15906.28
487.14	16123.95
487.32	16222.25
487.50	16545.25
487.68	16482.05
487.85	16800.37
488.03	17329.33
488.21	16959.52
488.39	16987.61
488.57	17179.53
488.75	17621.89
488.92	17818.50
489.10	17816.16
489.28	17806.80
489.46	18036.17
489.64	17886.37
489.81	18178.94
489.99	18401.29
490.17	18534.70
490.35	18689.18
490.53	18869.40
490.70	18883.44
490.88	18188.30
491.06	19028.56
491.24	19066.00
491.41	19358.57
491.59	19286.01
491.77	19475.60
491.95	19838.38
492.13	19805.61
492.30	19861.79
492.48	20212.87
492.66	20425.86
492.84	20163.72
493.01	20266.70
493.19	20386.07
493.37	20652.89
493.54	20418.83
493.72	21219.30
493.90	20900.98
494.08	21046.10
494.25	21085.89
494.43	21238.02
494.61	21308.24
494.79	21797.41
494.96	21687.40
495.14	21701.45
495.32	21860.60
495.49	21656.98
495.67	22080.61
495.85	22356.80
496.02	22663.41
496.20	22431.69
496.38	22735.96
496.55	22785.12
496.73	23005.13
496.91	23192.37
497.09	23330.46
497.26	23159.60
497.44	23323.44
497.62	23316.42
497.79	23697.92
497.97	23374.93
498.14	23896.87
498.32	24189.44
498.50	23747.08
498.67	24175.39
498.85	24196.46
499.03	24486.68
499.20	24479.66
499.38	24655.20
499.56	24676.27
499.73	24577.97
499.91	24692.65
500.08	24896.28
500.26	24856.49
500.44	25111.61
500.61	25181.82
500.79	25216.93
500.97	25123.31
501.14	25827.81
501.32	25570.35
501.49	25584.40
501.67	26148.46
501.84	25811.43
502.02	25902.71
502.20	25666.31
502.37	25851.22
502.55	25895.69
502.72	26136.76
502.90	26146.12
503.07	26061.87
503.25	26249.11
503.43	26127.40
503.60	26520.61
503.78	26897.44
503.95	26876.37
504.13	27178.30
504.30	26820.20
504.48	26740.62
504.65	27520.02
504.83	27386.61
505.01	27587.89
505.18	27431.08
505.36	27831.31
505.53	27587.89
505.71	28013.87
505.88	27967.06
506.06	27868.76
506.23	28091.11
506.41	27728.33
506.58	27716.62
506.76	27620.66
506.93	28552.20
507.11	28058.34
507.28	28589.64
507.46	28168.35
507.63	28793.27
507.81	28713.69
507.98	28606.03
508.16	28760.50
508.33	28849.44
508.50	28924.34
508.68	29001.58
508.85	29453.30
509.03	29134.99
509.20	29394.79
509.38	29479.05
509.55	29525.86
509.73	29673.31
509.90	29914.39
510.08	29649.91
510.25	29551.60
510.42	29633.52
510.60	30221.00
510.77	30520.59
510.95	30546.33
511.12	29844.17
511.30	30178.87
511.47	30796.77
511.64	30426.96
511.82	30682.08
511.99	30536.97
512.17	30731.23
512.34	31129.12
512.51	31122.10
512.69	31374.88
512.86	31398.29
513.04	31442.76
513.21	31527.02
513.38	31707.24
513.56	31697.88
513.73	31208.70
513.90	31562.12
514.08	31583.19
514.25	32006.83
514.43	31775.11
514.60	31758.73
514.77	31817.24
514.95	32191.73
515.12	32435.14
515.29	31742.35
515.47	32362.59
515.64	32474.93
515.81	31835.97
515.99	32517.06
516.16	32753.46
516.33	32467.91
516.51	32655.15
516.68	32711.33
516.85	33174.75
517.03	32758.14
517.20	33179.43
517.37	33251.99
517.54	33102.20
517.72	33223.90
517.89	33233.27
518.06	33359.66
518.24	33261.35
518.41	33165.39
518.58	33464.98
518.75	32879.85
518.93	33780.95
519.10	33689.67
519.27	33787.97
519.45	33996.28
519.62	33909.68
519.79	34073.52
519.96	34127.35
520.14	34370.77
520.31	33708.40
520.48	34377.79
520.65	34153.10
520.83	34651.63
521.00	34859.94
521.17	34660.99
521.34	34726.53
521.52	34906.75
521.69	34899.73
521.86	34927.81
522.03	34871.64
522.20	35433.37
522.38	35206.34
522.55	35861.69
522.72	34799.08
522.89	35672.10
523.07	35747.00
523.24	35306.98
523.41	35573.80
523.58	35442.73
523.75	35695.51
523.92	35601.89
524.10	36002.12
524.27	36240.86
524.44	36067.66
524.61	36275.96
524.78	36547.47
524.96	36264.26
525.13	36610.66
525.30	36917.27
525.47	36627.04
525.64	36245.54
525.81	36210.43
525.98	36339.16
526.16	36524.06
526.33	36613.00
526.50	36987.49
526.67	36664.49
526.84	36704.28
527.01	37074.09
527.18	36935.99
527.36	36980.46
527.53	37418.14
527.70	37095.15
527.87	37563.26
528.04	37471.98
528.21	37177.07
528.38	37958.81
528.55	37909.66
528.72	37345.59
528.89	37794.97
529.07	37584.32
529.24	37436.87
529.41	38225.63
529.58	37205.16
529.75	38005.62
529.92	38209.25
530.09	37940.08
530.26	38473.73
530.43	38232.65
530.60	38190.52
530.77	37883.91
530.94	38412.87
531.11	37912.00
531.28	38181.16
531.46	38721.82
531.63	38852.89
531.80	38064.13
531.97	38529.90
532.14	38731.18
532.31	38422.23
532.48	38836.51
532.65	39239.08
532.82	39091.63
532.99	39026.09
533.16	38988.64
533.33	39349.09
533.50	39086.95
533.67	39288.23
533.84	38892.68
534.01	39487.18
534.18	39070.56
534.35	39526.97
534.52	39524.63
534.69	39524.63
534.86	40023.16
535.03	39318.66
535.20	40027.84
535.37	39882.73
535.54	39964.65
535.71	40109.76
535.88	40198.70
536.05	39964.65
536.22	40280.62
536.38	39800.81
536.55	40072.31
536.72	40034.86
536.89	39978.69
537.06	40172.96
537.23	40664.47
537.40	40385.94
537.57	40151.89
537.74	40376.58
537.91	40540.42
538.08	40521.69
538.25	40093.38
538.42	40992.14
538.59	40837.67
538.75	40217.43
538.92	40889.16
539.09	41024.91
539.26	40542.76
539.43	40687.87
539.60	40643.40
539.77	41064.70
539.94	41038.95
540.11	41139.60
540.28	41509.40
540.44	41446.21
540.61	41549.19
540.78	41099.81
540.95	41682.60
541.12	41001.50
541.29	41258.96
541.46	41542.17
541.62	41371.31
541.79	41507.06
541.96	41394.71
542.13	41813.67
542.30	41647.49
542.47	42223.26
542.63	41727.07
542.80	42185.82
542.97	42511.15
543.14	42239.65
543.31	42239.65
543.48	42312.20
543.64	42866.91
543.81	42447.96
543.98	43063.52
544.15	42525.19
544.32	42473.70
544.48	42913.72
544.65	42604.77
544.82	42574.34
544.99	42450.30
545.16	43124.37
545.32	42653.92
545.49	43152.46
545.66	43550.35
545.83	43313.95
546.00	42918.40
546.16	42904.36
546.33	42934.79
546.50	42969.90
546.67	42981.60
546.83	42494.77
547.00	43098.62
547.17	43070.54
547.34	42909.04
547.50	43491.83
547.67	43927.17
547.84	43325.66
548.00	43332.68
548.17	43540.99
548.34	43512.90
548.51	43407.58
548.67	43578.43
548.84	43325.66
549.01	43311.61
549.18	43599.50
549.34	44102.71
549.51	44083.99
549.68	44083.99
549.84	44018.46
550.01	43831.21
550.18	43718.87
550.34	44264.21
550.51	44266.55
550.68	44072.29
550.84	43805.47
551.01	44479.54
551.18	44245.49
551.34	44678.49
551.51	44381.24
551.68	44254.85
551.84	44371.88
552.01	44060.58
552.18	44367.20
552.34	44032.50
552.51	44495.92
552.68	44231.44
552.84	44737.00
553.01	44725.30
553.18	44498.26
553.34	44940.63
553.51	44313.36
553.67	44849.35
553.84	44680.83
554.01	44538.05
554.17	44591.89
554.34	45258.94
554.51	44575.50
554.67	45354.90
554.84	44870.41
555.00	45024.89
555.17	44839.98
555.33	45090.42
555.50	45090.42
555.67	45382.99
555.83	45062.33
556.00	45345.54
556.16	45624.06
556.33	45495.33
556.50	45270.64
556.66	45673.21
556.83	45207.45
556.99	45460.23
557.16	45490.65
557.32	45563.21
557.49	45916.63
557.65	45181.70
557.82	45385.33
557.98	45511.72
558.15	45698.96
558.32	46106.21
558.48	45394.69
558.65	45621.72
558.81	45776.20
558.98	45745.77
559.14	45420.44
559.31	45855.78
559.47	45610.02
559.64	46057.06
559.80	45818.33
559.97	45729.39
560.13	45902.59
560.30	46174.09
560.46	45918.97
560.63	46153.02
560.79	46309.84
560.96	46485.38
561.12	46195.15
561.29	46260.69
561.45	46691.35
561.61	46209.20
561.78	46162.39
561.94	46045.36
562.11	46066.42
562.27	46256.01
562.44	46071.10
562.60	46291.12
562.77	46120.26
562.93	46408.14
563.10	46419.84
563.26	46398.78
563.42	47040.09
563.59	46150.68
563.75	46541.55
563.92	46347.29
564.08	45982.16
564.24	46321.54
564.41	46679.64
564.57	46600.07
564.74	46951.15
564.90	46272.39
565.07	46017.27
565.23	46447.93
565.39	46248.99
565.56	46770.93
565.72	46248.99
565.88	46684.33
566.05	46740.50
566.21	46293.46
566.38	46529.85
566.54	46958.17
566.70	46665.60
566.87	47084.56
567.03	46436.23
567.19	46693.69
567.36	46389.42
567.52	46806.03
567.68	47138.39
567.85	46962.85
568.01	47290.52
568.17	46747.52
568.34	47365.42
568.50	46883.27
568.66	47075.19
568.83	46773.27
568.99	46967.53
569.15	47030.72
569.32	47065.83
569.48	46703.05
569.64	47260.10
569.81	47112.64
569.97	46754.54
570.13	47220.31
570.30	46873.91
570.46	47250.74
570.62	46983.91
570.78	47168.82
570.95	47365.42
571.11	47594.79
571.27	46677.30
571.43	46787.31
571.60	47222.65
571.76	46906.68
571.92	47288.18
572.09	47093.92
572.25	47072.85
572.41	46724.11
572.57	47334.99
572.74	47555.00
572.90	47330.31
573.06	47311.59
573.22	47653.31
573.38	47243.71
573.55	47285.84
573.71	47487.13
573.87	47145.41
574.03	47337.33
574.20	47742.25
574.36	47566.71
574.52	47583.09
574.68	47599.47
574.84	47292.86
575.01	47585.43
575.17	47430.96
575.33	47796.08
575.49	47482.45
575.65	47643.94
575.82	47243.71
575.98	47388.83
576.14	47257.76
576.30	47608.84
576.46	47250.74
576.62	47309.25
576.79	47665.01
576.95	47030.72
577.11	47051.79
577.27	47503.51
577.43	47562.03
577.59	47091.58
577.75	47274.14
577.92	47096.26
578.08	47501.17
578.24	47430.96
578.40	47826.51
578.56	47395.85
578.72	47779.70
578.88	47648.63
579.04	47667.35
579.21	47517.56
579.37	47648.63
579.53	48020.77
579.69	47192.22
579.85	47653.31
580.01	47613.52
580.17	47702.46
580.33	47793.74
580.49	47337.33
580.65	47765.65
580.82	47377.12
580.98	47657.99
581.14	47299.89
581.30	47501.17
581.46	47767.99
581.62	47456.70
581.78	47360.74
581.94	47742.25
582.10	47772.67
582.26	47728.20
582.42	47751.61
582.58	47931.83
582.74	47756.29
582.90	47311.59
583.06	47657.99
583.22	47688.42
583.38	47775.02
583.54	47992.68
583.70	47826.51
583.86	48332.06
584.02	47327.97
584.18	47957.58
584.34	47517.56
584.50	47892.04
584.66	47674.37
584.82	47859.27
584.98	47789.06
585.14	48107.37
585.30	47545.64
585.46	47978.64
585.62	47800.76
585.78	48250.14
585.94	47498.83
586.10	47243.71
586.26	47456.70
586.42	47852.25
586.58	48137.80
586.74	47718.84
586.90	47384.15
587.06	47702.46
587.22	47480.11
587.38	47842.89
587.54	48182.27
587.70	48032.47
587.86	47906.08
588.02	47845.23
588.18	47585.43
588.34	47636.92
588.49	48215.04
588.65	48079.28
588.81	48217.38
588.97	47875.66
589.13	48229.08
589.29	47634.58
589.45	48339.08
589.61	48121.41
589.77	48060.56
589.93	47847.57
590.08	47995.03
590.24	48758.04
590.40	48711.23
590.56	48444.41
590.72	47948.21
590.88	48378.87
591.04	47997.37
591.20	48142.48
591.35	48355.47
591.51	48610.59
591.67	48327.38
591.83	48633.99
591.99	48552.07
592.15	48217.38
592.31	48311.00
592.46	47906.08
592.62	48055.88
592.78	48591.86
592.94	48739.32
593.10	48603.56
593.26	48683.14
593.41	48804.85
593.57	48453.77
593.73	48949.96
593.89	48706.55
594.05	48762.72
594.20	48662.08
594.36	48931.24
594.52	48751.02
594.68	48559.09
594.84	48507.60
594.99	48701.87
595.15	48327.38
595.31	48917.20
595.47	48425.68
595.62	48556.75
595.78	48177.59
595.94	48596.54
596.10	48416.32
596.25	48467.81
596.41	48577.82
596.57	48577.82
596.73	48802.51
596.88	48439.73
597.04	48636.33
597.20	48804.85
597.36	48240.78
597.51	48807.19
597.67	48275.89
597.83	48694.85
597.99	48739.32
598.14	48479.52
598.30	48395.26
598.46	48575.48
598.61	49074.01
598.77	48545.05
598.93	48790.81
599.09	48619.95
599.24	49165.29
599.40	48879.75
599.56	48493.56
599.71	48973.37
599.87	49476.58
600.03	49041.24
600.18	48727.61
600.34	48470.15
600.50	48631.65
600.65	48315.68
600.81	48928.90
600.97	48823.58
601.12	48987.41
601.28	48416.32
601.44	48573.14
601.59	49261.26
601.75	48498.24
601.91	48856.34
602.06	48898.47
602.22	48720.59
602.37	48818.89
602.53	48882.09
602.69	48938.26
602.84	48940.60
603.00	48577.82
603.16	48498.24
603.31	48774.42
603.47	49003.80
603.62	48870.39
603.78	48987.41
603.94	48811.87
604.09	49038.90
604.25	48456.11
604.40	48624.63
604.56	48837.62
604.71	49364.24
604.87	48687.82
605.03	48500.58
605.18	48722.93
605.34	49088.06
605.49	48437.39
605.65	48856.34
605.80	48095.67
605.96	48477.18
606.12	48516.96
606.27	48793.15
606.43	48509.94
606.58	48811.87
606.74	48397.60
606.89	48706.55
607.05	48603.56
607.20	48928.90
607.36	48507.60
607.51	48701.87
607.67	48528.67
607.82	48247.80
607.98	48477.18
608.13	48687.82
608.29	48182.27
608.44	48839.96
608.60	48521.65
608.75	48507.60
608.91	48329.72
609.06	48133.12
609.22	48549.73
609.37	48580.16
609.53	48320.36
609.68	48463.13
609.84	48261.85
609.99	48854.00
610.15	48582.50
610.30	48610.59
610.46	48547.39
610.61	48573.14
610.76	48781.45
610.92	47927.15
611.07	48474.84
611.23	48282.91
611.38	48425.68
611.54	48217.38
611.69	48549.73
611.84	48402.28
612.00	48383.55
612.15	47810.12
612.31	48570.80
612.46	48023.11
612.62	48355.47
612.77	48692.50
612.92	48633.99
613.08	48009.07
613.23	48437.39
613.39	47999.71
613.54	48123.75
613.69	48208.01
613.85	48004.39
614.00	47842.89
614.15	48463.13
614.31	48395.26
614.46	47835.87
614.62	47915.45
614.77	48041.84
614.92	48065.24
615.08	48301.64
615.23	48252.48
615.38	47988.00
615.54	48126.10
615.69	47969.28
615.84	47807.78
616.00	48079.28
616.15	47571.39
616.30	48313.34
616.46	48126.10
616.61	47854.59
616.76	47892.04
616.92	48151.84
617.07	47669.69
617.22	47690.76
617.37	47437.98
617.53	47686.07
617.68	47894.38
617.83	47636.92
617.99	48044.18
618.14	47491.81
618.29	47793.74
618.45	47421.59
618.60	47569.05
618.75	47395.85
618.90	47063.49
619.06	47456.70
619.21	47892.04
619.36	47753.95
619.51	47363.08
619.67	47505.85
619.82	47173.50
619.97	48004.39
620.12	47494.15
620.28	47093.92
620.43	47416.91
620.58	47655.65
620.73	47606.50
620.89	47487.13
621.04	47798.42
621.19	47517.56
621.34	47538.62
621.49	47199.24
621.65	47555.00
621.80	47533.94
621.95	47234.35
622.10	47260.10
622.25	47243.71
622.41	46864.55
622.56	47110.30
622.71	47154.77
622.86	47358.40
623.01	47491.81
623.16	46983.91
623.32	46810.71
623.47	47159.45
623.62	47033.07
623.77	47278.82
623.92	46822.42
624.07	47082.22
624.23	46967.53
624.38	46993.28
624.53	46974.55
624.68	46522.83
624.83	46422.19
624.98	46885.61
625.13	46909.02
625.29	46653.90
625.44	46965.19
625.59	46749.86
625.74	46476.02
625.89	46740.50
626.04	46302.82
626.19	46571.98
626.34	46361.33
626.49	46117.92
626.65	45801.94
626.80	46550.91
626.95	46527.51
627.10	45876.84
627.25	46263.03
627.40	46564.96
627.55	46298.14
627.70	46476.02
627.85	46557.94
628.00	46799.01
628.15	46567.30
628.30	45888.54
628.45	45984.51
628.60	45785.56
628.76	46120.26
628.91	45956.42
629.06	45860.46
629.21	45949.40
629.36	45916.63
629.51	45954.08
629.66	46344.95
629.81	45888.54
629.96	45801.94
630.11	46209.20
630.26	45904.93
630.41	45617.04
630.56	45808.96
630.71	45804.28
630.86	45776.20
631.01	45684.92
631.16	45628.74
631.31	45860.46
631.46	45666.19
631.61	45956.42
631.76	46075.79
631.91	46021.95
632.06	45942.38
632.21	45837.05
632.36	46028.98
632.51	45427.46
632.66	45633.42
632.81	45806.62
632.96	45476.61
633.10	45514.06
633.25	45404.05
633.40	45312.77
633.55	45558.53
633.70	45179.36
633.85	45441.50
634.00	44886.79
634.15	45158.30
634.30	45191.06
634.45	45411.07
634.60	45331.50
634.75	45214.47
634.90	45345.54
635.05	45708.32
635.19	44947.65
635.34	45050.63
635.49	45106.80
635.64	44971.05
635.79	45191.06
635.94	45205.11
636.09	45352.56
636.24	45165.32
636.39	45137.23
636.53	45336.18
636.68	44535.71
636.83	44615.29
636.98	44601.25
637.13	44458.48
637.28	44898.50
637.43	44594.23
637.57	44774.45
637.72	44444.43
637.87	44575.50
638.02	44435.07
638.17	44521.67
638.32	44603.59
638.46	44463.16
638.61	44481.88
638.76	44411.67
638.91	44545.08
639.06	44442.09
639.20	44133.14
639.35	44519.33
639.50	44004.41
639.65	44634.02
639.80	44692.53
639.94	44814.24
640.09	44364.85
640.24	44912.54
640.39	43981.01
640.54	43973.98
640.68	44264.21
640.83	44652.74
640.98	44154.21
641.13	43723.55
641.27	44563.80
641.42	44271.23
641.57	43927.17
641.72	44098.03
641.86	44205.70
642.01	43845.26
642.16	43908.45
642.31	43365.45
642.45	44156.55
642.60	43653.33
642.75	43571.41
642.90	43634.61
643.04	43723.55
643.19	43622.90
643.34	43775.04
643.48	43908.45
643.63	43529.28
643.78	43810.15
643.93	43725.89
644.07	43440.34
644.22	43409.92
644.37	43220.33
644.51	43335.02
644.66	43702.48
644.81	43540.99
644.95	43566.73
645.10	43217.99
645.25	43407.58
645.39	43447.36
645.54	43349.06
645.69	42976.92
645.83	43164.16
645.98	42981.60
646.13	43335.02
646.27	43124.37
646.42	42988.62
646.57	43236.72
646.71	43346.72
646.86	43304.59
647.00	43751.63
647.15	43096.28
647.30	43428.64
647.44	42738.18
647.59	43264.80
647.74	42890.32
647.88	42981.60
648.03	43526.94
648.17	42986.28
648.32	43494.18
648.47	42974.58
648.61	42714.78
648.76	43131.39
648.90	42850.53
649.05	42656.26
649.20	42824.78
649.34	42962.87
649.49	42899.68
649.63	42944.15
649.78	43005.00
649.92	42829.46
650.07	42939.47
650.21	42682.01
650.36	42557.96
650.51	42880.95
650.65	43370.13
650.80	43119.69
650.94	42843.51
651.09	42679.67
651.23	42602.43
651.38	42450.30
651.52	42057.09
651.67	42410.51
651.81	42349.65
651.96	42267.73
652.10	42197.52
652.25	41848.78
652.39	42277.10
652.54	42305.18
652.68	42139.00
652.83	42052.41
652.97	42361.36
653.12	42258.37
653.26	42415.19
653.41	42522.85
653.55	42202.20
653.70	42246.67
653.84	42218.58
653.99	42080.49
654.13	42375.40
654.27	41921.34
654.42	42155.39
654.56	41921.34
654.71	41844.10
654.85	41904.95
655.00	41949.42
655.14	42052.41
655.29	41933.04
655.43	41998.57
655.57	41808.99
655.72	41673.24
655.86	41352.58
656.01	42162.41
656.15	41460.25
656.30	41504.72
656.44	41474.29
656.58	41858.14
656.73	41731.75
656.87	41352.58
657.01	41221.52
657.16	41567.91
657.30	41514.08
657.45	41464.93
657.59	41331.52
657.73	41013.21
657.88	41202.79
658.02	40989.80
658.16	41277.69
658.31	41207.47
658.45	40788.52
658.60	41265.99
658.74	41493.02
658.88	40910.22
659.03	40940.65
659.17	40889.16
659.31	40772.13
659.46	40790.86
659.60	41256.62
659.74	40854.05
659.89	40634.04
660.03	40325.09
660.17	40847.03
660.32	40346.15
660.46	40355.52
660.60	40641.06
660.74	40720.64
660.89	40311.05
661.03	40505.31
661.17	40390.62
661.32	40130.83
661.46	40105.08
661.60	40163.59
661.74	39672.08
661.89	40128.48
662.03	40243.17
662.17	40027.84
662.31	39342.06
662.46	39927.20
662.60	39447.39
662.74	39519.95
662.88	39344.41
663.03	39739.96
663.17	39332.70
663.31	39601.86
663.45	39559.73
663.60	39702.51
663.74	39276.53
663.88	39503.56
664.02	39559.73
664.17	39555.05
664.31	39026.09
664.45	39096.31
664.59	39023.75
664.73	38623.52
664.88	39040.14
665.02	38396.49
665.16	38541.60
665.30	38696.08
665.44	39058.86
665.59	38195.20
665.73	38684.37
665.87	38352.02
666.01	38405.85
666.15	38447.98
666.29	38501.81
666.44	38782.68
666.58	38078.18
666.72	38143.71
666.86	37923.70
667.00	38263.08
667.14	37694.33
667.28	37916.68
667.43	38387.13
667.57	38394.15
667.71	38141.37
667.85	38101.58
667.99	37881.57
668.13	37567.94
668.27	37144.30
668.41	37390.06
668.56	36921.95
668.70	36989.83
668.84	36800.24
668.98	37317.50
669.12	36987.49
669.26	37324.52
669.40	37223.88
669.54	37057.70
669.68	37113.87
669.82	37008.55
669.96	36374.27
670.10	36760.45
670.25	36842.37
670.39	36657.47
670.53	36727.69
670.67	36451.50
670.81	36807.26
670.95	36662.15
671.09	36442.14
671.23	35945.95
671.37	36229.15
671.51	36275.96
671.65	36222.13
671.79	36037.23
671.93	36175.32
672.07	36275.96
672.21	35747.00
672.35	35756.36
672.49	35758.70
672.63	35676.79
672.77	35468.48
672.91	35606.57
673.05	35613.59
673.19	35145.48
673.33	35316.34
673.47	35187.61
673.61	35239.11
673.75	35021.44
673.89	34679.72
674.03	34586.10
674.17	34415.24
674.31	34272.46
674.45	34326.30
674.59	34295.87
674.73	34689.08
674.87	34265.44
675.01	33963.51
675.15	33743.50
675.29	34036.07
675.43	33830.10
675.56	34075.86
675.70	33795.00
675.84	33535.20
675.98	32989.85
676.12	33769.25
676.26	33572.64
676.40	33113.90
676.54	33198.16
676.68	33179.43
676.82	32872.82
676.96	33322.21
677.10	32919.63
677.23	32659.84
677.37	33055.39
677.51	32790.91
677.65	32697.28
677.79	32034.91
677.93	32620.05
678.07	32334.50
678.21	31522.34
678.34	31676.81
678.48	31756.39
678.62	31910.86
678.76	31819.58
678.90	31431.05
679.04	31580.85
679.18	31948.31
679.31	31534.04
679.45	31215.72
679.59	31363.18
679.73	31147.85
679.87	30934.86
680.00	31337.43
680.14	30675.06
680.28	31438.08
680.42	30862.30
680.56	30499.52
680.70	30185.89
680.83	30331.00
680.97	29890.98
681.11	29968.22
681.25	30352.07
681.39	30171.85
681.52	29682.67
681.66	29612.46
681.80	29455.64
681.94	29280.10
682.07	28907.96
682.21	29158.39
682.35	28964.13
682.49	28940.72
682.62	28781.57
682.76	29200.52
682.90	28624.75
683.04	28624.75
683.17	28320.48
683.31	28414.10
683.45	28299.42
683.59	28032.60
683.72	28102.81
683.86	27742.37
684.00	28013.87
684.13	27927.27
684.27	27854.72
684.41	27316.39
684.55	27817.27
684.68	27733.01
684.82	27482.57
684.96	27262.56
685.09	27185.32
685.23	27461.51
685.37	27269.58
685.50	27557.47
685.64	26979.36
685.78	26883.39
685.91	26623.59
686.05	26380.18
686.19	25785.68
686.32	26319.32
686.46	26122.72
686.60	25825.47
686.73	26071.23
686.87	26066.55
687.01	26260.81
687.14	26223.36
687.28	25764.62
687.42	25694.40
687.55	25568.01
687.69	25572.69
687.82	25188.85
687.96	25523.54
688.10	25193.53
688.23	25373.75
688.37	25336.30
688.50	25202.89
688.64	24987.56
688.78	25036.71
688.91	24886.92
689.05	24760.53
689.18	24233.91
689.32	23445.15
689.46	23850.06
689.59	24100.50
689.73	24430.51
689.86	24533.50
690.00	23967.09
690.13	23971.77
690.27	23784.52
690.41	23697.92
690.54	23267.27
690.68	23541.11
690.81	23365.57
690.95	23304.71
691.08	23201.73
691.22	23033.21
691.35	22611.92
691.49	23154.92
691.62	23054.28
691.76	22305.31
691.89	22160.19
692.03	22155.51
692.16	22185.94
692.30	21886.35
692.43	22511.27
692.57	21853.58
692.70	21965.93
692.84	21855.92
692.97	21649.96
693.11	21614.85
693.24	21418.24
693.38	21413.56
693.51	21355.05
693.65	21561.02
693.78	21284.83
693.92	21198.23
694.05	21064.82
694.19	20947.79
694.32	21048.44
694.45	21172.49
694.59	21151.42
694.72	20987.58
694.86	20517.14
694.99	20269.04
695.13	20042.01
695.26	19964.77
695.39	20152.01
695.53	20046.69
695.66	19967.11
695.80	19836.04
695.93	19822.00
696.07	19473.26
696.20	19463.90
696.33	19124.52
696.47	19073.03
696.60	19145.58
696.73	19133.88
696.87	19246.23
697.00	19154.94
697.14	19332.82
697.27	18991.11
697.40	18523.00
697.54	18806.20
697.67	18712.58
697.80	18693.86
697.94	18469.17
698.07	18139.15
698.21	18171.92
698.34	18415.34
698.47	17877.01
698.61	17710.83
698.74	17635.94
698.87	17855.95
699.01	17687.43
699.14	17809.14
699.27	17825.52
699.40	17657.00
699.54	17619.55
699.67	17635.94
699.80	17434.65
699.94	17378.48
700.07	17266.13
700.20	17032.08
700.34	16910.37
700.47	16964.20
700.60	17022.72
700.73	16854.20
700.87	16549.93
701.00	16348.64
701.13	16432.90
701.26	16353.32
701.40	16311.19
701.53	16093.52
701.66	16367.37
701.79	16355.66
701.93	15925.00
702.06	15506.05
702.19	15611.37
702.32	16088.84
702.46	15950.75
702.59	15744.78
702.72	15810.32
702.85	15630.10
702.99	15417.11
703.12	15468.60
703.25	15396.04
703.38	15276.68
703.51	15314.13
703.65	15059.01
703.78	14803.89
703.91	14602.60
704.04	14862.40
704.17	14300.67
704.31	14649.41
704.44	14665.80
704.57	14462.17
704.70	14480.89
704.83	14518.34
704.96	14326.42
705.10	14169.60
705.23	14071.30
>>>>>End Processed Spectral Data<<<<<
