SpectraSuite Data File
++++++++++++++++++++++++++++++++++++
Date: Fri Oct 25 10:48:04 EDT 2013
User: price-jones
Dark Spectrum Present: No
Reference Spectrum Present: No
Number of Sampled Component Spectra: 1
Spectrometers: USB2+H05261
Integration Time (usec): 100000 (USB2+H05261)
Spectra Averaged: 1 (USB2+H05261)
Boxcar Smoothing: 0 (USB2+H05261)
Correct for Electrical Dark: No (USB2+H05261)
Strobe/Lamp Enabled: No (USB2+H05261)
Correct for Detector Non-linearity: No (USB2+H05261)
Correct for Stray Light: No (USB2+H05261)
Number of Pixels in Processed Spectrum: 2048
>>>>>Begin Processed Spectral Data<<<<<
365.73	180.22
365.92	180.22
366.12	180.22
366.32	37.45
366.52	30.43
366.72	65.54
366.91	30.43
367.11	42.13
367.31	63.19
367.51	58.51
367.70	77.24
367.90	39.79
368.10	0.00
368.30	18.72
368.49	18.72
368.69	60.85
368.89	117.03
369.09	30.43
369.28	67.88
369.48	93.62
369.68	42.13
369.87	81.92
370.07	114.69
370.27	149.79
370.47	257.46
370.66	355.76
370.86	414.27
371.06	421.30
371.25	397.89
371.45	346.40
371.65	379.17
371.84	479.81
372.04	409.59
372.24	500.87
372.44	414.27
372.63	535.98
372.83	503.22
373.03	519.60
373.22	505.56
373.42	479.81
373.62	543.00
373.81	552.37
374.01	603.86
374.21	498.53
374.40	498.53
374.60	547.69
374.79	543.00
374.99	559.39
375.19	571.09
375.38	585.13
375.58	550.03
375.78	533.64
375.97	578.11
376.17	650.67
376.37	566.41
376.56	547.69
376.76	582.79
376.95	610.88
377.15	641.31
377.35	606.20
377.54	606.20
377.74	655.35
377.93	589.82
378.13	643.65
378.33	662.37
378.52	620.24
378.72	550.03
378.91	594.50
379.11	617.90
379.31	608.54
379.50	631.94
379.70	676.41
379.89	613.22
380.09	601.52
380.28	655.35
380.48	706.84
380.68	704.50
380.87	589.82
381.07	641.31
381.26	713.86
381.46	704.50
381.65	711.52
381.85	578.11
382.04	676.41
382.24	763.01
382.43	704.50
382.63	674.07
382.83	653.01
383.02	634.29
383.22	720.88
383.41	737.27
383.61	688.12
383.80	727.91
384.00	727.91
384.19	695.14
384.39	725.57
384.58	772.38
384.78	828.55
384.97	746.63
385.17	730.25
385.36	786.42
385.56	725.57
385.75	795.78
385.95	788.76
386.14	812.17
386.34	734.93
386.53	828.55
386.72	807.48
386.92	805.14
387.11	779.40
387.31	770.04
387.50	812.17
387.70	784.08
387.89	798.12
388.09	779.40
388.28	828.55
388.48	826.21
388.67	816.85
388.86	842.59
389.06	807.48
389.25	863.66
389.45	866.00
389.64	894.08
389.84	863.66
390.03	957.28
390.22	870.68
390.42	828.55
390.61	943.24
390.81	1032.18
391.00	990.05
391.19	1032.18
391.39	924.51
391.58	987.71
391.78	952.60
391.97	938.55
392.16	894.08
392.36	968.98
392.55	957.28
392.75	980.68
392.94	978.34
393.13	889.40
393.33	873.02
393.52	898.77
393.71	1015.79
393.91	1001.75
394.10	1055.58
394.29	1015.79
394.49	1001.75
394.68	1036.86
394.88	1039.20
395.07	1177.29
395.26	1090.69
395.46	1144.52
395.65	1158.57
395.84	1088.35
396.04	1102.39
396.23	1163.25
396.42	1078.99
396.62	1107.07
396.81	1111.75
397.00	1111.75
397.19	1179.63
397.39	1188.99
397.58	1231.12
397.77	1198.35
397.97	1198.35
398.16	1231.12
398.35	1350.49
398.55	1273.25
398.74	1221.76
398.93	1336.45
399.12	1231.12
399.32	1254.53
399.51	1221.76
399.70	1301.34
399.90	1275.59
400.09	1256.87
400.28	1441.77
400.47	1387.94
400.67	1467.52
400.86	1483.90
401.05	1371.55
401.24	1535.39
401.44	1455.81
401.63	1362.19
401.82	1423.05
402.01	1329.42
402.21	1481.56
402.40	1474.54
402.59	1439.43
402.78	1493.26
402.97	1481.56
403.17	1577.52
403.36	1659.44
403.55	1460.49
403.74	1570.50
403.93	1589.22
404.13	1568.16
404.32	1516.67
404.51	1629.01
404.70	1650.08
404.89	1671.14
405.09	1685.19
405.28	1753.06
405.47	1774.13
405.66	1629.01
405.85	1636.03
406.05	1757.74
406.24	1748.38
406.43	1802.21
406.62	1760.08
406.81	1877.11
407.00	1912.22
407.20	1710.93
407.39	1776.47
407.58	1802.21
407.77	1893.49
407.96	1907.54
408.15	1944.99
408.34	1860.73
408.54	1905.20
408.73	1881.79
408.92	1994.14
409.11	1970.73
409.30	1959.03
409.49	1977.75
409.68	2015.20
409.87	2069.03
410.07	2071.37
410.26	2059.67
410.45	2097.12
410.64	2118.18
410.83	2181.38
411.02	2153.29
411.21	2207.13
411.40	2244.57
411.59	2183.72
411.78	2174.36
411.98	2230.53
412.17	2361.60
412.36	2359.26
412.55	2415.43
412.74	2380.32
412.93	2349.90
413.12	2394.37
413.31	2518.42
413.50	2511.39
413.69	2567.57
413.88	2471.61
414.07	2483.31
414.26	2640.12
414.45	2670.55
414.64	2448.20
414.83	2633.10
415.02	2445.86
415.22	2574.59
415.41	2565.23
415.60	2668.21
415.79	2684.59
415.98	2750.13
416.17	2920.99
416.36	2682.25
416.55	2841.41
416.74	2834.39
416.93	2848.43
417.12	2923.33
417.31	2965.46
417.50	2862.48
417.69	3007.59
417.88	2899.92
418.07	3009.93
418.26	3101.21
418.45	3012.27
418.64	3042.70
418.83	3066.10
419.02	3028.65
419.21	3204.19
419.39	3157.38
419.58	3091.85
419.77	3112.91
419.96	3152.70
420.15	3183.13
420.34	3248.66
420.53	3351.65
420.72	3248.66
420.91	3159.72
421.10	3386.76
421.29	3286.11
421.48	3197.17
421.67	3361.01
421.86	3375.05
422.05	3440.59
422.24	3220.58
422.43	3377.39
422.61	3433.57
422.80	3520.17
422.99	3410.16
423.18	3482.72
423.37	3557.61
423.56	3396.12
423.75	3468.67
423.94	3353.99
424.13	3389.10
424.32	3288.45
424.50	3426.54
424.69	3599.74
424.88	3471.01
425.07	3419.52
425.26	3449.95
425.45	3524.85
425.64	3412.50
425.83	3499.10
426.01	3492.08
426.20	3513.14
426.39	3485.06
426.58	3499.10
426.77	3288.45
426.96	3492.08
427.15	3616.13
427.33	3588.04
427.52	3592.72
427.71	3721.45
427.90	3684.00
428.09	3784.65
428.28	3707.41
428.46	3616.13
428.65	3758.90
428.84	3822.09
429.03	3749.54
429.22	3595.06
429.40	3843.16
429.59	3609.11
429.78	3566.98
429.97	3627.83
430.16	3737.84
430.34	3688.68
430.53	3819.75
430.72	3740.18
430.91	3801.03
431.10	3726.13
431.28	3817.41
431.47	4028.06
431.66	4079.55
431.85	3836.14
432.03	4145.09
432.22	4011.68
432.41	3981.25
432.60	4149.77
432.79	4145.09
432.97	4105.30
433.16	4159.13
433.35	3981.25
433.54	4264.46
433.72	4236.37
433.91	4219.99
434.10	4170.83
434.28	4229.35
434.47	4196.58
434.66	4287.86
434.85	4212.96
435.03	4372.12
435.22	4360.42
435.41	4329.99
435.59	4428.29
435.78	4418.93
435.97	4484.47
436.16	4353.40
436.34	4395.53
436.53	4599.15
436.72	4601.49
436.90	4437.66
437.09	4491.49
437.28	4477.44
437.46	4568.73
437.65	4451.70
437.84	4704.48
438.02	4664.69
438.21	4496.17
438.40	4678.73
438.58	4814.48
438.77	4711.50
438.96	4734.90
439.14	4823.84
439.33	4910.44
439.52	4926.83
439.70	4978.32
439.89	5001.72
440.08	5081.30
440.26	4959.60
440.45	4908.10
440.63	5109.39
440.82	5308.34
441.01	5214.71
441.19	5184.29
441.38	5341.10
441.57	5212.37
441.75	5343.44
441.94	5479.19
442.12	5413.66
442.31	5664.10
442.50	5572.82
442.68	5423.02
442.87	5554.09
443.05	5565.79
443.24	5760.06
443.43	5715.59
443.61	5561.11
443.80	5788.14
443.98	5624.31
444.17	5345.78
444.35	5645.37
444.54	5767.08
444.73	5647.71
444.91	5638.35
445.10	5558.77
445.28	5526.00
445.47	5603.24
445.65	5736.65
445.84	5708.57
446.02	5886.45
446.21	5771.76
446.39	5874.74
446.58	5865.38
446.77	5872.40
446.95	5841.98
447.14	5856.02
447.32	5825.59
447.51	6078.37
447.69	5731.97
447.88	5926.24
448.06	5902.83
448.25	5813.89
448.43	5762.40
448.62	5865.38
448.80	5914.53
448.99	5998.79
449.17	6033.90
449.36	5816.23
449.54	6171.99
449.73	6054.97
449.91	6256.25
450.10	6115.82
450.28	6218.80
450.46	6415.41
450.65	6431.79
450.83	6387.32
451.02	6328.81
451.20	6216.46
451.39	6333.49
451.57	6413.07
451.76	6359.24
451.94	6120.50
452.13	6525.41
452.31	6282.00
452.49	6356.90
452.68	6363.92
452.86	6218.80
453.05	6445.84
453.23	6452.86
453.42	6342.85
453.60	6263.27
453.78	6551.16
453.97	6518.39
454.15	6537.12
454.34	6242.21
454.52	6593.29
454.70	6572.22
454.89	6684.57
455.07	6604.99
455.26	6658.82
455.44	6745.42
455.62	6853.09
455.81	6801.60
455.99	6841.39
456.17	6951.39
456.36	6843.73
456.54	7035.65
456.73	7019.27
456.91	7166.72
457.09	7000.54
457.28	7136.29
457.46	7201.83
457.64	7197.15
457.83	6939.69
458.01	7122.25
458.19	7215.87
458.38	7066.08
458.56	7068.42
458.74	7197.15
458.93	7248.64
459.11	7225.23
459.29	7480.35
459.48	7316.51
459.66	7208.85
459.84	7501.42
460.03	7606.74
460.21	7384.39
460.39	7555.25
460.57	7396.09
460.76	7655.89
460.94	7566.95
461.12	7602.06
461.31	7564.61
461.49	7583.34
461.67	7623.12
461.85	7777.60
462.04	7676.96
462.22	8224.64
462.40	7878.24
462.59	7679.30
462.77	7878.24
462.95	7705.04
463.13	7878.24
463.32	7908.67
463.50	7838.45
463.68	8049.10
463.86	8196.56
464.05	7789.30
464.23	7873.56
464.41	7918.03
464.59	7948.46
464.78	8222.30
464.96	7880.58
465.14	8030.38
465.32	8074.85
465.50	8234.00
465.69	8131.02
465.87	8257.41
466.05	7983.57
466.23	8290.18
466.41	8318.26
466.60	8280.82
466.78	8191.88
466.96	8105.28
467.14	8271.45
467.32	8334.65
467.51	8344.01
467.69	8095.91
467.87	8133.36
468.05	8477.42
468.23	8479.76
468.41	8360.39
468.60	8430.61
468.78	8486.78
468.96	8196.56
469.14	8704.45
469.32	8718.50
469.50	8369.76
469.69	8580.40
469.87	8798.07
470.05	8786.37
470.23	8706.79
470.41	8798.07
470.59	8910.42
470.77	8840.20
470.95	8739.56
471.14	8929.14
471.32	8769.99
471.50	8919.78
471.68	9085.96
471.86	9043.83
472.04	9041.49
472.22	9287.25
472.40	9027.45
472.58	9172.56
472.77	9479.17
472.95	9502.58
473.13	9675.77
473.31	9502.58
473.49	9535.34
473.67	9366.82
473.85	9418.32
474.03	9745.99
474.21	9771.74
474.39	9900.47
474.57	9753.01
474.75	10015.15
474.93	10139.20
475.12	9811.53
475.30	10076.01
475.48	9968.34
475.66	9963.66
475.84	9991.75
476.02	10146.22
476.20	10104.09
476.38	10223.46
476.56	10747.74
476.74	10509.01
476.92	10427.09
477.10	10534.75
477.28	10747.74
477.46	10890.51
477.64	10757.10
477.82	11066.05
478.00	11218.19
478.18	11044.99
478.36	11501.39
478.54	11477.99
478.72	11246.27
478.90	11592.67
479.08	11571.61
479.26	11414.79
479.44	11707.36
479.62	11803.32
479.80	11822.05
479.98	12013.97
480.16	12053.76
480.34	11857.15
480.52	12353.35
480.70	12250.36
480.88	12276.11
481.06	12231.64
481.24	12173.13
481.41	12533.57
481.59	12718.47
481.77	12571.02
481.95	12732.51
482.13	12999.34
482.31	12814.43
482.49	13050.83
482.67	13451.06
482.85	13390.20
483.03	13591.49
483.21	13617.24
483.39	13823.20
483.57	13811.50
483.74	13935.55
483.92	13949.59
484.10	13930.87
484.28	14094.71
484.46	14183.65
484.64	14813.25
484.82	13989.38
485.00	14284.29
485.18	14909.21
485.35	14813.25
485.53	14792.19
485.71	14937.30
485.89	15417.11
486.07	14984.11
486.25	15414.77
486.43	15403.07
486.61	15421.79
486.78	15721.38
486.96	15697.97
487.14	16142.67
487.32	16152.04
487.50	16348.64
487.68	16182.46
487.85	16365.03
488.03	16624.83
488.21	16624.83
488.39	16704.40
488.57	16959.52
488.75	16800.37
488.92	17057.82
489.10	17586.79
489.28	17408.90
489.46	17568.06
489.64	17523.59
489.81	17767.01
489.99	17942.55
490.17	18078.30
490.35	18321.71
490.53	18319.37
490.70	18342.78
490.88	18352.14
491.06	18525.34
491.24	18703.22
491.41	18565.13
491.59	18750.03
491.77	19023.87
491.95	19302.40
492.13	19145.58
492.30	19686.25
492.48	19384.32
492.66	19850.08
492.84	19606.67
493.01	19742.42
493.19	20011.58
493.37	20140.31
493.54	20175.42
493.72	20655.23
493.90	20065.41
494.08	20587.35
494.25	20842.47
494.43	20697.36
494.61	21184.19
494.79	21142.06
494.96	21008.65
495.14	21142.06
495.32	21451.01
495.49	21446.33
495.67	21593.78
495.85	21774.00
496.02	21970.61
496.20	21888.69
496.38	21860.60
496.55	21982.31
496.73	22679.79
496.91	21865.28
497.09	22558.08
497.26	22728.94
497.44	22398.93
497.62	22855.33
497.79	22998.10
497.97	22862.35
498.14	23129.17
498.32	23616.01
498.50	23026.19
498.67	23648.77
498.85	23641.75
499.03	23824.31
499.20	23913.25
499.38	23885.17
499.56	23578.56
499.73	24041.98
499.91	23908.57
500.08	24201.14
500.26	23693.24
500.44	24353.27
500.61	24170.71
500.79	24556.90
500.97	24535.84
501.14	24877.55
501.32	25039.05
501.49	24844.79
501.67	24936.07
501.84	25041.39
502.02	24922.02
502.20	25301.19
502.37	25565.67
502.55	25193.53
502.72	25724.83
502.90	25680.36
503.07	25348.00
503.25	25640.57
503.43	25539.93
503.60	26085.27
503.78	25514.18
503.95	25984.63
504.13	26066.55
504.30	26022.08
504.48	26218.68
504.65	26335.71
504.83	26504.23
505.01	26647.00
505.18	26675.09
505.36	26895.10
505.53	26932.54
505.71	26986.38
505.88	27278.94
506.06	26813.18
506.23	27164.26
506.41	27087.02
506.58	27271.92
506.76	27360.86
506.93	27709.60
507.11	27503.64
507.28	27545.76
507.46	27580.87
507.63	27735.35
507.81	27461.51
507.98	27747.05
508.16	27725.99
508.33	27917.91
508.50	27988.13
508.68	28203.46
508.85	28301.76
509.03	28212.82
509.20	28545.17
509.38	28428.15
509.55	28699.65
509.73	28231.54
509.90	28989.88
510.08	28489.00
510.25	28758.16
510.42	29235.63
510.60	28973.49
510.77	29102.22
510.95	29476.71
511.12	29076.48
511.30	29083.50
511.47	29727.14
511.64	29263.72
511.82	29481.39
511.99	29530.54
512.17	30071.20
512.34	29696.72
512.51	29993.97
512.69	30293.55
512.86	30237.38
513.04	30319.30
513.21	30218.66
513.38	30150.78
513.56	30213.98
513.73	30508.88
513.90	30487.82
514.08	30167.16
514.25	30504.20
514.43	30508.88
514.60	30466.75
514.77	30705.49
514.95	31005.08
515.12	30668.04
515.29	31185.30
515.47	31732.98
515.64	31484.89
515.81	31157.21
515.99	31007.42
516.16	31065.93
516.33	31164.23
516.51	31487.23
516.68	31260.20
516.85	31033.16
517.03	31477.86
517.20	31335.09
517.37	31505.95
517.54	32079.38
517.72	32123.85
517.89	31768.09
518.06	31756.39
518.24	31835.97
518.41	31695.53
518.58	32217.47
518.75	31597.23
518.93	32381.31
519.10	32161.30
519.27	32517.06
519.45	32332.16
519.62	32769.84
519.79	32861.12
519.96	32624.73
520.14	32669.20
520.31	32720.69
520.48	32779.20
520.65	32870.48
520.83	33146.67
521.00	33055.39
521.17	33134.96
521.34	33247.31
521.52	33453.28
521.69	33156.03
521.86	33532.86
522.03	33528.17
522.20	33830.10
522.38	33483.70
522.55	34019.69
522.72	33617.11
522.89	33881.60
523.07	33736.48
523.24	33991.60
523.41	33937.77
523.58	33989.26
523.75	34476.09
523.92	34199.91
524.10	34827.17
524.27	34183.52
524.44	34333.32
524.61	34813.13
524.78	35412.31
524.96	34913.77
525.13	34759.30
525.30	35260.17
525.47	35154.85
525.64	34705.46
525.81	34773.34
525.98	35014.41
526.16	35026.12
526.33	34567.37
526.50	35115.06
526.67	35012.07
526.84	34944.20
527.01	35037.82
527.18	35325.71
527.36	35402.94
527.53	35379.54
527.70	36135.53
527.87	35845.30
528.04	35431.03
528.21	35585.50
528.38	35704.87
528.55	36236.17
528.72	35945.95
528.89	35749.34
529.07	35550.40
529.24	36086.38
529.41	36158.94
529.58	36072.34
529.75	36411.71
529.92	36430.44
530.09	36306.39
530.26	36348.52
530.43	36833.01
530.60	36547.47
530.77	36711.30
530.94	36587.25
531.11	36821.31
531.28	36802.58
531.46	36655.13
531.63	37123.24
531.80	36765.14
531.97	36711.30
532.14	36617.68
532.31	36994.51
532.48	36753.43
532.65	37308.14
532.82	36797.90
532.99	37244.94
533.16	37074.09
533.33	37455.59
533.50	37418.14
533.67	37350.27
533.84	37467.30
534.01	37364.31
534.18	37404.10
534.35	37539.85
534.52	37633.47
534.69	37900.29
534.86	37701.35
535.03	37301.12
535.20	37949.45
535.37	37820.72
535.54	38181.16
535.71	37516.45
535.88	38321.59
536.05	37769.22
536.22	37986.89
536.38	38113.28
536.55	38473.73
536.72	38440.96
536.89	38155.41
537.06	38202.22
537.23	38487.77
537.40	38160.09
537.57	38316.91
537.74	38494.79
537.91	38604.80
538.08	38403.51
538.25	38394.15
538.42	38572.03
538.59	38663.31
538.75	38686.71
538.92	38850.55
539.09	38852.89
539.26	39075.24
539.43	38778.00
539.60	39019.07
539.77	38763.95
539.94	39201.63
540.11	38960.56
540.28	38941.83
540.44	38796.72
540.61	38962.90
540.78	38785.02
540.95	38726.50
541.12	38768.63
541.29	38981.62
541.46	39278.87
541.62	39489.52
541.79	39456.75
541.96	38937.15
542.13	39597.18
542.30	39882.73
542.47	39482.50
542.63	39924.86
542.80	39758.68
542.97	39739.96
543.14	40025.50
543.31	40058.27
543.48	39974.01
543.64	40383.60
543.81	39906.13
543.98	40332.11
544.15	39751.66
544.32	40715.96
544.48	40563.82
544.65	40411.69
544.82	40692.55
544.99	40212.74
545.16	40760.43
545.32	40385.94
545.49	40580.21
545.66	40774.47
545.83	40655.11
546.00	41041.29
546.16	40594.25
546.33	40264.24
546.50	40236.15
546.67	40823.62
546.83	40105.08
547.00	40549.78
547.17	40591.91
547.34	40587.23
547.50	41083.42
547.67	41244.92
547.84	40755.75
548.00	41324.50
548.17	41151.30
548.34	41095.13
548.51	41422.80
548.67	41153.64
548.84	41638.13
549.01	41041.29
549.18	41055.34
549.34	41411.10
549.51	41418.12
549.68	41649.83
549.84	41689.62
550.01	41579.62
550.18	41130.23
550.34	41209.81
550.51	41277.69
550.68	41607.70
550.84	41347.90
551.01	41425.14
551.18	41509.40
551.34	41729.41
551.51	41249.60
551.68	41991.55
551.84	41619.41
552.01	41717.71
552.18	41792.61
552.34	41926.02
552.51	42181.13
552.68	42127.30
552.84	42192.84
553.01	42134.32
553.18	41778.56
553.34	41830.05
553.51	41911.97
553.67	42466.68
553.84	42429.23
554.01	42597.75
554.17	42548.60
554.34	42192.84
554.51	42361.36
554.67	42148.37
554.84	42490.09
555.00	42064.11
555.17	41890.91
555.33	42230.29
555.50	42424.55
555.67	42576.69
555.83	42920.74
556.00	42284.12
556.16	42700.73
556.33	42572.00
556.50	42693.71
556.66	42712.44
556.83	41947.08
556.99	43089.26
557.16	43363.11
557.32	42600.09
557.49	42569.66
557.65	42539.24
557.82	42232.63
557.98	43072.88
558.15	42440.93
558.32	42951.17
558.48	42515.83
558.65	42906.70
558.81	42955.85
558.98	42635.20
559.14	42920.74
559.31	43072.88
559.47	42799.04
559.64	43285.87
559.80	43489.49
559.97	43257.78
560.13	42988.62
560.30	43100.97
560.46	42909.04
560.63	43203.95
560.79	43243.74
560.96	43351.40
561.12	43491.83
561.29	43370.13
561.45	43129.05
561.61	43704.82
561.78	43379.49
561.94	43292.89
562.11	43112.67
562.27	43409.92
562.44	43210.97
562.60	43346.72
562.77	43711.84
562.93	43119.69
563.10	43863.98
563.26	42887.98
563.42	43430.98
563.59	42916.06
563.75	43423.96
563.92	43854.62
564.08	43653.33
564.24	43796.10
564.41	43585.46
564.57	43330.34
564.74	43662.69
564.90	43545.67
565.07	43655.67
565.23	43763.34
565.39	43379.49
565.56	44006.75
565.72	43548.01
565.88	43548.01
566.05	43871.00
566.21	43400.55
566.38	43854.62
566.54	43716.53
566.70	43988.03
566.87	44062.93
567.03	43641.63
567.19	43817.17
567.36	44044.20
567.52	43557.37
567.68	44018.46
567.85	43674.40
568.01	43728.23
568.17	43725.89
568.34	43697.80
568.50	43732.91
568.66	44053.56
568.83	43803.13
568.99	43536.30
569.15	44168.25
569.32	43672.06
569.48	43672.06
569.64	43517.58
569.81	43763.34
569.97	43880.36
570.13	43674.40
570.30	43714.19
570.46	43770.36
570.62	43531.62
570.78	43880.36
570.95	43803.13
571.11	44025.48
571.27	43934.20
571.43	44273.57
571.60	44186.97
571.76	44453.79
571.92	43913.13
572.09	43746.95
572.25	43889.73
572.41	43714.19
572.57	44144.84
572.74	44531.03
572.90	44421.03
573.06	44360.17
573.22	44233.78
573.38	44388.26
573.55	44018.46
573.71	44201.02
573.87	44023.14
574.03	43665.03
574.20	44184.63
574.36	44325.07
574.52	44421.03
574.68	44474.86
574.84	44556.78
575.01	44215.06
575.17	44018.46
575.33	44357.83
575.49	44308.68
575.65	44238.47
575.82	44364.85
575.98	44154.21
576.14	44355.49
576.30	44479.54
576.46	43931.86
576.62	44224.42
576.79	43875.68
576.95	43929.51
577.11	44208.04
577.27	44002.07
577.43	44083.99
577.59	44074.63
577.75	43887.39
577.92	43875.68
578.08	44182.29
578.24	44179.95
578.40	44320.38
578.56	44306.34
578.72	44566.14
578.88	44395.28
579.04	44467.84
579.21	43636.95
579.37	43838.23
579.53	43840.57
579.69	44271.23
579.85	44126.12
580.01	44086.33
580.17	44362.51
580.33	44631.68
580.49	44631.68
580.65	44500.61
580.82	44430.39
580.98	44208.04
581.14	43985.69
581.30	44493.58
581.46	44383.58
581.62	44470.18
581.78	44266.55
581.94	44765.09
582.10	44177.61
582.26	44439.75
582.42	44458.48
582.58	44222.08
582.74	44081.65
582.90	44456.14
583.06	44631.68
583.22	44048.88
583.38	44629.34
583.54	44224.42
583.70	44037.18
583.86	44397.62
584.02	44194.00
584.18	44278.25
584.34	44425.71
584.50	44533.37
584.66	44292.30
584.82	44119.10
584.98	44945.31
585.14	44449.11
585.30	44292.30
585.46	44467.84
585.62	44210.38
585.78	44383.58
585.94	44154.21
586.10	44332.09
586.26	44186.97
586.42	44779.13
586.58	44676.15
586.74	44109.74
586.90	44154.21
587.06	43952.92
587.22	44336.77
587.38	44027.82
587.54	44891.48
587.70	44664.44
587.86	44425.71
588.02	44009.09
588.18	45244.90
588.34	43983.35
588.49	44243.15
588.65	43950.58
588.81	44128.46
588.97	44088.67
589.13	43859.30
589.29	44477.20
589.45	44463.16
589.61	45172.34
589.77	45219.15
589.93	44900.84
590.08	44758.06
590.24	44793.17
590.40	44502.95
590.56	44472.52
590.72	44626.99
590.88	44479.54
591.04	44816.58
591.20	44989.78
591.35	44816.58
591.51	45603.00
591.67	44669.12
591.83	44608.27
591.99	44797.85
592.15	44299.32
592.31	45333.84
592.46	44545.08
592.62	44800.19
592.78	44744.02
592.94	44882.11
593.10	44659.76
593.26	45228.51
593.41	44861.05
593.57	44952.33
593.73	45160.64
593.89	44928.92
594.05	44240.81
594.20	44540.39
594.36	44942.97
594.52	44964.03
594.68	44957.01
594.84	44528.69
594.99	44769.77
595.15	44708.91
595.31	45109.14
595.47	44999.14
595.62	44847.00
595.78	44318.04
595.94	44638.70
596.10	45088.08
596.25	45184.04
596.41	45160.64
596.57	44680.83
596.73	45282.34
596.88	44257.19
597.04	45127.87
597.20	44772.11
597.36	44713.59
597.51	45064.67
597.67	44313.36
597.83	44875.09
597.99	45041.27
598.14	44928.92
598.30	44729.98
598.46	44388.26
598.61	44835.30
598.77	44563.80
598.93	44961.69
599.09	45015.52
599.24	45382.99
599.40	44863.39
599.56	44725.30
599.71	44783.81
599.87	45294.05
600.03	44767.43
600.18	45104.46
600.34	44837.64
600.50	45230.85
600.65	45006.16
600.81	45233.19
600.97	45230.85
601.12	45242.56
601.28	44985.10
601.44	45263.62
601.59	44905.52
601.75	44701.89
601.91	44788.49
602.06	44779.13
602.22	45167.66
602.37	44830.62
602.53	44676.15
602.69	44821.26
602.84	44968.71
603.00	44863.39
603.16	44816.58
603.31	44914.88
603.47	45200.43
603.62	45008.50
603.78	44893.82
603.94	44954.67
604.09	45123.19
604.25	44828.28
604.40	44474.86
604.56	45041.27
604.71	44999.14
604.87	44835.30
605.03	44912.54
605.18	44870.41
605.34	44626.99
605.49	44479.54
605.65	44524.01
605.80	44774.45
605.96	44622.31
606.12	44650.40
606.27	44863.39
606.43	44781.47
606.58	45041.27
606.74	44289.96
606.89	44715.93
607.05	44594.23
607.20	44189.31
607.36	44758.06
607.51	45296.39
607.67	44893.82
607.82	44692.53
607.98	44694.87
608.13	44524.01
608.29	44655.08
608.44	44645.72
608.60	44140.16
608.75	44240.81
608.91	44222.08
609.06	44357.83
609.22	44652.74
609.37	44182.29
609.53	44612.95
609.68	44383.58
609.84	44437.41
609.99	44414.01
610.15	44481.88
610.30	44645.72
610.46	44030.16
610.61	44320.38
610.76	44329.75
610.92	44299.32
611.07	44369.54
611.23	44451.45
611.38	44355.49
611.54	44158.89
611.69	43999.73
611.84	43913.13
612.00	43903.77
612.15	44357.83
612.31	44465.50
612.46	44182.29
612.62	44229.10
612.77	44367.20
612.92	44229.10
613.08	44147.18
613.23	44100.37
613.39	44105.06
613.54	43454.39
613.69	44048.88
613.85	44215.06
614.00	44011.43
614.15	44355.49
614.31	44098.03
614.46	44355.49
614.62	44098.03
614.77	43814.83
614.92	44105.06
615.08	44041.86
615.23	44285.28
615.38	43323.32
615.54	43833.55
615.69	43828.87
615.84	43730.57
616.00	43971.64
616.15	43990.37
616.30	43374.81
616.46	44257.19
616.61	43840.57
616.76	44109.74
616.92	43601.84
617.07	43473.11
617.22	43278.85
617.37	43672.06
617.53	43746.95
617.68	43430.98
617.83	43711.84
617.99	43517.58
618.14	43552.69
618.29	43454.39
618.45	43192.25
618.60	42817.76
618.75	43372.47
618.90	43480.13
619.06	43533.96
619.21	43714.19
619.36	43510.56
619.51	43344.38
619.67	43239.06
619.82	43250.76
619.97	43325.66
620.12	42976.92
620.28	43026.07
620.43	43100.97
620.58	42958.19
620.73	43222.67
620.89	42731.16
621.04	43051.81
621.19	43524.60
621.34	42782.65
621.49	42899.68
621.65	42916.06
621.80	43386.51
621.95	43168.84
622.10	42707.76
622.25	42869.25
622.41	42632.86
622.56	42941.81
622.71	43147.78
622.86	43037.77
623.01	42845.85
623.16	42658.60
623.32	43147.78
623.47	43187.56
623.62	42726.48
623.77	42384.76
623.92	42747.54
624.07	42146.03
624.23	41867.50
624.38	42213.90
624.53	42394.12
624.68	42532.22
624.83	42733.50
624.98	42515.83
625.13	42412.85
625.29	42508.81
625.44	42160.07
625.59	42265.39
625.74	42199.86
625.89	41839.42
626.04	41965.81
626.19	42080.49
626.34	42139.00
626.49	41937.72
626.65	41998.57
626.80	42307.52
626.95	41977.51
627.10	41851.12
627.25	41698.98
627.40	41586.64
627.55	41228.54
627.70	41109.17
627.85	41240.24
628.00	41670.90
628.15	41818.35
628.30	41668.56
628.45	41881.55
628.60	41413.44
628.76	41785.58
628.91	41797.29
629.06	41862.82
629.21	41558.55
629.36	41841.76
629.51	41535.15
629.66	41682.60
629.81	41132.57
629.96	41593.66
630.11	41500.04
630.26	41596.00
630.41	41703.67
630.56	41310.46
630.71	41368.97
630.86	41404.08
631.01	41003.85
631.16	41071.72
631.31	40828.30
631.46	40678.51
631.61	41317.48
631.76	41184.07
631.91	41296.41
632.06	41645.15
632.21	41111.51
632.36	41392.37
632.51	41310.46
632.66	41324.50
632.81	40432.75
632.96	40924.27
633.10	41015.55
633.25	40474.88
633.40	40631.70
633.55	40896.18
633.70	40713.62
633.85	40559.14
634.00	40631.70
634.15	40940.65
634.30	40795.54
634.45	41062.36
634.60	40404.67
634.75	40467.86
634.90	41053.00
635.05	40786.18
635.19	40816.60
635.34	40491.27
635.49	40507.65
635.64	40631.70
635.79	40418.71
635.94	40507.65
636.09	40437.44
636.24	40091.04
636.39	40261.90
636.53	40018.48
636.68	40079.33
636.83	40072.31
636.98	40343.81
637.13	39910.82
637.28	40692.55
637.43	40306.37
637.57	40172.96
637.72	40187.00
637.87	40641.06
638.02	40053.59
638.17	40215.08
638.32	39896.77
638.46	40189.34
638.61	40210.40
638.76	39526.97
638.91	40346.15
639.06	39826.56
639.20	39807.83
639.35	39793.79
639.50	39447.39
639.65	40112.10
639.80	40081.67
639.94	39927.20
640.09	39627.61
640.24	39557.39
640.39	39452.07
640.54	39660.38
640.68	39651.02
640.83	39613.57
640.98	39700.17
641.13	39627.61
641.27	39344.41
641.42	39129.08
641.57	39578.46
641.72	40079.33
641.86	39005.03
642.01	39180.57
642.16	39271.85
642.31	38761.61
642.45	39468.45
642.60	39210.99
642.75	38930.13
642.90	39103.33
643.04	38871.62
643.19	39503.56
643.34	38965.24
643.48	39442.71
643.63	39079.92
643.78	39061.20
643.93	39115.03
644.07	39299.94
644.22	39374.83
644.37	38550.96
644.51	39070.56
644.66	38911.41
644.81	38981.62
644.95	39384.19
645.10	39187.59
645.25	38981.62
645.39	39199.29
645.54	39267.17
645.69	38733.53
645.83	39236.74
645.98	38572.03
646.13	38932.47
646.27	39328.02
646.42	38862.26
646.57	38604.80
646.71	38607.14
646.86	38684.37
647.00	38560.33
647.15	38815.44
647.30	38415.21
647.44	38185.84
647.59	38653.95
647.74	38417.55
647.88	38256.06
648.03	38169.46
648.17	38532.24
648.32	37860.51
648.47	37923.70
648.61	38277.12
648.76	38410.53
648.90	38471.39
649.05	38270.10
649.20	38649.27
649.34	38543.94
649.49	38106.26
649.63	38291.16
649.78	38625.86
649.92	38087.54
650.07	38108.60
650.21	38012.64
650.36	38124.99
650.51	37497.72
650.65	38529.90
650.80	38614.16
650.94	38281.80
651.09	38080.52
651.23	37904.98
651.38	38169.46
651.52	38106.26
651.67	37977.53
651.81	37570.28
651.96	37488.36
652.10	37888.59
652.25	37696.67
652.39	37670.92
652.54	37860.51
652.68	37888.59
652.83	37689.65
652.97	37883.91
653.12	37635.81
653.26	37675.60
653.41	37766.88
653.55	37706.03
653.70	37420.48
653.84	37876.89
653.99	37366.65
654.13	37457.93
654.27	37371.33
654.42	37858.17
654.56	37434.53
654.71	37539.85
654.85	37544.53
655.00	37401.76
655.14	36985.15
655.29	37067.06
655.43	37371.33
655.57	36987.49
655.72	36666.83
655.86	36809.61
656.01	36769.82
656.15	36751.09
656.30	36863.44
656.44	36933.65
656.58	36823.65
656.73	36781.52
656.87	36498.31
657.01	36985.15
657.16	36683.22
657.30	36299.37
657.45	36247.88
657.59	36863.44
657.73	36493.63
657.88	36643.43
658.02	36816.63
658.16	36407.03
658.31	36699.60
658.45	36762.79
658.60	36708.96
658.74	36521.72
658.88	36769.82
659.03	36201.07
659.17	36381.29
659.31	36095.74
659.46	35948.29
659.60	35927.22
659.74	35789.13
659.89	35885.09
660.03	36385.97
660.17	35629.98
660.32	36196.38
660.46	35969.35
660.60	36275.96
660.74	35983.40
660.89	35679.13
661.03	35477.84
661.17	35840.62
661.32	35604.23
661.46	35353.79
661.60	35672.10
661.74	35456.78
661.89	35297.62
662.03	35824.24
662.17	35012.07
662.31	35704.87
662.46	35501.25
662.60	35360.81
662.74	35126.76
662.88	35122.08
663.03	35012.07
663.17	35295.28
663.31	35274.21
663.45	35108.04
663.60	35196.98
663.74	34520.56
663.88	34515.88
664.02	34787.38
664.17	34724.19
664.31	34103.95
664.45	34801.43
664.59	34436.30
664.73	34749.93
664.88	34827.17
665.02	34511.20
665.16	34740.57
665.30	34677.38
665.44	34827.17
665.59	34022.03
665.73	34511.20
665.87	34279.49
666.01	33996.28
666.15	34321.62
666.29	34401.19
666.44	34251.40
666.58	34230.33
666.72	34132.03
666.86	34129.69
667.00	34265.44
667.14	33951.81
667.28	33928.41
667.43	33649.88
667.57	33195.82
667.71	33773.93
667.85	33455.62
667.99	33432.21
668.13	33153.69
668.27	33362.00
668.41	33397.10
668.56	32896.23
668.70	33095.18
668.84	33221.56
668.98	32957.08
669.12	33017.94
669.26	33153.69
669.40	32945.38
669.54	32790.91
669.68	33074.11
669.82	32849.42
669.96	32510.04
670.10	32465.57
670.25	32753.46
670.39	32484.30
670.53	32706.65
670.67	32533.45
670.81	32484.30
670.95	32456.21
671.09	32664.52
671.23	31868.73
671.37	32606.00
671.51	32210.45
671.65	31889.80
671.79	31983.42
671.93	31868.73
672.07	31840.65
672.21	32170.66
672.35	32205.77
672.49	32018.53
672.63	32034.91
672.77	31660.43
672.91	31674.47
673.05	31571.49
673.19	31681.49
673.33	31510.63
673.47	31269.56
673.61	30976.99
673.75	31007.42
673.89	30913.80
674.03	30611.87
674.17	30632.93
674.31	30567.40
674.45	30897.41
674.59	30609.53
674.73	30761.66
674.87	30522.93
675.01	30611.87
675.15	31290.62
675.29	30614.21
675.43	30532.29
675.56	30265.47
675.70	30518.25
675.84	30085.25
675.98	29186.48
676.12	30141.42
676.26	29689.70
676.40	29537.56
676.54	29610.12
676.68	29521.18
676.82	29301.17
676.96	29532.88
677.10	29369.04
677.23	29518.84
677.37	29497.77
677.51	28882.21
677.65	29123.29
677.79	28809.65
677.93	28797.95
678.07	29099.88
678.21	28870.51
678.34	28671.56
678.48	28339.21
678.62	28533.47
678.76	28257.29
678.90	27885.14
679.04	28091.11
679.18	28091.11
679.31	27960.04
679.45	27744.71
679.59	27936.63
679.73	27651.09
679.87	27725.99
680.00	27866.42
680.14	27772.80
680.28	27791.52
680.42	27316.39
680.56	27168.94
680.70	27213.41
680.83	27108.08
680.97	26843.60
681.11	26735.94
681.25	26693.81
681.39	26616.57
681.52	26614.23
681.66	26391.88
681.80	26176.55
681.94	26560.40
682.07	26307.62
682.21	26551.04
682.35	26529.97
682.49	26490.18
682.62	26625.93
682.76	25914.41
682.90	26141.44
683.04	25879.30
683.17	26026.76
683.31	25720.15
683.45	25860.58
683.59	25504.82
683.72	25266.08
683.86	25158.42
684.00	25362.04
684.13	25443.96
684.27	24994.58
684.41	24716.06
684.55	24767.55
684.68	24533.50
684.82	24517.11
684.96	24678.61
685.09	24465.62
685.23	24168.37
685.37	24276.04
685.50	24269.01
685.64	24409.45
685.78	24360.30
685.91	24264.33
686.05	24151.99
686.19	23859.42
686.32	24229.23
686.46	23428.76
686.60	23571.54
686.73	23318.76
686.87	23129.17
687.01	23152.58
687.14	23351.52
687.28	23435.78
687.42	23068.32
687.55	23049.60
687.69	22836.61
687.82	22897.46
687.96	22899.80
688.10	22644.68
688.23	22452.76
688.37	22422.33
688.50	22199.98
688.64	22209.34
688.78	22525.32
688.91	21989.33
689.05	21898.05
689.18	21862.94
689.32	21652.30
689.46	21982.31
689.59	22164.87
689.73	22235.09
689.86	21469.73
690.00	21483.78
690.13	21811.45
690.27	21486.12
690.41	21366.75
690.54	21343.35
690.68	20985.24
690.81	20952.48
690.95	20872.90
691.08	21123.33
691.22	21018.01
691.35	20688.00
691.49	20678.63
691.62	20800.34
691.76	21095.25
691.89	20872.90
692.03	20311.17
692.16	20430.54
692.30	20343.94
692.43	20189.46
692.57	19997.54
692.70	20042.01
692.84	20081.80
692.97	19829.02
693.11	19653.48
693.24	19557.52
693.38	19281.33
693.51	19421.77
693.65	19484.96
693.78	19461.55
693.92	19253.25
694.05	19286.01
694.19	18876.42
694.32	19323.46
694.45	19143.24
694.59	19056.64
694.72	18787.48
694.86	18862.38
694.99	18384.91
695.13	18361.50
695.26	18174.26
695.39	18125.11
695.53	18279.58
695.66	18380.23
695.80	18197.67
695.93	17926.16
696.07	17853.61
696.20	17963.61
696.33	18003.40
696.47	18045.53
696.60	17888.71
696.73	17989.36
696.87	17486.14
697.00	17516.57
697.14	17493.16
697.27	17331.67
697.40	17444.01
697.54	17181.87
697.67	17219.32
697.80	17067.19
697.94	17069.53
698.07	17242.73
698.21	16879.94
698.34	16933.78
698.47	16868.24
698.61	16489.07
698.74	16318.22
698.87	16423.54
699.01	16484.39
699.14	16257.36
699.27	16449.28
699.40	16217.57
699.54	16044.37
699.67	16095.86
699.80	16210.55
699.94	16201.19
700.07	16126.29
700.20	15613.71
700.34	15815.00
700.47	15571.58
700.60	15948.41
700.73	15740.10
700.87	15499.03
701.00	15323.49
701.13	15283.70
701.26	15648.82
701.40	15470.94
701.53	15026.24
701.66	15374.98
701.79	15274.34
701.93	14956.02
702.06	14862.40
702.19	14930.28
702.32	14897.51
702.46	14719.63
702.59	14710.27
702.72	14815.59
702.85	14546.43
702.99	14527.71
703.12	14504.30
703.25	14361.53
703.38	14576.86
703.51	14134.50
703.65	14361.53
703.78	14244.50
703.91	14083.00
704.04	13989.38
704.17	14157.90
704.31	13657.03
704.44	13547.02
704.57	13839.59
704.70	13579.79
704.83	13523.62
704.96	13727.24
705.10	13486.17
705.23	13657.03
>>>>>End Processed Spectral Data<<<<<
