SpectraSuite Data File
++++++++++++++++++++++++++++++++++++
Date: Fri Oct 25 10:47:27 EDT 2013
User: price-jones
Dark Spectrum Present: No
Reference Spectrum Present: No
Number of Sampled Component Spectra: 1
Spectrometers: USB2+H05261
Integration Time (usec): 100000 (USB2+H05261)
Spectra Averaged: 1 (USB2+H05261)
Boxcar Smoothing: 0 (USB2+H05261)
Correct for Electrical Dark: No (USB2+H05261)
Strobe/Lamp Enabled: No (USB2+H05261)
Correct for Detector Non-linearity: No (USB2+H05261)
Correct for Stray Light: No (USB2+H05261)
Number of Pixels in Processed Spectrum: 2048
>>>>>Begin Processed Spectral Data<<<<<
365.73	166.18
365.92	166.18
366.12	166.18
366.32	102.98
366.52	72.56
366.72	32.77
366.91	25.75
367.11	16.38
367.31	0.00
367.51	0.00
367.70	0.00
367.90	32.77
368.10	14.04
368.30	42.13
368.49	102.98
368.69	21.06
368.89	32.77
369.09	35.11
369.28	91.28
369.48	126.39
369.68	81.92
369.87	161.50
370.07	156.82
370.27	175.54
370.47	255.12
370.66	341.72
370.86	386.19
371.06	451.72
371.25	381.51
371.45	407.25
371.65	407.25
371.84	451.72
372.04	461.09
372.24	505.56
372.44	468.11
372.63	496.19
372.83	465.77
373.03	510.24
373.22	430.66
373.42	454.06
373.62	517.26
373.81	540.66
374.01	568.75
374.21	561.73
374.40	540.66
374.60	557.05
374.79	552.37
374.99	599.18
375.19	564.07
375.38	538.32
375.58	538.32
375.78	538.32
375.97	587.47
376.17	594.50
376.37	477.47
376.56	594.50
376.76	554.71
376.95	580.45
377.15	580.45
377.35	648.33
377.54	587.47
377.74	589.82
377.93	603.86
378.13	653.01
378.33	622.58
378.52	601.52
378.72	674.07
378.91	641.31
379.11	638.97
379.31	580.45
379.50	608.54
379.70	641.31
379.89	676.41
380.09	638.97
380.28	615.56
380.48	636.63
380.68	660.03
380.87	627.26
381.07	629.60
381.26	695.14
381.46	610.88
381.65	690.46
381.85	638.97
382.04	711.52
382.24	664.71
382.43	667.05
382.63	655.35
382.83	760.67
383.02	695.14
383.22	692.80
383.41	671.73
383.61	727.91
383.80	779.40
384.00	704.50
384.19	723.23
384.39	702.16
384.58	746.63
384.78	826.21
384.97	791.10
385.17	716.20
385.36	833.23
385.56	875.36
385.75	772.38
385.95	730.25
386.14	798.12
386.34	718.54
386.53	751.31
386.72	795.78
386.92	819.19
387.11	835.57
387.31	770.04
387.50	732.59
387.70	788.76
387.89	854.30
388.09	791.10
388.28	884.72
388.48	816.85
388.67	823.87
388.86	851.96
389.06	851.96
389.25	910.47
389.45	849.61
389.64	847.27
389.84	851.96
390.03	908.13
390.22	889.40
390.42	875.36
390.61	816.85
390.81	976.00
391.00	931.53
391.19	938.55
391.39	936.21
391.58	866.00
391.78	973.66
391.97	889.40
392.16	870.68
392.36	943.24
392.55	990.05
392.75	924.51
392.94	978.34
393.13	940.90
393.33	931.53
393.52	992.39
393.71	940.90
393.91	1064.94
394.10	978.34
394.29	1074.31
394.49	1008.77
394.68	1027.50
394.88	1102.39
395.07	1116.44
395.26	1055.58
395.46	1050.90
395.65	1081.33
395.84	1135.16
396.04	1240.48
396.23	1088.35
396.42	1006.43
396.62	1121.12
396.81	1174.95
397.00	1132.82
397.19	1137.50
397.39	1156.22
397.58	1123.46
397.77	1228.78
397.97	1273.25
398.16	1277.93
398.35	1287.29
398.55	1252.19
398.74	1179.63
398.93	1336.45
399.12	1322.40
399.32	1245.16
399.51	1303.68
399.70	1261.55
399.90	1355.17
400.09	1299.00
400.28	1362.19
400.47	1315.38
400.67	1504.96
400.86	1437.09
401.05	1404.32
401.24	1444.11
401.44	1420.71
401.63	1437.09
401.82	1469.86
402.01	1394.96
402.21	1425.39
402.40	1490.92
402.59	1369.21
402.78	1481.56
402.97	1455.81
403.17	1540.07
403.36	1568.16
403.55	1533.05
403.74	1617.31
403.93	1533.05
404.13	1593.90
404.32	1610.29
404.51	1717.95
404.70	1570.50
404.89	1614.97
405.09	1650.08
405.28	1673.48
405.47	1612.63
405.66	1778.81
405.85	1596.25
406.05	1699.23
406.24	1645.40
406.43	1743.70
406.62	1720.29
406.81	1767.10
407.00	1802.21
407.20	1834.98
407.39	1853.70
407.58	1827.96
407.77	1865.41
407.96	1923.92
408.15	1959.03
408.34	1834.98
408.54	1991.80
408.73	1928.60
408.92	1947.33
409.11	1973.07
409.30	2019.88
409.49	2005.84
409.68	2001.16
409.87	2064.35
410.07	2092.44
410.26	2019.88
410.45	2054.99
410.64	2155.63
410.83	2172.02
411.02	2150.95
411.21	2176.70
411.40	2134.57
411.59	2176.70
411.78	2190.74
411.98	2246.91
412.17	2331.17
412.36	2260.96
412.55	2394.37
412.74	2303.09
412.93	2420.11
413.12	2319.47
413.31	2471.61
413.50	2349.90
413.69	2518.42
413.88	2434.16
414.07	2480.97
414.26	2520.76
414.45	2567.57
414.64	2574.59
414.83	2637.78
415.02	2619.06
415.22	2658.85
415.41	2785.24
415.60	2651.83
415.79	2712.68
415.98	2738.43
416.17	2766.51
416.36	2794.60
416.55	2757.15
416.74	2857.79
416.93	2895.24
417.12	2895.24
417.31	2832.05
417.50	2843.75
417.69	2874.18
417.88	2979.50
418.07	3049.72
418.26	2904.60
418.45	2958.44
418.64	3173.77
418.83	3038.02
419.02	3098.87
419.21	3169.09
419.39	3171.43
419.58	3148.02
419.77	3119.93
419.96	3136.32
420.15	3251.00
420.34	3185.47
420.53	3246.32
420.72	3309.52
420.91	3372.71
421.10	3372.71
421.29	3330.58
421.48	3356.33
421.67	3431.23
421.86	3351.65
422.05	3447.61
422.24	3382.07
422.43	3274.41
422.61	3365.69
422.80	3475.70
422.99	3363.35
423.18	3592.72
423.37	3627.83
423.56	3440.59
423.75	3372.71
423.94	3384.41
424.13	3265.05
424.32	3368.03
424.50	3407.82
424.69	3548.25
424.88	3623.15
425.07	3501.44
425.26	3377.39
425.45	3506.12
425.64	3435.91
425.83	3531.87
426.01	3562.30
426.20	3527.19
426.39	3576.34
426.58	3501.44
426.77	3482.72
426.96	3557.61
427.15	3581.02
427.33	3646.55
427.52	3723.79
427.71	3618.47
427.90	3688.68
428.09	3637.19
428.28	3763.58
428.46	3592.72
428.65	3672.30
428.84	3871.25
429.03	3824.44
429.22	3695.71
429.40	3672.30
429.59	3698.05
429.78	3506.12
429.97	3520.17
430.16	3576.34
430.34	3698.05
430.53	3920.40
430.72	3885.29
430.91	3833.80
431.10	3864.22
431.28	3962.53
431.47	4030.40
431.66	3955.51
431.85	4025.72
432.03	4023.38
432.22	4201.26
432.41	4072.53
432.60	4285.52
432.79	4156.79
432.97	4184.88
433.16	4124.02
433.35	4114.66
433.54	4201.26
433.72	4299.56
433.91	4109.98
434.10	4203.60
434.28	4273.82
434.47	4161.47
434.66	4322.97
434.85	4388.50
435.03	4248.07
435.22	4362.76
435.41	4432.97
435.59	4634.26
435.78	4498.51
435.97	4407.23
436.16	4538.30
436.34	4636.60
436.53	4573.41
436.72	4510.21
436.90	4444.68
437.09	4533.62
437.28	4432.97
437.46	4636.60
437.65	4582.77
437.84	4741.93
438.02	4706.82
438.21	4683.41
438.40	4645.96
438.58	4699.80
438.77	4840.23
438.96	4802.78
439.14	4819.16
439.33	4765.33
439.52	5081.30
439.70	5060.24
439.89	5135.14
440.08	5071.94
440.26	5085.98
440.45	5020.45
440.63	5195.99
440.82	5247.48
441.01	5139.82
441.19	5221.74
441.38	5439.40
441.57	5357.49
441.75	5378.55
441.94	5497.92
442.12	5418.34
442.31	5511.96
442.50	5593.88
442.68	5830.27
442.87	5582.18
443.05	5596.22
443.24	5654.73
443.43	5575.16
443.61	5561.11
443.80	5834.96
443.98	5387.91
444.17	5317.70
444.35	5579.84
444.54	5760.06
444.73	5832.62
444.91	5783.46
445.10	5783.46
445.28	5565.79
445.47	5746.02
445.65	5729.63
445.84	5703.89
446.02	5757.72
446.21	5851.34
446.39	5795.17
446.58	5767.08
446.77	5874.74
446.95	5846.66
447.14	5949.64
447.32	5977.73
447.51	6001.13
447.69	5652.39
447.88	5987.09
448.06	5921.56
448.25	6001.13
448.43	5834.96
448.62	5736.65
448.80	5942.62
448.99	6061.99
449.17	5905.17
449.36	6022.20
449.54	5973.05
449.73	6139.23
449.91	6164.97
450.10	6277.32
450.28	6244.55
450.46	6363.92
450.65	6328.81
450.83	6413.07
451.02	6221.14
451.20	6326.47
451.39	6228.17
451.57	6284.34
451.76	6480.94
451.94	6455.20
452.13	6312.42
452.31	6363.92
452.49	6293.70
452.68	6422.43
452.86	6406.05
453.05	6436.47
453.23	6450.52
453.42	6452.86
453.60	6635.42
453.78	6565.20
453.97	6480.94
454.15	6541.80
454.34	6462.22
454.52	6733.72
454.70	6541.80
454.89	6490.31
455.07	6590.95
455.26	6548.82
455.44	6757.13
455.62	6820.32
455.81	6722.02
455.99	6897.56
456.17	6911.60
456.36	6895.22
456.54	6918.62
456.73	7101.19
456.91	7286.09
457.09	7208.85
457.28	7105.87
457.46	7021.61
457.64	7206.51
457.83	7002.88
458.01	7052.03
458.19	7346.94
458.38	6981.82
458.56	7279.07
458.74	7269.70
458.93	7220.55
459.11	7375.03
459.29	7248.64
459.48	7386.73
459.66	7386.73
459.84	7339.92
460.03	7700.36
460.21	7475.67
460.39	7438.22
460.57	7428.86
460.76	7524.82
460.94	7602.06
461.12	7705.04
461.31	7583.34
461.49	7564.61
461.67	7599.72
461.85	7817.39
462.04	7861.86
462.22	8269.11
462.40	7700.36
462.59	7702.70
462.77	7852.50
462.95	8004.63
463.13	7873.56
463.32	7730.79
463.50	7906.33
463.68	7793.98
463.86	8053.78
464.05	7929.74
464.23	7875.90
464.41	8215.28
464.59	7850.16
464.78	8049.10
464.96	8102.93
465.14	8105.28
465.32	8269.11
465.50	8201.24
465.69	8219.96
465.87	8095.91
466.05	7985.91
466.23	8191.88
466.41	8229.32
466.60	8526.57
466.78	8297.20
466.96	8177.83
467.14	8362.73
467.32	8269.11
467.51	8456.36
467.69	8100.59
467.87	8603.81
468.05	8388.48
468.23	8259.75
468.41	8521.89
468.60	8446.99
468.78	8390.82
468.96	8496.14
469.14	8461.04
469.32	8784.03
469.50	8479.76
469.69	8645.94
469.87	8706.79
470.05	8851.91
470.23	8826.16
470.41	8809.78
470.59	8898.72
470.77	8720.84
470.95	9064.89
471.14	9074.26
471.32	8772.33
471.50	9032.13
471.68	8982.98
471.86	9114.05
472.04	9165.54
472.22	9144.47
472.40	9219.37
472.58	9102.34
472.77	9362.14
472.95	9516.62
473.13	9699.18
473.31	9446.40
473.49	9254.48
473.67	9355.12
473.85	9544.70
474.03	9710.88
474.21	9977.70
474.39	9879.40
474.57	9942.60
474.75	10015.15
474.93	9968.34
475.12	9937.91
475.30	9851.31
475.48	10115.80
475.66	10134.52
475.84	10097.07
476.02	10097.07
476.20	10296.02
476.38	10237.50
476.56	10736.04
476.74	10485.60
476.92	10590.92
477.10	10340.49
477.28	10836.68
477.46	10810.93
477.64	10848.38
477.82	10834.34
478.00	11232.23
478.18	11229.89
478.36	11138.61
478.54	11314.15
478.72	11438.20
478.90	11360.96
479.08	11686.29
479.26	11609.06
479.44	11698.00
479.62	11655.87
479.80	11763.53
479.98	11812.68
480.16	12170.79
480.34	11864.18
480.52	12154.40
480.70	11962.48
480.88	12320.58
481.06	12589.74
481.24	12451.65
481.41	12875.29
481.59	12762.94
481.77	12760.60
481.95	12868.27
482.13	13074.23
482.31	13158.49
482.49	13319.99
482.67	13261.48
482.85	13228.71
483.03	13617.24
483.21	13453.40
483.39	13701.50
483.57	13755.33
483.74	13912.14
483.92	14317.06
484.10	13898.10
484.28	14174.28
484.46	14499.62
484.64	14630.69
484.82	14431.74
485.00	14780.48
485.18	14855.38
485.35	15002.83
485.53	14981.77
485.71	14661.12
485.89	15105.82
486.07	15056.67
486.25	15059.01
486.43	15194.76
486.61	15562.22
486.78	15683.93
486.96	15630.10
487.14	15992.88
487.32	16276.09
487.50	16266.72
487.68	16416.52
487.85	16622.48
488.03	16365.03
488.21	16669.30
488.39	16730.15
488.57	16933.78
488.75	17123.36
488.92	17273.15
489.10	17184.21
489.28	17441.67
489.46	17589.13
489.64	17720.20
489.81	18057.23
489.99	18148.51
490.17	18181.28
490.35	18441.08
490.53	18300.65
490.70	18757.05
490.88	18431.72
491.06	18686.84
491.24	18689.18
491.41	18747.69
491.59	18965.36
491.77	18913.87
491.95	18883.44
492.13	19381.98
492.30	19358.57
492.48	19676.88
492.66	19557.52
492.84	19660.50
493.01	19515.39
493.19	19946.05
493.37	20266.70
493.54	20236.27
493.72	20255.00
493.90	20315.85
494.08	20493.73
494.25	21184.19
494.43	20779.28
494.61	20961.84
494.79	20919.71
494.96	21249.72
495.14	21390.16
495.32	21322.28
495.49	21446.33
495.67	21495.48
495.85	21736.56
496.02	22075.93
496.20	22146.15
496.38	21965.93
496.55	22181.26
496.73	22525.32
496.91	22511.27
497.09	22492.55
497.26	22614.26
497.44	22572.13
497.62	22885.76
497.79	23068.32
497.97	22930.23
498.14	22906.82
498.32	23208.75
498.50	23410.04
498.67	23435.78
498.85	23447.49
499.03	23536.43
499.20	23676.86
499.38	23702.61
499.56	23974.11
499.73	23859.42
499.91	24135.60
500.08	24425.83
500.26	24231.57
500.44	24521.79
500.61	24456.26
500.79	24563.92
500.97	24503.07
501.14	24741.80
501.32	24849.47
501.49	24786.27
501.67	25153.74
501.84	25174.80
502.02	25064.80
502.20	25034.37
502.37	25305.87
502.55	25364.39
502.72	25448.64
502.90	25364.39
503.07	25706.10
503.25	26141.44
503.43	25727.17
503.60	25820.79
503.78	25778.66
503.95	25640.57
504.13	26082.93
504.30	26710.19
504.48	26338.05
504.65	26529.97
504.83	26291.24
505.01	26672.74
505.18	26588.49
505.36	27386.61
505.53	26714.87
505.71	27021.48
505.88	27154.90
506.06	26984.04
506.23	26787.43
506.41	27426.40
506.58	27042.55
506.76	27365.54
506.93	27316.39
507.11	27402.99
507.28	27702.58
507.46	27461.51
507.63	27363.20
507.81	27395.97
507.98	27735.35
508.16	27967.06
508.33	27976.42
508.50	28180.05
508.68	27964.72
508.85	28362.61
509.03	28121.54
509.20	28386.02
509.38	28519.43
509.55	28929.02
509.73	29186.48
509.90	28732.42
510.08	28606.03
510.25	28486.66
510.42	29118.60
510.60	28924.34
510.77	29090.52
510.95	29483.73
511.12	28856.46
511.30	29277.76
511.47	29399.47
511.64	29628.84
511.82	29577.35
511.99	29170.10
512.17	30127.38
512.34	29923.75
512.51	29837.15
512.69	29961.20
512.86	29909.71
513.04	30134.40
513.21	30286.53
513.38	30705.49
513.56	30396.54
513.73	30382.49
513.90	30464.41
514.08	30396.54
514.25	30775.70
514.43	31082.31
514.60	30639.95
514.77	30682.08
514.95	30644.63
515.12	30920.82
515.29	30785.07
515.47	31349.14
515.64	31339.77
515.81	31150.19
515.99	31302.32
516.16	31157.21
516.33	31421.69
516.51	31309.35
516.68	31370.20
516.85	31349.14
517.03	31597.23
517.20	31709.58
517.37	31522.34
517.54	31618.30
517.72	32032.57
517.89	32018.53
518.06	31702.56
518.24	31948.31
518.41	32034.91
518.58	32126.19
518.75	32236.20
518.93	32435.14
519.10	32114.49
519.27	32624.73
519.45	32238.54
519.62	32844.74
519.79	32793.25
519.96	32914.95
520.14	33039.00
520.31	33111.56
520.48	33200.50
520.65	32877.51
520.83	33130.28
521.00	33127.94
521.17	33088.15
521.34	33642.86
521.52	33450.94
521.69	33488.38
521.86	33394.76
522.03	33565.62
522.20	33277.74
522.38	33603.07
522.55	34143.74
522.72	34057.14
522.89	33844.15
523.07	33855.85
523.24	34132.03
523.41	33949.47
523.58	34075.86
523.75	34218.63
523.92	34340.34
524.10	34314.59
524.27	34515.88
524.44	34473.75
524.61	34782.70
524.78	34658.65
524.96	35042.50
525.13	34588.44
525.30	35098.67
525.47	35091.65
525.64	35311.66
525.81	35119.74
525.98	35129.10
526.16	34562.69
526.33	34962.92
526.50	35124.42
526.67	34632.91
526.84	35058.88
527.01	35227.40
527.18	35386.56
527.36	35686.15
527.53	35372.52
527.70	35601.89
527.87	35887.43
528.04	35672.10
528.21	35913.18
528.38	35611.25
528.55	35775.09
528.72	35910.84
528.89	35945.95
529.07	36322.77
529.24	35892.12
529.41	36233.83
529.58	36336.82
529.75	35892.12
529.92	36453.84
530.09	36053.61
530.26	36477.25
530.43	36528.74
530.60	36243.20
530.77	36500.65
530.94	36968.76
531.11	36840.03
531.28	36795.56
531.46	36624.70
531.63	36488.95
531.80	36863.44
531.97	37029.62
532.14	37352.61
532.31	36807.26
532.48	36786.20
532.65	37364.31
532.82	37008.55
532.99	37436.87
533.16	37233.24
533.33	37294.10
533.50	37766.88
533.67	37619.43
533.84	37446.23
534.01	37598.37
534.18	37319.84
534.35	37731.78
534.52	37399.42
534.69	37368.99
534.86	38139.03
535.03	37497.72
535.20	37844.12
535.37	38593.09
535.54	38373.08
535.71	37673.26
535.88	37972.85
536.05	38312.23
536.22	38204.56
536.38	37989.24
536.55	38431.60
536.72	37989.24
536.89	38279.46
537.06	38312.23
537.23	38841.19
537.40	37975.19
537.57	38527.56
537.74	38574.37
537.91	38932.47
538.08	38433.94
538.25	38220.95
538.42	38618.84
538.59	38653.95
538.75	38534.58
538.92	38873.96
539.09	38902.04
539.26	38789.70
539.43	39108.01
539.60	38782.68
539.77	39012.05
539.94	38693.74
540.11	38831.83
540.28	38782.68
540.44	39110.35
540.61	38787.36
540.78	38785.02
540.95	39278.87
541.12	39002.69
541.29	38740.55
541.46	39416.96
541.62	39386.54
541.79	39873.37
541.96	39147.80
542.13	39091.63
542.30	39405.26
542.47	39562.08
542.63	39550.37
542.80	40119.12
542.97	40046.57
543.14	40039.54
543.31	40205.72
543.48	40273.60
543.64	40552.12
543.81	40430.41
543.98	40521.69
544.15	40266.58
544.32	40292.32
544.48	40608.29
544.65	40437.44
544.82	40376.58
544.99	40030.18
545.16	40369.56
545.32	40444.46
545.49	40739.36
545.66	40524.04
545.83	40289.98
546.00	40861.07
546.16	40500.63
546.33	40603.61
546.50	40271.26
546.67	40678.51
546.83	40643.40
547.00	40582.55
547.17	40678.51
547.34	40861.07
547.50	41179.39
547.67	40856.39
547.84	40725.32
548.00	41476.63
548.17	41420.46
548.34	41256.62
548.51	41567.91
548.67	41296.41
548.84	41677.92
549.01	41570.25
549.18	41242.58
549.34	41256.62
549.51	41226.20
549.68	42148.37
549.84	41586.64
550.01	41918.99
550.18	41331.52
550.34	41532.81
550.51	41380.67
550.68	41366.63
550.84	41467.27
551.01	41661.54
551.18	41387.69
551.34	41731.75
551.51	41500.04
551.68	41897.93
551.84	41890.91
552.01	41757.50
552.18	41628.77
552.34	41230.88
552.51	42377.74
552.68	42328.59
552.84	41940.06
553.01	42508.81
553.18	42094.53
553.34	41921.34
553.51	41956.44
553.67	42124.96
553.84	42256.03
554.01	42660.94
554.17	42286.46
554.34	42469.02
554.51	42838.83
554.67	42405.83
554.84	42380.08
555.00	42120.28
555.17	42415.19
555.33	42560.30
555.50	42094.53
555.67	42206.88
555.83	42902.02
556.00	42609.45
556.16	42691.37
556.33	42363.70
556.50	43124.37
556.66	42637.54
556.83	42775.63
556.99	42953.51
557.16	42838.83
557.32	42782.65
557.49	42925.42
557.65	42415.19
557.82	42457.32
557.98	42443.27
558.15	42485.40
558.32	43126.71
558.48	43047.13
558.65	42916.06
558.81	42703.07
558.98	42850.53
559.14	42822.44
559.31	42553.28
559.47	43068.20
559.64	43606.52
559.80	43304.59
559.97	43098.62
560.13	43199.27
560.30	42878.61
560.46	43150.12
560.63	42829.46
560.79	43040.11
560.96	43489.49
561.12	43105.65
561.29	43515.24
561.45	43122.03
561.61	43255.44
561.78	43210.97
561.94	43056.50
562.11	43302.25
562.27	43489.49
562.44	43077.56
562.60	43084.58
562.77	43482.47
562.93	43765.68
563.10	43407.58
563.26	43098.62
563.42	43658.01
563.59	43283.53
563.75	43402.89
563.92	43791.42
564.08	43585.46
564.24	43580.78
564.41	43777.38
564.57	43346.72
564.74	43636.95
564.90	43828.87
565.07	43903.77
565.23	43648.65
565.39	42934.79
565.56	43342.04
565.72	43449.70
565.88	43681.42
566.05	43571.41
566.21	43711.84
566.38	43693.12
566.54	43473.11
566.70	43840.57
566.87	44100.37
567.03	43835.89
567.19	44179.95
567.36	43772.70
567.52	43512.90
567.68	44264.21
567.85	43859.30
568.01	43990.37
568.17	44142.50
568.34	44229.10
568.50	44067.61
568.66	43676.74
568.83	44198.68
568.99	43770.36
569.15	43772.70
569.32	43791.42
569.48	44168.25
569.64	44194.00
569.81	44065.27
569.97	44135.48
570.13	43875.68
570.30	43576.09
570.46	43936.54
570.62	43592.48
570.78	43477.79
570.95	44172.93
571.11	43866.32
571.27	43800.79
571.43	44165.91
571.60	44259.53
571.76	44250.17
571.92	43779.72
572.09	43751.63
572.25	44002.07
572.41	43674.40
572.57	44030.16
572.74	44350.81
572.90	44495.92
573.06	43711.84
573.22	44191.65
573.38	44219.74
573.55	43569.07
573.71	44533.37
573.87	43875.68
574.03	44116.76
574.20	44154.21
574.36	44135.48
574.52	44341.45
574.68	44133.14
574.84	44039.52
575.01	44076.97
575.17	44048.88
575.33	43842.92
575.49	43629.93
575.65	44484.22
575.82	44444.43
575.98	44116.76
576.14	44687.85
576.30	44189.31
576.46	44545.08
576.62	43772.70
576.79	44257.19
576.95	44123.78
577.11	44093.35
577.27	44507.63
577.43	44261.87
577.59	44140.16
577.75	44210.38
577.92	44126.12
578.08	43917.81
578.24	43941.22
578.40	44678.49
578.56	44219.74
578.72	44184.63
578.88	44425.71
579.04	44495.92
579.21	44414.01
579.37	44226.76
579.53	43817.17
579.69	43845.26
579.85	44477.20
580.01	44437.41
580.17	44385.92
580.33	44575.50
580.49	44222.08
580.65	44240.81
580.82	44526.35
580.98	44149.53
581.14	44191.65
581.30	44662.10
581.46	44313.36
581.62	44748.70
581.78	44465.50
581.94	44626.99
582.10	44137.82
582.26	44409.32
582.42	44259.53
582.58	44081.65
582.74	44130.80
582.90	44362.51
583.06	44348.47
583.22	44694.87
583.38	44533.37
583.54	44392.94
583.70	44254.85
583.86	43866.32
584.02	44083.99
584.18	44332.09
584.34	44601.25
584.50	44949.99
584.66	44170.59
584.82	44236.12
584.98	45020.20
585.14	44519.33
585.30	44282.94
585.46	44161.23
585.62	44205.70
585.78	44453.79
585.94	43777.38
586.10	44741.68
586.26	44147.18
586.42	44301.66
586.58	44514.65
586.74	44360.17
586.90	44186.97
587.06	44039.52
587.22	44472.52
587.38	44252.51
587.54	44875.09
587.70	44737.00
587.86	44467.84
588.02	44486.56
588.18	44896.16
588.34	44243.15
588.49	43969.30
588.65	44294.64
588.81	44488.90
588.97	44048.88
589.13	44414.01
589.29	44364.85
589.45	44622.31
589.61	44692.53
589.77	44465.50
589.93	44456.14
590.08	44624.65
590.24	45244.90
590.40	44694.87
590.56	44952.33
590.72	44980.42
590.88	45001.48
591.04	45034.25
591.20	44648.06
591.35	44636.36
591.51	44776.79
591.67	44765.09
591.83	44596.57
591.99	44491.24
592.15	44828.28
592.31	44720.62
592.46	44652.74
592.62	44437.41
592.78	44818.92
592.94	44996.80
593.10	44547.42
593.26	44481.88
593.41	44783.81
593.57	44706.57
593.73	44722.96
593.89	44942.97
594.05	44659.76
594.20	44982.76
594.36	44966.37
594.52	44715.93
594.68	45118.51
594.84	44428.05
594.99	44919.56
595.15	45006.16
595.31	44910.20
595.47	45205.11
595.62	44940.63
595.78	45097.44
595.94	44975.73
596.10	45088.08
596.25	44788.49
596.41	45134.89
596.57	44945.31
596.73	45242.56
596.88	44797.85
597.04	44371.88
597.20	45214.47
597.36	44821.26
597.51	45024.89
597.67	44741.68
597.83	44863.39
597.99	45106.80
598.14	45003.82
598.30	44594.23
598.46	44828.28
598.61	44879.77
598.77	44531.03
598.93	44435.07
599.09	44481.88
599.24	45364.26
599.40	45048.29
599.56	45064.67
599.71	44821.26
599.87	45441.50
600.03	44938.29
600.18	45315.11
600.34	45263.62
600.50	44608.27
600.65	44933.60
600.81	44896.16
600.97	45579.59
601.12	45230.85
601.28	45280.00
601.44	45165.32
601.59	44837.64
601.75	44776.79
601.91	44973.39
602.06	44435.07
602.22	44802.53
602.37	44837.64
602.53	44570.82
602.69	45034.25
602.84	44898.50
603.00	45017.86
603.16	44524.01
603.31	45090.42
603.47	44531.03
603.62	45123.19
603.78	44823.60
603.94	45305.75
604.09	45249.58
604.25	45310.43
604.40	44947.65
604.56	44645.72
604.71	44662.10
604.87	44563.80
605.03	44896.16
605.18	44973.39
605.34	45095.10
605.49	44734.66
605.65	44856.37
605.80	44568.48
605.96	44940.63
606.12	44980.42
606.27	45385.33
606.43	44734.66
606.58	44868.07
606.74	44425.71
606.89	44854.03
607.05	44697.21
607.20	45160.64
607.36	44905.52
607.51	45249.58
607.67	45235.53
607.82	44584.86
607.98	44636.36
608.13	44531.03
608.29	44554.44
608.44	44715.93
608.60	44236.12
608.75	44603.59
608.91	44093.35
609.06	44102.71
609.22	44704.23
609.37	44364.85
609.53	44713.59
609.68	44425.71
609.84	44744.02
609.99	44474.86
610.15	44268.89
610.30	44268.89
610.46	44254.85
610.61	44559.12
610.76	44385.92
610.92	44631.68
611.07	44172.93
611.23	44222.08
611.38	44280.60
611.54	43938.88
611.69	44114.42
611.84	44259.53
612.00	44381.24
612.15	43959.94
612.31	44528.69
612.46	44428.05
612.62	44194.00
612.77	43906.11
612.92	44236.12
613.08	43538.65
613.23	43756.32
613.39	43985.69
613.54	43868.66
613.69	43873.34
613.85	44020.80
614.00	43999.73
614.15	44294.64
614.31	44126.12
614.46	44339.11
614.62	43880.36
614.77	43641.63
614.92	43885.04
615.08	43608.86
615.23	43826.53
615.38	43955.26
615.54	43721.21
615.69	43592.48
615.84	43730.57
616.00	43714.19
616.15	43571.41
616.30	43751.63
616.46	43793.76
616.61	43049.47
616.76	43814.83
616.92	43913.13
617.07	43332.68
617.22	43246.08
617.37	43157.14
617.53	43835.89
617.68	43660.35
617.83	43636.95
617.99	43952.92
618.14	43695.46
618.29	43037.77
618.45	43409.92
618.60	43447.36
618.75	43456.73
618.90	43840.57
619.06	43878.02
619.21	43667.37
619.36	43548.01
619.51	43515.24
619.67	43519.92
619.82	43505.88
619.97	43442.68
620.12	42611.79
620.28	43166.50
620.43	42712.44
620.58	43065.86
620.73	42890.32
620.89	43196.93
621.04	43337.36
621.19	42731.16
621.34	43225.01
621.49	42784.99
621.65	43030.75
621.80	43075.22
621.95	42557.96
622.10	42740.52
622.25	43009.68
622.41	42506.47
622.56	42803.72
622.71	43297.57
622.86	42969.90
623.01	43007.34
623.16	42656.26
623.32	43019.05
623.47	42981.60
623.62	42742.86
623.77	42604.77
623.92	42843.51
624.07	42227.95
624.23	42073.47
624.38	42012.62
624.53	42160.07
624.68	42803.72
624.83	42068.79
624.98	42281.78
625.13	42480.72
625.29	42270.08
625.44	42176.45
625.59	41930.70
625.74	42010.28
625.89	41834.74
626.04	41436.84
626.19	42038.36
626.34	41998.57
626.49	42241.99
626.65	41876.86
626.80	42249.01
626.95	42192.84
627.10	41949.42
627.25	41516.42
627.40	41773.88
627.55	41490.68
627.70	41738.77
627.85	41387.69
628.00	41799.63
628.15	41886.23
628.30	41771.54
628.45	41823.03
628.60	41577.28
628.76	42167.09
628.91	41661.54
629.06	41832.39
629.21	41727.07
629.36	41792.61
629.51	41060.02
629.66	41291.73
629.81	41656.85
629.96	41280.03
630.11	41862.82
630.26	41450.89
630.41	41701.32
630.56	41455.57
630.71	41450.89
630.86	41237.90
631.01	41581.96
631.16	41502.38
631.31	40882.14
631.46	40584.89
631.61	41017.89
631.76	41088.10
631.91	40818.94
632.06	41069.38
632.21	41092.79
632.36	41221.52
632.51	41263.64
632.66	41048.32
632.81	40615.32
632.96	41118.53
633.10	40648.08
633.25	40755.75
633.40	40947.67
633.55	41294.07
633.70	40854.05
633.85	40971.08
634.00	41141.94
634.15	40374.24
634.30	40509.99
634.45	40540.42
634.60	40680.85
634.75	40739.36
634.90	40718.30
635.05	40708.94
635.19	40591.91
635.34	40776.81
635.49	40697.24
635.64	40540.42
635.79	40423.39
635.94	40683.19
636.09	40381.26
636.24	40091.04
636.39	40301.68
636.53	39854.64
636.68	39931.88
636.83	40446.80
636.98	40399.99
637.13	40072.31
637.28	40409.35
637.43	40451.48
637.57	40608.29
637.72	40395.31
637.87	39966.99
638.02	40287.64
638.17	40205.72
638.32	39234.40
638.46	39885.07
638.61	39786.77
638.76	39845.28
638.91	40172.96
639.06	39908.47
639.20	40573.19
639.35	40177.64
639.50	39922.52
639.65	40250.19
639.80	40191.68
639.94	39725.91
640.09	39372.49
640.24	39683.78
640.39	39791.45
640.54	39337.38
640.68	39636.97
640.83	39573.78
640.98	39744.64
641.13	39580.80
641.27	40018.48
641.42	39367.81
641.57	39819.53
641.72	39496.54
641.86	39257.81
642.01	39402.92
642.16	39206.31
642.31	38885.66
642.45	39480.16
642.60	39140.78
642.75	38976.94
642.90	39096.31
643.04	39658.04
643.19	39185.25
643.34	39452.07
643.48	39393.56
643.63	39311.64
643.78	38658.63
643.93	38553.30
644.07	38747.57
644.22	39005.03
644.37	38932.47
644.51	38831.83
644.66	38644.59
644.81	38918.43
644.95	39056.52
645.10	39063.54
645.25	38951.20
645.39	39138.44
645.54	38972.26
645.69	38801.40
645.83	38433.94
645.98	38932.47
646.13	38822.47
646.27	39021.41
646.42	38466.70
646.57	38920.77
646.71	38892.68
646.86	38717.14
647.00	38675.01
647.15	38471.39
647.30	39248.44
647.44	38550.96
647.59	38419.89
647.74	38391.81
647.88	38298.19
648.03	38305.21
648.17	38506.49
648.32	38171.80
648.47	38490.11
648.61	37816.04
648.76	38663.31
648.90	38396.49
649.05	38415.21
649.20	38129.67
649.34	38635.22
649.49	38148.39
649.63	38036.05
649.78	38433.94
649.92	37858.17
650.07	38637.56
650.21	37865.19
650.36	38251.38
650.51	38110.94
650.65	38801.40
650.80	38253.72
650.94	38270.10
651.09	38005.62
651.23	37521.13
651.38	37984.55
651.52	37439.21
651.67	37823.06
651.81	37886.25
651.96	37418.14
652.10	37799.65
652.25	37268.35
652.39	37809.01
652.54	37453.25
652.68	38260.74
652.83	37780.93
652.97	38181.16
653.12	37645.18
653.26	37591.34
653.41	38003.28
653.55	37331.54
653.70	37354.95
653.84	36964.08
653.99	37490.70
654.13	37617.09
654.27	37420.48
654.42	37771.57
654.56	37663.90
654.71	37212.18
654.85	37338.57
655.00	37254.31
655.14	37064.72
655.29	36687.90
655.43	37165.37
655.57	36545.12
655.72	36439.80
655.86	36861.10
656.01	36872.80
656.15	37202.82
656.30	37013.23
656.44	36989.83
656.58	36687.90
656.73	36713.64
656.87	36779.18
657.01	36779.18
657.16	36376.61
657.30	36187.02
657.45	36837.69
657.59	36650.45
657.73	36517.04
657.88	36931.31
658.02	36776.84
658.16	36905.57
658.31	36425.76
658.45	36851.73
658.60	36503.00
658.74	36442.14
658.88	36662.15
659.03	36329.80
659.17	36430.44
659.31	36070.00
659.46	35812.54
659.60	36137.87
659.74	36313.41
659.89	35779.77
660.03	35800.83
660.17	36191.70
660.32	35864.03
660.46	36189.36
660.60	36339.16
660.74	36128.51
660.89	35873.39
661.03	35849.99
661.17	35945.95
661.32	35164.21
661.46	35463.80
661.60	35262.51
661.74	35690.83
661.89	35524.65
662.03	35622.95
662.17	35435.71
662.31	35299.96
662.46	36016.16
662.60	35452.09
662.74	35508.27
662.88	35229.74
663.03	35321.02
663.17	34878.66
663.31	34473.75
663.45	35084.63
663.60	35133.78
663.74	34726.53
663.88	34923.13
664.02	34478.43
664.17	34768.66
664.31	34700.78
664.45	34658.65
664.59	34761.64
664.73	34834.19
664.88	34710.14
665.02	34085.22
665.16	34445.66
665.30	34714.83
665.44	34099.26
665.59	34010.32
665.73	33958.83
665.87	33888.62
666.01	34005.64
666.15	34295.87
666.29	34218.63
666.44	34211.61
666.58	34244.38
666.72	33972.88
666.86	34232.68
667.00	34015.01
667.14	33661.58
667.28	33546.90
667.43	33387.74
667.57	33584.35
667.71	33635.84
667.85	33127.94
667.99	33560.94
668.13	33464.98
668.27	33277.74
668.41	33579.67
668.56	33088.15
668.70	33242.63
668.84	33036.66
668.98	33308.16
669.12	32823.67
669.26	33083.47
669.40	32816.65
669.54	32620.05
669.68	33331.57
669.82	32718.35
669.96	32577.92
670.10	32217.47
670.25	32584.94
670.39	32648.13
670.53	32512.38
670.67	32327.48
670.81	32428.12
670.95	32833.04
671.09	32460.89
671.23	32416.42
671.37	32936.02
671.51	32072.36
671.65	32173.00
671.79	31688.51
671.93	32086.40
672.07	32208.11
672.21	31487.23
672.35	31810.22
672.49	31812.56
672.63	31519.99
672.77	31728.30
672.91	31552.76
673.05	31618.30
673.19	31646.38
673.33	31534.04
673.47	31363.18
673.61	30993.37
673.75	31058.91
673.89	31328.07
674.03	30731.23
674.17	30682.08
674.31	31232.11
674.45	30607.19
674.59	30738.26
674.73	30984.01
674.87	30717.19
675.01	30691.44
675.15	30801.45
675.29	30792.09
675.43	30775.70
675.56	30174.19
675.70	30338.02
675.84	30000.99
675.98	29352.66
676.12	29993.97
676.26	30132.06
676.40	30085.25
676.54	29689.70
676.68	30050.14
676.82	29071.79
676.96	29326.91
677.10	29165.42
677.23	29216.91
677.37	29434.58
677.51	29200.52
677.65	29032.00
677.79	29092.86
677.93	28720.71
678.07	28985.19
678.21	28257.29
678.34	28428.15
678.48	28879.87
678.62	28402.40
678.76	28386.02
678.90	28411.76
679.04	28170.69
679.18	28154.30
679.31	28011.53
679.45	27953.02
679.59	27508.32
679.73	27543.42
679.87	27941.32
680.00	27639.39
680.14	27480.23
680.28	27337.46
680.42	27199.37
680.56	27232.13
680.70	26998.08
680.83	27255.54
680.97	26984.04
681.11	26867.01
681.25	26700.83
681.39	26511.25
681.52	26843.60
681.66	26754.66
681.80	26497.20
681.94	26309.96
682.07	26539.33
682.21	26249.11
682.35	26150.81
682.49	26136.76
682.62	26316.98
682.76	25820.79
682.90	25795.04
683.04	25921.43
683.17	25933.14
683.31	25876.96
683.45	25675.68
683.59	25507.16
683.72	25399.49
683.86	25219.27
684.00	25186.50
684.13	25163.10
684.27	25537.59
684.41	24975.86
684.55	24814.36
684.68	24603.71
684.82	24950.11
684.96	24797.98
685.09	24573.28
685.23	24156.67
685.37	24512.43
685.50	24526.47
685.64	24261.99
685.78	24465.62
685.91	24407.11
686.05	23929.64
686.19	23763.46
686.32	23964.75
686.46	23440.47
686.60	23517.70
686.73	23257.90
686.87	23456.85
687.01	23618.35
687.14	23087.04
687.28	23194.71
687.42	23248.54
687.55	22885.76
687.69	22991.08
687.82	22977.04
687.96	22640.00
688.10	22548.72
688.23	22342.75
688.37	22118.06
688.50	22146.15
688.64	22026.78
688.78	22218.71
688.91	22391.91
689.05	22050.19
689.18	22052.53
689.32	21858.26
689.46	21895.71
689.59	22246.79
689.73	22167.21
689.86	21675.70
690.00	21394.84
690.13	21982.31
690.27	21511.86
690.41	21294.19
690.54	21055.46
690.68	20982.90
690.81	21067.16
690.95	20671.61
691.08	20837.79
691.22	21074.18
691.35	20931.41
691.49	20805.02
691.62	20786.30
691.76	20872.90
691.89	20856.51
692.03	20390.75
692.16	20170.74
692.30	20688.00
692.43	20002.22
692.57	20294.79
692.70	20152.01
692.84	20112.22
692.97	19817.32
693.11	19571.56
693.24	19494.32
693.38	19747.10
693.51	19414.74
693.65	19381.98
693.78	19515.39
693.92	19271.97
694.05	19548.15
694.19	19290.70
694.32	19077.71
694.45	19007.49
694.59	18757.05
694.72	18951.32
694.86	18710.24
694.99	18712.58
695.13	18520.66
695.26	18410.65
695.39	18232.77
695.53	18239.79
695.66	18417.68
695.80	18150.85
695.93	17832.54
696.07	17830.20
696.20	18221.07
696.33	18129.79
696.47	18073.62
696.60	18141.49
696.73	17551.68
696.87	17741.26
697.00	17261.45
697.14	17418.27
697.27	17750.62
697.40	17479.12
697.54	17373.80
697.67	17048.46
697.80	17116.34
697.94	17085.91
698.07	16926.75
698.21	17032.08
698.34	16854.20
698.47	16908.03
698.61	16592.06
698.74	16720.79
698.87	16673.98
699.01	15960.11
699.14	16269.06
699.27	16276.09
699.40	16159.06
699.54	16074.80
699.67	16180.12
699.80	15969.48
699.94	16137.99
700.07	15925.00
700.20	15815.00
700.34	15571.58
700.47	15522.43
700.60	15803.30
700.73	15522.43
700.87	15782.23
701.00	15374.98
701.13	14862.40
701.26	15164.33
701.40	15456.90
701.53	15227.53
701.66	15215.82
701.79	15283.70
701.93	14946.66
702.06	14930.28
702.19	15009.86
702.32	14637.71
702.46	14635.37
702.59	14733.67
702.72	14682.18
702.85	14600.26
702.99	14654.09
703.12	14443.45
703.25	14572.18
703.38	14328.76
703.51	14335.78
703.65	14092.37
703.78	14225.78
703.91	13827.88
704.04	14181.31
704.17	13654.69
704.31	13823.20
704.44	13635.96
704.57	13528.30
704.70	13298.92
704.83	13432.33
704.96	13582.13
705.10	13469.78
705.23	13699.16
>>>>>End Processed Spectral Data<<<<<
