SpectraSuite Data File
++++++++++++++++++++++++++++++++++++
Date: Fri Oct 25 10:48:13 EDT 2013
User: price-jones
Dark Spectrum Present: No
Reference Spectrum Present: No
Number of Sampled Component Spectra: 1
Spectrometers: USB2+H05261
Integration Time (usec): 100000 (USB2+H05261)
Spectra Averaged: 1 (USB2+H05261)
Boxcar Smoothing: 0 (USB2+H05261)
Correct for Electrical Dark: No (USB2+H05261)
Strobe/Lamp Enabled: No (USB2+H05261)
Correct for Detector Non-linearity: No (USB2+H05261)
Correct for Stray Light: No (USB2+H05261)
Number of Pixels in Processed Spectrum: 2048
>>>>>Begin Processed Spectral Data<<<<<
365.73	154.48
365.92	154.48
366.12	154.48
366.32	46.81
366.52	98.30
366.72	107.66
366.91	0.00
367.11	107.66
367.31	105.32
367.51	49.15
367.70	86.60
367.90	112.35
368.10	133.41
368.30	95.96
368.49	21.06
368.69	65.54
368.89	63.19
369.09	100.64
369.28	138.09
369.48	95.96
369.68	124.05
369.87	86.60
370.07	112.35
370.27	220.01
370.47	203.63
370.66	320.65
370.86	414.27
371.06	449.38
371.25	507.90
371.45	397.89
371.65	482.15
371.84	440.02
372.04	528.96
372.24	524.28
372.44	444.70
372.63	500.87
372.83	559.39
373.03	454.06
373.22	557.05
373.42	414.27
373.62	472.79
373.81	510.24
374.01	547.69
374.21	517.26
374.40	620.24
374.60	571.09
374.79	533.64
374.99	634.29
375.19	510.24
375.38	587.47
375.58	521.94
375.78	688.12
375.97	667.05
376.17	678.76
376.37	713.86
376.56	601.52
376.76	580.45
376.95	561.73
377.15	622.58
377.35	578.11
377.54	629.60
377.74	622.58
377.93	695.14
378.13	676.41
378.33	545.34
378.52	599.18
378.72	624.92
378.91	655.35
379.11	622.58
379.31	636.63
379.50	538.32
379.70	636.63
379.89	603.86
380.09	674.07
380.28	631.94
380.48	636.63
380.68	751.31
380.87	674.07
381.07	767.70
381.26	716.20
381.46	587.47
381.65	648.33
381.85	648.33
382.04	641.31
382.24	730.25
382.43	674.07
382.63	737.27
382.83	704.50
383.02	664.71
383.22	746.63
383.41	720.88
383.61	716.20
383.80	734.93
384.00	727.91
384.19	737.27
384.39	767.70
384.58	770.04
384.78	746.63
384.97	727.91
385.17	833.23
385.36	723.23
385.56	798.12
385.75	786.42
385.95	755.99
386.14	840.25
386.34	741.95
386.53	819.19
386.72	819.19
386.92	779.40
387.11	793.44
387.31	840.25
387.50	833.23
387.70	917.49
387.89	842.59
388.09	840.25
388.28	833.23
388.48	814.51
388.67	954.94
388.86	875.36
389.06	858.98
389.25	898.77
389.45	945.58
389.64	983.02
389.84	961.96
390.03	912.81
390.22	966.64
390.42	924.51
390.61	915.15
390.81	999.41
391.00	1006.43
391.19	1032.18
391.39	917.49
391.58	1008.77
391.78	1001.75
391.97	1032.18
392.16	1006.43
392.36	976.00
392.55	1034.52
392.75	851.96
392.94	990.05
393.13	1053.24
393.33	992.39
393.52	931.53
393.71	1050.90
393.91	1013.45
394.10	1036.86
394.29	1095.37
394.49	1027.50
394.68	1032.18
394.88	1160.91
395.07	1167.93
395.26	1139.84
395.46	1135.16
395.65	1116.44
395.84	1214.74
396.04	1210.06
396.23	1130.48
396.42	1146.86
396.62	1121.12
396.81	1102.39
397.00	1135.16
397.19	1191.33
397.39	1214.74
397.58	1240.48
397.77	1233.46
397.97	1238.14
398.16	1224.10
398.35	1287.29
398.55	1303.68
398.74	1315.38
398.93	1334.11
399.12	1287.29
399.32	1226.44
399.51	1371.55
399.70	1451.13
399.90	1362.19
400.09	1441.77
400.28	1465.18
400.47	1401.98
400.67	1451.13
400.86	1509.65
401.05	1387.94
401.24	1376.24
401.44	1444.11
401.63	1502.62
401.82	1533.05
402.01	1490.92
402.21	1467.52
402.40	1617.31
402.59	1633.69
402.78	1540.07
402.97	1570.50
403.17	1556.46
403.36	1526.03
403.55	1638.38
403.74	1706.25
403.93	1724.97
404.13	1685.19
404.32	1722.63
404.51	1671.14
404.70	1743.70
404.89	1629.01
405.09	1797.53
405.28	1741.36
405.47	1736.68
405.66	1753.06
405.85	1844.34
406.05	1760.08
406.24	1724.97
406.43	1853.70
406.62	1818.60
406.81	1912.22
407.00	1790.51
407.20	1884.13
407.39	1872.43
407.58	1909.88
407.77	1909.88
407.96	1994.14
408.15	2047.97
408.34	2031.58
408.54	2008.18
408.73	1952.01
408.92	1975.41
409.11	2120.53
409.30	2029.24
409.49	1987.11
409.68	2085.42
409.87	2045.63
410.07	2099.46
410.26	2111.16
410.45	2176.70
410.64	2172.02
410.83	2335.85
411.02	2291.38
411.21	2319.47
411.40	2380.32
411.59	2289.04
411.78	2342.88
411.98	2244.57
412.17	2342.88
412.36	2399.05
412.55	2387.35
412.74	2373.30
412.93	2434.16
413.12	2363.94
413.31	2616.72
413.50	2513.74
413.69	2490.33
413.88	2743.11
414.07	2544.16
414.26	2647.15
414.45	2658.85
414.64	2661.19
414.83	2696.30
415.02	2696.30
415.22	2773.53
415.41	2750.13
415.60	2810.98
415.79	2878.86
415.98	2899.92
416.17	2869.50
416.36	2942.05
416.55	2942.05
416.74	2942.05
416.93	2920.99
417.12	3030.99
417.31	3096.53
417.50	3042.70
417.69	3208.87
417.88	3082.49
418.07	3070.78
418.26	3159.72
418.45	3150.36
418.64	3220.58
418.83	3227.60
419.02	3150.36
419.21	3178.45
419.39	3265.05
419.58	3136.32
419.77	3208.87
419.96	3297.81
420.15	3309.52
420.34	3361.01
420.53	3311.86
420.72	3398.46
420.91	3426.54
421.10	3466.33
421.29	3538.89
421.48	3463.99
421.67	3445.27
421.86	3524.85
422.05	3428.88
422.24	3316.54
422.43	3405.48
422.61	3440.59
422.80	3499.10
422.99	3655.92
423.18	3513.14
423.37	3681.66
423.56	3595.06
423.75	3545.91
423.94	3578.68
424.13	3403.14
424.32	3417.18
424.50	3674.64
424.69	3637.19
424.88	3672.30
425.07	3515.48
425.26	3513.14
425.45	3716.77
425.64	3653.58
425.83	3637.19
426.01	3571.66
426.20	3555.27
426.39	3595.06
426.58	3585.70
426.77	3639.53
426.96	3574.00
427.15	3592.72
427.33	3817.41
427.52	3707.41
427.71	3768.26
427.90	3875.93
428.09	3803.37
428.28	3810.39
428.46	3658.26
428.65	3922.74
428.84	3918.06
429.03	3918.06
429.22	3758.90
429.40	3950.82
429.59	4016.36
429.78	3786.99
429.97	3730.81
430.16	3646.55
430.34	3929.76
430.53	4049.13
430.72	4025.72
430.91	3878.27
431.10	3943.80
431.28	4133.39
431.47	4264.46
431.66	4264.46
431.85	4049.13
432.03	4205.94
432.22	4147.43
432.41	4203.60
432.60	4257.43
432.79	4327.65
432.97	4360.42
433.16	4252.75
433.35	4287.86
433.54	4285.52
433.72	4231.69
433.91	4294.88
434.10	4463.40
434.28	4411.91
434.47	4414.25
434.66	4430.63
434.85	4479.79
435.03	4344.03
435.22	4484.47
435.41	4573.41
435.59	4512.55
435.78	4636.60
435.97	4655.33
436.16	4669.37
436.34	4599.15
436.53	4704.48
436.72	4669.37
436.90	4685.75
437.09	4910.44
437.28	4814.48
437.46	4903.42
437.65	4732.56
437.84	4685.75
438.02	4690.43
438.21	4802.78
438.40	4706.82
438.58	4898.74
438.77	4961.94
438.96	5081.30
439.14	5102.37
439.33	5029.81
439.52	4990.02
439.70	5121.09
439.89	5083.64
440.08	5235.78
440.26	5247.48
440.45	5350.46
440.63	5313.02
440.82	5355.15
441.01	5413.66
441.19	5364.51
441.38	5593.88
441.57	5444.09
441.75	5441.75
441.94	5769.42
442.12	5645.37
442.31	5820.91
442.50	5626.65
442.68	5837.30
442.87	5769.42
443.05	5671.12
443.24	5825.59
443.43	5923.90
443.61	5839.64
443.80	5884.11
443.98	5778.78
444.17	5549.41
444.35	5879.43
444.54	5949.64
444.73	5909.85
444.91	5832.62
445.10	5830.27
445.28	5825.59
445.47	5841.98
445.65	5823.25
445.84	5970.71
446.02	5959.00
446.21	6005.81
446.39	5928.58
446.58	6026.88
446.77	5954.32
446.95	5961.34
447.14	6073.69
447.32	6258.59
447.51	6038.58
447.69	6078.37
447.88	6113.48
448.06	6080.71
448.25	5975.39
448.43	6085.39
448.62	6171.99
448.80	6106.46
448.99	6253.91
449.17	6211.78
449.36	6120.50
449.54	6267.95
449.73	6384.98
449.91	6399.02
450.10	6363.92
450.28	6492.65
450.46	6335.83
450.65	6530.09
450.83	6417.75
451.02	6480.94
451.20	6459.88
451.39	6366.26
451.57	6518.39
451.76	6499.67
451.94	6537.12
452.13	6813.30
452.31	6661.16
452.49	6511.37
452.68	6525.41
452.86	6757.13
453.05	6637.76
453.23	6544.14
453.42	6593.29
453.60	6665.85
453.78	6867.13
453.97	6619.04
454.15	6595.63
454.34	6649.46
454.52	6853.09
454.70	6876.49
454.89	6796.92
455.07	6813.30
455.26	6836.70
455.44	7028.63
455.62	6916.28
455.81	7014.59
455.99	7115.23
456.17	7052.03
456.36	7082.46
456.54	7084.80
456.73	7129.27
456.91	7353.96
457.09	7330.56
457.28	7550.57
457.46	7248.64
457.64	7365.67
457.83	7440.56
458.01	7318.86
458.19	7609.08
458.38	7201.83
458.56	7573.97
458.74	7372.69
458.93	7447.58
459.11	7548.23
459.29	7492.05
459.48	7531.84
459.66	7730.79
459.84	7625.47
460.03	7672.28
460.21	7470.99
460.39	7602.06
460.57	7742.49
460.76	7838.45
460.94	7793.98
461.12	7775.26
461.31	7805.69
461.49	7953.14
461.67	7730.79
461.85	8037.40
462.04	7953.14
462.22	8552.32
462.40	8102.93
462.59	8124.00
462.77	8028.04
462.95	8149.75
463.13	8308.90
463.32	8116.98
463.50	8236.35
463.68	8184.85
463.86	8217.62
464.05	8212.94
464.23	8079.53
464.41	8234.00
464.59	8138.04
464.78	8304.22
464.96	8222.30
465.14	8088.89
465.32	8238.69
465.50	8552.32
465.69	8498.49
465.87	8329.97
466.05	8407.20
466.23	8636.58
466.41	8526.57
466.60	8542.96
466.78	8383.80
466.96	8395.50
467.14	8573.38
467.32	8503.17
467.51	8629.56
467.69	8362.73
467.87	8552.32
468.05	8606.15
468.23	8678.71
468.41	8664.66
468.60	8793.39
468.78	8870.63
468.96	8652.96
469.14	8922.12
469.32	8945.53
469.50	8650.62
469.69	9100.00
469.87	9121.07
470.05	9013.40
470.23	9055.53
470.41	8954.89
470.59	9149.15
470.77	9090.64
470.95	9088.30
471.14	9247.46
471.32	9085.96
471.50	9324.69
471.68	9401.93
471.86	9504.92
472.04	9338.74
472.22	9748.33
472.40	9238.09
472.58	9448.74
472.77	9551.73
472.95	9554.07
473.13	10059.62
473.31	9666.41
473.49	9488.53
473.67	9479.17
473.85	9877.06
474.03	9722.59
474.21	10157.92
474.39	10085.37
474.57	10043.24
474.75	10171.97
474.93	10164.95
475.12	10085.37
475.30	10354.53
475.48	10186.01
475.66	10394.32
475.84	10459.85
476.02	10548.79
476.20	10310.06
476.38	10714.97
476.56	10771.15
476.74	10846.04
476.92	10792.21
477.10	10747.74
477.28	11112.86
477.46	11061.37
477.64	10993.50
477.82	11215.85
478.00	11454.58
478.18	11246.27
478.36	11550.54
478.54	11714.38
478.72	11798.64
478.90	11758.85
479.08	11880.56
479.26	12182.49
479.44	12152.06
479.62	12095.89
479.80	12154.40
479.98	12325.26
480.16	12418.88
480.34	12444.63
480.52	12758.26
480.70	12552.29
480.88	12503.14
481.06	12702.09
481.24	12901.03
481.41	12945.50
481.59	13242.75
481.77	13254.45
481.95	13130.41
482.13	13247.43
482.31	13394.89
482.49	13865.33
482.67	13668.73
482.85	13769.37
483.03	13769.37
483.21	14153.22
483.39	14033.85
483.57	14164.92
483.74	14134.50
483.92	14314.72
484.10	14436.42
484.28	14518.34
484.46	14691.54
484.64	14977.09
484.82	14815.59
485.00	15035.60
485.18	15030.92
485.35	15379.66
485.53	15161.99
485.71	15033.26
485.89	15492.01
486.07	15492.01
486.25	15583.29
486.43	15669.89
486.61	15880.53
486.78	15946.07
486.96	16301.83
487.14	16540.57
487.32	16739.51
487.50	16498.44
487.68	17097.61
487.85	16812.07
488.03	17273.15
488.21	17149.11
488.39	17064.85
488.57	17224.00
488.75	17591.47
488.92	17582.10
489.10	17813.82
489.28	17802.11
489.46	18045.53
489.64	18181.28
489.81	18450.44
489.99	18689.18
490.17	18728.97
490.35	19166.65
490.53	18490.23
490.70	19040.26
490.88	19091.75
491.06	19138.56
491.24	19115.16
491.41	19183.03
491.59	19367.93
491.77	19335.17
491.95	19438.15
492.13	19756.46
492.30	20276.06
492.48	19950.73
492.66	20247.97
492.84	19941.36
493.01	20219.89
493.19	20231.59
493.37	20795.66
493.54	20538.20
493.72	20938.43
493.90	21158.44
494.08	21186.53
494.25	21572.72
494.43	21221.64
494.61	21565.70
494.79	21745.92
494.96	21493.14
495.14	22005.72
495.32	21841.88
495.49	22185.94
495.67	21942.52
495.85	22073.59
496.02	22370.84
496.20	22691.49
496.38	22836.61
496.55	22766.39
496.73	23264.92
496.91	22913.84
497.09	23073.00
497.26	23536.43
497.44	23063.64
497.62	23164.28
497.79	23824.31
497.97	23456.85
498.14	23679.20
498.32	23901.55
498.50	23779.84
498.67	24123.90
498.85	24224.54
499.03	24439.87
499.20	24360.30
499.38	24549.88
499.56	24725.42
499.73	24673.93
499.91	24308.80
500.08	24528.81
500.26	24400.08
500.44	24919.68
500.61	25109.27
500.79	24631.80
500.97	24980.54
501.14	25689.72
501.32	25319.92
501.49	25530.56
501.67	25869.94
501.84	25366.73
502.02	25495.46
502.20	25427.58
502.37	25841.85
502.55	26045.48
502.72	26150.81
502.90	26260.81
503.07	25970.58
503.25	26469.12
503.43	26455.08
503.60	26506.57
503.78	26541.68
503.95	26494.86
504.13	26686.79
504.30	27002.76
504.48	26515.93
504.65	26822.54
504.83	27197.02
505.01	27456.82
505.18	27482.57
505.36	27421.72
505.53	27358.52
505.71	27482.57
505.88	28128.56
506.06	27379.59
506.23	27824.29
506.41	27688.54
506.58	28161.33
506.76	27981.10
506.93	28151.96
507.11	28002.17
507.28	28039.62
507.46	28063.02
507.63	28313.46
507.81	28189.41
507.98	28416.44
508.16	28631.77
508.33	28891.57
508.50	28739.44
508.68	28599.01
508.85	29177.12
509.03	29102.22
509.20	29565.65
509.38	29055.41
509.55	29181.80
509.73	29256.70
509.90	29476.71
510.08	29425.22
510.25	29132.65
510.42	29401.81
510.60	29841.83
510.77	30136.74
510.95	29876.94
511.12	30143.76
511.30	30080.56
511.47	30536.97
511.64	30321.64
511.82	30412.92
511.99	30265.47
512.17	30609.53
512.34	30382.49
512.51	30881.03
512.69	30764.00
512.86	30611.87
513.04	31185.30
513.21	31098.70
513.38	30808.47
513.56	30754.64
513.73	30944.22
513.90	31075.29
514.08	31267.22
514.25	31180.62
514.43	31136.15
514.60	31042.53
514.77	30888.05
514.95	31761.07
515.12	31819.58
515.29	31852.35
515.47	31871.07
515.64	31791.50
515.81	31878.10
515.99	32016.19
516.16	32123.85
516.33	31646.38
516.51	32259.60
516.68	31484.89
516.85	31985.76
517.03	31866.39
517.20	32109.81
517.37	32348.54
517.54	32362.59
517.72	32259.60
517.89	32072.36
518.06	32261.94
518.24	32671.54
518.41	32369.61
518.58	32343.86
518.75	32889.21
518.93	33500.09
519.10	32926.66
519.27	32835.38
519.45	32821.33
519.62	33324.55
519.79	33446.26
519.96	33713.08
520.14	33684.99
520.31	33172.41
520.48	34019.69
520.65	33722.44
520.83	33415.83
521.00	33750.52
521.17	33926.07
521.34	33834.78
521.52	34047.77
521.69	34569.71
521.86	34361.40
522.03	34480.77
522.20	34017.35
522.38	34752.27
522.55	34595.46
522.72	34244.38
522.89	34330.98
523.07	34817.81
523.24	34176.50
523.41	34778.02
523.58	34852.92
523.75	35215.70
523.92	35290.60
524.10	35243.79
524.27	35264.85
524.44	35400.60
524.61	35737.64
524.78	35229.74
524.96	35978.72
525.13	35295.28
525.30	35545.72
525.47	35400.60
525.64	35562.10
525.81	35138.46
525.98	35676.79
526.16	35798.49
526.33	35447.41
526.50	35590.19
526.67	35550.40
526.84	35838.28
527.01	35562.10
527.18	35566.78
527.36	36268.94
527.53	36048.93
527.70	36655.13
527.87	36727.69
528.04	36172.98
528.21	36320.43
528.38	36765.14
528.55	36591.94
528.72	36790.88
528.89	36584.91
529.07	36823.65
529.24	36566.19
529.41	37338.57
529.58	36694.92
529.75	37034.30
529.92	37172.39
530.09	37132.60
530.26	37144.30
530.43	37191.11
530.60	36914.93
530.77	37181.75
530.94	37371.33
531.11	37935.40
531.28	37453.25
531.46	37748.16
531.63	37720.07
531.80	37544.53
531.97	37486.02
532.14	37516.45
532.31	37516.45
532.48	37425.17
532.65	38162.43
532.82	37797.31
532.99	38031.36
533.16	37521.13
533.33	37928.38
533.50	38356.70
533.67	38022.00
533.84	37771.57
534.01	37963.49
534.18	38352.02
534.35	38389.47
534.52	38520.54
534.69	38586.07
534.86	38464.36
535.03	38071.15
535.20	38597.77
535.37	38635.22
535.54	38873.96
535.71	38480.75
535.88	38546.28
536.05	38911.41
536.22	39002.69
536.38	38962.90
536.55	38951.20
536.72	39082.27
536.89	38209.25
537.06	38614.16
537.23	39232.06
537.40	38679.69
537.57	38675.01
537.74	39164.18
537.91	39445.05
538.08	39487.18
538.25	38817.78
538.42	39503.56
538.59	39419.30
538.75	39349.09
538.92	39203.97
539.09	40039.54
539.26	39943.58
539.43	39793.79
539.60	39868.69
539.77	39189.93
539.94	39796.13
540.11	39349.09
540.28	39922.52
540.44	39859.32
540.61	39449.73
540.78	40069.97
540.95	39782.09
541.12	39695.49
541.29	39950.60
541.46	40264.24
541.62	39864.00
541.79	39522.29
541.96	39899.11
542.13	39920.18
542.30	40245.51
542.47	40243.17
542.63	40091.04
542.80	40020.82
542.97	40615.32
543.14	40971.08
543.31	41102.15
543.48	41053.00
543.64	41132.57
543.81	41148.96
543.98	40624.68
544.15	40931.29
544.32	41401.74
544.48	40870.43
544.65	41226.20
544.82	40788.52
544.99	40814.26
545.16	41457.91
545.32	40732.34
545.49	41254.28
545.66	41312.80
545.83	41354.93
546.00	41490.68
546.16	41652.17
546.33	40893.84
546.50	40753.41
546.67	41542.17
546.83	40713.62
547.00	41853.46
547.17	41855.80
547.34	41258.96
547.50	41776.22
547.67	41764.52
547.84	41701.32
548.00	41406.42
548.17	42078.15
548.34	41247.26
548.51	42518.17
548.67	42052.41
548.84	42050.06
549.01	41858.14
549.18	42136.66
549.34	41972.83
549.51	42485.40
549.68	42206.88
549.84	42354.33
550.01	41858.14
550.18	41825.37
550.34	42321.57
550.51	42447.96
550.68	42117.94
550.84	41893.25
551.01	41986.87
551.18	42319.23
551.34	42160.07
551.51	42249.01
551.68	42476.04
551.84	42447.96
552.01	42340.29
552.18	42693.71
552.34	42422.21
552.51	42691.37
552.68	42747.54
552.84	42630.52
553.01	43110.33
553.18	42801.38
553.34	42887.98
553.51	42569.66
553.67	42707.76
553.84	43166.50
554.01	42885.64
554.17	43070.54
554.34	42834.14
554.51	42703.07
554.67	43470.77
554.84	43093.94
555.00	42864.57
555.17	42859.89
555.33	42887.98
555.50	43285.87
555.67	42925.42
555.83	43215.65
556.00	43236.72
556.16	43765.68
556.33	43196.93
556.50	43313.95
556.66	43859.30
556.83	43227.35
556.99	43129.05
557.16	43585.46
557.32	43267.14
557.49	43608.86
557.65	43012.02
557.82	43550.35
557.98	43342.04
558.15	43363.11
558.32	43091.60
558.48	43702.48
558.65	43604.18
558.81	43346.72
558.98	43718.87
559.14	43753.97
559.31	43210.97
559.47	43805.47
559.64	43995.05
559.80	43805.47
559.97	43693.12
560.13	43782.06
560.30	43936.54
560.46	43564.39
560.63	43915.47
560.79	44133.14
560.96	43955.26
561.12	44238.47
561.29	44161.23
561.45	43683.76
561.61	43718.87
561.78	43894.41
561.94	43826.53
562.11	43948.24
562.27	43847.60
562.44	43812.49
562.60	43880.36
562.77	43924.83
562.93	43896.75
563.10	44048.88
563.26	44168.25
563.42	44446.77
563.59	44414.01
563.75	44259.53
563.92	44165.91
564.08	44093.35
564.24	44196.34
564.41	44346.13
564.57	43966.96
564.74	44250.17
564.90	44142.50
565.07	44652.74
565.23	43959.94
565.39	44451.45
565.56	44367.20
565.72	44257.19
565.88	44170.59
566.05	44238.47
566.21	44383.58
566.38	44465.50
566.54	43868.66
566.70	44762.75
566.87	44271.23
567.03	44306.34
567.19	44758.06
567.36	44343.79
567.52	44301.66
567.68	44409.32
567.85	44449.11
568.01	44725.30
568.17	44406.98
568.34	44318.04
568.50	44619.97
568.66	44320.38
568.83	44399.96
568.99	44271.23
569.15	44729.98
569.32	44516.99
569.48	44411.67
569.64	44556.78
569.81	44479.54
569.97	44364.85
570.13	44156.55
570.30	44488.90
570.46	44083.99
570.62	44397.62
570.78	44402.30
570.95	44236.12
571.11	44657.42
571.27	44762.75
571.43	44470.18
571.60	44694.87
571.76	44406.98
571.92	44392.94
572.09	44685.51
572.25	44612.95
572.41	44404.64
572.57	44470.18
572.74	44863.39
572.90	44919.56
573.06	44737.00
573.22	44959.35
573.38	44439.75
573.55	44779.13
573.71	44823.60
573.87	44676.15
574.03	44198.68
574.20	44781.47
574.36	44584.86
574.52	44879.77
574.68	44868.07
574.84	44877.43
575.01	44701.89
575.17	44538.05
575.33	44570.82
575.49	44406.98
575.65	44814.24
575.82	44989.78
575.98	44832.96
576.14	44905.52
576.30	44509.97
576.46	44659.76
576.62	44718.28
576.79	44327.41
576.95	44292.30
577.11	44622.31
577.27	44659.76
577.43	45036.59
577.59	44311.02
577.75	44591.89
577.92	44313.36
578.08	44456.14
578.24	44507.63
578.40	44692.53
578.56	44500.61
578.72	44935.95
578.88	45322.13
579.04	45045.95
579.21	44430.39
579.37	44893.82
579.53	44495.92
579.69	44615.29
579.85	44563.80
580.01	45167.66
580.17	44692.53
580.33	45153.62
580.49	45268.30
580.65	44961.69
580.82	44858.71
580.98	44472.52
581.14	44769.77
581.30	44783.81
581.46	45280.00
581.62	44776.79
581.78	45155.96
581.94	45319.79
582.10	44994.46
582.26	44821.26
582.42	45024.89
582.58	44814.24
582.74	44556.78
582.90	44898.50
583.06	45078.72
583.22	45406.39
583.38	44645.72
583.54	45106.80
583.70	44973.39
583.86	44713.59
584.02	44369.54
584.18	44954.67
584.34	44985.10
584.50	44484.22
584.66	45024.89
584.82	44804.88
584.98	45081.06
585.14	45132.55
585.30	44790.83
585.46	45305.75
585.62	44884.45
585.78	44662.10
585.94	44795.51
586.10	44659.76
586.26	44535.71
586.42	44842.32
586.58	45219.15
586.74	45181.70
586.90	44879.77
587.06	44634.02
587.22	45305.75
587.38	44769.77
587.54	45076.38
587.70	45268.30
587.86	44973.39
588.02	45111.49
588.18	45055.31
588.34	44828.28
588.49	44322.72
588.65	44924.24
588.81	44591.89
588.97	44928.92
589.13	44746.36
589.29	44938.29
589.45	45008.50
589.61	44772.11
589.77	45010.84
589.93	45029.57
590.08	45315.11
590.24	45055.31
590.40	45031.91
590.56	45806.62
590.72	45186.38
590.88	44942.97
591.04	45095.10
591.20	45347.88
591.35	45123.19
591.51	45303.41
591.67	45282.34
591.83	44961.69
591.99	45067.02
592.15	44973.39
592.31	45593.64
592.46	44718.28
592.62	45102.12
592.78	45228.51
592.94	45736.41
593.10	45045.95
593.26	45301.07
593.41	45055.31
593.57	45371.28
593.73	45095.10
593.89	45397.03
594.05	45125.53
594.20	45254.26
594.36	45361.92
594.52	45223.83
594.68	45434.48
594.84	45373.63
594.99	45551.51
595.15	45057.65
595.31	45605.34
595.47	45024.89
595.62	45296.39
595.78	45521.08
595.94	45532.78
596.10	45532.78
596.25	45474.27
596.41	45572.57
596.57	44891.48
596.73	45413.41
596.88	45343.20
597.04	45251.92
597.20	45191.06
597.36	45240.21
597.51	45181.70
597.67	45755.13
597.83	45228.51
597.99	45535.12
598.14	45275.32
598.30	45256.60
598.46	45181.70
598.61	44938.29
598.77	45268.30
598.93	45151.27
599.09	45151.27
599.24	46052.38
599.40	45769.18
599.56	45586.61
599.71	45296.39
599.87	45673.21
600.03	45579.59
600.18	45235.53
600.34	45647.47
600.50	45301.07
600.65	45139.57
600.81	45862.80
600.97	45418.10
601.12	45607.68
601.28	45783.22
601.44	45368.94
601.59	45113.83
601.75	45270.64
601.91	45521.08
602.06	44807.22
602.22	45500.01
602.37	45280.00
602.53	45301.07
602.69	45118.51
602.84	45619.38
603.00	45308.09
603.16	45427.46
603.31	45333.84
603.47	45083.40
603.62	45441.50
603.78	45029.57
603.94	45474.27
604.09	45544.48
604.25	45645.13
604.40	45118.51
604.56	45170.00
604.71	45401.71
604.87	45207.45
605.03	45411.07
605.18	45294.05
605.34	45081.06
605.49	44416.35
605.65	45511.72
605.80	45191.06
605.96	45029.57
606.12	45631.08
606.27	45411.07
606.43	45151.27
606.58	45324.47
606.74	45132.55
606.89	44856.37
607.05	45109.14
607.20	45385.33
607.36	45174.68
607.51	45446.18
607.67	45436.82
607.82	44942.97
607.98	45235.53
608.13	45038.93
608.29	44847.00
608.44	45130.21
608.60	44636.36
608.75	44500.61
608.91	44608.27
609.06	45104.46
609.22	45691.94
609.37	44690.19
609.53	45116.17
609.68	44940.63
609.84	45006.16
609.99	44505.29
610.15	45289.37
610.30	44949.99
610.46	44406.98
610.61	44875.09
610.76	44570.82
610.92	44762.75
611.07	44839.98
611.23	44641.04
611.38	44999.14
611.54	44414.01
611.69	44439.75
611.84	44619.97
612.00	44598.91
612.15	44664.44
612.31	44891.48
612.46	44362.51
612.62	45123.19
612.77	44268.89
612.92	44643.38
613.08	44287.62
613.23	44421.03
613.39	44030.16
613.54	44275.91
613.69	44411.67
613.85	44402.30
614.00	44655.08
614.15	44533.37
614.31	44313.36
614.46	44371.88
614.62	44666.78
614.77	44268.89
614.92	44128.46
615.08	44027.82
615.23	44472.52
615.38	44343.79
615.54	43964.62
615.69	44341.45
615.84	43761.00
616.00	44137.82
616.15	44140.16
616.30	44009.09
616.46	44102.71
616.61	43938.88
616.76	43868.66
616.92	43435.66
617.07	43744.61
617.22	43634.61
617.37	43952.92
617.53	44053.56
617.68	43920.15
617.83	44212.72
617.99	43924.83
618.14	43452.05
618.29	43658.01
618.45	43571.41
618.60	43826.53
618.75	43246.08
618.90	43533.96
619.06	44037.18
619.21	43737.59
619.36	44165.91
619.51	43613.54
619.67	43669.72
619.82	43906.11
619.97	44545.08
620.12	43416.94
620.28	42885.64
620.43	43452.05
620.58	43342.04
620.73	43573.75
620.89	43416.94
621.04	43384.17
621.19	43824.19
621.34	43299.91
621.49	43215.65
621.65	43253.10
621.80	43611.20
621.95	43508.22
622.10	43489.49
622.25	42873.93
622.41	42937.13
622.56	43316.29
622.71	43587.80
622.86	43185.22
623.01	43260.12
623.16	42815.42
623.32	43426.30
623.47	42904.36
623.62	43405.23
623.77	42564.98
623.92	43302.25
624.07	42859.89
624.23	42756.91
624.38	42836.48
624.53	42934.79
624.68	43302.25
624.83	42934.79
624.98	42810.74
625.13	42677.33
625.29	42803.72
625.44	42494.77
625.59	42539.24
625.74	42925.42
625.89	41933.04
626.04	42342.63
626.19	42700.73
626.34	42340.29
626.49	42464.34
626.65	42855.21
626.80	42665.63
626.95	42520.51
627.10	42436.25
627.25	42344.97
627.40	41851.12
627.55	41956.44
627.70	41755.16
627.85	41827.71
628.00	41890.91
628.15	42309.86
628.30	42174.11
628.45	41876.86
628.60	42340.29
628.76	42197.52
628.91	42096.88
629.06	41937.72
629.21	41689.62
629.36	41331.52
629.51	41851.12
629.66	42155.39
629.81	41750.48
629.96	42108.58
630.11	41853.46
630.26	41710.69
630.41	41783.24
630.56	41542.17
630.71	42141.35
630.86	41502.38
631.01	41546.85
631.16	41701.32
631.31	41483.66
631.46	40964.06
631.61	41706.01
631.76	41493.02
631.91	41535.15
632.06	41392.37
632.21	41383.01
632.36	41680.26
632.51	41284.71
632.66	41141.94
632.81	41031.93
632.96	41001.50
633.10	40851.71
633.25	41006.19
633.40	41427.48
633.55	41617.07
633.70	41399.40
633.85	41289.39
634.00	41380.67
634.15	40636.38
634.30	40996.82
634.45	41216.83
634.60	40903.20
634.75	41015.55
634.90	40952.35
635.05	40978.10
635.19	40950.01
635.34	41551.53
635.49	40713.62
635.64	40783.83
635.79	40315.73
635.94	40685.53
636.09	40580.21
636.24	40428.07
636.39	40479.57
636.53	40479.57
636.68	40329.77
636.83	40119.12
636.98	40940.65
637.13	40458.50
637.28	40425.73
637.43	40692.55
637.57	40856.39
637.72	40442.12
637.87	40301.68
638.02	40327.43
638.17	40451.48
638.32	40371.90
638.46	40554.46
638.61	40467.86
638.76	39983.37
638.91	40194.02
639.06	40446.80
639.20	40215.08
639.35	40388.28
639.50	40158.91
639.65	40362.54
639.80	40383.60
639.94	40402.33
640.09	39831.24
640.24	40135.51
640.39	39634.63
640.54	39782.09
640.68	39779.74
640.83	39557.39
640.98	39871.03
641.13	39440.37
641.27	39831.24
641.42	40025.50
641.57	40231.47
641.72	39709.53
641.86	39641.65
642.01	39840.60
642.16	39311.64
642.31	39189.93
642.45	40002.10
642.60	39512.92
642.75	39639.31
642.90	39590.16
643.04	39438.03
643.19	39695.49
643.34	39594.84
643.48	39531.65
643.63	39608.89
643.78	39449.73
643.93	39042.48
644.07	39391.22
644.22	39501.22
644.37	38969.92
644.51	39206.31
644.66	39344.41
644.81	39374.83
644.95	39344.41
645.10	39309.30
645.25	39206.31
645.39	39049.50
645.54	39269.51
645.69	39117.37
645.83	39147.80
645.98	38909.07
646.13	39241.42
646.27	38754.59
646.42	38913.75
646.57	39007.37
646.71	38728.84
646.86	38700.76
647.00	39152.48
647.15	39316.32
647.30	39129.08
647.44	38644.59
647.59	38965.24
647.74	38895.02
647.88	38937.15
648.03	38618.84
648.17	38595.43
648.32	38696.08
648.47	38878.64
648.61	38319.25
648.76	38988.64
648.90	38789.70
649.05	38593.09
649.20	38469.04
649.34	38773.31
649.49	38492.45
649.63	38665.65
649.78	38588.41
649.92	38693.74
650.07	38726.50
650.21	37832.42
650.36	38401.17
650.51	38410.53
650.65	38670.33
650.80	38717.14
650.94	38630.54
651.09	38642.24
651.23	38022.00
651.38	38288.82
651.52	38192.86
651.67	38370.74
651.81	37989.24
651.96	37919.02
652.10	38164.78
652.25	37933.06
652.39	37926.04
652.54	37986.89
652.68	38094.56
652.83	37890.93
652.97	38424.57
653.12	38012.64
653.26	37886.25
653.41	38029.02
653.55	37612.41
653.70	37783.27
653.84	37567.94
653.99	37813.70
654.13	37783.27
654.27	37420.48
654.42	37731.78
654.56	37230.90
654.71	38307.55
654.85	38146.05
655.00	37703.69
655.14	37254.31
655.29	36868.12
655.43	37280.05
655.57	37193.45
655.72	37156.00
655.86	37158.34
656.01	37516.45
656.15	37181.75
656.30	37432.19
656.44	37235.58
656.58	36664.49
656.73	37156.00
656.87	37048.34
657.01	36720.66
657.16	36821.31
657.30	37022.59
657.45	36823.65
657.59	37141.96
657.73	36615.34
657.88	37359.63
658.02	36395.33
658.16	37207.50
658.31	37193.45
658.45	36921.95
658.60	37151.32
658.74	36875.14
658.88	36680.88
659.03	36844.71
659.17	36449.16
659.31	36348.52
659.46	36615.34
659.60	36559.17
659.74	36224.47
659.89	36093.40
660.03	36304.05
660.17	36730.03
660.32	36608.32
660.46	36392.99
660.60	36226.81
660.74	36594.28
660.89	36463.21
661.03	35974.03
661.17	35672.10
661.32	35690.83
661.46	35938.93
661.60	35971.69
661.74	35749.34
661.89	35938.93
662.03	36091.06
662.17	35538.69
662.31	35508.27
662.46	35484.86
662.60	35583.16
662.74	35480.18
662.88	35473.16
663.03	35541.03
663.17	35318.68
663.31	35157.19
663.45	35555.08
663.60	35491.88
663.74	35140.80
663.88	34967.60
664.02	35178.25
664.17	35260.17
664.31	34742.91
664.45	34974.63
664.59	34628.23
664.73	34771.00
664.88	34944.20
665.02	34457.37
665.16	35213.36
665.30	34731.21
665.44	34665.67
665.59	34146.08
665.73	34375.45
665.87	34330.98
666.01	34859.94
666.15	34450.35
666.29	34663.33
666.44	34625.89
666.58	34485.45
666.72	34518.22
666.86	34319.28
667.00	34300.55
667.14	34384.81
667.28	33883.94
667.43	33933.09
667.57	34220.97
667.71	33907.34
667.85	34314.59
667.99	33855.85
668.13	33247.31
668.27	33640.52
668.41	33795.00
668.56	33497.75
668.70	33186.46
668.84	33647.54
668.98	33467.32
669.12	33453.28
669.26	33385.40
669.40	33376.04
669.54	32929.00
669.68	33179.43
669.82	32769.84
669.96	32435.14
670.10	32737.07
670.25	32964.10
670.39	32982.83
670.53	33170.07
670.67	32428.12
670.81	32744.09
670.95	33261.35
671.09	33354.97
671.23	32741.75
671.37	32936.02
671.51	32472.59
671.65	32137.90
671.79	32154.28
671.93	32184.71
672.07	32449.19
672.21	32142.58
672.35	32027.89
672.49	32315.78
672.63	32219.81
672.77	31878.10
672.91	32126.19
673.05	31892.14
673.19	31747.03
673.33	31648.72
673.47	31742.35
673.61	31412.33
673.75	31281.26
673.89	31042.53
674.03	30885.71
674.17	30958.27
674.31	31260.20
674.45	31133.81
674.59	31154.87
674.73	31232.11
674.87	30822.51
675.01	30848.26
675.15	30925.50
675.29	30923.16
675.43	30761.66
675.56	30944.22
675.70	31016.78
675.84	30323.98
675.98	29495.43
676.12	30345.05
676.26	29996.31
676.40	29979.92
676.54	29937.79
676.68	29905.02
676.82	29240.31
676.96	29565.65
677.10	29661.61
677.23	29654.59
677.37	29322.23
677.51	29572.67
677.65	28950.09
677.79	29198.18
677.93	29565.65
678.07	29032.00
678.21	28458.57
678.34	29118.60
678.48	28414.10
678.62	28765.18
678.76	28545.17
678.90	28474.96
679.04	28428.15
679.18	28428.15
679.31	28308.78
679.45	28425.81
679.59	28210.48
679.73	28128.56
679.87	27915.57
680.00	28290.06
680.14	28032.60
680.28	27623.00
680.42	27300.01
680.56	27412.35
680.70	27304.69
680.83	27096.38
680.97	26977.01
681.11	27335.12
681.25	26867.01
681.39	26955.95
681.52	26974.67
681.66	27040.21
681.80	26782.75
681.94	26597.85
682.07	26555.72
682.21	26431.67
682.35	26445.71
682.49	26714.87
682.62	26192.94
682.76	26192.94
682.90	25963.56
683.04	26204.64
683.17	25926.11
683.31	25394.81
683.45	25841.85
683.59	26066.55
683.72	25776.32
683.86	25280.13
684.00	25214.59
684.13	25675.68
684.27	25565.67
684.41	25521.20
684.55	24432.85
684.68	24795.64
684.82	24905.64
684.96	24655.20
685.09	24425.83
685.23	24849.47
685.37	24900.96
685.50	24570.94
685.64	24793.29
685.78	24482.00
685.91	24177.73
686.05	24123.90
686.19	23985.81
686.32	24173.05
686.46	23695.58
686.60	23543.45
686.73	23461.53
686.87	22965.34
687.01	23243.86
687.14	23295.35
687.28	23307.05
687.42	23325.78
687.55	23344.50
687.69	23012.15
687.82	22803.84
687.96	22728.94
688.10	22630.64
688.23	22403.61
688.37	22511.27
688.50	22244.45
688.64	22417.65
688.78	22235.09
688.91	22199.98
689.05	22457.44
689.18	22148.49
689.32	21797.41
689.46	21979.97
689.59	22001.04
689.73	21982.31
689.86	21738.90
690.00	21837.20
690.13	21724.85
690.27	21930.82
690.41	21731.87
690.54	21406.54
690.68	21242.70
690.81	21231.00
690.95	21144.40
691.08	20992.26
691.22	21010.99
691.35	21018.01
691.49	20926.73
691.62	20898.64
691.76	20900.98
691.89	20854.17
692.03	20723.10
692.16	20704.38
692.30	20379.04
692.43	20137.97
692.57	20184.78
692.70	20203.50
692.84	20081.80
692.97	20093.50
693.11	19838.38
693.24	19791.57
693.38	19587.94
693.51	19562.20
693.65	19777.53
693.78	19449.85
693.92	19700.29
694.05	19267.29
694.19	19157.28
694.32	18998.13
694.45	19066.00
694.59	19084.73
694.72	19192.39
694.86	18738.33
694.99	18417.68
695.13	18363.84
695.26	18342.78
695.39	18310.01
695.53	18239.79
695.66	18616.62
695.80	18511.30
695.93	18403.63
696.07	18066.60
696.20	18101.70
696.33	18274.90
696.47	17968.29
696.60	17846.58
696.73	18017.44
696.87	17848.93
697.00	17687.43
697.14	17895.74
697.27	17401.88
697.40	17521.25
697.54	17315.28
697.67	17507.21
697.80	17195.92
697.94	17291.88
698.07	17341.03
698.21	17130.38
698.34	16975.91
698.47	17043.78
698.61	16568.65
698.74	16638.87
698.87	16610.78
699.01	16458.65
699.14	16322.90
699.27	16578.01
699.40	16655.25
699.54	16238.64
699.67	16056.08
699.80	16290.13
699.94	16465.67
700.07	15995.22
700.20	15719.04
700.34	15763.51
700.47	15770.53
700.60	15880.53
700.73	16013.95
700.87	15847.77
701.00	15597.33
701.13	15733.08
701.26	15267.31
701.40	15452.22
701.53	15122.20
701.66	15454.56
701.79	15140.93
701.93	14984.11
702.06	14614.30
702.19	15220.50
702.32	14937.30
702.46	14565.15
702.59	14710.27
702.72	14794.53
702.85	14754.74
702.99	14946.66
703.12	14963.04
703.25	14803.89
703.38	14497.28
703.51	14345.14
703.65	14427.06
703.78	14581.54
703.91	14024.49
704.04	13937.89
704.17	14141.52
704.31	13893.42
704.44	13734.26
704.57	13593.83
704.70	13696.82
704.83	13626.60
704.96	13734.26
705.10	13666.39
705.23	13467.44
>>>>>End Processed Spectral Data<<<<<
