SpectraSuite Data File
++++++++++++++++++++++++++++++++++++
Date: Fri Oct 25 10:44:41 EDT 2013
User: price-jones
Dark Spectrum Present: No
Reference Spectrum Present: No
Number of Sampled Component Spectra: 1
Spectrometers: USB2+H05261
Integration Time (usec): 100000 (USB2+H05261)
Spectra Averaged: 1 (USB2+H05261)
Boxcar Smoothing: 0 (USB2+H05261)
Correct for Electrical Dark: No (USB2+H05261)
Strobe/Lamp Enabled: No (USB2+H05261)
Correct for Detector Non-linearity: No (USB2+H05261)
Correct for Stray Light: No (USB2+H05261)
Number of Pixels in Processed Spectrum: 2048
>>>>>Begin Processed Spectral Data<<<<<
365.73	147.45
365.92	147.45
366.12	147.45
366.32	65.54
366.52	0.00
366.72	81.92
366.91	42.13
367.11	0.00
367.31	44.47
367.51	21.06
367.70	0.00
367.90	163.84
368.10	79.58
368.30	28.09
368.49	70.22
368.69	46.81
368.89	0.00
369.09	28.09
369.28	60.85
369.48	79.58
369.68	42.13
369.87	177.88
370.07	42.13
370.27	187.24
370.47	156.82
370.66	360.44
370.86	407.25
371.06	454.06
371.25	486.83
371.45	454.06
371.65	386.19
371.84	437.68
372.04	493.85
372.24	498.53
372.44	461.09
372.63	517.26
372.83	526.62
373.03	449.38
373.22	456.40
373.42	491.51
373.62	526.62
373.81	561.73
374.01	543.00
374.21	601.52
374.40	531.30
374.60	510.24
374.79	498.53
374.99	540.66
375.19	468.11
375.38	564.07
375.58	493.85
375.78	505.56
375.97	545.34
376.17	613.22
376.37	505.56
376.56	620.24
376.76	571.09
376.95	641.31
377.15	573.43
377.35	475.13
377.54	571.09
377.74	521.94
377.93	601.52
378.13	650.67
378.33	638.97
378.52	608.54
378.72	645.99
378.91	610.88
379.11	608.54
379.31	608.54
379.50	580.45
379.70	596.84
379.89	653.01
380.09	585.13
380.28	620.24
380.48	601.52
380.68	589.82
380.87	629.60
381.07	573.43
381.26	650.67
381.46	615.56
381.65	688.12
381.85	643.65
382.04	603.86
382.24	692.80
382.43	718.54
382.63	704.50
382.83	594.50
383.02	653.01
383.22	676.41
383.41	655.35
383.61	739.61
383.80	753.65
384.00	664.71
384.19	763.01
384.39	748.97
384.58	674.07
384.78	650.67
384.97	711.52
385.17	723.23
385.36	734.93
385.56	657.69
385.75	716.20
385.95	826.21
386.14	828.55
386.34	718.54
386.53	835.57
386.72	788.76
386.92	835.57
387.11	856.64
387.31	763.01
387.50	849.61
387.70	828.55
387.89	847.27
388.09	786.42
388.28	901.11
388.48	816.85
388.67	835.57
388.86	917.49
389.06	891.74
389.25	894.08
389.45	873.02
389.64	844.93
389.84	866.00
390.03	835.57
390.22	866.00
390.42	894.08
390.61	873.02
390.81	1034.52
391.00	945.58
391.19	940.90
391.39	966.64
391.58	983.02
391.78	959.62
391.97	990.05
392.16	943.24
392.36	987.71
392.55	947.92
392.75	926.85
392.94	933.87
393.13	971.32
393.33	994.73
393.52	947.92
393.71	1018.13
393.91	1067.28
394.10	1107.07
394.29	1041.54
394.49	999.41
394.68	1027.50
394.88	1121.12
395.07	1104.73
395.26	1118.78
395.46	1158.57
395.65	1181.97
395.84	1128.14
396.04	1160.91
396.23	1083.67
396.42	1006.43
396.62	1013.45
396.81	1191.33
397.00	1203.04
397.19	1226.44
397.39	1142.18
397.58	1273.25
397.77	1261.55
397.97	1186.65
398.16	1203.04
398.35	1329.42
398.55	1280.27
398.74	1336.45
398.93	1336.45
399.12	1336.45
399.32	1348.15
399.51	1341.13
399.70	1430.07
399.90	1308.36
400.09	1385.60
400.28	1401.98
400.47	1418.36
400.67	1385.60
400.86	1322.40
401.05	1392.62
401.24	1481.56
401.44	1514.33
401.63	1460.49
401.82	1493.26
402.01	1413.68
402.21	1507.30
402.40	1593.90
402.59	1572.84
402.78	1558.80
402.97	1556.46
403.17	1540.07
403.36	1497.94
403.55	1621.99
403.74	1603.27
403.93	1678.16
404.13	1675.82
404.32	1713.27
404.51	1633.69
404.70	1802.21
404.89	1643.06
405.09	1846.68
405.28	1750.72
405.47	1657.10
405.66	1729.66
405.85	1668.80
406.05	1825.62
406.24	1804.55
406.43	1790.51
406.62	1799.87
406.81	1823.28
407.00	1830.30
407.20	1825.62
407.39	1806.89
407.58	1933.28
407.77	1963.71
407.96	2008.18
408.15	1923.92
408.34	1921.58
408.54	2012.86
408.73	1970.73
408.92	2073.71
409.11	2057.33
409.30	2094.78
409.49	2012.86
409.68	2076.06
409.87	1937.96
410.07	2106.48
410.26	2054.99
410.45	2223.51
410.64	2132.23
410.83	2172.02
411.02	2204.78
411.21	2246.91
411.40	2204.78
411.59	2232.87
411.78	2272.66
411.98	2172.02
412.17	2396.71
412.36	2352.24
412.55	2342.88
412.74	2389.69
412.93	2441.18
413.12	2443.52
413.31	2504.37
413.50	2560.55
413.69	2525.44
413.88	2635.44
414.07	2572.25
414.26	2520.76
414.45	2548.84
414.64	2509.05
414.83	2689.28
415.02	2675.23
415.22	2822.69
415.41	2740.77
415.60	2708.00
415.79	2696.30
415.98	2860.13
416.17	3035.67
416.36	2752.47
416.55	2785.24
416.74	2986.52
416.93	2984.18
417.12	2899.92
417.31	2909.29
417.50	3014.61
417.69	3157.38
417.88	3045.04
418.07	2986.52
418.26	3098.87
418.45	3110.57
418.64	3183.13
418.83	3129.30
419.02	3082.49
419.21	3208.87
419.39	3155.04
419.58	3173.77
419.77	3122.27
419.96	3225.26
420.15	3309.52
420.34	3351.65
420.53	3281.43
420.72	3346.97
420.91	3463.99
421.10	3344.63
421.29	3346.97
421.48	3403.14
421.67	3353.99
421.86	3337.60
422.05	3522.51
422.24	3396.12
422.43	3452.29
422.61	3468.67
422.80	3550.59
422.99	3660.60
423.18	3403.14
423.37	3634.85
423.56	3700.39
423.75	3510.80
423.94	3520.17
424.13	3227.60
424.32	3480.38
424.50	3520.17
424.69	3503.78
424.88	3550.59
425.07	3559.95
425.26	3611.45
425.45	3613.79
425.64	3447.61
425.83	3597.40
426.01	3522.51
426.20	3672.30
426.39	3562.30
426.58	3513.14
426.77	3506.12
426.96	3669.96
427.15	3658.26
427.33	3695.71
427.52	3655.92
427.71	3707.41
427.90	3810.39
428.09	3777.62
428.28	3733.15
428.46	3768.26
428.65	3742.52
428.84	3857.20
429.03	3950.82
429.22	3693.37
429.40	3899.33
429.59	3784.65
429.78	3574.00
429.97	3581.02
430.16	3707.41
430.34	3857.20
430.53	3868.91
430.72	3772.94
430.91	3803.37
431.10	3899.33
431.28	3978.91
431.47	4107.64
431.66	4014.02
431.85	3995.29
432.03	4222.33
432.22	4234.03
432.41	4086.58
432.60	4159.13
432.79	4131.05
432.97	4386.16
433.16	4271.48
433.35	4215.30
433.54	4315.95
433.72	4311.27
433.91	4212.96
434.10	4231.69
434.28	4437.66
434.47	4461.06
434.66	4290.20
434.85	4547.66
435.03	4411.91
435.22	4414.25
435.41	4531.28
435.59	4648.30
435.78	4592.13
435.97	4486.81
436.16	4713.84
436.34	4503.19
436.53	4432.97
436.72	4807.46
436.90	4449.36
437.09	4674.05
437.28	4557.02
437.46	4566.39
437.65	4678.73
437.84	4770.01
438.02	4608.51
438.21	4585.11
438.40	4643.62
438.58	4903.42
438.77	4936.19
438.96	4924.49
439.14	5076.62
439.33	5032.15
439.52	4922.15
439.70	5156.20
439.89	5200.67
440.08	5036.83
440.26	5203.01
440.45	5078.96
440.63	5350.46
440.82	5465.15
441.01	5277.91
441.19	5303.65
441.38	5411.32
441.57	5413.66
441.75	5387.91
441.94	5521.32
442.12	5701.54
442.31	5769.42
442.50	5610.26
442.68	5579.84
442.87	5743.67
443.05	5678.14
443.24	5811.55
443.43	5617.29
443.61	5706.23
443.80	6076.03
443.98	5778.78
444.17	5551.75
444.35	5921.56
444.54	5982.41
444.73	5774.10
444.91	5614.95
445.10	5638.35
445.28	5771.76
445.47	5654.73
445.65	5809.21
445.84	5607.92
446.02	5729.63
446.21	5933.26
446.39	5877.09
446.58	6080.71
446.77	5949.64
446.95	5879.43
447.14	6001.13
447.32	6080.71
447.51	5888.79
447.69	5947.30
447.88	5980.07
448.06	6012.84
448.25	5996.45
448.43	6073.69
448.62	6076.03
448.80	5994.11
448.99	6076.03
449.17	6155.61
449.36	6115.82
449.54	6120.50
449.73	6246.89
449.91	6478.60
450.10	6282.00
450.28	6305.40
450.46	6471.58
450.65	6497.33
450.83	6331.15
451.02	6551.16
451.20	6455.20
451.39	6490.31
451.57	6427.11
451.76	6296.04
451.94	6324.13
452.13	6705.63
452.31	6511.37
452.49	6345.19
452.68	6492.65
452.86	6333.49
453.05	6363.92
453.23	6516.05
453.42	6530.09
453.60	6689.25
453.78	6647.12
453.97	6590.95
454.15	6511.37
454.34	6619.04
454.52	6773.51
454.70	6890.54
454.89	6635.42
455.07	6857.77
455.26	6785.21
455.44	6916.28
455.62	6827.34
455.81	6920.96
455.99	6810.96
456.17	6951.39
456.36	6979.48
456.54	7222.89
456.73	7124.59
456.91	7293.11
457.09	7337.58
457.28	7536.52
457.46	7262.68
457.64	7414.82
457.83	7428.86
458.01	7232.26
458.19	7414.82
458.38	7349.28
458.56	7339.92
458.74	7536.52
458.93	7386.73
459.11	7478.01
459.29	7438.22
459.48	7583.34
459.66	7660.57
459.84	7606.74
460.03	7747.17
460.21	7733.13
460.39	7634.83
460.57	7524.82
460.76	7798.66
460.94	7728.45
461.12	7786.96
461.31	7791.64
461.49	7990.59
461.67	7658.23
461.85	8093.57
462.04	7826.75
462.22	8025.70
462.40	7969.52
462.59	8051.44
462.77	8046.76
462.95	7969.52
463.13	7864.20
463.32	8138.04
463.50	8241.03
463.68	8219.96
463.86	8159.11
464.05	7953.14
464.23	8084.21
464.41	8304.22
464.59	8135.70
464.78	8264.43
464.96	8121.66
465.14	7976.55
465.32	8156.77
465.50	8180.17
465.69	8252.73
465.87	8315.92
466.05	8318.26
466.23	8250.39
466.41	8409.54
466.60	8524.23
466.78	8238.69
466.96	8411.89
467.14	8388.48
467.32	8325.29
467.51	8479.76
467.69	8208.26
467.87	8678.71
468.05	8718.50
468.23	8540.61
468.41	8730.20
468.60	8657.64
468.78	8542.96
468.96	8535.93
469.14	8791.05
469.32	8865.95
469.50	8683.39
469.69	8964.25
469.87	9039.15
470.05	8872.97
470.23	8798.07
470.41	8891.70
470.59	8908.08
470.77	9046.17
470.95	9064.89
471.14	9174.90
471.32	9006.38
471.50	9343.42
471.68	9275.54
471.86	9308.31
472.04	9399.59
472.22	9404.27
472.40	9282.56
472.58	9413.63
472.77	9516.62
472.95	9338.74
473.13	9846.63
473.31	9338.74
473.49	9490.87
473.67	9617.26
473.85	9722.59
474.03	9860.68
474.21	9832.59
474.39	10024.51
474.57	9921.53
474.75	10015.15
474.93	10136.86
475.12	10076.01
475.30	10186.01
475.48	10101.75
475.66	10347.51
475.84	10328.78
476.02	10490.28
476.20	10424.75
476.38	10581.56
476.56	10682.20
476.74	10909.24
476.92	10518.37
477.10	10574.54
477.28	10923.28
477.46	11023.92
477.64	11124.57
477.82	11267.34
478.00	11257.98
478.18	11084.78
478.36	11571.61
478.54	11557.57
478.72	11721.40
478.90	11625.44
479.08	11995.25
479.26	11838.43
479.44	12081.85
479.62	11948.43
479.80	11932.05
479.98	12145.04
480.16	12159.08
480.34	12273.77
480.52	12294.83
480.70	12276.11
480.88	12369.73
481.06	12620.17
481.24	12791.03
481.41	12865.92
481.59	12999.34
481.77	13184.24
481.95	13083.59
482.13	13247.43
482.31	13097.64
482.49	13523.62
482.67	13635.96
482.85	13802.14
483.03	13926.19
483.21	13813.84
483.39	13977.68
483.57	13877.04
483.74	14377.91
483.92	14174.28
484.10	14162.58
484.28	14541.75
484.46	14719.63
484.64	14867.08
484.82	14455.15
485.00	14572.18
485.18	14967.73
485.35	15138.58
485.53	15042.62
485.71	15087.09
485.89	15419.45
486.07	15332.85
486.25	15335.19
486.43	15473.28
486.61	15807.98
486.78	15880.53
486.96	16109.91
487.14	16189.49
487.32	15915.64
487.50	16159.06
487.68	16622.48
487.85	16706.74
488.03	16774.62
488.21	17013.35
488.39	17043.78
488.57	17247.41
488.75	17312.94
488.92	17551.68
489.10	17734.24
489.28	17724.88
489.46	17825.52
489.64	17930.84
489.81	18387.25
489.99	18611.94
490.17	18466.83
490.35	18604.92
490.53	18410.65
490.70	18960.68
490.88	18721.95
491.06	19042.60
491.24	18984.09
491.41	19300.06
491.59	19260.27
491.77	19157.28
491.95	18930.25
492.13	19609.01
492.30	20070.09
492.48	19864.13
492.66	19733.06
492.84	19878.17
493.01	20156.69
493.19	20252.66
493.37	20446.92
493.54	20432.88
493.72	20587.35
493.90	20762.89
494.08	20952.48
494.25	21231.00
494.43	21085.89
494.61	21434.63
494.79	21451.01
494.96	21268.45
495.14	21385.47
495.32	21664.00
495.49	21436.97
495.67	21916.78
495.85	22087.64
496.02	22373.18
496.20	22319.35
496.38	22520.63
496.55	22604.89
496.73	22850.65
496.91	22988.74
497.09	23180.67
497.26	23005.13
497.44	23129.17
497.62	23168.96
497.79	23391.31
497.97	23442.81
498.14	23227.48
498.32	23882.83
498.50	23449.83
498.67	24184.76
498.85	23847.72
499.03	24301.78
499.20	24018.58
499.38	23934.32
499.56	24233.91
499.73	24397.74
499.91	24507.75
500.08	24716.06
500.26	24833.08
500.44	24205.82
500.61	24601.37
500.79	24538.18
500.97	24751.17
501.14	24727.76
501.32	24926.71
501.49	25305.87
501.67	25282.47
501.84	25387.79
502.02	25343.32
502.20	25865.26
502.37	25509.50
502.55	25270.76
502.72	25841.85
502.90	25982.29
503.07	25773.98
503.25	26064.21
503.43	25898.03
503.60	26347.41
503.78	25710.78
503.95	26148.46
504.13	26235.06
504.30	26480.82
504.48	26340.39
504.65	26623.59
504.83	26749.98
505.01	26909.14
505.18	26916.16
505.36	27405.33
505.53	26848.29
505.71	27419.38
505.88	26878.71
506.06	27459.16
506.23	27381.93
506.41	27201.71
506.58	27583.21
506.76	27405.33
506.93	27630.02
507.11	27601.94
507.28	27594.92
507.46	27749.39
507.63	28217.50
507.81	27962.38
507.98	27899.19
508.16	28205.80
508.33	28107.49
508.50	28175.37
508.68	28636.45
508.85	28926.68
509.03	28481.98
509.20	29261.38
509.38	28783.91
509.55	28833.06
509.73	29116.26
509.90	29355.00
510.08	28905.62
510.25	29242.65
510.42	29177.12
510.60	29537.56
510.77	29605.44
510.95	29600.76
511.12	29392.45
511.30	29832.47
511.47	30246.74
511.64	30054.82
511.82	30249.08
511.99	30096.95
512.17	30110.99
512.34	29893.32
512.51	30459.73
512.69	30408.24
512.86	30487.82
513.04	30562.72
513.21	30394.20
513.38	30558.03
513.56	30333.34
513.73	30473.78
513.90	30850.60
514.08	30913.80
514.25	31005.08
514.43	31072.95
514.60	31033.16
514.77	31058.91
514.95	31372.54
515.12	31400.63
515.29	31253.17
515.47	31665.11
515.64	31665.11
515.81	31480.21
515.99	31433.39
516.16	31529.36
516.33	31803.20
516.51	31496.59
516.68	31393.61
516.85	31433.39
517.03	31777.45
517.20	31838.31
517.37	31711.92
517.54	32177.68
517.72	32060.66
517.89	31889.80
518.06	31730.64
518.24	32123.85
518.41	31852.35
518.58	32187.05
518.75	32818.99
518.93	32348.54
519.10	32589.62
519.27	32631.75
519.45	32184.71
519.62	32776.86
519.79	33184.12
519.96	33090.49
520.14	33661.58
520.31	32622.39
520.48	32931.34
520.65	33003.89
520.83	33628.82
521.00	33687.33
521.17	33699.03
521.34	33310.50
521.52	33783.29
521.69	33848.83
521.86	33649.88
522.03	34162.46
522.20	34031.39
522.38	34155.44
522.55	34078.20
522.72	34066.50
522.89	33968.19
523.07	34359.06
523.24	33916.70
523.41	34242.04
523.58	34534.60
523.75	34616.52
523.92	34749.93
524.10	34878.66
524.27	34824.83
524.44	34913.77
524.61	35000.37
524.78	35276.55
524.96	35276.55
525.13	35388.90
525.30	35641.68
525.47	35461.46
525.64	35438.05
525.81	35470.82
525.98	35590.19
526.16	35290.60
526.33	35304.64
526.50	35470.82
526.67	35192.30
526.84	35101.01
527.01	35061.22
527.18	35693.17
527.36	35864.03
527.53	35896.80
527.70	36044.25
527.87	35772.75
528.04	36030.21
528.21	36439.80
528.38	35962.33
528.55	36273.62
528.72	36453.84
528.89	36105.10
529.07	36294.69
529.24	36187.02
529.41	35967.01
529.58	36023.19
529.75	36044.25
529.92	36591.94
530.09	36505.34
530.26	36975.78
530.43	36800.24
530.60	37050.68
530.77	36577.89
530.94	36940.68
531.11	36549.81
531.28	37048.34
531.46	36985.15
531.63	37104.51
531.80	37043.66
531.97	36833.01
532.14	37060.04
532.31	36636.41
532.48	37380.70
532.65	37385.38
532.82	37539.85
532.99	37577.30
533.16	36950.04
533.33	37118.56
533.50	37654.54
533.67	37516.45
533.84	37668.58
534.01	37603.05
534.18	37303.46
534.35	38244.35
534.52	37717.73
534.69	37715.39
534.86	37914.34
535.03	37745.82
535.20	38382.45
535.37	38139.03
535.54	38396.49
535.71	38518.20
535.88	38078.18
536.05	38085.20
536.22	38630.54
536.38	38300.53
536.55	38560.33
536.72	38415.21
536.89	38345.00
537.06	38443.30
537.23	38855.23
537.40	38389.47
537.57	38651.61
537.74	38490.11
537.91	39150.14
538.08	38693.74
538.25	38209.25
538.42	38696.08
538.59	39042.48
538.75	38398.83
538.92	39105.67
539.09	38899.70
539.26	38759.27
539.43	39110.35
539.60	39196.95
539.77	39447.39
539.94	39129.08
540.11	39234.40
540.28	39065.88
540.44	39178.23
540.61	39166.52
540.78	39196.95
540.95	39353.77
541.12	39541.01
541.29	39206.31
541.46	39421.64
541.62	39250.78
541.79	39758.68
541.96	39199.29
542.13	39562.08
542.30	39583.14
542.47	39566.76
542.63	39906.13
542.80	39761.02
542.97	40528.72
543.14	40575.53
543.31	40474.88
543.48	40315.73
543.64	40676.17
543.81	40472.54
543.98	40760.43
544.15	40526.38
544.32	40620.00
544.48	40870.43
544.65	40907.88
544.82	40751.07
544.99	40720.64
545.16	40678.51
545.32	40407.01
545.49	40751.07
545.66	40842.35
545.83	41464.93
546.00	41387.69
546.16	40917.25
546.33	40734.68
546.50	40472.54
546.67	40751.07
546.83	40704.26
547.00	41071.72
547.17	40690.21
547.34	41116.19
547.50	40942.99
547.67	41411.10
547.84	41476.63
548.00	41720.05
548.17	41806.65
548.34	41345.56
548.51	41801.97
548.67	41553.87
548.84	41778.56
549.01	41532.81
549.18	41282.37
549.34	41476.63
549.51	41762.18
549.68	41876.86
549.84	41539.83
550.01	42202.20
550.18	41649.83
550.34	41869.84
550.51	41603.02
550.68	41895.59
550.84	41275.35
551.01	42024.32
551.18	41429.82
551.34	41710.69
551.51	42403.49
551.68	42162.41
551.84	41916.65
552.01	42021.98
552.18	42478.38
552.34	41577.28
552.51	42127.30
552.68	42206.88
552.84	42653.92
553.01	42574.34
553.18	42539.24
553.34	42251.35
553.51	41804.31
553.67	42572.00
553.84	42696.05
554.01	42546.26
554.17	42932.45
554.34	42710.10
554.51	42784.99
554.67	42639.88
554.84	42230.29
555.00	42646.90
555.17	42541.58
555.33	42494.77
555.50	42473.70
555.67	42253.69
555.83	42649.24
556.00	42459.66
556.16	43477.79
556.33	42988.62
556.50	42511.15
556.66	42579.03
556.83	42490.09
556.99	43278.85
557.16	42700.73
557.32	43152.46
557.49	42939.47
557.65	42761.59
557.82	42834.14
557.98	42841.17
558.15	43400.55
558.32	43077.56
558.48	43093.94
558.65	43110.33
558.81	42948.83
558.98	43136.07
559.14	42848.19
559.31	42958.19
559.47	43133.73
559.64	43646.31
559.80	43643.97
559.97	43328.00
560.13	42667.97
560.30	43217.99
560.46	42735.84
560.63	43150.12
560.79	43344.38
560.96	43885.04
561.12	43510.56
561.29	43164.16
561.45	43421.62
561.61	43430.98
561.78	43487.15
561.94	43344.38
562.11	43990.37
562.27	43126.71
562.44	43056.50
562.60	43941.22
562.77	43655.67
562.93	43636.95
563.10	43522.26
563.26	43440.34
563.42	43587.80
563.59	43173.52
563.75	43512.90
563.92	43842.92
564.08	42911.38
564.24	43749.29
564.41	43985.69
564.57	43728.23
564.74	43583.12
564.90	43737.59
565.07	43709.50
565.23	43756.32
565.39	43356.08
565.56	43929.51
565.72	43569.07
565.88	43407.58
566.05	44076.97
566.21	43981.01
566.38	43618.22
566.54	43814.83
566.70	43749.29
566.87	44095.69
567.03	43931.86
567.19	44140.16
567.36	44055.90
567.52	43688.44
567.68	44044.20
567.85	43536.30
568.01	43976.33
568.17	43775.04
568.34	44264.21
568.50	43775.04
568.66	43772.70
568.83	43906.11
568.99	43494.18
569.15	43505.88
569.32	43505.88
569.48	43938.88
569.64	44149.53
569.81	44832.96
569.97	43824.19
570.13	44098.03
570.30	43686.10
570.46	43545.67
570.62	43744.61
570.78	43660.35
570.95	44311.02
571.11	44278.25
571.27	44041.86
571.43	44023.14
571.60	43964.62
571.76	44231.44
571.92	43821.85
572.09	43868.66
572.25	44240.81
572.41	43988.03
572.57	44044.20
572.74	44446.77
572.90	44093.35
573.06	44243.15
573.22	44231.44
573.38	44306.34
573.55	44224.42
573.71	43995.05
573.87	44224.42
574.03	44137.82
574.20	43885.04
574.36	43784.40
574.52	44325.07
574.68	44395.28
574.84	44334.43
575.01	44421.03
575.17	44390.60
575.33	44060.58
575.49	44161.23
575.65	44217.40
575.82	44713.59
575.98	44116.76
576.14	44612.95
576.30	44538.05
576.46	43882.70
576.62	44135.48
576.79	44367.20
576.95	43875.68
577.11	44051.22
577.27	43889.73
577.43	44020.80
577.59	43854.62
577.75	44119.10
577.92	44016.11
578.08	44135.48
578.24	44023.14
578.40	44238.47
578.56	44236.12
578.72	44112.08
578.88	44098.03
579.04	44285.28
579.21	44322.72
579.37	44231.44
579.53	44257.19
579.69	43999.73
579.85	44093.35
580.01	44725.30
580.17	44278.25
580.33	44325.07
580.49	44512.31
580.65	44114.42
580.82	44582.52
580.98	44430.39
581.14	44296.98
581.30	44645.72
581.46	44629.34
581.62	44306.34
581.78	44371.88
581.94	44999.14
582.10	44240.81
582.26	44402.30
582.42	44144.84
582.58	44343.79
582.74	43861.64
582.90	44126.12
583.06	44329.75
583.22	44442.09
583.38	44879.77
583.54	44318.04
583.70	44374.22
583.86	44369.54
584.02	44011.43
584.18	45099.78
584.34	44540.39
584.50	44048.88
584.66	44444.43
584.82	44442.09
584.98	44617.63
585.14	44301.66
585.30	44589.55
585.46	44282.94
585.62	44332.09
585.78	44521.67
585.94	44341.45
586.10	44538.05
586.26	44016.11
586.42	44479.54
586.58	44435.07
586.74	44201.02
586.90	44048.88
587.06	43725.89
587.22	44760.40
587.38	44318.04
587.54	44566.14
587.70	44416.35
587.86	44318.04
588.02	44725.30
588.18	44481.88
588.34	44430.39
588.49	44041.86
588.65	44341.45
588.81	44048.88
588.97	43929.51
589.13	44273.57
589.29	44287.62
589.45	44671.46
589.61	44397.62
589.77	44456.14
589.93	44175.27
590.08	44383.58
590.24	44612.95
590.40	44198.68
590.56	44498.26
590.72	44591.89
590.88	44664.44
591.04	44790.83
591.20	45455.54
591.35	44889.13
591.51	45111.49
591.67	44596.57
591.83	44987.44
591.99	44741.68
592.15	45010.84
592.31	44821.26
592.46	44573.16
592.62	44751.04
592.78	44875.09
592.94	44872.75
593.10	44596.57
593.26	44966.37
593.41	44470.18
593.57	44685.51
593.73	44856.37
593.89	45022.54
594.05	45118.51
594.20	44776.79
594.36	45104.46
594.52	44584.86
594.68	45001.48
594.84	44566.14
594.99	44968.71
595.15	44694.87
595.31	45432.14
595.47	44835.30
595.62	44683.17
595.78	44830.62
595.94	45162.98
596.10	44744.02
596.25	44758.06
596.41	45254.26
596.57	44645.72
596.73	44985.10
596.88	44484.22
597.04	44847.00
597.20	44570.82
597.36	44814.24
597.51	45387.67
597.67	45144.25
597.83	45106.80
597.99	44790.83
598.14	45249.58
598.30	44790.83
598.46	45289.37
598.61	44706.57
598.77	44982.76
598.93	44275.91
599.09	44645.72
599.24	45219.15
599.40	45116.17
599.56	44903.18
599.71	45010.84
599.87	45228.51
600.03	44879.77
600.18	44870.41
600.34	44877.43
600.50	44830.62
600.65	44753.38
600.81	44825.94
600.97	44783.81
601.12	45282.34
601.28	45104.46
601.44	44568.48
601.59	45034.25
601.75	44432.73
601.91	44570.82
602.06	44765.09
602.22	45031.91
602.37	44753.38
602.53	45024.89
602.69	45343.20
602.84	44912.54
603.00	44456.14
603.16	45069.36
603.31	44769.77
603.47	44928.92
603.62	44835.30
603.78	44793.17
603.94	44914.88
604.09	45375.97
604.25	44690.19
604.40	45020.20
604.56	44865.73
604.71	44701.89
604.87	44596.57
605.03	44669.12
605.18	44505.29
605.34	44701.89
605.49	44605.93
605.65	44760.40
605.80	44648.06
605.96	44554.44
606.12	44783.81
606.27	45092.76
606.43	44320.38
606.58	44659.76
606.74	44699.55
606.89	44065.27
607.05	44587.21
607.20	44657.42
607.36	44423.37
607.51	44832.96
607.67	44823.60
607.82	44952.33
607.98	44645.72
608.13	44105.06
608.29	44353.15
608.44	44315.70
608.60	44154.21
608.75	44219.74
608.91	44224.42
609.06	44100.37
609.22	44327.41
609.37	44240.81
609.53	44268.89
609.68	44437.41
609.84	44491.24
609.99	44388.26
610.15	44133.14
610.30	43936.54
610.46	44100.37
610.61	43779.72
610.76	44622.31
610.92	44006.75
611.07	44074.63
611.23	44395.28
611.38	43913.13
611.54	44252.51
611.69	44217.40
611.84	43700.14
612.00	44006.75
612.15	43585.46
612.31	44364.85
612.46	44119.10
612.62	44051.22
612.77	43838.23
612.92	44203.36
613.08	44091.01
613.23	43702.48
613.39	43793.76
613.54	43924.83
613.69	44186.97
613.85	43990.37
614.00	43927.17
614.15	44100.37
614.31	44079.31
614.46	44224.42
614.62	43906.11
614.77	43761.00
614.92	44231.44
615.08	43782.06
615.23	43938.88
615.38	43548.01
615.54	43557.37
615.69	43957.60
615.84	43414.60
616.00	43592.48
616.15	43328.00
616.30	43833.55
616.46	43447.36
616.61	43208.63
616.76	43285.87
616.92	43021.39
617.07	43466.09
617.22	43416.94
617.37	42948.83
617.53	43489.49
617.68	43505.88
617.83	43456.73
617.99	43356.08
618.14	43452.05
618.29	43517.58
618.45	42773.29
618.60	42768.61
618.75	43021.39
618.90	43363.11
619.06	43309.27
619.21	43981.01
619.36	43459.07
619.51	43409.92
619.67	43311.61
619.82	42862.23
619.97	43342.04
620.12	43384.17
620.28	42607.11
620.43	42953.51
620.58	43222.67
620.73	42859.89
620.89	42990.96
621.04	42670.31
621.19	43023.73
621.34	42876.27
621.49	42784.99
621.65	42508.81
621.80	43091.60
621.95	42277.10
622.10	42887.98
622.25	42677.33
622.41	42438.59
622.56	42494.77
622.71	42731.16
622.86	42487.74
623.01	42478.38
623.16	42522.85
623.32	42295.82
623.47	42384.76
623.62	42462.00
623.77	42312.20
623.92	42429.23
624.07	42562.64
624.23	42003.25
624.38	42204.54
624.53	41979.85
624.68	42115.60
624.83	42178.79
624.98	42146.03
625.13	42213.90
625.29	42101.56
625.44	41867.50
625.59	41771.54
625.74	41427.48
625.89	41649.83
626.04	41930.70
626.19	42040.70
626.34	42354.33
626.49	41982.19
626.65	41750.48
626.80	41876.86
626.95	41930.70
627.10	41780.90
627.25	41956.44
627.40	41469.61
627.55	41607.70
627.70	41226.20
627.85	41708.35
628.00	41436.84
628.15	41141.94
628.30	41212.15
628.45	41504.72
628.60	41773.88
628.76	41397.06
628.91	41347.90
629.06	41673.24
629.21	41411.10
629.36	41354.93
629.51	41237.90
629.66	41160.66
629.81	41184.07
629.96	41640.47
630.11	41275.35
630.26	41254.28
630.41	41251.94
630.56	40844.69
630.71	41104.49
630.86	41186.41
631.01	41029.59
631.16	41102.15
631.31	41099.81
631.46	40594.25
631.61	41022.57
631.76	41029.59
631.91	41287.05
632.06	41460.25
632.21	41188.75
632.36	40985.12
632.51	40821.28
632.66	40652.76
632.81	40484.25
632.96	40577.87
633.10	40706.60
633.25	40638.72
633.40	40917.25
633.55	40947.67
633.70	40673.83
633.85	40233.81
634.00	39992.73
634.15	40851.71
634.30	40533.40
634.45	40350.84
634.60	40694.89
634.75	40816.60
634.90	40610.64
635.05	40484.25
635.19	40168.27
635.34	40203.38
635.49	40222.11
635.64	40114.44
635.79	40320.41
635.94	40081.67
636.09	40212.74
636.24	40151.89
636.39	39643.99
636.53	40264.24
636.68	40055.93
636.83	40247.85
636.98	40381.26
637.13	39735.27
637.28	40130.83
637.43	40428.07
637.57	40123.80
637.72	40229.13
637.87	39882.73
638.02	40212.74
638.17	39917.84
638.32	40091.04
638.46	39725.91
638.61	39587.82
638.76	39749.32
638.91	39414.62
639.06	39966.99
639.20	39515.26
639.35	39807.83
639.50	39854.64
639.65	39878.05
639.80	40076.99
639.94	39557.39
640.09	39335.04
640.24	38960.56
640.39	39419.30
640.54	39276.53
640.68	39693.15
640.83	39789.11
640.98	39239.08
641.13	38988.64
641.27	39367.81
641.42	39459.09
641.57	39503.56
641.72	39515.26
641.86	38803.74
642.01	39463.77
642.16	38597.77
642.31	39068.22
642.45	39302.28
642.60	38789.70
642.75	39147.80
642.90	38895.02
643.04	39196.95
643.19	38897.36
643.34	39021.41
643.48	39005.03
643.63	39091.63
643.78	38904.38
643.93	38459.68
644.07	38880.98
644.22	38314.57
644.37	38391.81
644.51	38815.44
644.66	38796.72
644.81	38967.58
644.95	38712.46
645.10	38892.68
645.25	38934.81
645.39	38396.49
645.54	38522.88
645.69	38242.01
645.83	38459.68
645.98	39119.71
646.13	38195.20
646.27	38459.68
646.42	38686.71
646.57	38700.76
646.71	38197.54
646.86	38958.22
647.00	38354.36
647.15	38462.02
647.30	38274.78
647.44	37762.20
647.59	38600.12
647.74	38232.65
647.88	38288.82
648.03	38494.79
648.17	38195.20
648.32	37799.65
648.47	37933.06
648.61	38178.82
648.76	38249.03
648.90	37912.00
649.05	38181.16
649.20	38155.41
649.34	38253.72
649.49	37867.53
649.63	37909.66
649.78	37797.31
649.92	38230.31
650.07	37869.87
650.21	38101.58
650.36	37844.12
650.51	37816.04
650.65	38419.89
650.80	38373.08
650.94	37975.19
651.09	37921.36
651.23	37963.49
651.38	38059.45
651.52	37586.66
651.67	37539.85
651.81	37720.07
651.96	37551.56
652.10	37329.20
652.25	37429.85
652.39	37640.50
652.54	37528.15
652.68	37832.42
652.83	38073.49
652.97	37572.62
653.12	37146.64
653.26	36950.04
653.41	37413.46
653.55	36982.80
653.70	37542.19
653.84	37207.50
653.99	37294.10
654.13	37132.60
654.27	37315.16
654.42	36957.06
654.56	37151.32
654.71	37043.66
654.85	37092.81
655.00	37167.71
655.14	36947.70
655.29	36627.04
655.43	37160.69
655.57	36236.17
655.72	36517.04
655.86	36563.85
656.01	36458.52
656.15	36720.66
656.30	36818.97
656.44	36844.71
656.58	36224.47
656.73	36631.72
656.87	36833.01
657.01	36694.92
657.16	36835.35
657.30	36423.42
657.45	36460.87
657.59	36673.85
657.73	36203.41
657.88	36685.56
658.02	36449.16
658.16	36825.99
658.31	36488.95
658.45	36582.57
658.60	36325.11
658.74	36070.00
658.88	36201.07
659.03	36470.23
659.17	36392.99
659.31	36170.64
659.46	35714.23
659.60	36329.80
659.74	36196.38
659.89	35791.47
660.03	35840.62
660.17	36205.75
660.32	35920.20
660.46	36109.78
660.60	35702.53
660.74	35744.66
660.89	36020.84
661.03	35615.93
661.17	35321.02
661.32	35426.35
661.46	35592.53
661.60	35683.81
661.74	35515.29
661.89	35374.86
662.03	35896.80
662.17	35218.04
662.31	35077.61
662.46	35292.94
662.60	35189.95
662.74	35220.38
662.88	34766.32
663.03	34665.67
663.17	34356.72
663.31	34827.17
663.45	34857.60
663.60	34553.33
663.74	34925.47
663.88	34639.93
664.02	34539.29
664.17	34719.51
664.31	34541.63
664.45	34864.62
664.59	34520.56
664.73	34352.04
664.88	34333.32
665.02	34345.02
665.16	34218.63
665.30	34227.99
665.44	33890.96
665.59	33975.22
665.73	34476.09
665.87	33937.77
666.01	33942.45
666.15	34094.58
666.29	33958.83
666.44	34066.50
666.58	33947.13
666.72	33673.29
666.86	33699.03
667.00	34029.05
667.14	33399.44
667.28	33425.19
667.43	33125.60
667.57	33589.03
667.71	32989.85
667.85	33219.22
667.99	33003.89
668.13	32900.91
668.27	33099.86
668.41	33156.03
668.56	33207.52
668.70	33357.32
668.84	33266.03
668.98	32596.64
669.12	32879.85
669.26	32982.83
669.40	32402.38
669.54	32741.75
669.68	32353.23
669.82	32739.41
669.96	32734.73
670.10	32254.92
670.25	32624.73
670.39	32334.50
670.53	32285.35
670.67	32435.14
670.81	32428.12
670.95	32189.39
671.09	31931.93
671.23	31913.20
671.37	31906.18
671.51	31433.39
671.65	31679.15
671.79	31215.72
671.93	31459.14
672.07	31786.82
672.21	32011.51
672.35	31866.39
672.49	31761.07
672.63	31545.74
672.77	31379.56
672.91	31243.81
673.05	31655.75
673.19	31611.28
673.33	31297.64
673.47	30885.71
673.61	30782.73
673.75	30651.66
673.89	30515.90
674.03	30675.06
674.17	30749.96
674.31	30513.56
674.45	30803.79
674.59	30492.50
674.73	30534.63
674.87	30541.65
675.01	30279.51
675.15	30342.70
675.29	30401.22
675.43	30146.10
675.56	30080.56
675.70	30221.00
675.84	30003.33
675.98	29275.42
676.12	30108.65
676.26	30036.09
676.40	29560.97
676.54	29362.02
676.68	29479.05
676.82	29237.97
676.96	29301.17
677.10	29179.46
677.23	29064.77
677.37	29008.60
677.51	28760.50
677.65	29041.37
677.79	28507.72
677.93	28519.43
678.07	28322.82
678.21	28264.31
678.34	28095.79
678.48	28065.36
678.62	27955.36
678.76	27641.73
678.90	27805.56
679.04	27733.01
679.18	27922.59
679.31	27653.43
679.45	27414.69
679.59	27398.31
679.73	27391.29
679.87	27239.15
680.00	27370.22
680.14	27136.17
680.28	27105.74
680.42	26878.71
680.56	27119.79
680.70	26710.19
680.83	27005.10
680.97	27323.41
681.11	27166.60
681.25	26614.23
681.39	26621.25
681.52	26820.20
681.66	26527.63
681.80	26693.81
681.94	26508.91
682.07	25912.07
682.21	25998.67
682.35	26340.39
682.49	26108.68
682.62	26089.95
682.76	25731.85
682.90	26143.78
683.04	25720.15
683.17	25502.48
683.31	25600.78
683.45	25025.01
683.59	25076.50
683.72	24940.75
683.86	24781.59
684.00	24926.71
684.13	25254.38
684.27	25015.65
684.41	24594.35
684.55	24608.39
684.68	24559.24
684.82	24790.95
684.96	24437.53
685.09	24599.03
685.23	24161.35
685.37	24217.52
685.50	24362.64
685.64	24290.08
685.78	24088.79
685.91	23803.25
686.05	23927.30
686.19	23730.69
686.32	23524.72
686.46	23604.30
686.60	23089.38
686.73	23007.47
686.87	22948.95
687.01	22981.72
687.14	22986.40
687.28	22628.30
687.42	23007.47
687.55	22890.44
687.69	22939.59
687.82	23016.83
687.96	22469.14
688.10	22586.17
688.23	22146.15
688.37	22281.90
688.50	22354.46
688.64	22097.00
688.78	21954.22
688.91	22115.72
689.05	21937.84
689.18	21788.05
689.32	21692.08
689.46	21757.62
689.59	22052.53
689.73	22132.11
689.86	21811.45
690.00	21537.61
690.13	21383.13
690.27	21247.38
690.41	20875.24
690.54	20844.81
690.68	21050.78
690.81	20835.45
690.95	20704.38
691.08	20765.23
691.22	20929.07
691.35	20950.14
691.49	20615.44
691.62	20339.26
691.76	20643.52
691.89	20287.76
692.03	19955.41
692.16	20107.54
692.30	20133.29
692.43	20025.62
692.57	19868.81
692.70	19634.75
692.84	19536.45
692.97	19583.26
693.11	19707.31
693.24	19213.46
693.38	19199.41
693.51	19470.92
693.65	19281.33
693.78	19377.30
693.92	19185.37
694.05	19147.92
694.19	19180.69
694.32	18853.02
694.45	18937.27
694.59	18689.18
694.72	18420.02
694.86	18443.42
694.99	18649.39
695.13	18520.66
695.26	18333.42
695.39	18225.75
695.53	18080.64
695.66	18310.01
695.80	18431.72
695.93	17951.91
696.07	17958.93
696.20	18087.66
696.33	17846.58
696.47	17956.59
696.60	17759.98
696.73	17605.51
696.87	17579.76
697.00	17490.82
697.14	17516.57
697.27	17085.91
697.40	17385.50
697.54	17165.49
697.67	17081.23
697.80	17060.16
697.94	16840.15
698.07	16903.35
698.21	16819.09
698.34	16746.53
698.47	16360.34
698.61	16334.60
698.74	16594.40
698.87	16130.97
699.01	16119.27
699.14	16004.58
699.27	16313.53
699.40	16095.86
699.54	15817.34
699.67	16123.95
699.80	15714.36
699.94	15779.89
700.07	15932.03
700.20	15901.60
700.34	15482.64
700.47	15758.83
700.60	15712.02
700.73	15609.03
700.87	15611.37
701.00	15056.67
701.13	15482.64
701.26	15367.96
701.40	15126.88
701.53	15227.53
701.66	14780.48
701.79	15021.56
701.93	15035.60
702.06	14878.79
702.19	14733.67
702.32	14848.36
702.46	14700.90
702.59	14373.23
702.72	14555.79
702.85	14583.88
702.99	14373.23
703.12	14314.72
703.25	14354.51
703.38	14200.03
703.51	13778.73
703.65	14022.15
703.78	14005.77
703.91	13898.10
704.04	13825.54
704.17	14015.13
704.31	13792.78
704.44	13645.32
704.57	13781.07
704.70	13542.34
704.83	13469.78
704.96	13376.16
705.10	13516.59
705.23	13455.74
>>>>>End Processed Spectral Data<<<<<
