SpectraSuite Data File
++++++++++++++++++++++++++++++++++++
Date: Fri Oct 25 10:44:12 EDT 2013
User: price-jones
Dark Spectrum Present: No
Reference Spectrum Present: No
Number of Sampled Component Spectra: 1
Spectrometers: USB2+H05261
Integration Time (usec): 100000 (USB2+H05261)
Spectra Averaged: 1 (USB2+H05261)
Boxcar Smoothing: 0 (USB2+H05261)
Correct for Electrical Dark: No (USB2+H05261)
Strobe/Lamp Enabled: No (USB2+H05261)
Correct for Detector Non-linearity: No (USB2+H05261)
Correct for Stray Light: No (USB2+H05261)
Number of Pixels in Processed Spectrum: 2048
>>>>>Begin Processed Spectral Data<<<<<
365.73	149.79
365.92	149.79
366.12	149.79
366.32	37.45
366.52	23.41
366.72	25.75
366.91	74.90
367.11	70.22
367.31	28.09
367.51	0.00
367.70	0.00
367.90	60.85
368.10	21.06
368.30	81.92
368.49	4.68
368.69	37.45
368.89	0.00
369.09	65.54
369.28	35.11
369.48	79.58
369.68	14.04
369.87	138.09
370.07	107.66
370.27	133.41
370.47	147.45
370.66	365.12
370.86	442.36
371.06	517.26
371.25	463.43
371.45	458.74
371.65	526.62
371.84	472.79
372.04	505.56
372.24	437.68
372.44	500.87
372.63	517.26
372.83	437.68
373.03	470.45
373.22	463.43
373.42	557.05
373.62	517.26
373.81	587.47
374.01	582.79
374.21	517.26
374.40	535.98
374.60	568.75
374.79	643.65
374.99	589.82
375.19	615.56
375.38	578.11
375.58	571.09
375.78	505.56
375.97	592.16
376.17	601.52
376.37	601.52
376.56	606.20
376.76	585.13
376.95	622.58
377.15	596.84
377.35	676.41
377.54	603.86
377.74	608.54
377.93	653.01
378.13	655.35
378.33	664.71
378.52	662.37
378.72	706.84
378.91	627.26
379.11	561.73
379.31	669.39
379.50	702.16
379.70	620.24
379.89	662.37
380.09	645.99
380.28	706.84
380.48	697.48
380.68	674.07
380.87	727.91
381.07	669.39
381.26	718.54
381.46	709.18
381.65	744.29
381.85	697.48
382.04	774.72
382.24	727.91
382.43	709.18
382.63	699.82
382.83	702.16
383.02	755.99
383.22	809.83
383.41	711.52
383.61	697.48
383.80	770.04
384.00	725.57
384.19	732.59
384.39	737.27
384.58	770.04
384.78	819.19
384.97	809.83
385.17	788.76
385.36	760.67
385.56	765.36
385.75	753.65
385.95	835.57
386.14	800.46
386.34	863.66
386.53	788.76
386.72	777.06
386.92	933.87
387.11	877.70
387.31	891.74
387.50	882.38
387.70	908.13
387.89	903.45
388.09	858.98
388.28	903.45
388.48	861.32
388.67	947.92
388.86	947.92
389.06	959.62
389.25	1041.54
389.45	966.64
389.64	990.05
389.84	961.96
390.03	910.47
390.22	978.34
390.42	997.07
390.61	1086.01
390.81	1006.43
391.00	997.07
391.19	1043.88
391.39	1055.58
391.58	1083.67
391.78	1001.75
391.97	943.24
392.16	973.66
392.36	1050.90
392.55	1076.65
392.75	1025.15
392.94	959.62
393.13	971.32
393.33	1022.81
393.52	1071.97
393.71	1086.01
393.91	1135.16
394.10	1123.46
394.29	1144.52
394.49	1196.01
394.68	1245.16
394.88	1160.91
395.07	1247.51
395.26	1256.87
395.46	1146.86
395.65	1282.61
395.84	1170.27
396.04	1226.44
396.23	1163.25
396.42	1111.75
396.62	1196.01
396.81	1212.40
397.00	1158.57
397.19	1254.53
397.39	1327.08
397.58	1441.77
397.77	1345.81
397.97	1362.19
398.16	1420.71
398.35	1404.32
398.55	1467.52
398.74	1528.37
398.93	1600.93
399.12	1511.99
399.32	1458.15
399.51	1516.67
399.70	1565.82
399.90	1572.84
400.09	1523.69
400.28	1614.97
400.47	1558.80
400.67	1661.78
400.86	1624.33
401.05	1614.97
401.24	1720.29
401.44	1647.74
401.63	1706.25
401.82	1657.10
402.01	1666.46
402.21	1743.70
402.40	1673.48
402.59	1708.59
402.78	1811.57
402.97	1771.79
403.17	1762.42
403.36	1757.74
403.55	1795.19
403.74	1818.60
403.93	1879.45
404.13	1942.64
404.32	1802.21
404.51	1877.11
404.70	1834.98
404.89	1919.24
405.09	2047.97
405.28	1874.77
405.47	1865.41
405.66	2001.16
405.85	1937.96
406.05	2033.93
406.24	1886.47
406.43	1982.43
406.62	2127.55
406.81	2150.95
407.00	2099.46
407.20	2078.40
407.39	2099.46
407.58	2057.33
407.77	2228.19
407.96	2202.44
408.15	2314.79
408.34	2218.83
408.54	2265.64
408.73	2214.15
408.92	2303.09
409.11	2340.54
409.30	2326.49
409.49	2284.36
409.68	2249.25
409.87	2223.51
410.07	2431.82
410.26	2338.20
410.45	2296.07
410.64	2415.43
410.83	2602.68
411.02	2410.75
411.21	2546.50
411.40	2509.05
411.59	2534.80
411.78	2670.55
411.98	2518.42
412.17	2651.83
412.36	2658.85
412.55	2733.75
412.74	2764.17
412.93	2808.64
413.12	2759.49
413.31	2890.56
413.50	2951.42
413.69	2956.10
413.88	2796.94
414.07	2857.79
414.26	2909.29
414.45	2853.11
414.64	3026.31
414.83	3014.61
415.02	3059.08
415.22	3105.89
415.41	3009.93
415.60	3124.62
415.79	3084.83
415.98	3267.39
416.17	3288.45
416.36	3215.90
416.55	3269.73
416.74	3194.83
416.93	3265.05
417.12	3220.58
417.31	3351.65
417.50	3314.20
417.69	3391.44
417.88	3529.53
418.07	3372.71
418.26	3131.64
418.45	3471.01
418.64	3496.76
418.83	3496.76
419.02	3440.59
419.21	3529.53
419.39	3489.74
419.58	3398.46
419.77	3496.76
419.96	3644.21
420.15	3662.94
420.34	3772.94
420.53	3707.41
420.72	3716.77
420.91	3768.26
421.10	3899.33
421.29	3845.50
421.48	3707.41
421.67	3758.90
421.86	3805.71
422.05	3693.37
422.24	3779.97
422.43	3733.15
422.61	3836.14
422.80	3840.82
422.99	3901.67
423.18	3943.80
423.37	3880.61
423.56	3861.88
423.75	3859.54
423.94	3953.16
424.13	3602.08
424.32	3754.22
424.50	3941.46
424.69	3969.55
424.88	3943.80
425.07	3852.52
425.26	4025.72
425.45	3822.09
425.64	3859.54
425.83	3962.53
426.01	4014.02
426.20	3873.59
426.39	4007.00
426.58	4044.45
426.77	3885.29
426.96	3969.55
427.15	3941.46
427.33	4154.45
427.52	4161.47
427.71	4079.55
427.90	4131.05
428.09	4163.81
428.28	4084.23
428.46	4145.09
428.65	4161.47
428.84	4257.43
429.03	4292.54
429.22	3948.48
429.40	4145.09
429.59	4114.66
429.78	3911.04
429.97	4053.81
430.16	3885.29
430.34	4030.40
430.53	4201.26
430.72	4271.48
430.91	4250.41
431.10	4430.63
431.28	4428.29
431.47	4685.75
431.66	4767.67
431.85	4484.47
432.03	4655.33
432.22	4667.03
432.41	4664.69
432.60	4660.01
432.79	4660.01
432.97	4814.48
433.16	4697.46
433.35	4667.03
433.54	4582.77
433.72	4568.73
433.91	4753.63
434.10	4826.18
434.28	4657.67
434.47	5001.72
434.66	4826.18
434.85	4957.25
435.03	4978.32
435.22	5107.05
435.41	5043.85
435.59	5071.94
435.78	5144.50
435.97	4966.62
436.16	4985.34
436.34	5142.16
436.53	5198.33
436.72	5214.71
436.90	5001.72
437.09	5090.67
437.28	5100.03
437.46	5111.73
437.65	5165.56
437.84	5205.35
438.02	5043.85
438.21	5158.54
438.40	5188.97
438.58	5177.26
438.77	5320.04
438.96	5266.21
439.14	5504.94
439.33	5689.84
439.52	5675.80
439.70	5621.97
439.89	5614.95
440.08	5774.10
440.26	5650.05
440.45	5764.74
440.63	5905.17
440.82	5942.62
441.01	5907.51
441.19	6188.38
441.38	5961.34
441.57	6047.94
441.75	6092.41
441.94	6071.35
442.12	6300.72
442.31	6370.94
442.50	6307.74
442.68	6071.35
442.87	6438.81
443.05	6310.08
443.24	6562.86
443.43	6471.58
443.61	6450.52
443.80	6813.30
443.98	6193.06
444.17	6251.57
444.35	6459.88
444.54	6661.16
444.73	6710.32
444.91	6434.13
445.10	6431.79
445.28	6202.42
445.47	6370.94
445.65	6328.81
445.84	6483.28
446.02	6689.25
446.21	6469.24
446.39	6445.84
446.58	6616.69
446.77	6806.28
446.95	6586.27
447.14	6799.26
447.32	6768.83
447.51	6761.81
447.69	6647.12
447.88	6766.49
448.06	6656.48
448.25	6757.13
448.43	6525.41
448.62	6619.04
448.80	6672.87
448.99	7007.56
449.17	6822.66
449.36	6684.57
449.54	6998.20
449.73	6998.20
449.91	6827.34
450.10	7075.44
450.28	7255.66
450.46	7173.74
450.65	7351.62
450.83	7105.87
451.02	7187.79
451.20	7342.26
451.39	7164.38
451.57	7300.13
451.76	7140.97
451.94	7164.38
452.13	7229.91
452.31	7035.65
452.49	7023.95
452.68	7054.37
452.86	7293.11
453.05	7215.87
453.23	7358.64
453.42	7119.91
453.60	7208.85
453.78	7468.65
453.97	7384.39
454.15	7393.75
454.34	7332.90
454.52	7485.03
454.70	7475.67
454.89	7648.87
455.07	7456.95
455.26	7445.24
455.44	7653.55
455.62	7653.55
455.81	7623.12
455.99	7805.69
456.17	7613.76
456.36	7620.78
456.54	7882.92
456.73	8002.29
456.91	8147.40
457.09	7925.05
457.28	8126.34
457.46	8049.10
457.64	8126.34
457.83	8121.66
458.01	8086.55
458.19	8208.26
458.38	8002.29
458.56	8140.38
458.74	8416.57
458.93	8063.15
459.11	8231.66
459.29	8313.58
459.48	8362.73
459.66	8360.39
459.84	8489.12
460.03	8475.08
460.21	8589.77
460.39	8358.05
460.57	8540.61
460.76	8599.13
460.94	8608.49
461.12	8540.61
461.31	8629.56
461.49	8671.68
461.67	8594.45
461.85	8821.48
462.04	8809.78
462.22	8973.61
462.40	8940.85
462.59	8837.86
462.77	8992.34
462.95	8842.54
463.13	8716.16
463.32	8826.16
463.50	9149.15
463.68	8891.70
463.86	8858.93
464.05	8877.65
464.23	8821.48
464.41	9076.60
464.59	9067.24
464.78	9235.75
464.96	8950.21
465.14	9053.19
465.32	9163.20
465.50	9198.31
465.69	9109.36
465.87	9142.13
466.05	9156.18
466.23	9114.05
466.41	9104.68
466.60	9343.42
466.78	9074.26
466.96	9249.80
467.14	9266.18
467.32	9284.91
467.51	9343.42
467.69	9088.30
467.87	9394.91
468.05	9699.18
468.23	9451.08
468.41	9542.36
468.60	9467.47
468.78	9643.01
468.96	9298.95
469.14	9682.80
469.32	9575.13
469.50	9633.64
469.69	9811.53
469.87	9680.46
470.05	9830.25
470.23	9624.28
470.41	9832.59
470.59	9966.00
470.77	9851.31
470.95	9867.70
471.14	10134.52
471.32	9926.21
471.50	10120.48
471.68	9996.43
471.86	10436.45
472.04	10427.09
472.22	10214.10
472.40	10115.80
472.58	10328.78
472.77	10347.51
472.95	10373.25
473.13	10988.82
473.31	10382.62
473.49	10764.12
473.67	10469.22
473.85	10693.91
474.03	10803.91
474.21	10979.45
474.39	11094.14
474.57	11197.12
474.75	11028.60
474.93	11199.46
475.12	11222.87
475.30	11190.10
475.48	11073.07
475.66	11330.53
475.84	11089.46
476.02	11396.07
476.20	11351.60
476.38	11637.14
476.56	11859.49
476.74	11641.82
476.92	11810.34
477.10	11754.17
477.28	11885.24
477.46	12088.87
477.64	12341.64
477.82	12372.07
478.00	12320.58
478.18	12453.99
478.36	12624.85
478.54	12477.40
478.72	12571.02
478.90	12816.77
479.08	12994.65
479.26	13001.68
479.44	13207.64
479.62	13270.84
479.80	13214.66
479.98	13331.69
480.16	13532.98
480.34	13504.89
480.52	13748.31
480.70	13589.15
480.88	13472.12
481.06	13804.48
481.24	13935.55
481.41	14228.12
481.59	14244.50
481.77	14310.04
481.95	14176.62
482.13	14609.62
482.31	14581.54
482.49	15000.49
482.67	14633.03
482.85	15084.75
483.03	15044.96
483.21	15243.91
483.39	15349.23
483.57	15456.90
483.74	15482.64
483.92	15494.35
484.10	15489.67
484.28	15932.03
484.46	15908.62
484.64	16402.47
484.82	15910.96
485.00	15833.72
485.18	16458.65
485.35	16570.99
485.53	16072.46
485.71	16177.78
485.89	16362.69
486.07	16460.99
486.25	16723.13
486.43	16987.61
486.61	16812.07
486.78	17245.07
486.96	17483.80
487.14	17687.43
487.32	17617.21
487.50	17797.43
487.68	18244.48
487.85	18120.43
488.03	18221.07
488.21	18586.19
488.39	18511.30
488.57	18553.43
488.75	18466.83
488.92	19246.23
489.10	19131.54
489.28	19522.41
489.46	19393.68
489.64	19655.82
489.81	20222.23
489.99	19878.17
490.17	20018.60
490.35	20240.95
490.53	20112.22
490.70	20212.87
490.88	20346.28
491.06	20898.64
491.24	20755.87
491.41	20552.24
491.59	21003.97
491.77	20781.62
491.95	20781.62
492.13	21123.33
492.30	21507.18
492.48	21734.21
492.66	21790.39
492.84	21596.12
493.01	22033.80
493.19	21771.66
493.37	22237.43
493.54	22462.12
493.72	22492.55
493.90	22569.79
494.08	22820.22
494.25	22871.72
494.43	23131.51
494.61	23386.63
494.79	23428.76
494.96	23246.20
495.14	23325.78
495.32	23880.49
495.49	23868.78
495.67	23686.22
495.85	24023.26
496.02	24198.80
496.20	24549.88
496.38	24336.89
496.55	24622.44
496.73	25156.08
496.91	24655.20
497.09	25116.29
497.26	24730.10
497.44	25022.67
497.62	25378.43
497.79	25394.81
497.97	25427.58
498.14	25228.63
498.32	25432.26
498.50	25593.76
498.67	26031.44
498.85	25916.75
499.03	26075.91
499.20	26347.41
499.38	26473.80
499.56	26052.50
499.73	26375.50
499.91	26616.57
500.08	26677.43
500.26	26490.18
500.44	26277.19
500.61	26714.87
500.79	26696.15
500.97	26787.43
501.14	27051.91
501.32	26979.36
501.49	27040.21
501.67	27166.60
501.84	26838.92
502.02	27220.43
502.20	27442.78
502.37	27983.44
502.55	27948.34
502.72	28034.94
502.90	27819.61
503.07	28030.26
503.25	27845.35
503.43	27730.67
503.60	27999.83
503.78	28077.07
503.95	28053.66
504.13	28100.47
504.30	28758.16
504.48	28493.68
504.65	29092.86
504.83	28823.70
505.01	29235.63
505.18	29071.79
505.36	29273.08
505.53	29219.25
505.71	29528.20
505.88	30019.71
506.06	29123.29
506.23	29741.19
506.41	29659.27
506.58	29752.89
506.76	29797.36
506.93	30000.99
507.11	29795.02
507.28	30225.68
507.46	30202.27
507.63	29837.15
507.81	29993.97
507.98	30017.37
508.16	30010.35
508.33	30883.37
508.50	30710.17
508.68	30560.37
508.85	31028.48
509.03	30885.71
509.20	31468.50
509.38	31267.22
509.55	31290.62
509.73	30958.27
509.90	31681.49
510.08	30902.09
510.25	31292.96
510.42	31496.59
510.60	31562.12
510.77	31489.57
510.95	32030.23
511.12	32142.58
511.30	31660.43
511.47	32402.38
511.64	32369.61
511.82	32521.74
511.99	32240.88
512.17	32121.51
512.34	32325.14
512.51	32559.19
512.69	32669.20
512.86	32828.35
513.04	33149.01
513.21	33090.49
513.38	32463.23
513.56	32706.65
513.73	32840.06
513.90	33181.77
514.08	33069.43
514.25	32884.53
514.43	33118.58
514.60	33326.89
514.77	33380.72
514.95	33457.96
515.12	33574.98
515.29	33507.11
515.47	34183.52
515.64	33893.30
515.81	33635.84
515.99	33539.88
516.16	33701.37
516.33	33514.13
516.51	33858.19
516.68	33179.43
516.85	33500.09
517.03	33837.12
517.20	33645.20
517.37	34223.31
517.54	34820.15
517.72	34040.75
517.89	34370.77
518.06	33923.72
518.24	34129.69
518.41	34216.29
518.58	34384.81
518.75	34576.73
518.93	34703.12
519.10	34595.46
519.27	34761.64
519.45	34991.01
519.62	35131.44
519.79	35147.82
519.96	35707.21
520.14	35756.36
520.31	34827.17
520.48	35611.25
520.65	35379.54
520.83	35718.92
521.00	36184.68
521.17	36343.84
521.34	36383.63
521.52	36039.57
521.69	35992.76
521.86	36428.10
522.03	36278.30
522.20	36376.61
522.38	36364.90
522.55	36402.35
522.72	36605.98
522.89	36215.11
523.07	36430.44
523.24	36556.83
523.41	37006.21
523.58	36491.29
523.75	37380.70
523.92	37324.52
524.10	37184.09
524.27	37488.36
524.44	37457.93
524.61	37343.25
524.78	37434.53
524.96	37586.66
525.13	37820.72
525.30	37792.63
525.47	38251.38
525.64	37792.63
525.81	37579.64
525.98	37610.07
526.16	37565.60
526.33	37102.17
526.50	37809.01
526.67	36816.63
526.84	37474.32
527.01	37673.26
527.18	37631.13
527.36	38438.62
527.53	38340.32
527.70	38469.04
527.87	38483.09
528.04	37855.82
528.21	38548.62
528.38	38714.80
528.55	38838.85
528.72	39028.43
528.89	39005.03
529.07	38614.16
529.24	38932.47
529.41	38412.87
529.58	38902.04
529.75	38888.00
529.92	39171.21
530.09	39082.27
530.26	39531.65
530.43	38897.36
530.60	39161.84
530.77	39533.99
530.94	39880.39
531.11	39199.29
531.28	39550.37
531.46	39807.83
531.63	39232.06
531.80	39763.36
531.97	39325.68
532.14	39180.57
532.31	39112.69
532.48	39007.37
532.65	39557.39
532.82	39669.74
532.99	39695.49
533.16	39707.19
533.33	39845.28
533.50	40076.99
533.67	39995.07
533.84	39531.65
534.01	40076.99
534.18	39725.91
534.35	40570.85
534.52	40044.23
534.69	40252.53
534.86	40678.51
535.03	40685.53
535.20	40549.78
535.37	41408.76
535.54	40921.93
535.71	40652.76
535.88	40722.98
536.05	40631.70
536.22	41160.66
536.38	41132.57
536.55	41167.68
536.72	40921.93
536.89	40704.26
537.06	40842.35
537.23	41155.98
537.40	41221.52
537.57	41008.53
537.74	41291.73
537.91	40912.56
538.08	40935.97
538.25	41092.79
538.42	41521.10
538.59	41481.31
538.75	41366.63
538.92	40954.69
539.09	41296.41
539.26	41352.58
539.43	41219.17
539.60	41661.54
539.77	41420.46
539.94	41874.52
540.11	41205.13
540.28	41202.79
540.44	41488.34
540.61	41542.17
540.78	41581.96
540.95	41588.98
541.12	41790.27
541.29	41860.48
541.46	41830.05
541.62	42218.58
541.79	41970.49
541.96	41617.07
542.13	42047.72
542.30	41944.74
542.47	41984.53
542.63	41879.21
542.80	42438.59
542.97	42885.64
543.14	42880.95
543.31	42944.15
543.48	42953.51
543.64	43077.56
543.81	42792.01
543.98	42677.33
544.15	42852.87
544.32	43147.78
544.48	43129.05
544.65	42712.44
544.82	43414.60
544.99	42728.82
545.16	43061.18
545.32	43040.11
545.49	43313.95
545.66	43604.18
545.83	43606.52
546.00	43353.74
546.16	43428.64
546.33	43641.63
546.50	43295.23
546.67	43042.45
546.83	42983.94
547.00	43201.61
547.17	43402.89
547.34	42958.19
547.50	43133.73
547.67	43297.57
547.84	43309.27
548.00	43817.17
548.17	43978.67
548.34	43695.46
548.51	43915.47
548.67	43892.07
548.84	43992.71
549.01	43526.94
549.18	43707.16
549.34	43852.28
549.51	44058.24
549.68	43821.85
549.84	44112.08
550.01	44381.24
550.18	44304.00
550.34	44198.68
550.51	44112.08
550.68	44215.06
550.84	43679.08
551.01	44479.54
551.18	44313.36
551.34	44346.13
551.51	44479.54
551.68	44591.89
551.84	44360.17
552.01	44252.51
552.18	44100.37
552.34	44158.89
552.51	44086.33
552.68	44296.98
552.84	44626.99
553.01	44964.03
553.18	44261.87
553.34	44470.18
553.51	44371.88
553.67	44341.45
553.84	44355.49
554.01	44884.45
554.17	45127.87
554.34	44884.45
554.51	44692.53
554.67	45104.46
554.84	44645.72
555.00	44910.20
555.17	44360.17
555.33	44737.00
555.50	44751.04
555.67	44390.60
555.83	44718.28
556.00	44863.39
556.16	45132.55
556.33	44898.50
556.50	44804.88
556.66	45022.54
556.83	44652.74
556.99	44942.97
557.16	44947.65
557.32	45038.93
557.49	45298.73
557.65	44666.78
557.82	45528.10
557.98	45265.96
558.15	45368.94
558.32	45120.85
558.48	44903.18
558.65	45099.78
558.81	45088.08
558.98	45085.74
559.14	45319.79
559.31	44924.24
559.47	45565.55
559.64	45841.73
559.80	45446.18
559.97	45422.78
560.13	45226.17
560.30	45675.55
560.46	45467.25
560.63	45242.56
560.79	46033.66
560.96	45633.42
561.12	45188.72
561.29	45404.05
561.45	45586.61
561.61	45329.16
561.78	45422.78
561.94	45151.27
562.11	45315.11
562.27	45268.30
562.44	45694.28
562.60	46028.98
562.77	45635.77
562.93	45492.99
563.10	46146.00
563.26	44914.88
563.42	45837.05
563.59	45572.57
563.75	45219.15
563.92	45886.20
564.08	45991.53
564.24	46010.25
564.41	45638.11
564.57	45670.87
564.74	45420.44
564.90	45614.70
565.07	45776.20
565.23	45696.62
565.39	45766.84
565.56	45930.67
565.72	45495.33
565.88	45663.85
566.05	45680.24
566.21	45551.51
566.38	45876.84
566.54	45808.96
566.70	46087.49
566.87	46270.05
567.03	45865.14
567.19	46459.63
567.36	45958.76
567.52	45787.90
567.68	46092.17
567.85	45729.39
568.01	46298.14
568.17	46122.60
568.34	46410.48
568.50	45944.72
568.66	45907.27
568.83	46047.70
568.99	45448.52
569.15	46136.64
569.32	45677.90
569.48	45574.91
569.64	46403.46
569.81	45930.67
569.97	45930.67
570.13	46141.32
570.30	45565.55
570.46	45287.03
570.62	45455.54
570.78	45591.30
570.95	45624.06
571.11	46141.32
571.27	45989.19
571.43	45783.22
571.60	45944.72
571.76	45813.65
571.92	45921.31
572.09	46094.51
572.25	46153.02
572.41	45851.09
572.57	45989.19
572.74	46274.73
572.90	45682.58
573.06	46178.77
573.22	46328.56
573.38	46019.61
573.55	45942.38
573.71	46218.56
573.87	46003.23
574.03	46363.67
574.20	46279.41
574.36	46099.19
574.52	45890.88
574.68	46433.89
574.84	45535.12
575.01	46171.75
575.17	45698.96
575.33	45867.48
575.49	46300.48
575.65	46195.15
575.82	46075.79
575.98	46148.34
576.14	46099.19
576.30	46518.15
576.46	46241.96
576.62	46071.10
576.79	46368.35
576.95	45762.15
577.11	46078.13
577.27	46122.60
577.43	46351.97
577.59	46061.74
577.75	46094.51
577.92	46019.61
578.08	45766.84
578.24	46040.68
578.40	45769.18
578.56	46450.27
578.72	46038.34
578.88	46134.30
579.04	46234.94
579.21	46010.25
579.37	46330.90
579.53	46342.61
579.69	46155.36
579.85	46099.19
580.01	46220.90
580.17	46155.36
580.33	46356.65
580.49	46380.06
580.65	46382.40
580.82	46515.81
580.98	46075.79
581.14	45951.74
581.30	46602.41
581.46	46452.61
581.62	46206.86
581.78	46461.97
581.94	46607.09
582.10	46115.58
582.26	46270.05
582.42	46251.33
582.58	46319.20
582.74	46361.33
582.90	46665.60
583.06	46735.82
583.22	46464.32
583.38	46204.52
583.54	46431.55
583.70	46745.18
583.86	46127.28
584.02	46567.30
584.18	46237.28
584.34	46061.74
584.50	46223.24
584.66	46342.61
584.82	46216.22
584.98	46244.30
585.14	46689.01
585.30	46525.17
585.46	46326.22
585.62	45888.54
585.78	46312.18
585.94	46000.89
586.10	46356.65
586.26	46251.33
586.42	46447.93
586.58	46745.18
586.74	46419.84
586.90	46248.99
587.06	46354.31
587.22	46291.12
587.38	46129.62
587.54	46637.51
587.70	46529.85
587.86	46522.83
588.02	46204.52
588.18	46609.43
588.34	46253.67
588.49	45888.54
588.65	45832.37
588.81	45525.76
588.97	45937.69
589.13	45874.50
589.29	46040.68
589.45	46387.08
589.61	46190.47
589.77	46700.71
589.93	46047.70
590.08	45907.27
590.24	46361.33
590.40	46841.14
590.56	46349.63
590.72	46571.98
590.88	46082.81
591.04	46209.20
591.20	46859.87
591.35	46768.58
591.51	46466.66
591.67	46480.70
591.83	46810.71
591.99	46539.21
592.15	46515.81
592.31	46344.95
592.46	46614.11
592.62	46705.39
592.78	46653.90
592.94	46426.87
593.10	46391.76
593.26	46562.62
593.41	46780.29
593.57	46426.87
593.73	46546.23
593.89	46569.64
594.05	46583.68
594.20	46248.99
594.36	46782.63
594.52	46485.38
594.68	46146.00
594.84	46370.69
594.99	46497.08
595.15	46384.74
595.31	46813.05
595.47	46693.69
595.62	46483.04
595.78	46653.90
595.94	46555.60
596.10	46703.05
596.25	46529.85
596.41	46951.15
596.57	46536.87
596.73	46443.25
596.88	45977.48
597.04	46473.68
597.20	46295.80
597.36	46801.35
597.51	46871.57
597.67	46944.12
597.83	46408.14
597.99	46515.81
598.14	46419.84
598.30	46557.94
598.46	46546.23
598.61	46571.98
598.77	46389.42
598.93	46560.28
599.09	46548.57
599.24	46773.27
599.40	46806.03
599.56	46953.49
599.71	46417.50
599.87	46897.31
600.03	46557.94
600.18	46213.88
600.34	46649.22
600.50	46361.33
600.65	46494.74
600.81	46660.92
600.97	46499.42
601.12	46494.74
601.28	46593.04
601.44	46326.22
601.59	46721.77
601.75	46040.68
601.91	46328.56
602.06	46162.39
602.22	46511.13
602.37	46415.16
602.53	46377.72
602.69	46794.33
602.84	46319.20
603.00	46625.81
603.16	46693.69
603.31	46387.08
603.47	46396.44
603.62	46373.03
603.78	46604.75
603.94	46384.74
604.09	46941.78
604.25	46340.27
604.40	46232.60
604.56	46354.31
604.71	46581.34
604.87	46710.07
605.03	46777.95
605.18	46497.08
605.34	46415.16
605.49	45848.75
605.65	46199.83
605.80	45984.51
605.96	46216.22
606.12	46740.50
606.27	46951.15
606.43	46401.12
606.58	46209.20
606.74	46312.18
606.89	46445.59
607.05	46466.66
607.20	46440.91
607.36	45682.58
607.51	46499.42
607.67	45940.04
607.82	46342.61
607.98	46129.62
608.13	45923.65
608.29	46010.25
608.44	45844.07
608.60	45778.54
608.75	45778.54
608.91	45879.18
609.06	45944.72
609.22	46267.71
609.37	45399.37
609.53	45989.19
609.68	45902.59
609.84	45673.21
609.99	45832.37
610.15	45778.54
610.30	46031.32
610.46	45525.76
610.61	45661.51
610.76	46033.66
610.92	45970.46
611.07	45722.37
611.23	45516.40
611.38	45989.19
611.54	45666.19
611.69	45848.75
611.84	44989.78
612.00	45514.06
612.15	45439.16
612.31	45425.12
612.46	45539.80
612.62	45148.93
612.77	45464.91
612.92	46014.93
613.08	45661.51
613.23	45956.42
613.39	45881.52
613.54	45017.86
613.69	45237.87
613.85	45270.64
614.00	45591.30
614.15	45748.11
614.31	45488.31
614.46	45825.35
614.62	45291.71
614.77	45432.14
614.92	45497.67
615.08	45200.43
615.23	45001.48
615.38	45111.49
615.54	44891.48
615.69	44891.48
615.84	44924.24
616.00	45167.66
616.15	44966.37
616.30	44905.52
616.46	44781.47
616.61	44868.07
616.76	44746.36
616.92	44313.36
617.07	44624.65
617.22	44755.72
617.37	44751.04
617.53	45085.74
617.68	44992.12
617.83	45174.68
617.99	45216.81
618.14	44882.11
618.29	44870.41
618.45	44636.36
618.60	44493.58
618.75	44488.90
618.90	44722.96
619.06	44907.86
619.21	45186.38
619.36	44739.34
619.51	44509.97
619.67	44598.91
619.82	45408.73
619.97	44697.21
620.12	44549.76
620.28	43936.54
620.43	44374.22
620.58	44463.16
620.73	44416.35
620.89	44268.89
621.04	44205.70
621.19	44484.22
621.34	44547.42
621.49	44601.25
621.65	43981.01
621.80	44219.74
621.95	43784.40
622.10	44088.67
622.25	43592.48
622.41	43503.54
622.56	43950.58
622.71	44147.18
622.86	44196.34
623.01	43971.64
623.16	44079.31
623.32	43697.80
623.47	43892.07
623.62	43833.55
623.77	43311.61
623.92	43601.84
624.07	43824.19
624.23	43831.21
624.38	43449.70
624.53	43489.49
624.68	43882.70
624.83	43662.69
624.98	43838.23
625.13	43281.19
625.29	43896.75
625.44	43761.00
625.59	43295.23
625.74	42759.25
625.89	43180.54
626.04	43428.64
626.19	42934.79
626.34	43405.23
626.49	43288.21
626.65	43377.15
626.80	43538.65
626.95	42731.16
627.10	43168.84
627.25	43131.39
627.40	42670.31
627.55	42469.02
627.70	42707.76
627.85	42703.07
628.00	42656.26
628.15	42604.77
628.30	42520.51
628.45	43171.18
628.60	43133.73
628.76	42763.93
628.91	43360.76
629.06	42822.44
629.21	42752.23
629.36	42190.50
629.51	42300.50
629.66	42698.39
629.81	42185.82
629.96	42583.71
630.11	43166.50
630.26	42670.31
630.41	42539.24
630.56	42405.83
630.71	42674.99
630.86	42347.31
631.01	42113.26
631.16	42319.23
631.31	42436.25
631.46	41998.57
631.61	42820.10
631.76	42143.69
631.91	41841.76
632.06	42279.44
632.21	42450.30
632.36	42452.64
632.51	41893.25
632.66	42066.45
632.81	41975.17
632.96	42059.43
633.10	41827.71
633.25	41970.49
633.40	42160.07
633.55	42080.49
633.70	41738.77
633.85	41848.78
634.00	42066.45
634.15	42003.25
634.30	41486.00
634.45	41684.94
634.60	41588.98
634.75	41806.65
634.90	41876.86
635.05	41827.71
635.19	41359.61
635.34	41916.65
635.49	41282.37
635.64	41420.46
635.79	41525.78
635.94	41928.36
636.09	41654.51
636.24	41591.32
636.39	41060.02
636.53	41287.05
636.68	41364.29
636.83	41574.94
636.98	41439.18
637.13	41301.09
637.28	41626.43
637.43	41273.01
637.57	41420.46
637.72	41347.90
637.87	40931.29
638.02	41226.20
638.17	41113.85
638.32	41319.82
638.46	41083.42
638.61	41113.85
638.76	41031.93
638.91	41221.52
639.06	40966.40
639.20	41163.00
639.35	41366.63
639.50	41106.83
639.65	41544.51
639.80	41130.23
639.94	40566.16
640.09	41024.91
640.24	41221.52
640.39	40926.61
640.54	40746.39
640.68	40620.00
640.83	40610.64
640.98	40727.66
641.13	40495.95
641.27	41022.57
641.42	40367.22
641.57	40502.97
641.72	40603.61
641.86	40226.79
642.01	40325.09
642.16	40556.80
642.31	40175.30
642.45	40371.90
642.60	40322.75
642.75	40299.34
642.90	40517.01
643.04	40561.48
643.19	40465.52
643.34	40402.33
643.48	39950.60
643.63	40109.76
643.78	40135.51
643.93	39887.41
644.07	39997.41
644.22	40231.47
644.37	39522.29
644.51	39241.42
644.66	40325.09
644.81	40119.12
644.95	40219.77
645.10	39887.41
645.25	39793.79
645.39	39866.34
645.54	39763.36
645.69	39477.82
645.83	40034.86
645.98	39913.16
646.13	39800.81
646.27	39746.98
646.42	39374.83
646.57	39683.78
646.71	39175.89
646.86	39981.03
647.00	39840.60
647.15	39470.79
647.30	39763.36
647.44	38888.00
647.59	39260.15
647.74	39344.41
647.88	38541.60
648.03	39323.34
648.17	39351.43
648.32	39187.59
648.47	39571.44
648.61	39438.03
648.76	39739.96
648.90	39454.41
649.05	38904.38
649.20	39213.34
649.34	39360.79
649.49	39065.88
649.63	39133.76
649.78	38918.43
649.92	38988.64
650.07	39426.32
650.21	38326.27
650.36	39077.58
650.51	38909.07
650.65	39054.18
650.80	39316.32
650.94	39435.69
651.09	39154.82
651.23	38789.70
651.38	38782.68
651.52	38728.84
651.67	38382.45
651.81	38792.04
651.96	38452.66
652.10	38590.75
652.25	38808.42
652.39	38843.53
652.54	38728.84
652.68	38808.42
652.83	38845.87
652.97	38918.43
653.12	38801.40
653.26	38312.23
653.41	38415.21
653.55	38174.14
653.70	38293.50
653.84	38237.33
653.99	38314.57
654.13	38258.40
654.27	37977.53
654.42	38061.79
654.56	38043.07
654.71	38202.22
654.85	38368.40
655.00	38082.86
655.14	38101.58
655.29	37476.66
655.43	37654.54
655.57	37493.04
655.72	37626.45
655.86	37446.23
656.01	37163.03
656.15	36959.40
656.30	37413.46
656.44	37507.08
656.58	37415.80
656.73	37486.02
656.87	37677.94
657.01	37448.57
657.16	37645.18
657.30	37521.13
657.45	37397.08
657.59	37617.09
657.73	37380.70
657.88	37518.79
658.02	37715.39
658.16	37886.25
658.31	37537.51
658.45	37741.14
658.60	37413.46
658.74	37226.22
658.88	37251.97
659.03	37132.60
659.17	36699.60
659.31	36992.17
659.46	36943.02
659.60	37158.34
659.74	36833.01
659.89	37418.14
660.03	36629.38
660.17	37240.26
660.32	37003.87
660.46	36795.56
660.60	36690.24
660.74	36807.26
660.89	36772.16
661.03	36304.05
661.17	36706.62
661.32	36226.81
661.46	36531.08
661.60	36500.65
661.74	36615.34
661.89	36058.29
662.03	36072.34
662.17	36334.48
662.31	36154.26
662.46	36540.44
662.60	36252.56
662.74	36013.82
662.88	35988.08
663.03	35976.37
663.17	36077.02
663.31	35543.38
663.45	35838.28
663.60	35784.45
663.74	35695.51
663.88	35922.54
664.02	35400.60
664.17	35807.86
664.31	35332.73
664.45	35697.85
664.59	35571.46
664.73	35519.97
664.88	35178.25
665.02	35196.98
665.16	35302.30
665.30	35306.98
665.44	35152.51
665.59	34878.66
665.73	35007.39
665.87	35168.89
666.01	34883.34
666.15	34845.90
666.29	35379.54
666.44	34480.77
666.58	34504.18
666.72	34555.67
666.86	34717.17
667.00	34410.56
667.14	34677.38
667.28	34185.86
667.43	34377.79
667.57	34747.59
667.71	34307.57
667.85	34099.26
667.99	34237.36
668.13	34129.69
668.27	34038.41
668.41	33708.40
668.56	33989.26
668.70	34352.04
668.84	34073.52
668.98	33525.83
669.12	33699.03
669.26	33282.42
669.40	33427.53
669.54	33600.73
669.68	33486.04
669.82	33041.34
669.96	33132.62
670.10	33413.49
670.25	33338.59
670.39	33373.70
670.53	33397.10
670.67	33022.62
670.81	33668.61
670.95	32624.73
671.09	33137.30
671.23	33043.68
671.37	32402.38
671.51	32594.30
671.65	32526.42
671.79	32280.67
671.93	32818.99
672.07	32662.18
672.21	32765.16
672.35	32383.65
672.49	33043.68
672.63	32613.02
672.77	32371.95
672.91	32566.21
673.05	32194.07
673.19	32247.90
673.33	31962.36
673.47	31604.25
673.61	31810.22
673.75	31552.76
673.89	31683.83
674.03	31194.66
674.17	31477.86
674.31	31431.05
674.45	31101.04
674.59	31725.96
674.73	31566.81
674.87	31318.71
675.01	31215.72
675.15	31026.14
675.29	31175.94
675.43	30822.51
675.56	30883.37
675.70	30471.43
675.84	30382.49
675.98	29968.22
676.12	30904.43
676.26	30803.79
676.40	30785.07
676.54	30593.14
676.68	30642.29
676.82	29776.30
676.96	30008.01
677.10	30174.19
677.23	29867.58
677.37	29820.77
677.51	29614.80
677.65	29942.47
677.79	29125.63
677.93	29111.58
678.07	29345.64
678.21	29123.29
678.34	29406.49
678.48	28922.00
678.62	28950.09
678.76	28905.62
678.90	28276.01
679.04	28311.12
679.18	28524.11
679.31	28442.19
679.45	28264.31
679.59	28154.30
679.73	28451.55
679.87	28114.52
680.00	28091.11
680.14	28084.09
680.28	28006.85
680.42	27740.03
680.56	27887.48
680.70	27934.29
680.83	28154.30
680.97	27545.76
681.11	27613.64
681.25	27068.30
681.39	27103.40
681.52	27386.61
681.66	27213.41
681.80	27119.79
681.94	26948.93
682.07	27358.52
682.21	26881.05
682.35	26824.88
682.49	26450.39
682.62	26572.10
682.76	26431.67
682.90	26333.37
683.04	26064.21
683.17	25645.25
683.31	26099.31
683.45	26113.36
683.59	26075.91
683.72	25663.97
683.86	25778.66
684.00	25853.56
684.13	25788.02
684.27	25333.96
684.41	25179.48
684.55	25687.38
684.68	25245.02
684.82	24910.32
684.96	25336.30
685.09	25071.82
685.23	24978.20
685.37	24769.89
685.50	25219.27
685.64	25013.31
685.78	24568.60
685.91	24339.23
686.05	24339.23
686.19	24229.23
686.32	23920.28
686.46	23606.64
686.60	23335.14
686.73	23506.00
686.87	23468.55
687.01	23403.02
687.14	23204.07
687.28	22986.40
687.42	23295.35
687.55	23337.48
687.69	23227.48
687.82	23070.66
687.96	23180.67
688.10	23405.36
688.23	22857.67
688.37	22742.99
688.50	22511.27
688.64	22710.22
688.78	22677.45
688.91	22429.35
689.05	22775.75
689.18	22279.56
689.32	21947.20
689.46	22202.32
689.59	22171.89
689.73	22417.65
689.86	22001.04
690.00	21783.37
690.13	21855.92
690.27	21678.04
690.41	21703.79
690.54	21891.03
690.68	21516.54
690.81	21252.06
690.95	21458.03
691.08	21298.88
691.22	21125.68
691.35	21160.78
691.49	21649.96
691.62	21191.21
691.76	20819.07
691.89	20847.15
692.03	20772.25
692.16	20652.89
692.30	20482.03
692.43	20573.31
692.57	20348.62
692.70	20510.11
692.84	20372.02
692.97	20229.25
693.11	20074.77
693.24	20173.08
693.38	19847.74
693.51	19988.18
693.65	19960.09
693.78	20175.42
693.92	19885.19
694.05	19414.74
694.19	19683.91
694.32	19323.46
694.45	19136.22
694.59	18939.62
694.72	18965.36
694.86	19138.56
694.99	18754.71
695.13	18829.61
695.26	18775.78
695.39	18775.78
695.53	18925.57
695.66	18698.54
695.80	18363.84
695.93	18487.89
696.07	18649.39
696.20	18476.19
696.33	18284.26
696.47	18082.98
696.60	17935.53
696.73	17965.95
696.87	17914.46
697.00	18090.00
697.14	18024.47
697.27	17596.15
697.40	17575.08
697.54	17352.73
697.67	17736.58
697.80	17261.45
697.94	17212.30
698.07	17029.74
698.21	17151.45
698.34	17008.67
698.47	17219.32
698.61	16727.81
698.74	16709.08
698.87	16711.42
699.01	16540.57
699.14	16423.54
699.27	16453.97
699.40	16386.09
699.54	16540.57
699.67	16407.16
699.80	16650.57
699.94	16250.34
700.07	16280.77
700.20	16285.45
700.34	15796.28
700.47	15955.43
700.60	15929.69
700.73	15976.50
700.87	15948.41
701.00	15747.12
701.13	15754.15
701.26	15508.39
701.40	15382.00
701.53	15517.75
701.66	15243.91
701.79	15199.44
701.93	15094.11
702.06	15515.41
702.19	15056.67
702.32	14979.43
702.46	14668.14
702.59	15215.82
702.72	14944.32
702.85	14616.65
702.99	14899.85
703.12	14611.96
703.25	14644.73
703.38	14527.71
703.51	14424.72
703.65	14281.95
703.78	14314.72
703.91	14251.52
704.04	14377.91
704.17	14228.12
704.31	14335.78
704.44	13895.76
704.57	13916.83
704.70	14059.60
704.83	13603.19
704.96	14008.11
705.10	13790.44
705.23	13816.18
>>>>>End Processed Spectral Data<<<<<
