SpectraSuite Data File
++++++++++++++++++++++++++++++++++++
Date: Fri Oct 25 11:33:15 EDT 2013
User: price-jones
Dark Spectrum Present: No
Reference Spectrum Present: No
Number of Sampled Component Spectra: 1
Spectrometers: USB2+H05261
Integration Time (usec): 100000 (USB2+H05261)
Spectra Averaged: 1 (USB2+H05261)
Boxcar Smoothing: 0 (USB2+H05261)
Correct for Electrical Dark: No (USB2+H05261)
Strobe/Lamp Enabled: No (USB2+H05261)
Correct for Detector Non-linearity: No (USB2+H05261)
Correct for Stray Light: No (USB2+H05261)
Number of Pixels in Processed Spectrum: 2048
>>>>>Begin Processed Spectral Data<<<<<
365.73	304.27
365.92	304.27
366.12	304.27
366.32	203.63
366.52	131.07
366.72	224.69
366.91	170.86
367.11	161.50
367.31	152.13
367.51	269.16
367.70	229.37
367.90	161.50
368.10	182.56
368.30	145.11
368.49	194.26
368.69	208.31
368.89	229.37
369.09	224.69
369.28	224.69
369.48	212.99
369.68	170.86
369.87	224.69
370.07	238.73
370.27	252.78
370.47	313.63
370.66	491.51
370.86	456.40
371.06	592.16
371.25	550.03
371.45	512.58
371.65	545.34
371.84	524.28
372.04	589.82
372.24	540.66
372.44	596.84
372.63	601.52
372.83	554.71
373.03	594.50
373.22	629.60
373.42	645.99
373.62	660.03
373.81	573.43
374.01	620.24
374.21	669.39
374.40	674.07
374.60	660.03
374.79	657.69
374.99	685.78
375.19	674.07
375.38	713.86
375.58	615.56
375.78	615.56
375.97	648.33
376.17	713.86
376.37	669.39
376.56	697.48
376.76	636.63
376.95	664.71
377.15	681.10
377.35	645.99
377.54	641.31
377.74	699.82
377.93	685.78
378.13	671.73
378.33	685.78
378.52	660.03
378.72	727.91
378.91	758.33
379.11	709.18
379.31	690.46
379.50	676.41
379.70	737.27
379.89	737.27
380.09	702.16
380.28	674.07
380.48	770.04
380.68	704.50
380.87	671.73
381.07	795.78
381.26	716.20
381.46	777.06
381.65	802.80
381.85	711.52
382.04	774.72
382.24	734.93
382.43	849.61
382.63	741.95
382.83	800.46
383.02	835.57
383.22	741.95
383.41	760.67
383.61	807.48
383.80	748.97
384.00	777.06
384.19	774.72
384.39	833.23
384.58	856.64
384.78	814.51
384.97	840.25
385.17	812.17
385.36	903.45
385.56	844.93
385.75	791.10
385.95	840.25
386.14	805.14
386.34	770.04
386.53	889.40
386.72	725.57
386.92	835.57
387.11	821.53
387.31	828.55
387.50	812.17
387.70	868.34
387.89	903.45
388.09	870.68
388.28	910.47
388.48	985.37
388.67	905.79
388.86	936.21
389.06	973.66
389.25	912.81
389.45	915.15
389.64	915.15
389.84	997.07
390.03	980.68
390.22	1041.54
390.42	999.41
390.61	1029.84
390.81	994.73
391.00	1015.79
391.19	983.02
391.39	1011.11
391.58	1043.88
391.78	1020.47
391.97	1029.84
392.16	931.53
392.36	1036.86
392.55	1146.86
392.75	1118.78
392.94	1022.81
393.13	1107.07
393.33	1125.80
393.52	1083.67
393.71	1100.05
393.91	1090.69
394.10	1088.35
394.29	1139.84
394.49	1125.80
394.68	1104.73
394.88	1130.48
395.07	1109.41
395.26	1174.95
395.46	1137.50
395.65	1207.72
395.84	1242.82
396.04	1247.51
396.23	1210.06
396.42	1184.31
396.62	1217.08
396.81	1149.20
397.00	1226.44
397.19	1301.34
397.39	1231.12
397.58	1191.33
397.77	1270.91
397.97	1247.51
398.16	1296.66
398.35	1280.27
398.55	1249.85
398.74	1238.14
398.93	1308.36
399.12	1315.38
399.32	1207.72
399.51	1329.42
399.70	1390.28
399.90	1376.24
400.09	1371.55
400.28	1371.55
400.47	1359.85
400.67	1455.81
400.86	1357.51
401.05	1434.75
401.24	1490.92
401.44	1479.22
401.63	1479.22
401.82	1458.15
402.01	1418.36
402.21	1362.19
402.40	1474.54
402.59	1469.86
402.78	1439.43
402.97	1500.28
403.17	1586.88
403.36	1509.65
403.55	1605.61
403.74	1598.59
403.93	1540.07
404.13	1582.20
404.32	1612.63
404.51	1605.61
404.70	1680.50
404.89	1572.84
405.09	1636.03
405.28	1682.85
405.47	1614.97
405.66	1671.14
405.85	1699.23
406.05	1811.57
406.24	1795.19
406.43	1743.70
406.62	1837.32
406.81	1914.56
407.00	1774.13
407.20	1774.13
407.39	1811.57
407.58	1823.28
407.77	1806.89
407.96	1935.62
408.15	1895.83
408.34	1867.75
408.54	1935.62
408.73	1914.56
408.92	1886.47
409.11	1961.37
409.30	2031.58
409.49	1937.96
409.68	1977.75
409.87	2033.93
410.07	2104.14
410.26	2097.12
410.45	1996.48
410.64	2155.63
410.83	2040.95
411.02	2066.69
411.21	2155.63
411.40	2193.08
411.59	2235.21
411.78	2228.19
411.98	2279.68
412.17	2260.96
412.36	2307.77
412.55	2335.85
412.74	2328.83
412.93	2326.49
413.12	2293.72
413.31	2457.56
413.50	2520.76
413.69	2349.90
413.88	2345.22
414.07	2602.68
414.26	2462.24
414.45	2628.42
414.64	2567.57
414.83	2616.72
415.02	2558.21
415.22	2733.75
415.41	2679.91
415.60	2661.19
415.79	2607.36
415.98	2768.85
416.17	2672.89
416.36	2497.35
416.55	2731.41
416.74	2909.29
416.93	2736.09
417.12	2766.51
417.31	2906.95
417.50	2860.13
417.69	2895.24
417.88	2885.88
418.07	2913.97
418.26	2972.48
418.45	2986.52
418.64	3066.10
418.83	3096.53
419.02	3026.31
419.21	3166.74
419.39	3089.51
419.58	3108.23
419.77	3035.67
419.96	3187.81
420.15	3152.70
420.34	3096.53
420.53	3166.74
420.72	3353.99
420.91	3283.77
421.10	3316.54
421.29	3335.26
421.48	3192.49
421.67	3229.94
421.86	3328.24
422.05	3328.24
422.24	3302.50
422.43	3363.35
422.61	3236.96
422.80	3412.50
422.99	3510.80
423.18	3487.40
423.37	3438.25
423.56	3557.61
423.75	3295.47
423.94	3349.31
424.13	3229.94
424.32	3456.97
424.50	3337.60
424.69	3536.55
424.88	3400.80
425.07	3330.58
425.26	3475.70
425.45	3405.48
425.64	3377.39
425.83	3543.57
426.01	3489.74
426.20	3585.70
426.39	3517.83
426.58	3480.38
426.77	3407.82
426.96	3449.95
427.15	3576.34
427.33	3489.74
427.52	3606.77
427.71	3723.79
427.90	3618.47
428.09	3585.70
428.28	3669.96
428.46	3744.86
428.65	3648.90
428.84	3740.18
429.03	3728.47
429.22	3772.94
429.40	3693.37
429.59	3749.54
429.78	3641.87
429.97	3672.30
430.16	3812.73
430.34	3784.65
430.53	3948.48
430.72	4002.32
430.91	3882.95
431.10	3784.65
431.28	3941.46
431.47	3950.82
431.66	3896.99
431.85	4042.11
432.03	4201.26
432.22	4128.70
432.41	4095.94
432.60	4016.36
432.79	3988.27
432.97	4056.15
433.16	4152.11
433.35	4023.38
433.54	4208.28
433.72	4119.34
433.91	4262.12
434.10	4257.43
434.28	4315.95
434.47	4128.70
434.66	4205.94
434.85	4374.46
435.03	4311.27
435.22	4374.46
435.41	4442.34
435.59	4301.90
435.78	4369.78
435.97	4425.95
436.16	4372.12
436.34	4451.70
436.53	4444.68
436.72	4547.66
436.90	4393.19
437.09	4695.11
437.28	4320.63
437.46	4514.89
437.65	4547.66
437.84	4723.20
438.02	4491.49
438.21	4760.65
438.40	4650.64
438.58	4711.50
438.77	4795.76
438.96	4826.18
439.14	4833.21
439.33	4915.12
439.52	4959.60
439.70	5015.77
439.89	5151.52
440.08	5043.85
440.26	5085.98
440.45	4931.51
440.63	5116.41
440.82	5174.92
441.01	5039.17
441.19	5266.21
441.38	5249.82
441.57	5111.73
441.75	5359.83
441.94	5439.40
442.12	5383.23
442.31	5547.07
442.50	5455.79
442.68	5369.19
442.87	5572.82
443.05	5486.22
443.24	5678.14
443.43	5549.41
443.61	5479.19
443.80	5619.63
443.98	5453.45
444.17	5324.72
444.35	5792.83
444.54	5654.73
444.73	5804.53
444.91	5610.26
445.10	5809.21
445.28	5664.10
445.47	5710.91
445.65	5591.54
445.84	5788.14
446.02	5951.98
446.21	5837.30
446.39	5820.91
446.58	5781.12
446.77	5856.02
446.95	5699.20
447.14	5753.04
447.32	5776.44
447.51	5713.25
447.69	5767.08
447.88	5713.25
448.06	5734.31
448.25	5572.82
448.43	5895.81
448.62	5877.09
448.80	5872.40
448.99	5921.56
449.17	5905.17
449.36	5743.67
449.54	5898.15
449.73	6059.65
449.91	6066.67
450.10	6188.38
450.28	6169.65
450.46	6090.07
450.65	6141.57
450.83	6134.54
451.02	6146.25
451.20	6270.30
451.39	6193.06
451.57	6272.64
451.76	6197.74
451.94	6347.53
452.13	6289.02
452.31	6436.47
452.49	6286.68
452.68	6305.40
452.86	6312.42
453.05	6403.71
453.23	6471.58
453.42	6450.52
453.60	6445.84
453.78	6497.33
453.97	6335.83
454.15	6487.96
454.34	6410.73
454.52	6558.18
454.70	6518.39
454.89	6707.98
455.07	6691.59
455.26	6576.91
455.44	6796.92
455.62	6796.92
455.81	6600.31
455.99	6757.13
456.17	6766.49
456.36	6621.38
456.54	6913.94
456.73	6979.48
456.91	6916.28
457.09	7112.89
457.28	7126.93
457.46	6970.12
457.64	7136.29
457.83	7300.13
458.01	7243.96
458.19	7227.57
458.38	7187.79
458.56	7227.57
458.74	7096.50
458.93	7325.88
459.11	7307.15
459.29	7180.76
459.48	7433.54
459.66	7365.67
459.84	7208.85
460.03	7534.18
460.21	7344.60
460.39	7475.67
460.57	7349.28
460.76	7578.65
460.94	7662.91
461.12	7590.36
461.31	7356.30
461.49	7634.83
461.67	7576.31
461.85	7768.24
462.04	7805.69
462.22	7950.80
462.40	7920.37
462.59	7747.17
462.77	7712.07
462.95	7737.81
463.13	7857.18
463.32	8049.10
463.50	7976.55
463.68	7915.69
463.86	7913.35
464.05	7819.73
464.23	7948.46
464.41	8131.02
464.59	8004.63
464.78	8161.45
464.96	8177.83
465.14	7871.22
465.32	8126.34
465.50	8112.30
465.69	8098.25
465.87	8070.17
466.05	8074.85
466.23	8152.09
466.41	8149.75
466.60	8454.02
466.78	8044.42
466.96	8297.20
467.14	8346.35
467.32	8381.46
467.51	8517.21
467.69	8236.35
467.87	8301.88
468.05	8655.30
468.23	8564.02
468.41	8311.24
468.60	8526.57
468.78	8397.84
468.96	8571.04
469.14	8571.04
469.32	8725.52
469.50	8535.93
469.69	8734.88
469.87	8872.97
470.05	8805.10
470.23	8858.93
470.41	8854.25
470.59	9022.77
470.77	8861.27
470.95	8959.57
471.14	9109.36
471.32	8901.06
471.50	9163.20
471.68	9160.86
471.86	9195.96
472.04	9224.05
472.22	9493.21
472.40	9074.26
472.58	9355.12
472.77	9191.28
472.95	9364.48
473.13	9717.90
473.31	9528.32
473.49	9652.37
473.67	9535.34
473.85	9596.20
474.03	9673.43
474.21	9884.08
474.39	9792.80
474.57	9872.38
474.75	9909.83
474.93	9900.47
475.12	9996.43
475.30	10029.20
475.48	9977.70
475.66	10113.45
475.84	10160.27
476.02	10120.48
476.20	10317.08
476.38	10377.94
476.56	10759.44
476.74	10633.05
476.92	10523.05
477.10	10548.79
477.28	10532.41
477.46	10764.12
477.64	10878.81
477.82	10904.56
478.00	11166.70
478.18	11173.72
478.36	11353.94
478.54	11435.86
478.72	11389.05
478.90	11569.27
479.08	11768.21
479.26	11705.02
479.44	11562.25
479.62	11777.58
479.80	11922.69
479.98	12182.49
480.16	12238.66
480.34	12018.65
480.52	12269.09
480.70	12374.41
480.88	12318.24
481.06	12526.55
481.24	12643.57
481.41	12547.61
481.59	12912.74
481.77	12678.68
481.95	12940.82
482.13	13252.11
482.31	12994.65
482.49	13619.58
482.67	13174.88
482.85	13467.44
483.03	13626.60
483.21	13664.05
483.39	14183.65
483.57	14003.43
483.74	13956.61
483.92	14176.62
484.10	14097.05
484.28	14445.79
484.46	14483.24
484.64	15068.37
484.82	14670.48
485.00	14813.25
485.18	14960.70
485.35	15201.78
485.53	15049.64
485.71	15117.52
485.89	15536.48
486.07	15169.01
486.25	15543.50
486.43	15772.87
486.61	15796.28
486.78	15925.00
486.96	15922.66
487.14	16053.73
487.32	16383.75
487.50	16503.12
487.68	16383.75
487.85	16753.55
488.03	16613.12
488.21	17174.85
488.39	17097.61
488.57	17188.89
488.75	17252.09
488.92	17411.25
489.10	17752.96
489.28	17561.04
489.46	18171.92
489.64	18087.66
489.81	18377.89
489.99	18448.10
490.17	18183.62
490.35	18700.88
490.53	18796.84
490.70	18838.97
490.88	18773.44
491.06	19136.22
491.24	18635.35
491.41	19173.67
491.59	19197.07
491.77	19396.02
491.95	19295.38
492.13	19496.66
492.30	19934.34
492.48	20222.23
492.66	19969.45
492.84	20037.33
493.01	20400.11
493.19	20601.40
493.37	20596.71
493.54	20648.21
493.72	20847.15
493.90	20798.00
494.08	21160.78
494.25	21125.68
494.43	20945.45
494.61	21291.85
494.79	21521.23
494.96	21401.86
495.14	21546.97
495.32	22012.74
495.49	21764.64
495.67	21853.58
495.85	22326.37
496.02	22317.01
496.20	22415.31
496.38	22553.40
496.55	22422.33
496.73	22913.84
496.91	22970.02
497.09	22843.63
497.26	22995.76
497.44	23035.55
497.62	23290.67
497.79	23777.50
497.97	23477.91
498.14	23800.91
498.32	23676.86
498.50	24018.58
498.67	24482.00
498.85	24250.29
499.03	24020.92
499.20	24435.19
499.38	24383.70
499.56	24449.24
499.73	24594.35
499.91	24793.29
500.08	24907.98
500.26	24671.59
500.44	24720.74
500.61	24919.68
500.79	25048.41
500.97	25275.45
501.14	25525.88
501.32	25385.45
501.49	25656.95
501.67	25544.61
501.84	25914.41
502.02	25792.70
502.20	25619.50
502.37	25757.60
502.55	25937.82
502.72	26373.16
502.90	26263.15
503.07	25764.62
503.25	26403.58
503.43	26260.81
503.60	26843.60
503.78	26581.46
503.95	26366.13
504.13	26974.67
504.30	27101.06
504.48	26714.87
504.65	27304.69
504.83	27332.78
505.01	27384.27
505.18	27206.39
505.36	27440.44
505.53	27328.10
505.71	27468.53
505.88	27674.49
506.06	27440.44
506.23	27906.21
506.41	27611.30
506.58	27733.01
506.76	27812.59
506.93	28184.73
507.11	28313.46
507.28	28641.14
507.46	28601.35
507.63	28327.50
507.81	28477.30
507.98	28718.37
508.16	28503.04
508.33	28975.83
508.50	29139.67
508.68	28662.20
508.85	29003.92
509.03	29198.18
509.20	29244.99
509.38	29364.36
509.55	29603.10
509.73	29565.65
509.90	29797.36
510.08	29427.56
510.25	29788.00
510.42	30064.18
510.60	29867.58
510.77	30249.08
510.95	30373.13
511.12	30263.13
511.30	30075.88
511.47	30139.08
511.64	30469.09
511.82	30431.65
511.99	30635.27
512.17	30824.86
512.34	30431.65
512.51	30974.65
512.69	31304.67
512.86	30785.07
513.04	31288.28
513.21	31115.08
513.38	31229.77
513.56	31709.58
513.73	31496.59
513.90	31332.75
514.08	31613.62
514.25	31573.83
514.43	31754.05
514.60	31524.68
514.77	32107.47
514.95	32137.90
515.12	31864.05
515.29	31885.12
515.47	32278.33
515.64	32285.35
515.81	32009.17
515.99	32210.45
516.16	32685.58
516.33	32496.00
516.51	32463.23
516.68	32542.81
516.85	32624.73
517.03	33233.27
517.20	32687.92
517.37	32671.54
517.54	32917.29
517.72	33251.99
517.89	33223.90
518.06	33184.12
518.24	33525.83
518.41	33413.49
518.58	33123.26
518.75	33563.28
518.93	33635.84
519.10	33696.69
519.27	33900.32
519.45	33839.47
519.62	33682.65
519.79	34323.96
519.96	33736.48
520.14	34099.26
520.31	34223.31
520.48	34253.74
520.65	33954.15
520.83	34202.25
521.00	34696.10
521.17	34469.07
521.34	34558.01
521.52	34630.57
521.69	35009.73
521.86	34527.58
522.03	35063.57
522.20	35014.41
522.38	35344.43
522.55	35405.28
522.72	35133.78
522.89	35543.38
523.07	35573.80
523.24	35480.18
523.41	35688.49
523.58	35550.40
523.75	35494.22
523.92	35653.38
524.10	35861.69
524.27	36048.93
524.44	35786.79
524.61	35798.49
524.78	36172.98
524.96	36512.36
525.13	36315.75
525.30	36460.87
525.47	36587.25
525.64	36046.59
525.81	36701.94
525.98	36659.81
526.16	36751.09
526.33	36711.30
526.50	36992.17
526.67	36404.69
526.84	36631.72
527.01	36900.89
527.18	37102.17
527.36	36678.54
527.53	36875.14
527.70	37254.31
527.87	37514.11
528.04	37273.03
528.21	37413.46
528.38	37078.77
528.55	37549.21
528.72	37151.32
528.89	37282.39
529.07	37745.82
529.24	37354.95
529.41	37764.54
529.58	37691.99
529.75	38080.52
529.92	37921.36
530.09	38000.94
530.26	37738.80
530.43	37928.38
530.60	38019.66
530.77	37951.79
530.94	38249.03
531.11	37935.40
531.28	38227.97
531.46	38080.52
531.63	38274.78
531.80	38543.94
531.97	38602.46
532.14	38595.43
532.31	38419.89
532.48	39278.87
532.65	38838.85
532.82	38962.90
532.99	38899.70
533.16	38562.67
533.33	38976.94
533.50	39377.17
533.67	39356.11
533.84	38770.97
534.01	39316.32
534.18	39271.85
534.35	39732.93
534.52	39519.95
534.69	39569.10
534.86	40062.95
535.03	39098.65
535.20	39515.26
535.37	39910.82
535.54	40016.14
535.71	39634.63
535.88	40076.99
536.05	39791.45
536.22	40395.31
536.38	39732.93
536.55	39800.81
536.72	39576.12
536.89	40095.72
537.06	40114.44
537.23	40477.22
537.40	40507.65
537.57	40093.38
537.74	40224.45
537.91	40584.89
538.08	40271.26
538.25	40198.70
538.42	40175.30
538.59	40617.66
538.75	40371.90
538.92	40877.46
539.09	41092.79
539.26	40858.73
539.43	40449.14
539.60	40994.48
539.77	40439.78
539.94	40945.33
540.11	41179.39
540.28	41549.19
540.44	41045.97
540.61	40741.71
540.78	40926.61
540.95	41036.61
541.12	41240.24
541.29	41352.58
541.46	41256.62
541.62	41467.27
541.79	41507.06
541.96	41401.74
542.13	41347.90
542.30	41200.45
542.47	41862.82
542.63	41474.29
542.80	42005.59
542.97	42155.39
543.14	42169.43
543.31	42588.39
543.48	41991.55
543.64	42312.20
543.81	42403.49
543.98	42143.69
544.15	42328.59
544.32	42541.58
544.48	42642.22
544.65	42169.43
544.82	42714.78
544.99	42443.27
545.16	42822.44
545.32	42363.70
545.49	43105.65
545.66	42946.49
545.83	42836.48
546.00	42576.69
546.16	43124.37
546.33	42899.68
546.50	42363.70
546.67	43040.11
546.83	42887.98
547.00	43339.70
547.17	42972.24
547.34	42763.93
547.50	43636.95
547.67	43510.56
547.84	43342.04
548.00	43400.55
548.17	43707.16
548.34	43690.78
548.51	43536.30
548.67	43782.06
548.84	43583.12
549.01	43484.81
549.18	43810.15
549.34	43538.65
549.51	44116.76
549.68	43887.39
549.84	43896.75
550.01	43962.28
550.18	43765.68
550.34	44044.20
550.51	44261.87
550.68	44196.34
550.84	44032.50
551.01	44868.07
551.18	44058.24
551.34	44067.61
551.51	44175.27
551.68	44030.16
551.84	44343.79
552.01	43824.19
552.18	44456.14
552.34	44091.01
552.51	44226.76
552.68	44116.76
552.84	44442.09
553.01	44561.46
553.18	44678.49
553.34	44472.52
553.51	44842.32
553.67	44711.25
553.84	44659.76
554.01	44645.72
554.17	44708.91
554.34	44865.73
554.51	44596.57
554.67	45415.76
554.84	45043.61
555.00	45116.17
555.17	44964.03
555.33	45059.99
555.50	44685.51
555.67	44882.11
555.83	45085.74
556.00	44882.11
556.16	45528.10
556.33	45102.12
556.50	45081.06
556.66	45268.30
556.83	44975.73
556.99	45605.34
557.16	45722.37
557.32	45617.04
557.49	45542.14
557.65	45059.99
557.82	45830.03
557.98	45661.51
558.15	45787.90
558.32	45448.52
558.48	45198.09
558.65	45453.20
558.81	45521.08
558.98	45387.67
559.14	45441.50
559.31	45504.70
559.47	45769.18
559.64	45839.39
559.80	45202.77
559.97	45518.74
560.13	45205.11
560.30	45755.13
560.46	46286.43
560.63	46211.54
560.79	46043.02
560.96	46302.82
561.12	45797.26
561.29	46347.29
561.45	46396.44
561.61	45984.51
561.78	45837.05
561.94	45668.53
562.11	46234.94
562.27	46225.58
562.44	45940.04
562.60	45933.01
562.77	46103.87
562.93	45771.52
563.10	46237.28
563.26	46089.83
563.42	46176.43
563.59	45656.83
563.75	46307.50
563.92	46326.22
564.08	46492.40
564.24	46529.85
564.41	45989.19
564.57	46454.95
564.74	46543.89
564.90	46447.93
565.07	46277.07
565.23	46323.88
565.39	46700.71
565.56	46621.13
565.72	46653.90
565.88	47136.05
566.05	46609.43
566.21	46265.37
566.38	46368.35
566.54	46670.28
566.70	46782.63
566.87	46405.80
567.03	46279.41
567.19	46822.42
567.36	46415.16
567.52	46707.73
567.68	47042.43
567.85	46784.97
568.01	46916.04
568.17	46803.69
568.34	46480.70
568.50	46389.42
568.66	46621.13
568.83	46703.05
568.99	46834.12
569.15	46794.33
569.32	46557.94
569.48	46887.95
569.64	47133.71
569.81	46700.71
569.97	46880.93
570.13	47126.69
570.30	46705.39
570.46	46885.61
570.62	47086.90
570.78	46831.78
570.95	46794.33
571.11	47161.79
571.27	47004.98
571.43	47136.05
571.60	47285.84
571.76	46850.50
571.92	46836.46
572.09	47332.65
572.25	46939.44
572.41	47213.29
572.57	47334.99
572.74	47395.85
572.90	46904.34
573.06	47356.06
573.22	47622.88
573.38	47189.88
573.55	47079.88
573.71	47613.52
573.87	47372.44
574.03	47290.52
574.20	47583.09
574.36	47110.30
574.52	47437.98
574.68	47377.12
574.84	47288.18
575.01	47035.41
575.17	47494.15
575.33	47339.68
575.49	47250.74
575.65	46972.21
575.82	47107.96
575.98	47402.87
576.14	47133.71
576.30	47487.13
576.46	47452.02
576.62	46993.28
576.79	46995.62
576.95	47288.18
577.11	47234.35
577.27	47337.33
577.43	47330.31
577.59	47550.32
577.75	47435.64
577.92	46969.87
578.08	47374.78
578.24	47655.65
578.40	47800.76
578.56	47367.76
578.72	47526.92
578.88	47653.31
579.04	47157.11
579.21	47264.78
579.37	47370.10
579.53	47274.14
579.69	47423.93
579.85	47068.17
580.01	47388.83
580.17	47489.47
580.33	47543.30
580.49	47686.07
580.65	47498.83
580.82	47030.72
580.98	47426.28
581.14	47047.11
581.30	47697.78
581.46	47220.31
581.62	47182.86
581.78	47711.82
581.94	47892.04
582.10	47662.67
582.26	47634.58
582.42	47641.60
582.58	47618.20
582.74	47494.15
582.90	47667.35
583.06	47718.84
583.22	47395.85
583.38	47660.33
583.54	47676.71
583.70	47316.27
583.86	47693.10
584.02	47739.91
584.18	47665.01
584.34	47721.18
584.50	48193.97
584.66	47838.21
584.82	47885.02
584.98	48119.07
585.14	47718.84
585.30	47753.95
585.46	47915.45
585.62	47606.50
585.78	47578.41
585.94	47356.06
586.10	47334.99
586.26	47728.20
586.42	47543.30
586.58	47749.27
586.74	47625.22
586.90	47281.16
587.06	47587.77
587.22	47737.57
587.38	47842.89
587.54	48053.54
587.70	48154.18
587.86	47695.44
588.02	47718.84
588.18	47402.87
588.34	47611.18
588.49	47737.57
588.65	47334.99
588.81	48231.42
588.97	47810.12
589.13	48083.97
589.29	47863.96
589.45	48142.48
589.61	47943.53
589.77	48107.37
589.93	47863.96
590.08	48231.42
590.24	48243.12
590.40	48442.07
590.56	48428.02
590.72	47908.43
590.88	47782.04
591.04	48093.33
591.20	48275.89
591.35	48189.29
591.51	48664.42
591.67	48299.30
591.83	48329.72
591.99	47910.77
592.15	47927.15
592.31	48215.04
592.46	47870.98
592.62	48076.94
592.78	48205.67
592.94	48711.23
593.10	48329.72
593.26	48491.22
593.41	48521.65
593.57	48409.30
593.73	48605.91
593.89	48973.37
594.05	48760.38
594.20	48264.19
594.36	48839.96
594.52	48633.99
594.68	48603.56
594.84	48514.62
594.99	48758.04
595.15	48601.22
595.31	48523.99
595.47	48161.20
595.62	48406.96
595.78	48701.87
595.94	48500.58
596.10	48329.72
596.25	48250.14
596.41	48465.47
596.57	48205.67
596.73	48786.13
596.88	48278.23
597.04	48404.62
597.20	49050.61
597.36	48512.28
597.51	48830.60
597.67	48367.17
597.83	48835.28
597.99	48488.88
598.14	48072.26
598.30	48446.75
598.46	48315.68
598.61	48973.37
598.77	48776.76
598.93	48641.01
599.09	48428.02
599.24	48870.39
599.40	48598.88
599.56	48879.75
599.71	48987.41
599.87	49083.37
600.03	48863.36
600.18	48774.42
600.34	48559.09
600.50	48732.29
600.65	48133.12
600.81	48868.05
600.97	48893.79
601.12	48673.78
601.28	48327.38
601.44	48823.58
601.59	48736.98
601.75	48259.51
601.91	49013.16
602.06	48442.07
602.22	48662.08
602.37	48444.41
602.53	48610.59
602.69	48989.75
602.84	48346.11
603.00	48491.22
603.16	48865.70
603.31	48793.15
603.47	48907.83
603.62	48720.59
603.78	48966.35
603.94	48463.13
604.09	48748.68
604.25	48177.59
604.40	48392.92
604.56	48542.71
604.71	48793.15
604.87	48891.45
605.03	48346.11
605.18	48325.04
605.34	48526.33
605.49	48465.47
605.65	48318.02
605.80	48893.79
605.96	48500.58
606.12	48470.15
606.27	48715.91
606.43	48121.41
606.58	48472.49
606.74	48842.30
606.89	48226.74
607.05	48788.47
607.20	48598.88
607.36	48439.73
607.51	48474.84
607.67	48212.70
607.82	48268.87
607.98	48303.98
608.13	48198.65
608.29	48477.18
608.44	48292.27
608.60	48294.61
608.75	48383.55
608.91	48020.77
609.06	48306.32
609.22	48554.41
609.37	48217.38
609.53	48711.23
609.68	48329.72
609.84	48397.60
609.99	48444.41
610.15	48430.36
610.30	48605.91
610.46	48009.07
610.61	48123.75
610.76	48280.57
610.92	48392.92
611.07	48266.53
611.23	48196.31
611.38	48423.34
611.54	48367.17
611.69	48170.57
611.84	48280.57
612.00	48294.61
612.15	47634.58
612.31	48158.86
612.46	47775.02
612.62	48170.57
612.77	48303.98
612.92	48165.88
613.08	48067.58
613.23	47948.21
613.39	48231.42
613.54	47590.11
613.69	48451.43
613.85	48051.20
614.00	47964.60
614.15	48325.04
614.31	48041.84
614.46	48114.39
614.62	47849.91
614.77	48123.75
614.92	48081.63
615.08	48229.08
615.23	48025.45
615.38	48025.45
615.54	47627.56
615.69	47966.94
615.84	48032.47
616.00	48090.99
616.15	47845.23
616.30	48046.52
616.46	47505.85
616.61	47840.55
616.76	47695.44
616.92	47374.78
617.07	47498.83
617.22	47367.76
617.37	47700.12
617.53	47859.27
617.68	47580.75
617.83	47351.38
617.99	47562.03
618.14	47917.79
618.29	47421.59
618.45	47679.05
618.60	47079.88
618.75	46813.05
618.90	47299.89
619.06	47669.69
619.21	47318.61
619.36	47714.16
619.51	47274.14
619.67	47213.29
619.82	47267.12
619.97	47765.65
620.12	47175.84
620.28	47152.43
620.43	47470.75
620.58	47484.79
620.73	46969.87
620.89	47536.28
621.04	47512.88
621.19	47433.30
621.34	47367.76
621.49	47037.75
621.65	47028.38
621.80	47297.55
621.95	47339.68
622.10	47012.00
622.25	47112.64
622.41	46958.17
622.56	46632.83
622.71	46939.44
622.86	47026.04
623.01	46871.57
623.16	46962.85
623.32	47227.33
623.47	46932.42
623.62	47281.16
623.77	46754.54
623.92	46810.71
624.07	46972.21
624.23	47103.28
624.38	46836.46
624.53	47096.26
624.68	46660.92
624.83	46401.12
624.98	46759.22
625.13	46609.43
625.29	46602.41
625.44	46663.26
625.59	46632.83
625.74	47122.01
625.89	46478.36
626.04	46340.27
626.19	46518.15
626.34	46529.85
626.49	46473.68
626.65	45982.16
626.80	46454.95
626.95	46202.18
627.10	45790.24
627.25	46202.18
627.40	46534.53
627.55	46480.70
627.70	45998.55
627.85	46291.12
628.00	46660.92
628.15	46564.96
628.30	45741.09
628.45	45989.19
628.60	45808.96
628.76	45813.65
628.91	45588.95
629.06	45560.87
629.21	45729.39
629.36	45883.86
629.51	46117.92
629.66	46232.60
629.81	45668.53
629.96	46071.10
630.11	45970.46
630.26	45233.19
630.41	46328.56
630.56	45408.73
630.71	45600.66
630.86	45844.07
631.01	45729.39
631.16	45237.87
631.31	45322.13
631.46	45830.03
631.61	45748.11
631.76	46160.05
631.91	45392.35
632.06	46087.49
632.21	45890.88
632.36	46300.48
632.51	45186.38
632.66	45640.45
632.81	45464.91
632.96	45282.34
633.10	45312.77
633.25	45563.21
633.40	45523.42
633.55	45521.08
633.70	45235.53
633.85	45022.54
634.00	45132.55
634.15	44734.66
634.30	44938.29
634.45	45275.32
634.60	44996.80
634.75	45235.53
634.90	45106.80
635.05	45343.20
635.19	45120.85
635.34	45329.16
635.49	45191.06
635.64	44917.22
635.79	45022.54
635.94	45303.41
636.09	45226.17
636.24	45064.67
636.39	45067.02
636.53	45378.31
636.68	44425.71
636.83	44589.55
636.98	44636.36
637.13	44737.00
637.28	44605.93
637.43	44678.49
637.57	44734.66
637.72	43791.42
637.87	44509.97
638.02	45191.06
638.17	44622.31
638.32	43973.98
638.46	44203.36
638.61	44577.84
638.76	44201.02
638.91	44322.72
639.06	43995.05
639.20	44334.43
639.35	44058.24
639.50	43894.41
639.65	44219.74
639.80	44329.75
639.94	44683.17
640.09	44685.51
640.24	44465.50
640.39	43765.68
640.54	44191.65
640.68	44254.85
640.83	44488.90
640.98	44271.23
641.13	44128.46
641.27	44711.25
641.42	43775.04
641.57	43487.15
641.72	44423.37
641.86	43634.61
642.01	43585.46
642.16	43597.16
642.31	43374.81
642.45	44020.80
642.60	43871.00
642.75	43608.86
642.90	43803.13
643.04	44144.84
643.19	43805.47
643.34	43470.77
643.48	43040.11
643.63	43653.33
643.78	43861.64
643.93	44079.31
644.07	43508.22
644.22	43531.62
644.37	43241.40
644.51	43725.89
644.66	43381.83
644.81	43274.16
644.95	44135.48
645.10	43557.37
645.25	43227.35
645.39	43349.06
645.54	43264.80
645.69	42789.67
645.83	42916.06
645.98	42698.39
646.13	42944.15
646.27	43075.22
646.42	42665.63
646.57	43353.74
646.71	43241.40
646.86	43342.04
647.00	43391.19
647.15	43075.22
647.30	43115.01
647.44	42714.78
647.59	43138.41
647.74	42532.22
647.88	42513.49
648.03	43281.19
648.17	43416.94
648.32	42880.95
648.47	43161.82
648.61	42719.46
648.76	42841.17
648.90	42895.00
649.05	42506.47
649.20	42487.74
649.34	42593.07
649.49	42735.84
649.63	42822.44
649.78	42754.57
649.92	42831.80
650.07	43084.58
650.21	42976.92
650.36	43297.57
650.51	42513.49
650.65	42665.63
650.80	42792.01
650.94	42899.68
651.09	42810.74
651.23	42415.19
651.38	42323.91
651.52	42181.13
651.67	42293.48
651.81	42380.08
651.96	42150.71
652.10	41734.09
652.25	41975.17
652.39	42410.51
652.54	42220.92
652.68	42026.66
652.83	42127.30
652.97	42415.19
653.12	42309.86
653.26	41895.59
653.41	42160.07
653.55	41954.10
653.70	42113.26
653.84	42059.43
653.99	42218.58
654.13	42323.91
654.27	41654.51
654.42	42450.30
654.56	41752.82
654.71	41972.83
654.85	41586.64
655.00	41797.29
655.14	41911.97
655.29	42066.45
655.43	42103.90
655.57	41640.47
655.72	41628.77
655.86	41865.16
656.01	41593.66
656.15	40945.33
656.30	41411.10
656.44	41441.53
656.58	41897.93
656.73	41642.81
656.87	41125.55
657.01	41425.14
657.16	41258.96
657.30	41635.79
657.45	41811.33
657.59	41216.83
657.73	41001.50
657.88	40882.14
658.02	41345.56
658.16	41659.20
658.31	41422.80
658.45	41214.49
658.60	40872.78
658.74	41174.70
658.88	41209.81
659.03	40865.75
659.17	40966.40
659.31	40439.78
659.46	40879.80
659.60	40795.54
659.74	40722.98
659.89	40528.72
660.03	40170.61
660.17	40360.20
660.32	40435.10
660.46	40528.72
660.60	40161.25
660.74	40655.11
660.89	40685.53
661.03	39746.98
661.17	39871.03
661.32	39880.39
661.46	40184.66
661.60	40055.93
661.74	39482.50
661.89	40280.62
662.03	40332.11
662.17	39746.98
662.31	40032.52
662.46	40011.46
662.60	39995.07
662.74	39416.96
662.88	39154.82
663.03	39395.90
663.17	39023.75
663.31	39159.50
663.45	39086.95
663.60	40074.65
663.74	39470.79
663.88	39346.75
664.02	38883.32
664.17	39442.71
664.31	39332.70
664.45	38955.88
664.59	39068.22
664.73	38508.83
664.88	38829.49
665.02	38417.55
665.16	38602.46
665.30	38473.73
665.44	38696.08
665.59	38330.95
665.73	38340.32
665.87	38403.51
666.01	38621.18
666.15	38703.10
666.29	38106.26
666.44	38199.88
666.58	38312.23
666.72	38078.18
666.86	37794.97
667.00	38204.56
667.14	37837.10
667.28	37780.93
667.43	38071.15
667.57	37965.83
667.71	38029.02
667.85	38359.04
667.99	37661.56
668.13	37806.67
668.27	37179.41
668.41	37148.98
668.56	37067.06
668.70	36744.07
668.84	37106.85
668.98	36985.15
669.12	36964.08
669.26	36985.15
669.40	36823.65
669.54	36935.99
669.68	36943.02
669.82	37104.51
669.96	36449.16
670.10	36184.68
670.25	36170.64
670.39	36465.55
670.53	36673.85
670.67	36641.09
670.81	36694.92
670.95	36620.02
671.09	36091.06
671.23	36168.30
671.37	36547.47
671.51	36418.74
671.65	36030.21
671.79	36105.10
671.93	36238.51
672.07	35938.93
672.21	35866.37
672.35	35707.21
672.49	35449.75
672.63	35665.08
672.77	35398.26
672.91	35424.01
673.05	35140.80
673.19	34998.03
673.33	35009.73
673.47	35475.50
673.61	34663.33
673.75	34871.64
673.89	34616.52
674.03	34562.69
674.17	34443.32
674.31	34611.84
674.45	34433.96
674.59	34359.06
674.73	34459.71
674.87	34092.24
675.01	34003.30
675.15	33752.87
675.29	34043.09
675.43	34024.37
675.56	34073.52
675.70	33961.17
675.84	33518.81
675.98	32329.82
676.12	33656.90
676.26	33755.21
676.40	33015.60
676.54	32929.00
676.68	32929.00
676.82	32465.57
676.96	33462.64
677.10	33230.93
677.23	32727.71
677.37	32893.89
677.51	33015.60
677.65	32517.06
677.79	32449.19
677.93	32383.65
678.07	32334.50
678.21	31784.48
678.34	31988.10
678.48	31651.06
678.62	31505.95
678.76	31922.57
678.90	31510.63
679.04	31342.11
679.18	31882.78
679.31	30904.43
679.45	31440.42
679.59	30778.04
679.73	31119.76
679.87	31145.51
680.00	31131.47
680.14	31009.76
680.28	30934.86
680.42	30412.92
680.56	30370.79
680.70	30560.37
680.83	30162.48
680.97	29979.92
681.11	30359.09
681.25	29661.61
681.39	29596.07
681.52	29708.42
681.66	29617.14
681.80	29172.44
681.94	28982.85
682.07	28875.19
682.21	28844.76
682.35	28952.43
682.49	29284.78
682.62	28961.79
682.76	29022.64
682.90	29034.35
683.04	28811.99
683.17	28568.58
683.31	27967.06
683.45	28428.15
683.59	28095.79
683.72	28098.13
683.86	28137.92
684.00	28081.75
684.13	28023.23
684.27	27520.02
684.41	27756.41
684.55	27405.33
684.68	27288.31
684.82	27515.34
684.96	27094.04
685.09	27262.56
685.23	27105.74
685.37	27402.99
685.50	27531.72
685.64	27110.43
685.78	27012.12
685.91	26597.85
686.05	26604.87
686.19	26092.29
686.32	26335.71
686.46	26047.82
686.60	25940.16
686.73	26094.63
686.87	25977.61
687.01	26068.89
687.14	25935.48
687.28	25582.06
687.42	25502.48
687.55	25401.83
687.69	25614.82
687.82	25083.52
687.96	25186.50
688.10	25469.71
688.23	25158.42
688.37	25172.46
688.50	25226.29
688.64	24872.87
688.78	24730.10
688.91	24622.44
689.05	24482.00
689.18	24278.38
689.32	23613.66
689.46	23571.54
689.59	23758.78
689.73	24100.50
689.86	24285.40
690.00	24004.53
690.13	24217.52
690.27	23494.30
690.41	23915.59
690.54	23468.55
690.68	23393.65
690.81	23183.01
690.95	22845.97
691.08	23222.80
691.22	23166.62
691.35	22621.28
691.49	23030.87
691.62	22920.87
691.76	22251.47
691.89	22300.62
692.03	22155.51
692.16	22232.75
692.30	21905.07
692.43	21996.35
692.57	21989.33
692.70	21799.75
692.84	22036.14
692.97	21397.18
693.11	21598.46
693.24	21511.86
693.38	21401.86
693.51	21090.57
693.65	21223.98
693.78	21118.65
693.92	21179.51
694.05	20816.72
694.19	20678.63
694.32	20554.58
694.45	21008.65
694.59	20872.90
694.72	20699.70
694.86	20357.98
694.99	20517.14
695.13	20098.18
695.26	19915.62
695.39	19953.07
695.53	20137.97
695.66	20126.27
695.80	19845.40
695.93	19559.86
696.07	19419.42
696.20	19379.64
696.33	19159.63
696.47	19108.13
696.60	19351.55
696.73	19187.71
696.87	19302.40
697.00	19108.13
697.14	18759.39
697.27	18537.04
697.40	18649.39
697.54	18998.13
697.67	18541.72
697.80	18808.54
697.94	18340.44
698.07	18548.75
698.21	18391.93
698.34	18455.12
698.47	18136.81
698.61	17532.95
698.74	17458.06
698.87	17994.04
699.01	17783.39
699.14	17476.78
699.27	17586.79
699.40	17432.31
699.54	17338.69
699.67	17523.59
699.80	17338.69
699.94	17348.05
700.07	17338.69
700.20	17156.13
700.34	17116.34
700.47	17043.78
700.60	16999.31
700.73	16737.17
700.87	16472.69
701.00	16257.36
701.13	16460.99
701.26	16327.58
701.40	16339.28
701.53	16102.89
701.66	16196.51
701.79	16257.36
701.93	15964.79
702.06	15803.30
702.19	15726.06
702.32	15793.94
702.46	15772.87
702.59	15756.49
702.72	15688.61
702.85	15587.97
702.99	15812.66
703.12	15346.89
703.25	15103.48
703.38	15164.33
703.51	15129.22
703.65	14965.39
703.78	14759.42
703.91	14785.16
704.04	14576.86
704.17	14736.01
704.31	14506.64
704.44	14752.40
704.57	14277.27
704.70	14267.91
704.83	14150.88
704.96	14307.69
705.10	14068.96
705.23	14146.20
>>>>>End Processed Spectral Data<<<<<
