SpectraSuite Data File
++++++++++++++++++++++++++++++++++++
Date: Fri Oct 25 11:33:38 EDT 2013
User: price-jones
Dark Spectrum Present: No
Reference Spectrum Present: No
Number of Sampled Component Spectra: 1
Spectrometers: USB2+H05261
Integration Time (usec): 100000 (USB2+H05261)
Spectra Averaged: 1 (USB2+H05261)
Boxcar Smoothing: 0 (USB2+H05261)
Correct for Electrical Dark: No (USB2+H05261)
Strobe/Lamp Enabled: No (USB2+H05261)
Correct for Detector Non-linearity: No (USB2+H05261)
Correct for Stray Light: No (USB2+H05261)
Number of Pixels in Processed Spectrum: 2048
>>>>>Begin Processed Spectral Data<<<<<
365.73	292.57
365.92	292.57
366.12	292.57
366.32	220.01
366.52	217.67
366.72	191.92
366.91	215.33
367.11	231.71
367.31	170.86
367.51	152.13
367.70	198.95
367.90	222.35
368.10	252.78
368.30	126.39
368.49	241.08
368.69	189.58
368.89	156.82
369.09	212.99
369.28	234.05
369.48	220.01
369.68	208.31
369.87	313.63
370.07	229.37
370.27	290.23
370.47	339.38
370.66	503.22
370.86	472.79
371.06	571.09
371.25	578.11
371.45	528.96
371.65	624.92
371.84	573.43
372.04	557.05
372.24	545.34
372.44	568.75
372.63	524.28
372.83	596.84
373.03	636.63
373.22	629.60
373.42	566.41
373.62	571.09
373.81	645.99
374.01	603.86
374.21	664.71
374.40	596.84
374.60	667.05
374.79	657.69
374.99	648.33
375.19	627.26
375.38	699.82
375.58	706.84
375.78	664.71
375.97	643.65
376.17	772.38
376.37	671.73
376.56	702.16
376.76	702.16
376.95	683.44
377.15	636.63
377.35	624.92
377.54	676.41
377.74	624.92
377.93	688.12
378.13	704.50
378.33	685.78
378.52	697.48
378.72	784.08
378.91	720.88
379.11	676.41
379.31	723.23
379.50	709.18
379.70	767.70
379.89	718.54
380.09	753.65
380.28	734.93
380.48	716.20
380.68	734.93
380.87	739.61
381.07	711.52
381.26	746.63
381.46	734.93
381.65	837.91
381.85	772.38
382.04	798.12
382.24	828.55
382.43	781.74
382.63	732.59
382.83	772.38
383.02	763.01
383.22	842.59
383.41	840.25
383.61	772.38
383.80	866.00
384.00	777.06
384.19	774.72
384.39	866.00
384.58	835.57
384.78	882.38
384.97	784.08
385.17	812.17
385.36	816.85
385.56	781.74
385.75	929.19
385.95	856.64
386.14	821.53
386.34	856.64
386.53	835.57
386.72	835.57
386.92	863.66
387.11	912.81
387.31	908.13
387.50	959.62
387.70	863.66
387.89	945.58
388.09	922.17
388.28	901.11
388.48	854.30
388.67	1025.15
388.86	926.85
389.06	889.40
389.25	968.98
389.45	901.11
389.64	943.24
389.84	926.85
390.03	966.64
390.22	901.11
390.42	919.83
390.61	889.40
390.81	1006.43
391.00	929.19
391.19	1088.35
391.39	1111.75
391.58	990.05
391.78	973.66
391.97	1062.60
392.16	1008.77
392.36	1067.28
392.55	1076.65
392.75	1095.37
392.94	1022.81
393.13	1067.28
393.33	964.30
393.52	1102.39
393.71	1130.48
393.91	1032.18
394.10	1062.60
394.29	1163.25
394.49	1104.73
394.68	1102.39
394.88	1193.67
395.07	1219.42
395.26	1104.73
395.46	1090.69
395.65	1156.22
395.84	1205.38
396.04	1273.25
396.23	1233.46
396.42	1174.95
396.62	1240.48
396.81	1233.46
397.00	1149.20
397.19	1303.68
397.39	1221.76
397.58	1252.19
397.77	1291.98
397.97	1186.65
398.16	1207.72
398.35	1277.93
398.55	1277.93
398.74	1324.74
398.93	1294.32
399.12	1308.36
399.32	1322.40
399.51	1341.13
399.70	1399.64
399.90	1317.72
400.09	1444.11
400.28	1324.74
400.47	1357.51
400.67	1306.02
400.86	1401.98
401.05	1411.34
401.24	1476.88
401.44	1376.24
401.63	1425.39
401.82	1469.86
402.01	1397.30
402.21	1497.94
402.40	1521.35
402.59	1469.86
402.78	1523.69
402.97	1486.24
403.17	1469.86
403.36	1554.12
403.55	1432.41
403.74	1614.97
403.93	1643.06
404.13	1537.73
404.32	1605.61
404.51	1547.09
404.70	1666.46
404.89	1540.07
405.09	1664.12
405.28	1694.55
405.47	1753.06
405.66	1813.92
405.85	1788.17
406.05	1727.32
406.24	1788.17
406.43	1762.42
406.62	1678.16
406.81	1909.88
407.00	1760.08
407.20	1713.27
407.39	1785.83
407.58	1781.15
407.77	1872.43
407.96	1902.86
408.15	1813.92
408.34	1849.02
408.54	2008.18
408.73	1975.41
408.92	1893.49
409.11	1966.05
409.30	2036.27
409.49	1952.01
409.68	2047.97
409.87	1961.37
410.07	2083.08
410.26	2111.16
410.45	2040.95
410.64	2101.80
410.83	2059.67
411.02	2232.87
411.21	2076.06
411.40	2115.84
411.59	2162.66
411.78	2113.50
411.98	2160.31
412.17	2279.68
412.36	2228.19
412.55	2293.72
412.74	2312.45
412.93	2356.92
413.12	2370.96
413.31	2354.58
413.50	2424.80
413.69	2392.03
413.88	2459.90
414.07	2569.91
414.26	2478.63
414.45	2553.52
414.64	2457.56
414.83	2544.16
415.02	2581.61
415.22	2572.25
415.41	2562.89
415.60	2672.89
415.79	2724.38
415.98	2715.02
416.17	2778.22
416.36	2696.30
416.55	2818.00
416.74	2754.81
416.93	2759.49
417.12	2904.60
417.31	2932.69
417.50	2862.48
417.69	2928.01
417.88	2860.13
418.07	2916.31
418.26	3061.42
418.45	2935.03
418.64	3068.44
418.83	2963.12
419.02	3077.80
419.21	3159.72
419.39	3171.43
419.58	3087.17
419.77	3124.62
419.96	3117.59
420.15	3173.77
420.34	3199.51
420.53	3094.19
420.72	3265.05
420.91	3225.26
421.10	3314.20
421.29	3412.50
421.48	3213.56
421.67	3248.66
421.86	3241.64
422.05	3211.22
422.24	3208.87
422.43	3337.60
422.61	3316.54
422.80	3391.44
422.99	3344.63
423.18	3433.57
423.37	3438.25
423.56	3471.01
423.75	3417.18
423.94	3290.79
424.13	3073.12
424.32	3332.92
424.50	3407.82
424.69	3548.25
424.88	3494.42
425.07	3421.86
425.26	3358.67
425.45	3461.65
425.64	3438.25
425.83	3503.78
426.01	3496.76
426.20	3503.78
426.39	3520.17
426.58	3398.46
426.77	3435.91
426.96	3510.80
427.15	3602.08
427.33	3634.85
427.52	3555.27
427.71	3609.11
427.90	3658.26
428.09	3471.01
428.28	3646.55
428.46	3705.07
428.65	3602.08
428.84	3763.58
429.03	3777.62
429.22	3726.13
429.40	3810.39
429.59	3751.88
429.78	3545.91
429.97	3590.38
430.16	3810.39
430.34	3836.14
430.53	3861.88
430.72	3953.16
430.91	3918.06
431.10	3852.52
431.28	4042.11
431.47	3995.29
431.66	3983.59
431.85	4138.07
432.03	4011.68
432.22	4100.62
432.41	4016.36
432.60	4170.83
432.79	4102.96
432.97	4112.32
433.16	4025.72
433.35	4121.68
433.54	4142.75
433.72	4222.33
433.91	4105.30
434.10	4095.94
434.28	4269.14
434.47	4372.12
434.66	4175.52
434.85	4266.80
435.03	4346.37
435.22	4369.78
435.41	4421.27
435.59	4351.06
435.78	4409.57
435.97	4416.59
436.16	4269.14
436.34	4339.35
436.53	4402.55
436.72	4355.74
436.90	4517.23
437.09	4491.49
437.28	4472.76
437.46	4559.36
437.65	4566.39
437.84	4592.13
438.02	4533.62
438.21	4723.20
438.40	4601.49
438.58	4901.08
438.77	4870.65
438.96	4723.20
439.14	4891.72
439.33	4898.74
439.52	4774.69
439.70	4833.21
439.89	4865.97
440.08	4999.38
440.26	5097.69
440.45	4926.83
440.63	4961.94
440.82	5121.09
441.01	5104.71
441.19	5205.35
441.38	5331.74
441.57	5411.32
441.75	5423.02
441.94	5556.43
442.12	5338.76
442.31	5469.83
442.50	5313.02
442.68	5366.85
442.87	5366.85
443.05	5336.42
443.24	5413.66
443.43	5617.29
443.61	5664.10
443.80	5694.52
443.98	5547.07
444.17	5322.38
444.35	5692.18
444.54	5713.25
444.73	5523.66
444.91	5614.95
445.10	5692.18
445.28	5636.01
445.47	5731.97
445.65	5696.86
445.84	5717.93
446.02	5682.82
446.21	5841.98
446.39	5757.72
446.58	5692.18
446.77	5809.21
446.95	5722.61
447.14	5633.67
447.32	5905.17
447.51	5879.43
447.69	5778.78
447.88	5694.52
448.06	6026.88
448.25	5930.92
448.43	5940.28
448.62	5895.81
448.80	5799.85
448.99	6057.31
449.17	5827.93
449.36	5785.80
449.54	6113.48
449.73	6052.63
449.91	6083.05
450.10	5996.45
450.28	6260.93
450.46	6031.56
450.65	6293.70
450.83	6080.71
451.02	6293.70
451.20	6399.02
451.39	6310.08
451.57	6221.14
451.76	6160.29
451.94	6331.15
452.13	6286.68
452.31	6115.82
452.49	6134.54
452.68	6167.31
452.86	6225.82
453.05	6298.38
453.23	6403.71
453.42	6473.92
453.60	6380.30
453.78	6443.49
453.97	6354.55
454.15	6370.94
454.34	6511.37
454.52	6780.53
454.70	6476.26
454.89	6684.57
455.07	6637.76
455.26	6656.48
455.44	6729.04
455.62	6555.84
455.81	6518.39
455.99	6806.28
456.17	6722.02
456.36	6895.22
456.54	6944.37
456.73	6867.13
456.91	7021.61
457.09	6771.17
457.28	6984.16
457.46	6747.76
457.64	7045.01
457.83	7208.85
458.01	6963.09
458.19	7180.76
458.38	7056.72
458.56	7302.47
458.74	7314.17
458.93	7164.38
459.11	7316.51
459.29	7281.41
459.48	7440.56
459.66	7183.10
459.84	7328.22
460.03	7562.27
460.21	7653.55
460.39	7344.60
460.57	7384.39
460.76	7403.11
460.94	7332.90
461.12	7438.22
461.31	7534.18
461.49	7691.00
461.67	7513.12
461.85	7719.09
462.04	7545.89
462.22	8093.57
462.40	7779.94
462.59	7751.85
462.77	7733.13
462.95	7929.74
463.13	7920.37
463.32	7875.90
463.50	8002.29
463.68	7850.16
463.86	8060.80
464.05	7868.88
464.23	7882.92
464.41	8016.33
464.59	7707.38
464.78	8159.11
464.96	8088.89
465.14	7775.26
465.32	8018.68
465.50	8079.53
465.69	8224.64
465.87	8032.72
466.05	8201.24
466.23	8308.90
466.41	8294.86
466.60	8376.78
466.78	8273.79
466.96	8308.90
467.14	8425.93
467.32	8248.05
467.51	8334.65
467.69	8168.47
467.87	8252.73
468.05	8313.58
468.23	8416.57
468.41	8404.86
468.60	8578.06
468.78	8505.51
468.96	8465.72
469.14	8454.02
469.32	8615.51
469.50	8416.57
469.69	8706.79
469.87	8760.63
470.05	8746.58
470.23	8713.81
470.41	8788.71
470.59	8987.66
470.77	8730.20
470.95	8854.25
471.14	8924.46
471.32	8975.95
471.50	9053.19
471.68	9092.98
471.86	9069.58
472.04	9020.42
472.22	9287.25
472.40	8971.27
472.58	9352.78
472.77	9174.90
472.95	9329.38
473.13	9650.03
473.31	9359.80
473.49	9675.77
473.67	9434.70
473.85	9563.43
474.03	9799.82
474.21	9685.14
474.39	9755.35
474.57	9916.85
474.75	9954.30
474.93	10001.11
475.12	10012.81
475.30	10263.25
475.48	10059.62
475.66	10005.79
475.84	10148.56
476.02	10129.84
476.20	10314.74
476.38	10406.02
476.56	10787.53
476.74	10607.31
476.92	10551.14
477.10	10558.16
477.28	10729.02
477.46	10750.08
477.64	10780.51
477.82	11073.07
478.00	11225.21
478.18	11002.86
478.36	11213.51
478.54	11384.37
478.72	11377.34
478.90	11485.01
479.08	11648.85
479.26	11487.35
479.44	11779.92
479.62	11597.35
479.80	11882.90
479.98	11990.56
480.16	12222.28
480.34	12100.57
480.52	12381.43
480.70	12439.95
480.88	12037.38
481.06	12313.56
481.24	12465.69
481.41	12737.20
481.59	12526.55
481.77	12980.61
481.95	12943.16
482.13	12989.97
482.31	13025.08
482.49	13425.31
482.67	13270.84
482.85	13603.19
483.03	13392.55
483.21	13460.42
483.39	13671.07
483.57	13881.72
483.74	13987.04
483.92	13795.12
484.10	14033.85
484.28	14256.20
484.46	14352.16
484.64	14324.08
484.82	14293.65
485.00	14686.86
485.18	14876.44
485.35	15138.58
485.53	15014.54
485.71	15307.10
485.89	15513.07
486.07	15201.78
486.25	15295.40
486.43	15587.97
486.61	15843.09
486.78	15983.52
486.96	15683.93
487.14	16079.48
487.32	16170.76
487.50	16521.84
487.68	16418.86
487.85	16524.18
488.03	16727.81
488.21	17011.01
488.39	16746.53
488.57	17088.25
488.75	17369.12
488.92	17544.66
489.10	17460.40
489.28	17729.56
489.46	17462.74
489.64	17848.93
489.81	18090.00
489.99	17928.50
490.17	18256.18
490.35	18595.56
490.53	18607.26
490.70	18483.21
490.88	18501.93
491.06	18757.05
491.24	19187.71
491.41	19030.90
491.59	19274.31
491.77	19154.94
491.95	19321.12
492.13	19606.67
492.30	19796.25
492.48	19339.85
492.66	19744.76
492.84	20084.14
493.01	19915.62
493.19	20149.67
493.37	20255.00
493.54	20257.34
493.72	20500.75
493.90	20739.49
494.08	20737.15
494.25	20716.08
494.43	20744.17
494.61	21200.57
494.79	21600.80
494.96	21102.27
495.14	21523.57
495.32	21532.93
495.49	21675.70
495.67	21916.78
495.85	22101.68
496.02	22253.81
496.20	22450.42
496.38	22298.28
496.55	22492.55
496.73	23164.28
496.91	23300.03
497.09	22677.45
497.26	23037.89
497.44	23260.24
497.62	22986.40
497.79	23496.64
497.97	23477.91
498.14	23758.78
498.32	23859.42
498.50	23541.11
498.67	23644.09
498.85	24002.19
499.03	24009.22
499.20	24257.31
499.38	24322.85
499.56	24627.12
499.73	24486.68
499.91	24823.72
500.08	24690.31
500.26	24318.17
500.44	24842.45
500.61	24842.45
500.79	24748.82
500.97	25144.38
501.14	25415.88
501.32	25195.87
501.49	25319.92
501.67	25394.81
501.84	25383.11
502.02	25579.71
502.20	25759.94
502.37	25600.78
502.55	25977.61
502.72	25766.96
502.90	25647.59
503.07	26052.50
503.25	26272.51
503.43	26071.23
503.60	26316.98
503.78	26401.24
503.95	26307.62
504.13	26424.65
504.30	27007.44
504.48	26637.64
504.65	26927.86
504.83	27374.91
505.01	27278.94
505.18	26902.12
505.36	27192.34
505.53	26916.16
505.71	27122.13
505.88	27859.40
506.06	27161.92
506.23	27723.65
506.41	27608.96
506.58	27906.21
506.76	27981.10
506.93	28240.90
507.11	28133.24
507.28	28020.89
507.46	28048.98
507.63	28414.10
507.81	28694.97
507.98	28264.31
508.16	28140.26
508.33	28713.69
508.50	28575.60
508.68	28690.29
508.85	29139.67
509.03	28765.18
509.20	29355.00
509.38	29364.36
509.55	29446.28
509.73	29635.86
509.90	29591.39
510.08	29401.81
510.25	29610.12
510.42	29617.14
510.60	30089.93
510.77	29933.11
510.95	30118.01
511.12	30052.48
511.30	29996.31
511.47	30258.45
511.64	30167.16
511.82	30576.76
511.99	30256.11
512.17	30738.26
512.34	30794.43
512.51	30586.12
512.69	30534.63
512.86	30759.32
513.04	30684.42
513.21	30895.07
513.38	31213.38
513.56	31442.76
513.73	31033.16
513.90	31405.31
514.08	31253.17
514.25	31611.28
514.43	31658.09
514.60	31545.74
514.77	31632.34
514.95	32079.38
515.12	31995.12
515.29	31555.10
515.47	32165.98
515.64	32060.66
515.81	31512.97
515.99	32137.90
516.16	32479.61
516.33	32505.36
516.51	32517.06
516.68	32252.58
516.85	33048.36
517.03	33151.35
517.20	32243.22
517.37	32830.69
517.54	32580.26
517.72	32737.07
517.89	33357.32
518.06	33074.11
518.24	32900.91
518.41	33401.79
518.58	33303.48
518.75	33469.66
518.93	33071.77
519.10	33071.77
519.27	33858.19
519.45	33340.93
519.62	33766.91
519.79	33574.98
519.96	33369.02
520.14	33914.36
520.31	33778.61
520.48	34096.92
520.65	34323.96
520.83	34305.23
521.00	34593.12
521.17	34623.54
521.34	34478.43
521.52	34333.32
521.69	34555.67
521.86	34742.91
522.03	34895.05
522.20	34953.56
522.38	35262.51
522.55	34820.15
522.72	35047.18
522.89	35204.00
523.07	35758.70
523.24	35419.33
523.41	35803.17
523.58	35040.16
523.75	35398.26
523.92	35782.11
524.10	35199.32
524.27	36002.12
524.44	35667.42
524.61	35917.86
524.78	35793.81
524.96	36301.71
525.13	36519.38
525.30	36163.62
525.47	36388.31
525.64	36215.11
525.81	35892.12
525.98	36339.16
526.16	36507.68
526.33	36170.64
526.50	36844.71
526.67	36596.62
526.84	36308.73
527.01	36863.44
527.18	36711.30
527.36	37207.50
527.53	37022.59
527.70	37172.39
527.87	36994.51
528.04	37144.30
528.21	37029.62
528.38	37095.15
528.55	37326.86
528.72	37179.41
528.89	37266.01
529.07	37352.61
529.24	37261.33
529.41	37434.53
529.58	37200.47
529.75	37537.51
529.92	37942.42
530.09	37708.37
530.26	37900.29
530.43	37933.06
530.60	37965.83
530.77	37790.29
530.94	38136.69
531.11	38206.90
531.28	38031.36
531.46	37926.04
531.63	38375.42
531.80	37954.13
531.97	38422.23
532.14	38302.87
532.31	38745.23
532.48	38433.94
532.65	39068.22
532.82	38401.17
532.99	38707.78
533.16	38337.98
533.33	38843.53
533.50	39175.89
533.67	38550.96
533.84	38717.14
534.01	39131.42
534.18	38630.54
534.35	39346.75
534.52	38803.74
534.69	39426.32
534.86	39784.43
535.03	39143.12
535.20	39676.76
535.37	39234.40
535.54	39487.18
535.71	39634.63
535.88	39477.82
536.05	39503.56
536.22	39615.91
536.38	39971.67
536.55	39505.90
536.72	39821.87
536.89	39648.68
537.06	39838.26
537.23	40271.26
537.40	39789.11
537.57	39821.87
537.74	40030.18
537.91	40051.25
538.08	40254.87
538.25	40105.08
538.42	40182.32
538.59	40624.68
538.75	40570.85
538.92	40451.48
539.09	40751.07
539.26	40800.22
539.43	40776.81
539.60	40896.18
539.77	40409.35
539.94	41090.44
540.11	40884.48
540.28	40928.95
540.44	40975.76
540.61	40594.25
540.78	40341.47
540.95	40835.33
541.12	40610.64
541.29	40907.88
541.46	41088.10
541.62	40900.86
541.79	41383.01
541.96	40678.51
542.13	41163.00
542.30	41572.60
542.47	41118.53
542.63	41415.78
542.80	41486.00
542.97	41734.09
543.14	41787.92
543.31	41961.12
543.48	42206.88
543.64	42263.05
543.81	41998.57
543.98	41958.78
544.15	41626.43
544.32	41799.63
544.48	42782.65
544.65	42003.25
544.82	42185.82
544.99	42469.02
545.16	41977.51
545.32	42185.82
545.49	42749.88
545.66	42492.43
545.83	42211.56
546.00	42862.23
546.16	42637.54
546.33	42443.27
546.50	42515.83
546.67	42866.91
546.83	42419.87
547.00	42789.67
547.17	43068.20
547.34	42721.80
547.50	43016.71
547.67	43356.08
547.84	42895.00
548.00	43136.07
548.17	43288.21
548.34	43412.26
548.51	43178.20
548.67	43927.17
548.84	43538.65
549.01	43250.76
549.18	43592.48
549.34	43213.31
549.51	44194.00
549.68	43257.78
549.84	43763.34
550.01	43583.12
550.18	43419.28
550.34	43753.97
550.51	43510.56
550.68	43487.15
550.84	43426.30
551.01	44044.20
551.18	43604.18
551.34	43831.21
551.51	44041.86
551.68	44074.63
551.84	43924.83
552.01	43716.53
552.18	44123.78
552.34	43786.74
552.51	43995.05
552.68	43920.15
552.84	44067.61
553.01	43793.76
553.18	43807.81
553.34	44282.94
553.51	44191.65
553.67	44194.00
553.84	44652.74
554.01	44179.95
554.17	44465.50
554.34	44538.05
554.51	44870.41
554.67	44521.67
554.84	44687.85
555.00	44648.06
555.17	44512.31
555.33	44767.43
555.50	44713.59
555.67	44802.53
555.83	44910.20
556.00	45329.16
556.16	45083.40
556.33	45034.25
556.50	44905.52
556.66	44847.00
556.83	44673.81
556.99	45041.27
557.16	45085.74
557.32	44985.10
557.49	45085.74
557.65	45277.66
557.82	45390.01
557.98	45249.58
558.15	44994.46
558.32	45485.97
558.48	45240.21
558.65	45640.45
558.81	45045.95
558.98	45003.82
559.14	44751.04
559.31	45001.48
559.47	45195.74
559.64	45474.27
559.80	45317.45
559.97	45532.78
560.13	45212.13
560.30	45359.58
560.46	45588.95
560.63	46005.57
560.79	46129.62
560.96	46059.40
561.12	45710.66
561.29	45743.43
561.45	45680.24
561.61	45745.77
561.78	45869.82
561.94	45649.81
562.11	45656.83
562.27	46110.89
562.44	45904.93
562.60	45940.04
562.77	46232.60
562.93	45464.91
563.10	45968.12
563.26	46031.32
563.42	46274.73
563.59	45607.68
563.75	46047.70
563.92	45841.73
564.08	45998.55
564.24	46143.66
564.41	46337.93
564.57	46171.75
564.74	46363.67
564.90	45645.13
565.07	45762.15
565.23	46202.18
565.39	45769.18
565.56	45916.63
565.72	45743.43
565.88	46216.22
566.05	46211.54
566.21	46162.39
566.38	46080.47
566.54	46560.28
566.70	46412.82
566.87	46401.12
567.03	45961.10
567.19	46625.81
567.36	46588.36
567.52	46358.99
567.68	46623.47
567.85	46717.09
568.01	46674.96
568.17	46080.47
568.34	46897.31
568.50	46321.54
568.66	46143.66
568.83	46433.89
568.99	46288.77
569.15	46604.75
569.32	46925.40
569.48	46370.69
569.64	46588.36
569.81	46864.55
569.97	46759.22
570.13	46314.52
570.30	46616.45
570.46	46588.36
570.62	47103.28
570.78	46508.79
570.95	46602.41
571.11	47068.17
571.27	46651.56
571.43	46195.15
571.60	46913.70
571.76	46274.73
571.92	46738.16
572.09	46754.54
572.25	46513.47
572.41	46590.70
572.57	46707.73
572.74	47309.25
572.90	46740.50
573.06	47189.88
573.22	46784.97
573.38	46887.95
573.55	47065.83
573.71	47349.04
573.87	47173.50
574.03	47026.04
574.20	47313.93
574.36	47271.80
574.52	47124.35
574.68	46710.07
574.84	47129.03
575.01	47178.18
575.17	47203.92
575.33	47103.28
575.49	47161.79
575.65	46939.44
575.82	47447.34
575.98	47171.16
576.14	47419.25
576.30	47079.88
576.46	47033.07
576.62	46855.18
576.79	47143.07
576.95	46773.27
577.11	46972.21
577.27	47065.83
577.43	47447.34
577.59	47065.83
577.75	47152.43
577.92	47126.69
578.08	46740.50
578.24	47398.19
578.40	47199.24
578.56	47159.45
578.72	47194.56
578.88	47302.23
579.04	47232.01
579.21	47054.13
579.37	47002.64
579.53	47243.71
579.69	47171.16
579.85	46841.14
580.01	46838.80
580.17	47145.41
580.33	47557.35
580.49	47337.33
580.65	47276.48
580.82	47068.17
580.98	47023.70
581.14	46845.82
581.30	47440.32
581.46	47037.75
581.62	47669.69
581.78	46885.61
581.94	47208.61
582.10	47526.92
582.26	47597.13
582.42	47175.84
582.58	47475.43
582.74	47370.10
582.90	47110.30
583.06	47653.31
583.22	46876.25
583.38	47119.66
583.54	47480.11
583.70	47599.47
583.86	47203.92
584.02	47566.71
584.18	47547.98
584.34	47489.47
584.50	47880.34
584.66	47531.60
584.82	47400.53
584.98	47667.35
585.14	47536.28
585.30	46850.50
585.46	47728.20
585.62	47110.30
585.78	47377.12
585.94	47012.00
586.10	47311.59
586.26	47374.78
586.42	47274.14
586.58	47505.85
586.74	47583.09
586.90	47681.39
587.06	47061.15
587.22	47377.12
587.38	47234.35
587.54	47428.62
587.70	47789.06
587.86	47536.28
588.02	47580.75
588.18	47456.70
588.34	47824.17
588.49	47690.76
588.65	47435.64
588.81	47543.30
588.97	47627.56
589.13	47779.70
589.29	47491.81
589.45	47878.00
589.61	47473.09
589.77	47587.77
589.93	47297.55
590.08	47908.43
590.24	47840.55
590.40	47966.94
590.56	47945.87
590.72	47826.51
590.88	47810.12
591.04	48151.84
591.20	47772.67
591.35	47875.66
591.51	48322.70
591.67	47868.64
591.83	47882.68
591.99	47711.82
592.15	47920.13
592.31	47496.49
592.46	48002.05
592.62	47786.72
592.78	48217.38
592.94	48493.56
593.10	48355.47
593.26	48275.89
593.41	48608.25
593.57	48074.60
593.73	48027.79
593.89	48259.51
594.05	48350.79
594.20	48069.92
594.36	48292.27
594.52	48261.85
594.68	48325.04
594.84	47746.93
594.99	48383.55
595.15	48098.01
595.31	47997.37
595.47	47962.26
595.62	47798.42
595.78	48020.77
595.94	48327.38
596.10	48271.21
596.25	48154.18
596.41	48456.11
596.57	48205.67
596.73	48027.79
596.88	47929.49
597.04	48268.87
597.20	48151.84
597.36	48383.55
597.51	48175.25
597.67	48025.45
597.83	48545.05
597.99	48011.41
598.14	48273.55
598.30	47941.19
598.46	48100.35
598.61	48531.01
598.77	48444.41
598.93	48083.97
599.09	48034.81
599.24	48423.34
599.40	48076.94
599.56	48615.27
599.71	48772.08
599.87	48694.85
600.03	48619.95
600.18	48465.47
600.34	48748.68
600.50	48226.74
600.65	48200.99
600.81	48617.61
600.97	48254.82
601.12	48378.87
601.28	48505.26
601.44	48186.95
601.59	48388.24
601.75	48428.02
601.91	48795.49
602.06	48116.73
602.22	48526.33
602.37	48334.40
602.53	48666.76
602.69	48601.22
602.84	47814.80
603.00	48126.10
603.16	48027.79
603.31	48416.32
603.47	48816.55
603.62	48107.37
603.78	48898.47
603.94	48360.15
604.09	48257.17
604.25	48002.05
604.40	48369.51
604.56	48435.05
604.71	48928.90
604.87	48329.72
605.03	48231.42
605.18	48334.40
605.34	48428.02
605.49	48303.98
605.65	48631.65
605.80	48229.08
605.96	47833.53
606.12	48011.41
606.27	48360.15
606.43	48140.14
606.58	48339.08
606.74	48383.55
606.89	48409.30
607.05	48601.22
607.20	48137.80
607.36	48301.64
607.51	48095.67
607.67	48083.97
607.82	48151.84
607.98	48495.90
608.13	48156.52
608.29	48282.91
608.44	48308.66
608.60	47962.26
608.75	48493.56
608.91	48058.22
609.06	47576.07
609.22	48233.76
609.37	48254.82
609.53	48196.31
609.68	48294.61
609.84	48175.25
609.99	47957.58
610.15	47945.87
610.30	48278.23
610.46	48039.50
610.61	48147.16
610.76	48083.97
610.92	47983.32
611.07	47854.59
611.23	48086.31
611.38	47650.97
611.54	47798.42
611.69	48030.13
611.84	48367.17
612.00	47929.49
612.15	48041.84
612.31	47997.37
612.46	47232.01
612.62	47903.74
612.77	47835.87
612.92	47639.26
613.08	47676.71
613.23	47559.69
613.39	47288.18
613.54	47515.22
613.69	47892.04
613.85	47742.25
614.00	47428.62
614.15	47800.76
614.31	47892.04
614.46	47576.07
614.62	47765.65
614.77	47407.55
614.92	47178.18
615.08	47524.58
615.23	47693.10
615.38	47690.76
615.54	47330.31
615.69	47220.31
615.84	47723.52
616.00	47601.82
616.15	47702.46
616.30	47716.50
616.46	47796.08
616.61	47384.15
616.76	47772.67
616.92	47276.48
617.07	47512.88
617.22	47239.03
617.37	46801.35
617.53	47290.52
617.68	47629.90
617.83	47227.33
617.99	47452.02
618.14	47870.98
618.29	46890.29
618.45	47086.90
618.60	47196.90
618.75	46824.76
618.90	47210.95
619.06	47082.22
619.21	46829.44
619.36	47262.44
619.51	46768.58
619.67	47030.72
619.82	47241.37
619.97	47360.74
620.12	47171.16
620.28	47276.48
620.43	47377.12
620.58	47084.56
620.73	47058.81
620.89	47407.55
621.04	46871.57
621.19	46934.76
621.34	46658.58
621.49	46775.61
621.65	46937.10
621.80	47185.20
621.95	47508.19
622.10	46916.04
622.25	47107.96
622.41	46660.92
622.56	46588.36
622.71	46887.95
622.86	47248.39
623.01	47168.82
623.16	46447.93
623.32	46726.46
623.47	46913.70
623.62	46611.77
623.77	46700.71
623.92	46586.02
624.07	46916.04
624.23	46941.78
624.38	46859.87
624.53	46768.58
624.68	46485.38
624.83	46368.35
624.98	46581.34
625.13	46504.10
625.29	45984.51
625.44	46623.47
625.59	46316.86
625.74	46382.40
625.89	46284.09
626.04	45897.91
626.19	46300.48
626.34	46576.66
626.49	45928.33
626.65	46131.96
626.80	46082.81
626.95	46312.18
627.10	45780.88
627.25	45965.78
627.40	46096.85
627.55	46192.81
627.70	45832.37
627.85	45923.65
628.00	46106.21
628.15	46206.86
628.30	45581.93
628.45	45144.25
628.60	45460.23
628.76	45633.42
628.91	45970.46
629.06	45551.51
629.21	45390.01
629.36	45715.34
629.51	45759.81
629.66	45918.97
629.81	45378.31
629.96	45853.44
630.11	45624.06
630.26	45720.02
630.41	45635.77
630.56	45130.21
630.71	45619.38
630.86	45310.43
631.01	45099.78
631.16	45078.72
631.31	44985.10
631.46	45230.85
631.61	45654.49
631.76	45394.69
631.91	45282.34
632.06	45270.64
632.21	45698.96
632.36	45242.56
632.51	45205.11
632.66	45263.62
632.81	44980.42
632.96	45436.82
633.10	44870.41
633.25	45574.91
633.40	45254.26
633.55	45483.63
633.70	45240.21
633.85	44795.51
634.00	44729.98
634.15	44865.73
634.30	44505.29
634.45	44720.62
634.60	44439.75
634.75	44889.13
634.90	44980.42
635.05	45027.23
635.19	44896.16
635.34	45202.77
635.49	44238.47
635.64	44671.46
635.79	44832.96
635.94	44556.78
636.09	45132.55
636.24	44708.91
636.39	44203.36
636.53	44502.95
636.68	44507.63
636.83	44301.66
636.98	44233.78
637.13	43964.62
637.28	44399.96
637.43	44151.87
637.57	44453.79
637.72	44172.93
637.87	44198.68
638.02	44201.02
638.17	44568.48
638.32	44133.14
638.46	43990.37
638.61	43957.60
638.76	43725.89
638.91	44025.48
639.06	44161.23
639.20	43646.31
639.35	43730.57
639.50	43831.21
639.65	44074.63
639.80	44446.77
639.94	44060.58
640.09	44432.73
640.24	44046.54
640.39	43709.50
640.54	43821.85
640.68	44076.97
640.83	43791.42
640.98	43470.77
641.13	43702.48
641.27	43966.96
641.42	43421.62
641.57	43566.73
641.72	43695.46
641.86	43538.65
642.01	42937.13
642.16	42939.47
642.31	43257.78
642.45	43531.62
642.60	43105.65
642.75	43117.35
642.90	43643.97
643.04	43674.40
643.19	43344.38
643.34	43393.53
643.48	43110.33
643.63	43103.31
643.78	43285.87
643.93	43318.64
644.07	43269.48
644.22	43110.33
644.37	43133.73
644.51	43295.23
644.66	43400.55
644.81	43267.14
644.95	43051.81
645.10	43215.65
645.25	42733.50
645.39	42822.44
645.54	42759.25
645.69	42312.20
645.83	42995.64
645.98	42822.44
646.13	42838.83
646.27	42504.13
646.42	42937.13
646.57	42813.08
646.71	42820.10
646.86	43295.23
647.00	42953.51
647.15	43040.11
647.30	42897.34
647.44	42649.24
647.59	42609.45
647.74	42653.92
647.88	43096.28
648.03	42951.17
648.17	43267.14
648.32	42642.22
648.47	42923.08
648.61	42251.35
648.76	42199.86
648.90	42340.29
649.05	42394.12
649.20	42101.56
649.34	42724.14
649.49	42445.62
649.63	42431.57
649.78	42478.38
649.92	42733.50
650.07	42429.23
650.21	42586.05
650.36	43054.15
650.51	42597.75
650.65	42590.73
650.80	42511.15
650.94	42504.13
651.09	42080.49
651.23	41970.49
651.38	42220.92
651.52	41748.14
651.67	41619.41
651.81	41804.31
651.96	42089.85
652.10	41879.21
652.25	41867.50
652.39	42110.92
652.54	41771.54
652.68	41612.38
652.83	42092.19
652.97	42057.09
653.12	41710.69
653.26	41617.07
653.41	41638.13
653.55	42021.98
653.70	41935.38
653.84	41982.19
653.99	42136.66
654.13	41914.31
654.27	41401.74
654.42	41785.58
654.56	41296.41
654.71	41425.14
654.85	41825.37
655.00	41645.15
655.14	41830.05
655.29	41689.62
655.43	42127.30
655.57	41207.47
655.72	41308.11
655.86	41495.36
656.01	41090.44
656.15	41050.66
656.30	41366.63
656.44	41326.84
656.58	41294.07
656.73	40816.60
656.87	41181.73
657.01	40987.46
657.16	41235.56
657.30	41212.15
657.45	40954.69
657.59	41268.33
657.73	40659.79
657.88	40828.30
658.02	41163.00
658.16	41287.05
658.31	40950.01
658.45	41099.81
658.60	40322.75
658.74	40903.20
658.88	40793.20
659.03	40641.06
659.17	40587.23
659.31	40233.81
659.46	40320.41
659.60	40755.75
659.74	40170.61
659.89	40095.72
660.03	40076.99
660.17	39995.07
660.32	39945.92
660.46	39875.71
660.60	39945.92
660.74	39941.24
660.89	40179.98
661.03	39943.58
661.17	39700.17
661.32	39770.38
661.46	39578.46
661.60	39772.72
661.74	39768.04
661.89	39676.76
662.03	39777.40
662.17	39728.25
662.31	39611.23
662.46	39412.28
662.60	39079.92
662.74	39136.10
662.88	39641.65
663.03	38834.17
663.17	39166.52
663.31	38815.44
663.45	38946.51
663.60	39311.64
663.74	39402.92
663.88	39075.24
664.02	38644.59
664.17	39234.40
664.31	38443.30
664.45	38455.00
664.59	38775.66
664.73	38557.99
664.88	38691.40
665.02	38581.39
665.16	38595.43
665.30	38305.21
665.44	38433.94
665.59	37823.06
665.73	38581.39
665.87	37827.74
666.01	38288.82
666.15	37965.83
666.29	37769.22
666.44	38579.05
666.58	38012.64
666.72	37928.38
666.86	37848.80
667.00	37687.31
667.14	37654.54
667.28	37792.63
667.43	37844.12
667.57	38068.81
667.71	37481.34
667.85	37677.94
667.99	37303.46
668.13	37659.22
668.27	36999.19
668.41	37186.43
668.56	36613.00
668.70	37083.45
668.84	36559.17
668.98	36552.15
669.12	37041.32
669.26	36833.01
669.40	36821.31
669.54	36966.42
669.68	36912.59
669.82	36589.59
669.96	35943.61
670.10	36481.93
670.25	36086.38
670.39	36507.68
670.53	36474.91
670.67	36463.21
670.81	36353.20
670.95	36292.35
671.09	36304.05
671.23	35875.73
671.37	36011.48
671.51	35662.74
671.65	35880.41
671.79	35723.60
671.93	35627.63
672.07	35922.54
672.21	35269.53
672.35	35285.92
672.49	35019.10
672.63	35323.36
672.77	35264.85
672.91	35129.10
673.05	35386.56
673.19	35098.67
673.33	34646.95
673.47	34827.17
673.61	34440.98
673.75	34490.13
673.89	34473.75
674.03	34567.37
674.17	34122.67
674.31	33745.84
674.45	34281.83
674.59	33853.51
674.73	34227.99
674.87	34029.05
675.01	33474.34
675.15	33509.45
675.29	33247.31
675.43	33879.25
675.56	33333.91
675.70	33766.91
675.84	33214.54
675.98	32297.05
676.12	32851.76
676.26	33219.22
676.40	32924.32
676.54	32938.36
676.68	33085.81
676.82	32294.71
676.96	32655.15
677.10	32676.22
677.23	32659.84
677.37	32297.05
677.51	31798.52
677.65	32376.63
677.79	31931.93
677.93	32226.84
678.07	32095.77
678.21	31622.98
678.34	31559.78
678.48	31328.07
678.62	31346.79
678.76	31180.62
678.90	31199.34
679.04	31309.35
679.18	31800.86
679.31	31445.10
679.45	30843.58
679.59	30834.22
679.73	30764.00
679.87	30630.59
680.00	30588.46
680.14	30541.65
680.28	30412.92
680.42	30443.35
680.56	30436.33
680.70	30258.45
680.83	29993.97
680.97	29809.06
681.11	29989.28
681.25	29631.18
681.39	29303.51
681.52	29472.03
681.66	28762.84
681.80	28788.59
681.94	28765.18
682.07	28767.52
682.21	29109.24
682.35	28687.95
682.49	29298.83
682.62	28575.60
682.76	28655.18
682.90	28701.99
683.04	28826.04
683.17	28154.30
683.31	28016.21
683.45	28400.06
683.59	27936.63
683.72	27576.19
683.86	28018.55
684.00	27967.06
684.13	27819.61
684.27	27318.73
684.41	27367.88
684.55	27178.30
684.68	27021.48
684.82	26927.86
684.96	27054.25
685.09	26967.65
685.23	27248.52
685.37	27405.33
685.50	27166.60
685.64	27042.55
685.78	26551.04
685.91	26586.15
686.05	26171.87
686.19	25551.63
686.32	25905.05
686.46	25874.62
686.60	25453.33
686.73	25715.47
686.87	25720.15
687.01	25935.48
687.14	25631.21
687.28	25521.20
687.42	25476.73
687.55	25228.63
687.69	25167.78
687.82	25340.98
687.96	25036.71
688.10	25312.89
688.23	24797.98
688.37	25130.33
688.50	25025.01
688.64	24772.23
688.78	24570.94
688.91	24112.20
689.05	24622.44
689.18	24002.19
689.32	23798.57
689.46	23506.00
689.59	23758.78
689.73	24116.88
689.86	24044.32
690.00	23763.46
690.13	23913.25
690.27	23440.47
690.41	23557.49
690.54	23239.18
690.68	23403.02
690.81	22621.28
690.95	22885.76
691.08	23199.39
691.22	22532.34
691.35	22541.70
691.49	22815.54
691.62	22642.34
691.76	22345.09
691.89	22129.77
692.03	22178.92
692.16	22146.15
692.30	21748.26
692.43	22190.62
692.57	21713.15
692.70	21263.77
692.84	21551.65
692.97	21308.24
693.11	21245.04
693.24	21528.25
693.38	21443.99
693.51	21137.38
693.65	20751.19
693.78	20868.22
693.92	21135.04
694.05	20500.75
694.19	20498.41
694.32	21046.10
694.45	20898.64
694.59	20594.37
694.72	20613.10
694.86	20409.47
694.99	20219.89
695.13	19882.85
695.26	19901.58
695.39	19690.93
695.53	19726.04
695.66	19676.88
695.80	19651.14
695.93	19426.45
696.07	19286.01
696.20	19491.98
696.33	19061.32
696.47	18899.83
696.60	18895.14
696.73	19157.28
696.87	19316.44
697.00	19103.45
697.14	18677.48
697.27	18616.62
697.40	18546.40
697.54	18670.45
697.67	18527.68
697.80	18703.22
697.94	18347.46
698.07	18183.62
698.21	18218.73
698.34	18155.54
698.47	18061.91
698.61	17415.93
698.74	17671.04
698.87	17631.26
699.01	17235.70
699.14	17727.22
699.27	17254.43
699.40	17383.16
699.54	17165.49
699.67	17139.74
699.80	17153.79
699.94	16982.93
700.07	17249.75
700.20	17036.76
700.34	16805.05
700.47	16889.31
700.60	16926.75
700.73	16575.67
700.87	16526.52
701.00	16130.97
701.13	16259.70
701.26	16425.88
701.40	16119.27
701.53	16009.26
701.66	16088.84
701.79	16196.51
701.93	15840.75
702.06	15452.22
702.19	15660.52
702.32	16009.26
702.46	15779.89
702.59	15917.98
702.72	15843.09
702.85	15592.65
702.99	15695.63
703.12	15178.37
703.25	15140.93
703.38	14946.66
703.51	15103.48
703.65	14843.68
703.78	14600.26
703.91	14618.99
704.04	14459.83
704.17	14497.28
704.31	14373.23
704.44	14321.74
704.57	14602.60
704.70	14415.36
704.83	14036.19
704.96	14043.21
705.10	13905.12
705.23	13851.29
>>>>>End Processed Spectral Data<<<<<
