SpectraSuite Data File
++++++++++++++++++++++++++++++++++++
Date: Fri Oct 25 10:47:12 EDT 2013
User: price-jones
Dark Spectrum Present: No
Reference Spectrum Present: No
Number of Sampled Component Spectra: 1
Spectrometers: USB2+H05261
Integration Time (usec): 100000 (USB2+H05261)
Spectra Averaged: 1 (USB2+H05261)
Boxcar Smoothing: 0 (USB2+H05261)
Correct for Electrical Dark: No (USB2+H05261)
Strobe/Lamp Enabled: No (USB2+H05261)
Correct for Detector Non-linearity: No (USB2+H05261)
Correct for Stray Light: No (USB2+H05261)
Number of Pixels in Processed Spectrum: 2048
>>>>>Begin Processed Spectral Data<<<<<
365.73	147.45
365.92	147.45
366.12	147.45
366.32	117.03
366.52	11.70
366.72	9.36
366.91	0.00
367.11	56.17
367.31	46.81
367.51	81.92
367.70	30.43
367.90	65.54
368.10	0.00
368.30	37.45
368.49	63.19
368.69	65.54
368.89	16.38
369.09	88.94
369.28	81.92
369.48	72.56
369.68	42.13
369.87	102.98
370.07	250.44
370.27	175.54
370.47	149.79
370.66	381.51
370.86	395.55
371.06	421.30
371.25	428.32
371.45	395.55
371.65	449.38
371.84	458.74
372.04	461.09
372.24	421.30
372.44	477.47
372.63	456.40
372.83	461.09
373.03	433.00
373.22	526.62
373.42	594.50
373.62	479.81
373.81	580.45
374.01	498.53
374.21	594.50
374.40	503.22
374.60	566.41
374.79	578.11
374.99	507.90
375.19	496.19
375.38	564.07
375.58	507.90
375.78	650.67
375.97	592.16
376.17	657.69
376.37	580.45
376.56	559.39
376.76	592.16
376.95	606.20
377.15	608.54
377.35	615.56
377.54	613.22
377.74	615.56
377.93	606.20
378.13	566.41
378.33	606.20
378.52	599.18
378.72	599.18
378.91	615.56
379.11	631.94
379.31	617.90
379.50	566.41
379.70	671.73
379.89	653.01
380.09	685.78
380.28	662.37
380.48	697.48
380.68	648.33
380.87	650.67
381.07	730.25
381.26	660.03
381.46	641.31
381.65	589.82
381.85	678.76
382.04	702.16
382.24	695.14
382.43	620.24
382.63	660.03
382.83	671.73
383.02	784.08
383.22	763.01
383.41	725.57
383.61	634.29
383.80	667.05
384.00	690.46
384.19	704.50
384.39	734.93
384.58	690.46
384.78	676.41
384.97	821.53
385.17	763.01
385.36	765.36
385.56	767.70
385.75	704.50
385.95	772.38
386.14	809.83
386.34	741.95
386.53	770.04
386.72	751.31
386.92	882.38
387.11	786.42
387.31	858.98
387.50	786.42
387.70	861.32
387.89	828.55
388.09	763.01
388.28	835.57
388.48	791.10
388.67	777.06
388.86	793.44
389.06	861.32
389.25	926.85
389.45	875.36
389.64	866.00
389.84	919.83
390.03	964.30
390.22	835.57
390.42	856.64
390.61	802.80
390.81	896.43
391.00	884.72
391.19	968.98
391.39	917.49
391.58	912.81
391.78	1001.75
391.97	954.94
392.16	945.58
392.36	1029.84
392.55	936.21
392.75	959.62
392.94	954.94
393.13	814.51
393.33	858.98
393.52	861.32
393.71	917.49
393.91	1046.22
394.10	1041.54
394.29	1015.79
394.49	1036.86
394.68	1055.58
394.88	961.96
395.07	1057.92
395.26	1090.69
395.46	1137.50
395.65	1076.65
395.84	1109.41
396.04	1109.41
396.23	1102.39
396.42	1093.03
396.62	1097.71
396.81	1151.54
397.00	1128.14
397.19	1172.61
397.39	1214.74
397.58	1116.44
397.77	1109.41
397.97	1256.87
398.16	1268.57
398.35	1287.29
398.55	1261.55
398.74	1362.19
398.93	1380.92
399.12	1294.32
399.32	1294.32
399.51	1303.68
399.70	1322.40
399.90	1343.47
400.09	1282.61
400.28	1404.32
400.47	1296.66
400.67	1338.79
400.86	1521.35
401.05	1376.24
401.24	1397.30
401.44	1359.85
401.63	1476.88
401.82	1460.49
402.01	1425.39
402.21	1432.41
402.40	1542.41
402.59	1535.39
402.78	1474.54
402.97	1586.88
403.17	1626.67
403.36	1500.28
403.55	1603.27
403.74	1600.93
403.93	1598.59
404.13	1636.03
404.32	1497.94
404.51	1610.29
404.70	1617.31
404.89	1631.35
405.09	1692.21
405.28	1509.65
405.47	1654.76
405.66	1675.82
405.85	1675.82
406.05	1736.68
406.24	1755.40
406.43	1666.46
406.62	1703.91
406.81	1713.27
407.00	1692.21
407.20	1839.66
407.39	1757.74
407.58	1804.55
407.77	1792.85
407.96	1909.88
408.15	1916.90
408.34	1858.39
408.54	2005.84
408.73	1867.75
408.92	1940.30
409.11	2047.97
409.30	2059.67
409.49	1914.56
409.68	2029.24
409.87	1989.46
410.07	2012.86
410.26	2040.95
410.45	2054.99
410.64	2062.01
410.83	1987.11
411.02	2141.59
411.21	2118.18
411.40	2160.31
411.59	2249.25
411.78	2207.13
411.98	2298.41
412.17	2209.47
412.36	2305.43
412.55	2342.88
412.74	2438.84
412.93	2459.90
413.12	2244.57
413.31	2473.95
413.50	2401.39
413.69	2490.33
413.88	2523.10
414.07	2506.71
414.26	2469.27
414.45	2537.14
414.64	2619.06
414.83	2633.10
415.02	2607.36
415.22	2656.51
415.41	2621.40
415.60	2675.23
415.79	2761.83
415.98	2773.53
416.17	2942.05
416.36	2698.64
416.55	2820.35
416.74	2719.70
416.93	2796.94
417.12	2895.24
417.31	2977.16
417.50	2967.80
417.69	3038.02
417.88	2986.52
418.07	2853.11
418.26	3084.83
418.45	3042.70
418.64	3038.02
418.83	3166.74
419.02	3162.06
419.21	3094.19
419.39	2986.52
419.58	3047.38
419.77	3023.97
419.96	3236.96
420.15	3148.02
420.34	3152.70
420.53	3141.00
420.72	3251.00
420.91	3234.62
421.10	3302.50
421.29	3421.86
421.48	3281.43
421.67	3419.52
421.86	3410.16
422.05	3241.64
422.24	3363.35
422.43	3438.25
422.61	3276.75
422.80	3316.54
422.99	3503.78
423.18	3506.12
423.37	3492.08
423.56	3499.10
423.75	3342.28
423.94	3379.73
424.13	3199.51
424.32	3417.18
424.50	3534.21
424.69	3592.72
424.88	3571.66
425.07	3456.97
425.26	3368.03
425.45	3431.23
425.64	3386.76
425.83	3534.21
426.01	3522.51
426.20	3499.10
426.39	3550.59
426.58	3550.59
426.77	3447.61
426.96	3377.39
427.15	3576.34
427.33	3536.55
427.52	3592.72
427.71	3604.42
427.90	3686.34
428.09	3588.04
428.28	3700.39
428.46	3634.85
428.65	3662.94
428.84	3765.92
429.03	3880.61
429.22	3576.34
429.40	3740.18
429.59	3705.07
429.78	3653.58
429.97	3726.13
430.16	3775.28
430.34	3719.11
430.53	3899.33
430.72	3810.39
430.91	3796.35
431.10	3899.33
431.28	3946.14
431.47	4032.74
431.66	3885.29
431.85	4011.68
432.03	4112.32
432.22	4196.58
432.41	4084.23
432.60	4039.76
432.79	4077.21
432.97	4149.77
433.16	4308.93
433.35	4264.46
433.54	4159.13
433.72	4292.54
433.91	4138.07
434.10	4084.23
434.28	4187.22
434.47	4210.62
434.66	4339.35
434.85	4421.27
435.03	4299.56
435.22	4329.99
435.41	4440.00
435.59	4528.94
435.78	4477.44
435.97	4463.40
436.16	4559.36
436.34	4493.83
436.53	4524.26
436.72	4594.47
436.90	4388.50
437.09	4535.96
437.28	4589.79
437.46	4554.68
437.65	4559.36
437.84	4542.98
438.02	4671.71
438.21	4631.92
438.40	4622.56
438.58	4788.74
438.77	4760.65
438.96	4851.93
439.14	4861.29
439.33	4664.69
439.52	4915.12
439.70	4938.53
439.89	4968.96
440.08	5174.92
440.26	5067.26
440.45	5123.43
440.63	5046.20
440.82	5055.56
441.01	5181.95
441.19	5308.34
441.38	5228.76
441.57	5240.46
441.75	5488.56
441.94	5467.49
442.12	5446.43
442.31	5624.31
442.50	5378.55
442.68	5516.64
442.87	5500.26
443.05	5657.07
443.24	5638.35
443.43	5687.50
443.61	5650.05
443.80	5809.21
443.98	5556.43
444.17	5434.72
444.35	5715.59
444.54	5650.05
444.73	5722.61
444.91	5724.95
445.10	5703.89
445.28	5825.59
445.47	5856.02
445.65	5645.37
445.84	5731.97
446.02	5895.81
446.21	5720.27
446.39	5734.31
446.58	5856.02
446.77	5895.81
446.95	5767.08
447.14	5760.06
447.32	5919.21
447.51	5973.05
447.69	5750.70
447.88	5860.70
448.06	5926.24
448.25	5870.06
448.43	6010.50
448.62	5902.83
448.80	5818.57
448.99	5898.15
449.17	6092.41
449.36	5849.00
449.54	6108.80
449.73	6132.20
449.91	6127.52
450.10	6253.91
450.28	6328.81
450.46	6216.46
450.65	6120.50
450.83	6127.52
451.02	6125.18
451.20	6286.68
451.39	6457.54
451.57	6469.24
451.76	6354.55
451.94	6176.67
452.13	6267.95
452.31	6307.74
452.49	6179.01
452.68	6338.17
452.86	6274.98
453.05	6345.19
453.23	6492.65
453.42	6272.64
453.60	6345.19
453.78	6413.07
453.97	6399.02
454.15	6574.56
454.34	6738.40
454.52	6616.69
454.70	6675.21
454.89	6597.97
455.07	6703.29
455.26	6794.58
455.44	6764.15
455.62	7002.88
455.81	6867.13
455.99	6839.05
456.17	6829.68
456.36	6836.70
456.54	6942.03
456.73	7005.22
456.91	7112.89
457.09	7089.48
457.28	7255.66
457.46	7089.48
457.64	7187.79
457.83	7178.42
458.01	6986.50
458.19	7321.20
458.38	7094.16
458.56	7250.98
458.74	7197.15
458.93	7194.81
459.11	7225.23
459.29	7403.11
459.48	7550.57
459.66	7363.33
459.84	7445.24
460.03	7370.35
460.21	7588.02
460.39	7529.50
460.57	7379.71
460.76	7377.37
460.94	7513.12
461.12	7513.12
461.31	7611.42
461.49	7536.52
461.67	7564.61
461.85	7801.01
462.04	7695.68
462.22	8107.62
462.40	7946.12
462.59	7836.11
462.77	7882.92
462.95	7829.09
463.13	7932.08
463.32	8011.65
463.50	7906.33
463.68	7927.39
463.86	7962.50
464.05	7887.61
464.23	7999.95
464.41	7981.23
464.59	7843.14
464.78	8088.89
464.96	8149.75
465.14	8280.82
465.32	8109.96
465.50	8063.15
465.69	8266.77
465.87	8332.31
466.05	8234.00
466.23	8112.30
466.41	8222.30
466.60	8500.83
466.78	8266.77
466.96	8147.40
467.14	8161.45
467.32	8264.43
467.51	8437.63
467.69	8060.80
467.87	8290.18
468.05	8540.61
468.23	8477.42
468.41	8386.14
468.60	8599.13
468.78	8456.36
468.96	8482.10
469.14	8650.62
469.32	8519.55
469.50	8493.80
469.69	8667.00
469.87	8720.84
470.05	8872.97
470.23	8713.81
470.41	8718.50
470.59	8716.16
470.77	8849.57
470.95	9053.19
471.14	9071.92
471.32	8664.66
471.50	9247.46
471.68	8952.55
471.86	9207.67
472.04	9184.26
472.22	9476.83
472.40	8945.53
472.58	9270.86
472.77	9224.05
472.95	9467.47
473.13	9582.15
473.31	9163.20
473.49	9275.54
473.67	9558.75
473.85	9296.61
474.03	9743.65
474.21	9790.46
474.39	9827.91
474.57	9701.52
474.75	10097.07
474.93	10017.49
475.12	9806.84
475.30	9900.47
475.48	9790.46
475.66	10003.45
475.84	9928.55
476.02	10115.80
476.20	10160.27
476.38	10375.59
476.56	10609.65
476.74	10307.72
476.92	10462.19
477.10	10700.93
477.28	10911.58
477.46	10590.92
477.64	10942.00
477.82	10918.60
478.00	11276.70
478.18	11257.98
478.36	11220.53
478.54	11391.39
478.72	11466.28
478.90	11433.52
479.08	11557.57
479.26	11618.42
479.44	11784.60
479.62	11735.45
479.80	11948.43
479.98	11957.80
480.16	12418.88
480.34	12035.03
480.52	12217.60
480.70	12297.17
480.88	12128.66
481.06	12479.74
481.24	12540.59
481.41	12564.00
481.59	12685.70
481.77	13004.02
481.95	12908.05
482.13	13055.51
482.31	13111.68
482.49	13256.79
482.67	13483.83
482.85	13767.03
483.03	13635.96
483.21	13802.14
483.39	13626.60
483.57	13547.02
483.74	13647.66
483.92	14019.81
484.10	13963.64
484.28	14146.20
484.46	14457.49
484.64	14569.83
484.82	14593.24
485.00	14436.42
485.18	15007.52
485.35	14775.80
485.53	14956.02
485.71	15066.03
485.89	15000.49
486.07	14949.00
486.25	15150.29
486.43	15213.48
486.61	15442.85
486.78	15683.93
486.96	15590.31
487.14	15840.75
487.32	15927.35
487.50	15950.75
487.68	16119.27
487.85	16690.36
488.03	16776.96
488.21	17158.47
488.39	16669.30
488.57	16884.62
488.75	17032.08
488.92	17277.83
489.10	17205.28
489.28	17458.06
489.46	17462.74
489.64	17649.98
489.81	17809.14
489.99	18136.81
490.17	18033.83
490.35	18518.32
490.53	18235.11
490.70	18630.66
490.88	18588.53
491.06	18911.53
491.24	18651.73
491.41	18890.46
491.59	18904.51
491.77	18927.91
491.95	19054.30
492.13	19183.03
492.30	19531.77
492.48	19524.75
492.66	19990.52
492.84	19700.29
493.01	19969.45
493.19	20060.73
493.37	20643.52
493.54	20070.09
493.72	20397.77
493.90	20304.15
494.08	20692.68
494.25	20889.28
494.43	21170.15
494.61	20985.24
494.79	21099.93
494.96	20903.32
495.14	21156.10
495.32	21221.64
495.49	21598.46
495.67	21745.92
495.85	21703.79
496.02	21874.65
496.20	21912.10
496.38	21972.95
496.55	21994.01
496.73	22721.92
496.91	22424.67
497.09	22487.87
497.26	22824.90
497.44	22902.14
497.62	22806.18
497.79	22881.08
497.97	22874.06
498.14	23339.82
498.32	23239.18
498.50	23545.79
498.67	23508.34
498.85	23562.17
499.03	23417.06
499.20	23838.36
499.38	23913.25
499.56	23817.29
499.73	24416.47
499.91	24180.07
500.08	24261.99
500.26	24144.97
500.44	24329.87
500.61	24247.95
500.79	24187.10
500.97	24542.86
501.14	24767.55
501.32	25097.56
501.49	25139.69
501.67	24720.74
501.84	25397.15
502.02	24821.38
502.20	25013.31
502.37	25481.41
502.55	25373.75
502.72	25490.77
502.90	25497.80
503.07	25633.55
503.25	25837.17
503.43	25656.95
503.60	25666.31
503.78	25930.80
503.95	26078.25
504.13	25954.20
504.30	26419.97
504.48	26005.69
504.65	26148.46
504.83	26647.00
505.01	26583.80
505.18	26197.62
505.36	26511.25
505.53	26497.20
505.71	26792.11
505.88	27222.77
506.06	26768.71
506.23	26951.27
506.41	26958.29
506.58	26759.34
506.76	27091.70
506.93	27000.42
507.11	27257.88
507.28	27665.13
507.46	27398.31
507.63	27651.09
507.81	27658.11
507.98	27929.61
508.16	28065.36
508.33	27878.12
508.50	28299.42
508.68	28147.28
508.85	28503.04
509.03	28498.36
509.20	28409.42
509.38	28613.05
509.55	28528.79
509.73	28779.23
509.90	28762.84
510.08	28601.35
510.25	28772.21
510.42	29427.56
510.60	29184.14
510.77	29406.49
510.95	29249.67
511.12	29106.90
511.30	29404.15
511.47	29465.00
511.64	29820.77
511.82	29673.31
511.99	29542.24
512.17	29886.30
512.34	29427.56
512.51	29989.28
512.69	30249.08
512.86	30019.71
513.04	29944.81
513.21	30085.25
513.38	30429.30
513.56	30127.38
513.73	30321.64
513.90	30731.23
514.08	30654.00
514.25	30843.58
514.43	30312.28
514.60	30717.19
514.77	30555.69
514.95	31007.42
515.12	30958.27
515.29	31087.00
515.47	31660.43
515.64	31220.41
515.81	31030.82
515.99	31222.75
516.16	31653.40
516.33	31150.19
516.51	31440.42
516.68	31473.18
516.85	31468.50
517.03	31529.36
517.20	31611.28
517.37	31765.75
517.54	31683.83
517.72	32041.93
517.89	31875.76
518.06	31814.90
518.24	32016.19
518.41	32039.59
518.58	31943.63
518.75	32292.37
518.93	32570.90
519.10	32297.05
519.27	32285.35
519.45	32491.32
519.62	32598.98
519.79	32402.38
519.96	32924.32
520.14	32854.10
520.31	32662.18
520.48	32919.63
520.65	33294.12
520.83	33537.54
521.00	33130.28
521.17	33354.97
521.34	33170.07
521.52	33244.97
521.69	33551.58
521.86	33694.35
522.03	33773.93
522.20	33926.07
522.38	33607.75
522.55	33893.30
522.72	33661.58
522.89	34117.99
523.07	33708.40
523.24	33486.04
523.41	34265.44
523.58	34237.36
523.75	34754.61
523.92	34323.96
524.10	34604.82
524.27	34419.92
524.44	34630.57
524.61	34466.73
524.78	34658.65
524.96	34782.70
525.13	34759.30
525.30	35208.68
525.47	34951.22
525.64	34808.45
525.81	35278.89
525.98	35117.40
526.16	35484.86
526.33	34852.92
526.50	35377.20
526.67	35201.66
526.84	35316.34
527.01	35344.43
527.18	35384.22
527.36	35784.45
527.53	35606.57
527.70	36018.50
527.87	35835.94
528.04	35583.16
528.21	36044.25
528.38	35875.73
528.55	36137.87
528.72	35676.79
528.89	36421.08
529.07	35885.09
529.24	35959.99
529.41	35950.63
529.58	36151.91
529.75	36278.30
529.92	36542.78
530.09	36477.25
530.26	36708.96
530.43	36395.33
530.60	36112.13
530.77	36620.02
530.94	36893.86
531.11	36573.21
531.28	36676.19
531.46	36903.23
531.63	36905.57
531.80	36877.48
531.97	37031.96
532.14	37294.10
532.31	36790.88
532.48	37031.96
532.65	37368.99
532.82	37085.79
532.99	37273.03
533.16	37029.62
533.33	37003.87
533.50	37495.38
533.67	37240.26
533.84	37235.58
534.01	37649.86
534.18	37514.11
534.35	38010.30
534.52	37731.78
534.69	37904.98
534.86	37862.85
535.03	37521.13
535.20	38033.71
535.37	37951.79
535.54	38267.76
535.71	37921.36
535.88	37897.95
536.05	38068.81
536.22	38110.94
536.38	38431.60
536.55	38064.13
536.72	37907.32
536.89	38253.72
537.06	38249.03
537.23	38806.08
537.40	38368.40
537.57	38349.68
537.74	38426.92
537.91	38983.96
538.08	38782.68
538.25	38609.48
538.42	38274.78
538.59	38923.11
538.75	38565.01
538.92	38944.17
539.09	38775.66
539.26	39005.03
539.43	38625.86
539.60	38916.09
539.77	38913.75
539.94	39154.82
540.11	39030.77
540.28	38738.21
540.44	38920.77
540.61	39061.20
540.78	39260.15
540.95	38918.43
541.12	38906.73
541.29	38742.89
541.46	39276.53
541.62	39470.79
541.79	39400.58
541.96	39295.25
542.13	39206.31
542.30	39922.52
542.47	39842.94
542.63	39679.10
542.80	40027.84
542.97	39899.11
543.14	40383.60
543.31	40161.25
543.48	39831.24
543.64	40928.95
543.81	40357.86
543.98	40554.46
544.15	39800.81
544.32	40488.93
544.48	40502.97
544.65	40179.98
544.82	40746.39
544.99	40399.99
545.16	40563.82
545.32	39908.47
545.49	40877.46
545.66	40708.94
545.83	40505.31
546.00	40636.38
546.16	40865.75
546.33	40484.25
546.50	40570.85
546.67	40973.42
546.83	40348.50
547.00	40762.77
547.17	40957.03
547.34	40755.75
547.50	40858.73
547.67	40870.43
547.84	41127.89
548.00	41469.61
548.17	41181.73
548.34	41155.98
548.51	41762.18
548.67	41502.38
548.84	40950.01
549.01	40910.22
549.18	41338.54
549.34	41818.35
549.51	41317.48
549.68	41661.54
549.84	41429.82
550.01	41834.74
550.18	41186.41
550.34	41642.81
550.51	41146.62
550.68	41654.51
550.84	41223.86
551.01	41926.02
551.18	41710.69
551.34	41797.29
551.51	41778.56
551.68	41996.23
551.84	42007.94
552.01	41780.90
552.18	42064.11
552.34	41591.32
552.51	41888.57
552.68	42260.71
552.84	42340.29
553.01	42197.52
553.18	42141.35
553.34	41862.82
553.51	42005.59
553.67	42263.05
553.84	42321.57
554.01	42522.85
554.17	42834.14
554.34	42466.68
554.51	42784.99
554.67	42518.17
554.84	43000.32
555.00	42396.46
555.17	42134.32
555.33	42895.00
555.50	42234.97
555.67	42419.87
555.83	42616.47
556.00	42866.91
556.16	43161.82
556.33	42836.48
556.50	42564.98
556.66	42993.30
556.83	42784.99
556.99	42768.61
557.16	42848.19
557.32	42777.97
557.49	42763.93
557.65	42590.73
557.82	42822.44
557.98	42529.87
558.15	42768.61
558.32	42733.50
558.48	42789.67
558.65	43157.14
558.81	43203.95
558.98	43040.11
559.14	43203.95
559.31	43047.13
559.47	42923.08
559.64	43370.13
559.80	43459.07
559.97	43505.88
560.13	42941.81
560.30	43199.27
560.46	43112.67
560.63	43147.78
560.79	43428.64
560.96	43622.90
561.12	43264.80
561.29	43438.00
561.45	43454.39
561.61	43316.29
561.78	43384.17
561.94	43110.33
562.11	43206.29
562.27	43285.87
562.44	43285.87
562.60	43430.98
562.77	43868.66
562.93	43526.94
563.10	43899.09
563.26	43152.46
563.42	43779.72
563.59	43721.21
563.75	43353.74
563.92	44020.80
564.08	43805.47
564.24	44002.07
564.41	43899.09
564.57	43030.75
564.74	43753.97
564.90	43442.68
565.07	43798.44
565.23	44093.35
565.39	43358.42
565.56	43983.35
565.72	43496.52
565.88	43730.57
566.05	43711.84
566.21	43765.68
566.38	43704.82
566.54	43173.52
566.70	44175.27
566.87	43908.45
567.03	44002.07
567.19	44013.77
567.36	44072.29
567.52	43824.19
567.68	44231.44
567.85	44009.09
568.01	43772.70
568.17	43847.60
568.34	44397.62
568.50	44608.27
568.66	43718.87
568.83	43819.51
568.99	44194.00
569.15	43496.52
569.32	44065.27
569.48	44348.47
569.64	44243.15
569.81	44023.14
569.97	44147.18
570.13	44081.65
570.30	43732.91
570.46	43718.87
570.62	43852.28
570.78	44002.07
570.95	43756.32
571.11	44133.14
571.27	44034.84
571.43	43948.24
571.60	44058.24
571.76	44215.06
571.92	43838.23
572.09	43903.77
572.25	44175.27
572.41	44079.31
572.57	44240.81
572.74	44364.85
572.90	44135.48
573.06	43995.05
573.22	43955.26
573.38	43950.58
573.55	43742.27
573.71	44683.17
573.87	44280.60
574.03	44133.14
574.20	44638.70
574.36	44149.53
574.52	44107.40
574.68	44285.28
574.84	44371.88
575.01	44247.83
575.17	43948.24
575.33	44100.37
575.49	44203.36
575.65	44533.37
575.82	44626.99
575.98	44514.65
576.14	44715.93
576.30	44374.22
576.46	44128.46
576.62	43943.56
576.79	44573.16
576.95	43686.10
577.11	44465.50
577.27	44463.16
577.43	44685.51
577.59	44378.90
577.75	44596.57
577.92	43997.39
578.08	43847.60
578.24	44051.22
578.40	44156.55
578.56	44390.60
578.72	44304.00
578.88	44493.58
579.04	44250.17
579.21	44580.18
579.37	44285.28
579.53	44107.40
579.69	44165.91
579.85	44247.83
580.01	44526.35
580.17	44287.62
580.33	44397.62
580.49	44409.32
580.65	44495.92
580.82	44528.69
580.98	44201.02
581.14	44236.12
581.30	44605.93
581.46	44779.13
581.62	44470.18
581.78	44135.48
581.94	44872.75
582.10	44580.18
582.26	44570.82
582.42	44444.43
582.58	44266.55
582.74	44645.72
582.90	44612.95
583.06	44425.71
583.22	44573.16
583.38	44460.82
583.54	44491.24
583.70	44025.48
583.86	44147.18
584.02	44287.62
584.18	44229.10
584.34	44603.59
584.50	44421.03
584.66	44399.96
584.82	44601.25
584.98	44692.53
585.14	44313.36
585.30	44502.95
585.46	44208.04
585.62	44259.53
585.78	44184.63
585.94	43758.66
586.10	44631.68
586.26	44339.11
586.42	44376.56
586.58	44526.35
586.74	44634.02
586.90	44762.75
587.06	44226.76
587.22	44559.12
587.38	44374.22
587.54	44411.67
587.70	44729.98
587.86	44814.24
588.02	44561.46
588.18	44877.43
588.34	44533.37
588.49	44355.49
588.65	44320.38
588.81	43934.20
588.97	44711.25
589.13	44449.11
589.29	44332.09
589.45	44774.45
589.61	44725.30
589.77	44657.42
589.93	44626.99
590.08	44882.11
590.24	44472.52
590.40	44879.77
590.56	45022.54
590.72	44524.01
590.88	44811.90
591.04	45010.84
591.20	44975.73
591.35	44964.03
591.51	45179.36
591.67	44886.79
591.83	44708.91
591.99	44545.08
592.15	44622.31
592.31	44701.89
592.46	44690.19
592.62	44917.22
592.78	44692.53
592.94	44875.09
593.10	44786.15
593.26	44844.66
593.41	44655.08
593.57	44531.03
593.73	44907.86
593.89	45052.97
594.05	44451.45
594.20	44875.09
594.36	44992.12
594.52	44734.66
594.68	45151.27
594.84	44769.77
594.99	45125.53
595.15	44931.26
595.31	45155.96
595.47	44795.51
595.62	45036.59
595.78	44748.70
595.94	44968.71
596.10	45261.28
596.25	45258.94
596.41	44942.97
596.57	44418.69
596.73	44767.43
596.88	44842.32
597.04	44849.35
597.20	44856.37
597.36	45174.68
597.51	44935.95
597.67	45059.99
597.83	45263.62
597.99	45202.77
598.14	45167.66
598.30	44957.01
598.46	44559.12
598.61	44938.29
598.77	44458.48
598.93	45064.67
599.09	44744.02
599.24	45603.00
599.40	44816.58
599.56	45174.68
599.71	44795.51
599.87	45160.64
600.03	45275.32
600.18	45081.06
600.34	45284.68
600.50	45174.68
600.65	44727.64
600.81	45455.54
600.97	45497.67
601.12	45612.36
601.28	45127.87
601.44	44755.72
601.59	45301.07
601.75	44348.47
601.91	45071.70
602.06	44800.19
602.22	45045.95
602.37	44912.54
602.53	44844.66
602.69	45500.01
602.84	44870.41
603.00	44966.37
603.16	44861.05
603.31	44737.00
603.47	44514.65
603.62	44774.45
603.78	45062.33
603.94	44729.98
604.09	45333.84
604.25	45289.37
604.40	45038.93
604.56	44917.22
604.71	44552.10
604.87	44676.15
605.03	44849.35
605.18	45064.67
605.34	44659.76
605.49	44542.74
605.65	45294.05
605.80	44980.42
605.96	44828.28
606.12	44568.48
606.27	44968.71
606.43	44690.19
606.58	45219.15
606.74	44928.92
606.89	44701.89
607.05	44837.64
607.20	44830.62
607.36	44800.19
607.51	44832.96
607.67	44795.51
607.82	45003.82
607.98	44959.35
608.13	44636.36
608.29	44629.34
608.44	44020.80
608.60	44156.55
608.75	44816.58
608.91	44411.67
609.06	44294.64
609.22	45085.74
609.37	44477.20
609.53	44470.18
609.68	44605.93
609.84	45148.93
609.99	44636.36
610.15	44748.70
610.30	44524.01
610.46	44027.82
610.61	44737.00
610.76	44397.62
610.92	44444.43
611.07	44610.61
611.23	44002.07
611.38	44327.41
611.54	44266.55
611.69	44364.85
611.84	44552.10
612.00	44292.30
612.15	43992.71
612.31	44591.89
612.46	44107.40
612.62	44201.02
612.77	44116.76
612.92	43981.01
613.08	43957.60
613.23	44498.26
613.39	44034.84
613.54	43938.88
613.69	43849.94
613.85	44229.10
614.00	44414.01
614.15	44250.17
614.31	44423.37
614.46	44566.14
614.62	44416.35
614.77	43941.22
614.92	43416.94
615.08	43587.80
615.23	43981.01
615.38	44123.78
615.54	43552.69
615.69	43328.00
615.84	43702.48
616.00	43901.43
616.15	43768.02
616.30	43847.60
616.46	43398.21
616.61	43353.74
616.76	43550.35
616.92	43487.15
617.07	43227.35
617.22	42925.42
617.37	43578.43
617.53	43871.00
617.68	43861.64
617.83	43910.79
617.99	44093.35
618.14	43475.45
618.29	43620.56
618.45	43194.59
618.60	43643.97
618.75	43569.07
618.90	43510.56
619.06	43679.08
619.21	43540.99
619.36	43227.35
619.51	43344.38
619.67	43124.37
619.82	42962.87
619.97	43438.00
620.12	43264.80
620.28	43026.07
620.43	43491.83
620.58	42834.14
620.73	42955.85
620.89	42649.24
621.04	43302.25
621.19	43164.16
621.34	43311.61
621.49	43122.03
621.65	43129.05
621.80	42815.42
621.95	42763.93
622.10	42749.88
622.25	43412.26
622.41	42623.50
622.56	42986.28
622.71	42925.42
622.86	42897.34
623.01	42932.45
623.16	42927.77
623.32	42815.42
623.47	42813.08
623.62	43012.02
623.77	42717.12
623.92	42677.33
624.07	42218.58
624.23	42286.46
624.38	42326.25
624.53	42433.91
624.68	42869.25
624.83	42618.81
624.98	42667.97
625.13	42415.19
625.29	42003.25
625.44	42576.69
625.59	42295.82
625.74	42059.43
625.89	41858.14
626.04	41673.24
626.19	41792.61
626.34	42480.72
626.49	42363.70
626.65	42197.52
626.80	42108.58
626.95	41886.23
627.10	42426.89
627.25	41837.08
627.40	42286.46
627.55	41832.39
627.70	41495.36
627.85	42120.28
628.00	41911.97
628.15	41794.95
628.30	41635.79
628.45	42080.49
628.60	42040.70
628.76	41916.65
628.91	41930.70
629.06	42026.66
629.21	41972.83
629.36	41319.82
629.51	41347.90
629.66	41427.48
629.81	41097.47
629.96	41205.13
630.11	41497.70
630.26	41532.81
630.41	41656.85
630.56	41523.44
630.71	41560.89
630.86	41544.51
631.01	40928.95
631.16	41111.51
631.31	40884.48
631.46	40889.16
631.61	41432.16
631.76	41476.63
631.91	41280.03
632.06	41256.62
632.21	41280.03
632.36	41078.74
632.51	41184.07
632.66	41572.60
632.81	40690.21
632.96	40987.46
633.10	40842.35
633.25	40683.19
633.40	41191.09
633.55	41184.07
633.70	41263.64
633.85	41085.76
634.00	41333.86
634.15	40950.01
634.30	40360.20
634.45	40669.15
634.60	40776.81
634.75	40409.35
634.90	40769.79
635.05	40807.24
635.19	40495.95
635.34	41193.43
635.49	40800.22
635.64	40484.25
635.79	40313.39
635.94	40879.80
636.09	40648.08
636.24	40346.15
636.39	39957.63
636.53	39969.33
636.68	39840.60
636.83	40184.66
636.98	40168.27
637.13	40240.83
637.28	40074.65
637.43	40484.25
637.57	40357.86
637.72	39983.37
637.87	40439.78
638.02	40261.90
638.17	39936.56
638.32	39831.24
638.46	39885.07
638.61	40123.80
638.76	39910.82
638.91	39840.60
639.06	39920.18
639.20	39849.96
639.35	40369.56
639.50	40086.36
639.65	39590.16
639.80	40044.23
639.94	39398.24
640.09	39786.77
640.24	39784.43
640.39	39768.04
640.54	39840.60
640.68	39831.24
640.83	39632.29
640.98	39594.84
641.13	39655.70
641.27	39751.66
641.42	39606.55
641.57	40067.63
641.72	39578.46
641.86	39545.69
642.01	39241.42
642.16	39356.11
642.31	38752.25
642.45	39793.79
642.60	39393.56
642.75	39227.38
642.90	39206.31
643.04	39196.95
643.19	39035.45
643.34	39541.01
643.48	39150.14
643.63	39321.00
643.78	39108.01
643.93	38864.60
644.07	38567.35
644.22	38932.47
644.37	38639.90
644.51	38962.90
644.66	38796.72
644.81	39180.57
644.95	39002.69
645.10	39313.98
645.25	38927.79
645.39	39222.70
645.54	38974.60
645.69	38726.50
645.83	38438.62
645.98	38618.84
646.13	38988.64
646.27	39171.21
646.42	38630.54
646.57	38576.71
646.71	38635.22
646.86	38761.61
647.00	38761.61
647.15	38850.55
647.30	38815.44
647.44	38932.47
647.59	38132.01
647.74	38733.53
647.88	37944.76
648.03	38838.85
648.17	38618.84
648.32	38464.36
648.47	38415.21
648.61	38281.80
648.76	38328.61
648.90	38497.13
649.05	38286.48
649.20	38478.41
649.34	38384.79
649.49	38143.71
649.63	37862.85
649.78	38115.62
649.92	37991.58
650.07	38286.48
650.21	37743.48
650.36	37935.40
650.51	37993.92
650.65	38183.50
650.80	38499.47
650.94	38553.30
651.09	38396.49
651.23	37986.89
651.38	38031.36
651.52	37951.79
651.67	38164.78
651.81	37919.02
651.96	37773.91
652.10	37729.44
652.25	37778.59
652.39	37811.35
652.54	37940.08
652.68	37661.56
652.83	37706.03
652.97	37909.66
653.12	37991.58
653.26	37652.20
653.41	37322.18
653.55	37581.98
653.70	37619.43
653.84	37469.64
653.99	37944.76
654.13	37392.40
654.27	37420.48
654.42	37680.28
654.56	37694.33
654.71	37427.51
654.85	37542.19
655.00	37675.60
655.14	37113.87
655.29	36973.44
655.43	37038.98
655.57	36875.14
655.72	36879.82
655.86	37228.56
656.01	37191.11
656.15	37109.19
656.30	36666.83
656.44	36875.14
656.58	36598.96
656.73	37069.40
656.87	36746.41
657.01	37125.58
657.16	36821.31
657.30	36821.31
657.45	36538.10
657.59	36577.89
657.73	36545.12
657.88	36311.07
658.02	36437.46
658.16	36442.14
658.31	36772.16
658.45	36830.67
658.60	36540.44
658.74	36971.10
658.88	36488.95
659.03	36467.89
659.17	36816.63
659.31	36177.66
659.46	36098.08
659.60	36093.40
659.74	36261.92
659.89	36048.93
660.03	35950.63
660.17	36556.83
660.32	36212.77
660.46	36435.12
660.60	36285.33
660.74	36222.13
660.89	36044.25
661.03	35920.20
661.17	35749.34
661.32	35707.21
661.46	35426.35
661.60	35346.77
661.74	35770.41
661.89	35580.82
662.03	35426.35
662.17	35489.54
662.31	34995.69
662.46	35732.96
662.60	35754.02
662.74	35751.68
662.88	35409.96
663.03	35676.79
663.17	35564.44
663.31	34955.90
663.45	35044.84
663.60	35084.63
663.74	34941.86
663.88	34628.23
664.02	35009.73
664.17	34925.47
664.31	34511.20
664.45	34785.04
664.59	34361.40
664.73	35068.25
664.88	34967.60
665.02	34326.30
665.16	34466.73
665.30	34188.21
665.44	34494.82
665.59	34047.77
665.73	34284.17
665.87	34068.84
666.01	34597.80
666.15	34260.76
666.29	34064.16
666.44	34417.58
666.58	34174.16
666.72	34005.64
666.86	34391.83
667.00	33886.28
667.14	33787.97
667.28	34019.69
667.43	33464.98
667.57	33830.10
667.71	33869.89
667.85	33799.68
667.99	33706.05
668.13	33563.28
668.27	33308.16
668.41	33427.53
668.56	33125.60
668.70	33380.72
668.84	33242.63
668.98	32947.72
669.12	32931.34
669.26	33088.15
669.40	33116.24
669.54	32697.28
669.68	32861.12
669.82	32868.14
669.96	33369.02
670.10	32322.80
670.25	32711.33
670.39	33041.34
670.53	32690.26
670.67	32797.93
670.81	32676.22
670.95	32692.60
671.09	32673.88
671.23	32161.30
671.37	32615.37
671.51	32046.62
671.65	32046.62
671.79	32119.17
671.93	31765.75
672.07	31971.72
672.21	32018.53
672.35	31885.12
672.49	31786.82
672.63	31917.89
672.77	31611.28
672.91	31637.02
673.05	31335.09
673.19	31318.71
673.33	31489.57
673.47	31129.12
673.61	31124.44
673.75	31358.50
673.89	31030.82
674.03	30693.79
674.17	30616.55
674.31	31295.30
674.45	30513.56
674.59	31269.56
674.73	31065.93
674.87	30995.71
675.01	30221.00
675.15	30831.88
675.29	30740.60
675.43	31108.06
675.56	30735.92
675.70	30279.51
675.84	30331.00
675.98	29106.90
676.12	30071.20
676.26	29879.28
676.40	29902.68
676.54	29951.84
676.68	29420.53
676.82	29275.42
676.96	29130.31
677.10	29600.76
677.23	29434.58
677.37	29284.78
677.51	29359.68
677.65	29333.93
677.79	28788.59
677.93	28994.56
678.07	29053.07
678.21	28519.43
678.34	28650.50
678.48	28343.89
678.62	28573.26
678.76	28549.85
678.90	28432.83
679.04	28388.36
679.18	28610.71
679.31	27864.08
679.45	27946.00
679.59	27541.08
679.73	27810.25
679.87	27775.14
680.00	27807.90
680.14	27489.59
680.28	27323.41
680.42	26916.16
680.56	27747.05
680.70	27372.57
680.83	27213.41
680.97	26834.24
681.11	26967.65
681.25	26583.80
681.39	26850.63
681.52	26920.84
681.66	26789.77
681.80	26632.96
681.94	26625.93
682.07	26363.79
682.21	26314.64
682.35	25998.67
682.49	26183.57
682.62	26251.45
682.76	26085.27
682.90	25965.90
683.04	25734.19
683.17	26174.21
683.31	25621.84
683.45	25766.96
683.59	25879.30
683.72	25357.36
683.86	25352.68
684.00	24992.24
684.13	25029.69
684.27	25280.13
684.41	24978.20
684.55	25008.62
684.68	24746.48
684.82	25062.46
684.96	24758.19
685.09	24449.24
685.23	24540.52
685.37	24643.50
685.50	24498.39
685.64	24346.25
685.78	24067.73
685.91	24257.31
686.05	23885.17
686.19	23555.15
686.32	24063.05
686.46	23611.32
686.60	23702.61
686.73	23571.54
686.87	23337.48
687.01	23276.63
687.14	23164.28
687.28	22986.40
687.42	23185.35
687.55	22960.66
687.69	22979.38
687.82	22852.99
687.96	22551.06
688.10	22485.53
688.23	22490.21
688.37	22204.66
688.50	22164.87
688.64	22251.47
688.78	22167.21
688.91	22204.66
689.05	22150.83
689.18	22263.18
689.32	21486.12
689.46	21996.35
689.59	22295.94
689.73	22064.23
689.86	21708.47
690.00	21584.42
690.13	21750.60
690.27	21504.84
690.41	21378.45
690.54	20952.48
690.68	20889.28
690.81	21263.77
690.95	21060.14
691.08	20945.45
691.22	20652.89
691.35	20908.01
691.49	21013.33
691.62	21111.63
691.76	20765.23
691.89	20341.60
692.03	20482.03
692.16	20128.61
692.30	20247.97
692.43	20229.25
692.57	20161.37
692.70	20114.56
692.84	20009.24
692.97	19908.60
693.11	19494.32
693.24	19585.60
693.38	19506.02
693.51	19871.15
693.65	19644.12
693.78	19381.98
693.92	19630.07
694.05	19489.64
694.19	19332.82
694.32	19159.63
694.45	19316.44
694.59	18986.43
694.72	18956.00
694.86	18750.03
694.99	18923.23
695.13	18640.03
695.26	18321.71
695.39	18361.50
695.53	18272.56
695.66	18305.33
695.80	18338.10
695.93	17750.62
696.07	18108.72
696.20	17930.84
696.33	18277.24
696.47	17914.46
696.60	17907.44
696.73	17919.14
696.87	17879.35
697.00	17914.46
697.14	17429.97
697.27	17811.48
697.40	17783.39
697.54	17387.84
697.67	17294.22
697.80	17317.62
697.94	17404.22
698.07	17137.40
698.21	16992.29
698.34	16968.88
698.47	16945.48
698.61	16615.46
698.74	16774.62
698.87	16306.51
699.01	16622.48
699.14	16343.96
699.27	16194.17
699.40	16130.97
699.54	16107.57
699.67	15974.16
699.80	16208.21
699.94	16198.85
700.07	15864.15
700.20	15777.55
700.34	15693.29
700.47	15878.19
700.60	15733.08
700.73	15896.92
700.87	15637.12
701.00	15391.36
701.13	15704.99
701.26	15529.45
701.40	15527.11
701.53	15087.09
701.66	15288.38
701.79	15173.69
701.93	14869.42
702.06	14951.34
702.19	14890.49
702.32	14883.47
702.46	14724.31
702.59	14862.40
702.72	14925.60
702.85	14831.97
702.99	14677.50
703.12	14595.58
703.25	14394.29
703.38	14157.90
703.51	14443.45
703.65	14480.89
703.78	14232.80
703.91	14171.94
704.04	13980.02
704.17	14078.32
704.31	13961.30
704.44	13755.33
704.57	13813.84
704.70	13582.13
704.83	13469.78
704.96	13717.88
705.10	13963.64
705.23	13907.46
>>>>>End Processed Spectral Data<<<<<
