SpectraSuite Data File
++++++++++++++++++++++++++++++++++++
Date: Fri Oct 25 11:34:29 EDT 2013
User: price-jones
Dark Spectrum Present: No
Reference Spectrum Present: No
Number of Sampled Component Spectra: 1
Spectrometers: USB2+H05261
Integration Time (usec): 100000 (USB2+H05261)
Spectra Averaged: 1 (USB2+H05261)
Boxcar Smoothing: 0 (USB2+H05261)
Correct for Electrical Dark: No (USB2+H05261)
Strobe/Lamp Enabled: No (USB2+H05261)
Correct for Detector Non-linearity: No (USB2+H05261)
Correct for Stray Light: No (USB2+H05261)
Number of Pixels in Processed Spectrum: 2048
>>>>>Begin Processed Spectral Data<<<<<
365.73	257.46
365.92	257.46
366.12	257.46
366.32	262.14
366.52	189.58
366.72	205.97
366.91	180.22
367.11	227.03
367.31	149.79
367.51	187.24
367.70	126.39
367.90	224.69
368.10	203.63
368.30	177.88
368.49	203.63
368.69	175.54
368.89	196.60
369.09	231.71
369.28	196.60
369.48	257.46
369.68	280.86
369.87	231.71
370.07	278.52
370.27	304.27
370.47	348.74
370.66	503.22
370.86	444.70
371.06	545.34
371.25	543.00
371.45	557.05
371.65	575.77
371.84	552.37
372.04	543.00
372.24	557.05
372.44	582.79
372.63	596.84
372.83	564.07
373.03	582.79
373.22	566.41
373.42	622.58
373.62	660.03
373.81	638.97
374.01	648.33
374.21	585.13
374.40	657.69
374.60	603.86
374.79	531.30
374.99	660.03
375.19	662.37
375.38	718.54
375.58	617.90
375.78	678.76
375.97	706.84
376.17	690.46
376.37	634.29
376.56	725.57
376.76	636.63
376.95	678.76
377.15	692.80
377.35	732.59
377.54	704.50
377.74	650.67
377.93	594.50
378.13	631.94
378.33	699.82
378.52	688.12
378.72	702.16
378.91	739.61
379.11	753.65
379.31	725.57
379.50	662.37
379.70	676.41
379.89	704.50
380.09	643.65
380.28	704.50
380.48	723.23
380.68	685.78
380.87	725.57
381.07	734.93
381.26	704.50
381.46	791.10
381.65	816.85
381.85	760.67
382.04	695.14
382.24	784.08
382.43	812.17
382.63	823.87
382.83	723.23
383.02	725.57
383.22	748.97
383.41	835.57
383.61	786.42
383.80	800.46
384.00	791.10
384.19	866.00
384.39	777.06
384.58	760.67
384.78	851.96
384.97	842.59
385.17	795.78
385.36	798.12
385.56	844.93
385.75	816.85
385.95	873.02
386.14	861.32
386.34	807.48
386.53	814.51
386.72	870.68
386.92	903.45
387.11	844.93
387.31	858.98
387.50	828.55
387.70	863.66
387.89	873.02
388.09	915.15
388.28	873.02
388.48	873.02
388.67	945.58
388.86	952.60
389.06	919.83
389.25	891.74
389.45	854.30
389.64	896.43
389.84	957.28
390.03	976.00
390.22	912.81
390.42	959.62
390.61	931.53
390.81	922.17
391.00	1011.11
391.19	889.40
391.39	968.98
391.58	994.73
391.78	1020.47
391.97	994.73
392.16	997.07
392.36	1022.81
392.55	1095.37
392.75	1015.79
392.94	1006.43
393.13	1088.35
393.33	1022.81
393.52	1029.84
393.71	1018.13
393.91	1046.22
394.10	1121.12
394.29	1039.20
394.49	1132.82
394.68	1067.28
394.88	1095.37
395.07	1165.59
395.26	1104.73
395.46	1165.59
395.65	1144.52
395.84	1083.67
396.04	1174.95
396.23	1114.10
396.42	1188.99
396.62	1217.08
396.81	1177.29
397.00	1163.25
397.19	1163.25
397.39	1207.72
397.58	1210.06
397.77	1093.03
397.97	1254.53
398.16	1193.67
398.35	1247.51
398.55	1254.53
398.74	1226.44
398.93	1336.45
399.12	1322.40
399.32	1352.83
399.51	1277.93
399.70	1418.36
399.90	1252.19
400.09	1240.48
400.28	1397.30
400.47	1280.27
400.67	1362.19
400.86	1310.70
401.05	1390.28
401.24	1448.79
401.44	1495.60
401.63	1371.55
401.82	1413.68
402.01	1432.41
402.21	1540.07
402.40	1476.88
402.59	1465.18
402.78	1394.96
402.97	1519.01
403.17	1537.73
403.36	1418.36
403.55	1483.90
403.74	1507.30
403.93	1516.67
404.13	1502.62
404.32	1675.82
404.51	1427.73
404.70	1530.71
404.89	1586.88
405.09	1605.61
405.28	1629.01
405.47	1565.82
405.66	1605.61
405.85	1682.85
406.05	1610.29
406.24	1753.06
406.43	1631.35
406.62	1778.81
406.81	1631.35
407.00	1764.76
407.20	1666.46
407.39	1678.16
407.58	1713.27
407.77	1741.36
407.96	1888.81
408.15	1942.64
408.34	1734.34
408.54	1874.77
408.73	1783.49
408.92	1886.47
409.11	1881.79
409.30	1944.99
409.49	1884.13
409.68	1982.43
409.87	1914.56
410.07	1881.79
410.26	1973.07
410.45	1989.46
410.64	2026.90
410.83	2043.29
411.02	2101.80
411.21	2076.06
411.40	1975.41
411.59	2066.69
411.78	2071.37
411.98	2115.84
412.17	2160.31
412.36	2078.40
412.55	2242.23
412.74	2406.07
412.93	2258.62
413.12	2251.60
413.31	2251.60
413.50	2314.79
413.69	2200.10
413.88	2352.24
414.07	2361.60
414.26	2427.14
414.45	2443.52
414.64	2420.11
414.83	2534.80
415.02	2487.99
415.22	2476.29
415.41	2471.61
415.60	2525.44
415.79	2558.21
415.98	2738.43
416.17	2576.93
416.36	2724.38
416.55	2656.51
416.74	2700.98
416.93	2712.68
417.12	2757.15
417.31	2698.64
417.50	2740.77
417.69	2799.28
417.88	2836.73
418.07	2860.13
418.26	2857.79
418.45	2897.58
418.64	2860.13
418.83	3009.93
419.02	2899.92
419.21	3066.10
419.39	2956.10
419.58	2988.86
419.77	2902.26
419.96	3115.25
420.15	2979.50
420.34	3096.53
420.53	3110.57
420.72	3101.21
420.91	3066.10
421.10	3129.30
421.29	3206.53
421.48	3098.87
421.67	3075.46
421.86	3131.64
422.05	3187.81
422.24	3164.40
422.43	3339.94
422.61	3206.53
422.80	3393.78
422.99	3300.16
423.18	3248.66
423.37	3375.05
423.56	3157.38
423.75	3316.54
423.94	3260.37
424.13	3052.06
424.32	3176.11
424.50	3286.11
424.69	3433.57
424.88	3410.16
425.07	3243.98
425.26	3112.91
425.45	3529.53
425.64	3262.71
425.83	3279.09
426.01	3276.75
426.20	3384.41
426.39	3300.16
426.58	3379.73
426.77	3356.33
426.96	3342.28
427.15	3513.14
427.33	3421.86
427.52	3534.21
427.71	3609.11
427.90	3417.18
428.09	3534.21
428.28	3623.15
428.46	3545.91
428.65	3454.63
428.84	3585.70
429.03	3644.21
429.22	3545.91
429.40	3531.87
429.59	3634.85
429.78	3620.81
429.97	3403.14
430.16	3592.72
430.34	3662.94
430.53	3658.26
430.72	3665.28
430.91	3620.81
431.10	3662.94
431.28	3789.33
431.47	3861.88
431.66	3880.61
431.85	3768.26
432.03	4032.74
432.22	3981.25
432.41	3843.16
432.60	3932.10
432.79	3871.25
432.97	3772.94
433.16	3908.69
433.35	3941.46
433.54	4056.15
433.72	4126.36
433.91	4149.77
434.10	3985.93
434.28	4051.47
434.47	3955.51
434.66	4140.41
434.85	4128.70
435.03	4168.49
435.22	4053.81
435.41	4217.65
435.59	4259.78
435.78	4222.33
435.97	4414.25
436.16	4215.30
436.34	4159.13
436.53	4299.56
436.72	4339.35
436.90	4264.46
437.09	4236.37
437.28	4198.92
437.46	4358.08
437.65	4327.65
437.84	4503.19
438.02	4407.23
438.21	4533.62
438.40	4315.95
438.58	4545.32
438.77	4629.58
438.96	4603.83
439.14	4739.58
439.33	4681.07
439.52	4737.24
439.70	4660.01
439.89	4744.27
440.08	4873.00
440.26	4938.53
440.45	4734.90
440.63	4999.38
440.82	5064.92
441.01	4863.63
441.19	5118.75
441.38	5118.75
441.57	5088.32
441.75	5158.54
441.94	5184.29
442.12	5245.14
442.31	5221.74
442.50	5317.70
442.68	5242.80
442.87	5205.35
443.05	5294.29
443.24	5327.06
443.43	5287.27
443.61	5303.65
443.80	5565.79
443.98	5188.97
444.17	5081.30
444.35	5434.72
444.54	5404.30
444.73	5387.91
444.91	5472.17
445.10	5497.92
445.28	5380.89
445.47	5467.49
445.65	5404.30
445.84	5404.30
446.02	5610.26
446.21	5514.30
446.39	5486.22
446.58	5348.12
446.77	5542.39
446.95	5397.28
447.14	5432.38
447.32	5509.62
447.51	5666.44
447.69	5483.88
447.88	5547.07
448.06	5521.32
448.25	5495.58
448.43	5495.58
448.62	5551.75
448.80	5551.75
448.99	5600.90
449.17	5673.46
449.36	5638.35
449.54	5834.96
449.73	5785.80
449.91	5881.77
450.10	5849.00
450.28	5940.28
450.46	5921.56
450.65	5870.06
450.83	5893.47
451.02	5879.43
451.20	5902.83
451.39	5832.62
451.57	5666.44
451.76	6090.07
451.94	5895.81
452.13	5949.64
452.31	6033.90
452.49	5989.43
452.68	6141.57
452.86	6108.80
453.05	6286.68
453.23	6200.08
453.42	6008.16
453.60	6120.50
453.78	6256.25
453.97	6157.95
454.15	5956.66
454.34	6244.55
454.52	6310.08
454.70	6218.80
454.89	6221.14
455.07	6340.51
455.26	6335.83
455.44	6406.05
455.62	6457.54
455.81	6459.88
455.99	6499.67
456.17	6434.13
456.36	6375.62
456.54	6396.68
456.73	6675.21
456.91	6736.06
457.09	6736.06
457.28	6916.28
457.46	6647.12
457.64	6806.28
457.83	6773.51
458.01	6696.27
458.19	6885.86
458.38	6827.34
458.56	6857.77
458.74	6909.26
458.93	6904.58
459.11	7129.27
459.29	6979.48
459.48	6843.73
459.66	7080.12
459.84	6972.46
460.03	7225.23
460.21	6897.56
460.39	6913.94
460.57	7152.68
460.76	7201.83
460.94	7148.00
461.12	7236.94
461.31	7112.89
461.49	6988.84
461.67	7183.10
461.85	7372.69
462.04	7199.49
462.22	7784.62
462.40	7536.52
462.59	7527.16
462.77	7267.36
462.95	7733.13
463.13	7489.71
463.32	7426.52
463.50	7658.23
463.68	7611.42
463.86	7744.83
464.05	7431.20
464.23	7555.25
464.41	7625.47
464.59	7487.37
464.78	7817.39
464.96	7768.24
465.14	7730.79
465.32	7747.17
465.50	7941.44
465.69	7857.18
465.87	7669.94
466.05	7840.79
466.23	7756.54
466.41	7955.48
466.60	7922.71
466.78	7981.23
466.96	7852.50
467.14	8156.77
467.32	7978.89
467.51	8088.89
467.69	7793.98
467.87	8072.51
468.05	7997.61
468.23	7889.95
468.41	7887.61
468.60	8156.77
468.78	8287.84
468.96	8025.70
469.14	8166.13
469.32	8241.03
469.50	8030.38
469.69	8383.80
469.87	8538.27
470.05	8409.54
470.23	8390.82
470.41	8421.25
470.59	8500.83
470.77	8540.61
470.95	8393.16
471.14	8526.57
471.32	8519.55
471.50	8688.07
471.68	8507.85
471.86	8739.56
472.04	8777.01
472.22	8821.48
472.40	8709.13
472.58	8865.95
472.77	8980.64
472.95	9004.04
473.13	9238.09
473.31	8887.01
473.49	9034.47
473.67	9144.47
473.85	9102.34
474.03	9322.35
474.21	9263.84
474.39	9411.29
474.57	9289.59
474.75	9455.76
474.93	9577.47
475.12	9523.64
475.30	9701.52
475.48	9640.67
475.66	9834.93
475.84	9795.14
476.02	9589.17
476.20	9537.68
476.38	9947.28
476.56	10202.40
476.74	10176.65
476.92	10057.28
477.10	10101.75
477.28	10209.42
477.46	10045.58
477.64	10214.10
477.82	10520.71
478.00	10850.72
478.18	10675.18
478.36	10721.99
478.54	10857.75
478.72	10759.44
478.90	10843.70
479.08	11190.10
479.26	11183.08
479.44	11185.42
479.62	11173.72
479.80	11438.20
479.98	11564.59
480.16	11550.54
480.34	11421.81
480.52	11758.85
480.70	11894.60
480.88	11779.92
481.06	11948.43
481.24	12037.38
481.41	11936.73
481.59	12229.30
481.77	12264.41
481.95	12449.31
482.13	12425.90
482.31	12294.83
482.49	12669.32
482.67	12718.47
482.85	12905.71
483.03	13027.42
483.21	13158.49
483.39	13242.75
483.57	13116.36
483.74	13280.20
483.92	13350.42
484.10	13383.18
484.28	13537.66
484.46	14033.85
484.64	13912.14
484.82	13900.44
485.00	14075.98
485.18	14300.67
485.35	14513.66
485.53	14181.31
485.71	14459.83
485.89	14979.43
486.07	14600.26
486.25	14644.73
486.43	14881.13
486.61	14991.13
486.78	15126.88
486.96	15463.92
487.14	15241.57
487.32	15335.19
487.50	15571.58
487.68	15758.83
487.85	15962.45
488.03	15943.73
488.21	16149.70
488.39	16306.51
488.57	16226.93
488.75	16451.63
488.92	16578.01
489.10	16919.73
489.28	16776.96
489.46	16664.61
489.64	17029.74
489.81	17472.10
489.99	17315.28
490.17	17425.29
490.35	17514.23
490.53	17748.28
490.70	17657.00
490.88	17741.26
491.06	18424.70
491.24	17858.29
491.41	18401.29
491.59	18394.27
491.77	18455.12
491.95	18520.66
492.13	18787.48
492.30	19056.64
492.48	18635.35
492.66	18965.36
492.84	19250.91
493.01	19274.31
493.19	19225.16
493.37	19250.91
493.54	19264.95
493.72	19967.11
493.90	19791.57
494.08	19751.78
494.25	20093.50
494.43	20095.84
494.61	19913.28
494.79	20592.03
494.96	20135.63
495.14	20493.73
495.32	20730.12
495.49	21186.53
495.67	20702.04
495.85	21074.18
496.02	21062.48
496.20	21282.49
496.38	21500.16
496.55	21460.37
496.73	21633.57
496.91	21458.03
497.09	21916.78
497.26	21881.67
497.44	21745.92
497.62	22342.75
497.79	22600.21
497.97	22480.85
498.14	22434.03
498.32	22583.83
498.50	22541.70
498.67	23068.32
498.85	22815.54
499.03	22960.66
499.20	22869.37
499.38	23309.40
499.56	23271.95
499.73	23328.12
499.91	23454.51
500.08	23616.01
500.26	23723.67
500.44	23630.05
500.61	23426.42
500.79	23744.73
500.97	23831.33
501.14	24545.20
501.32	24180.07
501.49	24360.30
501.67	24269.01
501.84	24297.10
502.02	24339.23
502.20	24713.72
502.37	24425.83
502.55	24671.59
502.72	24842.45
502.90	24788.61
503.07	24610.73
503.25	25216.93
503.43	24851.81
503.60	25270.76
503.78	25125.65
503.95	25333.96
504.13	25317.57
504.30	25493.12
504.48	25443.96
504.65	25490.77
504.83	25607.80
505.01	25642.91
505.18	25631.21
505.36	26293.58
505.53	25944.84
505.71	26157.83
505.88	25979.95
506.06	25919.09
506.23	26389.54
506.41	26202.30
506.58	26588.49
506.76	26717.22
506.93	26391.88
507.11	26911.48
507.28	26628.27
507.46	26864.67
507.63	27089.36
507.81	26829.56
507.98	26850.63
508.16	27068.30
508.33	27435.76
508.50	27637.05
508.68	27615.98
508.85	27470.87
509.03	27688.54
509.20	27868.76
509.38	28053.66
509.55	28397.72
509.73	28027.92
509.90	28037.28
510.08	28304.10
510.25	28348.57
510.42	28594.32
510.60	28367.29
510.77	28479.64
510.95	28938.38
511.12	28655.18
511.30	28732.42
511.47	28758.16
511.64	28868.17
511.82	29336.27
511.99	29380.74
512.17	29102.22
512.34	28788.59
512.51	29399.47
512.69	29556.28
512.86	29413.51
513.04	29717.78
513.21	29682.67
513.38	29832.47
513.56	29984.60
513.73	29563.31
513.90	29745.87
514.08	29757.57
514.25	30302.92
514.43	30450.37
514.60	30431.65
514.77	30206.95
514.95	30396.54
515.12	30099.29
515.29	30228.02
515.47	30555.69
515.64	30794.43
515.81	30485.48
515.99	30801.45
516.16	31335.09
516.33	31051.89
516.51	30911.46
516.68	31208.70
516.85	30806.13
517.03	31323.39
517.20	31161.89
517.37	31232.11
517.54	31316.37
517.72	31367.86
517.89	31386.58
518.06	31772.77
518.24	31388.92
518.41	31580.85
518.58	31424.03
518.75	31669.79
518.93	31845.33
519.10	32039.59
519.27	31957.67
519.45	31740.00
519.62	32055.98
519.79	32151.94
519.96	31955.33
520.14	32407.06
520.31	32205.77
520.48	32545.15
520.65	32257.26
520.83	32720.69
521.00	33371.36
521.17	32802.61
521.34	32500.68
521.52	33125.60
521.69	33076.45
521.86	33085.81
522.03	33394.76
522.20	33413.49
522.38	33495.41
522.55	33397.10
522.72	33343.27
522.89	33310.50
523.07	33652.22
523.24	33862.87
523.41	33776.27
523.58	33820.74
523.75	33567.96
523.92	33921.38
524.10	33921.38
524.27	34256.08
524.44	34157.78
524.61	34162.46
524.78	34504.18
524.96	34073.52
525.13	34651.63
525.30	34504.18
525.47	34878.66
525.64	34429.28
525.81	34508.86
525.98	34597.80
526.16	34712.49
526.33	34583.76
526.50	35044.84
526.67	34728.87
526.84	35398.26
527.01	34948.88
527.18	35143.14
527.36	34995.69
527.53	35309.32
527.70	35192.30
527.87	35414.65
528.04	35154.85
528.21	35189.95
528.38	35398.26
528.55	35763.39
528.72	35697.85
528.89	35358.47
529.07	35658.06
529.24	35452.09
529.41	35983.40
529.58	35772.75
529.75	35754.02
529.92	35859.35
530.09	36018.50
530.26	35880.41
530.43	36168.30
530.60	35782.11
530.77	35833.60
530.94	36137.87
531.11	36023.19
531.28	36280.64
531.46	36070.00
531.63	36282.98
531.80	36493.63
531.97	36332.14
532.14	36332.14
532.31	36404.69
532.48	36727.69
532.65	36886.84
532.82	37050.68
532.99	36985.15
533.16	36865.78
533.33	37223.88
533.50	37195.79
533.67	37113.87
533.84	37010.89
534.01	37467.30
534.18	37373.67
534.35	37790.29
534.52	37383.04
534.69	37619.43
534.86	37820.72
535.03	37565.60
535.20	37762.20
535.37	37589.00
535.54	38110.94
535.71	37846.46
535.88	37745.82
536.05	37460.27
536.22	38253.72
536.38	37720.07
536.55	37970.51
536.72	37879.23
536.89	38174.14
537.06	38106.26
537.23	38405.85
537.40	38080.52
537.57	38483.09
537.74	37827.74
537.91	38663.31
538.08	38976.94
538.25	38251.38
538.42	38593.09
538.59	38799.06
538.75	38712.46
538.92	38955.88
539.09	38930.13
539.26	38653.95
539.43	38902.04
539.60	38726.50
539.77	38778.00
539.94	39150.14
540.11	38803.74
540.28	39236.74
540.44	39194.61
540.61	38986.30
540.78	38944.17
540.95	38918.43
541.12	39072.90
541.29	39414.62
541.46	39388.88
541.62	39381.85
541.79	39206.31
541.96	38754.59
542.13	39321.00
542.30	39222.70
542.47	39604.20
542.63	39585.48
542.80	39629.95
542.97	40236.15
543.14	40289.98
543.31	39882.73
543.48	39920.18
543.64	40458.50
543.81	40156.57
543.98	40311.05
544.15	40102.74
544.32	40254.87
544.48	40659.79
544.65	39782.09
544.82	40313.39
544.99	40210.40
545.16	40315.73
545.32	40278.28
545.49	40907.88
545.66	40999.16
545.83	40706.60
546.00	40769.79
546.16	40931.29
546.33	40844.69
546.50	40250.19
546.67	41069.38
546.83	40407.01
547.00	40790.86
547.17	40657.45
547.34	40940.65
547.50	40961.72
547.67	40856.39
547.84	41205.13
548.00	41546.85
548.17	41024.91
548.34	41579.62
548.51	41450.89
548.67	41343.22
548.84	40975.76
549.01	41577.28
549.18	41200.45
549.34	42005.59
549.51	41581.96
549.68	41797.29
549.84	41415.78
550.01	41607.70
550.18	41762.18
550.34	41975.17
550.51	41668.56
550.68	42403.49
550.84	41703.67
551.01	41581.96
551.18	41923.68
551.34	41806.65
551.51	41830.05
551.68	41659.20
551.84	41865.16
552.01	41837.08
552.18	42295.82
552.34	42139.00
552.51	41837.08
552.68	42007.94
552.84	41624.09
553.01	42169.43
553.18	41551.53
553.34	42454.98
553.51	42213.90
553.67	42686.69
553.84	42733.50
554.01	42412.85
554.17	43131.39
554.34	42635.20
554.51	42349.65
554.67	42855.21
554.84	43044.79
555.00	42792.01
555.17	42260.71
555.33	43374.81
555.50	42948.83
555.67	42789.67
555.83	42742.86
556.00	42684.35
556.16	43667.37
556.33	43201.61
556.50	42759.25
556.66	42686.69
556.83	42997.98
556.99	42969.90
557.16	43285.87
557.32	43531.62
557.49	42909.04
557.65	42976.92
557.82	43007.34
557.98	42953.51
558.15	42927.77
558.32	43470.77
558.48	43168.84
558.65	43196.93
558.81	43297.57
558.98	43112.67
559.14	43056.50
559.31	43447.36
559.47	43147.78
559.64	43335.02
559.80	43737.59
559.97	43896.75
560.13	43484.81
560.30	43203.95
560.46	43571.41
560.63	43629.93
560.79	43435.66
560.96	43587.80
561.12	43777.38
561.29	44053.56
561.45	43772.70
561.61	43742.27
561.78	43508.22
561.94	43803.13
562.11	43433.32
562.27	43655.67
562.44	43749.29
562.60	44013.77
562.77	43826.53
562.93	43831.21
563.10	44074.63
563.26	43927.17
563.42	44364.85
563.59	43899.09
563.75	43859.30
563.92	44037.18
564.08	43959.94
564.24	44170.59
564.41	44179.95
564.57	44229.10
564.74	43938.88
564.90	44076.97
565.07	43985.69
565.23	43995.05
565.39	44371.88
565.56	44189.31
565.72	44296.98
565.88	44191.65
566.05	44425.71
566.21	44446.77
566.38	44451.45
566.54	44275.91
566.70	44308.68
566.87	44428.05
567.03	44219.74
567.19	44732.32
567.36	44605.93
567.52	44414.01
567.68	44404.64
567.85	44474.86
568.01	44690.19
568.17	44804.88
568.34	44421.03
568.50	44790.83
568.66	44816.58
568.83	44540.39
568.99	44587.21
569.15	44711.25
569.32	44278.25
569.48	44891.48
569.64	44966.37
569.81	44725.30
569.97	44971.05
570.13	45130.21
570.30	44622.31
570.46	44903.18
570.62	45024.89
570.78	44598.91
570.95	44622.31
571.11	45340.86
571.27	44769.77
571.43	44748.70
571.60	44692.53
571.76	44669.12
571.92	44870.41
572.09	44301.66
572.25	44477.20
572.41	44664.44
572.57	44830.62
572.74	45120.85
572.90	44566.14
573.06	45118.51
573.22	45186.38
573.38	45106.80
573.55	44720.62
573.71	45146.59
573.87	45116.17
574.03	44659.76
574.20	45109.14
574.36	45174.68
574.52	44980.42
574.68	45181.70
574.84	45352.56
575.01	45186.38
575.17	45179.36
575.33	44851.69
575.49	45385.33
575.65	45254.26
575.82	45263.62
575.98	44957.01
576.14	45289.37
576.30	45247.24
576.46	45088.08
576.62	44797.85
576.79	44989.78
576.95	44428.05
577.11	45462.57
577.27	44739.34
577.43	44940.63
577.59	45226.17
577.75	44814.24
577.92	45170.00
578.08	45425.12
578.24	45141.91
578.40	45326.81
578.56	45563.21
578.72	45450.86
578.88	45460.23
579.04	45146.59
579.21	45223.83
579.37	45158.30
579.53	45443.84
579.69	44905.52
579.85	44868.07
580.01	45254.26
580.17	45270.64
580.33	44903.18
580.49	45598.32
580.65	45109.14
580.82	45263.62
580.98	45148.93
581.14	45195.74
581.30	45333.84
581.46	45162.98
581.62	45251.92
581.78	45116.17
581.94	45350.22
582.10	45401.71
582.26	45537.46
582.42	45345.54
582.58	44964.03
582.74	45340.86
582.90	45467.25
583.06	45134.89
583.22	45092.76
583.38	45427.46
583.54	45387.67
583.70	45106.80
583.86	45174.68
584.02	45090.42
584.18	45457.88
584.34	45301.07
584.50	45366.60
584.66	45652.15
584.82	45434.48
584.98	45619.38
585.14	45181.70
585.30	45411.07
585.46	45450.86
585.62	45492.99
585.78	45476.61
585.94	44989.78
586.10	45869.82
586.26	45303.41
586.42	45478.95
586.58	45584.27
586.74	45394.69
586.90	45364.26
587.06	45455.54
587.22	45921.31
587.38	45542.14
587.54	45485.97
587.70	45787.90
587.86	45050.63
588.02	45027.23
588.18	45911.95
588.34	45551.51
588.49	45492.99
588.65	45275.32
588.81	45642.79
588.97	45570.23
589.13	45633.42
589.29	45808.96
589.45	46045.36
589.61	45659.17
589.77	45453.20
589.93	45504.70
590.08	46066.42
590.24	45825.35
590.40	46209.20
590.56	45778.54
590.72	46351.97
590.88	45598.32
591.04	45698.96
591.20	46377.72
591.35	46246.65
591.51	46651.56
591.67	46206.86
591.83	46050.04
591.99	45837.05
592.15	45947.06
592.31	45626.40
592.46	46089.83
592.62	46052.38
592.78	46305.16
592.94	46525.17
593.10	46253.67
593.26	46153.02
593.41	45986.85
593.57	45904.93
593.73	45792.58
593.89	46827.10
594.05	46251.33
594.20	46305.16
594.36	46611.77
594.52	46071.10
594.68	46206.86
594.84	46263.03
594.99	46663.26
595.15	46195.15
595.31	45907.27
595.47	46321.54
595.62	46007.91
595.78	46047.70
595.94	46246.65
596.10	45942.38
596.25	46286.43
596.41	46248.99
596.57	45860.46
596.73	46328.56
596.88	46319.20
597.04	46394.10
597.20	46747.52
597.36	46248.99
597.51	46272.39
597.67	46244.30
597.83	46138.98
597.99	46047.70
598.14	46188.13
598.30	46452.61
598.46	46314.52
598.61	45949.40
598.77	46281.75
598.93	46674.96
599.09	46239.62
599.24	46469.00
599.40	46218.56
599.56	46405.80
599.71	46398.78
599.87	46681.98
600.03	46719.43
600.18	46391.76
600.34	46291.12
600.50	46227.92
600.65	46377.72
600.81	46696.03
600.97	46518.15
601.12	46623.47
601.28	46309.84
601.44	46391.76
601.59	46457.29
601.75	45925.99
601.91	46328.56
602.06	46305.16
602.22	46370.69
602.37	46581.34
602.53	46579.00
602.69	46588.36
602.84	46108.55
603.00	46232.60
603.16	46527.51
603.31	46611.77
603.47	46560.28
603.62	46398.78
603.78	46508.79
603.94	46670.28
604.09	46557.94
604.25	46197.49
604.40	45954.08
604.56	46550.91
604.71	46691.35
604.87	46234.94
605.03	46199.83
605.18	46164.73
605.34	46436.23
605.49	46000.89
605.65	46504.10
605.80	46176.43
605.96	46146.00
606.12	46529.85
606.27	46405.80
606.43	46085.15
606.58	46220.90
606.74	46082.81
606.89	46169.41
607.05	46185.79
607.20	46447.93
607.36	46607.09
607.51	46000.89
607.67	46085.15
607.82	45591.30
607.98	46539.21
608.13	45968.12
608.29	46185.79
608.44	46525.17
608.60	45727.05
608.75	46096.85
608.91	46181.11
609.06	46164.73
609.22	46162.39
609.37	45904.93
609.53	46239.62
609.68	46096.85
609.84	46274.73
609.99	46014.93
610.15	45839.39
610.30	46539.21
610.46	45989.19
610.61	46293.46
610.76	45989.19
610.92	45368.94
611.07	46401.12
611.23	45771.52
611.38	46134.30
611.54	45876.84
611.69	46171.75
611.84	46066.42
612.00	46089.83
612.15	45780.88
612.31	45975.14
612.46	45652.15
612.62	45617.04
612.77	46113.23
612.92	46089.83
613.08	45696.62
613.23	45921.31
613.39	45478.95
613.54	45303.41
613.69	45949.40
613.85	45450.86
614.00	45682.58
614.15	46080.47
614.31	45134.89
614.46	45441.50
614.62	45511.72
614.77	45860.46
614.92	45558.53
615.08	45029.57
615.23	46178.77
615.38	45921.31
615.54	45490.65
615.69	45516.40
615.84	45455.54
616.00	45500.01
616.15	45787.90
616.30	45909.61
616.46	45474.27
616.61	45401.71
616.76	46052.38
616.92	45336.18
617.07	45338.52
617.22	45478.95
617.37	44903.18
617.53	44933.60
617.68	45228.51
617.83	45385.33
617.99	45900.25
618.14	45226.17
618.29	45525.76
618.45	44832.96
618.60	44821.26
618.75	44863.39
618.90	45221.49
619.06	45492.99
619.21	45368.94
619.36	45265.96
619.51	45008.50
619.67	45111.49
619.82	45663.85
619.97	45500.01
620.12	44891.48
620.28	44849.35
620.43	45333.84
620.58	45034.25
620.73	45202.77
620.89	45050.63
621.04	45258.94
621.19	44800.19
621.34	44648.06
621.49	45071.70
621.65	44928.92
621.80	45064.67
621.95	44917.22
622.10	44882.11
622.25	44769.77
622.41	44856.37
622.56	44414.01
622.71	44767.43
622.86	44671.46
623.01	44584.86
623.16	44481.88
623.32	44870.41
623.47	44622.31
623.62	44451.45
623.77	44765.09
623.92	44481.88
624.07	44680.83
624.23	44360.17
624.38	44334.43
624.53	44470.18
624.68	44395.28
624.83	44304.00
624.98	44516.99
625.13	44264.21
625.29	44133.14
625.44	44540.39
625.59	44488.90
625.74	44121.44
625.89	43966.96
626.04	44079.31
626.19	44161.23
626.34	44205.70
626.49	44203.36
626.65	43964.62
626.80	43873.34
626.95	43796.10
627.10	43828.87
627.25	44245.49
627.40	43931.86
627.55	44133.14
627.70	44025.48
627.85	43981.01
628.00	43997.39
628.15	43985.69
628.30	43700.14
628.45	43725.89
628.60	43445.02
628.76	43725.89
628.91	43817.17
629.06	43166.50
629.21	43220.33
629.36	43419.28
629.51	43585.46
629.66	43723.55
629.81	43746.95
629.96	43388.85
630.11	43175.86
630.26	43365.45
630.41	43131.39
630.56	43681.42
630.71	43482.47
630.86	43278.85
631.01	43222.67
631.16	43028.41
631.31	43381.83
631.46	43129.05
631.61	43505.88
631.76	43512.90
631.91	43182.88
632.06	43917.81
632.21	43358.42
632.36	43438.00
632.51	43030.75
632.66	43379.49
632.81	43189.91
632.96	43232.04
633.10	42789.67
633.25	42878.61
633.40	43215.65
633.55	43227.35
633.70	42955.85
633.85	43084.58
634.00	43096.28
634.15	42389.44
634.30	43016.71
634.45	42855.21
634.60	42450.30
634.75	43236.72
634.90	42965.21
635.05	43049.47
635.19	42848.19
635.34	42775.63
635.49	42742.86
635.64	42588.39
635.79	43084.58
635.94	42983.94
636.09	42665.63
636.24	42602.43
636.39	42686.69
636.53	42913.72
636.68	42286.46
636.83	42340.29
636.98	42478.38
637.13	42026.66
637.28	42462.00
637.43	42066.45
637.57	42511.15
637.72	41834.74
637.87	42279.44
638.02	42576.69
638.17	42363.70
638.32	41963.46
638.46	41748.14
638.61	41844.10
638.76	42040.70
638.91	42534.56
639.06	42241.99
639.20	41708.35
639.35	42057.09
639.50	41846.44
639.65	41731.75
639.80	41944.74
639.94	42185.82
640.09	42359.02
640.24	42110.92
640.39	41319.82
640.54	41539.83
640.68	41593.66
640.83	42253.69
640.98	41750.48
641.13	41633.45
641.27	41689.62
641.42	41696.64
641.57	41560.89
641.72	41509.40
641.86	41626.43
642.01	41392.37
642.16	41574.94
642.31	41226.20
642.45	41408.76
642.60	41577.28
642.75	41443.87
642.90	41408.76
643.04	41193.43
643.19	41535.15
643.34	41471.95
643.48	41001.50
643.63	41139.60
643.78	41298.75
643.93	41443.87
644.07	41516.42
644.22	41270.67
644.37	41291.73
644.51	41354.93
644.66	41247.26
644.81	41078.74
644.95	41366.63
645.10	41284.71
645.25	40783.83
645.39	41071.72
645.54	41013.21
645.69	40273.60
645.83	40800.22
645.98	40804.90
646.13	40650.42
646.27	40781.49
646.42	40844.69
646.57	40744.05
646.71	40442.12
646.86	40847.03
647.00	40961.72
647.15	40727.66
647.30	40987.46
647.44	40877.46
647.59	40905.54
647.74	40706.60
647.88	40987.46
648.03	40985.12
648.17	40753.41
648.32	40404.67
648.47	40957.03
648.61	40631.70
648.76	40484.25
648.90	40402.33
649.05	40367.22
649.20	40245.51
649.34	40383.60
649.49	40680.85
649.63	40484.25
649.78	40369.56
649.92	40203.38
650.07	40870.43
650.21	40418.71
650.36	40755.75
650.51	40591.91
650.65	40313.39
650.80	40119.12
650.94	39910.82
651.09	40144.87
651.23	39681.44
651.38	39679.10
651.52	39819.53
651.67	40069.97
651.81	39805.49
651.96	39800.81
652.10	39849.96
652.25	39550.37
652.39	39864.00
652.54	39662.72
652.68	39859.32
652.83	39562.08
652.97	40002.10
653.12	39981.03
653.26	39533.99
653.41	39381.85
653.55	39627.61
653.70	39758.68
653.84	40091.04
653.99	40058.27
654.13	39849.96
654.27	39868.69
654.42	39573.78
654.56	39351.43
654.71	39632.29
654.85	40002.10
655.00	39732.93
655.14	39569.10
655.29	39938.90
655.43	39859.32
655.57	39260.15
655.72	39049.50
655.86	39353.77
656.01	39358.45
656.15	39100.99
656.30	39342.06
656.44	39431.01
656.58	39194.61
656.73	38885.66
656.87	38827.15
657.01	39512.92
657.16	38904.38
657.30	38944.17
657.45	39117.37
657.59	38707.78
657.73	38579.05
657.88	38967.58
658.02	39002.69
658.16	39119.71
658.31	39365.47
658.45	38815.44
658.60	38752.25
658.74	39063.54
658.88	38892.68
659.03	38604.80
659.17	38487.77
659.31	38455.00
659.46	38239.67
659.60	38347.34
659.74	38270.10
659.89	38036.05
660.03	38024.34
660.17	38457.34
660.32	38213.93
660.46	38511.17
660.60	37839.44
660.74	37979.87
660.89	38263.08
661.03	37794.97
661.17	37968.17
661.32	37532.83
661.46	37851.14
661.60	37947.11
661.74	37635.81
661.89	37876.89
662.03	37277.71
662.17	37591.34
662.31	37968.17
662.46	37930.72
662.60	37727.10
662.74	37127.92
662.88	37141.96
663.03	36926.63
663.17	37125.58
663.31	36966.42
663.45	37432.19
663.60	37249.63
663.74	37373.67
663.88	37111.53
664.02	36886.84
664.17	37205.16
664.31	36596.62
664.45	36643.43
664.59	36484.27
664.73	36957.06
664.88	36879.82
665.02	36449.16
665.16	36439.80
665.30	36430.44
665.44	36664.49
665.59	36311.07
665.73	35824.24
665.87	36137.87
666.01	36034.89
666.15	36339.16
666.29	36259.58
666.44	36273.62
666.58	36133.19
666.72	36016.16
666.86	35889.77
667.00	35831.26
667.14	35782.11
667.28	35866.37
667.43	35548.06
667.57	35658.06
667.71	35660.40
667.85	35978.72
667.99	35505.93
668.13	35728.28
668.27	34766.32
668.41	35246.13
668.56	35051.86
668.70	35061.22
668.84	34948.88
668.98	34682.06
669.12	35276.55
669.26	35171.23
669.40	34684.40
669.54	35166.55
669.68	34902.07
669.82	34558.01
669.96	34485.45
670.10	34267.78
670.25	34511.20
670.39	34267.78
670.53	35028.46
670.67	33963.51
670.81	34756.96
670.95	34553.33
671.09	34286.51
671.23	34363.75
671.37	34314.59
671.51	33881.60
671.65	33834.78
671.79	33893.30
671.93	34249.06
672.07	34141.39
672.21	34127.35
672.35	33614.77
672.49	33734.14
672.63	33490.73
672.77	33312.84
672.91	33296.46
673.05	33429.87
673.19	33041.34
673.33	32999.21
673.47	33207.52
673.61	32748.78
673.75	32828.35
673.89	32566.21
674.03	32732.39
674.17	32491.32
674.31	32526.42
674.45	32341.52
674.59	32687.92
674.73	32304.07
674.87	31819.58
675.01	31936.61
675.15	31747.03
675.29	31674.47
675.43	31852.35
675.56	31936.61
675.70	32163.64
675.84	32027.89
675.98	30775.70
676.12	31435.74
676.26	31512.97
676.40	31307.01
676.54	30972.31
676.68	31047.21
676.82	30314.62
676.96	31079.97
677.10	31075.29
677.23	31005.08
677.37	30834.22
677.51	30663.36
677.65	30405.90
677.79	30485.48
677.93	30426.96
678.07	30239.72
678.21	30136.74
678.34	29979.92
678.48	29993.97
678.62	29731.83
678.76	29326.91
678.90	29607.78
679.04	29961.20
679.18	29556.28
679.31	29336.27
679.45	29448.62
679.59	28781.57
679.73	29134.99
679.87	29013.28
680.00	29212.23
680.14	29408.83
680.28	29099.88
680.42	28676.24
680.56	28517.09
680.70	28318.14
680.83	28496.02
680.97	28285.37
681.11	28442.19
681.25	28023.23
681.39	28107.49
681.52	27983.44
681.66	27779.82
681.80	27143.19
681.94	27234.47
682.07	27534.06
682.21	27271.92
682.35	27197.02
682.49	27501.29
682.62	27484.91
682.76	27541.08
682.90	26998.08
683.04	26927.86
683.17	26780.41
683.31	26637.64
683.45	26398.90
683.59	26656.36
683.72	26150.81
683.86	26590.83
684.00	26464.44
684.13	26298.26
684.27	25947.18
684.41	25970.58
684.55	26078.25
684.68	26178.89
684.82	25446.30
684.96	25673.34
685.09	25530.56
685.23	25465.03
685.37	25483.75
685.50	25724.83
685.64	25640.57
685.78	24980.54
685.91	24793.29
686.05	24673.93
686.19	24320.51
686.32	24638.82
686.46	24173.05
686.60	24430.51
686.73	24496.05
686.87	24081.77
687.01	24376.68
687.14	24411.79
687.28	24053.69
687.42	24311.14
687.55	24219.86
687.69	24224.54
687.82	23744.73
687.96	23573.88
688.10	23908.57
688.23	23484.94
688.37	23828.99
688.50	23866.44
688.64	23601.96
688.78	23328.12
688.91	23014.49
689.05	23058.96
689.18	22897.46
689.32	22492.55
689.46	22625.96
689.59	22616.60
689.73	23073.00
689.86	22972.36
690.00	22867.03
690.13	22469.14
690.27	22061.89
690.41	22181.26
690.54	22029.12
690.68	21937.84
690.81	21617.19
690.95	21607.83
691.08	21596.12
691.22	21741.24
691.35	21144.40
691.49	21408.88
691.62	21341.00
691.76	20828.43
691.89	21329.30
692.03	20908.01
692.16	20783.96
692.30	20849.49
692.43	20893.96
692.57	20908.01
692.70	20575.65
692.84	20409.47
692.97	20320.53
693.11	20409.47
693.24	19997.54
693.38	20049.03
693.51	19843.06
693.65	19786.89
693.78	19707.31
693.92	19728.38
694.05	19744.76
694.19	19585.60
694.32	19711.99
694.45	19843.06
694.59	19791.57
694.72	19686.25
694.86	19283.67
694.99	19213.46
695.13	18843.65
695.26	18911.53
695.39	18750.03
695.53	18595.56
695.66	18817.91
695.80	18686.84
695.93	18686.84
696.07	18207.03
696.20	17874.67
696.33	18092.34
696.47	17951.91
696.60	17869.99
696.73	18211.71
696.87	18101.70
697.00	17987.02
697.14	17902.76
697.27	17530.61
697.40	17652.32
697.54	17612.53
697.67	17554.02
697.80	17500.19
697.94	17387.84
698.07	17408.90
698.21	17233.36
698.34	17186.55
698.47	16954.84
698.61	16430.56
698.74	16776.96
698.87	16608.44
699.01	16559.29
699.14	16620.14
699.27	16580.36
699.40	16711.42
699.54	16245.66
699.67	16411.84
699.80	16236.30
699.94	16107.57
700.07	16372.05
700.20	15960.11
700.34	15728.40
700.47	15758.83
700.60	15847.77
700.73	15887.56
700.87	15768.19
701.00	15225.18
701.13	15482.64
701.26	15431.15
701.40	15307.10
701.53	15159.65
701.66	15164.33
701.79	15002.83
701.93	14972.41
702.06	14888.15
702.19	14766.44
702.32	14700.90
702.46	14920.92
702.59	14782.82
702.72	15103.48
702.85	14806.23
702.99	14712.61
703.12	14562.81
703.25	14183.65
703.38	14218.75
703.51	14401.32
703.65	14066.62
703.78	14012.79
703.91	13731.92
704.04	13930.87
704.17	13757.67
704.31	13745.97
704.44	13582.13
704.57	13544.68
704.70	13703.84
704.83	13596.17
704.96	13399.57
705.10	13200.62
705.23	13317.65
>>>>>End Processed Spectral Data<<<<<
