SpectraSuite Data File
++++++++++++++++++++++++++++++++++++
Date: Fri Oct 25 10:47:42 EDT 2013
User: price-jones
Dark Spectrum Present: No
Reference Spectrum Present: No
Number of Sampled Component Spectra: 1
Spectrometers: USB2+H05261
Integration Time (usec): 100000 (USB2+H05261)
Spectra Averaged: 1 (USB2+H05261)
Boxcar Smoothing: 0 (USB2+H05261)
Correct for Electrical Dark: No (USB2+H05261)
Strobe/Lamp Enabled: No (USB2+H05261)
Correct for Detector Non-linearity: No (USB2+H05261)
Correct for Stray Light: No (USB2+H05261)
Number of Pixels in Processed Spectrum: 2048
>>>>>Begin Processed Spectral Data<<<<<
365.73	114.69
365.92	114.69
366.12	114.69
366.32	53.83
366.52	65.54
366.72	9.36
366.91	44.47
367.11	65.54
367.31	49.15
367.51	138.09
367.70	30.43
367.90	100.64
368.10	16.38
368.30	56.17
368.49	140.43
368.69	16.38
368.89	18.72
369.09	4.68
369.28	72.56
369.48	0.00
369.68	77.24
369.87	95.96
370.07	93.62
370.27	124.05
370.47	189.58
370.66	355.76
370.86	421.30
371.06	407.25
371.25	489.17
371.45	379.17
371.65	456.40
371.84	390.87
372.04	425.98
372.24	423.64
372.44	444.70
372.63	519.60
372.83	505.56
373.03	512.58
373.22	454.06
373.42	486.83
373.62	554.71
373.81	594.50
374.01	547.69
374.21	603.86
374.40	498.53
374.60	571.09
374.79	552.37
374.99	538.32
375.19	566.41
375.38	585.13
375.58	545.34
375.78	526.62
375.97	571.09
376.17	608.54
376.37	559.39
376.56	636.63
376.76	585.13
376.95	498.53
377.15	667.05
377.35	543.00
377.54	603.86
377.74	657.69
377.93	554.71
378.13	674.07
378.33	580.45
378.52	690.46
378.72	571.09
378.91	643.65
379.11	582.79
379.31	671.73
379.50	645.99
379.70	671.73
379.89	629.60
380.09	683.44
380.28	763.01
380.48	744.29
380.68	643.65
380.87	685.78
381.07	674.07
381.26	697.48
381.46	645.99
381.65	692.80
381.85	667.05
382.04	674.07
382.24	667.05
382.43	784.08
382.63	765.36
382.83	683.44
383.02	697.48
383.22	683.44
383.41	709.18
383.61	709.18
383.80	662.37
384.00	737.27
384.19	631.94
384.39	744.29
384.58	758.33
384.78	760.67
384.97	725.57
385.17	732.59
385.36	758.33
385.56	734.93
385.75	737.27
385.95	802.80
386.14	763.01
386.34	809.83
386.53	748.97
386.72	774.72
386.92	791.10
387.11	856.64
387.31	706.84
387.50	819.19
387.70	828.55
387.89	819.19
388.09	788.76
388.28	795.78
388.48	821.53
388.67	868.34
388.86	884.72
389.06	828.55
389.25	931.53
389.45	947.92
389.64	833.23
389.84	947.92
390.03	922.17
390.22	823.87
390.42	870.68
390.61	837.91
390.81	877.70
391.00	880.04
391.19	959.62
391.39	926.85
391.58	966.64
391.78	1020.47
391.97	866.00
392.16	971.32
392.36	952.60
392.55	1011.11
392.75	957.28
392.94	943.24
393.13	997.07
393.33	1008.77
393.52	912.81
393.71	1029.84
393.91	1043.88
394.10	1090.69
394.29	1034.52
394.49	1104.73
394.68	1055.58
394.88	1057.92
395.07	1121.12
395.26	1109.41
395.46	1083.67
395.65	1111.75
395.84	1067.28
396.04	1111.75
396.23	1050.90
396.42	1057.92
396.62	1142.18
396.81	1177.29
397.00	1179.63
397.19	1170.27
397.39	1259.21
397.58	1261.55
397.77	1203.04
397.97	1235.80
398.16	1256.87
398.35	1184.31
398.55	1170.27
398.74	1280.27
398.93	1338.79
399.12	1338.79
399.32	1385.60
399.51	1277.93
399.70	1336.45
399.90	1336.45
400.09	1301.34
400.28	1387.94
400.47	1322.40
400.67	1425.39
400.86	1371.55
401.05	1462.83
401.24	1404.32
401.44	1439.43
401.63	1502.62
401.82	1425.39
402.01	1554.12
402.21	1540.07
402.40	1596.25
402.59	1507.30
402.78	1554.12
402.97	1584.54
403.17	1535.39
403.36	1540.07
403.55	1570.50
403.74	1717.95
403.93	1582.20
404.13	1584.54
404.32	1629.01
404.51	1633.69
404.70	1699.23
404.89	1736.68
405.09	1778.81
405.28	1713.27
405.47	1717.95
405.66	1760.08
405.85	1715.61
406.05	1785.83
406.24	1785.83
406.43	1724.97
406.62	1837.32
406.81	1886.47
407.00	1783.49
407.20	1818.60
407.39	1884.13
407.58	1804.55
407.77	1893.49
407.96	1921.58
408.15	1930.94
408.34	1818.60
408.54	2040.95
408.73	2001.16
408.92	1987.11
409.11	2017.54
409.30	2101.80
409.49	2080.74
409.68	2010.52
409.87	1975.41
410.07	2127.55
410.26	2113.50
410.45	1998.82
410.64	2031.58
410.83	2136.91
411.02	2153.29
411.21	2148.61
411.40	2246.91
411.59	2242.23
411.78	2267.98
411.98	2293.72
412.17	2249.25
412.36	2265.64
412.55	2377.98
412.74	2326.49
412.93	2396.71
413.12	2375.64
413.31	2464.58
413.50	2497.35
413.69	2511.39
413.88	2562.89
414.07	2502.03
414.26	2576.93
414.45	2576.93
414.64	2621.40
414.83	2553.52
415.02	2581.61
415.22	2663.53
415.41	2679.91
415.60	2731.41
415.79	2818.00
415.98	2881.20
416.17	2881.20
416.36	2759.49
416.55	2897.58
416.74	2876.52
416.93	2913.97
417.12	2946.73
417.31	2930.35
417.50	2932.69
417.69	3059.08
417.88	3045.04
418.07	2951.42
418.26	3030.99
418.45	3117.59
418.64	3183.13
418.83	3199.51
419.02	3110.57
419.21	3070.78
419.39	3276.75
419.58	3192.49
419.77	3145.68
419.96	3339.94
420.15	3258.03
420.34	3246.32
420.53	3311.86
420.72	3332.92
420.91	3393.78
421.10	3417.18
421.29	3503.78
421.48	3466.33
421.67	3520.17
421.86	3407.82
422.05	3412.50
422.24	3281.43
422.43	3400.80
422.61	3368.03
422.80	3414.84
422.99	3400.80
423.18	3499.10
423.37	3609.11
423.56	3527.19
423.75	3517.83
423.94	3466.33
424.13	3229.94
424.32	3475.70
424.50	3492.08
424.69	3524.85
424.88	3576.34
425.07	3552.93
425.26	3564.64
425.45	3599.74
425.64	3527.19
425.83	3489.74
426.01	3581.02
426.20	3459.31
426.39	3623.15
426.58	3592.72
426.77	3637.19
426.96	3520.17
427.15	3588.04
427.33	3562.30
427.52	3653.58
427.71	3772.94
427.90	3609.11
428.09	3691.02
428.28	3723.79
428.46	3779.97
428.65	3744.86
428.84	3803.37
429.03	3854.86
429.22	3571.66
429.40	3822.09
429.59	3829.12
429.78	3557.61
429.97	3660.60
430.16	3871.25
430.34	3761.24
430.53	3742.52
430.72	3857.20
430.91	3899.33
431.10	3988.27
431.28	3978.91
431.47	4067.85
431.66	4126.36
431.85	4074.87
432.03	4161.47
432.22	4173.18
432.41	4114.66
432.60	4124.02
432.79	4215.30
432.97	4166.15
433.16	4212.96
433.35	4180.20
433.54	4124.02
433.72	4173.18
433.91	4177.86
434.10	4142.75
434.28	4217.65
434.47	4306.59
434.66	4362.76
434.85	4517.23
435.03	4311.27
435.22	4414.25
435.41	4458.72
435.59	4416.59
435.78	4512.55
435.97	4603.83
436.16	4531.28
436.34	4470.42
436.53	4578.09
436.72	4767.67
436.90	4484.47
437.09	4683.41
437.28	4554.68
437.46	4512.55
437.65	4617.88
437.84	4662.35
438.02	4833.21
438.21	4690.43
438.40	4702.14
438.58	4723.20
438.77	4873.00
438.96	4926.83
439.14	4931.51
439.33	4975.98
439.52	5004.07
439.70	5022.79
439.89	5074.28
440.08	5067.26
440.26	5205.35
440.45	5245.14
440.63	5270.89
440.82	5310.68
441.01	5369.19
441.19	5305.99
441.38	5437.06
441.57	5324.72
441.75	5481.53
441.94	5589.20
442.12	5500.26
442.31	5722.61
442.50	5664.10
442.68	5614.95
442.87	5607.92
443.05	5577.50
443.24	5863.04
443.43	5678.14
443.61	5853.68
443.80	5930.92
443.98	5554.09
444.17	5526.00
444.35	5806.87
444.54	5769.42
444.73	5820.91
444.91	5849.00
445.10	5706.23
445.28	5720.27
445.47	5816.23
445.65	5769.42
445.84	5907.51
446.02	5851.34
446.21	5942.62
446.39	5879.43
446.58	5905.17
446.77	5858.36
446.95	5652.39
447.14	5893.47
447.32	5839.64
447.51	5818.57
447.69	5937.94
447.88	5933.26
448.06	5961.34
448.25	5830.27
448.43	6024.54
448.62	6040.92
448.80	5785.80
448.99	5968.37
449.17	6092.41
449.36	5982.41
449.54	6087.73
449.73	6242.21
449.91	6296.04
450.10	6347.53
450.28	6380.30
450.46	6431.79
450.65	6431.79
450.83	6443.49
451.02	6270.30
451.20	6483.28
451.39	6417.75
451.57	6441.15
451.76	6300.72
451.94	6415.41
452.13	6553.50
452.31	6422.43
452.49	6335.83
452.68	6490.31
452.86	6230.51
453.05	6473.92
453.23	6612.01
453.42	6469.24
453.60	6581.59
453.78	6626.06
453.97	6628.40
454.15	6661.16
454.34	6633.08
454.52	6794.58
454.70	6668.19
454.89	6803.94
455.07	6733.72
455.26	6799.26
455.44	6759.47
455.62	6799.26
455.81	6890.54
455.99	6986.50
456.17	6977.14
456.36	6874.15
456.54	6949.05
456.73	7279.07
456.91	7145.66
457.09	7377.37
457.28	7255.66
457.46	7171.40
457.64	7115.23
457.83	7281.41
458.01	7222.89
458.19	7368.01
458.38	7258.00
458.56	7515.46
458.74	7344.60
458.93	7342.26
459.11	7513.12
459.29	7403.11
459.48	7344.60
459.66	7405.46
459.84	7522.48
460.03	7463.97
460.21	7550.57
460.39	7590.36
460.57	7503.76
460.76	7623.12
460.94	7632.49
461.12	7815.05
461.31	7639.51
461.49	7925.05
461.67	7672.28
461.85	7714.41
462.04	7943.78
462.22	8334.65
462.40	8217.62
462.59	7997.61
462.77	7915.69
462.95	8098.25
463.13	8053.78
463.32	8102.93
463.50	8021.02
463.68	8039.74
463.86	8161.45
464.05	8042.08
464.23	7950.80
464.41	8128.68
464.59	7903.99
464.78	8243.37
464.96	8304.22
465.14	7976.55
465.32	8290.18
465.50	8187.19
465.69	8315.92
465.87	8154.43
466.05	8109.96
466.23	8236.35
466.41	8285.50
466.60	8355.71
466.78	8159.11
466.96	8259.75
467.14	8404.86
467.32	8444.65
467.51	8554.66
467.69	8152.09
467.87	8475.08
468.05	8397.84
468.23	8470.40
468.41	8517.21
468.60	8437.63
468.78	8699.77
468.96	8486.78
469.14	8503.17
469.32	8496.14
469.50	8641.26
469.69	8837.86
469.87	8762.97
470.05	8835.52
470.23	8898.72
470.41	8833.18
470.59	8992.34
470.77	8798.07
470.95	8924.46
471.14	9228.73
471.32	9076.60
471.50	9015.74
471.68	9301.29
471.86	9303.63
472.04	9387.89
472.22	9418.32
472.40	9336.40
472.58	9238.09
472.77	9535.34
472.95	9626.62
473.13	9891.10
473.31	9650.03
473.49	9518.96
473.67	9383.21
473.85	9537.68
474.03	9874.72
474.21	9940.26
474.39	9982.38
474.57	9982.38
474.75	10064.30
474.93	10150.90
475.12	9879.40
475.30	10193.03
475.48	9994.09
475.66	10054.94
475.84	10202.40
476.02	10258.57
476.20	10242.18
476.38	10452.83
476.56	10738.38
476.74	10654.12
476.92	10544.11
477.10	10684.55
477.28	10864.77
477.46	10677.52
477.64	11002.86
477.82	11030.94
478.00	11360.96
478.18	11248.61
478.36	11346.92
478.54	11492.03
478.72	11573.95
478.90	11527.14
479.08	11719.06
479.26	11908.65
479.44	11800.98
479.62	11969.50
479.80	11981.20
479.98	12198.87
480.16	12248.02
480.34	12292.49
480.52	12465.69
480.70	12496.12
480.88	12088.87
481.06	12395.48
481.24	12676.34
481.41	12748.90
481.59	12858.90
481.77	13170.19
481.95	13029.76
482.13	13095.30
482.31	13142.11
482.49	13158.49
482.67	13439.36
482.85	13460.42
483.03	13572.77
483.21	13884.06
483.39	13846.61
483.57	13851.29
483.74	14111.09
483.92	14083.00
484.10	13984.70
484.28	14523.02
484.46	14675.16
484.64	14764.10
484.82	14527.71
485.00	14988.79
485.18	14902.19
485.35	15229.87
485.53	15098.80
485.71	15140.93
485.89	15272.00
486.07	15049.64
486.25	15185.40
486.43	15447.54
486.61	15559.88
486.78	15964.79
486.96	15728.40
487.14	16159.06
487.32	16095.86
487.50	16348.64
487.68	16669.30
487.85	16739.51
488.03	16723.13
488.21	17188.89
488.39	16882.28
488.57	17088.25
488.75	17114.00
488.92	17558.70
489.10	17675.73
489.28	17568.06
489.46	18001.06
489.64	17722.54
489.81	18127.45
489.99	18317.03
490.17	18223.41
490.35	18707.90
490.53	18562.79
490.70	18855.36
490.88	18801.52
491.06	18834.29
491.24	18808.54
491.41	19077.71
491.59	18855.36
491.77	18843.65
491.95	19316.44
492.13	19222.82
492.30	19704.97
492.48	19927.32
492.66	19770.51
492.84	19520.07
493.01	20121.59
493.19	20168.40
493.37	20517.14
493.54	20184.78
493.72	20638.84
493.90	20416.49
494.08	20702.04
494.25	21003.97
494.43	21097.59
494.61	20957.16
494.79	21296.53
494.96	21078.86
495.14	21362.07
495.32	21572.72
495.49	21703.79
495.67	21820.81
495.85	22024.44
496.02	21734.21
496.20	22251.47
496.38	22455.10
496.55	22462.12
496.73	22656.39
496.91	22579.15
497.09	22740.64
497.26	23239.18
497.44	22733.62
497.62	22698.52
497.79	23171.30
497.97	23042.57
498.14	23260.24
498.32	23257.90
498.50	23517.70
498.67	23686.22
498.85	23777.50
499.03	24119.22
499.20	23845.38
499.38	23948.36
499.56	24151.99
499.73	24273.70
499.91	24444.56
500.08	24500.73
500.26	24414.13
500.44	24428.17
500.61	24812.02
500.79	24346.25
500.97	24819.04
501.14	25502.48
501.32	25039.05
501.49	25223.95
501.67	25209.91
501.84	25266.08
502.02	25127.99
502.20	25420.56
502.37	25745.89
502.55	25811.43
502.72	25965.90
502.90	25895.69
503.07	25851.22
503.25	25823.13
503.43	25678.02
503.60	25930.80
503.78	26024.42
503.95	26092.29
504.13	26054.84
504.30	26677.43
504.48	26174.21
504.65	26417.63
504.83	26649.34
505.01	26738.28
505.18	26553.38
505.36	27157.24
505.53	27234.47
505.71	27386.61
505.88	27391.29
506.06	27049.57
506.23	27243.84
506.41	27115.11
506.58	27372.57
506.76	27323.41
506.93	27353.84
507.11	27154.90
507.28	27651.09
507.46	27840.67
507.63	27948.34
507.81	27988.13
507.98	27913.23
508.16	27938.97
508.33	28121.54
508.50	28074.73
508.68	27908.55
508.85	28716.03
509.03	28308.78
509.20	28844.76
509.38	28828.38
509.55	28833.06
509.73	28959.45
509.90	29291.80
510.08	29160.73
510.25	28900.94
510.42	29446.28
510.60	29486.07
510.77	29355.00
510.95	29869.92
511.12	29233.29
511.30	29535.22
511.47	29727.14
511.64	30190.57
511.82	30073.54
511.99	29804.38
512.17	29675.65
512.34	29694.38
512.51	30553.35
512.69	30611.87
512.86	30155.46
513.04	30457.39
513.21	30251.42
513.38	30377.81
513.56	30637.61
513.73	30450.37
513.90	30801.45
514.08	30834.22
514.25	31096.36
514.43	31129.12
514.60	31075.29
514.77	30913.80
514.95	31140.83
515.12	31182.96
515.29	31133.81
515.47	31189.98
515.64	31583.19
515.81	31283.60
515.99	31409.99
516.16	31491.91
516.33	31524.68
516.51	31545.74
516.68	31793.84
516.85	31718.94
517.03	31835.97
517.20	31908.52
517.37	32432.80
517.54	31873.42
517.72	31943.63
517.89	32002.14
518.06	32077.04
518.24	31749.37
518.41	32032.57
518.58	32095.77
518.75	32114.49
518.93	32734.73
519.10	32531.11
519.27	32814.31
519.45	33022.62
519.62	32465.57
519.79	32598.98
519.96	32840.06
520.14	33132.62
520.31	33151.35
520.48	33420.51
520.65	33006.23
520.83	33326.89
521.00	33652.22
521.17	33242.63
521.34	32903.25
521.52	33876.91
521.69	33876.91
521.86	33577.33
522.03	34036.07
522.20	33663.93
522.38	34019.69
522.55	34110.97
522.72	34396.51
522.89	34064.16
523.07	34167.14
523.24	34012.66
523.41	34682.06
523.58	34235.02
523.75	34787.38
523.92	34677.38
524.10	34806.11
524.27	34637.59
524.44	34583.76
524.61	34817.81
524.78	35115.06
524.96	35318.68
525.13	34778.02
525.30	35402.94
525.47	35393.58
525.64	35157.19
525.81	35353.79
525.98	35290.60
526.16	35124.42
526.33	35419.33
526.50	35335.07
526.67	35047.18
526.84	35033.14
527.01	35426.35
527.18	35693.17
527.36	35641.68
527.53	36093.40
527.70	36133.19
527.87	36084.04
528.04	36144.89
528.21	35971.69
528.38	36191.70
528.55	36184.68
528.72	36374.27
528.89	36465.55
529.07	36275.96
529.24	36217.45
529.41	36547.47
529.58	36168.30
529.75	36453.84
529.92	36992.17
530.09	36811.95
530.26	36673.85
530.43	36727.69
530.60	36364.90
530.77	36945.36
530.94	37216.86
531.11	36467.89
531.28	36830.67
531.46	37156.00
531.63	36570.87
531.80	37268.35
531.97	37053.02
532.14	36835.35
532.31	37184.09
532.48	37188.77
532.65	37502.40
532.82	37368.99
532.99	37258.99
533.16	37240.26
533.33	37607.73
533.50	37729.44
533.67	37390.06
533.84	37539.85
534.01	38066.47
534.18	37553.90
534.35	38036.05
534.52	37497.72
534.69	38050.09
534.86	38518.20
535.03	37518.79
535.20	38389.47
535.37	38621.18
535.54	38384.79
535.71	38256.06
535.88	37867.53
536.05	38014.98
536.22	38447.98
536.38	38295.85
536.55	38368.40
536.72	38412.87
536.89	38281.80
537.06	38457.34
537.23	38485.43
537.40	38300.53
537.57	38429.26
537.74	38497.13
537.91	39175.89
538.08	38890.34
538.25	38679.69
538.42	38859.91
538.59	39274.19
538.75	38838.85
538.92	38904.38
539.09	38911.41
539.26	38946.51
539.43	39002.69
539.60	39185.25
539.77	38965.24
539.94	39363.13
540.11	38934.81
540.28	39040.14
540.44	39489.52
540.61	39374.83
540.78	39058.86
540.95	39484.84
541.12	39166.52
541.29	39625.27
541.46	39484.84
541.62	39775.06
541.79	39849.96
541.96	39143.12
542.13	39742.30
542.30	39777.40
542.47	39742.30
542.63	39882.73
542.80	39807.83
542.97	40013.80
543.14	40339.13
543.31	40828.30
543.48	40587.23
543.64	41027.25
543.81	40378.92
543.98	40467.86
544.15	40130.83
544.32	40617.66
544.48	41060.02
544.65	40666.81
544.82	40624.68
544.99	40341.47
545.16	40575.53
545.32	40620.00
545.49	41045.97
545.66	41198.11
545.83	41113.85
546.00	41205.13
546.16	41029.59
546.33	40844.69
546.50	40268.92
546.67	40830.65
546.83	40641.06
547.00	40978.10
547.17	40987.46
547.34	41261.30
547.50	41111.51
547.67	41230.88
547.84	41003.85
548.00	41453.23
548.17	41565.57
548.34	41240.24
548.51	41347.90
548.67	41663.88
548.84	41577.28
549.01	41390.03
549.18	41364.29
549.34	41488.34
549.51	41874.52
549.68	41986.87
549.84	41560.89
550.01	41830.05
550.18	41832.39
550.34	41909.63
550.51	41661.54
550.68	41504.72
550.84	41504.72
551.01	41820.69
551.18	41500.04
551.34	41502.38
551.51	41743.45
551.68	42082.83
551.84	41979.85
552.01	41787.92
552.18	42492.43
552.34	42054.75
552.51	42136.66
552.68	42265.39
552.84	42351.99
553.01	42794.36
553.18	42052.41
553.34	42499.45
553.51	42391.78
553.67	42220.92
553.84	42532.22
554.01	42717.12
554.17	42630.52
554.34	42913.72
554.51	42572.00
554.67	42941.81
554.84	42958.19
555.00	42412.85
555.17	42291.14
555.33	42436.25
555.50	42850.53
555.67	42553.28
555.83	42590.73
556.00	42698.39
556.16	42789.67
556.33	42927.77
556.50	42740.52
556.66	43166.50
556.83	42745.20
556.99	42738.18
557.16	43407.58
557.32	42948.83
557.49	43229.69
557.65	42740.52
557.82	42623.50
557.98	42515.83
558.15	43147.78
558.32	43054.15
558.48	43309.27
558.65	43374.81
558.81	43278.85
558.98	43255.44
559.14	43054.15
559.31	43089.26
559.47	43583.12
559.64	43482.47
559.80	43517.58
559.97	43438.00
560.13	42920.74
560.30	43288.21
560.46	43583.12
560.63	43438.00
560.79	43653.33
560.96	43840.57
561.12	43119.69
561.29	43772.70
561.45	43529.28
561.61	43618.22
561.78	43056.50
561.94	43442.68
562.11	43435.66
562.27	43454.39
562.44	43426.30
562.60	43683.76
562.77	43761.00
562.93	43526.94
563.10	43913.13
563.26	43475.45
563.42	43962.28
563.59	43515.24
563.75	43746.95
563.92	44023.14
564.08	43796.10
564.24	43896.75
564.41	43697.80
564.57	43592.48
564.74	43948.24
564.90	43908.45
565.07	43819.51
565.23	43917.81
565.39	43906.11
565.56	43901.43
565.72	43730.57
565.88	43859.30
566.05	43655.67
566.21	43775.04
566.38	43871.00
566.54	43721.21
566.70	44257.19
566.87	44474.86
567.03	43969.30
567.19	44191.65
567.36	44114.42
567.52	43966.96
567.68	43917.81
567.85	43543.33
568.01	44516.99
568.17	43990.37
568.34	43997.39
568.50	44156.55
568.66	44144.84
568.83	43964.62
568.99	44102.71
569.15	43950.58
569.32	43899.09
569.48	43812.49
569.64	43978.67
569.81	44154.21
569.97	43936.54
570.13	44285.28
570.30	43693.12
570.46	43622.90
570.62	43529.28
570.78	43882.70
570.95	44526.35
571.11	44151.87
571.27	43903.77
571.43	43746.95
571.60	44325.07
571.76	44273.57
571.92	43999.73
572.09	43999.73
572.25	44179.95
572.41	44123.78
572.57	44708.91
572.74	44601.25
572.90	44542.74
573.06	44369.54
573.22	44048.88
573.38	44626.99
573.55	43601.84
573.71	44737.00
573.87	43938.88
574.03	44201.02
574.20	44257.19
574.36	43927.17
574.52	44545.08
574.68	44076.97
574.84	44505.29
575.01	44432.73
575.17	44619.97
575.33	44128.46
575.49	44816.58
575.65	44226.76
575.82	44645.72
575.98	44481.88
576.14	44879.77
576.30	44634.02
576.46	44081.65
576.62	43899.09
576.79	44364.85
576.95	44201.02
577.11	43927.17
577.27	44589.55
577.43	44734.66
577.59	44591.89
577.75	44140.16
577.92	44411.67
578.08	44273.57
578.24	43966.96
578.40	44191.65
578.56	44814.24
578.72	44774.45
578.88	44746.36
579.04	44722.96
579.21	44568.48
579.37	44205.70
579.53	44355.49
579.69	44212.72
579.85	44289.96
580.01	44231.44
580.17	44697.21
580.33	44954.67
580.49	44825.94
580.65	44760.40
580.82	44694.87
580.98	44453.79
581.14	44287.62
581.30	44767.43
581.46	44739.34
581.62	44322.72
581.78	44259.53
581.94	44409.32
582.10	44149.53
582.26	44987.44
582.42	44587.21
582.58	44727.64
582.74	44655.08
582.90	44055.90
583.06	44456.14
583.22	44563.80
583.38	44154.21
583.54	44580.18
583.70	44786.15
583.86	44481.88
584.02	44535.71
584.18	44348.47
584.34	44467.84
584.50	44643.38
584.66	44456.14
584.82	44409.32
584.98	44521.67
585.14	44669.12
585.30	44498.26
585.46	44804.88
585.62	44112.08
585.78	44680.83
585.94	44186.97
586.10	44275.91
586.26	44428.05
586.42	44655.08
586.58	44484.22
586.74	44453.79
586.90	44636.36
587.06	44779.13
587.22	45020.20
587.38	44708.91
587.54	45270.64
587.70	44865.73
587.86	45074.04
588.02	44767.43
588.18	44657.42
588.34	44650.40
588.49	44470.18
588.65	44409.32
588.81	44114.42
588.97	44589.55
589.13	44921.90
589.29	44313.36
589.45	44619.97
589.61	44872.75
589.77	45193.40
589.93	44617.63
590.08	45059.99
590.24	44779.13
590.40	44933.60
590.56	44935.95
590.72	44341.45
590.88	44601.25
591.04	45172.34
591.20	45205.11
591.35	45001.48
591.51	45537.46
591.67	44762.75
591.83	44477.20
591.99	44704.23
592.15	44741.68
592.31	44512.31
592.46	45083.40
592.62	44514.65
592.78	44954.67
592.94	45029.57
593.10	44662.10
593.26	44907.86
593.41	44999.14
593.57	44952.33
593.73	44755.72
593.89	44657.42
594.05	44729.98
594.20	45099.78
594.36	45689.60
594.52	44891.48
594.68	45216.81
594.84	44739.34
594.99	45265.96
595.15	45326.81
595.31	45071.70
595.47	44692.53
595.62	44989.78
595.78	45184.04
595.94	45137.23
596.10	45212.13
596.25	45322.13
596.41	44966.37
596.57	45022.54
596.73	45198.09
596.88	45195.74
597.04	44875.09
597.20	45024.89
597.36	45223.83
597.51	45329.16
597.67	44732.32
597.83	45055.31
597.99	45333.84
598.14	44561.46
598.30	45137.23
598.46	44905.52
598.61	44662.10
598.77	44999.14
598.93	45034.25
599.09	44605.93
599.24	45422.78
599.40	45181.70
599.56	45251.92
599.71	44861.05
599.87	45497.67
600.03	44570.82
600.18	44795.51
600.34	45144.25
600.50	45043.61
600.65	44940.63
600.81	44903.18
600.97	45621.72
601.12	45134.89
601.28	45659.17
601.44	45020.20
601.59	45507.04
601.75	45064.67
601.91	45165.32
602.06	44900.84
602.22	45120.85
602.37	45001.48
602.53	44994.46
602.69	45195.74
602.84	45052.97
603.00	45170.00
603.16	45064.67
603.31	44891.48
603.47	45029.57
603.62	44954.67
603.78	44942.97
603.94	44715.93
604.09	45181.70
604.25	45205.11
604.40	45024.89
604.56	45003.82
604.71	45289.37
604.87	45078.72
605.03	44919.56
605.18	44502.95
605.34	44973.39
605.49	45038.93
605.65	44816.58
605.80	44821.26
605.96	45015.52
606.12	45254.26
606.27	45280.00
606.43	44802.53
606.58	45368.94
606.74	44870.41
606.89	44776.79
607.05	44729.98
607.20	44975.73
607.36	44690.19
607.51	45291.71
607.67	45052.97
607.82	44727.64
607.98	44708.91
608.13	44907.86
608.29	44367.20
608.44	44488.90
608.60	44308.68
608.75	44715.93
608.91	44437.41
609.06	44500.61
609.22	44612.95
609.37	44634.02
609.53	44329.75
609.68	44659.76
609.84	44903.18
609.99	44657.42
610.15	44334.43
610.30	44545.08
610.46	44294.64
610.61	44229.10
610.76	44685.51
610.92	44411.67
611.07	44493.58
611.23	44437.41
611.38	44531.03
611.54	44289.96
611.69	44411.67
611.84	44191.65
612.00	44718.28
612.15	44280.60
612.31	44348.47
612.46	44278.25
612.62	44465.50
612.77	44074.63
612.92	44362.51
613.08	44404.64
613.23	44444.43
613.39	44222.08
613.54	43833.55
613.69	44126.12
613.85	44208.04
614.00	44456.14
614.15	44505.29
614.31	44582.52
614.46	44718.28
614.62	43957.60
614.77	44058.24
614.92	43976.33
615.08	44009.09
615.23	44329.75
615.38	44154.21
615.54	43728.23
615.69	43959.94
615.84	43889.73
616.00	44011.43
616.15	44025.48
616.30	44048.88
616.46	43487.15
616.61	43697.80
616.76	43761.00
616.92	43683.76
617.07	43559.71
617.22	43386.51
617.37	43463.75
617.53	43732.91
617.68	43840.57
617.83	44156.55
617.99	43854.62
618.14	43576.09
618.29	43304.59
618.45	43894.41
618.60	43995.05
618.75	43927.17
618.90	43674.40
619.06	43140.75
619.21	43531.62
619.36	43707.16
619.51	42979.26
619.67	43299.91
619.82	43899.09
619.97	43831.21
620.12	43484.81
620.28	42768.61
620.43	42993.30
620.58	43550.35
620.73	43201.61
620.89	42859.89
621.04	43253.10
621.19	43206.29
621.34	43433.32
621.49	43030.75
621.65	42834.14
621.80	42990.96
621.95	43115.01
622.10	43164.16
622.25	42770.95
622.41	42817.76
622.56	42972.24
622.71	43093.94
622.86	42932.45
623.01	42920.74
623.16	42710.10
623.32	43065.86
623.47	43054.15
623.62	43225.01
623.77	42848.19
623.92	42660.94
624.07	42623.50
624.23	42459.66
624.38	42768.61
624.53	42199.86
624.68	42642.22
624.83	42920.74
624.98	42674.99
625.13	42705.41
625.29	42480.72
625.44	42646.90
625.59	42433.91
625.74	42174.11
625.89	41954.10
626.04	41816.01
626.19	42429.23
626.34	42178.79
626.49	42150.71
626.65	42305.18
626.80	42213.90
626.95	42134.32
627.10	41909.63
627.25	41581.96
627.40	41584.30
627.55	41876.86
627.70	41516.42
627.85	41989.21
628.00	41904.95
628.15	41851.12
628.30	42031.34
628.45	41993.89
628.60	42237.31
628.76	41755.16
628.91	42075.81
629.06	41720.05
629.21	41464.93
629.36	41560.89
629.51	41343.22
629.66	41387.69
629.81	41422.80
629.96	41872.18
630.11	41572.60
630.26	41790.27
630.41	41792.61
630.56	41893.25
630.71	41549.19
630.86	41336.20
631.01	41364.29
631.16	41368.97
631.31	41010.87
631.46	40751.07
631.61	41682.60
631.76	40942.99
631.91	41174.70
632.06	41507.06
632.21	41134.92
632.36	41338.54
632.51	41078.74
632.66	41333.86
632.81	40790.86
632.96	41132.57
633.10	40903.20
633.25	40781.49
633.40	40978.10
633.55	41104.49
633.70	41488.34
633.85	41120.87
634.00	41195.77
634.15	40919.59
634.30	41209.81
634.45	41001.50
634.60	40973.42
634.75	41249.60
634.90	41031.93
635.05	40907.88
635.19	40875.12
635.34	41057.68
635.49	40715.96
635.64	40285.30
635.79	40432.75
635.94	40357.86
636.09	40648.08
636.24	40495.95
636.39	40367.22
636.53	40697.24
636.68	40175.30
636.83	40514.67
636.98	40620.00
637.13	40086.36
637.28	40528.72
637.43	40158.91
637.57	40720.64
637.72	40437.44
637.87	40341.47
638.02	40158.91
638.17	40507.65
638.32	40004.44
638.46	40006.78
638.61	40198.70
638.76	39856.98
638.91	39585.48
639.06	39873.37
639.20	39868.69
639.35	40474.88
639.50	40512.33
639.65	39966.99
639.80	40369.56
639.94	39751.66
640.09	40165.93
640.24	39730.59
640.39	39871.03
640.54	39454.41
640.68	39590.16
640.83	39962.31
640.98	39702.51
641.13	39569.10
641.27	39856.98
641.42	39608.89
641.57	39594.84
641.72	39428.66
641.86	39077.58
642.01	39208.65
642.16	39601.86
642.31	39164.18
642.45	39531.65
642.60	39288.23
642.75	39084.61
642.90	39517.60
643.04	39304.62
643.19	39061.20
643.34	38866.94
643.48	39206.31
643.63	38944.17
643.78	38951.20
643.93	38902.04
644.07	38347.34
644.22	38569.69
644.37	39126.74
644.51	39105.67
644.66	38675.01
644.81	39283.55
644.95	39220.36
645.10	39274.19
645.25	39269.51
645.39	39604.20
645.54	39194.61
645.69	38836.51
645.83	38506.49
645.98	38904.38
646.13	38911.41
646.27	38670.33
646.42	38944.17
646.57	39246.10
646.71	38759.27
646.86	38888.00
647.00	38548.62
647.15	38796.72
647.30	39274.19
647.44	38993.32
647.59	38646.93
647.74	38557.99
647.88	38256.06
648.03	38345.00
648.17	38569.69
648.32	38246.69
648.47	38850.55
648.61	37916.68
648.76	38918.43
648.90	38352.02
649.05	38621.18
649.20	38202.22
649.34	38806.08
649.49	38312.23
649.63	38265.42
649.78	38574.37
649.92	38377.76
650.07	38717.14
650.21	38146.05
650.36	37720.07
650.51	37916.68
650.65	38911.41
650.80	38375.42
650.94	38735.87
651.09	37958.81
651.23	38246.69
651.38	38480.75
651.52	38003.28
651.67	38169.46
651.81	37984.55
651.96	37563.26
652.10	38136.69
652.25	37680.28
652.39	37846.46
652.54	37549.21
652.68	37862.85
652.83	37666.24
652.97	37787.95
653.12	37521.13
653.26	37743.48
653.41	37628.79
653.55	37387.72
653.70	37062.38
653.84	37954.13
653.99	37596.03
654.13	37495.38
654.27	37591.34
654.42	37090.47
654.56	37638.15
654.71	38085.20
654.85	37457.93
655.00	37333.89
655.14	37151.32
655.29	37209.84
655.43	37090.47
655.57	36833.01
655.72	36758.11
655.86	36781.52
656.01	37116.22
656.15	36760.45
656.30	37153.66
656.44	36907.91
656.58	36875.14
656.73	36823.65
656.87	36737.05
657.01	36598.96
657.16	36631.72
657.30	36613.00
657.45	36603.64
657.59	36680.88
657.73	36517.04
657.88	36573.21
658.02	36800.24
658.16	36542.78
658.31	37228.56
658.45	36842.37
658.60	36474.91
658.74	36788.54
658.88	36299.37
659.03	36432.78
659.17	36355.54
659.31	36526.40
659.46	36355.54
659.60	36580.23
659.74	36519.38
659.89	35861.69
660.03	36355.54
660.17	35952.97
660.32	36400.01
660.46	36533.42
660.60	36165.96
660.74	36238.51
660.89	35868.71
661.03	35606.57
661.17	35494.22
661.32	35232.08
661.46	35629.98
661.60	35344.43
661.74	35398.26
661.89	35688.49
662.03	35672.10
662.17	35543.38
662.31	35220.38
662.46	35260.17
662.60	35667.42
662.74	35461.46
662.88	35227.40
663.03	35384.22
663.17	35433.37
663.31	35084.63
663.45	35234.42
663.60	35204.00
663.74	35168.89
663.88	34773.34
664.02	34689.08
664.17	34991.01
664.31	34794.40
664.45	34679.72
664.59	34665.67
664.73	34565.03
664.88	34838.87
665.02	34527.58
665.16	34841.21
665.30	34515.88
665.44	34246.72
665.59	34125.01
665.73	34153.10
665.87	34258.42
666.01	34087.56
666.15	34169.48
666.29	34270.12
666.44	34270.12
666.58	33998.62
666.72	34103.95
666.86	34199.91
667.00	34181.18
667.14	34026.71
667.28	33624.14
667.43	33773.93
667.57	33467.32
667.71	33598.39
667.85	33759.89
667.99	33249.65
668.13	33649.88
668.27	33031.98
668.41	33420.51
668.56	33586.69
668.70	33488.38
668.84	33654.56
668.98	33095.18
669.12	32950.06
669.26	33207.52
669.40	33240.29
669.54	32769.84
669.68	33207.52
669.82	33039.00
669.96	32493.66
670.10	32814.31
670.25	32877.51
670.39	32783.88
670.53	32390.67
670.67	32318.12
670.81	32542.81
670.95	32788.56
671.09	32390.67
671.23	32706.65
671.37	32783.88
671.51	32367.27
671.65	32236.20
671.79	32163.64
671.93	31857.03
672.07	32208.11
672.21	31821.92
672.35	31763.41
672.49	31814.90
672.63	32020.87
672.77	31997.46
672.91	31800.86
673.05	31789.16
673.19	31641.70
673.33	31290.62
673.47	31232.11
673.61	31377.22
673.75	31281.26
673.89	30916.14
674.03	31091.68
674.17	30721.87
674.31	31136.15
674.45	31021.46
674.59	30899.75
674.73	31248.49
674.87	30515.90
675.01	30546.33
675.15	30857.62
675.29	30726.55
675.43	30728.89
675.56	30469.09
675.70	30600.16
675.84	30422.28
675.98	29362.02
676.12	29979.92
676.26	29780.98
676.40	29448.62
676.54	29766.93
676.68	29247.33
676.82	29366.70
676.96	29626.50
677.10	29366.70
677.23	28898.59
677.37	28996.90
677.51	29151.37
677.65	29188.82
677.79	28776.89
677.93	29125.63
678.07	28760.50
678.21	28416.44
678.34	28577.94
678.48	28645.82
678.62	28362.61
678.76	28348.57
678.90	28322.82
679.04	28332.18
679.18	28308.78
679.31	28030.26
679.45	27985.79
679.59	27367.88
679.73	28009.19
679.87	27557.47
680.00	28030.26
680.14	27454.48
680.28	27360.86
680.42	27264.90
680.56	26962.97
680.70	27145.53
680.83	27578.53
680.97	27096.38
681.11	26927.86
681.25	26574.44
681.39	26902.12
681.52	27131.49
681.66	26944.25
681.80	26665.72
681.94	26359.11
682.07	26801.47
682.21	26249.11
682.35	26258.47
682.49	26333.37
682.62	26099.31
682.76	25818.45
682.90	25729.51
683.04	25881.64
683.17	25804.41
683.31	26061.87
683.45	25853.56
683.59	25565.67
683.72	25317.57
683.86	25336.30
684.00	25055.43
684.13	25455.67
684.27	25275.45
684.41	24982.88
684.55	25153.74
684.68	25003.94
684.82	24549.88
684.96	24828.40
685.09	24711.38
685.23	24301.78
685.37	24311.14
685.50	24332.21
685.64	24271.36
685.78	24182.42
685.91	23873.46
686.05	24020.92
686.19	24123.90
686.32	23562.17
686.46	23903.89
686.60	23358.55
686.73	23480.25
686.87	23178.33
687.01	23459.19
687.14	23274.29
687.28	23000.44
687.42	22988.74
687.55	22632.98
687.69	22927.89
687.82	22841.29
687.96	23070.66
688.10	22621.28
688.23	22317.01
688.37	22389.56
688.50	22462.12
688.64	22431.69
688.78	22321.69
688.91	21867.63
689.05	22258.49
689.18	21933.16
689.32	21750.60
689.46	21759.96
689.59	22047.85
689.73	21912.10
689.86	21654.64
690.00	21921.46
690.13	21762.30
690.27	21579.74
690.41	21558.67
690.54	20985.24
690.68	21174.83
690.81	21132.70
690.95	20933.75
691.08	20788.64
691.22	21345.69
691.35	20826.09
691.49	20795.66
691.62	20893.96
691.76	20547.56
691.89	20568.63
692.03	20407.13
692.16	19929.66
692.30	20566.29
692.43	20367.34
692.57	19826.68
692.70	20219.89
692.84	20070.09
692.97	19765.82
693.11	19585.60
693.24	19702.63
693.38	19908.60
693.51	19274.31
693.65	19487.30
693.78	19452.19
693.92	19323.46
694.05	19393.68
694.19	19374.95
694.32	19180.69
694.45	19248.57
694.59	18995.79
694.72	18780.46
694.86	18948.98
694.99	18558.11
695.13	18649.39
695.26	18609.60
695.39	18122.77
695.53	18218.73
695.66	18448.10
695.80	18412.99
695.93	18246.82
696.07	18192.98
696.20	18195.32
696.33	18050.21
696.47	17982.34
696.60	17940.21
696.73	17830.20
696.87	17713.17
697.00	17589.13
697.14	17930.84
697.27	17256.77
697.40	17804.46
697.54	17163.15
697.67	16931.44
697.80	17184.21
697.94	17067.19
698.07	17228.68
698.21	16875.26
698.34	17139.74
698.47	16931.44
698.61	16531.20
698.74	16711.42
698.87	16449.28
699.01	16231.62
699.14	16123.95
699.27	16269.06
699.40	16201.19
699.54	16142.67
699.67	15941.39
699.80	15932.03
699.94	15932.03
700.07	16023.31
700.20	15868.83
700.34	15683.93
700.47	15719.04
700.60	15744.78
700.73	15878.19
700.87	15791.59
701.00	15185.40
701.13	15208.80
701.26	15262.63
701.40	15477.96
701.53	15187.74
701.66	15260.29
701.79	15009.86
701.93	15082.41
702.06	14815.59
702.19	14633.03
702.32	14813.25
702.46	14497.28
702.59	14803.89
702.72	14836.66
702.85	14728.99
702.99	14714.95
703.12	14696.22
703.25	14396.64
703.38	14551.11
703.51	14539.41
703.65	14368.55
703.78	14431.74
703.91	14143.86
704.04	14040.87
704.17	14040.87
704.31	13963.64
704.44	13612.56
704.57	13425.31
704.70	13514.25
704.83	13294.24
704.96	13547.02
705.10	13584.47
705.23	13825.54
>>>>>End Processed Spectral Data<<<<<
