SpectraSuite Data File
++++++++++++++++++++++++++++++++++++
Date: Fri Oct 25 11:34:41 EDT 2013
User: price-jones
Dark Spectrum Present: No
Reference Spectrum Present: No
Number of Sampled Component Spectra: 1
Spectrometers: USB2+H05261
Integration Time (usec): 100000 (USB2+H05261)
Spectra Averaged: 1 (USB2+H05261)
Boxcar Smoothing: 0 (USB2+H05261)
Correct for Electrical Dark: No (USB2+H05261)
Strobe/Lamp Enabled: No (USB2+H05261)
Correct for Detector Non-linearity: No (USB2+H05261)
Correct for Stray Light: No (USB2+H05261)
Number of Pixels in Processed Spectrum: 2048
>>>>>Begin Processed Spectral Data<<<<<
365.73	313.63
365.92	313.63
366.12	313.63
366.32	220.01
366.52	159.16
366.72	163.84
366.91	170.86
367.11	166.18
367.31	205.97
367.51	124.05
367.70	229.37
367.90	220.01
368.10	217.67
368.30	194.26
368.49	117.03
368.69	131.07
368.89	227.03
369.09	198.95
369.28	215.33
369.48	180.22
369.68	205.97
369.87	243.42
370.07	196.60
370.27	262.14
370.47	362.78
370.66	463.43
370.86	496.19
371.06	547.69
371.25	484.49
371.45	470.45
371.65	610.88
371.84	526.62
372.04	449.38
372.24	564.07
372.44	564.07
372.63	538.32
372.83	568.75
373.03	557.05
373.22	564.07
373.42	571.09
373.62	580.45
373.81	610.88
374.01	643.65
374.21	592.16
374.40	627.26
374.60	627.26
374.79	638.97
374.99	676.41
375.19	587.47
375.38	669.39
375.58	657.69
375.78	664.71
375.97	599.18
376.17	763.01
376.37	655.35
376.56	638.97
376.76	648.33
376.95	699.82
377.15	653.01
377.35	589.82
377.54	660.03
377.74	648.33
377.93	678.76
378.13	667.05
378.33	662.37
378.52	678.76
378.72	650.67
378.91	702.16
379.11	727.91
379.31	711.52
379.50	650.67
379.70	674.07
379.89	683.44
380.09	695.14
380.28	800.46
380.48	730.25
380.68	706.84
380.87	763.01
381.07	725.57
381.26	716.20
381.46	767.70
381.65	737.27
381.85	711.52
382.04	760.67
382.24	737.27
382.43	763.01
382.63	688.12
382.83	720.88
383.02	746.63
383.22	809.83
383.41	758.33
383.61	861.32
383.80	842.59
384.00	734.93
384.19	760.67
384.39	844.93
384.58	779.40
384.78	863.66
384.97	809.83
385.17	858.98
385.36	786.42
385.56	809.83
385.75	741.95
385.95	819.19
386.14	854.30
386.34	786.42
386.53	901.11
386.72	847.27
386.92	910.47
387.11	828.55
387.31	854.30
387.50	873.02
387.70	835.57
387.89	849.61
388.09	863.66
388.28	910.47
388.48	919.83
388.67	968.98
388.86	870.68
389.06	833.23
389.25	940.90
389.45	896.43
389.64	884.72
389.84	936.21
390.03	926.85
390.22	940.90
390.42	924.51
390.61	999.41
390.81	821.53
391.00	1001.75
391.19	1057.92
391.39	1046.22
391.58	1041.54
391.78	1076.65
391.97	1013.45
392.16	1008.77
392.36	1036.86
392.55	1025.15
392.75	1008.77
392.94	966.64
393.13	1025.15
393.33	961.96
393.52	1114.10
393.71	1109.41
393.91	1050.90
394.10	1041.54
394.29	1088.35
394.49	1041.54
394.68	1064.94
394.88	1067.28
395.07	1118.78
395.26	1074.31
395.46	1137.50
395.65	1123.46
395.84	1139.84
396.04	1135.16
396.23	1186.65
396.42	1076.65
396.62	1158.57
396.81	1198.35
397.00	1219.42
397.19	1231.12
397.39	1188.99
397.58	1270.91
397.77	1146.86
397.97	1151.54
398.16	1203.04
398.35	1193.67
398.55	1193.67
398.74	1256.87
398.93	1240.48
399.12	1261.55
399.32	1338.79
399.51	1313.04
399.70	1280.27
399.90	1301.34
400.09	1284.95
400.28	1310.70
400.47	1270.91
400.67	1364.53
400.86	1334.11
401.05	1336.45
401.24	1334.11
401.44	1420.71
401.63	1383.26
401.82	1423.05
402.01	1418.36
402.21	1458.15
402.40	1490.92
402.59	1409.00
402.78	1523.69
402.97	1474.54
403.17	1455.81
403.36	1514.33
403.55	1533.05
403.74	1526.03
403.93	1504.96
404.13	1589.22
404.32	1561.14
404.51	1584.54
404.70	1542.41
404.89	1614.97
405.09	1533.05
405.28	1549.43
405.47	1591.56
405.66	1589.22
405.85	1727.32
406.05	1687.53
406.24	1607.95
406.43	1680.50
406.62	1732.00
406.81	1767.10
407.00	1699.23
407.20	1689.87
407.39	1617.31
407.58	1724.97
407.77	1788.17
407.96	1760.08
408.15	1816.26
408.34	1764.76
408.54	1846.68
408.73	1827.96
408.92	1806.89
409.11	1757.74
409.30	1893.49
409.49	1902.86
409.68	1842.00
409.87	1944.99
410.07	1982.43
410.26	1891.15
410.45	2022.22
410.64	1977.75
410.83	2012.86
411.02	1966.05
411.21	2005.84
411.40	2036.27
411.59	2134.57
411.78	2057.33
411.98	1966.05
412.17	2181.38
412.36	2153.29
412.55	2073.71
412.74	2160.31
412.93	2183.72
413.12	2162.66
413.31	2354.58
413.50	2237.55
413.69	2317.13
413.88	2338.20
414.07	2417.77
414.26	2478.63
414.45	2352.24
414.64	2445.86
414.83	2441.18
415.02	2448.20
415.22	2595.65
415.41	2537.14
415.60	2497.35
415.79	2492.67
415.98	2565.23
416.17	2586.29
416.36	2672.89
416.55	2530.12
416.74	2752.47
416.93	2527.78
417.12	2686.94
417.31	2668.21
417.50	2525.44
417.69	2820.35
417.88	2832.05
418.07	2827.37
418.26	2722.04
418.45	2780.56
418.64	2916.31
418.83	2967.80
419.02	2909.29
419.21	2970.14
419.39	2918.65
419.58	2967.80
419.77	2857.79
419.96	3038.02
420.15	2995.89
420.34	3136.32
420.53	2974.82
420.72	3150.36
420.91	3035.67
421.10	3096.53
421.29	3206.53
421.48	3089.51
421.67	3138.66
421.86	3087.17
422.05	3185.47
422.24	3274.41
422.43	3229.94
422.61	3281.43
422.80	3166.74
422.99	3159.72
423.18	3321.22
423.37	3201.85
423.56	3274.41
423.75	3246.32
423.94	3321.22
424.13	2928.01
424.32	3169.09
424.50	3363.35
424.69	3201.85
424.88	3265.05
425.07	3208.87
425.26	3096.53
425.45	3183.13
425.64	3204.19
425.83	3080.14
426.01	3403.14
426.20	3251.00
426.39	3396.12
426.58	3281.43
426.77	3316.54
426.96	3349.31
427.15	3346.97
427.33	3400.80
427.52	3396.12
427.71	3435.91
427.90	3417.18
428.09	3559.95
428.28	3482.72
428.46	3400.80
428.65	3583.36
428.84	3611.45
429.03	3581.02
429.22	3574.00
429.40	3590.38
429.59	3513.14
429.78	3492.08
429.97	3356.33
430.16	3531.87
430.34	3665.28
430.53	3569.32
430.72	3740.18
430.91	3831.46
431.10	3590.38
431.28	3693.37
431.47	3789.33
431.66	3653.58
431.85	3798.69
432.03	3770.60
432.22	3843.16
432.41	3899.33
432.60	3749.54
432.79	3803.37
432.97	3857.20
433.16	3889.97
433.35	3836.14
433.54	3852.52
433.72	3925.08
433.91	3878.27
434.10	3957.85
434.28	3899.33
434.47	4100.62
434.66	3997.64
434.85	4147.43
435.03	3971.89
435.22	4079.55
435.41	4248.07
435.59	4149.77
435.78	4131.05
435.97	4283.18
436.16	4208.28
436.34	4217.65
436.53	4229.35
436.72	4290.20
436.90	4212.96
437.09	4337.01
437.28	4278.50
437.46	4280.84
437.65	4440.00
437.84	4463.40
438.02	4322.97
438.21	4358.08
438.40	4301.90
438.58	4512.55
438.77	4435.32
438.96	4428.29
439.14	4507.87
439.33	4587.45
439.52	4723.20
439.70	4685.75
439.89	4645.96
440.08	4709.16
440.26	4889.38
440.45	4727.88
440.63	4830.87
440.82	4826.18
441.01	4884.70
441.19	4919.81
441.38	4985.34
441.57	4915.12
441.75	5071.94
441.94	5317.70
442.12	5116.41
442.31	5107.05
442.50	5114.07
442.68	4924.49
442.87	5214.71
443.05	5165.56
443.24	5247.48
443.43	5313.02
443.61	5284.93
443.80	5355.15
443.98	5401.96
444.17	5036.83
444.35	5275.57
444.54	5364.51
444.73	5310.68
444.91	5219.39
445.10	5420.68
445.28	5336.42
445.47	5408.98
445.65	5226.42
445.84	5226.42
446.02	5460.47
446.21	5603.24
446.39	5331.74
446.58	5371.53
446.77	5366.85
446.95	5210.03
447.14	5509.62
447.32	5329.40
447.51	5324.72
447.69	5530.69
447.88	5408.98
448.06	5453.45
448.25	5518.98
448.43	5502.60
448.62	5425.36
448.80	5266.21
448.99	5612.60
449.17	5497.92
449.36	5458.13
449.54	5738.99
449.73	5764.74
449.91	5767.08
450.10	5654.73
450.28	5832.62
450.46	5895.81
450.65	5767.08
450.83	5893.47
451.02	5867.72
451.20	5987.09
451.39	5830.27
451.57	5846.66
451.76	5776.44
451.94	5891.13
452.13	6003.47
452.31	6066.67
452.49	5909.85
452.68	6015.18
452.86	6136.88
453.05	6015.18
453.23	6157.95
453.42	6003.47
453.60	6026.88
453.78	6078.37
453.97	5966.03
454.15	6164.97
454.34	5898.15
454.52	6153.27
454.70	6200.08
454.89	6146.25
455.07	6340.51
455.26	6277.32
455.44	6338.17
455.62	6321.79
455.81	6370.94
455.99	6462.22
456.17	6377.96
456.36	6422.43
456.54	6464.56
456.73	6593.29
456.91	6658.82
457.09	6525.41
457.28	6813.30
457.46	6717.34
457.64	6789.89
457.83	6642.44
458.01	6527.75
458.19	6813.30
458.38	6733.72
458.56	6672.87
458.74	6986.50
458.93	6710.32
459.11	6717.34
459.29	6696.27
459.48	6960.75
459.66	6913.94
459.84	6995.86
460.03	6988.84
460.21	6972.46
460.39	6958.41
460.57	7213.53
460.76	7108.21
460.94	7199.49
461.12	7185.44
461.31	7129.27
461.49	7037.99
461.67	7157.36
461.85	7353.96
462.04	7150.34
462.22	7637.17
462.40	7405.46
462.59	7356.30
462.77	7382.05
462.95	7255.66
463.13	7225.23
463.32	7323.54
463.50	7527.16
463.68	7538.87
463.86	7571.63
464.05	7555.25
464.23	7557.59
464.41	7543.55
464.59	7288.43
464.78	7688.66
464.96	7576.31
465.14	7517.80
465.32	7665.25
465.50	7585.68
465.69	7763.56
465.87	7571.63
466.05	7536.52
466.23	7719.09
466.41	7721.43
466.60	8063.15
466.78	7740.15
466.96	7632.49
467.14	7651.21
467.32	7840.79
467.51	7908.67
467.69	7653.55
467.87	7936.76
468.05	7852.50
468.23	7925.05
468.41	7826.75
468.60	8114.64
468.78	8098.25
468.96	7948.46
469.14	8138.04
469.32	8154.43
469.50	8016.33
469.69	8325.29
469.87	8152.09
470.05	8266.77
470.23	8283.16
470.41	8231.66
470.59	8439.97
470.77	8484.44
470.95	8306.56
471.14	8538.27
471.32	8362.73
471.50	8685.73
471.68	8540.61
471.86	8627.21
472.04	8648.28
472.22	8858.93
472.40	8636.58
472.58	8720.84
472.77	8975.95
472.95	8865.95
473.13	9200.65
473.31	8854.25
473.49	9266.18
473.67	8741.90
473.85	9114.05
474.03	9149.15
474.21	9172.56
474.39	9238.09
474.57	9305.97
474.75	9394.91
474.93	9451.08
475.12	9298.95
475.30	9481.51
475.48	9298.95
475.66	9486.19
475.84	9322.35
476.02	9774.08
476.20	9680.46
476.38	9940.26
476.56	9951.96
476.74	10024.51
476.92	10136.86
477.10	10150.90
477.28	10345.17
477.46	9949.62
477.64	10134.52
477.82	10352.19
478.00	10532.41
478.18	10448.15
478.36	10455.17
478.54	10700.93
478.72	10658.80
478.90	10801.57
479.08	11000.52
479.26	10972.43
479.44	11131.59
479.62	11077.76
479.80	11372.66
479.98	11405.43
480.16	11634.80
480.34	11253.30
480.52	11396.07
480.70	11700.34
480.88	11330.53
481.06	11751.83
481.24	11669.91
481.41	12112.27
481.59	12180.15
481.77	11836.09
481.95	12294.83
482.13	12390.80
482.31	12051.42
482.49	12603.78
482.67	12439.95
482.85	12606.13
483.03	12861.24
483.21	12819.11
483.39	13032.10
483.57	12947.84
483.74	13121.04
483.92	13500.21
484.10	13231.05
484.28	13371.48
484.46	13542.34
484.64	13689.79
484.82	13455.74
485.00	13919.17
485.18	14143.86
485.35	14448.13
485.53	14288.97
485.71	14279.61
485.89	14403.66
486.07	14317.06
486.25	14537.07
486.43	14434.08
486.61	14855.38
486.78	14916.23
486.96	14949.00
487.14	15229.87
487.32	15332.85
487.50	15489.67
487.68	15241.57
487.85	15466.26
488.03	15744.78
488.21	15847.77
488.39	15751.81
488.57	16175.44
488.75	16168.42
488.92	16819.09
489.10	16617.80
489.28	16346.30
489.46	16973.56
489.64	16723.13
489.81	16954.84
489.99	17233.36
490.17	17067.19
490.35	17298.90
490.53	17385.50
490.70	17458.06
490.88	17582.10
491.06	17788.07
491.24	17678.07
491.41	18132.13
491.59	17975.31
491.77	17930.84
491.95	18272.56
492.13	18443.42
492.30	18434.06
492.48	18373.21
492.66	19089.41
492.84	18743.01
493.01	18911.53
493.19	19089.41
493.37	18920.89
493.54	19145.58
493.72	19686.25
493.90	19269.63
494.08	19590.28
494.25	19957.75
494.43	19765.82
494.61	19875.83
494.79	20034.99
494.96	20079.46
495.14	20201.16
495.32	20285.42
495.49	20245.63
495.67	20641.18
495.85	20498.41
496.02	20795.66
496.20	21231.00
496.38	21631.23
496.55	21261.43
496.73	21418.24
496.91	20975.88
497.09	21607.83
497.26	21507.18
497.44	21469.73
497.62	21722.51
497.79	22314.67
497.97	21771.66
498.14	22396.59
498.32	22373.18
498.50	22375.52
498.67	22625.96
498.85	22551.06
499.03	22593.19
499.20	22855.33
499.38	23185.35
499.56	22965.34
499.73	23080.02
499.91	23438.12
500.08	23639.41
500.26	23098.75
500.44	23337.48
500.61	23363.23
500.79	23283.65
500.97	23604.30
501.14	23838.36
501.32	23901.55
501.49	23962.40
501.67	23887.51
501.84	24175.39
502.02	23711.97
502.20	23985.81
502.37	24175.39
502.55	24297.10
502.72	24482.00
502.90	24306.46
503.07	24407.11
503.25	24364.98
503.43	24577.97
503.60	25036.71
503.78	24999.26
503.95	24610.73
504.13	24835.42
504.30	25188.85
504.48	25177.14
504.65	25509.50
504.83	25577.37
505.01	25652.27
505.18	25401.83
505.36	25621.84
505.53	25296.51
505.71	25790.36
505.88	25893.35
506.06	25610.14
506.23	26155.49
506.41	26001.01
506.58	26108.68
506.76	26129.74
506.93	26284.22
507.11	26160.17
507.28	26544.02
507.46	26441.03
507.63	26569.76
507.81	26934.88
507.98	26761.69
508.16	26864.67
508.33	26698.49
508.50	27126.81
508.68	26855.31
508.85	27576.19
509.03	27159.58
509.20	27491.93
509.38	27552.79
509.55	27845.35
509.73	27564.49
509.90	27695.56
510.08	27697.90
510.25	28147.28
510.42	27768.12
510.60	28100.47
510.77	28219.84
510.95	28573.26
511.12	28231.54
511.30	28259.63
511.47	28175.37
511.64	28142.60
511.82	28629.43
511.99	28922.00
512.17	28833.06
512.34	28629.43
512.51	29261.38
512.69	29158.39
512.86	29198.18
513.04	28978.17
513.21	29301.17
513.38	29441.60
513.56	29209.89
513.73	29486.07
513.90	29378.40
514.08	29448.62
514.25	29909.71
514.43	29708.42
514.60	29652.25
514.77	29764.59
514.95	30052.48
515.12	29926.09
515.29	29694.38
515.47	29972.90
515.64	29993.97
515.81	29989.28
515.99	30272.49
516.16	30354.41
516.33	30555.69
516.51	30511.22
516.68	30272.49
516.85	30581.44
517.03	30927.84
517.20	30965.29
517.37	30597.82
517.54	30984.01
517.72	30951.24
517.89	31187.64
518.06	30991.03
518.24	31044.87
518.41	30993.37
518.58	30838.90
518.75	31304.67
518.93	31751.71
519.10	31309.35
519.27	31374.88
519.45	32004.49
519.62	31665.11
519.79	31988.10
519.96	31852.35
520.14	31899.16
520.31	31831.29
520.48	32088.74
520.65	32121.51
520.83	32268.97
521.00	32486.64
521.17	32343.86
521.34	32346.20
521.52	32570.90
521.69	32591.96
521.86	32488.98
522.03	32912.61
522.20	32821.33
522.38	33043.68
522.55	32875.16
522.72	33057.73
522.89	33013.26
523.07	33156.03
523.24	33237.95
523.41	33259.01
523.58	33282.42
523.75	33535.20
523.92	33338.59
524.10	33497.75
524.27	33783.29
524.44	33921.38
524.61	33696.69
524.78	33696.69
524.96	33687.33
525.13	33804.36
525.30	34185.86
525.47	34368.43
525.64	33982.24
525.81	34181.18
525.98	34190.55
526.16	34010.32
526.33	33663.93
526.50	34448.00
526.67	34139.05
526.84	34244.38
527.01	34422.26
527.18	34560.35
527.36	34873.98
527.53	34831.85
527.70	35168.89
527.87	35178.25
528.04	35012.07
528.21	34888.03
528.38	34478.43
528.55	35243.79
528.72	34991.01
528.89	35005.05
529.07	35056.54
529.24	34637.59
529.41	35201.66
529.58	35536.35
529.75	35086.97
529.92	35709.55
530.09	35510.61
530.26	35997.44
530.43	35704.87
530.60	35243.79
530.77	35604.23
530.94	35824.24
531.11	35484.86
531.28	35859.35
531.46	36018.50
531.63	35964.67
531.80	36100.42
531.97	36416.40
532.14	36238.51
532.31	36086.38
532.48	36151.91
532.65	36456.18
532.82	35585.50
532.99	36362.56
533.16	36142.55
533.33	36622.36
533.50	36437.46
533.67	36613.00
533.84	36491.29
534.01	36844.71
534.18	37069.40
534.35	36713.64
534.52	36903.23
534.69	36961.74
534.86	36772.16
535.03	36804.92
535.20	37357.29
535.37	37500.06
535.54	37191.11
535.71	37148.98
535.88	37308.14
536.05	37479.00
536.22	37701.35
536.38	37401.76
536.55	37411.12
536.72	37266.01
536.89	37111.53
537.06	37390.06
537.23	37523.47
537.40	37764.54
537.57	37537.51
537.74	37640.50
537.91	37963.49
538.08	37675.60
538.25	37596.03
538.42	37677.94
538.59	38244.35
538.75	38096.90
538.92	38148.39
539.09	38202.22
539.26	38031.36
539.43	38082.86
539.60	38115.62
539.77	38394.15
539.94	38234.99
540.11	38164.78
540.28	38440.96
540.44	38672.67
540.61	38284.14
540.78	38506.49
540.95	38485.43
541.12	38529.90
541.29	38384.79
541.46	38721.82
541.62	38808.42
541.79	38946.51
541.96	38864.60
542.13	39009.71
542.30	39260.15
542.47	39119.71
542.63	38983.96
542.80	39037.80
542.97	39646.33
543.14	39363.13
543.31	39407.60
543.48	39365.47
543.64	40027.84
543.81	39744.64
543.98	40098.06
544.15	39178.23
544.32	39452.07
544.48	39920.18
544.65	39346.75
544.82	39690.80
544.99	39564.42
545.16	39739.96
545.32	39929.54
545.49	39906.13
545.66	40465.52
545.83	40086.36
546.00	39915.50
546.16	40060.61
546.33	40350.84
546.50	40449.14
546.67	40236.15
546.83	39828.90
547.00	40219.77
547.17	40528.72
547.34	40414.03
547.50	40456.16
547.67	40917.25
547.84	40673.83
548.00	40289.98
548.17	40889.16
548.34	40524.04
548.51	40142.53
548.67	40828.30
548.84	40818.94
549.01	41027.25
549.18	41027.25
549.34	40603.61
549.51	41055.34
549.68	40652.76
549.84	40954.69
550.01	40870.43
550.18	40627.02
550.34	41060.02
550.51	40954.69
550.68	41539.83
550.84	40978.10
551.01	41343.22
551.18	40938.31
551.34	41130.23
551.51	40889.16
551.68	41392.37
551.84	41233.22
552.01	40966.40
552.18	41263.64
552.34	41104.49
552.51	42267.73
552.68	41338.54
552.84	41425.14
553.01	41808.99
553.18	41500.04
553.34	41504.72
553.51	41415.78
553.67	41684.94
553.84	42061.77
554.01	42094.53
554.17	41720.05
554.34	42129.64
554.51	42024.32
554.67	42356.67
554.84	42277.10
555.00	41858.14
555.17	41743.45
555.33	42630.52
555.50	42080.49
555.67	42033.68
555.83	42239.65
556.00	42471.36
556.16	42808.40
556.33	42323.91
556.50	42321.57
556.66	41933.04
556.83	42431.57
556.99	42679.67
557.16	42454.98
557.32	42663.28
557.49	42806.06
557.65	42092.19
557.82	42733.50
557.98	42520.51
558.15	42595.41
558.32	42391.78
558.48	42003.25
558.65	42478.38
558.81	42600.09
558.98	42909.04
559.14	43124.37
559.31	42637.54
559.47	42373.06
559.64	42859.89
559.80	43332.68
559.97	42719.46
560.13	42321.57
560.30	42864.57
560.46	42930.11
560.63	43115.01
560.79	42995.64
560.96	43482.47
561.12	43433.32
561.29	42948.83
561.45	42902.02
561.61	43103.31
561.78	42934.79
561.94	43208.63
562.11	43117.35
562.27	43288.21
562.44	43398.21
562.60	43503.54
562.77	43206.29
562.93	42880.95
563.10	43634.61
563.26	43323.32
563.42	43803.13
563.59	42906.70
563.75	43136.07
563.92	43342.04
564.08	43435.66
564.24	43393.53
564.41	43166.50
564.57	43695.46
564.74	43271.82
564.90	43517.58
565.07	43517.58
565.23	43711.84
565.39	43672.06
565.56	43683.76
565.72	43192.25
565.88	44144.84
566.05	43552.69
566.21	43805.47
566.38	43707.16
566.54	43714.19
566.70	43714.19
566.87	43810.15
567.03	43580.78
567.19	43819.51
567.36	43613.54
567.52	43789.08
567.68	44177.61
567.85	43856.96
568.01	43824.19
568.17	43576.09
568.34	43863.98
568.50	43906.11
568.66	43896.75
568.83	43992.71
568.99	43887.39
569.15	44065.27
569.32	44006.75
569.48	43601.84
569.64	44039.52
569.81	43988.03
569.97	44123.78
570.13	43786.74
570.30	43681.42
570.46	43941.22
570.62	44378.90
570.78	43856.96
570.95	43976.33
571.11	44395.28
571.27	44325.07
571.43	43772.70
571.60	43569.07
571.76	43606.52
571.92	44236.12
572.09	43950.58
572.25	44093.35
572.41	44369.54
572.57	44172.93
572.74	44360.17
572.90	44502.95
573.06	44385.92
573.22	44334.43
573.38	44418.69
573.55	44257.19
573.71	44432.73
573.87	44236.12
574.03	44261.87
574.20	44268.89
574.36	44676.15
574.52	44463.16
574.68	44912.54
574.84	44545.08
575.01	44722.96
575.17	44538.05
575.33	44561.46
575.49	44109.74
575.65	44699.55
575.82	44545.08
575.98	44151.87
576.14	44701.89
576.30	44666.78
576.46	44772.11
576.62	44210.38
576.79	44395.28
576.95	43885.04
577.11	44238.47
577.27	44638.70
577.43	44758.06
577.59	45067.02
577.75	44467.84
577.92	44140.16
578.08	44383.58
578.24	45055.31
578.40	44854.03
578.56	44982.76
578.72	44701.89
578.88	44877.43
579.04	44687.85
579.21	44327.41
579.37	44467.84
579.53	44507.63
579.69	44472.52
579.85	44259.53
580.01	44622.31
580.17	44215.06
580.33	44577.84
580.49	44624.65
580.65	44718.28
580.82	44449.11
580.98	44786.15
581.14	44783.81
581.30	44292.30
581.46	44533.37
581.62	44488.90
581.78	44311.02
581.94	44814.24
582.10	44175.27
582.26	44713.59
582.42	45017.86
582.58	44825.94
582.74	44949.99
582.90	44671.46
583.06	45277.66
583.22	44570.82
583.38	44978.07
583.54	44341.45
583.70	44676.15
583.86	44949.99
584.02	44844.66
584.18	44947.65
584.34	44996.80
584.50	44968.71
584.66	44652.74
584.82	44514.65
584.98	45617.04
585.14	44701.89
585.30	44509.97
585.46	44507.63
585.62	44720.62
585.78	44479.54
585.94	44493.58
586.10	44844.66
586.26	44816.58
586.42	44559.12
586.58	44821.26
586.74	44755.72
586.90	44598.91
587.06	44797.85
587.22	45029.57
587.38	44587.21
587.54	45401.71
587.70	45291.71
587.86	45160.64
588.02	44694.87
588.18	44495.92
588.34	44751.04
588.49	45191.06
588.65	44847.00
588.81	45003.82
588.97	44891.48
589.13	44722.96
589.29	44971.05
589.45	45488.31
589.61	45034.25
589.77	45132.55
589.93	45198.09
590.08	45104.46
590.24	45642.79
590.40	45467.25
590.56	44971.05
590.72	45516.40
590.88	44964.03
591.04	44926.58
591.20	45310.43
591.35	45600.66
591.51	45165.32
591.67	45408.73
591.83	45457.88
591.99	45680.24
592.15	45291.71
592.31	45265.96
592.46	45390.01
592.62	45352.56
592.78	45446.18
592.94	45607.68
593.10	45560.87
593.26	45591.30
593.41	45696.62
593.57	45481.29
593.73	45572.57
593.89	45750.45
594.05	46038.34
594.20	45478.95
594.36	45921.31
594.52	45935.35
594.68	45595.98
594.84	45270.64
594.99	45734.07
595.15	45422.78
595.31	45752.79
595.47	45579.59
595.62	45600.66
595.78	45645.13
595.94	45734.07
596.10	45727.05
596.25	45420.44
596.41	45612.36
596.57	45645.13
596.73	46012.59
596.88	45315.11
597.04	45743.43
597.20	45560.87
597.36	45481.29
597.51	45904.93
597.67	45619.38
597.83	45422.78
597.99	45654.49
598.14	45448.52
598.30	45612.36
598.46	45268.30
598.61	45752.79
598.77	45614.70
598.93	46059.40
599.09	45635.77
599.24	46150.68
599.40	45825.35
599.56	45804.28
599.71	46141.32
599.87	45691.94
600.03	46033.66
600.18	45935.35
600.34	45530.44
600.50	45830.03
600.65	45478.95
600.81	46171.75
600.97	45708.32
601.12	45813.65
601.28	45738.75
601.44	45635.77
601.59	45572.57
601.75	45715.34
601.91	46089.83
602.06	45909.61
602.22	45893.22
602.37	45523.42
602.53	45654.49
602.69	45565.55
602.84	45460.23
603.00	45443.84
603.16	45764.49
603.31	46031.32
603.47	45780.88
603.62	45652.15
603.78	46293.46
603.94	45893.22
604.09	45771.52
604.25	45563.21
604.40	45668.53
604.56	45895.56
604.71	46005.57
604.87	45308.09
605.03	45413.41
605.18	45607.68
605.34	45937.69
605.49	45572.57
605.65	45682.58
605.80	45654.49
605.96	45352.56
606.12	45588.95
606.27	45724.71
606.43	45530.44
606.58	45488.31
606.74	45794.92
606.89	45858.12
607.05	45724.71
607.20	45963.44
607.36	45783.22
607.51	45413.41
607.67	45315.11
607.82	45284.68
607.98	45310.43
608.13	45645.13
608.29	45294.05
608.44	45773.86
608.60	45268.30
608.75	45673.21
608.91	45179.36
609.06	45022.54
609.22	45523.42
609.37	45511.72
609.53	45345.54
609.68	45525.76
609.84	45617.04
609.99	45462.57
610.15	45563.21
610.30	45766.84
610.46	45270.64
610.61	45457.88
610.76	45390.01
610.92	45031.91
611.07	44552.10
611.23	45113.83
611.38	45787.90
611.54	45038.93
611.69	45315.11
611.84	45326.81
612.00	45450.86
612.15	45233.19
612.31	45242.56
612.46	44926.58
612.62	44828.28
612.77	44877.43
612.92	45041.27
613.08	44938.29
613.23	44886.79
613.39	45366.60
613.54	45132.55
613.69	45432.14
613.85	45130.21
614.00	44994.46
614.15	45420.44
614.31	44339.11
614.46	44926.58
614.62	44919.56
614.77	44634.02
614.92	44753.38
615.08	45322.13
615.23	44839.98
615.38	45078.72
615.54	44821.26
615.69	44999.14
615.84	44641.04
616.00	45125.53
616.15	44889.13
616.30	44802.53
616.46	44861.05
616.61	44816.58
616.76	44940.63
616.92	44715.93
617.07	45357.24
617.22	44353.15
617.37	44378.90
617.53	44325.07
617.68	45120.85
617.83	44556.78
617.99	45064.67
618.14	44734.66
618.29	44858.71
618.45	44322.72
618.60	44404.64
618.75	44521.67
618.90	44334.43
619.06	44788.49
619.21	44540.39
619.36	44528.69
619.51	44336.77
619.67	44575.50
619.82	44210.38
619.97	44868.07
620.12	44194.00
620.28	44032.50
620.43	44395.28
620.58	44460.82
620.73	44402.30
620.89	44594.23
621.04	44439.75
621.19	44458.48
621.34	44257.19
621.49	43915.47
621.65	44343.79
621.80	44519.33
621.95	44343.79
622.10	44076.97
622.25	43863.98
622.41	44313.36
622.56	44240.81
622.71	43924.83
622.86	44332.09
623.01	44205.70
623.16	44051.22
623.32	43971.64
623.47	44346.13
623.62	44025.48
623.77	43526.94
623.92	43910.79
624.07	43641.63
624.23	43828.87
624.38	44198.68
624.53	43550.35
624.68	43365.45
624.83	43606.52
624.98	43526.94
625.13	43508.22
625.29	43543.33
625.44	43641.63
625.59	43784.40
625.74	43555.03
625.89	43629.93
626.04	43580.78
626.19	43061.18
626.34	43798.44
626.49	43129.05
626.65	43262.46
626.80	43171.18
626.95	42897.34
627.10	43356.08
627.25	43077.56
627.40	43105.65
627.55	43180.54
627.70	43407.58
627.85	43178.20
628.00	43210.97
628.15	43433.32
628.30	43320.98
628.45	42829.46
628.60	42918.40
628.76	42855.21
628.91	42756.91
629.06	42728.82
629.21	42569.66
629.36	42651.58
629.51	42876.27
629.66	43168.84
629.81	42953.51
629.96	43086.92
630.11	42939.47
630.26	42637.54
630.41	42782.65
630.56	42686.69
630.71	43145.44
630.86	42726.48
631.01	42611.79
631.16	42691.37
631.31	42209.22
631.46	42689.03
631.61	42749.88
631.76	42609.45
631.91	42340.29
632.06	43051.81
632.21	43026.07
632.36	42562.64
632.51	42204.54
632.66	42604.77
632.81	42562.64
632.96	42443.27
633.10	42464.34
633.25	42277.10
633.40	41989.21
633.55	42588.39
633.70	42412.85
633.85	41874.52
634.00	42272.42
634.15	42040.70
634.30	42443.27
634.45	42117.94
634.60	42059.43
634.75	42206.88
634.90	42452.64
635.05	42099.22
635.19	42157.73
635.34	42298.16
635.49	41736.43
635.64	42246.67
635.79	42258.37
635.94	41830.05
636.09	42253.69
636.24	41750.48
636.39	41846.44
636.53	42206.88
636.68	41399.40
636.83	41558.55
636.98	41729.41
637.13	41326.84
637.28	41642.81
637.43	41560.89
637.57	41825.37
637.72	41317.48
637.87	41811.33
638.02	41338.54
638.17	41265.99
638.32	41181.73
638.46	41413.44
638.61	41333.86
638.76	41151.30
638.91	41691.96
639.06	41212.15
639.20	40961.72
639.35	41549.19
639.50	40999.16
639.65	41352.58
639.80	40964.06
639.94	41413.44
640.09	41546.85
640.24	41310.46
640.39	40879.80
640.54	40629.36
640.68	41111.51
640.83	41596.00
640.98	41027.25
641.13	40795.54
641.27	41462.59
641.42	40975.76
641.57	40863.41
641.72	41415.78
641.86	40825.96
642.01	40882.14
642.16	40760.43
642.31	40170.61
642.45	40861.07
642.60	41003.85
642.75	40566.16
642.90	40715.96
643.04	40816.60
643.19	40339.13
643.34	40524.04
643.48	40582.55
643.63	40552.12
643.78	40430.41
643.93	40816.60
644.07	40334.45
644.22	41155.98
644.37	40402.33
644.51	40596.59
644.66	41050.66
644.81	40116.78
644.95	40006.78
645.10	40273.60
645.25	40196.36
645.39	40147.21
645.54	40020.82
645.69	40474.88
645.83	40102.74
645.98	40278.28
646.13	40086.36
646.27	40268.92
646.42	39969.33
646.57	40432.75
646.71	40533.40
646.86	40470.20
647.00	39997.41
647.15	40519.35
647.30	40121.46
647.44	40425.73
647.59	39962.31
647.74	40179.98
647.88	40222.11
648.03	40275.94
648.17	40236.15
648.32	39962.31
648.47	40133.17
648.61	40013.80
648.76	39917.84
648.90	39777.40
649.05	39533.99
649.20	39971.67
649.34	39861.66
649.49	39941.24
649.63	40238.49
649.78	39938.90
649.92	40222.11
650.07	40119.12
650.21	39992.73
650.36	39728.25
650.51	39826.56
650.65	40060.61
650.80	39711.87
650.94	39533.99
651.09	39578.46
651.23	39318.66
651.38	39714.21
651.52	39150.14
651.67	39555.05
651.81	39569.10
651.96	38998.01
652.10	38855.23
652.25	39222.70
652.39	39194.61
652.54	39227.38
652.68	39271.85
652.83	39503.56
652.97	39243.76
653.12	39309.30
653.26	39208.65
653.41	38911.41
653.55	39215.68
653.70	39166.52
653.84	39278.87
653.99	39227.38
654.13	38911.41
654.27	38998.01
654.42	38810.76
654.56	38169.46
654.71	38883.32
654.85	38944.17
655.00	38906.73
655.14	38745.23
655.29	39117.37
655.43	39150.14
655.57	38939.49
655.72	38684.37
655.86	38703.10
656.01	38888.00
656.15	38349.68
656.30	38642.24
656.44	38630.54
656.58	38419.89
656.73	38309.89
656.87	38377.76
657.01	38293.50
657.16	38237.33
657.30	38412.87
657.45	38761.61
657.59	38192.86
657.73	38300.53
657.88	38499.47
658.02	39344.41
658.16	38600.12
658.31	38342.66
658.45	38330.95
658.60	37848.80
658.74	38117.96
658.88	37991.58
659.03	38305.21
659.17	37757.52
659.31	37748.16
659.46	37923.70
659.60	38220.95
659.74	38043.07
659.89	37560.92
660.03	37324.52
660.17	37970.51
660.32	37509.43
660.46	37675.60
660.60	37366.65
660.74	37427.51
660.89	37511.77
661.03	37310.48
661.17	37469.64
661.32	37167.71
661.46	37544.53
661.60	37359.63
661.74	37226.22
661.89	37244.94
662.03	37055.36
662.17	37010.89
662.31	37104.51
662.46	37413.46
662.60	36718.32
662.74	36854.08
662.88	36456.18
663.03	36849.39
663.17	36498.31
663.31	36306.39
663.45	36631.72
663.60	37006.21
663.74	36954.72
663.88	36177.66
664.02	36577.89
664.17	36498.31
664.31	35828.92
664.45	35854.67
664.59	35807.86
664.73	36165.96
664.88	36297.03
665.02	35854.67
665.16	35644.02
665.30	35962.33
665.44	36460.87
665.59	35309.32
665.73	35145.48
665.87	35089.31
666.01	35992.76
666.15	35346.77
666.29	35625.29
666.44	35936.59
666.58	35681.47
666.72	35433.37
666.86	35328.05
667.00	35112.72
667.14	35236.77
667.28	35281.24
667.43	35283.58
667.57	35337.41
667.71	35077.61
667.85	35159.53
667.99	35227.40
668.13	34836.53
668.27	34778.02
668.41	34623.54
668.56	34293.53
668.70	34291.19
668.84	34478.43
668.98	34176.50
669.12	34338.00
669.26	34040.75
669.40	34550.99
669.54	34508.86
669.68	34354.38
669.82	34576.73
669.96	33771.59
670.10	33626.48
670.25	34249.06
670.39	34045.43
670.53	34120.33
670.67	33921.38
670.81	34340.34
670.95	33736.48
671.09	33617.11
671.23	33759.89
671.37	33448.60
671.51	33261.35
671.65	33305.82
671.79	33179.43
671.93	33670.95
672.07	33380.72
672.21	33340.93
672.35	33223.90
672.49	33460.30
672.63	33275.40
672.77	32978.15
672.91	32858.78
673.05	32800.27
673.19	32247.90
673.33	32479.61
673.47	32606.00
673.61	32685.58
673.75	32048.96
673.89	32055.98
674.03	31915.54
674.17	32196.41
674.31	32013.85
674.45	31742.35
674.59	31768.09
674.73	32142.58
674.87	31840.65
675.01	31222.75
675.15	31498.93
675.29	31639.36
675.43	31882.78
675.56	31847.67
675.70	31178.28
675.84	31129.12
675.98	30171.85
676.12	30703.15
676.26	31171.25
676.40	30632.93
676.54	30597.82
676.68	30462.07
676.82	30279.51
676.96	30565.06
677.10	30373.13
677.23	30354.41
677.37	30518.25
677.51	29862.90
677.65	30377.81
677.79	29968.22
677.93	30345.05
678.07	29773.95
678.21	29799.70
678.34	29640.54
678.48	29263.72
678.62	29401.81
678.76	29020.30
678.90	29259.04
679.04	29310.53
679.18	29443.94
679.31	29006.26
679.45	29001.58
679.59	29006.26
679.73	28599.01
679.87	28617.73
680.00	28545.17
680.14	28924.34
680.28	28528.79
680.42	28276.01
680.56	27990.47
680.70	28208.14
680.83	28027.92
680.97	27906.21
681.11	27964.72
681.25	27990.47
681.39	27349.16
681.52	27524.70
681.66	27503.64
681.80	27014.46
681.94	26384.86
682.07	26803.82
682.21	27014.46
682.35	26747.64
682.49	26803.82
682.62	27129.15
682.76	26754.66
682.90	26586.15
683.04	26696.15
683.17	26607.21
683.31	26284.22
683.45	26410.60
683.59	25668.66
683.72	26038.46
683.86	25879.30
684.00	25628.87
684.13	25745.89
684.27	25680.36
684.41	25759.94
684.55	25544.61
684.68	25528.22
684.82	25170.12
684.96	25039.05
685.09	25308.21
685.23	25350.34
685.37	25240.34
685.50	25474.39
685.64	25312.89
685.78	24858.83
685.91	24673.93
686.05	24381.36
686.19	23721.33
686.32	24339.23
686.46	24109.86
686.60	23747.08
686.73	24105.18
686.87	23871.12
687.01	24229.23
687.14	23831.33
687.28	23812.61
687.42	23828.99
687.55	23541.11
687.69	23527.06
687.82	23323.44
687.96	23274.29
688.10	23222.80
688.23	23124.49
688.37	23468.55
688.50	23461.53
688.64	23178.33
688.78	22988.74
688.91	22794.48
689.05	22637.66
689.18	22476.16
689.32	22040.82
689.46	22279.56
689.59	22057.21
689.73	22333.39
689.86	22230.41
690.00	22174.24
690.13	22078.27
690.27	21900.39
690.41	22099.34
690.54	21881.67
690.68	21556.33
690.81	21722.51
690.95	21373.77
691.08	20980.56
691.22	21146.74
691.35	21015.67
691.49	21322.28
691.62	20678.63
691.76	21043.76
691.89	20765.23
692.03	20540.54
692.16	20390.75
692.30	20587.35
692.43	20617.78
692.57	20219.89
692.70	19917.96
692.84	20102.86
692.97	19822.00
693.11	20023.28
693.24	19578.58
693.38	19960.09
693.51	19679.22
693.65	19384.32
693.78	19286.01
693.92	19367.93
694.05	19562.20
694.19	19023.87
694.32	19260.27
694.45	19618.37
694.59	19550.49
694.72	19159.63
694.86	19082.39
694.99	18899.83
695.13	18616.62
695.26	18602.58
695.39	18396.61
695.53	18490.23
695.66	18684.50
695.80	18183.62
695.93	18417.68
696.07	18150.85
696.20	17874.67
696.33	17862.97
696.47	17825.52
696.60	17790.41
696.73	18029.15
696.87	17834.88
697.00	17565.72
697.14	17460.40
697.27	17467.42
697.40	17362.09
697.54	17364.43
697.67	16968.88
697.80	17298.90
697.94	17125.70
698.07	17050.80
698.21	17135.06
698.34	16699.72
698.47	16570.99
698.61	15950.75
698.74	16212.89
698.87	16346.30
699.01	16404.81
699.14	16435.24
699.27	16266.72
699.40	16343.96
699.54	15962.45
699.67	16114.59
699.80	16027.99
699.94	15866.49
700.07	15882.88
700.20	15953.09
700.34	15417.11
700.47	15590.31
700.60	15974.16
700.73	15548.18
700.87	15721.38
701.00	15274.34
701.13	15171.35
701.26	14958.36
701.40	15194.76
701.53	14808.57
701.66	14841.34
701.79	14822.61
701.93	14508.98
702.06	14654.09
702.19	14757.08
702.32	14717.29
702.46	14487.92
702.59	14441.11
702.72	14534.73
702.85	14490.26
702.99	14485.58
703.12	14307.69
703.25	14221.10
703.38	13912.14
703.51	14092.37
703.65	13926.19
703.78	13654.69
703.91	13603.19
704.04	13453.40
704.17	13411.27
704.31	13500.21
704.44	13579.79
704.57	13238.07
704.70	13329.35
704.83	13121.04
704.96	13102.32
705.10	13109.34
705.23	13020.40
>>>>>End Processed Spectral Data<<<<<
