SpectraSuite Data File
++++++++++++++++++++++++++++++++++++
Date: Fri Oct 25 10:43:29 EDT 2013
User: price-jones
Dark Spectrum Present: No
Reference Spectrum Present: No
Number of Sampled Component Spectra: 1
Spectrometers: USB2+H05261
Integration Time (usec): 100000 (USB2+H05261)
Spectra Averaged: 1 (USB2+H05261)
Boxcar Smoothing: 0 (USB2+H05261)
Correct for Electrical Dark: No (USB2+H05261)
Strobe/Lamp Enabled: No (USB2+H05261)
Correct for Detector Non-linearity: No (USB2+H05261)
Correct for Stray Light: No (USB2+H05261)
Number of Pixels in Processed Spectrum: 2048
>>>>>Begin Processed Spectral Data<<<<<
365.73	145.11
365.92	145.11
366.12	145.11
366.32	44.47
366.52	4.68
366.72	32.77
366.91	0.00
367.11	0.00
367.31	0.00
367.51	23.41
367.70	44.47
367.90	56.17
368.10	4.68
368.30	30.43
368.49	0.00
368.69	53.83
368.89	77.24
369.09	63.19
369.28	0.00
369.48	67.88
369.68	161.50
369.87	65.54
370.07	0.00
370.27	152.13
370.47	224.69
370.66	416.62
370.86	379.17
371.06	374.49
371.25	421.30
371.45	440.02
371.65	458.74
371.84	416.62
372.04	390.87
372.24	386.19
372.44	461.09
372.63	454.06
372.83	535.98
373.03	484.49
373.22	507.90
373.42	468.11
373.62	543.00
373.81	493.85
374.01	538.32
374.21	575.77
374.40	512.58
374.60	578.11
374.79	613.22
374.99	573.43
375.19	606.20
375.38	589.82
375.58	552.37
375.78	573.43
375.97	690.46
376.17	636.63
376.37	561.73
376.56	664.71
376.76	596.84
376.95	566.41
377.15	620.24
377.35	641.31
377.54	540.66
377.74	650.67
377.93	620.24
378.13	685.78
378.33	676.41
378.52	664.71
378.72	660.03
378.91	702.16
379.11	655.35
379.31	575.77
379.50	599.18
379.70	631.94
379.89	727.91
380.09	629.60
380.28	711.52
380.48	634.29
380.68	744.29
380.87	699.82
381.07	683.44
381.26	741.95
381.46	770.04
381.65	688.12
381.85	685.78
382.04	688.12
382.24	697.48
382.43	746.63
382.63	674.07
382.83	695.14
383.02	737.27
383.22	688.12
383.41	784.08
383.61	692.80
383.80	753.65
384.00	760.67
384.19	767.70
384.39	875.36
384.58	821.53
384.78	833.23
384.97	746.63
385.17	784.08
385.36	837.91
385.56	800.46
385.75	638.97
385.95	849.61
386.14	891.74
386.34	919.83
386.53	830.89
386.72	800.46
386.92	800.46
387.11	919.83
387.31	880.04
387.50	877.70
387.70	784.08
387.89	908.13
388.09	919.83
388.28	840.25
388.48	889.40
388.67	861.32
388.86	966.64
389.06	938.55
389.25	983.02
389.45	1001.75
389.64	1032.18
389.84	957.28
390.03	1123.46
390.22	1008.77
390.42	1022.81
390.61	957.28
390.81	1027.50
391.00	990.05
391.19	1039.20
391.39	1093.03
391.58	987.71
391.78	994.73
391.97	1116.44
392.16	1076.65
392.36	1029.84
392.55	1043.88
392.75	966.64
392.94	983.02
393.13	922.17
393.33	973.66
393.52	994.73
393.71	1109.41
393.91	1076.65
394.10	1123.46
394.29	1158.57
394.49	1153.88
394.68	1219.42
394.88	1186.65
395.07	1240.48
395.26	1219.42
395.46	1186.65
395.65	1224.10
395.84	1247.51
396.04	1242.82
396.23	1160.91
396.42	1130.48
396.62	1151.54
396.81	1252.19
397.00	1219.42
397.19	1233.46
397.39	1291.98
397.58	1383.26
397.77	1303.68
397.97	1397.30
398.16	1387.94
398.35	1350.49
398.55	1409.00
398.74	1474.54
398.93	1568.16
399.12	1547.09
399.32	1502.62
399.51	1565.82
399.70	1521.35
399.90	1509.65
400.09	1582.20
400.28	1621.99
400.47	1591.56
400.67	1636.03
400.86	1699.23
401.05	1631.35
401.24	1673.48
401.44	1629.01
401.63	1685.19
401.82	1783.49
402.01	1722.63
402.21	1694.55
402.40	1776.47
402.59	1685.19
402.78	1605.61
402.97	1673.48
403.17	1776.47
403.36	1865.41
403.55	1853.70
403.74	1839.66
403.93	1952.01
404.13	1778.81
404.32	1790.51
404.51	1867.75
404.70	1914.56
404.89	1774.13
405.09	1902.86
405.28	1900.52
405.47	2005.84
405.66	1996.48
405.85	2001.16
406.05	1900.52
406.24	1980.09
406.43	2024.56
406.62	2057.33
406.81	2040.95
407.00	2155.63
407.20	2031.58
407.39	2115.84
407.58	2073.71
407.77	2200.10
407.96	2157.97
408.15	2239.89
408.34	2218.83
408.54	2200.10
408.73	2267.98
408.92	2368.62
409.11	2312.45
409.30	2267.98
409.49	2174.36
409.68	2312.45
409.87	2162.66
410.07	2267.98
410.26	2420.11
410.45	2230.53
410.64	2396.71
410.83	2511.39
411.02	2443.52
411.21	2630.76
411.40	2525.44
411.59	2504.37
411.78	2612.04
411.98	2600.34
412.17	2663.53
412.36	2640.12
412.55	2700.98
412.74	2736.09
412.93	2677.57
413.12	2642.46
413.31	2785.24
413.50	2885.88
413.69	2778.22
413.88	2850.77
414.07	2782.90
414.26	2883.54
414.45	2909.29
414.64	2864.82
414.83	2974.82
415.02	2981.84
415.22	3080.14
415.41	3155.04
415.60	3194.83
415.79	3129.30
415.98	3365.69
416.17	3131.64
416.36	3269.73
416.55	3157.38
416.74	3258.03
416.93	3185.47
417.12	3267.39
417.31	3295.47
417.50	3295.47
417.69	3339.94
417.88	3400.80
418.07	3449.95
418.26	3485.06
418.45	3454.63
418.64	3513.14
418.83	3550.59
419.02	3541.23
419.21	3644.21
419.39	3471.01
419.58	3449.95
419.77	3524.85
419.96	3585.70
420.15	3726.13
420.34	3566.98
420.53	3672.30
420.72	3777.62
420.91	3831.46
421.10	3714.43
421.29	3733.15
421.48	3810.39
421.67	3950.82
421.86	3824.44
422.05	3749.54
422.24	3840.82
422.43	3812.73
422.61	3847.84
422.80	3983.59
422.99	3894.65
423.18	4016.36
423.37	3915.72
423.56	3908.69
423.75	3871.25
423.94	3730.81
424.13	3740.18
424.32	3634.85
424.50	3908.69
424.69	4046.79
424.88	3934.44
425.07	3920.40
425.26	3885.29
425.45	3784.65
425.64	3875.93
425.83	3927.42
426.01	3901.67
426.20	4002.32
426.39	3960.19
426.58	3815.07
426.77	3864.22
426.96	3969.55
427.15	3971.89
427.33	4056.15
427.52	4140.41
427.71	4166.15
427.90	4170.83
428.09	4252.75
428.28	4156.79
428.46	4074.87
428.65	4198.92
428.84	4210.62
429.03	4311.27
429.22	4011.68
429.40	4072.53
429.59	4175.52
429.78	3887.63
429.97	3885.29
430.16	3969.55
430.34	4219.99
430.53	4161.47
430.72	4189.56
430.91	4152.11
431.10	4217.65
431.28	4477.44
431.47	4566.39
431.66	4589.79
431.85	4423.61
432.03	4554.68
432.22	4674.05
432.41	4704.48
432.60	4638.94
432.79	4828.53
432.97	4690.43
433.16	4695.11
433.35	4755.97
433.54	4578.09
433.72	4603.83
433.91	4667.03
434.10	4688.09
434.28	4709.16
434.47	4765.33
434.66	4894.06
434.85	4868.31
435.03	4835.55
435.22	4833.21
435.41	5078.96
435.59	5039.17
435.78	5088.32
435.97	5046.20
436.16	5102.37
436.34	5153.86
436.53	5156.20
436.72	5221.74
436.90	5107.05
437.09	5259.18
437.28	5076.62
437.46	5170.24
437.65	5142.16
437.84	5277.91
438.02	5198.33
438.21	5235.78
438.40	5167.90
438.58	5394.93
438.77	5331.74
438.96	5301.31
439.14	5626.65
439.33	5465.15
439.52	5568.13
439.70	5774.10
439.89	5680.48
440.08	5776.44
440.26	5589.20
440.45	5621.97
440.63	5778.78
440.82	5921.56
441.01	5874.74
441.19	5797.51
441.38	6038.58
441.57	6162.63
441.75	6237.53
441.94	6366.26
442.12	6061.99
442.31	6345.19
442.50	6356.90
442.68	6150.93
442.87	6319.45
443.05	6214.12
443.24	6434.13
443.43	6272.64
443.61	6389.66
443.80	6572.22
443.98	6457.54
444.17	6253.91
444.35	6532.44
444.54	6682.23
444.73	6574.56
444.91	6410.73
445.10	6335.83
445.28	6539.46
445.47	6363.92
445.65	6263.27
445.84	6289.02
446.02	6525.41
446.21	6452.86
446.39	6541.80
446.58	6604.99
446.77	6569.88
446.95	6527.75
447.14	6668.19
447.32	6778.19
447.51	6654.14
447.69	6766.49
447.88	6738.40
448.06	6619.04
448.25	6642.44
448.43	6747.76
448.62	6679.89
448.80	6803.94
448.99	6747.76
449.17	6822.66
449.36	6654.14
449.54	6897.56
449.73	6923.30
449.91	6927.99
450.10	6953.73
450.28	7229.91
450.46	7194.81
450.65	7056.72
450.83	7098.84
451.02	7166.72
451.20	7283.75
451.39	7133.95
451.57	7122.25
451.76	7150.34
451.94	7171.40
452.13	7358.64
452.31	7126.93
452.49	7157.36
452.68	7115.23
452.86	7133.95
453.05	7318.86
453.23	7213.53
453.42	7283.75
453.60	7243.96
453.78	7248.64
453.97	7190.13
454.15	7358.64
454.34	7405.46
454.52	7447.58
454.70	7405.46
454.89	7386.73
455.07	7527.16
455.26	7705.04
455.44	7634.83
455.62	7754.19
455.81	7637.17
455.99	7721.43
456.17	7808.03
456.36	7487.37
456.54	7948.46
456.73	7873.56
456.91	8243.37
457.09	7878.24
457.28	8336.99
457.46	8013.99
457.64	8009.31
457.83	8039.74
458.01	7777.60
458.19	8140.38
458.38	8182.51
458.56	8161.45
458.74	8201.24
458.93	8116.98
459.11	8149.75
459.29	8107.62
459.48	8290.18
459.66	8264.43
459.84	8292.52
460.03	8435.29
460.21	8355.71
460.39	8463.38
460.57	8610.83
460.76	8479.76
460.94	8510.19
461.12	8519.55
461.31	8606.15
461.49	8613.17
461.67	8613.17
461.85	8753.60
462.04	8594.45
462.22	9202.99
462.40	8807.44
462.59	8908.08
462.77	8896.38
462.95	8959.57
463.13	8685.73
463.32	8889.35
463.50	8987.66
463.68	8905.74
463.86	9095.32
464.05	8926.80
464.23	8697.43
464.41	9116.39
464.59	8683.39
464.78	9107.02
464.96	9043.83
465.14	9083.62
465.32	9158.52
465.50	9146.81
465.69	9322.35
465.87	9259.16
466.05	9254.48
466.23	9121.07
466.41	9104.68
466.60	9301.29
466.78	9153.84
466.96	9191.28
467.14	9273.20
467.32	9270.86
467.51	9207.67
467.69	9153.84
467.87	9355.12
468.05	9448.74
468.23	9301.29
468.41	9474.49
468.60	9568.11
468.78	9603.22
468.96	9378.53
469.14	9776.42
469.32	9572.79
469.50	9315.33
469.69	9537.68
469.87	9696.84
470.05	9769.40
470.23	9778.76
470.41	9710.88
470.59	9757.69
470.77	9795.14
470.95	9944.94
471.14	9987.07
471.32	9912.17
471.50	10324.10
471.68	10153.24
471.86	10239.84
472.04	10298.36
472.22	10490.28
472.40	10073.67
472.58	10047.92
472.77	10391.98
472.95	10471.56
473.13	10623.69
473.31	10459.85
473.49	10480.92
473.67	10663.48
473.85	10654.12
474.03	11096.48
474.21	10586.24
474.39	11187.76
474.57	10998.18
474.75	11105.84
474.93	11023.92
475.12	10841.36
475.30	11243.93
475.48	11185.42
475.66	11215.85
475.84	11152.65
476.02	11529.48
476.20	11482.67
476.38	11698.00
476.56	11728.42
476.74	11587.99
476.92	11602.04
477.10	11737.79
477.28	11859.49
477.46	12056.10
477.64	12257.39
477.82	12135.68
478.00	12547.61
478.18	12376.75
478.36	12360.37
478.54	12468.03
478.72	12507.82
478.90	12849.54
479.08	12835.50
479.26	13067.21
479.44	13317.65
479.62	13233.39
479.80	13128.06
479.98	13329.35
480.16	13694.47
480.34	13310.63
480.52	14017.47
480.70	13715.54
480.88	13565.74
481.06	13855.97
481.24	13958.96
481.41	14464.51
481.59	14122.79
481.77	14464.51
481.95	14471.53
482.13	14541.75
482.31	14398.98
482.49	14757.08
482.67	14799.21
482.85	15002.83
483.03	14995.81
483.21	15101.14
483.39	15351.57
483.57	15379.66
483.74	15236.89
483.92	15484.98
484.10	15353.91
484.28	15878.19
484.46	16088.84
484.64	16074.80
484.82	16056.08
485.00	16095.86
485.18	16315.87
485.35	16479.71
485.53	16056.08
485.71	16035.01
485.89	16212.89
486.07	16329.92
486.25	16800.37
486.43	16479.71
486.61	16779.30
486.78	17088.25
486.96	17324.65
487.14	17394.86
487.32	17577.42
487.50	18001.06
487.68	17884.03
487.85	18146.17
488.03	18335.76
488.21	18382.57
488.39	18401.29
488.57	18525.34
488.75	18548.75
488.92	18824.93
489.10	19260.27
489.28	19452.19
489.46	19419.42
489.64	19468.58
489.81	19971.79
489.99	20142.65
490.17	20135.63
490.35	20304.15
490.53	19974.13
490.70	20320.53
490.88	19924.98
491.06	20643.52
491.24	20404.79
491.41	20542.88
491.59	20657.57
491.77	20718.42
491.95	21008.65
492.13	20973.54
492.30	21397.18
492.48	21504.84
492.66	21741.24
492.84	22010.40
493.01	21844.22
493.19	21624.21
493.37	22169.55
493.54	22092.32
493.72	22253.81
493.90	22548.72
494.08	22490.21
494.25	22899.80
494.43	22862.35
494.61	23215.77
494.79	23248.54
494.96	23662.82
495.14	23220.45
495.32	23543.45
495.49	23625.37
495.67	23611.32
495.85	23988.15
496.02	24032.62
496.20	24135.60
496.38	24173.05
496.55	24407.11
496.73	25092.88
496.91	24603.71
497.09	25076.50
497.26	25067.14
497.44	24702.01
497.62	24830.74
497.79	25165.44
497.97	24620.10
498.14	25167.78
498.32	25458.01
498.50	25256.72
498.67	25914.41
498.85	25685.04
499.03	25883.98
499.20	26115.70
499.38	26045.48
499.56	26211.66
499.73	26176.55
499.91	26284.22
500.08	26387.20
500.26	25886.32
500.44	26499.55
500.61	26682.11
500.79	26361.45
500.97	26897.44
501.14	27201.71
501.32	26785.09
501.49	26815.52
501.67	26623.59
501.84	27342.14
502.02	27297.67
502.20	27304.69
502.37	27637.05
502.55	27531.72
502.72	27896.85
502.90	27777.48
503.07	27838.33
503.25	27695.56
503.43	27630.02
503.60	27894.50
503.78	28072.39
503.95	27948.34
504.13	28496.02
504.30	28751.14
504.48	28257.29
504.65	28418.78
504.83	28519.43
505.01	28788.59
505.18	29069.45
505.36	29413.51
505.53	28957.11
505.71	29497.77
505.88	29439.26
506.06	29422.87
506.23	29355.00
506.41	29090.52
506.58	29731.83
506.76	30015.03
506.93	29907.37
507.11	29825.45
507.28	29872.26
507.46	29823.11
507.63	29867.58
507.81	29895.66
507.98	30089.93
508.16	30153.12
508.33	30513.56
508.50	30436.33
508.68	30850.60
508.85	30728.89
509.03	30771.02
509.20	30785.07
509.38	30986.35
509.55	31318.71
509.73	31122.10
509.90	30927.84
510.08	31131.47
510.25	31002.74
510.42	31531.70
510.60	31470.84
510.77	31370.20
510.95	31641.70
511.12	31770.43
511.30	31807.88
511.47	31997.46
511.64	32479.61
511.82	32430.46
511.99	32114.49
512.17	32219.81
512.34	32119.17
512.51	32280.67
512.69	32259.60
512.86	32589.62
513.04	32208.11
513.21	32645.79
513.38	32821.33
513.56	32222.16
513.73	32458.55
513.90	32772.18
514.08	33020.28
514.25	32837.72
514.43	32809.63
514.60	32994.53
514.77	32964.10
514.95	33582.01
515.12	33083.47
515.29	33352.63
515.47	33443.91
515.64	34031.39
515.81	33282.42
515.99	33722.44
516.16	33404.13
516.33	33219.22
516.51	33336.25
516.68	32720.69
516.85	33090.49
517.03	33619.46
517.20	33848.83
517.37	34237.36
517.54	34059.48
517.72	34330.98
517.89	33745.84
518.06	33689.67
518.24	33851.17
518.41	34103.95
518.58	34291.19
518.75	34553.33
518.93	34600.14
519.10	34263.10
519.27	34735.89
519.45	34967.60
519.62	34932.50
519.79	35171.23
519.96	34740.57
520.14	34962.92
520.31	35007.39
520.48	35526.99
520.65	34993.35
520.83	35651.04
521.00	35384.22
521.17	35496.56
521.34	36030.21
521.52	35791.47
521.69	35728.28
521.86	35920.20
522.03	36081.70
522.20	35943.61
522.38	36119.15
522.55	36463.21
522.72	35842.96
522.89	36215.11
523.07	36683.22
523.24	36556.83
523.41	36713.64
523.58	36381.29
523.75	37069.40
523.92	37141.96
524.10	36931.31
524.27	36790.88
524.44	36896.20
524.61	36802.58
524.78	37240.26
524.96	37132.60
525.13	37305.80
525.30	37584.32
525.47	37612.41
525.64	37874.55
525.81	37404.10
525.98	37146.64
526.16	37289.42
526.33	36952.38
526.50	37457.93
526.67	36760.45
526.84	37083.45
527.01	36746.41
527.18	37748.16
527.36	38129.67
527.53	38057.11
527.70	38403.51
527.87	38120.31
528.04	37598.37
528.21	38115.62
528.38	38157.75
528.55	38572.03
528.72	38433.94
528.89	38827.15
529.07	38703.10
529.24	38433.94
529.41	38719.48
529.58	38621.18
529.75	38663.31
529.92	38653.95
530.09	38572.03
530.26	38778.00
530.43	39019.07
530.60	39021.41
530.77	39192.27
530.94	39063.54
531.11	39248.44
531.28	39407.60
531.46	39091.63
531.63	39379.51
531.80	39049.50
531.97	39189.93
532.14	39285.89
532.31	38789.70
532.48	39138.44
532.65	39342.06
532.82	39084.61
532.99	39564.42
533.16	39533.99
533.33	39445.05
533.50	39398.24
533.67	39704.85
533.84	39433.35
534.01	39819.53
534.18	39636.97
534.35	40201.04
534.52	39402.92
534.69	39938.90
534.86	40224.45
535.03	40655.11
535.20	40194.02
535.37	40395.31
535.54	40875.12
535.71	40416.37
535.88	41074.06
536.05	40116.78
536.22	40664.47
536.38	40570.85
536.55	40596.59
536.72	40273.60
536.89	40318.07
537.06	39903.79
537.23	40910.22
537.40	40500.63
537.57	40580.21
537.74	40573.19
537.91	41193.43
538.08	41015.55
538.25	40622.34
538.42	41163.00
538.59	40746.39
538.75	40950.01
538.92	41017.89
539.09	41055.34
539.26	40844.69
539.43	41322.16
539.60	40760.43
539.77	40917.25
539.94	40905.54
540.11	40732.34
540.28	41104.49
540.44	41207.47
540.61	41287.05
540.78	41062.36
540.95	41373.65
541.12	41254.28
541.29	41343.22
541.46	41813.67
541.62	41432.16
541.79	41851.12
541.96	41015.55
542.13	41556.21
542.30	41574.94
542.47	41979.85
542.63	41757.50
542.80	41771.54
542.97	42354.33
543.14	41991.55
543.31	42527.53
543.48	42054.75
543.64	42698.39
543.81	42534.56
543.98	42389.44
544.15	42234.97
544.32	42656.26
544.48	42761.59
544.65	42506.47
544.82	42342.63
544.99	41916.65
545.16	42869.25
545.32	42497.11
545.49	42979.26
545.66	43119.69
545.83	42564.98
546.00	42782.65
546.16	43194.59
546.33	43021.39
546.50	43019.05
546.67	43026.07
546.83	42506.47
547.00	43126.71
547.17	42787.33
547.34	42497.11
547.50	43016.71
547.67	42649.24
547.84	43295.23
548.00	43522.26
548.17	43344.38
548.34	43175.86
548.51	43477.79
548.67	43264.80
548.84	43555.03
549.01	43246.08
549.18	43306.93
549.34	43618.22
549.51	43189.91
549.68	43484.81
549.84	43660.35
550.01	44107.40
550.18	43812.49
550.34	43281.19
550.51	43758.66
550.68	43505.88
550.84	43269.48
551.01	44013.77
551.18	43353.74
551.34	43636.95
551.51	43758.66
551.68	44041.86
551.84	44247.83
552.01	43835.89
552.18	43723.55
552.34	43580.78
552.51	44322.72
552.68	43957.60
552.84	43838.23
553.01	44399.96
553.18	44018.46
553.34	44402.30
553.51	44222.08
553.67	44554.44
553.84	44589.55
554.01	44439.75
554.17	44428.05
554.34	44128.46
554.51	44196.34
554.67	44341.45
554.84	43969.30
555.00	44238.47
555.17	44313.36
555.33	44516.99
555.50	44238.47
555.67	44610.61
555.83	44463.16
556.00	44470.18
556.16	45244.90
556.33	44582.52
556.50	44678.49
556.66	44402.30
556.83	44491.24
556.99	44362.51
557.16	44753.38
557.32	45146.59
557.49	44741.68
557.65	44491.24
557.82	44854.03
557.98	44755.72
558.15	44414.01
558.32	44910.20
558.48	44313.36
558.65	45097.44
558.81	44292.30
558.98	44884.45
559.14	44381.24
559.31	44772.11
559.47	44994.46
559.64	44694.87
559.80	45195.74
559.97	44842.32
560.13	44774.45
560.30	44949.99
560.46	45525.76
560.63	45251.92
560.79	45450.86
560.96	45340.86
561.12	45160.64
561.29	44940.63
561.45	44638.70
561.61	45174.68
561.78	44889.13
561.94	45081.06
562.11	45027.23
562.27	44652.74
562.44	45153.62
562.60	45249.58
562.77	45495.33
562.93	44933.60
563.10	45708.32
563.26	45064.67
563.42	45270.64
563.59	45275.32
563.75	45214.47
563.92	45504.70
564.08	45378.31
564.24	45439.16
564.41	45390.01
564.57	44891.48
564.74	45352.56
564.90	45324.47
565.07	45088.08
565.23	45588.95
565.39	44980.42
565.56	45258.94
565.72	45008.50
565.88	45230.85
566.05	45216.81
566.21	45521.08
566.38	45074.04
566.54	45326.81
566.70	45588.95
566.87	45661.51
567.03	45373.63
567.19	45811.31
567.36	45586.61
567.52	45638.11
567.68	45780.88
567.85	45345.54
568.01	45289.37
568.17	45633.42
568.34	45560.87
568.50	45277.66
568.66	45567.89
568.83	45343.20
568.99	45815.99
569.15	45598.32
569.32	45429.80
569.48	45675.55
569.64	45750.45
569.81	45839.39
569.97	45790.24
570.13	45588.95
570.30	45336.18
570.46	45399.37
570.62	44989.78
570.78	44957.01
570.95	44924.24
571.11	45446.18
571.27	45471.93
571.43	45457.88
571.60	45563.21
571.76	45507.04
571.92	45364.26
572.09	45551.51
572.25	45338.52
572.41	45804.28
572.57	45925.99
572.74	46272.39
572.90	45696.62
573.06	45675.55
573.22	45336.18
573.38	45584.27
573.55	45333.84
573.71	45851.09
573.87	45837.05
574.03	45961.10
574.20	45794.92
574.36	45853.44
574.52	45663.85
574.68	45972.80
574.84	45710.66
575.01	45359.58
575.17	45659.17
575.33	45462.57
575.49	45226.17
575.65	45961.10
575.82	45661.51
575.98	45560.87
576.14	45607.68
576.30	45663.85
576.46	45766.84
576.62	45696.62
576.79	46028.98
576.95	45282.34
577.11	45537.46
577.27	45792.58
577.43	45413.41
577.59	45558.53
577.75	45083.40
577.92	45303.41
578.08	45237.87
578.24	45467.25
578.40	45588.95
578.56	45720.02
578.72	45670.87
578.88	46300.48
579.04	45820.67
579.21	45237.87
579.37	45673.21
579.53	45811.31
579.69	45420.44
579.85	45904.93
580.01	46190.47
580.17	45525.76
580.33	45397.03
580.49	46052.38
580.65	45832.37
580.82	46066.42
580.98	45577.25
581.14	45467.25
581.30	45937.69
581.46	45495.33
581.62	45607.68
581.78	45745.77
581.94	45771.52
582.10	45998.55
582.26	45532.78
582.42	45860.46
582.58	45741.09
582.74	45600.66
582.90	45771.52
583.06	46213.88
583.22	45893.22
583.38	46314.52
583.54	45834.71
583.70	45989.19
583.86	46148.34
584.02	45371.28
584.18	45942.38
584.34	46059.40
584.50	45996.21
584.66	45687.26
584.82	45858.12
584.98	45734.07
585.14	46024.29
585.30	45694.28
585.46	45879.18
585.62	45326.81
585.78	45535.12
585.94	45591.30
586.10	45635.77
586.26	45490.65
586.42	46309.84
586.58	45806.62
586.74	45820.67
586.90	45881.52
587.06	45497.67
587.22	45914.29
587.38	45937.69
587.54	46209.20
587.70	45797.26
587.86	45890.88
588.02	45799.60
588.18	45694.28
588.34	45588.95
588.49	45471.93
588.65	45340.86
588.81	45390.01
588.97	45509.38
589.13	45308.09
589.29	45434.48
589.45	45713.00
589.61	45656.83
589.77	45869.82
589.93	45769.18
590.08	46190.47
590.24	45738.75
590.40	46316.86
590.56	46405.80
590.72	45752.79
590.88	45680.24
591.04	46220.90
591.20	46195.15
591.35	46068.76
591.51	46490.06
591.67	45813.65
591.83	45549.17
591.99	45897.91
592.15	45682.58
592.31	46302.82
592.46	45539.80
592.62	46005.57
592.78	45867.48
592.94	46108.55
593.10	45993.87
593.26	46501.76
593.41	46270.05
593.57	45869.82
593.73	45787.90
593.89	46326.22
594.05	46096.85
594.20	45925.99
594.36	46054.72
594.52	45883.86
594.68	45841.73
594.84	45638.11
594.99	46326.22
595.15	45729.39
595.31	46176.43
595.47	46253.67
595.62	46263.03
595.78	45979.82
595.94	46106.21
596.10	46270.05
596.25	46061.74
596.41	46164.73
596.57	45422.78
596.73	45965.78
596.88	45935.35
597.04	45918.97
597.20	46614.11
597.36	46146.00
597.51	46087.49
597.67	45748.11
597.83	45909.61
597.99	46504.10
598.14	45911.95
598.30	46155.36
598.46	45916.63
598.61	46272.39
598.77	45851.09
598.93	45799.60
599.09	46305.16
599.24	46347.29
599.40	46232.60
599.56	46412.82
599.71	46010.25
599.87	46199.83
600.03	46010.25
600.18	45591.30
600.34	46281.75
600.50	46256.01
600.65	46085.15
600.81	46124.94
600.97	46103.87
601.12	46171.75
601.28	45869.82
601.44	45727.05
601.59	45961.10
601.75	45478.95
601.91	45691.94
602.06	45979.82
602.22	45888.54
602.37	45984.51
602.53	45598.32
602.69	46103.87
602.84	45902.59
603.00	45797.26
603.16	45923.65
603.31	45979.82
603.47	45942.38
603.62	45888.54
603.78	45954.08
603.94	45968.12
604.09	46265.37
604.25	46059.40
604.40	45925.99
604.56	45825.35
604.71	46342.61
604.87	45862.80
605.03	45736.41
605.18	45305.75
605.34	45846.41
605.49	45790.24
605.65	46017.27
605.80	45462.57
605.96	45923.65
606.12	45996.21
606.27	46036.00
606.43	45652.15
606.58	45549.17
606.74	45647.47
606.89	45708.32
607.05	45752.79
607.20	45970.46
607.36	45694.28
607.51	45823.01
607.67	45755.13
607.82	45710.66
607.98	45720.02
608.13	45701.30
608.29	45656.83
608.44	45436.82
608.60	45247.24
608.75	46047.70
608.91	45471.93
609.06	45476.61
609.22	45731.73
609.37	45624.06
609.53	45565.55
609.68	45757.47
609.84	45525.76
609.99	45551.51
610.15	45237.87
610.30	45113.83
610.46	45226.17
610.61	45338.52
610.76	45200.43
610.92	45911.95
611.07	45357.24
611.23	45464.91
611.38	45603.00
611.54	45130.21
611.69	45357.24
611.84	45291.71
612.00	45483.63
612.15	44973.39
612.31	45542.14
612.46	45308.09
612.62	45256.60
612.77	45144.25
612.92	45165.32
613.08	44935.95
613.23	45123.19
613.39	44912.54
613.54	44694.87
613.69	45034.25
613.85	44587.21
614.00	45209.79
614.15	45010.84
614.31	44910.20
614.46	45050.63
614.62	45137.23
614.77	44631.68
614.92	44999.14
615.08	44626.99
615.23	44767.43
615.38	44825.94
615.54	44790.83
615.69	44903.18
615.84	44280.60
616.00	44484.22
616.15	45048.29
616.30	44999.14
616.46	44430.39
616.61	44662.10
616.76	44425.71
616.92	44147.18
617.07	44444.43
617.22	44296.98
617.37	44549.76
617.53	44624.65
617.68	44446.77
617.83	44191.65
617.99	43901.43
618.14	44442.09
618.29	44126.12
618.45	44011.43
618.60	44154.21
618.75	44060.58
618.90	44233.78
619.06	43847.60
619.21	43957.60
619.36	44259.53
619.51	44163.57
619.67	44053.56
619.82	44002.07
619.97	44154.21
620.12	43543.33
620.28	43236.72
620.43	44081.65
620.58	43892.07
620.73	43775.04
620.89	43709.50
621.04	44243.15
621.19	44364.85
621.34	43753.97
621.49	43253.10
621.65	43737.59
621.80	44205.70
621.95	43171.18
622.10	43913.13
622.25	43526.94
622.41	43548.01
622.56	43168.84
622.71	43746.95
622.86	43765.68
623.01	43213.31
623.16	43501.20
623.32	43707.16
623.47	43489.49
623.62	43096.28
623.77	43522.26
623.92	43407.58
624.07	43065.86
624.23	43260.12
624.38	43136.07
624.53	43150.12
624.68	43178.20
624.83	43302.25
624.98	43002.66
625.13	42976.92
625.29	42981.60
625.44	43210.97
625.59	42899.68
625.74	42953.51
625.89	42583.71
626.04	43044.79
626.19	42656.26
626.34	42649.24
626.49	42717.12
626.65	43145.44
626.80	42831.80
626.95	42347.31
627.10	42436.25
627.25	42890.32
627.40	42394.12
627.55	42478.38
627.70	42419.87
627.85	42749.88
628.00	42700.73
628.15	42656.26
628.30	42721.80
628.45	42494.77
628.60	42209.22
628.76	42281.78
628.91	42611.79
629.06	42302.84
629.21	42323.91
629.36	42054.75
629.51	42021.98
629.66	42141.35
629.81	42094.53
629.96	42183.48
630.11	42120.28
630.26	42567.32
630.41	42146.03
630.56	41773.88
630.71	42176.45
630.86	42010.28
631.01	41574.94
631.16	42019.64
631.31	41392.37
631.46	41729.41
631.61	41628.77
631.76	41963.46
631.91	42148.37
632.06	41968.15
632.21	41914.31
632.36	42021.98
632.51	41525.78
632.66	41879.21
632.81	41574.94
632.96	41588.98
633.10	41605.36
633.25	41652.17
633.40	41839.42
633.55	41640.47
633.70	41546.85
633.85	41516.42
634.00	41848.78
634.15	41525.78
634.30	41275.35
634.45	41024.91
634.60	41591.32
634.75	41137.26
634.90	41076.40
635.05	41294.07
635.19	41359.61
635.34	41041.29
635.49	41221.52
635.64	41462.59
635.79	41366.63
635.94	40875.12
636.09	40776.81
636.24	40912.56
636.39	40828.30
636.53	41242.58
636.68	40659.79
636.83	41006.19
636.98	41034.27
637.13	40713.62
637.28	40678.51
637.43	40947.67
637.57	40849.37
637.72	40889.16
637.87	40865.75
638.02	40907.88
638.17	40528.72
638.32	40456.16
638.46	40678.51
638.61	40348.50
638.76	40423.39
638.91	40694.89
639.06	40788.52
639.20	40769.79
639.35	40238.49
639.50	40341.47
639.65	40685.53
639.80	40189.34
639.94	40474.88
640.09	40198.70
640.24	40044.23
640.39	40025.50
640.54	40287.64
640.68	40407.01
640.83	40217.43
640.98	39700.17
641.13	39683.78
641.27	40044.23
641.42	39915.50
641.57	40055.93
641.72	40177.64
641.86	40128.48
642.01	39667.40
642.16	39608.89
642.31	39299.94
642.45	40257.21
642.60	39136.10
642.75	40189.34
642.90	39941.24
643.04	39992.73
643.19	39583.14
643.34	39821.87
643.48	39601.86
643.63	39470.79
643.78	39484.84
643.93	39789.11
644.07	39587.82
644.22	39290.57
644.37	39583.14
644.51	39601.86
644.66	39576.12
644.81	39159.50
644.95	39459.09
645.10	39576.12
645.25	39646.33
645.39	39945.92
645.54	39597.18
645.69	39152.48
645.83	38913.75
645.98	39257.81
646.13	38986.30
646.27	39632.29
646.42	39133.76
646.57	39248.44
646.71	39180.57
646.86	39299.94
647.00	39335.04
647.15	39119.71
647.30	38941.83
647.44	39241.42
647.59	38995.67
647.74	38656.29
647.88	39028.43
648.03	38572.03
648.17	38895.02
648.32	38398.83
648.47	39051.84
648.61	38735.87
648.76	38871.62
648.90	38588.41
649.05	38834.17
649.20	38682.03
649.34	38670.33
649.49	38646.93
649.63	38660.97
649.78	38499.47
649.92	38609.48
650.07	39115.03
650.21	38426.92
650.36	38691.40
650.51	38487.77
650.65	39068.22
650.80	38988.64
650.94	38614.16
651.09	38738.21
651.23	38024.34
651.38	38216.27
651.52	37645.18
651.67	37968.17
651.81	38574.37
651.96	38188.18
652.10	38417.55
652.25	38171.80
652.39	38593.09
652.54	38085.20
652.68	38286.48
652.83	38153.07
652.97	38632.88
653.12	38354.36
653.26	38045.41
653.41	38036.05
653.55	38422.23
653.70	37844.12
653.84	37968.17
653.99	37558.58
654.13	37551.56
654.27	38323.93
654.42	37909.66
654.56	37649.86
654.71	38017.32
654.85	37675.60
655.00	37972.85
655.14	37535.17
655.29	37291.76
655.43	37577.30
655.57	37076.43
655.72	37008.55
655.86	36907.91
656.01	36652.79
656.15	36769.82
656.30	36788.54
656.44	37221.54
656.58	37493.04
656.73	37184.09
656.87	36767.48
657.01	36720.66
657.16	36952.38
657.30	36467.89
657.45	36744.07
657.59	36613.00
657.73	36517.04
657.88	37031.96
658.02	36975.78
658.16	37081.11
658.31	36982.80
658.45	36975.78
658.60	37060.04
658.74	37125.58
658.88	36921.95
659.03	36584.91
659.17	36601.30
659.31	36884.50
659.46	36264.26
659.60	36687.90
659.74	36678.54
659.89	36149.57
660.03	36198.73
660.17	36460.87
660.32	36453.84
660.46	36334.48
660.60	36119.15
660.74	36088.72
660.89	36418.74
661.03	36187.02
661.17	36383.63
661.32	36184.68
661.46	36395.33
661.60	35693.17
661.74	35424.01
661.89	35899.14
662.03	36062.97
662.17	35775.09
662.31	35955.31
662.46	36070.00
662.60	35995.10
662.74	35662.74
662.88	35606.57
663.03	35400.60
663.17	35480.18
663.31	35108.04
663.45	35349.11
663.60	35269.53
663.74	35604.23
663.88	34728.87
664.02	34941.86
664.17	35370.18
664.31	34724.19
664.45	35225.06
664.59	34707.80
664.73	35211.02
664.88	34855.26
665.02	34305.23
665.16	34347.36
665.30	34256.08
665.44	34646.95
665.59	34398.85
665.73	34382.47
665.87	34127.35
666.01	34534.60
666.15	34728.87
666.29	34565.03
666.44	34501.84
666.58	34323.96
666.72	34132.03
666.86	34670.36
667.00	34705.46
667.14	33677.97
667.28	33776.27
667.43	33701.37
667.57	33928.41
667.71	33755.21
667.85	33853.51
667.99	33914.36
668.13	34068.84
668.27	34237.36
668.41	33851.17
668.56	33495.41
668.70	33598.39
668.84	33172.41
668.98	33383.06
669.12	33427.53
669.26	33104.54
669.40	33177.09
669.54	33149.01
669.68	33003.89
669.82	32730.05
669.96	33055.39
670.10	33113.90
670.25	33074.11
670.39	32725.37
670.53	32767.50
670.67	32793.25
670.81	32992.19
670.95	32643.45
671.09	32531.11
671.23	32435.14
671.37	32706.65
671.51	32025.55
671.65	32086.40
671.79	32418.76
671.93	31871.07
672.07	32020.87
672.21	31889.80
672.35	31857.03
672.49	31819.58
672.63	31798.52
672.77	31814.90
672.91	31782.13
673.05	31807.88
673.19	31555.10
673.33	31119.76
673.47	31079.97
673.61	31138.49
673.75	31189.98
673.89	31538.72
674.03	31395.95
674.17	31089.34
674.31	31058.91
674.45	31023.80
674.59	31405.31
674.73	31367.86
674.87	31211.04
675.01	30534.63
675.15	30377.81
675.29	30883.37
675.43	30462.07
675.56	30958.27
675.70	30354.41
675.84	30560.37
675.98	29523.52
676.12	30047.80
676.26	30080.56
676.40	30192.91
676.54	29993.97
676.68	29804.38
676.82	29682.67
676.96	29692.04
677.10	29860.55
677.23	29762.25
677.37	29266.06
677.51	29294.14
677.65	29460.32
677.79	28643.48
677.93	29118.60
678.07	28765.18
678.21	28620.07
678.34	28678.58
678.48	28390.70
678.62	28383.68
678.76	28322.82
678.90	28189.41
679.04	28112.17
679.18	28212.82
679.31	27896.85
679.45	27985.79
679.59	27571.51
679.73	28109.83
679.87	27894.50
680.00	27981.10
680.14	27695.56
680.28	27468.53
680.42	27257.88
680.56	27623.00
680.70	27264.90
680.83	27531.72
680.97	26874.03
681.11	27246.18
681.25	27304.69
681.39	27075.32
681.52	26911.48
681.66	26759.34
681.80	26834.24
681.94	26565.08
682.07	26485.50
682.21	26541.68
682.35	26600.19
682.49	26092.29
682.62	26286.56
682.76	25633.55
682.90	25755.26
683.04	26239.75
683.17	25942.50
683.31	25837.17
683.45	25551.63
683.59	25568.01
683.72	26071.23
683.86	25797.38
684.00	24891.60
684.13	24985.22
684.27	24694.99
684.41	24716.06
684.55	24634.14
684.68	24786.27
684.82	24966.49
684.96	24718.40
685.09	25069.48
685.23	24669.25
685.37	24861.17
685.50	24538.18
685.64	24343.91
685.78	24259.65
685.91	23974.11
686.05	23789.20
686.19	23803.25
686.32	23573.88
686.46	23267.27
686.60	23087.04
686.73	23016.83
686.87	23082.36
687.01	22864.69
687.14	22829.59
687.28	22993.42
687.42	22707.88
687.55	22852.99
687.69	22911.50
687.82	23030.87
687.96	22663.41
688.10	22223.39
688.23	22492.55
688.37	22551.06
688.50	22331.05
688.64	22326.37
688.78	22300.62
688.91	22335.73
689.05	21809.11
689.18	22033.80
689.32	21429.94
689.46	21750.60
689.59	22136.79
689.73	21830.18
689.86	21692.08
690.00	21551.65
690.13	21481.44
690.27	21336.32
690.41	21144.40
690.54	20844.81
690.68	21303.56
690.81	21420.58
690.95	21181.85
691.08	20566.29
691.22	21465.05
691.35	20793.32
691.49	20844.81
691.62	20734.81
691.76	20596.71
691.89	20596.71
692.03	20269.04
692.16	20322.87
692.30	20240.95
692.43	20098.18
692.57	19866.47
692.70	19695.61
692.84	19665.18
692.97	19440.49
693.11	19695.61
693.24	19318.78
693.38	19281.33
693.51	19192.39
693.65	19328.14
693.78	19309.42
693.92	19110.47
694.05	19445.17
694.19	19297.72
694.32	19192.39
694.45	18871.74
694.59	18899.83
694.72	19082.39
694.86	18934.93
694.99	18707.90
695.13	18633.00
695.26	18654.07
695.39	18565.13
695.53	18682.16
695.66	18642.37
695.80	17956.59
695.93	18122.77
696.07	17984.68
696.20	18148.51
696.33	18087.66
696.47	18125.11
696.60	17860.63
696.73	17923.82
696.87	17518.91
697.00	17720.20
697.14	17422.95
697.27	17551.68
697.40	17200.60
697.54	17170.17
697.67	16982.93
697.80	17132.72
697.94	17008.67
698.07	17050.80
698.21	16933.78
698.34	17027.40
698.47	16786.32
698.61	16664.61
698.74	16765.26
698.87	16760.58
699.01	16346.30
699.14	16753.55
699.27	16414.18
699.40	16121.61
699.54	16362.69
699.67	16128.63
699.80	16053.73
699.94	15889.90
700.07	16119.27
700.20	16140.33
700.34	15852.45
700.47	15892.24
700.60	15740.10
700.73	15796.28
700.87	15557.54
701.00	15480.30
701.13	15459.24
701.26	15363.28
701.40	15063.69
701.53	15419.45
701.66	14977.09
701.79	14965.39
701.93	14815.59
702.06	15147.95
702.19	14841.34
702.32	14644.73
702.46	14979.43
702.59	14670.48
702.72	14562.81
702.85	14670.48
702.99	14401.32
703.12	14677.50
703.25	14293.65
703.38	14377.91
703.51	14178.97
703.65	13907.46
703.78	14068.96
703.91	14181.31
704.04	13785.76
704.17	14204.71
704.31	14005.77
704.44	13729.58
704.57	13764.69
704.70	13696.82
704.83	13298.92
704.96	13605.53
705.10	13621.92
705.23	13497.87
>>>>>End Processed Spectral Data<<<<<
