SpectraSuite Data File
++++++++++++++++++++++++++++++++++++
Date: Fri Oct 25 10:46:56 EDT 2013
User: price-jones
Dark Spectrum Present: No
Reference Spectrum Present: No
Number of Sampled Component Spectra: 1
Spectrometers: USB2+H05261
Integration Time (usec): 100000 (USB2+H05261)
Spectra Averaged: 1 (USB2+H05261)
Boxcar Smoothing: 0 (USB2+H05261)
Correct for Electrical Dark: No (USB2+H05261)
Strobe/Lamp Enabled: No (USB2+H05261)
Correct for Detector Non-linearity: No (USB2+H05261)
Correct for Stray Light: No (USB2+H05261)
Number of Pixels in Processed Spectrum: 2048
>>>>>Begin Processed Spectral Data<<<<<
365.73	159.16
365.92	159.16
366.12	159.16
366.32	107.66
366.52	149.79
366.72	110.01
366.91	60.85
367.11	93.62
367.31	42.13
367.51	42.13
367.70	37.45
367.90	32.77
368.10	0.00
368.30	14.04
368.49	74.90
368.69	53.83
368.89	65.54
369.09	65.54
369.28	74.90
369.48	72.56
369.68	88.94
369.87	145.11
370.07	191.92
370.27	166.18
370.47	180.22
370.66	360.44
370.86	425.98
371.06	491.51
371.25	470.45
371.45	449.38
371.65	414.27
371.84	477.47
372.04	475.13
372.24	538.32
372.44	458.74
372.63	514.92
372.83	470.45
373.03	512.58
373.22	491.51
373.42	545.34
373.62	589.82
373.81	566.41
374.01	596.84
374.21	599.18
374.40	557.05
374.60	545.34
374.79	517.26
374.99	512.58
375.19	613.22
375.38	627.26
375.58	620.24
375.78	592.16
375.97	620.24
376.17	643.65
376.37	578.11
376.56	631.94
376.76	629.60
376.95	603.86
377.15	564.07
377.35	561.73
377.54	641.31
377.74	638.97
377.93	669.39
378.13	697.48
378.33	720.88
378.52	676.41
378.72	664.71
378.91	636.63
379.11	744.29
379.31	688.12
379.50	671.73
379.70	725.57
379.89	690.46
380.09	660.03
380.28	690.46
380.48	685.78
380.68	716.20
380.87	608.54
381.07	702.16
381.26	657.69
381.46	767.70
381.65	751.31
381.85	793.44
382.04	758.33
382.24	741.95
382.43	748.97
382.63	692.80
382.83	770.04
383.02	772.38
383.22	760.67
383.41	741.95
383.61	809.83
383.80	856.64
384.00	854.30
384.19	723.23
384.39	828.55
384.58	727.91
384.78	779.40
384.97	741.95
385.17	854.30
385.36	866.00
385.56	805.14
385.75	800.46
385.95	760.67
386.14	861.32
386.34	870.68
386.53	905.79
386.72	821.53
386.92	905.79
387.11	950.26
387.31	919.83
387.50	863.66
387.70	837.91
387.89	910.47
388.09	980.68
388.28	866.00
388.48	800.46
388.67	929.19
388.86	924.51
389.06	858.98
389.25	901.11
389.45	1015.79
389.64	929.19
389.84	997.07
390.03	985.37
390.22	1078.99
390.42	1046.22
390.61	1104.73
390.81	973.66
391.00	987.71
391.19	994.73
391.39	1048.56
391.58	1088.35
391.78	1088.35
391.97	1048.56
392.16	1088.35
392.36	1050.90
392.55	1036.86
392.75	940.90
392.94	1027.50
393.13	1001.75
393.33	1069.62
393.52	1053.24
393.71	1135.16
393.91	1069.62
394.10	1186.65
394.29	1191.33
394.49	1139.84
394.68	1191.33
394.88	1249.85
395.07	1284.95
395.26	1282.61
395.46	1221.76
395.65	1245.16
395.84	1247.51
396.04	1266.23
396.23	1181.97
396.42	1125.80
396.62	1188.99
396.81	1163.25
397.00	1284.95
397.19	1284.95
397.39	1355.17
397.58	1411.34
397.77	1369.21
397.97	1383.26
398.16	1256.87
398.35	1502.62
398.55	1481.56
398.74	1434.75
398.93	1479.22
399.12	1490.92
399.32	1469.86
399.51	1549.43
399.70	1502.62
399.90	1476.88
400.09	1577.52
400.28	1565.82
400.47	1432.41
400.67	1682.85
400.86	1706.25
401.05	1612.63
401.24	1636.03
401.44	1743.70
401.63	1643.06
401.82	1661.78
402.01	1654.76
402.21	1668.80
402.40	1736.68
402.59	1715.61
402.78	1701.57
402.97	1724.97
403.17	1748.38
403.36	1834.98
403.55	1750.72
403.74	1909.88
403.93	1842.00
404.13	1806.89
404.32	1813.92
404.51	1877.11
404.70	1905.20
404.89	1977.75
405.09	1919.24
405.28	1870.09
405.47	1895.83
405.66	1942.64
405.85	1944.99
406.05	1959.03
406.24	1867.75
406.43	2045.63
406.62	1942.64
406.81	2050.31
407.00	2015.20
407.20	1928.60
407.39	1944.99
407.58	2134.57
407.77	2078.40
407.96	2150.95
408.15	2312.45
408.34	2193.08
408.54	2298.41
408.73	2153.29
408.92	2305.43
409.11	2303.09
409.30	2176.70
409.49	2267.98
409.68	2179.04
409.87	2165.00
410.07	2298.41
410.26	2331.17
410.45	2324.15
410.64	2455.22
410.83	2527.78
411.02	2455.22
411.21	2600.34
411.40	2511.39
411.59	2424.80
411.78	2431.82
411.98	2499.69
412.17	2670.55
412.36	2602.68
412.55	2619.06
412.74	2700.98
412.93	2700.98
413.12	2616.72
413.31	2881.20
413.50	2771.19
413.69	2878.86
413.88	3000.57
414.07	2832.05
414.26	2928.01
414.45	2848.43
414.64	2876.52
414.83	2995.89
415.02	2942.05
415.22	3016.95
415.41	3016.95
415.60	3061.42
415.79	3157.38
415.98	3218.24
416.17	3084.83
416.36	3038.02
416.55	3150.36
416.74	3267.39
416.93	3119.93
417.12	3241.64
417.31	3316.54
417.50	3164.40
417.69	3358.67
417.88	3400.80
418.07	3351.65
418.26	3480.38
418.45	3351.65
418.64	3492.08
418.83	3412.50
419.02	3599.74
419.21	3510.80
419.39	3522.51
419.58	3487.40
419.77	3574.00
419.96	3545.91
420.15	3623.15
420.34	3585.70
420.53	3719.11
420.72	3667.62
420.91	3632.51
421.10	3852.52
421.29	3850.18
421.48	3644.21
421.67	3786.99
421.86	3695.71
422.05	3763.58
422.24	3679.32
422.43	3779.97
422.61	3843.16
422.80	3833.80
422.99	3922.74
423.18	3735.50
423.37	3925.08
423.56	3964.87
423.75	3904.01
423.94	3698.05
424.13	3637.19
424.32	3772.94
424.50	3871.25
424.69	3826.78
424.88	3920.40
425.07	3803.37
425.26	3822.09
425.45	3894.65
425.64	3754.22
425.83	3927.42
426.01	3971.89
426.20	3941.46
426.39	3967.21
426.58	3878.27
426.77	3929.76
426.96	3859.54
427.15	3852.52
427.33	3939.12
427.52	4021.04
427.71	4021.04
427.90	4079.55
428.09	4053.81
428.28	4168.49
428.46	4065.51
428.65	4049.13
428.84	4271.48
429.03	4189.56
429.22	4058.49
429.40	4201.26
429.59	4187.22
429.78	4049.13
429.97	3801.03
430.16	3882.95
430.34	3999.98
430.53	4198.92
430.72	4184.88
430.91	4318.29
431.10	4315.95
431.28	4500.85
431.47	4519.57
431.66	4580.43
431.85	4571.07
432.03	4561.70
432.22	4587.45
432.41	4648.30
432.60	4641.28
432.79	4657.67
432.97	4753.63
433.16	4657.67
433.35	4643.62
433.54	4582.77
433.72	4671.71
433.91	4582.77
434.10	4762.99
434.28	4762.99
434.47	4807.46
434.66	4730.22
434.85	4826.18
435.03	4814.48
435.22	4931.51
435.41	5057.90
435.59	4887.04
435.78	5139.82
435.97	5062.58
436.16	5057.90
436.34	5055.56
436.53	5142.16
436.72	5240.46
436.90	4884.70
437.09	5074.28
437.28	5184.29
437.46	5083.64
437.65	5146.84
437.84	5081.30
438.02	5081.30
438.21	5156.20
438.40	5062.58
438.58	5263.86
438.77	5174.92
438.96	5446.43
439.14	5493.24
439.33	5458.13
439.52	5671.12
439.70	5661.76
439.89	5607.92
440.08	5781.12
440.26	5738.99
440.45	5631.33
440.63	5701.54
440.82	5839.64
441.01	5891.13
441.19	5937.94
441.38	5870.06
441.57	5977.73
441.75	6026.88
441.94	6277.32
442.12	6223.48
442.31	6169.65
442.50	6401.37
442.68	5970.71
442.87	6169.65
443.05	6118.16
443.24	6403.71
443.43	6242.21
443.61	6338.17
443.80	6572.22
443.98	6424.77
444.17	6108.80
444.35	6333.49
444.54	6478.60
444.73	6314.77
444.91	6228.17
445.10	6406.05
445.28	6125.18
445.47	6214.12
445.65	6417.75
445.84	6427.11
446.02	6408.39
446.21	6459.88
446.39	6317.11
446.58	6576.91
446.77	6523.07
446.95	6373.28
447.14	6464.56
447.32	6654.14
447.51	6597.97
447.69	6555.84
447.88	6642.44
448.06	6602.65
448.25	6658.82
448.43	6771.17
448.62	6672.87
448.80	6712.66
448.99	6614.35
449.17	6612.01
449.36	6712.66
449.54	6836.70
449.73	7040.33
449.91	7033.31
450.10	6932.67
450.28	7021.61
450.46	7131.61
450.65	7126.93
450.83	7105.87
451.02	6993.52
451.20	7180.76
451.39	7157.36
451.57	7094.16
451.76	7171.40
451.94	7056.72
452.13	7255.66
452.31	7098.84
452.49	6981.82
452.68	7037.99
452.86	7016.93
453.05	7321.20
453.23	7176.08
453.42	7054.37
453.60	7316.51
453.78	7325.88
453.97	7241.62
454.15	7337.58
454.34	7339.92
454.52	7351.62
454.70	7449.93
454.89	7307.15
455.07	7426.52
455.26	7552.91
455.44	7510.78
455.62	7487.37
455.81	7726.11
455.99	7705.04
456.17	7712.07
456.36	7740.15
456.54	7531.84
456.73	7868.88
456.91	8051.44
457.09	7939.10
457.28	8079.53
457.46	7941.44
457.64	8091.23
457.83	7964.84
458.01	7779.94
458.19	8194.22
458.38	7967.18
458.56	8081.87
458.74	8046.76
458.93	8116.98
459.11	8290.18
459.29	8177.83
459.48	8184.85
459.66	8159.11
459.84	8334.65
460.03	8306.56
460.21	8475.08
460.39	8236.35
460.57	8386.14
460.76	8367.42
460.94	8557.00
461.12	8388.48
461.31	8404.86
461.49	8468.06
461.67	8306.56
461.85	8807.44
462.04	8461.04
462.22	9013.40
462.40	8807.44
462.59	8748.92
462.77	8589.77
462.95	8699.77
463.13	8767.65
463.32	8517.21
463.50	8718.50
463.68	8837.86
463.86	8961.91
464.05	8746.58
464.23	8772.33
464.41	8828.50
464.59	8624.87
464.78	9083.62
464.96	9011.06
465.14	8987.66
465.32	8985.32
465.50	9401.93
465.69	9289.59
465.87	9158.52
466.05	9214.69
466.23	9090.64
466.41	9062.55
466.60	9202.99
466.78	9090.64
466.96	9121.07
467.14	9205.33
467.32	9263.84
467.51	9399.59
467.69	8847.22
467.87	9324.69
468.05	9434.70
468.23	9427.68
468.41	9308.31
468.60	9315.33
468.78	9399.59
468.96	9401.93
469.14	9621.94
469.32	9617.26
469.50	9453.42
469.69	9467.47
469.87	9523.64
470.05	9827.91
470.23	9760.03
470.41	9877.06
470.59	9900.47
470.77	9753.01
470.95	9661.73
471.14	9935.57
471.32	9942.60
471.50	10314.74
471.68	9942.60
471.86	10115.80
472.04	10286.65
472.22	10450.49
472.40	10134.52
472.58	10450.49
472.77	10384.96
472.95	10560.50
473.13	10459.85
473.31	10396.66
473.49	10466.88
473.67	10319.42
473.85	10586.24
474.03	10789.87
474.21	10799.23
474.39	10855.40
474.57	10747.74
474.75	10799.23
474.93	11068.39
475.12	10883.49
475.30	11323.51
475.48	11059.03
475.66	11180.74
475.84	11126.91
476.02	11096.48
476.20	11215.85
476.38	11318.83
476.56	11550.54
476.74	11597.35
476.92	11707.36
477.10	11520.12
477.28	12114.61
477.46	11896.94
477.64	11943.75
477.82	12112.27
478.00	12320.58
478.18	12416.54
478.36	12386.12
478.54	12451.65
478.72	12702.09
478.90	12690.38
479.08	12973.59
479.26	13036.78
479.44	13071.89
479.62	12957.21
479.80	13032.10
479.98	13135.09
480.16	13504.89
480.34	13261.48
480.52	13413.61
480.70	13692.13
480.88	13291.90
481.06	13767.03
481.24	13420.63
481.41	14045.55
481.59	14211.73
481.77	14080.66
481.95	14193.01
482.13	14288.97
482.31	14349.82
482.49	14626.01
482.67	14607.28
482.85	14808.57
483.03	15068.37
483.21	15297.74
483.39	15129.22
483.57	15084.75
483.74	15337.53
483.92	15267.31
484.10	15573.92
484.28	15676.91
484.46	15840.75
484.64	16163.74
484.82	15941.39
485.00	16032.67
485.18	16355.66
485.35	16215.23
485.53	16074.80
485.71	16058.42
485.89	16592.06
486.07	16095.86
486.25	16346.30
486.43	16732.49
486.61	16936.12
486.78	17085.91
486.96	17048.46
487.14	17481.46
487.32	17530.61
487.50	17612.53
487.68	17980.00
487.85	18298.31
488.03	18356.82
488.21	18232.77
488.39	18050.21
488.57	18579.17
488.75	18579.17
488.92	18810.89
489.10	18609.60
489.28	19377.30
489.46	19880.51
489.64	19452.19
489.81	19733.06
489.99	19885.19
490.17	19894.55
490.35	20119.24
490.53	20058.39
490.70	20140.31
490.88	19967.11
491.06	20617.78
491.24	20783.96
491.41	20517.14
491.59	20641.18
491.77	20692.68
491.95	20900.98
492.13	21207.59
492.30	21553.99
492.48	21153.76
492.66	21502.50
492.84	21671.02
493.01	21982.31
493.19	21474.42
493.37	22040.82
493.54	21961.25
493.72	22417.65
493.90	22352.12
494.08	22356.80
494.25	22902.14
494.43	22572.13
494.61	23161.94
494.79	22892.78
494.96	23103.43
495.14	23040.23
495.32	23484.94
495.49	23648.77
495.67	23557.49
495.85	23784.52
496.02	23784.52
496.20	24030.28
496.38	24435.19
496.55	24215.18
496.73	25142.03
496.91	24430.51
497.09	24683.29
497.26	25025.01
497.44	24692.65
497.62	24879.89
497.79	25001.60
497.97	24964.15
498.14	25163.10
498.32	25394.81
498.50	25399.49
498.67	25532.90
498.85	25266.08
499.03	26033.78
499.20	25860.58
499.38	25944.84
499.56	26263.15
499.73	26211.66
499.91	26274.85
500.08	26403.58
500.26	25848.88
500.44	26218.68
500.61	26209.32
500.79	26649.34
500.97	26597.85
501.14	26859.99
501.32	26841.26
501.49	27044.89
501.67	27182.98
501.84	26944.25
502.02	27274.26
502.20	27520.02
502.37	27534.06
502.55	27630.02
502.72	27531.72
502.90	27845.35
503.07	27573.85
503.25	27697.90
503.43	27845.35
503.60	27974.08
503.78	27946.00
503.95	27976.42
504.13	27765.78
504.30	28711.35
504.48	28542.83
504.65	28484.32
504.83	28807.31
505.01	29149.03
505.18	28989.88
505.36	29191.16
505.53	29296.49
505.71	29567.99
505.88	29476.71
506.06	28893.91
506.23	29514.16
506.41	29102.22
506.58	29310.53
506.76	29729.48
506.93	29759.91
507.11	29888.64
507.28	29907.37
507.46	29544.58
507.63	29757.57
507.81	30103.97
507.98	29839.49
508.16	30579.10
508.33	30405.90
508.50	30546.33
508.68	30864.64
508.85	30930.18
509.03	30972.31
509.20	30909.11
509.38	30773.36
509.55	30927.84
509.73	31407.65
509.90	31154.87
510.08	31218.07
510.25	31646.38
510.42	31110.40
510.60	31445.10
510.77	31761.07
510.95	31793.84
511.12	31573.83
511.30	31924.91
511.47	32041.93
511.64	32189.39
511.82	32060.66
511.99	32088.74
512.17	32009.17
512.34	32201.09
512.51	32627.07
512.69	32341.52
512.86	32446.85
513.04	32517.06
513.21	32584.94
513.38	32582.60
513.56	32402.38
513.73	32425.78
513.90	32816.65
514.08	32669.20
514.25	32781.54
514.43	32725.37
514.60	32797.93
514.77	32938.36
514.95	33392.42
515.12	33422.85
515.29	33532.86
515.47	33495.41
515.64	33979.90
515.81	33551.58
515.99	33589.03
516.16	33563.28
516.33	33511.79
516.51	33156.03
516.68	33036.66
516.85	33097.52
517.03	33617.11
517.20	33647.54
517.37	33970.54
517.54	34031.39
517.72	34026.71
517.89	33914.36
518.06	33778.61
518.24	34326.30
518.41	33532.86
518.58	34609.50
518.75	34536.94
518.93	34600.14
519.10	34389.49
519.27	34621.20
519.45	34993.35
519.62	35028.46
519.79	35182.93
519.96	34892.71
520.14	35054.20
520.31	35037.82
520.48	35697.85
520.65	35391.24
520.83	35761.05
521.00	35714.23
521.17	35641.68
521.34	36039.57
521.52	36016.16
521.69	35983.40
521.86	35849.99
522.03	36182.34
522.20	36217.45
522.38	35988.08
522.55	36077.02
522.72	36100.42
522.89	35974.03
523.07	36280.64
523.24	36535.76
523.41	37151.32
523.58	36598.96
523.75	37376.01
523.92	37017.91
524.10	37177.07
524.27	36905.57
524.44	37067.06
524.61	36790.88
524.78	36879.82
524.96	37001.53
525.13	37329.20
525.30	37724.75
525.47	37596.03
525.64	37415.80
525.81	37495.38
525.98	37619.43
526.16	37053.02
526.33	37041.32
526.50	37677.94
526.67	37083.45
526.84	37308.14
527.01	37450.91
527.18	37809.01
527.36	38078.18
527.53	38181.16
527.70	38515.86
527.87	38473.73
528.04	37909.66
528.21	38359.04
528.38	38012.64
528.55	38593.09
528.72	38361.38
528.89	38871.62
529.07	38506.49
529.24	38408.19
529.41	38766.29
529.58	38579.05
529.75	38628.20
529.92	38740.55
530.09	38756.93
530.26	39061.20
530.43	39021.41
530.60	38918.43
530.77	38883.32
530.94	39592.50
531.11	38831.83
531.28	39019.07
531.46	39426.32
531.63	39569.10
531.80	39215.68
531.97	39433.35
532.14	39086.95
532.31	38948.85
532.48	39463.77
532.65	39524.63
532.82	39896.77
532.99	39988.05
533.16	39257.81
533.33	39625.27
533.50	40332.11
533.67	39885.07
533.84	39849.96
534.01	39569.10
534.18	39910.82
534.35	40449.14
534.52	40198.70
534.69	40453.82
534.86	40329.77
535.03	40107.42
535.20	40556.80
535.37	40942.99
535.54	40772.13
535.71	40594.25
535.88	40713.62
536.05	40811.92
536.22	40582.55
536.38	40617.66
536.55	40205.72
536.72	40664.47
536.89	40987.46
537.06	40715.96
537.23	41001.50
537.40	40727.66
537.57	41076.40
537.74	41235.56
537.91	41308.11
538.08	41172.36
538.25	40737.02
538.42	40832.99
538.59	41336.20
538.75	40865.75
538.92	40804.90
539.09	41237.90
539.26	41212.15
539.43	41130.23
539.60	41104.49
539.77	41134.92
539.94	41256.62
540.11	41378.33
540.28	41081.08
540.44	42080.49
540.61	41598.34
540.78	41429.82
540.95	41406.42
541.12	41757.50
541.29	41581.96
541.46	41621.75
541.62	41888.57
541.79	42092.19
541.96	41624.09
542.13	41914.31
542.30	42174.11
542.47	41645.15
542.63	42050.06
542.80	42267.73
542.97	42284.12
543.14	43133.73
543.31	42412.85
543.48	42459.66
543.64	42974.58
543.81	43026.07
543.98	42649.24
544.15	42536.90
544.32	42941.81
544.48	43239.06
544.65	43000.32
544.82	43068.20
544.99	42569.66
545.16	42843.51
545.32	42494.77
545.49	42904.36
545.66	43491.83
545.83	43255.44
546.00	43178.20
546.16	43182.88
546.33	43119.69
546.50	42803.72
546.67	43304.59
546.83	42918.40
547.00	43540.99
547.17	43239.06
547.34	42974.58
547.50	43863.98
547.67	43058.84
547.84	43585.46
548.00	43522.26
548.17	43711.84
548.34	43849.94
548.51	43697.80
548.67	43665.03
548.84	43838.23
549.01	43536.30
549.18	43796.10
549.34	43770.36
549.51	43920.15
549.68	43812.49
549.84	43779.72
550.01	44161.23
550.18	43784.40
550.34	43695.46
550.51	44322.72
550.68	44177.61
550.84	43498.86
551.01	43896.75
551.18	43880.36
551.34	44257.19
551.51	44086.33
551.68	43988.03
551.84	44549.76
552.01	44126.12
552.18	44201.02
552.34	44027.82
552.51	43887.39
552.68	44399.96
552.84	44552.10
553.01	44655.08
553.18	44474.86
553.34	44516.99
553.51	44369.54
553.67	44582.52
553.84	45167.66
554.01	44949.99
554.17	44671.46
554.34	44952.33
554.51	45125.53
554.67	44989.78
554.84	44367.20
555.00	44575.50
555.17	44662.10
555.33	45242.56
555.50	44664.44
555.67	44776.79
555.83	44694.87
556.00	44346.13
556.16	45205.11
556.33	44603.59
556.50	44608.27
556.66	45139.57
556.83	44634.02
556.99	45172.34
557.16	45249.58
557.32	45120.85
557.49	45216.81
557.65	44900.84
557.82	44809.56
557.98	45427.46
558.15	44910.20
558.32	45165.32
558.48	44835.30
558.65	44924.24
558.81	44854.03
558.98	45153.62
559.14	45455.54
559.31	44821.26
559.47	45240.21
559.64	45588.95
559.80	45490.65
559.97	45427.46
560.13	45092.76
560.30	44954.67
560.46	45509.38
560.63	45485.97
560.79	45640.45
560.96	45855.78
561.12	45530.44
561.29	45621.72
561.45	45474.27
561.61	45677.90
561.78	45635.77
561.94	45441.50
562.11	45357.24
562.27	45361.92
562.44	45191.06
562.60	46019.61
562.77	45509.38
562.93	45787.90
563.10	45897.91
563.26	45614.70
563.42	45837.05
563.59	45422.78
563.75	45542.14
563.92	45806.62
564.08	45762.15
564.24	45904.93
564.41	45853.44
564.57	45455.54
564.74	45771.52
564.90	45724.71
565.07	45670.87
565.23	45446.18
565.39	45663.85
565.56	46096.85
565.72	45565.55
565.88	45661.51
566.05	45642.79
566.21	45647.47
566.38	45900.25
566.54	45937.69
566.70	46258.35
566.87	46398.78
567.03	46085.15
567.19	46103.87
567.36	46171.75
567.52	46028.98
567.68	46202.18
567.85	46340.27
568.01	45680.24
568.17	45813.65
568.34	46047.70
568.50	45710.66
568.66	45612.36
568.83	46057.06
568.99	45963.44
569.15	45944.72
569.32	45834.71
569.48	45780.88
569.64	46319.20
569.81	45888.54
569.97	46045.36
570.13	46038.34
570.30	45268.30
570.46	45811.31
570.62	46033.66
570.78	45354.90
570.95	45546.82
571.11	46143.66
571.27	45790.24
571.43	46328.56
571.60	46103.87
571.76	45970.46
571.92	45893.22
572.09	45881.52
572.25	46007.91
572.41	45893.22
572.57	46309.84
572.74	46663.26
572.90	46476.02
573.06	46101.53
573.22	45801.94
573.38	46239.62
573.55	45972.80
573.71	46335.59
573.87	45823.01
574.03	46169.41
574.20	46124.94
574.36	46021.95
574.52	46188.13
574.68	46230.26
574.84	46471.34
575.01	46103.87
575.17	46106.21
575.33	46124.94
575.49	46000.89
575.65	46384.74
575.82	46227.92
575.98	46492.40
576.14	46293.46
576.30	46220.90
576.46	46036.00
576.62	46059.40
576.79	46244.30
576.95	45844.07
577.11	46277.07
577.27	46412.82
577.43	46176.43
577.59	45958.76
577.75	46031.32
577.92	45970.46
578.08	46036.00
578.24	45659.17
578.40	45895.56
578.56	45993.87
578.72	46263.03
578.88	46731.14
579.04	46499.42
579.21	46199.83
579.37	46092.17
579.53	46277.07
579.69	46017.27
579.85	46092.17
580.01	46394.10
580.17	46021.95
580.33	46459.63
580.49	46337.93
580.65	46211.54
580.82	46454.95
580.98	46183.45
581.14	46752.20
581.30	46408.14
581.46	46316.86
581.62	46169.41
581.78	46164.73
581.94	46649.22
582.10	46272.39
582.26	46089.83
582.42	46401.12
582.58	45883.86
582.74	46314.52
582.90	46630.49
583.06	46747.52
583.22	46824.76
583.38	46740.50
583.54	46487.72
583.70	46361.33
583.86	46412.82
584.02	46380.06
584.18	46518.15
584.34	46415.16
584.50	46848.16
584.66	46356.65
584.82	46192.81
584.98	46478.36
585.14	46394.10
585.30	46424.53
585.46	46286.43
585.62	46469.00
585.78	46185.79
585.94	46258.35
586.10	46094.51
586.26	46260.69
586.42	46649.22
586.58	46248.99
586.74	46307.50
586.90	46440.91
587.06	46014.93
587.22	46330.90
587.38	46712.41
587.54	46593.04
587.70	46532.19
587.86	46068.76
588.02	46272.39
588.18	46576.66
588.34	46298.14
588.49	46073.45
588.65	45579.59
588.81	45883.86
588.97	46068.76
589.13	46188.13
589.29	45991.53
589.45	46429.21
589.61	46279.41
589.77	46951.15
589.93	46740.50
590.08	46677.30
590.24	46677.30
590.40	46813.05
590.56	47016.68
590.72	46623.47
590.88	46209.20
591.04	46883.27
591.20	46440.91
591.35	46789.65
591.51	46850.50
591.67	46803.69
591.83	46417.50
591.99	45724.71
592.15	46260.69
592.31	46590.70
592.46	46469.00
592.62	46803.69
592.78	46646.88
592.94	46918.38
593.10	46415.16
593.26	46927.74
593.41	46616.45
593.57	46738.16
593.73	46370.69
593.89	46766.24
594.05	46548.57
594.20	46227.92
594.36	46803.69
594.52	46349.63
594.68	46681.98
594.84	46440.91
594.99	46403.46
595.15	46431.55
595.31	47164.14
595.47	46909.02
595.62	46700.71
595.78	46611.77
595.94	47072.85
596.10	46728.80
596.25	47023.70
596.41	47026.04
596.57	46309.84
596.73	46712.41
596.88	46270.05
597.04	46330.90
597.20	47065.83
597.36	46478.36
597.51	46534.53
597.67	46389.42
597.83	46806.03
597.99	46976.89
598.14	46571.98
598.30	46813.05
598.46	46511.13
598.61	46635.17
598.77	46586.02
598.93	46525.17
599.09	46770.93
599.24	47257.76
599.40	47114.98
599.56	46887.95
599.71	46955.83
599.87	46822.42
600.03	46787.31
600.18	46581.34
600.34	46541.55
600.50	46532.19
600.65	46337.93
600.81	46564.96
600.97	46763.90
601.12	46918.38
601.28	47117.32
601.44	46728.80
601.59	46602.41
601.75	46539.21
601.91	46902.00
602.06	46541.55
602.22	46824.76
602.37	46693.69
602.53	46618.79
602.69	46897.31
602.84	46597.73
603.00	47068.17
603.16	46773.27
603.31	46274.73
603.47	46136.64
603.62	46822.42
603.78	46799.01
603.94	46356.65
604.09	46693.69
604.25	46693.69
604.40	46211.54
604.56	46204.52
604.71	46600.07
604.87	46808.37
605.03	46614.11
605.18	46677.30
605.34	46548.57
605.49	46429.21
605.65	46543.89
605.80	46157.70
605.96	46679.64
606.12	46422.19
606.27	46443.25
606.43	46344.95
606.58	46560.28
606.74	45867.48
606.89	46471.34
607.05	46244.30
607.20	46653.90
607.36	46527.51
607.51	46539.21
607.67	46490.06
607.82	46361.33
607.98	46232.60
608.13	46157.70
608.29	46401.12
608.44	46134.30
608.60	45715.34
608.75	46071.10
608.91	45684.92
609.06	45897.91
609.22	46457.29
609.37	45975.14
609.53	46452.61
609.68	46281.75
609.84	46241.96
609.99	45769.18
610.15	45731.73
610.30	46232.60
610.46	45799.60
610.61	46080.47
610.76	46363.67
610.92	45799.60
611.07	45991.53
611.23	46003.23
611.38	46480.70
611.54	45886.20
611.69	45397.03
611.84	45645.13
612.00	45628.74
612.15	46050.04
612.31	46014.93
612.46	45851.09
612.62	46342.61
612.77	45858.12
612.92	46225.58
613.08	45801.94
613.23	46071.10
613.39	45539.80
613.54	45705.98
613.69	45947.06
613.85	45591.30
614.00	45787.90
614.15	45930.67
614.31	45434.48
614.46	45556.19
614.62	45610.02
614.77	45558.53
614.92	45682.58
615.08	45343.20
615.23	45687.26
615.38	45041.27
615.54	45303.41
615.69	45432.14
615.84	45092.76
616.00	45478.95
616.15	45567.89
616.30	45263.62
616.46	44793.17
616.61	45125.53
616.76	45162.98
616.92	45006.16
617.07	45296.39
617.22	44889.13
617.37	45052.97
617.53	45132.55
617.68	44832.96
617.83	45256.60
617.99	45443.84
618.14	45031.91
618.29	45258.94
618.45	44584.86
618.60	44797.85
618.75	44910.20
618.90	44898.50
619.06	44861.05
619.21	44800.19
619.36	45067.02
619.51	44952.33
619.67	44961.69
619.82	44781.47
619.97	45043.61
620.12	44437.41
620.28	44676.15
620.43	44683.17
620.58	44402.30
620.73	44821.26
620.89	44488.90
621.04	44729.98
621.19	44727.64
621.34	44708.91
621.49	44467.84
621.65	44601.25
621.80	44882.11
621.95	44114.42
622.10	44673.81
622.25	44170.59
622.41	44484.22
622.56	44203.36
622.71	44615.29
622.86	44004.41
623.01	44428.05
623.16	44079.31
623.32	44135.48
623.47	44236.12
623.62	44165.91
623.77	44238.47
623.92	44217.40
624.07	44194.00
624.23	43903.77
624.38	43735.25
624.53	43798.44
624.68	43744.61
624.83	44079.31
624.98	43990.37
625.13	43655.67
625.29	43973.98
625.44	43805.47
625.59	43320.98
625.74	43477.79
625.89	43381.83
626.04	43821.85
626.19	43491.83
626.34	43648.65
626.49	43545.67
626.65	43852.28
626.80	43725.89
626.95	43571.41
627.10	43105.65
627.25	43271.82
627.40	43161.82
627.55	43040.11
627.70	42457.32
627.85	42911.38
628.00	42707.76
628.15	43641.63
628.30	43145.44
628.45	43070.54
628.60	42941.81
628.76	43267.14
628.91	43501.20
629.06	43082.24
629.21	43110.33
629.36	42822.44
629.51	42726.48
629.66	42752.23
629.81	42770.95
629.96	42885.64
630.11	42995.64
630.26	43302.25
630.41	43119.69
630.56	43047.13
630.71	42981.60
630.86	42787.33
631.01	42693.71
631.16	42768.61
631.31	42581.37
631.46	42249.01
631.61	42553.28
631.76	42691.37
631.91	43129.05
632.06	42691.37
632.21	42890.32
632.36	42487.74
632.51	42560.30
632.66	42106.24
632.81	42153.05
632.96	42691.37
633.10	42127.30
633.25	42260.71
633.40	42429.23
633.55	42450.30
633.70	41954.10
633.85	42499.45
634.00	42501.79
634.15	42501.79
634.30	41883.89
634.45	42291.14
634.60	42064.11
634.75	42017.30
634.90	42115.60
635.05	42206.88
635.19	42029.00
635.34	42059.43
635.49	42036.02
635.64	42131.98
635.79	41577.28
635.94	41940.06
636.09	41918.99
636.24	41380.67
636.39	41563.23
636.53	41745.80
636.68	41666.22
636.83	41177.04
636.98	41696.64
637.13	41254.28
637.28	41734.09
637.43	41371.31
637.57	42089.85
637.72	41500.04
637.87	41684.94
638.02	42366.04
638.17	41511.74
638.32	41654.51
638.46	41588.98
638.61	41219.17
638.76	40935.97
638.91	41450.89
639.06	41312.80
639.20	41235.56
639.35	41397.06
639.50	41493.02
639.65	41118.53
639.80	41596.00
639.94	41226.20
640.09	41137.26
640.24	41282.37
640.39	40755.75
640.54	40732.34
640.68	41116.19
640.83	41326.84
640.98	40524.04
641.13	40528.72
641.27	41020.23
641.42	41127.89
641.57	41394.71
641.72	40800.22
641.86	40816.60
642.01	40212.74
642.16	40498.29
642.31	40142.53
642.45	40477.22
642.60	40404.67
642.75	40662.13
642.90	40542.76
643.04	40210.40
643.19	40320.41
643.34	40325.09
643.48	40690.21
643.63	40573.19
643.78	40479.57
643.93	40411.69
644.07	39875.71
644.22	40620.00
644.37	40474.88
644.51	39899.11
644.66	40334.45
644.81	40172.96
644.95	40662.13
645.10	40261.90
645.25	40545.10
645.39	40023.16
645.54	40058.27
645.69	40081.67
645.83	40020.82
645.98	40126.14
646.13	39803.15
646.27	40306.37
646.42	39945.92
646.57	39934.22
646.71	40144.87
646.86	39828.90
647.00	40201.04
647.15	40037.20
647.30	39878.05
647.44	39505.90
647.59	39508.24
647.74	39225.04
647.88	39842.94
648.03	39901.45
648.17	39744.64
648.32	39634.63
648.47	39239.08
648.61	39374.83
648.76	40046.57
648.90	39545.69
649.05	39929.54
649.20	39941.24
649.34	39732.93
649.49	39555.05
649.63	39019.07
649.78	39421.64
649.92	39222.70
650.07	39693.15
650.21	39398.24
650.36	39210.99
650.51	39166.52
650.65	39440.37
650.80	39234.40
650.94	38941.83
651.09	39559.73
651.23	39302.28
651.38	38993.32
651.52	38937.15
651.67	38778.00
651.81	38998.01
651.96	39133.76
652.10	39061.20
652.25	38869.28
652.39	38869.28
652.54	39203.97
652.68	38880.98
652.83	38873.96
652.97	39150.14
653.12	38710.12
653.26	38593.09
653.41	38909.07
653.55	38476.07
653.70	38920.77
653.84	38717.14
653.99	38937.15
654.13	38686.71
654.27	38134.35
654.42	38417.55
654.56	38382.45
654.71	38291.16
654.85	38497.13
655.00	38763.95
655.14	38176.48
655.29	38040.73
655.43	38447.98
655.57	38405.85
655.72	38106.26
655.86	37823.06
656.01	37909.66
656.15	37720.07
656.30	37282.39
656.44	37757.52
656.58	38003.28
656.73	37652.20
656.87	37539.85
657.01	37900.29
657.16	38068.81
657.30	37907.32
657.45	37408.78
657.59	37965.83
657.73	37567.94
657.88	37401.76
658.02	37951.79
658.16	37867.53
658.31	37577.30
658.45	37762.20
658.60	37666.24
658.74	37471.98
658.88	37680.28
659.03	37326.86
659.17	37422.83
659.31	37457.93
659.46	37324.52
659.60	37521.13
659.74	36919.61
659.89	36987.49
660.03	36957.06
660.17	36971.10
660.32	37156.00
660.46	37373.67
660.60	36975.78
660.74	37544.53
660.89	37134.94
661.03	36758.11
661.17	36919.61
661.32	36645.77
661.46	36690.24
661.60	36343.84
661.74	37144.30
661.89	36751.09
662.03	36278.30
662.17	36580.23
662.31	36137.87
662.46	36713.64
662.60	37097.49
662.74	36741.73
662.88	36402.35
663.03	36044.25
663.17	36357.88
663.31	35992.76
663.45	36357.88
663.60	36002.12
663.74	36334.48
663.88	36126.17
664.02	35878.07
664.17	36219.79
664.31	35821.90
664.45	35917.86
664.59	35744.66
664.73	35702.53
664.88	35716.58
665.02	35084.63
665.16	35498.91
665.30	35276.55
665.44	35625.29
665.59	35262.51
665.73	35531.67
665.87	35306.98
666.01	34897.39
666.15	35456.78
666.29	34941.86
666.44	35213.36
666.58	34810.79
666.72	35077.61
666.86	35187.61
667.00	35255.49
667.14	35023.78
667.28	34419.92
667.43	34597.80
667.57	34787.38
667.71	34307.57
667.85	34593.12
667.99	34471.41
668.13	34476.09
668.27	34330.98
668.41	34436.30
668.56	34183.52
668.70	34712.49
668.84	34263.10
668.98	33942.45
669.12	34092.24
669.26	34171.82
669.40	33895.64
669.54	33937.77
669.68	34195.23
669.82	33893.30
669.96	33947.13
670.10	33268.37
670.25	33469.66
670.39	33752.87
670.53	33652.22
670.67	33411.15
670.81	33752.87
670.95	33769.25
671.09	33476.68
671.23	33837.12
671.37	33649.88
671.51	32760.48
671.65	32666.86
671.79	32657.49
671.93	32414.08
672.07	33397.10
672.21	32980.49
672.35	32673.88
672.49	32545.15
672.63	32865.80
672.77	32659.84
672.91	32313.44
673.05	32128.53
673.19	32327.48
673.33	32535.79
673.47	32371.95
673.61	32259.60
673.75	32119.17
673.89	31828.95
674.03	31475.52
674.17	31662.77
674.31	31634.68
674.45	31599.57
674.59	31714.26
674.73	31702.56
674.87	31639.36
675.01	31538.72
675.15	31440.42
675.29	31374.88
675.43	31512.97
675.56	31262.54
675.70	31440.42
675.84	31089.34
675.98	30223.34
676.12	30836.56
676.26	30586.12
676.40	30932.52
676.54	30642.29
676.68	30483.14
676.82	30120.35
676.96	30483.14
677.10	30377.81
677.23	30298.23
677.37	30134.40
677.51	30160.14
677.65	29977.58
677.79	29886.30
677.93	29682.67
678.07	29481.39
678.21	29596.07
678.34	29500.11
678.48	29163.08
678.62	29256.70
678.76	29305.85
678.90	29134.99
679.04	29350.32
679.18	29053.07
679.31	28987.53
679.45	28662.20
679.59	28526.45
679.73	28467.94
679.87	28271.33
680.00	27833.65
680.14	28217.50
680.28	28144.94
680.42	27889.82
680.56	28063.02
680.70	27796.20
680.83	27707.26
680.97	27784.50
681.11	27821.95
681.25	27246.18
681.39	27655.77
681.52	27601.94
681.66	27185.32
681.80	27477.89
681.94	27115.11
682.07	27077.66
682.21	27178.30
682.35	26930.20
682.49	27026.17
682.62	26883.39
682.76	26668.06
682.90	26504.23
683.04	26747.64
683.17	26492.52
683.31	26232.72
683.45	26487.84
683.59	25993.99
683.72	26176.55
683.86	25935.48
684.00	25748.23
684.13	25926.11
684.27	25635.89
684.41	25647.59
684.55	25713.13
684.68	25745.89
684.82	25474.39
684.96	25404.17
685.09	25245.02
685.23	25006.28
685.37	25034.37
685.50	25233.32
685.64	24624.78
685.78	25027.35
685.91	24877.55
686.05	24767.55
686.19	24002.19
686.32	24563.92
686.46	24226.89
686.60	23955.38
686.73	23889.85
686.87	23749.42
687.01	23796.23
687.14	23309.40
687.28	23536.43
687.42	23335.14
687.55	23456.85
687.69	23290.67
687.82	23484.94
687.96	22995.76
688.10	23234.50
688.23	23243.86
688.37	22855.33
688.50	22710.22
688.64	22897.46
688.78	22735.96
688.91	22593.19
689.05	22632.98
689.18	22665.75
689.32	22104.02
689.46	22146.15
689.59	22644.68
689.73	22792.14
689.86	22160.19
690.00	22157.85
690.13	21902.73
690.27	21921.46
690.41	21986.99
690.54	21612.51
690.68	21624.21
690.81	21685.06
690.95	21553.99
691.08	21270.79
691.22	21371.43
691.35	21497.82
691.49	21401.86
691.62	21556.33
691.76	21476.76
691.89	21254.40
692.03	21118.65
692.16	20748.85
692.30	20821.41
692.43	20814.38
692.57	20402.45
692.70	20652.89
692.84	20280.74
692.97	20025.62
693.11	20034.99
693.24	20034.99
693.38	20308.83
693.51	20250.32
693.65	19934.34
693.78	20219.89
693.92	19592.62
694.05	19946.05
694.19	19742.42
694.32	19922.64
694.45	19639.44
694.59	19391.34
694.72	19389.00
694.86	19360.91
694.99	19012.17
695.13	19552.84
695.26	19016.85
695.39	18963.02
695.53	18867.06
695.66	18820.25
695.80	18710.24
695.93	18483.21
696.07	18422.36
696.20	18382.57
696.33	18272.56
696.47	18427.04
696.60	18328.74
696.73	18160.22
696.87	18071.28
697.00	17961.27
697.14	18082.98
697.27	17958.93
697.40	18167.24
697.54	18047.87
697.67	17853.61
697.80	17738.92
697.94	17624.23
698.07	17600.83
698.21	17532.95
698.34	17556.36
698.47	17275.49
698.61	17060.16
698.74	16858.88
698.87	16819.09
699.01	16863.56
699.14	16615.46
699.27	16580.36
699.40	16903.35
699.54	16381.41
699.67	16133.31
699.80	16266.72
699.94	16477.37
700.07	16175.44
700.20	16264.38
700.34	16332.26
700.47	16170.76
700.60	16563.97
700.73	16252.68
700.87	15880.53
701.00	16070.12
701.13	15976.50
701.26	15623.08
701.40	15726.06
701.53	15349.23
701.66	15578.61
701.79	15489.67
701.93	15389.02
702.06	15236.89
702.19	15325.83
702.32	15353.91
702.46	14965.39
702.59	15213.48
702.72	14927.94
702.85	14995.81
702.99	15187.74
703.12	15145.61
703.25	14895.17
703.38	14626.01
703.51	14518.34
703.65	14661.12
703.78	14607.28
703.91	14527.71
704.04	14317.06
704.17	14305.35
704.31	14024.49
704.44	13984.70
704.57	13923.85
704.70	13956.61
704.83	13933.21
704.96	14230.46
705.10	13813.84
705.23	14246.84
>>>>>End Processed Spectral Data<<<<<
