SpectraSuite Data File
++++++++++++++++++++++++++++++++++++
Date: Fri Oct 25 11:33:08 EDT 2013
User: price-jones
Dark Spectrum Present: No
Reference Spectrum Present: No
Number of Sampled Component Spectra: 1
Spectrometers: USB2+H05261
Integration Time (usec): 100000 (USB2+H05261)
Spectra Averaged: 1 (USB2+H05261)
Boxcar Smoothing: 0 (USB2+H05261)
Correct for Electrical Dark: No (USB2+H05261)
Strobe/Lamp Enabled: No (USB2+H05261)
Correct for Detector Non-linearity: No (USB2+H05261)
Correct for Stray Light: No (USB2+H05261)
Number of Pixels in Processed Spectrum: 2048
>>>>>Begin Processed Spectral Data<<<<<
365.73	297.25
365.92	297.25
366.12	297.25
366.32	217.67
366.52	177.88
366.72	201.29
366.91	191.92
367.11	201.29
367.31	133.41
367.51	203.63
367.70	152.13
367.90	217.67
368.10	201.29
368.30	135.75
368.49	236.39
368.69	210.65
368.89	208.31
369.09	201.29
369.28	177.88
369.48	198.95
369.68	220.01
369.87	133.41
370.07	243.42
370.27	196.60
370.47	344.06
370.66	463.43
370.86	535.98
371.06	603.86
371.25	582.79
371.45	547.69
371.65	503.22
371.84	643.65
372.04	557.05
372.24	592.16
372.44	592.16
372.63	648.33
372.83	629.60
373.03	615.56
373.22	592.16
373.42	660.03
373.62	638.97
373.81	699.82
374.01	622.58
374.21	702.16
374.40	575.77
374.60	589.82
374.79	547.69
374.99	650.67
375.19	660.03
375.38	723.23
375.58	695.14
375.78	706.84
375.97	636.63
376.17	716.20
376.37	655.35
376.56	744.29
376.76	755.99
376.95	711.52
377.15	660.03
377.35	641.31
377.54	650.67
377.74	650.67
377.93	667.05
378.13	732.59
378.33	723.23
378.52	760.67
378.72	744.29
378.91	636.63
379.11	655.35
379.31	634.29
379.50	755.99
379.70	723.23
379.89	819.19
380.09	732.59
380.28	727.91
380.48	718.54
380.68	741.95
380.87	753.65
381.07	716.20
381.26	763.01
381.46	861.32
381.65	816.85
381.85	772.38
382.04	779.40
382.24	709.18
382.43	800.46
382.63	772.38
382.83	821.53
383.02	770.04
383.22	753.65
383.41	819.19
383.61	786.42
383.80	844.93
384.00	814.51
384.19	833.23
384.39	807.48
384.58	844.93
384.78	814.51
384.97	868.34
385.17	884.72
385.36	908.13
385.56	875.36
385.75	908.13
385.95	889.40
386.14	931.53
386.34	854.30
386.53	835.57
386.72	826.21
386.92	912.81
387.11	905.79
387.31	889.40
387.50	919.83
387.70	884.72
387.89	842.59
388.09	873.02
388.28	870.68
388.48	870.68
388.67	926.85
388.86	908.13
389.06	919.83
389.25	877.70
389.45	933.87
389.64	1004.09
389.84	931.53
390.03	1020.47
390.22	940.90
390.42	968.98
390.61	945.58
390.81	961.96
391.00	983.02
391.19	1006.43
391.39	1055.58
391.58	1027.50
391.78	997.07
391.97	961.96
392.16	1050.90
392.36	1062.60
392.55	1111.75
392.75	1062.60
392.94	1100.05
393.13	1146.86
393.33	1076.65
393.52	1114.10
393.71	1095.37
393.91	1116.44
394.10	1090.69
394.29	1071.97
394.49	1132.82
394.68	1203.04
394.88	1004.09
395.07	1139.84
395.26	1153.88
395.46	1139.84
395.65	1086.01
395.84	1179.63
396.04	1242.82
396.23	1247.51
396.42	1196.01
396.62	1247.51
396.81	1240.48
397.00	1338.79
397.19	1200.69
397.39	1268.57
397.58	1256.87
397.77	1217.08
397.97	1266.23
398.16	1217.08
398.35	1303.68
398.55	1210.06
398.74	1198.35
398.93	1343.47
399.12	1327.08
399.32	1270.91
399.51	1277.93
399.70	1315.38
399.90	1371.55
400.09	1427.73
400.28	1423.05
400.47	1362.19
400.67	1416.02
400.86	1413.68
401.05	1467.52
401.24	1469.86
401.44	1481.56
401.63	1390.28
401.82	1575.18
402.01	1486.24
402.21	1570.50
402.40	1558.80
402.59	1509.65
402.78	1549.43
402.97	1462.83
403.17	1535.39
403.36	1537.73
403.55	1526.03
403.74	1612.63
403.93	1614.97
404.13	1584.54
404.32	1603.27
404.51	1605.61
404.70	1680.50
404.89	1643.06
405.09	1729.66
405.28	1685.19
405.47	1659.44
405.66	1657.10
405.85	1654.76
406.05	1699.23
406.24	1746.04
406.43	1771.79
406.62	1781.15
406.81	1891.15
407.00	1785.83
407.20	1741.36
407.39	1792.85
407.58	1888.81
407.77	1916.90
407.96	1753.06
408.15	1851.36
408.34	1816.26
408.54	1989.46
408.73	1912.22
408.92	1902.86
409.11	1942.64
409.30	2026.90
409.49	1987.11
409.68	2083.08
409.87	1921.58
410.07	2064.35
410.26	2125.21
410.45	2087.76
410.64	2127.55
410.83	2033.93
411.02	2057.33
411.21	2209.47
411.40	2237.55
411.59	2183.72
411.78	2242.23
411.98	2132.23
412.17	2260.96
412.36	2214.15
412.55	2270.32
412.74	2349.90
412.93	2333.51
413.12	2396.71
413.31	2392.03
413.50	2251.60
413.69	2431.82
413.88	2574.59
414.07	2483.31
414.26	2490.33
414.45	2476.29
414.64	2438.84
414.83	2628.42
415.02	2647.15
415.22	2654.17
415.41	2794.60
415.60	2691.62
415.79	2630.76
415.98	2738.43
416.17	2743.11
416.36	2799.28
416.55	2740.77
416.74	2853.11
416.93	2771.19
417.12	2808.64
417.31	2925.67
417.50	2899.92
417.69	2890.56
417.88	3028.65
418.07	2986.52
418.26	3002.91
418.45	2939.71
418.64	3030.99
418.83	2981.84
419.02	3023.97
419.21	3192.49
419.39	3192.49
419.58	3075.46
419.77	3028.65
419.96	3138.66
420.15	3166.74
420.34	3199.51
420.53	3150.36
420.72	3297.81
420.91	3218.24
421.10	3339.94
421.29	3262.71
421.48	3218.24
421.67	3414.84
421.86	3356.33
422.05	3449.95
422.24	3361.01
422.43	3386.76
422.61	3353.99
422.80	3314.20
422.99	3382.07
423.18	3452.29
423.37	3449.95
423.56	3454.63
423.75	3473.36
423.94	3447.61
424.13	3293.13
424.32	3293.13
424.50	3370.37
424.69	3520.17
424.88	3506.12
425.07	3449.95
425.26	3363.35
425.45	3424.20
425.64	3412.50
425.83	3365.69
426.01	3478.04
426.20	3590.38
426.39	3604.42
426.58	3431.23
426.77	3531.87
426.96	3595.06
427.15	3517.83
427.33	3754.22
427.52	3595.06
427.71	3557.61
427.90	3693.37
428.09	3630.17
428.28	3791.67
428.46	3726.13
428.65	3672.30
428.84	3758.90
429.03	3864.22
429.22	3786.99
429.40	3761.24
429.59	3751.88
429.78	3620.81
429.97	3637.19
430.16	3882.95
430.34	3892.31
430.53	4037.42
430.72	3810.39
430.91	3988.27
431.10	3906.35
431.28	3978.91
431.47	3920.40
431.66	4016.36
431.85	4018.70
432.03	4102.96
432.22	4032.74
432.41	3955.51
432.60	4074.87
432.79	4065.51
432.97	4138.07
433.16	4191.90
433.35	4056.15
433.54	4243.39
433.72	4133.39
433.91	4149.77
434.10	4287.86
434.28	4189.56
434.47	4301.90
434.66	4290.20
434.85	4339.35
435.03	4421.27
435.22	4449.36
435.41	4442.34
435.59	4362.76
435.78	4285.52
435.97	4404.89
436.16	4447.02
436.34	4430.63
436.53	4496.17
436.72	4610.86
436.90	4393.19
437.09	4517.23
437.28	4491.49
437.46	4589.79
437.65	4559.36
437.84	4704.48
438.02	4704.48
438.21	4578.09
438.40	4580.43
438.58	4777.03
438.77	4931.51
438.96	4795.76
439.14	4830.87
439.33	4940.87
439.52	4840.23
439.70	4968.96
439.89	4865.97
440.08	5036.83
440.26	5036.83
440.45	4954.91
440.63	5146.84
440.82	5093.01
441.01	5184.29
441.19	4990.02
441.38	5305.99
441.57	5317.70
441.75	5376.21
441.94	5390.25
442.12	5437.06
442.31	5423.02
442.50	5385.57
442.68	5486.22
442.87	5483.88
443.05	5624.31
443.24	5659.42
443.43	5486.22
443.61	5467.49
443.80	5825.59
443.98	5526.00
444.17	5490.90
444.35	5621.97
444.54	5811.55
444.73	5664.10
444.91	5577.50
445.10	5776.44
445.28	5715.59
445.47	5659.42
445.65	5825.59
445.84	5633.67
446.02	5881.77
446.21	5701.54
446.39	5603.24
446.58	5816.23
446.77	5734.31
446.95	5607.92
447.14	5689.84
447.32	5816.23
447.51	5846.66
447.69	5776.44
447.88	5844.32
448.06	5874.74
448.25	5729.63
448.43	5874.74
448.62	5872.40
448.80	5937.94
448.99	6052.63
449.17	6029.22
449.36	5757.72
449.54	5921.56
449.73	6125.18
449.91	6136.88
450.10	6143.91
450.28	6108.80
450.46	6197.74
450.65	6106.46
450.83	6242.21
451.02	6289.02
451.20	6340.51
451.39	6303.06
451.57	6125.18
451.76	6251.57
451.94	6218.80
452.13	6335.83
452.31	6237.53
452.49	6202.42
452.68	6394.34
452.86	6436.47
453.05	6494.99
453.23	6565.20
453.42	6260.93
453.60	6413.07
453.78	6457.54
453.97	6455.20
454.15	6537.12
454.34	6420.09
454.52	6576.91
454.70	6675.21
454.89	6609.67
455.07	6726.70
455.26	6604.99
455.44	6792.23
455.62	6672.87
455.81	6700.95
455.99	6874.15
456.17	6754.79
456.36	6719.68
456.54	7023.95
456.73	6965.43
456.91	7103.53
457.09	7075.44
457.28	7173.74
457.46	7059.06
457.64	7162.04
457.83	7225.23
458.01	7070.76
458.19	7180.76
458.38	7183.10
458.56	7260.34
458.74	7110.55
458.93	7236.94
459.11	7166.72
459.29	7178.42
459.48	7269.70
459.66	7157.36
459.84	7524.82
460.03	7494.40
460.21	7391.41
460.39	7241.62
460.57	7588.02
460.76	7442.90
460.94	7592.70
461.12	7735.47
461.31	7595.04
461.49	7602.06
461.67	7379.71
461.85	7852.50
462.04	7763.56
462.22	8149.75
462.40	7899.31
462.59	7852.50
462.77	7791.64
462.95	7854.84
463.13	7955.48
463.32	7831.43
463.50	8161.45
463.68	7903.99
463.86	7892.29
464.05	8018.68
464.23	8002.29
464.41	8067.83
464.59	7836.11
464.78	8079.53
464.96	8074.85
465.14	7936.76
465.32	8088.89
465.50	8149.75
465.69	8236.35
465.87	8156.77
466.05	7894.63
466.23	8187.19
466.41	8231.66
466.60	8329.97
466.78	8304.22
466.96	8344.01
467.14	8210.60
467.32	8348.69
467.51	8470.40
467.69	8304.22
467.87	8505.51
468.05	8393.16
468.23	8627.21
468.41	8505.51
468.60	8465.72
468.78	8531.25
468.96	8482.10
469.14	8704.45
469.32	8709.13
469.50	8353.37
469.69	8748.92
469.87	8699.77
470.05	8814.46
470.23	8809.78
470.41	8786.37
470.59	8917.44
470.77	8877.65
470.95	9022.77
471.14	9060.21
471.32	8889.35
471.50	9125.75
471.68	9202.99
471.86	9263.84
472.04	9226.39
472.22	9394.91
472.40	9348.10
472.58	9291.93
472.77	9394.91
472.95	9399.59
473.13	9778.76
473.31	9626.62
473.49	9764.72
473.67	9540.02
473.85	9610.24
474.03	9813.87
474.21	9685.14
474.39	9785.78
474.57	9694.50
474.75	9900.47
474.93	10108.77
475.12	9977.70
475.30	9970.68
475.48	10127.50
475.66	10366.23
475.84	10092.39
476.02	10310.06
476.20	10499.64
476.38	10445.81
476.56	10651.78
476.74	10499.64
476.92	10427.09
477.10	10579.22
477.28	10546.45
477.46	10820.30
477.64	10836.68
477.82	11084.78
478.00	11339.90
478.18	11103.50
478.36	11454.58
478.54	11386.71
478.72	11253.30
478.90	11688.64
479.08	11716.72
479.26	12006.95
479.44	11751.83
479.62	11857.15
479.80	11903.96
479.98	11934.39
480.16	12262.07
480.34	11960.14
480.52	12203.55
480.70	12365.05
480.88	12135.68
481.06	12486.76
481.24	12489.10
481.41	12575.70
481.59	12716.13
481.77	12901.03
481.95	12891.67
482.13	13167.85
482.31	12884.65
482.49	13556.38
482.67	13483.83
482.85	13664.05
483.03	13776.39
483.21	13750.65
483.39	14132.15
483.57	13951.93
483.74	13942.57
483.92	14083.00
484.10	14010.45
484.28	14530.05
484.46	14738.35
484.64	14801.55
484.82	14874.10
485.00	14860.06
485.18	15098.80
485.35	15159.65
485.53	14949.00
485.71	15101.14
485.89	15438.17
486.07	15344.55
486.25	15550.52
486.43	15695.63
486.61	15875.85
486.78	15971.82
486.96	15861.81
487.14	16276.09
487.32	16266.72
487.50	16496.10
487.68	16638.87
487.85	17067.19
488.03	16830.79
488.21	17195.92
488.39	16924.41
488.57	17383.16
488.75	17343.37
488.92	17848.93
489.10	17778.71
489.28	17699.13
489.46	17909.78
489.64	17797.43
489.81	18380.23
489.99	18235.11
490.17	18239.79
490.35	18539.38
490.53	18869.40
490.70	18941.96
490.88	18838.97
491.06	19089.41
491.24	19042.60
491.41	19300.06
491.59	18937.27
491.77	19349.21
491.95	19520.07
492.13	19894.55
492.30	19920.30
492.48	19854.76
492.66	19932.00
492.84	19983.49
493.01	20226.91
493.19	20067.75
493.37	20266.70
493.54	20821.41
493.72	20524.16
493.90	20725.44
494.08	21043.76
494.25	21036.74
494.43	20802.68
494.61	21692.08
494.79	21390.16
494.96	21703.79
495.14	21785.71
495.32	22071.25
495.49	22237.43
495.67	21968.27
495.85	22097.00
496.02	22309.99
496.20	22410.63
496.38	22640.00
496.55	22857.67
496.73	23119.81
496.91	23108.11
497.09	22796.82
497.26	22944.27
497.44	23508.34
497.62	23344.50
497.79	23571.54
497.97	23627.71
498.14	23627.71
498.32	23718.99
498.50	23868.78
498.67	24058.37
498.85	24063.05
499.03	24091.13
499.20	24212.84
499.38	24297.10
499.56	24608.39
499.73	24809.68
499.91	24704.35
500.08	24978.20
500.26	24617.75
500.44	24755.85
500.61	25039.05
500.79	25111.61
500.97	24938.41
501.14	25135.01
501.32	25397.15
501.49	25355.02
501.67	25816.11
501.84	25797.38
502.02	25649.93
502.20	25984.63
502.37	26010.37
502.55	26064.21
502.72	26319.32
502.90	26324.01
503.07	26281.88
503.25	26712.53
503.43	26354.43
503.60	26768.71
503.78	26536.99
503.95	26944.25
504.13	26679.77
504.30	27199.37
504.48	27143.19
504.65	27276.60
504.83	27300.01
505.01	26862.33
505.18	27400.65
505.36	27868.76
505.53	27627.68
505.71	27363.20
505.88	27695.56
506.06	27632.36
506.23	28037.28
506.41	28081.75
506.58	27957.70
506.76	27988.13
506.93	28194.09
507.11	28364.95
507.28	28456.23
507.46	28311.12
507.63	28130.90
507.81	28727.74
507.98	28367.29
508.16	28912.64
508.33	28608.37
508.50	28989.88
508.68	29172.44
508.85	29209.89
509.03	28891.57
509.20	29427.56
509.38	30008.01
509.55	29455.64
509.73	29542.24
509.90	29582.03
510.08	30033.75
510.25	29783.32
510.42	29778.64
510.60	30352.07
510.77	29860.55
510.95	30424.62
511.12	30209.29
511.30	30508.88
511.47	30515.90
511.64	30616.55
511.82	30955.93
511.99	30075.88
512.17	30911.46
512.34	30759.32
512.51	30955.93
512.69	31220.41
512.86	31311.69
513.04	31482.55
513.21	31161.89
513.38	31407.65
513.56	31129.12
513.73	31538.72
513.90	31014.44
514.08	31260.20
514.25	32009.17
514.43	31742.35
514.60	31833.63
514.77	32074.70
514.95	32348.54
515.12	31995.12
515.29	32093.43
515.47	32051.30
515.64	32336.84
515.81	32149.60
515.99	32395.35
516.16	33209.86
516.33	32680.90
516.51	32751.12
516.68	32456.21
516.85	33053.05
517.03	33074.11
517.20	33069.43
517.37	33015.60
517.54	33362.00
517.72	33352.63
517.89	33280.08
518.06	33656.90
518.24	33242.63
518.41	33439.23
518.58	33385.40
518.75	33528.17
518.93	34068.84
519.10	33338.59
519.27	33975.22
519.45	33991.60
519.62	34007.98
519.79	34106.29
519.96	33930.75
520.14	34405.88
520.31	34099.26
520.48	34366.09
520.65	34656.31
520.83	34487.79
521.00	34583.76
521.17	34515.88
521.34	35063.57
521.52	34930.16
521.69	34754.61
521.86	35309.32
522.03	35416.99
522.20	35199.32
522.38	35309.32
522.55	35168.89
522.72	34960.58
522.89	35386.56
523.07	35557.42
523.24	35445.07
523.41	35442.73
523.58	35250.81
523.75	36240.86
523.92	35536.35
524.10	35906.16
524.27	35873.39
524.44	35976.37
524.61	35875.73
524.78	36346.18
524.96	36334.48
525.13	36381.29
525.30	36683.22
525.47	36362.56
525.64	36514.70
525.81	36912.59
525.98	36694.92
526.16	36746.41
526.33	36510.02
526.50	36811.95
526.67	36603.64
526.84	37179.41
527.01	36858.76
527.18	36931.31
527.36	37638.15
527.53	37219.20
527.70	37373.67
527.87	37055.36
528.04	37069.40
528.21	37366.65
528.38	37469.64
528.55	37462.61
528.72	37074.09
528.89	37193.45
529.07	37233.24
529.24	37652.20
529.41	37998.60
529.58	37832.42
529.75	37883.91
529.92	38080.52
530.09	37755.18
530.26	38239.67
530.43	38115.62
530.60	38080.52
530.77	38223.29
530.94	38195.20
531.11	38029.02
531.28	38192.86
531.46	38602.46
531.63	38649.27
531.80	38335.63
531.97	38609.48
532.14	38740.55
532.31	38541.60
532.48	39227.38
532.65	39028.43
532.82	38911.41
532.99	38487.77
533.16	38824.81
533.33	39206.31
533.50	38998.01
533.67	39054.18
533.84	39119.71
534.01	39203.97
534.18	39124.40
534.35	39784.43
534.52	39636.97
534.69	39742.30
534.86	39924.86
535.03	39288.23
535.20	40093.38
535.37	39814.85
535.54	40194.02
535.71	39976.35
535.88	39634.63
536.05	39468.45
536.22	40137.85
536.38	39665.06
536.55	40332.11
536.72	40154.23
536.89	40060.61
537.06	39878.05
537.23	40343.81
537.40	40168.27
537.57	40018.48
537.74	40109.76
537.91	40650.42
538.08	40589.57
538.25	40285.30
538.42	40816.60
538.59	40919.59
538.75	40547.44
538.92	40596.59
539.09	41074.06
539.26	40950.01
539.43	40753.41
539.60	40713.62
539.77	40832.99
539.94	41223.86
540.11	41436.84
540.28	41273.01
540.44	41420.46
540.61	41134.92
540.78	41315.14
540.95	41703.67
541.12	41228.54
541.29	41368.97
541.46	41333.86
541.62	41308.11
541.79	41368.97
541.96	41448.55
542.13	41177.04
542.30	41614.72
542.47	41752.82
542.63	41827.71
542.80	41752.82
542.97	42047.72
543.14	42192.84
543.31	42174.11
543.48	41811.33
543.64	42714.78
543.81	42391.78
543.98	42660.94
544.15	42270.08
544.32	42270.08
544.48	42979.26
544.65	42349.65
544.82	42401.14
544.99	42120.28
545.16	42822.44
545.32	42799.04
545.49	43007.34
545.66	43402.89
545.83	42948.83
546.00	42843.51
546.16	43100.97
546.33	42885.64
546.50	42728.82
546.67	43564.39
546.83	42705.41
547.00	42801.38
547.17	42932.45
547.34	43337.36
547.50	43276.51
547.67	43615.88
547.84	43381.83
548.00	43583.12
548.17	44353.15
548.34	43454.39
548.51	43761.00
548.67	44013.77
548.84	43470.77
549.01	43580.78
549.18	43742.27
549.34	43997.39
549.51	44205.70
549.68	43578.43
549.84	43728.23
550.01	43768.02
550.18	43667.37
550.34	44280.60
550.51	44116.76
550.68	44669.12
550.84	43620.56
551.01	44301.66
551.18	43964.62
551.34	44147.18
551.51	44257.19
551.68	43894.41
551.84	44423.37
552.01	44397.62
552.18	44463.16
552.34	44409.32
552.51	44577.84
552.68	43840.57
552.84	44411.67
553.01	44404.64
553.18	44432.73
553.34	44650.40
553.51	44472.52
553.67	44914.88
553.84	44573.16
554.01	44500.61
554.17	44570.82
554.34	44795.51
554.51	45113.83
554.67	45284.68
554.84	45134.89
555.00	45057.65
555.17	45099.78
555.33	45144.25
555.50	45050.63
555.67	45155.96
555.83	44802.53
556.00	45045.95
556.16	45214.47
556.33	45272.98
556.50	45038.93
556.66	45415.76
556.83	45413.41
556.99	45727.05
557.16	45577.25
557.32	45455.54
557.49	45474.27
557.65	45373.63
557.82	45420.44
557.98	45537.46
558.15	45490.65
558.32	45691.94
558.48	45467.25
558.65	45663.85
558.81	45907.27
558.98	45790.24
559.14	45298.73
559.31	45916.63
559.47	45535.12
559.64	46054.72
559.80	45954.08
559.97	46143.66
560.13	45680.24
560.30	45705.98
560.46	45825.35
560.63	46052.38
560.79	46138.98
560.96	46225.58
561.12	46291.12
561.29	46445.59
561.45	46272.39
561.61	46192.81
561.78	46064.08
561.94	45890.88
562.11	45942.38
562.27	46377.72
562.44	46007.91
562.60	46230.26
562.77	46403.46
562.93	45909.61
563.10	46286.43
563.26	46459.63
563.42	46759.22
563.59	46021.95
563.75	45872.16
563.92	46286.43
564.08	46347.29
564.24	46307.50
564.41	46560.28
564.57	46405.80
564.74	46323.88
564.90	46272.39
565.07	46621.13
565.23	46363.67
565.39	46258.35
565.56	46457.29
565.72	46555.60
565.88	46490.06
566.05	46719.43
566.21	46536.87
566.38	46712.41
566.54	46426.87
566.70	46604.75
566.87	46890.29
567.03	46878.59
567.19	46937.10
567.36	46773.27
567.52	46724.11
567.68	46965.19
567.85	47068.17
568.01	46646.88
568.17	46820.08
568.34	47234.35
568.50	46511.13
568.66	46419.84
568.83	46515.81
568.99	46939.44
569.15	46358.99
569.32	47447.34
569.48	46843.48
569.64	47077.54
569.81	46958.17
569.97	47093.92
570.13	47391.17
570.30	46801.35
570.46	46658.58
570.62	46911.36
570.78	47044.77
570.95	46850.50
571.11	47421.59
571.27	47114.98
571.43	46752.20
571.60	47189.88
571.76	46813.05
571.92	47023.70
572.09	46902.00
572.25	46876.25
572.41	47065.83
572.57	47330.31
572.74	47562.03
572.90	47086.90
573.06	47192.22
573.22	47587.77
573.38	47072.85
573.55	46925.40
573.71	47674.37
573.87	47550.32
574.03	47400.53
574.20	47470.75
574.36	47395.85
574.52	47374.78
574.68	47234.35
574.84	47725.86
575.01	47753.95
575.17	47447.34
575.33	47407.55
575.49	47096.26
575.65	47447.34
575.82	47353.72
575.98	47143.07
576.14	47711.82
576.30	47580.75
576.46	47487.13
576.62	47220.31
576.79	47140.73
576.95	47143.07
577.11	47615.86
577.27	47054.13
577.43	47391.17
577.59	47503.51
577.75	47065.83
577.92	47175.84
578.08	47648.63
578.24	47330.31
578.40	47861.61
578.56	47681.39
578.72	47213.29
578.88	47351.38
579.04	47157.11
579.21	47636.92
579.37	47363.08
579.53	47964.60
579.69	47461.38
579.85	47608.84
580.01	47356.06
580.17	47358.40
580.33	47810.12
580.49	47178.18
580.65	47913.11
580.82	47351.38
580.98	47435.64
581.14	47124.35
581.30	47517.56
581.46	47510.53
581.62	47496.49
581.78	47285.84
581.94	47669.69
582.10	48126.10
582.26	47772.67
582.42	47657.99
582.58	47732.89
582.74	47735.23
582.90	47882.68
583.06	48161.20
583.22	47655.65
583.38	47496.49
583.54	48116.73
583.70	47650.97
583.86	47819.49
584.02	47714.16
584.18	48016.09
584.34	47765.65
584.50	47810.12
584.66	47983.32
584.82	47669.69
584.98	47866.30
585.14	48020.77
585.30	47402.87
585.46	47812.46
585.62	47791.40
585.78	47796.08
585.94	47531.60
586.10	47828.85
586.26	47512.88
586.42	47920.13
586.58	47510.53
586.74	47999.71
586.90	47337.33
587.06	47552.66
587.22	48044.18
587.38	47913.11
587.54	48112.05
587.70	48390.58
587.86	48088.65
588.02	47524.58
588.18	48062.90
588.34	47409.89
588.49	47976.30
588.65	47608.84
588.81	47636.92
588.97	48163.54
589.13	47597.13
589.29	47915.45
589.45	48060.56
589.61	48318.02
589.77	48140.14
589.93	47873.32
590.08	48217.38
590.24	48371.85
590.40	48568.46
590.56	48348.45
590.72	48212.70
590.88	48081.63
591.04	47885.02
591.20	48421.00
591.35	48416.32
591.51	48746.34
591.67	48353.13
591.83	48528.67
591.99	48088.65
592.15	48135.46
592.31	48119.07
592.46	48273.55
592.62	48048.86
592.78	48016.09
592.94	48811.87
593.10	48247.80
593.26	48402.28
593.41	48350.79
593.57	48488.88
593.73	48196.31
593.89	48645.69
594.05	48322.70
594.20	48568.46
594.36	49031.88
594.52	48334.40
594.68	48353.13
594.84	48467.81
594.99	48671.44
595.15	48374.19
595.31	48910.17
595.47	48624.63
595.62	48671.44
595.78	48322.70
595.94	48591.86
596.10	48411.64
596.25	48318.02
596.41	48865.70
596.57	48641.01
596.73	48861.02
596.88	48636.33
597.04	48781.45
597.20	48521.65
597.36	48275.89
597.51	48612.93
597.67	48287.59
597.83	48519.31
597.99	48556.75
598.14	48488.88
598.30	48318.02
598.46	48741.66
598.61	48692.50
598.77	48776.76
598.93	48727.61
599.09	48629.31
599.24	48982.73
599.40	48821.23
599.56	48931.24
599.71	48676.12
599.87	49216.78
600.03	48917.20
600.18	48250.14
600.34	48664.42
600.50	48907.83
600.65	48390.58
600.81	48994.43
600.97	48954.64
601.12	49008.48
601.28	48839.96
601.44	48573.14
601.59	48542.71
601.75	48549.73
601.91	48601.22
602.06	48500.58
602.22	48868.05
602.37	48353.13
602.53	48652.72
602.69	49155.93
602.84	48837.62
603.00	48467.81
603.16	48765.06
603.31	48629.31
603.47	48580.16
603.62	48727.61
603.78	49052.95
603.94	48809.53
604.09	48608.25
604.25	48575.48
604.40	48561.44
604.56	48786.13
604.71	48814.21
604.87	48631.65
605.03	48413.98
605.18	48816.55
605.34	48961.67
605.49	48409.30
605.65	48458.45
605.80	48404.62
605.96	48193.97
606.12	48348.45
606.27	48657.40
606.43	48767.40
606.58	48769.74
606.74	48514.62
606.89	48238.44
607.05	48729.95
607.20	48851.66
607.36	48704.21
607.51	48446.75
607.67	48521.65
607.82	48547.39
607.98	48584.84
608.13	48327.38
608.29	48212.70
608.44	48512.28
608.60	48172.91
608.75	48292.27
608.91	48825.92
609.06	48303.98
609.22	48633.99
609.37	48336.74
609.53	48453.77
609.68	48362.49
609.84	48313.34
609.99	48598.88
610.15	48561.44
610.30	48509.94
610.46	48624.63
610.61	48467.81
610.76	48493.56
610.92	48133.12
611.07	48355.47
611.23	48041.84
611.38	48247.80
611.54	48446.75
611.69	48280.57
611.84	48376.53
612.00	48282.91
612.15	47885.02
612.31	48509.94
612.46	48055.88
612.62	48126.10
612.77	47669.69
612.92	48303.98
613.08	47976.30
613.23	48013.75
613.39	47854.59
613.54	48149.50
613.69	48514.62
613.85	47922.47
614.00	47852.25
614.15	48219.72
614.31	47859.27
614.46	47992.68
614.62	47814.80
614.77	48231.42
614.92	48105.03
615.08	48355.47
615.23	48041.84
615.38	48098.01
615.54	47922.47
615.69	48081.63
615.84	48093.33
616.00	48229.08
616.15	48133.12
616.30	47782.04
616.46	47695.44
616.61	47810.12
616.76	47854.59
616.92	47906.08
617.07	48219.72
617.22	48102.69
617.37	47592.45
617.53	47622.88
617.68	47688.42
617.83	47819.49
617.99	48079.28
618.14	48023.11
618.29	47606.50
618.45	47107.96
618.60	47285.84
618.75	47281.16
618.90	47281.16
619.06	47409.89
619.21	47529.26
619.36	47679.05
619.51	47428.62
619.67	47437.98
619.82	47414.57
619.97	47756.29
620.12	47636.92
620.28	47295.21
620.43	47580.75
620.58	47290.52
620.73	47327.97
620.89	47395.85
621.04	47531.60
621.19	47482.45
621.34	47297.55
621.49	47435.64
621.65	47370.10
621.80	47636.92
621.95	47147.75
622.10	47398.19
622.25	47042.43
622.41	47423.93
622.56	47166.48
622.71	47028.38
622.86	47381.80
623.01	47281.16
623.16	47026.04
623.32	47033.07
623.47	47037.75
623.62	47157.11
623.77	47206.26
623.92	46721.77
624.07	47473.09
624.23	47009.66
624.38	46972.21
624.53	47072.85
624.68	46588.36
624.83	46689.01
624.98	46817.74
625.13	46845.82
625.29	46621.13
625.44	46836.46
625.59	46618.79
625.74	46747.52
625.89	46574.32
626.04	46698.37
626.19	46995.62
626.34	46387.08
626.49	46342.61
626.65	46122.60
626.80	46312.18
626.95	46335.59
627.10	46148.34
627.25	46476.02
627.40	46564.96
627.55	46717.09
627.70	46433.89
627.85	46789.65
628.00	46199.83
628.15	46146.00
628.30	45947.06
628.45	45787.90
628.60	45457.88
628.76	46195.15
628.91	46394.10
629.06	45705.98
629.21	46085.15
629.36	46101.53
629.51	46089.83
629.66	46412.82
629.81	45811.31
629.96	46129.62
630.11	45766.84
630.26	45823.01
630.41	45963.44
630.56	45521.08
630.71	45970.46
630.86	45656.83
631.01	45324.47
631.16	45624.06
631.31	45811.31
631.46	45703.64
631.61	46220.90
631.76	45907.27
631.91	45911.95
632.06	46108.55
632.21	45977.48
632.36	46014.93
632.51	45237.87
632.66	46199.83
632.81	45471.93
632.96	45813.65
633.10	45221.49
633.25	45535.12
633.40	45518.74
633.55	46017.27
633.70	45497.67
633.85	45258.94
634.00	45413.41
634.15	44875.09
634.30	45235.53
634.45	45219.15
634.60	45263.62
634.75	45525.76
634.90	45074.04
635.05	45191.06
635.19	45041.27
635.34	45118.51
635.49	45015.52
635.64	45172.34
635.79	45338.52
635.94	45006.16
636.09	45441.50
636.24	44797.85
636.39	45158.30
636.53	45324.47
636.68	44786.15
636.83	44552.10
636.98	44748.70
637.13	44535.71
637.28	44334.43
637.43	44168.25
637.57	44732.32
637.72	44566.14
637.87	44528.69
638.02	44882.11
638.17	44432.73
638.32	44495.92
638.46	44409.32
638.61	44680.83
638.76	44086.33
638.91	44259.53
639.06	44025.48
639.20	43889.73
639.35	44135.48
639.50	44215.06
639.65	44322.72
639.80	44605.93
639.94	44495.92
640.09	44802.53
640.24	44392.94
640.39	43995.05
640.54	44144.84
640.68	44093.35
640.83	44498.26
640.98	43903.77
641.13	43585.46
641.27	44451.45
641.42	43800.79
641.57	44025.48
641.72	44002.07
641.86	43999.73
642.01	43749.29
642.16	43826.53
642.31	43824.19
642.45	43981.01
642.60	43257.78
642.75	43812.49
642.90	43934.20
643.04	44051.22
643.19	43676.74
643.34	43952.92
643.48	43805.47
643.63	43533.96
643.78	43636.95
643.93	43964.62
644.07	43988.03
644.22	43533.96
644.37	43562.05
644.51	43761.00
644.66	43681.42
644.81	43721.21
644.95	43517.58
645.10	43281.19
645.25	43526.94
645.39	43367.79
645.54	43367.79
645.69	43199.27
645.83	42852.87
645.98	43082.24
646.13	43023.73
646.27	43063.52
646.42	42941.81
646.57	42911.38
646.71	43072.88
646.86	43269.48
647.00	43365.45
647.15	43065.86
647.30	43365.45
647.44	43009.68
647.59	42951.17
647.74	42707.76
647.88	42904.36
648.03	43117.35
648.17	43215.65
648.32	43138.41
648.47	43604.18
648.61	42799.04
648.76	42462.00
648.90	42871.59
649.05	42969.90
649.20	42972.24
649.34	42789.67
649.49	42597.75
649.63	42506.47
649.78	43299.91
649.92	43016.71
650.07	43119.69
650.21	42892.66
650.36	43077.56
650.51	42691.37
650.65	42693.71
650.80	42672.65
650.94	42712.44
651.09	42529.87
651.23	42183.48
651.38	42408.17
651.52	42000.91
651.67	42478.38
651.81	42511.15
651.96	42307.52
652.10	42103.90
652.25	41820.69
652.39	42653.92
652.54	42150.71
652.68	42506.47
652.83	42134.32
652.97	42335.61
653.12	42532.22
653.26	42143.69
653.41	42394.12
653.55	42312.20
653.70	42499.45
653.84	42644.56
653.99	42141.35
654.13	42136.66
654.27	41979.85
654.42	42389.44
654.56	42047.72
654.71	41752.82
654.85	42251.35
655.00	41977.51
655.14	42124.96
655.29	42113.26
655.43	42534.56
655.57	41500.04
655.72	41478.97
655.86	41572.60
656.01	41830.05
656.15	41666.22
656.30	41769.20
656.44	41701.32
656.58	41507.06
656.73	41703.67
656.87	41425.14
657.01	41474.29
657.16	41694.30
657.30	41338.54
657.45	41153.64
657.59	41371.31
657.73	40720.64
657.88	41249.60
658.02	41572.60
658.16	41642.81
658.31	41120.87
658.45	41818.35
658.60	41350.24
658.74	41352.58
658.88	41165.34
659.03	40964.06
659.17	40767.45
659.31	40690.21
659.46	41017.89
659.60	40680.85
659.74	41130.23
659.89	40282.96
660.03	40821.28
660.17	40552.12
660.32	40348.50
660.46	40273.60
660.60	39945.92
660.74	40205.72
660.89	40500.63
661.03	39959.97
661.17	40069.97
661.32	39878.05
661.46	40004.44
661.60	40201.04
661.74	39697.83
661.89	39917.84
662.03	40179.98
662.17	40039.54
662.31	39861.66
662.46	40154.23
662.60	39746.98
662.74	39461.43
662.88	39323.34
663.03	39571.44
663.17	39536.33
663.31	39365.47
663.45	39461.43
663.60	39700.17
663.74	39737.62
663.88	39847.62
664.02	39196.95
664.17	39725.91
664.31	39653.36
664.45	39243.76
664.59	39051.84
664.73	39491.86
664.88	38810.76
665.02	38873.96
665.16	39185.25
665.30	38958.22
665.44	38260.74
665.59	38794.38
665.73	38508.83
665.87	38071.15
666.01	38206.90
666.15	38763.95
666.29	38106.26
666.44	38515.86
666.58	38462.02
666.72	38471.39
666.86	38040.73
667.00	37996.26
667.14	38014.98
667.28	37968.17
667.43	37972.85
667.57	38197.54
667.71	37755.18
667.85	38054.77
667.99	37935.40
668.13	37710.71
668.27	37647.52
668.41	37652.20
668.56	37006.21
668.70	37298.78
668.84	36690.24
668.98	37212.18
669.12	37088.13
669.26	37479.00
669.40	36877.48
669.54	37441.55
669.68	37273.03
669.82	37361.97
669.96	36961.74
670.10	36570.87
670.25	36699.60
670.39	36568.53
670.53	36570.87
670.67	36645.77
670.81	36704.28
670.95	36582.57
671.09	36290.01
671.23	35807.86
671.37	36638.75
671.51	35999.78
671.65	36418.74
671.79	36219.79
671.93	35936.59
672.07	36456.18
672.21	35857.01
672.35	35590.19
672.49	35627.63
672.63	35484.86
672.77	35419.33
672.91	35447.41
673.05	35161.87
673.19	35442.73
673.33	34876.32
673.47	35145.48
673.61	35005.05
673.75	35140.80
673.89	34813.13
674.03	34747.59
674.17	34789.72
674.31	34480.77
674.45	34314.59
674.59	34665.67
674.73	34242.04
674.87	34227.99
675.01	34157.78
675.15	33984.58
675.29	33813.72
675.43	33778.61
675.56	34342.68
675.70	33605.41
675.84	33706.05
675.98	32893.89
676.12	33790.31
676.26	33734.14
676.40	33343.27
676.54	33069.43
676.68	32903.25
676.82	32708.99
676.96	33057.73
677.10	32837.72
677.23	32971.13
677.37	33146.67
677.51	32636.43
677.65	32734.73
677.79	32493.66
677.93	32673.88
678.07	32472.59
678.21	31936.61
678.34	31840.65
678.48	31868.73
678.62	31622.98
678.76	31768.09
678.90	31578.51
679.04	31667.45
679.18	32388.33
679.31	31585.53
679.45	31466.16
679.59	31115.08
679.73	31112.74
679.87	30913.80
680.00	31005.08
680.14	30895.07
680.28	30693.79
680.42	30850.60
680.56	30639.95
680.70	30490.16
680.83	30253.76
680.97	30253.76
681.11	30153.12
681.25	29874.60
681.39	30155.46
681.52	29472.03
681.66	29516.50
681.80	29256.70
681.94	29074.13
682.07	29287.12
682.21	29394.79
682.35	28978.17
682.49	29322.23
682.62	29254.36
682.76	28945.41
682.90	29006.26
683.04	28697.31
683.17	28713.69
683.31	28540.49
683.45	28311.12
683.59	28114.52
683.72	28217.50
683.86	28343.89
684.00	27950.68
684.13	27623.00
684.27	27744.71
684.41	27386.61
684.55	27763.43
684.68	27821.95
684.82	26757.00
684.96	27274.26
685.09	27433.42
685.23	27454.48
685.37	27894.50
685.50	27356.18
685.64	27393.63
685.78	27058.93
685.91	26834.24
686.05	26384.86
686.19	26293.58
686.32	26235.06
686.46	25902.71
686.60	25785.68
686.73	26389.54
686.87	25989.31
687.01	25977.61
687.14	26010.37
687.28	25610.14
687.42	25771.64
687.55	25689.72
687.69	25565.67
687.82	24968.84
687.96	25216.93
688.10	25287.15
688.23	25497.80
688.37	25322.26
688.50	25458.01
688.64	24912.66
688.78	25015.65
688.91	24526.47
689.05	24603.71
689.18	24474.98
689.32	23910.91
689.46	24128.58
689.59	23850.06
689.73	24343.91
689.86	24479.66
690.00	23852.40
690.13	23861.76
690.27	23864.10
690.41	24016.24
690.54	23506.00
690.68	23351.52
690.81	23206.41
690.95	23393.65
691.08	22916.19
691.22	22822.56
691.35	22810.86
691.49	23161.94
691.62	22930.23
691.76	22232.75
691.89	22097.00
692.03	22335.73
692.16	22127.42
692.30	22143.81
692.43	21898.05
692.57	21884.01
692.70	21848.90
692.84	22171.89
692.97	21699.11
693.11	21586.76
693.24	21317.60
693.38	21282.49
693.51	20940.77
693.65	21429.94
693.78	21207.59
693.92	21022.69
694.05	20856.51
694.19	21036.74
694.32	20814.38
694.45	20837.79
694.59	20491.39
694.72	20634.16
694.86	20680.97
694.99	20858.85
695.13	20486.71
695.26	20070.09
695.39	20060.73
695.53	19913.28
695.66	19894.55
695.80	19924.98
695.93	20063.07
696.07	19742.42
696.20	19433.47
696.33	19187.71
696.47	19122.18
696.60	19070.68
696.73	19325.80
696.87	19398.36
697.00	19049.62
697.14	18794.50
697.27	18829.61
697.40	18892.80
697.54	18829.61
697.67	18698.54
697.80	18490.23
697.94	18466.83
698.07	18728.97
698.21	18251.50
698.34	18356.82
698.47	18368.52
698.61	17776.37
698.74	17886.37
698.87	18108.72
699.01	17701.47
699.14	17785.73
699.27	17378.48
699.40	17455.72
699.54	17474.44
699.67	17451.03
699.80	17869.99
699.94	17114.00
700.07	17092.93
700.20	17074.21
700.34	16812.07
700.47	17092.93
700.60	17345.71
700.73	16879.94
700.87	16851.86
701.00	16772.28
701.13	16634.19
701.26	16311.19
701.40	16365.03
701.53	16240.98
701.66	16147.36
701.79	16173.10
701.93	15887.56
702.06	15917.98
702.19	15662.86
702.32	15906.28
702.46	15838.41
702.59	15775.21
702.72	15761.17
702.85	15627.76
702.99	15557.54
703.12	15367.96
703.25	15122.20
703.38	15051.99
703.51	15363.28
703.65	14909.21
703.78	14839.00
703.91	14796.87
704.04	14913.89
704.17	14422.38
704.31	14600.26
704.44	14537.07
704.57	14494.94
704.70	14658.78
704.83	14171.94
704.96	14279.61
705.10	14202.37
705.23	14143.86
>>>>>End Processed Spectral Data<<<<<
