SpectraSuite Data File
++++++++++++++++++++++++++++++++++++
Date: Fri Oct 25 11:33:56 EDT 2013
User: price-jones
Dark Spectrum Present: No
Reference Spectrum Present: No
Number of Sampled Component Spectra: 1
Spectrometers: USB2+H05261
Integration Time (usec): 100000 (USB2+H05261)
Spectra Averaged: 1 (USB2+H05261)
Boxcar Smoothing: 0 (USB2+H05261)
Correct for Electrical Dark: No (USB2+H05261)
Strobe/Lamp Enabled: No (USB2+H05261)
Correct for Detector Non-linearity: No (USB2+H05261)
Correct for Stray Light: No (USB2+H05261)
Number of Pixels in Processed Spectrum: 2048
>>>>>Begin Processed Spectral Data<<<<<
365.73	374.49
365.92	374.49
366.12	374.49
366.32	189.58
366.52	98.30
366.72	189.58
366.91	70.22
367.11	159.16
367.31	173.20
367.51	252.78
367.70	133.41
367.90	208.31
368.10	238.73
368.30	208.31
368.49	182.56
368.69	238.73
368.89	257.46
369.09	142.77
369.28	102.98
369.48	227.03
369.68	182.56
369.87	259.80
370.07	215.33
370.27	287.89
370.47	358.10
370.66	414.27
370.86	550.03
371.06	596.84
371.25	545.34
371.45	524.28
371.65	610.88
371.84	461.09
372.04	582.79
372.24	582.79
372.44	606.20
372.63	582.79
372.83	587.47
373.03	538.32
373.22	610.88
373.42	662.37
373.62	617.90
373.81	620.24
374.01	650.67
374.21	662.37
374.40	699.82
374.60	678.76
374.79	664.71
374.99	660.03
375.19	638.97
375.38	688.12
375.58	723.23
375.78	622.58
375.97	636.63
376.17	631.94
376.37	634.29
376.56	732.59
376.76	763.01
376.95	662.37
377.15	681.10
377.35	685.78
377.54	695.14
377.74	653.01
377.93	664.71
378.13	629.60
378.33	697.48
378.52	709.18
378.72	627.26
378.91	716.20
379.11	653.01
379.31	655.35
379.50	709.18
379.70	758.33
379.89	772.38
380.09	746.63
380.28	763.01
380.48	697.48
380.68	741.95
380.87	739.61
381.07	727.91
381.26	716.20
381.46	746.63
381.65	786.42
381.85	758.33
382.04	653.01
382.24	751.31
382.43	791.10
382.63	795.78
382.83	751.31
383.02	835.57
383.22	835.57
383.41	746.63
383.61	765.36
383.80	765.36
384.00	856.64
384.19	784.08
384.39	763.01
384.58	842.59
384.78	889.40
384.97	901.11
385.17	828.55
385.36	751.31
385.56	816.85
385.75	774.72
385.95	889.40
386.14	835.57
386.34	866.00
386.53	854.30
386.72	793.44
386.92	959.62
387.11	976.00
387.31	908.13
387.50	875.36
387.70	870.68
387.89	929.19
388.09	812.17
388.28	863.66
388.48	884.72
388.67	945.58
388.86	854.30
389.06	863.66
389.25	971.32
389.45	844.93
389.64	976.00
389.84	980.68
390.03	990.05
390.22	933.87
390.42	903.45
390.61	1036.86
390.81	931.53
391.00	1027.50
391.19	924.51
391.39	1036.86
391.58	936.21
391.78	1018.13
391.97	1011.11
392.16	1008.77
392.36	1025.15
392.55	973.66
392.75	1029.84
392.94	1027.50
393.13	1001.75
393.33	1013.45
393.52	1100.05
393.71	1128.14
393.91	1142.18
394.10	1093.03
394.29	1039.20
394.49	1158.57
394.68	1111.75
394.88	1135.16
395.07	1151.54
395.26	1090.69
395.46	1137.50
395.65	1172.61
395.84	1273.25
396.04	1315.38
396.23	1172.61
396.42	1153.88
396.62	1254.53
396.81	1238.14
397.00	1226.44
397.19	1193.67
397.39	1210.06
397.58	1252.19
397.77	1121.12
397.97	1275.59
398.16	1214.74
398.35	1221.76
398.55	1291.98
398.74	1261.55
398.93	1359.85
399.12	1313.04
399.32	1313.04
399.51	1266.23
399.70	1299.00
399.90	1315.38
400.09	1411.34
400.28	1378.58
400.47	1413.68
400.67	1385.60
400.86	1406.66
401.05	1355.17
401.24	1432.41
401.44	1399.64
401.63	1481.56
401.82	1490.92
402.01	1383.26
402.21	1423.05
402.40	1528.37
402.59	1516.67
402.78	1490.92
402.97	1434.75
403.17	1516.67
403.36	1563.48
403.55	1479.22
403.74	1600.93
403.93	1493.26
404.13	1647.74
404.32	1694.55
404.51	1556.46
404.70	1692.21
404.89	1607.95
405.09	1668.80
405.28	1647.74
405.47	1764.76
405.66	1743.70
405.85	1722.63
406.05	1654.76
406.24	1757.74
406.43	1694.55
406.62	1692.21
406.81	1860.73
407.00	1757.74
407.20	1764.76
407.39	1792.85
407.58	1842.00
407.77	1809.23
407.96	1893.49
408.15	1916.90
408.34	1804.55
408.54	1914.56
408.73	1895.83
408.92	1865.41
409.11	1830.30
409.30	2026.90
409.49	1961.37
409.68	1959.03
409.87	2052.65
410.07	2125.21
410.26	1914.56
410.45	2012.86
410.64	2204.78
410.83	2148.61
411.02	2031.58
411.21	2064.35
411.40	2146.27
411.59	2235.21
411.78	2083.08
411.98	2160.31
412.17	2202.44
412.36	2239.89
412.55	2303.09
412.74	2403.73
412.93	2296.07
413.12	2340.54
413.31	2333.51
413.50	2326.49
413.69	2462.24
413.88	2408.41
414.07	2504.37
414.26	2605.02
414.45	2495.01
414.64	2555.86
414.83	2427.14
415.02	2548.84
415.22	2679.91
415.41	2626.08
415.60	2715.02
415.79	2635.44
415.98	2691.62
416.17	2722.04
416.36	2682.25
416.55	2787.58
416.74	2733.75
416.93	2626.08
417.12	2675.23
417.31	2864.82
417.50	2916.31
417.69	2899.92
417.88	3009.93
418.07	2925.67
418.26	2906.95
418.45	2930.35
418.64	2988.86
418.83	3091.85
419.02	2988.86
419.21	3047.38
419.39	3157.38
419.58	2998.23
419.77	3070.78
419.96	3197.17
420.15	3155.04
420.34	3180.79
420.53	3206.53
420.72	3241.64
420.91	3176.11
421.10	3262.71
421.29	3307.18
421.48	3126.96
421.67	3293.13
421.86	3206.53
422.05	3358.67
422.24	3332.92
422.43	3222.92
422.61	3412.50
422.80	3363.35
422.99	3325.90
423.18	3302.50
423.37	3449.95
423.56	3452.29
423.75	3363.35
423.94	3201.85
424.13	3234.62
424.32	3297.81
424.50	3410.16
424.69	3375.05
424.88	3447.61
425.07	3363.35
425.26	3440.59
425.45	3407.82
425.64	3375.05
425.83	3398.46
426.01	3400.80
426.20	3538.89
426.39	3452.29
426.58	3506.12
426.77	3475.70
426.96	3674.64
427.15	3566.98
427.33	3609.11
427.52	3506.12
427.71	3557.61
427.90	3548.25
428.09	3545.91
428.28	3808.05
428.46	3604.42
428.65	3637.19
428.84	3772.94
429.03	3808.05
429.22	3574.00
429.40	3737.84
429.59	3672.30
429.78	3637.19
429.97	3630.17
430.16	3756.56
430.34	3871.25
430.53	3878.27
430.72	3943.80
430.91	3875.93
431.10	3831.46
431.28	3955.51
431.47	3953.16
431.66	3859.54
431.85	3843.16
432.03	3920.40
432.22	4058.49
432.41	3983.59
432.60	4014.02
432.79	4046.79
432.97	4016.36
433.16	4088.92
433.35	4154.45
433.54	4163.81
433.72	4191.90
433.91	4086.58
434.10	4166.15
434.28	4250.41
434.47	4149.77
434.66	4234.03
434.85	4180.20
435.03	4283.18
435.22	4227.01
435.41	4313.61
435.59	4407.23
435.78	4428.29
435.97	4386.16
436.16	4311.27
436.34	4290.20
436.53	4444.68
436.72	4528.94
436.90	4442.34
437.09	4461.06
437.28	4376.80
437.46	4435.32
437.65	4552.34
437.84	4491.49
438.02	4552.34
438.21	4734.90
438.40	4580.43
438.58	4695.11
438.77	4760.65
438.96	4695.11
439.14	4933.85
439.33	4835.55
439.52	4812.14
439.70	4800.44
439.89	4849.59
440.08	4882.36
440.26	4851.93
440.45	4870.65
440.63	5111.73
440.82	5226.42
441.01	5027.47
441.19	5181.95
441.38	5210.03
441.57	5118.75
441.75	5273.23
441.94	5455.79
442.12	5467.49
442.31	5399.62
442.50	5458.13
442.68	5308.34
442.87	5465.15
443.05	5392.59
443.24	5540.05
443.43	5565.79
443.61	5446.43
443.80	5708.57
443.98	5394.93
444.17	5261.52
444.35	5462.81
444.54	5617.29
444.73	5563.45
444.91	5528.35
445.10	5561.11
445.28	5568.13
445.47	5577.50
445.65	5584.52
445.84	5659.42
446.02	5685.16
446.21	5715.59
446.39	5657.07
446.58	5724.95
446.77	5493.24
446.95	5689.84
447.14	5612.60
447.32	5921.56
447.51	5863.04
447.69	5694.52
447.88	5790.49
448.06	5734.31
448.25	5738.99
448.43	5694.52
448.62	5804.53
448.80	5774.10
448.99	5928.58
449.17	6059.65
449.36	5865.38
449.54	5942.62
449.73	5982.41
449.91	6066.67
450.10	5982.41
450.28	6092.41
450.46	6118.16
450.65	5984.75
450.83	6153.27
451.02	5900.49
451.20	6167.31
451.39	6106.46
451.57	6094.76
451.76	5935.60
451.94	6349.87
452.13	6242.21
452.31	6148.59
452.49	6253.91
452.68	6190.72
452.86	6272.64
453.05	6296.04
453.23	6370.94
453.42	6260.93
453.60	6520.73
453.78	6363.92
453.97	6345.19
454.15	6193.06
454.34	6319.45
454.52	6670.53
454.70	6448.18
454.89	6604.99
455.07	6609.67
455.26	6532.44
455.44	6663.51
455.62	6628.40
455.81	6693.93
455.99	6780.53
456.17	6651.80
456.36	6935.01
456.54	6827.34
456.73	6974.80
456.91	6949.05
457.09	7089.48
457.28	7073.10
457.46	6881.18
457.64	7045.01
457.83	7009.90
458.01	6899.90
458.19	7110.55
458.38	7117.57
458.56	7126.93
458.74	7070.76
458.93	7267.36
459.11	7274.38
459.29	7204.17
459.48	7199.49
459.66	7126.93
459.84	7272.04
460.03	7314.17
460.21	7311.83
460.39	7478.01
460.57	7307.15
460.76	7494.40
460.94	7325.88
461.12	7485.03
461.31	7527.16
461.49	7473.33
461.67	7353.96
461.85	7623.12
462.04	7445.24
462.22	8023.36
462.40	7847.82
462.59	7639.51
462.77	7545.89
462.95	7840.79
463.13	7723.77
463.32	7733.13
463.50	7786.96
463.68	7978.89
463.86	7815.05
464.05	7566.95
464.23	7864.20
464.41	7815.05
464.59	7913.35
464.78	8107.62
464.96	7927.39
465.14	7808.03
465.32	8009.31
465.50	8114.64
465.69	8180.17
465.87	7974.21
466.05	7995.27
466.23	8086.55
466.41	8163.79
466.60	8297.20
466.78	8042.08
466.96	8140.38
467.14	8056.12
467.32	8093.57
467.51	8402.52
467.69	7852.50
467.87	8318.26
468.05	8344.01
468.23	8372.10
468.41	8131.02
468.60	8566.36
468.78	8388.48
468.96	8503.17
469.14	8535.93
469.32	8732.54
469.50	8264.43
469.69	8784.03
469.87	8699.77
470.05	8624.87
470.23	8835.52
470.41	8723.18
470.59	8624.87
470.77	8863.61
470.95	8641.26
471.14	9039.15
471.32	8613.17
471.50	9085.96
471.68	9170.22
471.86	9022.77
472.04	9039.15
472.22	9308.31
472.40	9078.94
472.58	9226.39
472.77	9502.58
472.95	9296.61
473.13	9701.52
473.31	9425.34
473.49	9378.53
473.67	9462.79
473.85	9614.92
474.03	9582.15
474.21	9516.62
474.39	9872.38
474.57	9605.56
474.75	9797.48
474.93	9949.62
475.12	9743.65
475.30	10073.67
475.48	9790.46
475.66	9980.04
475.84	9991.75
476.02	10073.67
476.20	9949.62
476.38	10340.49
476.56	10499.64
476.74	10230.48
476.92	10391.98
477.10	10518.37
477.28	10724.33
477.46	10754.76
477.64	10902.22
477.82	10995.84
478.00	11033.29
478.18	11096.48
478.36	11164.36
478.54	11211.17
478.72	11213.51
478.90	11353.94
479.08	11541.18
479.26	11817.36
479.44	11651.19
479.62	11660.55
479.80	11726.08
479.98	11946.09
480.16	12243.34
480.34	11967.16
480.52	12250.36
480.70	12058.44
480.88	12175.47
481.06	12386.12
481.24	12196.53
481.41	12650.60
481.59	12610.81
481.77	12833.16
481.95	12784.01
482.13	12861.24
482.31	12868.27
482.49	13172.54
482.67	13289.56
482.85	13345.73
483.03	13385.52
483.21	13621.92
483.39	13928.53
483.57	13359.78
483.74	13797.46
483.92	13928.53
484.10	14033.85
484.28	13958.96
484.46	14111.09
484.64	14597.92
484.82	14534.73
485.00	14799.21
485.18	14909.21
485.35	15176.03
485.53	14939.64
485.71	15056.67
485.89	15222.84
486.07	15068.37
486.25	15229.87
486.43	15599.67
486.61	15889.90
486.78	15431.15
486.96	15805.64
487.14	15707.34
487.32	15815.00
487.50	16297.15
487.68	16456.31
487.85	16339.28
488.03	16561.63
488.21	16652.91
488.39	16814.41
488.57	16526.52
488.75	16964.20
488.92	17392.52
489.10	17235.70
489.28	17598.49
489.46	17593.81
489.64	17727.22
489.81	17975.31
489.99	17783.39
490.17	18150.85
490.35	18415.34
490.53	18106.38
490.70	18562.79
490.88	18375.55
491.06	18710.24
491.24	18785.14
491.41	18820.25
491.59	19257.93
491.77	18998.13
491.95	19400.70
492.13	19456.87
492.30	19796.25
492.48	19384.32
492.66	19793.91
492.84	19695.61
493.01	19824.34
493.19	20112.22
493.37	20051.37
493.54	20133.29
493.72	20514.80
493.90	20365.00
494.08	20842.47
494.25	20812.04
494.43	20856.51
494.61	21125.68
494.79	21081.21
494.96	20917.37
495.14	21191.21
495.32	21104.61
495.49	21937.84
495.67	21757.62
495.85	21982.31
496.02	21902.73
496.20	21919.12
496.38	21907.41
496.55	22309.99
496.73	22581.49
496.91	22328.71
497.09	22895.12
497.26	22771.07
497.44	22621.28
497.62	22963.00
497.79	23274.29
497.97	22951.29
498.14	23204.07
498.32	23468.55
498.50	23527.06
498.67	23772.82
498.85	23463.87
499.03	23775.16
499.20	23838.36
499.38	24093.47
499.56	24280.72
499.73	24208.16
499.91	24355.61
500.08	24254.97
500.26	24348.59
500.44	24524.13
500.61	24573.28
500.79	24552.22
500.97	24821.38
501.14	25238.00
501.32	25256.72
501.49	25092.88
501.67	25497.80
501.84	25607.80
502.02	24985.22
502.20	25680.36
502.37	25500.14
502.55	25560.99
502.72	25631.21
502.90	25605.46
503.07	25434.60
503.25	25678.02
503.43	25694.40
503.60	26038.46
503.78	26462.10
503.95	26281.88
504.13	26520.61
504.30	26480.82
504.48	26490.18
504.65	26728.92
504.83	26586.15
505.01	26766.37
505.18	26972.33
505.36	27164.26
505.53	26764.03
505.71	27182.98
505.88	27131.49
506.06	27220.43
506.23	27676.83
506.41	27381.93
506.58	27302.35
506.76	27587.89
506.93	28037.28
507.11	27566.83
507.28	28102.81
507.46	28084.09
507.63	28107.49
507.81	28432.83
507.98	28463.25
508.16	28421.13
508.33	28559.22
508.50	28182.39
508.68	28524.11
508.85	28755.82
509.03	28622.41
509.20	28341.55
509.38	29453.30
509.55	29179.46
509.73	28774.55
509.90	29287.12
510.08	29294.14
510.25	29186.48
510.42	29406.49
510.60	29495.43
510.77	29399.47
510.95	29912.05
511.12	29839.49
511.30	29780.98
511.47	29731.83
511.64	29441.60
511.82	30164.82
511.99	30010.35
512.17	30422.28
512.34	30225.68
512.51	30637.61
512.69	30698.47
512.86	30316.96
513.04	30654.00
513.21	30703.15
513.38	30684.42
513.56	31505.95
513.73	30801.45
513.90	30878.69
514.08	31154.87
514.25	31199.34
514.43	31353.82
514.60	31353.82
514.77	30586.12
514.95	31339.77
515.12	31161.89
515.29	31807.88
515.47	31299.98
515.64	32060.66
515.81	31747.03
515.99	31704.90
516.16	32067.68
516.33	31777.45
516.51	32369.61
516.68	32091.09
516.85	32245.56
517.03	32203.43
517.20	32453.87
517.37	32449.19
517.54	33039.00
517.72	32549.83
517.89	32641.11
518.06	32849.42
518.24	33010.92
518.41	32339.18
518.58	32400.04
518.75	32865.80
518.93	33249.65
519.10	33022.62
519.27	33120.92
519.45	33298.80
519.62	33560.94
519.79	33614.77
519.96	33635.84
520.14	33572.64
520.31	33125.60
520.48	33869.89
520.65	33888.62
520.83	34080.54
521.00	33813.72
521.17	34061.82
521.34	33986.92
521.52	34143.74
521.69	34164.80
521.86	34677.38
522.03	34658.65
522.20	34553.33
522.38	35077.61
522.55	34953.56
522.72	34181.18
522.89	34618.86
523.07	34890.37
523.24	35103.35
523.41	34951.22
523.58	35161.87
523.75	34967.60
523.92	35161.87
524.10	35072.93
524.27	35414.65
524.44	35494.22
524.61	35278.89
524.78	35211.02
524.96	35882.75
525.13	35515.29
525.30	36037.23
525.47	35531.67
525.64	35927.22
525.81	36264.26
525.98	36170.64
526.16	35915.52
526.33	36119.15
526.50	36306.39
526.67	36194.04
526.84	36172.98
527.01	36114.47
527.18	36215.11
527.36	36353.20
527.53	36928.97
527.70	37024.93
527.87	37191.11
528.04	36664.49
528.21	36673.85
528.38	36914.93
528.55	37104.51
528.72	36830.67
528.89	37017.91
529.07	36868.12
529.24	37085.79
529.41	37104.51
529.58	37324.52
529.75	36858.76
529.92	37656.88
530.09	37500.06
530.26	37577.30
530.43	37397.08
530.60	37209.84
530.77	37312.82
530.94	37675.60
531.11	37521.13
531.28	37425.17
531.46	37745.82
531.63	37837.10
531.80	37717.73
531.97	37699.01
532.14	38059.45
532.31	38356.70
532.48	37752.84
532.65	38670.33
532.82	38579.05
532.99	38405.85
533.16	37975.19
533.33	38614.16
533.50	38373.08
533.67	38621.18
533.84	38253.72
534.01	38630.54
534.18	38218.61
534.35	38443.30
534.52	38628.20
534.69	39182.91
534.86	39070.56
535.03	39030.77
535.20	39068.22
535.37	38958.22
535.54	39203.97
535.71	39166.52
535.88	39330.36
536.05	39271.85
536.22	39632.29
536.38	39278.87
536.55	39508.24
536.72	39426.32
536.89	39000.35
537.06	39658.04
537.23	39505.90
537.40	39725.91
537.57	39157.16
537.74	39494.20
537.91	39885.07
538.08	39957.63
538.25	39405.26
538.42	39487.18
538.59	40184.66
538.75	40156.57
538.92	40156.57
539.09	40149.55
539.26	39978.69
539.43	40102.74
539.60	40236.15
539.77	40062.95
539.94	40402.33
540.11	40414.03
540.28	40751.07
540.44	40526.38
540.61	40055.93
540.78	40481.91
540.95	40486.59
541.12	40271.26
541.29	40617.66
541.46	40669.15
541.62	40676.17
541.79	41195.77
541.96	40804.90
542.13	40760.43
542.30	40781.49
542.47	40708.94
542.63	41399.40
542.80	41359.61
542.97	41446.21
543.14	41710.69
543.31	41783.24
543.48	41226.20
543.64	42064.11
543.81	42003.25
543.98	41586.64
544.15	41383.01
544.32	41858.14
544.48	42316.89
544.65	42157.73
544.82	42218.58
544.99	41801.97
545.16	41677.92
545.32	41687.28
545.49	41820.69
545.66	42377.74
545.83	42134.32
546.00	42368.38
546.16	42218.58
546.33	41867.50
546.50	42174.11
546.67	42298.16
546.83	42003.25
547.00	42330.93
547.17	42256.03
547.34	42684.35
547.50	42562.64
547.67	42443.27
547.84	42866.91
548.00	42836.48
548.17	42586.05
548.34	42536.90
548.51	43257.78
548.67	42995.64
548.84	42658.60
549.01	42642.22
549.18	43201.61
549.34	43103.31
549.51	43009.68
549.68	43166.50
549.84	43143.09
550.01	43215.65
550.18	42382.42
550.34	43061.18
550.51	43335.02
550.68	43672.06
550.84	42932.45
551.01	43320.98
551.18	43299.91
551.34	43161.82
551.51	43470.77
551.68	43938.88
551.84	43311.61
552.01	43351.40
552.18	43576.09
552.34	43349.06
552.51	43873.34
552.68	43454.39
552.84	43728.23
553.01	43892.07
553.18	43707.16
553.34	43714.19
553.51	44044.20
553.67	43915.47
553.84	44449.11
554.01	44369.54
554.17	43981.01
554.34	44311.02
554.51	44292.30
554.67	44442.09
554.84	44535.71
555.00	44083.99
555.17	43915.47
555.33	44577.84
555.50	43856.96
555.67	44341.45
555.83	44713.59
556.00	44423.37
556.16	44715.93
556.33	44734.66
556.50	44437.41
556.66	44395.28
556.83	44364.85
556.99	44470.18
557.16	44725.30
557.32	44753.38
557.49	44788.49
557.65	44287.62
557.82	44830.62
557.98	44629.34
558.15	44971.05
558.32	44999.14
558.48	44732.32
558.65	45113.83
558.81	44769.77
558.98	45064.67
559.14	44891.48
559.31	44411.67
559.47	45301.07
559.64	44823.60
559.80	45179.36
559.97	44830.62
560.13	44421.03
560.30	44938.29
560.46	45509.38
560.63	45804.28
560.79	45228.51
560.96	45478.95
561.12	45254.26
561.29	45230.85
561.45	45284.68
561.61	45151.27
561.78	44987.44
561.94	45434.48
562.11	45020.20
562.27	45207.45
562.44	45422.78
562.60	45661.51
562.77	45572.57
562.93	45357.24
563.10	45818.33
563.26	45483.63
563.42	46146.00
563.59	45450.86
563.75	45174.68
563.92	45600.66
564.08	45787.90
564.24	45659.17
564.41	45607.68
564.57	45368.94
564.74	45790.24
564.90	45750.45
565.07	45326.81
565.23	45633.42
565.39	45691.94
565.56	45986.85
565.72	45694.28
565.88	45560.87
566.05	45872.16
566.21	45460.23
566.38	46059.40
566.54	45811.31
566.70	45825.35
566.87	45830.03
567.03	46370.69
567.19	45890.88
567.36	46124.94
567.52	46204.52
567.68	46319.20
567.85	46199.83
568.01	45890.88
568.17	45858.12
568.34	45989.19
568.50	46122.60
568.66	46096.85
568.83	45574.91
568.99	45918.97
569.15	46277.07
569.32	46040.68
569.48	46089.83
569.64	46557.94
569.81	46099.19
569.97	46419.84
570.13	46464.32
570.30	46174.09
570.46	46281.75
570.62	46621.13
570.78	46410.48
570.95	46637.51
571.11	46586.02
571.27	46340.27
571.43	46466.66
571.60	46218.56
571.76	46347.29
571.92	46520.49
572.09	46382.40
572.25	46153.02
572.41	46218.56
572.57	46115.58
572.74	46878.59
572.90	46450.27
573.06	46691.35
573.22	46099.19
573.38	46733.48
573.55	46305.16
573.71	46827.10
573.87	46700.71
574.03	46394.10
574.20	46831.78
574.36	46394.10
574.52	46864.55
574.68	46953.49
574.84	46632.83
575.01	46738.16
575.17	46845.82
575.33	46529.85
575.49	46555.60
575.65	46349.63
575.82	46993.28
575.98	46241.96
576.14	46705.39
576.30	47070.51
576.46	46829.44
576.62	46461.97
576.79	46803.69
576.95	46443.25
577.11	46635.17
577.27	46635.17
577.43	46745.18
577.59	46806.03
577.75	46714.75
577.92	46284.09
578.08	46532.19
578.24	46621.13
578.40	47016.68
578.56	46983.91
578.72	46646.88
578.88	46946.47
579.04	46417.50
579.21	46483.04
579.37	46766.24
579.53	46930.08
579.69	46880.93
579.85	46731.14
580.01	46712.41
580.17	46630.49
580.33	47264.78
580.49	46944.12
580.65	46864.55
580.82	46480.70
580.98	46571.98
581.14	46508.79
581.30	46855.18
581.46	46693.69
581.62	46775.61
581.78	46836.46
581.94	46806.03
582.10	46791.99
582.26	47096.26
582.42	47035.41
582.58	47023.70
582.74	46710.07
582.90	47117.32
583.06	46953.49
583.22	46976.89
583.38	47096.26
583.54	46902.00
583.70	46876.25
583.86	47402.87
584.02	46724.11
584.18	47227.33
584.34	46784.97
584.50	47374.78
584.66	47405.21
584.82	47267.12
584.98	47524.58
585.14	47426.28
585.30	46724.11
585.46	47154.77
585.62	47143.07
585.78	47255.42
585.94	46576.66
586.10	46749.86
586.26	46681.98
586.42	47105.62
586.58	47222.65
586.74	46787.31
586.90	46941.78
587.06	47210.95
587.22	47037.75
587.38	46571.98
587.54	46988.60
587.70	47129.03
587.86	47026.04
588.02	47079.88
588.18	46883.27
588.34	46911.36
588.49	47224.99
588.65	46747.52
588.81	47042.43
588.97	47337.33
589.13	46937.10
589.29	47168.82
589.45	47334.99
589.61	47171.16
589.77	47531.60
589.93	47264.78
590.08	47356.06
590.24	47646.29
590.40	47714.16
590.56	47709.48
590.72	47192.22
590.88	47196.90
591.04	47246.05
591.20	47484.79
591.35	47501.17
591.51	47952.90
591.67	47587.77
591.83	47557.35
591.99	47529.26
592.15	47777.36
592.31	47503.51
592.46	47414.57
592.62	47669.69
592.78	47784.38
592.94	47908.43
593.10	47674.37
593.26	47562.03
593.41	47639.26
593.57	47922.47
593.73	47501.17
593.89	48336.74
594.05	47931.83
594.20	47838.21
594.36	48058.22
594.52	47540.96
594.68	47859.27
594.84	47803.10
594.99	48030.13
595.15	47505.85
595.31	47760.97
595.47	47604.16
595.62	47683.73
595.78	47578.41
595.94	47793.74
596.10	47681.39
596.25	47594.79
596.41	48135.46
596.57	47477.77
596.73	48151.84
596.88	47782.04
597.04	47908.43
597.20	48240.78
597.36	47613.52
597.51	47473.09
597.67	47714.16
597.83	47938.85
597.99	48217.38
598.14	47718.84
598.30	48397.60
598.46	47887.36
598.61	47913.11
598.77	47873.32
598.93	47749.27
599.09	47885.02
599.24	48327.38
599.40	47833.53
599.56	48130.78
599.71	48114.39
599.87	48273.55
600.03	48334.40
600.18	47849.91
600.34	48156.52
600.50	48318.02
600.65	48002.05
600.81	48130.78
600.97	48196.31
601.12	47999.71
601.28	47456.70
601.44	47730.54
601.59	47992.68
601.75	48004.39
601.91	48177.59
602.06	48158.86
602.22	48137.80
602.37	48130.78
602.53	47894.38
602.69	47906.08
602.84	47800.76
603.00	48046.52
603.16	48055.88
603.31	47814.80
603.47	47964.60
603.62	47791.40
603.78	48072.26
603.94	47618.20
604.09	47840.55
604.25	47693.10
604.40	48025.45
604.56	47924.81
604.71	48135.46
604.87	47938.85
605.03	47817.14
605.18	47571.39
605.34	48090.99
605.49	47519.90
605.65	47992.68
605.80	47756.29
605.96	47800.76
606.12	47889.70
606.27	48229.08
606.43	47339.68
606.58	47702.46
606.74	47767.99
606.89	47562.03
607.05	47866.30
607.20	47590.11
607.36	47297.55
607.51	47887.36
607.67	47742.25
607.82	47688.42
607.98	47922.47
608.13	47370.10
608.29	47824.17
608.44	47669.69
608.60	47798.42
608.75	47419.25
608.91	47653.31
609.06	47531.60
609.22	47650.97
609.37	47859.27
609.53	47564.37
609.68	47913.11
609.84	47688.42
609.99	47718.84
610.15	47746.93
610.30	47758.63
610.46	47407.55
610.61	47962.26
610.76	47917.79
610.92	47255.42
611.07	47555.00
611.23	47236.69
611.38	47721.18
611.54	47620.54
611.69	47655.65
611.84	47749.27
612.00	47739.91
612.15	47313.93
612.31	47880.34
612.46	46974.55
612.62	47194.56
612.77	47199.24
612.92	47452.02
613.08	47224.99
613.23	47496.49
613.39	47105.62
613.54	47161.79
613.69	47517.56
613.85	47178.18
614.00	46913.70
614.15	47295.21
614.31	46813.05
614.46	47164.14
614.62	47014.34
614.77	47372.44
614.92	47327.97
615.08	47508.19
615.23	47150.09
615.38	47370.10
615.54	47096.26
615.69	47119.66
615.84	47063.49
616.00	47564.37
616.15	47173.50
616.30	47386.49
616.46	47323.29
616.61	47063.49
616.76	47136.05
616.92	47119.66
617.07	46955.83
617.22	47133.71
617.37	46857.52
617.53	47232.01
617.68	46513.47
617.83	46625.81
617.99	46871.57
618.14	46883.27
618.29	46476.02
618.45	46815.40
618.60	46618.79
618.75	46564.96
618.90	46747.52
619.06	46506.44
619.21	46672.62
619.36	47150.09
619.51	46363.67
619.67	46522.83
619.82	46642.20
619.97	46939.44
620.12	46473.68
620.28	46665.60
620.43	46539.21
620.58	46747.52
620.73	46485.38
620.89	46780.29
621.04	46845.82
621.19	46576.66
621.34	46270.05
621.49	45975.14
621.65	46370.69
621.80	46920.72
621.95	46518.15
622.10	46667.94
622.25	46387.08
622.41	46426.87
622.56	46541.55
622.71	46230.26
622.86	46309.84
623.01	46349.63
623.16	46153.02
623.32	46433.89
623.47	46000.89
623.62	46045.36
623.77	46628.15
623.92	46239.62
624.07	46356.65
624.23	46141.32
624.38	46351.97
624.53	45743.43
624.68	45752.79
624.83	45925.99
624.98	46335.59
625.13	45834.71
625.29	46326.22
625.44	45488.31
625.59	46066.42
625.74	46176.43
625.89	45366.60
626.04	45614.70
626.19	45638.11
626.34	45656.83
626.49	45411.07
626.65	45378.31
626.80	45572.57
626.95	45223.83
627.10	45209.79
627.25	45848.75
627.40	45755.13
627.55	45495.33
627.70	45748.11
627.85	45619.38
628.00	45558.53
628.15	45766.84
628.30	45127.87
628.45	45074.04
628.60	44847.00
628.76	45251.92
628.91	45834.71
629.06	45097.44
629.21	45193.40
629.36	44818.92
629.51	45045.95
629.66	45682.58
629.81	45010.84
629.96	45177.02
630.11	45141.91
630.26	45179.36
630.41	45413.41
630.56	44877.43
630.71	45226.17
630.86	45050.63
631.01	44357.83
631.16	45050.63
631.31	44687.85
631.46	44776.79
631.61	45017.86
631.76	44708.91
631.91	44727.64
632.06	45399.37
632.21	45006.16
632.36	44933.60
632.51	44327.41
632.66	44971.05
632.81	44701.89
632.96	44884.45
633.10	44652.74
633.25	44669.12
633.40	44687.85
633.55	45034.25
633.70	44545.08
633.85	44861.05
634.00	44463.16
634.15	44156.55
634.30	44182.29
634.45	44545.08
634.60	44402.30
634.75	44414.01
634.90	44816.58
635.05	44453.79
635.19	44509.97
635.34	44718.28
635.49	44186.97
635.64	44406.98
635.79	44435.07
635.94	44545.08
636.09	44484.22
636.24	43908.45
636.39	44121.44
636.53	44081.65
636.68	43873.34
636.83	43814.83
636.98	43306.93
637.13	43519.92
637.28	43856.96
637.43	43959.94
637.57	43966.96
637.72	43805.47
637.87	43606.52
638.02	44006.75
638.17	43796.10
638.32	43531.62
638.46	43707.16
638.61	43573.75
638.76	43908.45
638.91	43648.65
639.06	43470.77
639.20	43662.69
639.35	43316.29
639.50	43129.05
639.65	43491.83
639.80	43662.69
639.94	43475.45
640.09	43697.80
640.24	43744.61
640.39	43288.21
640.54	43192.25
640.68	43536.30
640.83	43681.42
640.98	43608.86
641.13	43253.10
641.27	44140.16
641.42	43395.87
641.57	43124.37
641.72	43536.30
641.86	43054.15
642.01	42766.27
642.16	42398.80
642.31	42581.37
642.45	43147.78
642.60	42768.61
642.75	42862.23
642.90	42831.80
643.04	42747.54
643.19	43145.44
643.34	42808.40
643.48	42782.65
643.63	42873.93
643.78	42930.11
643.93	42698.39
644.07	42862.23
644.22	43152.46
644.37	42609.45
644.51	42827.12
644.66	42672.65
644.81	42728.82
644.95	43192.25
645.10	42946.49
645.25	42328.59
645.39	42602.43
645.54	42349.65
645.69	42333.27
645.83	42122.62
645.98	42412.85
646.13	42483.06
646.27	42487.74
646.42	42267.73
646.57	42719.46
646.71	42590.73
646.86	42354.33
647.00	42740.52
647.15	42637.54
647.30	42464.34
647.44	42504.13
647.59	42429.23
647.74	42110.92
647.88	42218.58
648.03	42031.34
648.17	42476.04
648.32	42567.32
648.47	42527.53
648.61	42031.34
648.76	41961.12
648.90	41661.54
649.05	42447.96
649.20	42014.96
649.34	42225.60
649.49	41736.43
649.63	42312.20
649.78	42382.42
649.92	42010.28
650.07	42211.56
650.21	42417.53
650.36	42429.23
650.51	42054.75
650.65	41591.32
650.80	41703.67
650.94	41743.45
651.09	41598.34
651.23	41706.01
651.38	41413.44
651.52	41530.47
651.67	41691.96
651.81	41249.60
651.96	41294.07
652.10	40818.94
652.25	40973.42
652.39	41467.27
652.54	41586.64
652.68	41111.51
652.83	41146.62
652.97	41720.05
653.12	41383.01
653.26	40722.98
653.41	41390.03
653.55	41282.37
653.70	41701.32
653.84	41645.15
653.99	41549.19
654.13	41174.70
654.27	41228.54
654.42	41111.51
654.56	41359.61
654.71	41179.39
654.85	41434.50
655.00	41090.44
655.14	41195.77
655.29	41104.49
655.43	41298.75
655.57	40882.14
655.72	40886.82
655.86	40978.10
656.01	40701.92
656.15	40634.04
656.30	40781.49
656.44	40563.82
656.58	40884.48
656.73	40837.67
656.87	40671.49
657.01	40402.33
657.16	40722.98
657.30	40762.77
657.45	40266.58
657.59	40982.78
657.73	39943.58
657.88	40533.40
658.02	40374.24
658.16	40697.24
658.31	40509.99
658.45	40418.71
658.60	40435.10
658.74	40329.77
658.88	39875.71
659.03	40133.17
659.17	39618.25
659.31	40072.31
659.46	40165.93
659.60	40194.02
659.74	40318.07
659.89	39388.88
660.03	39541.01
660.17	39959.97
660.32	40048.91
660.46	39878.05
660.60	38953.54
660.74	39541.01
660.89	39515.26
661.03	39419.30
661.17	39084.61
661.32	38682.03
661.46	39751.66
661.60	39115.03
661.74	39133.76
661.89	38988.64
662.03	39487.18
662.17	38836.51
662.31	39115.03
662.46	38885.66
662.60	39131.42
662.74	38581.39
662.88	38646.93
663.03	38300.53
663.17	38986.30
663.31	38295.85
663.45	38808.42
663.60	38724.16
663.74	38167.12
663.88	38728.84
664.02	38557.99
664.17	39084.61
664.31	38389.47
664.45	38242.01
664.59	38127.33
664.73	38192.86
664.88	38354.36
665.02	38068.81
665.16	38085.20
665.30	38249.03
665.44	37839.44
665.59	37544.53
665.73	38003.28
665.87	37270.69
666.01	37860.51
666.15	37673.26
666.29	37872.21
666.44	37640.50
666.58	37633.47
666.72	37013.23
666.86	37113.87
667.00	37132.60
667.14	37195.79
667.28	37558.58
667.43	36994.51
667.57	37088.13
667.71	37336.23
667.85	37359.63
667.99	36971.10
668.13	36662.15
668.27	36699.60
668.41	36772.16
668.56	36343.84
668.70	36690.24
668.84	36240.86
668.98	36676.19
669.12	36449.16
669.26	36320.43
669.40	36339.16
669.54	36484.27
669.68	36257.24
669.82	36411.71
669.96	35901.48
670.10	35725.94
670.25	35765.73
670.39	35508.27
670.53	35641.68
670.67	36154.26
670.81	36252.56
670.95	35669.76
671.09	35658.06
671.23	35185.27
671.37	35512.95
671.51	35264.85
671.65	35569.12
671.79	35356.13
671.93	35545.72
672.07	35213.36
672.21	35246.13
672.35	34824.83
672.49	35220.38
672.63	34775.68
672.77	34642.27
672.91	34646.95
673.05	34270.12
673.19	34244.38
673.33	34085.22
673.47	34073.52
673.61	34141.39
673.75	34003.30
673.89	34213.95
674.03	34244.38
674.17	34057.14
674.31	33921.38
674.45	33921.38
674.59	33764.57
674.73	33893.30
674.87	33191.14
675.01	33441.57
675.15	33249.65
675.29	33160.71
675.43	33378.38
675.56	33020.28
675.70	33259.01
675.84	33055.39
675.98	31784.48
676.12	33244.97
676.26	33301.14
676.40	32566.21
676.54	32486.64
676.68	32151.94
676.82	31817.24
676.96	32517.06
677.10	32203.43
677.23	31999.80
677.37	31906.18
677.51	32231.52
677.65	31704.90
677.79	31765.75
677.93	31854.69
678.07	31725.96
678.21	31531.70
678.34	31337.43
678.48	31115.08
678.62	30976.99
678.76	30871.67
678.90	30939.54
679.04	30920.82
679.18	31243.81
679.31	30607.19
679.45	30684.42
679.59	30485.48
679.73	30913.80
679.87	30171.85
680.00	30153.12
680.14	30319.30
680.28	30115.67
680.42	30012.69
680.56	29830.13
680.70	29380.74
680.83	29507.13
680.97	29273.08
681.11	29359.68
681.25	29247.33
681.39	28802.63
681.52	29336.27
681.66	29027.32
681.80	28666.88
681.94	28472.62
682.07	28343.89
682.21	28364.95
682.35	28315.80
682.49	28336.87
682.62	28418.78
682.76	28315.80
682.90	28402.40
683.04	27999.83
683.17	28283.03
683.31	27585.55
683.45	28053.66
683.59	27634.71
683.72	27569.17
683.86	27323.41
684.00	27440.44
684.13	27044.89
684.27	27044.89
684.41	27056.59
684.55	26984.04
684.68	27072.98
684.82	26642.32
684.96	26609.55
685.09	26752.32
685.23	26628.27
685.37	27040.21
685.50	27234.47
685.64	26452.73
685.78	26497.20
685.91	26111.02
686.05	25764.62
686.19	25600.78
686.32	25575.03
686.46	25553.97
686.60	25017.99
686.73	25741.21
686.87	25591.42
687.01	25671.00
687.14	25521.20
687.28	25291.83
687.42	25261.40
687.55	24929.05
687.69	24989.90
687.82	24357.96
687.96	24528.81
688.10	24697.33
688.23	24699.67
688.37	24748.82
688.50	24807.34
688.64	24386.04
688.78	24283.06
688.91	24425.83
689.05	24039.64
689.18	24051.34
689.32	23709.63
689.46	23573.88
689.59	23538.77
689.73	23522.38
689.86	23653.45
690.00	23470.89
690.13	23606.64
690.27	23145.56
690.41	23545.79
690.54	22986.40
690.68	22628.30
690.81	23002.78
690.95	22757.03
691.08	22640.00
691.22	22377.86
691.35	22005.72
691.49	22384.88
691.62	22293.60
691.76	22277.22
691.89	21731.87
692.03	21846.56
692.16	21572.72
692.30	21881.67
692.43	21523.57
692.57	21429.94
692.70	21345.69
692.84	21425.26
692.97	21102.27
693.11	21125.68
693.24	20765.23
693.38	20879.92
693.51	20573.31
693.65	20980.56
693.78	20821.41
693.92	20989.92
694.05	20519.48
694.19	20229.25
694.32	20629.48
694.45	20718.42
694.59	20538.20
694.72	20390.75
694.86	20002.22
694.99	19807.95
695.13	19917.96
695.26	19735.40
695.39	19583.26
695.53	19534.11
695.66	19784.55
695.80	19442.83
695.93	19557.52
696.07	19049.62
696.20	18934.93
696.33	18794.50
696.47	18661.09
696.60	18607.26
696.73	19161.97
696.87	18789.82
697.00	18586.19
697.14	18574.49
697.27	18497.25
697.40	18499.59
697.54	18548.75
697.67	18317.03
697.80	18164.90
697.94	17982.34
698.07	18120.43
698.21	17565.72
698.34	17909.78
698.47	17790.41
698.61	17453.37
698.74	17418.27
698.87	17287.20
699.01	17380.82
699.14	17277.83
699.27	17172.51
699.40	17387.84
699.54	16975.91
699.67	17006.33
699.80	16973.56
699.94	16847.18
700.07	16849.52
700.20	16762.92
700.34	16479.71
700.47	16716.11
700.60	16428.22
700.73	16556.95
700.87	16276.09
701.00	16044.37
701.13	16077.14
701.26	15831.38
701.40	16315.87
701.53	15721.38
701.66	15697.97
701.79	15655.84
701.93	15508.39
702.06	15452.22
702.19	15609.03
702.32	15531.80
702.46	15328.17
702.59	15538.82
702.72	15527.11
702.85	15461.58
702.99	15087.09
703.12	15269.66
703.25	15225.18
703.38	14764.10
703.51	14855.38
703.65	14506.64
703.78	14324.08
703.91	14312.38
704.04	14277.27
704.17	14183.65
704.31	14310.04
704.44	14246.84
704.57	14094.71
704.70	14132.15
704.83	14050.24
704.96	14221.10
705.10	14005.77
705.23	13673.41
>>>>>End Processed Spectral Data<<<<<
