SpectraSuite Data File
++++++++++++++++++++++++++++++++++++
Date: Fri Oct 25 11:34:38 EDT 2013
User: price-jones
Dark Spectrum Present: No
Reference Spectrum Present: No
Number of Sampled Component Spectra: 1
Spectrometers: USB2+H05261
Integration Time (usec): 100000 (USB2+H05261)
Spectra Averaged: 1 (USB2+H05261)
Boxcar Smoothing: 0 (USB2+H05261)
Correct for Electrical Dark: No (USB2+H05261)
Strobe/Lamp Enabled: No (USB2+H05261)
Correct for Detector Non-linearity: No (USB2+H05261)
Correct for Stray Light: No (USB2+H05261)
Number of Pixels in Processed Spectrum: 2048
>>>>>Begin Processed Spectral Data<<<<<
365.73	257.46
365.92	257.46
366.12	257.46
366.32	187.24
366.52	215.33
366.72	191.92
366.91	163.84
367.11	98.30
367.31	191.92
367.51	217.67
367.70	88.94
367.90	117.03
368.10	187.24
368.30	191.92
368.49	243.42
368.69	208.31
368.89	280.86
369.09	259.80
369.28	224.69
369.48	250.44
369.68	234.05
369.87	238.73
370.07	266.82
370.27	332.36
370.47	351.08
370.66	388.53
370.86	465.77
371.06	477.47
371.25	517.26
371.45	519.60
371.65	547.69
371.84	540.66
372.04	535.98
372.24	624.92
372.44	535.98
372.63	531.30
372.83	561.73
373.03	594.50
373.22	613.22
373.42	568.75
373.62	585.13
373.81	634.29
374.01	671.73
374.21	706.84
374.40	561.73
374.60	692.80
374.79	678.76
374.99	610.88
375.19	615.56
375.38	638.97
375.58	641.31
375.78	671.73
375.97	641.31
376.17	662.37
376.37	617.90
376.56	671.73
376.76	606.20
376.95	580.45
377.15	620.24
377.35	730.25
377.54	664.71
377.74	678.76
377.93	638.97
378.13	688.12
378.33	767.70
378.52	683.44
378.72	734.93
378.91	622.58
379.11	627.26
379.31	732.59
379.50	681.10
379.70	699.82
379.89	758.33
380.09	725.57
380.28	709.18
380.48	711.52
380.68	709.18
380.87	678.76
381.07	772.38
381.26	746.63
381.46	767.70
381.65	739.61
381.85	732.59
382.04	732.59
382.24	692.80
382.43	748.97
382.63	695.14
382.83	748.97
383.02	758.33
383.22	734.93
383.41	763.01
383.61	734.93
383.80	791.10
384.00	802.80
384.19	772.38
384.39	791.10
384.58	800.46
384.78	730.25
384.97	858.98
385.17	755.99
385.36	833.23
385.56	732.59
385.75	767.70
385.95	795.78
386.14	851.96
386.34	812.17
386.53	833.23
386.72	849.61
386.92	866.00
387.11	781.74
387.31	849.61
387.50	901.11
387.70	912.81
387.89	908.13
388.09	861.32
388.28	905.79
388.48	814.51
388.67	866.00
388.86	844.93
389.06	961.96
389.25	896.43
389.45	926.85
389.64	866.00
389.84	964.30
390.03	940.90
390.22	924.51
390.42	868.34
390.61	940.90
390.81	905.79
391.00	959.62
391.19	1008.77
391.39	1060.26
391.58	959.62
391.78	954.94
391.97	994.73
392.16	954.94
392.36	990.05
392.55	1013.45
392.75	1027.50
392.94	1048.56
393.13	1071.97
393.33	1050.90
393.52	1013.45
393.71	1114.10
393.91	1062.60
394.10	1060.26
394.29	990.05
394.49	1090.69
394.68	1151.54
394.88	1128.14
395.07	1088.35
395.26	1076.65
395.46	1125.80
395.65	1139.84
395.84	1174.95
396.04	1130.48
396.23	1050.90
396.42	1207.72
396.62	1282.61
396.81	1146.86
397.00	1228.78
397.19	1233.46
397.39	1217.08
397.58	1198.35
397.77	1249.85
397.97	1226.44
398.16	1165.59
398.35	1261.55
398.55	1146.86
398.74	1238.14
398.93	1224.10
399.12	1306.02
399.32	1275.59
399.51	1329.42
399.70	1306.02
399.90	1256.87
400.09	1291.98
400.28	1266.23
400.47	1327.08
400.67	1371.55
400.86	1313.04
401.05	1376.24
401.24	1308.36
401.44	1373.89
401.63	1331.76
401.82	1371.55
402.01	1434.75
402.21	1411.34
402.40	1420.71
402.59	1387.94
402.78	1416.02
402.97	1406.66
403.17	1439.43
403.36	1509.65
403.55	1507.30
403.74	1549.43
403.93	1526.03
404.13	1624.33
404.32	1535.39
404.51	1439.43
404.70	1497.94
404.89	1502.62
405.09	1631.35
405.28	1703.91
405.47	1678.16
405.66	1638.38
405.85	1659.44
406.05	1659.44
406.24	1640.72
406.43	1605.61
406.62	1884.13
406.81	1729.66
407.00	1631.35
407.20	1668.80
407.39	1619.65
407.58	1788.17
407.77	1804.55
407.96	1867.75
408.15	1853.70
408.34	1825.62
408.54	1884.13
408.73	1870.09
408.92	1954.35
409.11	1902.86
409.30	1937.96
409.49	1856.04
409.68	1919.24
409.87	1959.03
410.07	1984.77
410.26	2017.54
410.45	1987.11
410.64	2012.86
410.83	1984.77
411.02	1956.69
411.21	2078.40
411.40	1989.46
411.59	2092.44
411.78	2143.93
411.98	2078.40
412.17	2101.80
412.36	2157.97
412.55	2202.44
412.74	2239.89
412.93	2279.68
413.12	2190.74
413.31	2319.47
413.50	2197.76
413.69	2324.15
413.88	2438.84
414.07	2338.20
414.26	2410.75
414.45	2436.50
414.64	2469.27
414.83	2518.42
415.02	2476.29
415.22	2504.37
415.41	2525.44
415.60	2513.74
415.79	2478.63
415.98	2558.21
416.17	2686.94
416.36	2628.42
416.55	2700.98
416.74	2572.25
416.93	2609.70
417.12	2635.44
417.31	2761.83
417.50	2715.02
417.69	2801.62
417.88	2782.90
418.07	2740.77
418.26	2780.56
418.45	2878.86
418.64	2904.60
418.83	2832.05
419.02	2850.77
419.21	2944.39
419.39	2930.35
419.58	2993.55
419.77	2951.42
419.96	2993.55
420.15	3155.04
420.34	2935.03
420.53	3045.04
420.72	3129.30
420.91	3045.04
421.10	3096.53
421.29	3110.57
421.48	3215.90
421.67	3211.22
421.86	3061.42
422.05	3131.64
422.24	3110.57
422.43	3180.79
422.61	3295.47
422.80	3162.06
422.99	3325.90
423.18	3148.02
423.37	3267.39
423.56	3274.41
423.75	3300.16
423.94	3180.79
424.13	3019.29
424.32	3084.83
424.50	3220.58
424.69	3311.86
424.88	3276.75
425.07	3258.03
425.26	3215.90
425.45	3363.35
425.64	3201.85
425.83	3213.56
426.01	3316.54
426.20	3279.09
426.39	3349.31
426.58	3365.69
426.77	3307.18
426.96	3314.20
427.15	3403.14
427.33	3405.48
427.52	3412.50
427.71	3508.46
427.90	3473.36
428.09	3433.57
428.28	3496.76
428.46	3410.16
428.65	3585.70
428.84	3653.58
429.03	3482.72
429.22	3545.91
429.40	3536.55
429.59	3611.45
429.78	3534.21
429.97	3403.14
430.16	3581.02
430.34	3737.84
430.53	3609.11
430.72	3728.47
430.91	3758.90
431.10	3578.68
431.28	3768.26
431.47	3833.80
431.66	3779.97
431.85	3712.09
432.03	3854.86
432.22	4007.00
432.41	3936.78
432.60	3796.35
432.79	3915.72
432.97	3904.01
433.16	3925.08
433.35	3824.44
433.54	3971.89
433.72	3927.42
433.91	4093.60
434.10	3983.59
434.28	4086.58
434.47	3999.98
434.66	4011.68
434.85	4051.47
435.03	4203.60
435.22	4049.13
435.41	4198.92
435.59	4173.18
435.78	4278.50
435.97	4339.35
436.16	4152.11
436.34	4081.89
436.53	4255.09
436.72	4540.64
436.90	4208.28
437.09	4395.53
437.28	4271.48
437.46	4344.03
437.65	4344.03
437.84	4404.89
438.02	4383.82
438.21	4381.48
438.40	4327.65
438.58	4311.27
438.77	4564.04
438.96	4498.51
439.14	4610.86
439.33	4592.13
439.52	4702.14
439.70	4704.48
439.89	4725.54
440.08	4849.59
440.26	4772.35
440.45	4683.41
440.63	4805.12
440.82	4936.19
441.01	4638.94
441.19	4898.74
441.38	4858.95
441.57	4903.42
441.75	5029.81
441.94	5036.83
442.12	5078.96
442.31	5198.33
442.50	5231.10
442.68	5032.15
442.87	5130.45
443.05	5233.44
443.24	5366.85
443.43	5273.23
443.61	5160.88
443.80	5460.47
443.98	5235.78
444.17	5036.83
444.35	5298.97
444.54	5336.42
444.73	5287.27
444.91	5345.78
445.10	5322.38
445.28	5596.22
445.47	5242.80
445.65	5277.91
445.84	5399.62
446.02	5460.47
446.21	5486.22
446.39	5528.35
446.58	5441.75
446.77	5434.72
446.95	5317.70
447.14	5516.64
447.32	5589.20
447.51	5378.55
447.69	5474.51
447.88	5605.58
448.06	5467.49
448.25	5509.62
448.43	5523.66
448.62	5523.66
448.80	5514.30
448.99	5643.03
449.17	5556.43
449.36	5537.71
449.54	5802.19
449.73	5696.86
449.91	5792.83
450.10	5757.72
450.28	5802.19
450.46	5799.85
450.65	5987.09
450.83	5717.93
451.02	5631.33
451.20	5975.39
451.39	5928.58
451.57	5989.43
451.76	5785.80
451.94	5846.66
452.13	5961.34
452.31	5863.04
452.49	5916.87
452.68	5959.00
452.86	6019.86
453.05	6031.56
453.23	5963.68
453.42	6015.18
453.60	6003.47
453.78	6136.88
453.97	6155.61
454.15	6005.81
454.34	6183.70
454.52	6225.82
454.70	6312.42
454.89	6352.21
455.07	6279.66
455.26	6331.15
455.44	6307.74
455.62	6256.25
455.81	6326.47
455.99	6487.96
456.17	6511.37
456.36	6129.86
456.54	6546.48
456.73	6626.06
456.91	6815.64
457.09	6633.08
457.28	6658.82
457.46	6644.78
457.64	6576.91
457.83	6661.16
458.01	6548.82
458.19	6885.86
458.38	6796.92
458.56	6649.46
458.74	6817.98
458.93	6689.25
459.11	6782.87
459.29	6977.14
459.48	6993.52
459.66	6970.12
459.84	6832.02
460.03	7054.37
460.21	7080.12
460.39	7049.69
460.57	7180.76
460.76	7016.93
460.94	7365.67
461.12	7162.04
461.31	7131.61
461.49	7297.79
461.67	7391.41
461.85	7365.67
462.04	7304.81
462.22	7810.37
462.40	7150.34
462.59	7473.33
462.77	7089.48
462.95	7393.75
463.13	7382.05
463.32	7382.05
463.50	7428.86
463.68	7431.20
463.86	7700.36
464.05	7569.29
464.23	7676.96
464.41	7492.05
464.59	7433.54
464.78	7705.04
464.96	7627.81
465.14	7391.41
465.32	7716.75
465.50	7709.72
465.69	7655.89
465.87	7822.07
466.05	7620.78
466.23	7569.29
466.41	7889.95
466.60	7859.52
466.78	7808.03
466.96	7789.30
467.14	7681.64
467.32	7737.81
467.51	7927.39
467.69	7789.30
467.87	7761.22
468.05	7864.20
468.23	7901.65
468.41	7850.16
468.60	8131.02
468.78	7971.86
468.96	7932.08
469.14	8046.76
469.32	8088.89
469.50	7824.41
469.69	8255.07
469.87	8100.59
470.05	8360.39
470.23	8248.05
470.41	8351.03
470.59	8615.51
470.77	8484.44
470.95	8346.35
471.14	8652.96
471.32	8322.94
471.50	8596.79
471.68	8390.82
471.86	8582.74
472.04	8725.52
472.22	8753.60
472.40	8723.18
472.58	8774.67
472.77	8697.43
472.95	8875.31
473.13	9320.01
473.31	8882.33
473.49	8954.89
473.67	8753.60
473.85	8959.57
474.03	9179.58
474.21	9252.14
474.39	9312.99
474.57	9146.81
474.75	9331.72
474.93	9455.76
475.12	9277.88
475.30	9502.58
475.48	9423.00
475.66	9671.09
475.84	9591.52
476.02	9650.03
476.20	9767.06
476.38	9987.07
476.56	10120.48
476.74	9895.78
476.92	10003.45
477.10	10050.26
477.28	10300.70
477.46	9966.00
477.64	10232.82
477.82	10375.59
478.00	10377.94
478.18	10567.52
478.36	10682.20
478.54	10469.22
478.72	10794.55
478.90	11009.88
479.08	11075.42
479.26	11159.67
479.44	11052.01
479.62	11061.37
479.80	11183.08
479.98	11435.86
480.16	11428.84
480.34	11290.74
480.52	11688.64
480.70	11698.00
480.88	11346.92
481.06	11587.99
481.24	11927.37
481.41	11712.04
481.59	12037.38
481.77	12006.95
481.95	12269.09
482.13	12341.64
482.31	12217.60
482.49	12643.57
482.67	12784.01
482.85	12851.88
483.03	12912.74
483.21	12959.55
483.39	12994.65
483.57	13111.68
483.74	13366.80
483.92	13202.96
484.10	13352.76
484.28	13469.78
484.46	13757.67
484.64	13795.12
484.82	13853.63
485.00	13792.78
485.18	13851.29
485.35	14274.93
485.53	14293.65
485.71	14317.06
485.89	14434.08
486.07	14314.72
486.25	14743.03
486.43	14525.36
486.61	14813.25
486.78	14995.81
486.96	14883.47
487.14	15267.31
487.32	15199.44
487.50	15456.90
487.68	15550.52
487.85	15815.00
488.03	15749.46
488.21	15974.16
488.39	16304.17
488.57	16353.32
488.75	15990.54
488.92	16430.56
489.10	16566.31
489.28	16570.99
489.46	16847.18
489.64	16762.92
489.81	17167.83
489.99	17284.86
490.17	16966.54
490.35	17331.67
490.53	17392.52
490.70	17633.60
490.88	17621.89
491.06	17806.80
491.24	17942.55
491.41	18075.96
491.59	18293.63
491.77	17961.27
491.95	18192.98
492.13	18436.40
492.30	18494.91
492.48	18572.15
492.66	18813.23
492.84	18684.50
493.01	19096.43
493.19	19023.87
493.37	18946.64
493.54	19211.12
493.72	19674.54
493.90	19534.11
494.08	19660.50
494.25	19676.88
494.43	19751.78
494.61	20060.73
494.79	20072.43
494.96	19953.07
495.14	20362.66
495.32	20737.15
495.49	20425.86
495.67	20477.35
495.85	20971.20
496.02	20746.51
496.20	21022.69
496.38	21202.91
496.55	21062.48
496.73	21802.09
496.91	21399.52
497.09	21542.29
497.26	21771.66
497.44	21598.46
497.62	22129.77
497.79	22008.06
497.97	22298.28
498.14	22427.01
498.32	22317.01
498.50	22595.53
498.67	22541.70
498.85	22232.75
499.03	22656.39
499.20	22764.05
499.38	22651.70
499.56	22981.72
499.73	22867.03
499.91	22932.57
500.08	23243.86
500.26	23353.87
500.44	23332.80
500.61	23314.08
500.79	23377.27
500.97	23503.66
501.14	23775.16
501.32	24112.20
501.49	23798.57
501.67	23990.49
501.84	24196.46
502.02	24173.05
502.20	24348.59
502.37	24278.38
502.55	24460.94
502.72	24292.42
502.90	24453.92
503.07	24182.42
503.25	24624.78
503.43	24687.97
503.60	24489.03
503.78	24929.05
503.95	24573.28
504.13	25254.38
504.30	25151.40
504.48	25202.89
504.65	25465.03
504.83	25394.81
505.01	25560.99
505.18	25453.33
505.36	25799.73
505.53	25912.07
505.71	25661.63
505.88	25717.81
506.06	26094.63
506.23	26230.38
506.41	26075.91
506.58	26270.17
506.76	26316.98
506.93	26820.20
507.11	26724.24
507.28	26485.50
507.46	26494.86
507.63	27112.77
507.81	26721.90
507.98	26373.16
508.16	27089.36
508.33	26855.31
508.50	26850.63
508.68	27143.19
508.85	27648.75
509.03	27194.68
509.20	27236.81
509.38	27740.03
509.55	27800.88
509.73	27683.86
509.90	27452.14
510.08	27807.90
510.25	27571.51
510.42	28091.11
510.60	27901.53
510.77	28374.31
510.95	28587.30
511.12	27924.93
511.30	27969.40
511.47	28411.76
511.64	28449.21
511.82	28379.00
511.99	28467.94
512.17	28926.68
512.34	29032.00
512.51	29024.98
512.69	29490.75
512.86	29165.42
513.04	29450.96
513.21	29076.48
513.38	29387.77
513.56	29310.53
513.73	29345.64
513.90	29886.30
514.08	29462.66
514.25	29818.42
514.43	29818.42
514.60	30031.41
514.77	29818.42
514.95	30148.44
515.12	29785.66
515.29	29649.91
515.47	29972.90
515.64	30595.48
515.81	30127.38
515.99	30333.34
516.16	30518.25
516.33	30799.11
516.51	30960.61
516.68	30621.23
516.85	30637.61
517.03	31344.45
517.20	31005.08
517.37	30661.02
517.54	31187.64
517.72	31323.39
517.89	30831.88
518.06	31012.10
518.24	31159.55
518.41	31241.47
518.58	31349.14
518.75	31124.44
518.93	31620.64
519.10	31538.72
519.27	31152.53
519.45	31522.34
519.62	31964.70
519.79	32053.64
519.96	32032.57
520.14	32299.39
520.31	31732.98
520.48	32601.32
520.65	32030.23
520.83	32589.62
521.00	32699.62
521.17	32503.02
521.34	32381.31
521.52	32554.51
521.69	32542.81
521.86	32807.29
522.03	32826.01
522.20	32732.39
522.38	33221.56
522.55	33443.91
522.72	33113.90
522.89	32961.76
523.07	33532.86
523.24	33436.89
523.41	33502.43
523.58	33776.27
523.75	33666.27
523.92	33383.06
524.10	33813.72
524.27	33380.72
524.44	33769.25
524.61	33766.91
524.78	33720.10
524.96	33942.45
525.13	34080.54
525.30	34192.89
525.47	33738.82
525.64	34146.08
525.81	34401.19
525.98	34405.88
526.16	34419.92
526.33	35098.67
526.50	34457.37
526.67	34038.41
526.84	34773.34
527.01	34710.14
527.18	34862.28
527.36	34848.24
527.53	34593.12
527.70	34646.95
527.87	35281.24
528.04	35175.91
528.21	34937.18
528.38	35005.05
528.55	35056.54
528.72	35161.87
528.89	35321.02
529.07	35014.41
529.24	35400.60
529.41	35548.06
529.58	35218.04
529.75	35468.48
529.92	35339.75
530.09	35220.38
530.26	36222.13
530.43	35784.45
530.60	35587.85
530.77	35519.97
530.94	35583.16
531.11	35735.30
531.28	35758.70
531.46	35828.92
531.63	36044.25
531.80	36046.59
531.97	36236.17
532.14	36231.49
532.31	35959.99
532.48	36484.27
532.65	36514.70
532.82	36531.08
532.99	36481.93
533.16	36584.91
533.33	36383.63
533.50	36701.94
533.67	36542.78
533.84	36198.73
534.01	36811.95
534.18	36804.92
534.35	37464.96
534.52	37179.41
534.69	37441.55
534.86	36847.05
535.03	37118.56
535.20	36957.06
535.37	37205.16
535.54	37298.78
535.71	37312.82
535.88	37691.99
536.05	37574.96
536.22	37940.08
536.38	37511.77
536.55	37450.91
536.72	37804.33
536.89	37392.40
537.06	37504.74
537.23	37909.66
537.40	37846.46
537.57	37916.68
537.74	37764.54
537.91	37975.19
538.08	37603.05
538.25	37460.27
538.42	38146.05
538.59	38115.62
538.75	38019.66
538.92	38188.18
539.09	38389.47
539.26	38192.86
539.43	38600.12
539.60	38459.68
539.77	38288.82
539.94	38557.99
540.11	38595.43
540.28	38550.96
540.44	38429.26
540.61	38747.57
540.78	38457.34
540.95	38536.92
541.12	38857.57
541.29	38752.25
541.46	38850.55
541.62	38983.96
541.79	39133.76
541.96	38726.50
542.13	38672.67
542.30	38845.87
542.47	39072.90
542.63	39255.46
542.80	39491.86
542.97	39115.03
543.14	39482.50
543.31	39519.95
543.48	39150.14
543.64	40048.91
543.81	39400.58
543.98	39658.04
544.15	39697.83
544.32	39938.90
544.48	39983.37
544.65	39749.32
544.82	39868.69
544.99	40016.14
545.16	39676.76
545.32	39789.11
545.49	40573.19
545.66	40194.02
545.83	40641.06
546.00	40395.31
546.16	39955.29
546.33	40142.53
546.50	40189.34
546.67	40168.27
546.83	39966.99
547.00	40301.68
547.17	40528.72
547.34	40407.01
547.50	40858.73
547.67	40828.30
547.84	40788.52
548.00	41008.53
548.17	41074.06
548.34	40690.21
548.51	40790.86
548.67	40863.41
548.84	40928.95
549.01	40753.41
549.18	40816.60
549.34	41045.97
549.51	41544.51
549.68	41450.89
549.84	41275.35
550.01	41289.39
550.18	40762.77
550.34	41399.40
550.51	41270.67
550.68	41280.03
550.84	41399.40
551.01	41808.99
551.18	41090.44
551.34	41434.50
551.51	41918.99
551.68	41525.78
551.84	41111.51
552.01	41553.87
552.18	41851.12
552.34	41364.29
552.51	41469.61
552.68	41476.63
552.84	41743.45
553.01	42171.77
553.18	41827.71
553.34	42108.58
553.51	41759.84
553.67	41923.68
553.84	41998.57
554.01	42188.16
554.17	42160.07
554.34	42000.91
554.51	42005.59
554.67	42234.97
554.84	42150.71
555.00	42291.14
555.17	42384.76
555.33	42492.43
555.50	41617.07
555.67	42124.96
555.83	42131.98
556.00	42623.50
556.16	42958.19
556.33	43019.05
556.50	42483.06
556.66	42185.82
556.83	42436.25
556.99	42871.59
557.16	42822.44
557.32	42562.64
557.49	43042.45
557.65	42621.16
557.82	42740.52
557.98	43110.33
558.15	42543.92
558.32	42796.70
558.48	43058.84
558.65	42656.26
558.81	42944.15
558.98	42761.59
559.14	42822.44
559.31	42632.86
559.47	43173.52
559.64	43042.45
559.80	42974.58
559.97	43143.09
560.13	42806.06
560.30	43318.64
560.46	43213.31
560.63	42918.40
560.79	43367.79
560.96	43281.19
561.12	43332.68
561.29	43356.08
561.45	43086.92
561.61	43035.43
561.78	43182.88
561.94	43339.70
562.11	43187.56
562.27	43716.53
562.44	43487.15
562.60	43540.99
562.77	43400.55
562.93	43262.46
563.10	43800.79
563.26	43271.82
563.42	43597.16
563.59	43402.89
563.75	43566.73
563.92	43725.89
564.08	43494.18
564.24	44119.10
564.41	43215.65
564.57	43473.11
564.74	43861.64
564.90	43622.90
565.07	43777.38
565.23	43632.27
565.39	43744.61
565.56	43779.72
565.72	43512.90
565.88	43861.64
566.05	44067.61
566.21	43632.27
566.38	44065.27
566.54	43761.00
566.70	43957.60
566.87	43531.62
567.03	44023.14
567.19	44133.14
567.36	44240.81
567.52	43533.96
567.68	44208.04
567.85	44109.74
568.01	44208.04
568.17	44327.41
568.34	43866.32
568.50	44437.41
568.66	44060.58
568.83	43938.88
568.99	44126.12
569.15	44154.21
569.32	44353.15
569.48	43798.44
569.64	44575.50
569.81	44229.10
569.97	44006.75
570.13	44105.06
570.30	44243.15
570.46	44409.32
570.62	44147.18
570.78	44334.43
570.95	43976.33
571.11	44308.68
571.27	44161.23
571.43	44116.76
571.60	44428.05
571.76	44009.09
571.92	44456.14
572.09	44329.75
572.25	44179.95
572.41	44453.79
572.57	44392.94
572.74	45020.20
572.90	44339.11
573.06	44556.78
573.22	44409.32
573.38	44320.38
573.55	44889.13
573.71	44428.05
573.87	44432.73
574.03	44666.78
574.20	44676.15
574.36	44470.18
574.52	44332.09
574.68	44392.94
574.84	44781.47
575.01	44978.07
575.17	44631.68
575.33	44514.65
575.49	44161.23
575.65	44542.74
575.82	44807.22
575.98	44481.88
576.14	44868.07
576.30	44945.31
576.46	44755.72
576.62	44547.42
576.79	44598.91
576.95	44088.67
577.11	44741.68
577.27	44458.48
577.43	44404.64
577.59	44163.57
577.75	44481.88
577.92	44320.38
578.08	44706.57
578.24	44472.52
578.40	44896.16
578.56	44938.29
578.72	45003.82
578.88	44556.78
579.04	44694.87
579.21	44470.18
579.37	44678.49
579.53	45233.19
579.69	44861.05
579.85	44589.55
580.01	44935.95
580.17	44596.57
580.33	45022.54
580.49	44938.29
580.65	44875.09
580.82	44957.01
580.98	44949.99
581.14	44289.96
581.30	44772.11
581.46	44662.10
581.62	44554.44
581.78	44912.54
581.94	45448.52
582.10	44720.62
582.26	44847.00
582.42	44762.75
582.58	44931.26
582.74	44914.88
582.90	45003.82
583.06	44982.76
583.22	44486.56
583.38	44793.17
583.54	44720.62
583.70	45160.64
583.86	45287.03
584.02	44706.57
584.18	45357.24
584.34	44999.14
584.50	44933.60
584.66	45390.01
584.82	45148.93
584.98	45483.63
585.14	45069.36
585.30	44556.78
585.46	44947.65
585.62	44809.56
585.78	45237.87
585.94	44779.13
586.10	44781.47
586.26	44767.43
586.42	44879.77
586.58	44985.10
586.74	45036.59
586.90	44769.77
587.06	44793.17
587.22	44914.88
587.38	44718.28
587.54	45001.48
587.70	45254.26
587.86	45226.17
588.02	45022.54
588.18	44669.12
588.34	44957.01
588.49	45179.36
588.65	44854.03
588.81	45226.17
588.97	45027.23
589.13	44912.54
589.29	45041.27
589.45	45130.21
589.61	45460.23
589.77	45120.85
589.93	45366.60
590.08	45315.11
590.24	45546.82
590.40	45528.10
590.56	45464.91
590.72	45415.76
590.88	45153.62
591.04	45242.56
591.20	45867.48
591.35	45422.78
591.51	45947.06
591.67	45790.24
591.83	45872.16
591.99	45155.96
592.15	44935.95
592.31	45366.60
592.46	45258.94
592.62	45790.24
592.78	45497.67
592.94	45961.10
593.10	45958.76
593.26	46101.53
593.41	45928.33
593.57	45448.52
593.73	45394.69
593.89	45736.41
594.05	46061.74
594.20	45713.00
594.36	46082.81
594.52	45759.81
594.68	45895.56
594.84	45705.98
594.99	45780.88
595.15	45705.98
595.31	45610.02
595.47	45818.33
595.62	45708.32
595.78	45741.09
595.94	45593.64
596.10	45799.60
596.25	45462.57
596.41	45951.74
596.57	45832.37
596.73	46380.06
596.88	45605.34
597.04	45808.96
597.20	45811.31
597.36	45874.50
597.51	45968.12
597.67	45605.34
597.83	45729.39
597.99	45895.56
598.14	45397.03
598.30	45617.04
598.46	45511.72
598.61	45975.14
598.77	45570.23
598.93	45687.26
599.09	45923.65
599.24	46085.15
599.40	45675.55
599.56	46138.98
599.71	46146.00
599.87	46050.04
600.03	45965.78
600.18	46075.79
600.34	45979.82
600.50	45911.95
600.65	45448.52
600.81	45872.16
600.97	46033.66
601.12	45858.12
601.28	45715.34
601.44	45811.31
601.59	45984.51
601.75	45647.47
601.91	45780.88
602.06	45986.85
602.22	45736.41
602.37	46253.67
602.53	45998.55
602.69	45858.12
602.84	45687.26
603.00	46080.47
603.16	45649.81
603.31	45380.65
603.47	46089.83
603.62	46288.77
603.78	46433.89
603.94	46459.63
604.09	45621.72
604.25	45724.71
604.40	45996.21
604.56	46080.47
604.71	46602.41
604.87	45593.64
605.03	46089.83
605.18	45766.84
605.34	45958.76
605.49	45656.83
605.65	45935.35
605.80	45242.56
605.96	45862.80
606.12	45799.60
606.27	46082.81
606.43	45464.91
606.58	46244.30
606.74	45507.04
606.89	45708.32
607.05	46127.28
607.20	45907.27
607.36	45673.21
607.51	45954.08
607.67	45698.96
607.82	45591.30
607.98	46256.01
608.13	45469.59
608.29	45736.41
608.44	45649.81
608.60	45483.63
608.75	45848.75
608.91	45132.55
609.06	45067.02
609.22	46003.23
609.37	45345.54
609.53	45244.90
609.68	45876.84
609.84	45855.78
609.99	45745.77
610.15	45530.44
610.30	45188.72
610.46	45476.61
610.61	45387.67
610.76	45638.11
610.92	44828.28
611.07	45034.25
611.23	44863.39
611.38	45380.65
611.54	45287.03
611.69	45354.90
611.84	45446.18
612.00	45301.07
612.15	45303.41
612.31	45642.79
612.46	45380.65
612.62	45233.19
612.77	45195.74
612.92	45574.91
613.08	45083.40
613.23	45759.81
613.39	45200.43
613.54	45347.88
613.69	45249.58
613.85	45029.57
614.00	45029.57
614.15	45303.41
614.31	44802.53
614.46	45106.80
614.62	45048.29
614.77	45064.67
614.92	45008.50
615.08	45078.72
615.23	45392.35
615.38	45312.77
615.54	45427.46
615.69	45287.03
615.84	44912.54
616.00	45055.31
616.15	44828.28
616.30	45052.97
616.46	45265.96
616.61	45350.22
616.76	45191.06
616.92	44797.85
617.07	45338.52
617.22	44596.57
617.37	44622.31
617.53	44832.96
617.68	44800.19
617.83	44818.92
617.99	45521.08
618.14	44917.22
618.29	44414.01
618.45	44638.70
618.60	44704.23
618.75	44397.62
618.90	44458.48
619.06	44378.90
619.21	44673.81
619.36	45008.50
619.51	44296.98
619.67	43903.77
619.82	44439.75
619.97	44655.08
620.12	44376.56
620.28	44666.78
620.43	44837.64
620.58	44456.14
620.73	44666.78
620.89	44612.95
621.04	44748.70
621.19	44055.90
621.34	44208.04
621.49	44149.53
621.65	44376.56
621.80	45249.58
621.95	44577.84
622.10	44102.71
622.25	43971.64
622.41	44215.06
622.56	44030.16
622.71	44126.12
622.86	44313.36
623.01	43871.00
623.16	43948.24
623.32	43885.04
623.47	44353.15
623.62	44336.77
623.77	44521.67
623.92	44296.98
624.07	44051.22
624.23	44456.14
624.38	44411.67
624.53	43880.36
624.68	43819.51
624.83	43917.81
624.98	44140.16
625.13	43552.69
625.29	43758.66
625.44	43665.03
625.59	43906.11
625.74	43606.52
625.89	43393.53
626.04	43351.40
626.19	43353.74
626.34	43442.68
626.49	43676.74
626.65	43412.26
626.80	43672.06
626.95	43002.66
627.10	43438.00
627.25	43540.99
627.40	43618.22
627.55	43063.52
627.70	43566.73
627.85	43730.57
628.00	43466.09
628.15	43620.56
628.30	42965.21
628.45	42913.72
628.60	43009.68
628.76	43342.04
628.91	43255.44
629.06	42857.55
629.21	42784.99
629.36	42960.53
629.51	42930.11
629.66	43381.83
629.81	43143.09
629.96	43288.21
630.11	43129.05
630.26	42742.86
630.41	42897.34
630.56	42677.33
630.71	42918.40
630.86	42761.59
631.01	42625.84
631.16	42611.79
631.31	42792.01
631.46	42340.29
631.61	43182.88
631.76	43100.97
631.91	42735.84
632.06	42927.77
632.21	42719.46
632.36	43171.18
632.51	42866.91
632.66	42499.45
632.81	42682.01
632.96	42574.34
633.10	42394.12
633.25	42300.50
633.40	42724.14
633.55	42728.82
633.70	42436.25
633.85	42291.14
634.00	42047.72
634.15	42213.90
634.30	42281.78
634.45	42267.73
634.60	42447.96
634.75	42878.61
634.90	42443.27
635.05	42511.15
635.19	41970.49
635.34	42595.41
635.49	42246.67
635.64	42384.76
635.79	42326.25
635.94	42244.33
636.09	42094.53
636.24	41783.24
636.39	42225.60
636.53	42473.70
636.68	41764.52
636.83	42029.00
636.98	41762.18
637.13	41542.17
637.28	41588.98
637.43	41855.80
637.57	41783.24
637.72	41624.09
637.87	41799.63
638.02	41408.76
638.17	41621.75
638.32	41404.08
638.46	41411.10
638.61	41067.04
638.76	41453.23
638.91	41694.30
639.06	41647.49
639.20	41476.63
639.35	41399.40
639.50	41146.62
639.65	41668.56
639.80	41383.01
639.94	41254.28
640.09	41429.82
640.24	41682.60
640.39	41504.72
640.54	41022.57
640.68	41343.22
640.83	41422.80
640.98	41034.27
641.13	41137.26
641.27	41720.05
641.42	41088.10
641.57	40753.41
641.72	41045.97
641.86	40758.09
642.01	40849.37
642.16	40748.73
642.31	40605.95
642.45	40919.59
642.60	40591.91
642.75	40950.01
642.90	41148.96
643.04	41130.23
643.19	40322.75
643.34	40704.26
643.48	40376.58
643.63	40388.28
643.78	40776.81
643.93	41036.61
644.07	41109.17
644.22	40816.60
644.37	40643.40
644.51	41170.02
644.66	40818.94
644.81	40928.95
644.95	40491.27
645.10	40882.14
645.25	40271.26
645.39	40191.68
645.54	40552.12
645.69	40091.04
645.83	40053.59
645.98	40072.31
646.13	40023.16
646.27	40247.85
646.42	40184.66
646.57	40093.38
646.71	40594.25
646.86	40587.23
647.00	40425.73
647.15	40266.58
647.30	40329.77
647.44	40156.57
647.59	39917.84
647.74	40423.39
647.88	40332.11
648.03	40306.37
648.17	39988.05
648.32	40275.94
648.47	40556.80
648.61	39669.74
648.76	39922.52
648.90	39793.79
649.05	39725.91
649.20	40044.23
649.34	40004.44
649.49	39896.77
649.63	39838.26
649.78	40177.64
649.92	39828.90
650.07	40547.44
650.21	40472.54
650.36	40046.57
650.51	39639.31
650.65	40362.54
650.80	40002.10
650.94	39859.32
651.09	39880.39
651.23	39522.29
651.38	39143.12
651.52	39196.95
651.67	39367.81
651.81	39318.66
651.96	39299.94
652.10	39154.82
652.25	39182.91
652.39	39384.19
652.54	39339.72
652.68	39353.77
652.83	39571.44
652.97	39835.92
653.12	39686.12
653.26	39021.41
653.41	39475.48
653.55	39353.77
653.70	39622.93
653.84	39491.86
653.99	39746.98
654.13	39194.61
654.27	39302.28
654.42	39257.81
654.56	38967.58
654.71	38930.13
654.85	39051.84
655.00	39360.79
655.14	39210.99
655.29	39594.84
655.43	38998.01
655.57	38756.93
655.72	38939.49
655.86	38916.09
656.01	38857.57
656.15	38611.82
656.30	38611.82
656.44	38873.96
656.58	38986.30
656.73	39037.80
656.87	38387.13
657.01	38087.54
657.16	38398.83
657.30	38588.41
657.45	39309.30
657.59	38370.74
657.73	38117.96
657.88	38878.64
658.02	38745.23
658.16	38953.54
658.31	38644.59
658.45	38501.81
658.60	38368.40
658.74	38213.93
658.88	38675.01
659.03	38401.17
659.17	37930.72
659.31	37968.17
659.46	37624.11
659.60	37956.47
659.74	38403.51
659.89	37743.48
660.03	37755.18
660.17	38045.41
660.32	37876.89
660.46	37984.55
660.60	37755.18
660.74	37750.50
660.89	37809.01
661.03	37338.57
661.17	37120.90
661.32	37317.50
661.46	37284.73
661.60	37273.03
661.74	37731.78
661.89	37397.08
662.03	37317.50
662.17	37118.56
662.31	37268.35
662.46	36959.40
662.60	36788.54
662.74	36727.69
662.88	36760.45
663.03	36692.58
663.17	36605.98
663.31	36360.22
663.45	36547.47
663.60	37165.37
663.74	36566.19
663.88	36863.44
664.02	36355.54
664.17	36823.65
664.31	35957.65
664.45	36456.18
664.59	36156.60
664.73	36067.66
664.88	36322.77
665.02	35716.58
665.16	35849.99
665.30	36114.47
665.44	35847.64
665.59	35711.89
665.73	35552.74
665.87	35749.34
666.01	35840.62
666.15	35739.98
666.29	35571.46
666.44	36065.31
666.58	35768.07
666.72	35604.23
666.86	35878.07
667.00	35557.42
667.14	35321.02
667.28	35463.80
667.43	35112.72
667.57	35695.51
667.71	35433.37
667.85	35079.95
667.99	34998.03
668.13	35030.80
668.27	34932.50
668.41	35171.23
668.56	34305.23
668.70	34543.97
668.84	34813.13
668.98	34265.44
669.12	34747.59
669.26	34401.19
669.40	34462.05
669.54	34448.00
669.68	34520.56
669.82	34160.12
669.96	34036.07
670.10	34092.24
670.25	34265.44
670.39	34169.48
670.53	34398.85
670.67	33762.23
670.81	34110.97
670.95	33830.10
671.09	33947.13
671.23	33645.20
671.37	33661.58
671.51	33347.95
671.65	33249.65
671.79	33598.39
671.93	33305.82
672.07	33523.49
672.21	33326.89
672.35	33383.06
672.49	33092.83
672.63	33336.25
672.77	32914.95
672.91	32308.76
673.05	32833.04
673.19	32739.41
673.33	32807.29
673.47	32584.94
673.61	32264.28
673.75	31976.40
673.89	32360.25
674.03	31805.54
674.17	32360.25
674.31	31952.99
674.45	32208.11
674.59	31667.45
674.73	31859.37
674.87	31637.02
675.01	31529.36
675.15	31538.72
675.29	31227.43
675.43	31433.39
675.56	31709.58
675.70	31391.26
675.84	31131.47
675.98	30546.33
676.12	31365.52
676.26	31098.70
676.40	31360.84
676.54	30555.69
676.68	30721.87
676.82	30490.16
676.96	30906.77
677.10	30639.95
677.23	30600.16
677.37	30618.89
677.51	30129.72
677.65	30150.78
677.79	29982.26
677.93	30160.14
678.07	29677.99
678.21	29930.77
678.34	29799.70
678.48	29567.99
678.62	29504.79
678.76	29394.79
678.90	29448.62
679.04	29296.49
679.18	29687.36
679.31	29090.52
679.45	29200.52
679.59	29263.72
679.73	28680.92
679.87	28566.24
680.00	29017.96
680.14	28437.51
680.28	28657.52
680.42	28809.65
680.56	28243.24
680.70	28367.29
680.83	27810.25
680.97	27768.12
681.11	27803.22
681.25	27854.72
681.39	27791.52
681.52	27484.91
681.66	27440.44
681.80	27234.47
681.94	26906.80
682.07	27037.87
682.21	27208.73
682.35	26998.08
682.49	26806.16
682.62	27075.32
682.76	27091.70
682.90	26567.42
683.04	26621.25
683.17	26637.64
683.31	26654.02
683.45	26597.85
683.59	26148.46
683.72	25928.45
683.86	25797.38
684.00	25986.97
684.13	25977.61
684.27	26143.78
684.41	25022.67
684.55	25947.18
684.68	25460.35
684.82	25350.34
684.96	25322.26
685.09	25111.61
685.23	25156.08
685.37	25788.02
685.50	25198.21
685.64	24907.98
685.78	24840.11
685.91	24751.17
686.05	24596.69
686.19	24128.58
686.32	24259.65
686.46	24430.51
686.60	24025.60
686.73	24409.45
686.87	24116.88
687.01	23990.49
687.14	24233.91
687.28	23941.34
687.42	23702.61
687.55	23639.41
687.69	23894.53
687.82	23323.44
687.96	23445.15
688.10	23515.36
688.23	23030.87
688.37	23578.56
688.50	23293.01
688.64	23173.64
688.78	22904.48
688.91	22747.67
689.05	22799.16
689.18	22883.42
689.32	22115.72
689.46	22347.44
689.59	22317.01
689.73	22534.68
689.86	22644.68
690.00	22544.04
690.13	22139.13
690.27	22223.39
690.41	22237.43
690.54	21642.93
690.68	21476.76
690.81	21528.25
690.95	21385.47
691.08	21556.33
691.22	21261.43
691.35	21383.13
691.49	21312.92
691.62	21312.92
691.76	20999.29
691.89	20821.41
692.03	20411.81
692.16	20657.57
692.30	20493.73
692.43	20402.45
692.57	20292.44
692.70	20381.38
692.84	20137.97
692.97	20208.19
693.11	19796.25
693.24	19630.07
693.38	19616.03
693.51	19679.22
693.65	19704.97
693.78	19489.64
693.92	19606.67
694.05	19405.38
694.19	19260.27
694.32	19208.78
694.45	19365.59
694.59	19604.33
694.72	19014.51
694.86	18979.40
694.99	19152.60
695.13	18775.78
695.26	18768.76
695.39	18492.57
695.53	18274.90
695.66	18565.13
695.80	18490.23
695.93	18593.22
696.07	18328.74
696.20	18176.60
696.33	17996.38
696.47	17898.08
696.60	17729.56
696.73	18022.12
696.87	17776.37
697.00	18097.02
697.14	17640.62
697.27	17633.60
697.40	17778.71
697.54	17118.68
697.67	17235.70
697.80	17167.83
697.94	17198.26
698.07	17165.49
698.21	17186.55
698.34	16982.93
698.47	16453.97
698.61	16397.79
698.74	16388.43
698.87	16439.92
699.01	16313.53
699.14	16339.28
699.27	16173.10
699.40	16215.23
699.54	16135.65
699.67	16311.19
699.80	16283.11
699.94	15915.64
700.07	15985.86
700.20	15981.18
700.34	15761.17
700.47	15843.09
700.60	15709.68
700.73	15655.84
700.87	15489.67
701.00	15433.49
701.13	15548.18
701.26	15279.02
701.40	15061.35
701.53	15138.58
701.66	15147.95
701.79	15063.69
701.93	14773.46
702.06	14665.80
702.19	14544.09
702.32	14892.83
702.46	14890.49
702.59	14736.01
702.72	14789.85
702.85	14595.58
702.99	14305.35
703.12	14349.82
703.25	14228.12
703.38	14040.87
703.51	14092.37
703.65	13661.71
703.78	13582.13
703.91	13675.75
704.04	13799.80
704.17	13624.26
704.31	13434.68
704.44	13322.33
704.57	13453.40
704.70	13291.90
704.83	13610.22
704.96	13245.09
705.10	12933.80
705.23	13074.23
>>>>>End Processed Spectral Data<<<<<
