SpectraSuite Data File
++++++++++++++++++++++++++++++++++++
Date: Fri Oct 25 10:48:31 EDT 2013
User: price-jones
Dark Spectrum Present: No
Reference Spectrum Present: No
Number of Sampled Component Spectra: 1
Spectrometers: USB2+H05261
Integration Time (usec): 100000 (USB2+H05261)
Spectra Averaged: 1 (USB2+H05261)
Boxcar Smoothing: 0 (USB2+H05261)
Correct for Electrical Dark: No (USB2+H05261)
Strobe/Lamp Enabled: No (USB2+H05261)
Correct for Detector Non-linearity: No (USB2+H05261)
Correct for Stray Light: No (USB2+H05261)
Number of Pixels in Processed Spectrum: 2048
>>>>>Begin Processed Spectral Data<<<<<
365.73	154.48
365.92	154.48
366.12	154.48
366.32	25.75
366.52	30.43
366.72	79.58
366.91	30.43
367.11	35.11
367.31	58.51
367.51	23.41
367.70	30.43
367.90	56.17
368.10	42.13
368.30	88.94
368.49	60.85
368.69	84.26
368.89	21.06
369.09	11.70
369.28	63.19
369.48	53.83
369.68	114.69
369.87	124.05
370.07	88.94
370.27	168.52
370.47	194.26
370.66	444.70
370.86	514.92
371.06	468.11
371.25	517.26
371.45	489.17
371.65	463.43
371.84	510.24
372.04	514.92
372.24	486.83
372.44	503.22
372.63	550.03
372.83	491.51
373.03	535.98
373.22	552.37
373.42	491.51
373.62	552.37
373.81	524.28
374.01	564.07
374.21	643.65
374.40	575.77
374.60	601.52
374.79	582.79
374.99	657.69
375.19	578.11
375.38	695.14
375.58	587.47
375.78	627.26
375.97	664.71
376.17	648.33
376.37	596.84
376.56	667.05
376.76	650.67
376.95	709.18
377.15	695.14
377.35	667.05
377.54	650.67
377.74	671.73
377.93	629.60
378.13	589.82
378.33	713.86
378.52	692.80
378.72	704.50
378.91	645.99
379.11	667.05
379.31	580.45
379.50	683.44
379.70	709.18
379.89	669.39
380.09	777.06
380.28	678.76
380.48	774.72
380.68	645.99
380.87	711.52
381.07	751.31
381.26	795.78
381.46	709.18
381.65	777.06
381.85	746.63
382.04	753.65
382.24	702.16
382.43	716.20
382.63	755.99
382.83	760.67
383.02	755.99
383.22	746.63
383.41	697.48
383.61	781.74
383.80	826.21
384.00	826.21
384.19	777.06
384.39	851.96
384.58	770.04
384.78	870.68
384.97	819.19
385.17	809.83
385.36	868.34
385.56	809.83
385.75	788.76
385.95	821.53
386.14	968.98
386.34	851.96
386.53	821.53
386.72	814.51
386.92	957.28
387.11	861.32
387.31	938.55
387.50	880.04
387.70	959.62
387.89	882.38
388.09	858.98
388.28	858.98
388.48	891.74
388.67	973.66
388.86	1013.45
389.06	971.32
389.25	1062.60
389.45	961.96
389.64	980.68
389.84	1018.13
390.03	1086.01
390.22	961.96
390.42	1022.81
390.61	1081.33
390.81	1142.18
391.00	1057.92
391.19	1086.01
391.39	1090.69
391.58	1111.75
391.78	1135.16
391.97	1071.97
392.16	1032.18
392.36	1088.35
392.55	1071.97
392.75	1116.44
392.94	1071.97
393.13	1013.45
393.33	973.66
393.52	985.37
393.71	1158.57
393.91	1179.63
394.10	1203.04
394.29	1226.44
394.49	1172.61
394.68	1289.64
394.88	1291.98
395.07	1270.91
395.26	1219.42
395.46	1282.61
395.65	1301.34
395.84	1240.48
396.04	1299.00
396.23	1205.38
396.42	1245.16
396.62	1296.66
396.81	1186.65
397.00	1362.19
397.19	1348.15
397.39	1376.24
397.58	1448.79
397.77	1343.47
397.97	1486.24
398.16	1465.18
398.35	1586.88
398.55	1458.15
398.74	1582.20
398.93	1624.33
399.12	1514.33
399.32	1490.92
399.51	1533.05
399.70	1680.50
399.90	1563.48
400.09	1687.53
400.28	1504.96
400.47	1647.74
400.67	1806.89
400.86	1626.67
401.05	1687.53
401.24	1764.76
401.44	1715.61
401.63	1748.38
401.82	1661.78
402.01	1732.00
402.21	1739.02
402.40	1837.32
402.59	1703.91
402.78	1785.83
402.97	1746.04
403.17	1900.52
403.36	1881.79
403.55	1949.67
403.74	1933.28
403.93	1914.56
404.13	1982.43
404.32	1771.79
404.51	1851.36
404.70	2019.88
404.89	1998.82
405.09	2125.21
405.28	1994.14
405.47	2045.63
405.66	1989.46
405.85	1942.64
406.05	1980.09
406.24	2108.82
406.43	1970.73
406.62	2235.21
406.81	2134.57
407.00	2101.80
407.20	2118.18
407.39	2097.12
407.58	2214.15
407.77	2162.66
407.96	2272.66
408.15	2237.55
408.34	2298.41
408.54	2340.54
408.73	2310.11
408.92	2331.17
409.11	2305.43
409.30	2389.69
409.49	2377.98
409.68	2363.94
409.87	2235.21
410.07	2385.01
410.26	2413.09
410.45	2511.39
410.64	2448.20
410.83	2539.48
411.02	2679.91
411.21	2574.59
411.40	2626.08
411.59	2684.59
411.78	2621.40
411.98	2635.44
412.17	2724.38
412.36	2715.02
412.55	2848.43
412.74	2700.98
412.93	2780.56
413.12	2768.85
413.31	2986.52
413.50	2815.66
413.69	2871.84
413.88	2935.03
414.07	3000.57
414.26	2944.39
414.45	3098.87
414.64	3066.10
414.83	3063.76
415.02	3012.27
415.22	3159.72
415.41	3208.87
415.60	3197.17
415.79	3180.79
415.98	3300.16
416.17	3232.28
416.36	3351.65
416.55	3265.05
416.74	3267.39
416.93	3339.94
417.12	3424.20
417.31	3456.97
417.50	3349.31
417.69	3442.93
417.88	3421.86
418.07	3414.84
418.26	3623.15
418.45	3597.40
418.64	3758.90
418.83	3527.19
419.02	3503.78
419.21	3665.28
419.39	3735.50
419.58	3618.47
419.77	3611.45
419.96	3770.60
420.15	3908.69
420.34	3768.26
420.53	3786.99
420.72	4018.70
420.91	3817.41
421.10	3768.26
421.29	3976.57
421.48	3854.86
421.67	4002.32
421.86	3688.68
422.05	3845.50
422.24	3791.67
422.43	4030.40
422.61	3932.10
422.80	3957.85
422.99	4117.00
423.18	3929.76
423.37	4049.13
423.56	4074.87
423.75	3983.59
423.94	3981.25
424.13	3684.00
424.32	3761.24
424.50	4023.38
424.69	4030.40
424.88	4046.79
425.07	4072.53
425.26	3840.82
425.45	4053.81
425.64	3978.91
425.83	4166.15
426.01	4161.47
426.20	3974.23
426.39	3911.04
426.58	3915.72
426.77	4051.47
426.96	4175.52
427.15	4053.81
427.33	4035.08
427.52	4222.33
427.71	4208.28
427.90	4133.39
428.09	4086.58
428.28	4271.48
428.46	4320.63
428.65	4187.22
428.84	4440.00
429.03	4280.84
429.22	4098.28
429.40	4287.86
429.59	4318.29
429.78	4086.58
429.97	4058.49
430.16	4344.03
430.34	4215.30
430.53	4266.80
430.72	4250.41
430.91	4339.35
431.10	4447.02
431.28	4582.77
431.47	4662.35
431.66	4805.12
431.85	4746.61
432.03	4709.16
432.22	4828.53
432.41	4706.82
432.60	4844.91
432.79	4875.34
432.97	4809.80
433.16	4812.14
433.35	4620.22
433.54	4645.96
433.72	4678.73
433.91	4676.39
434.10	4807.46
434.28	4858.95
434.47	4880.02
434.66	5032.15
434.85	5219.39
435.03	4865.97
435.22	5032.15
435.41	5181.95
435.59	5048.54
435.78	5149.18
435.97	5266.21
436.16	5207.69
436.34	5254.50
436.53	5034.49
436.72	5231.10
436.90	5214.71
437.09	5219.39
437.28	5160.88
437.46	5165.56
437.65	5273.23
437.84	5322.38
438.02	5247.48
438.21	5341.10
438.40	5198.33
438.58	5373.87
438.77	5460.47
438.96	5305.99
439.14	5474.51
439.33	5554.09
439.52	5736.65
439.70	5813.89
439.89	5893.47
440.08	5823.25
440.26	5827.93
440.45	5893.47
440.63	5914.53
440.82	6064.33
441.01	5879.43
441.19	6136.88
441.38	6125.18
441.57	6150.93
441.75	6181.35
441.94	6399.02
442.12	6296.04
442.31	6654.14
442.50	6490.31
442.68	6593.29
442.87	6445.84
443.05	6574.56
443.24	6642.44
443.43	6516.05
443.61	6518.39
443.80	6696.27
443.98	6490.31
444.17	6373.28
444.35	6654.14
444.54	6892.88
444.73	6476.26
444.91	6656.48
445.10	6661.16
445.28	6649.46
445.47	6328.81
445.65	6583.93
445.84	6679.89
446.02	6754.79
446.21	6750.10
446.39	6635.42
446.58	6794.58
446.77	6832.02
446.95	6644.78
447.14	6780.53
447.32	6967.77
447.51	6825.00
447.69	6874.15
447.88	6764.15
448.06	6642.44
448.25	6848.41
448.43	6764.15
448.62	6822.66
448.80	6839.05
448.99	6953.73
449.17	6965.43
449.36	7014.59
449.54	7089.48
449.73	7335.24
449.91	7150.34
450.10	7206.51
450.28	7201.83
450.46	7295.45
450.65	7162.04
450.83	7288.43
451.02	7243.96
451.20	7391.41
451.39	7555.25
451.57	7267.36
451.76	7279.07
451.94	7276.73
452.13	7311.83
452.31	7321.20
452.49	7117.57
452.68	7379.71
452.86	7323.54
453.05	7442.90
453.23	7274.38
453.42	7442.90
453.60	7351.62
453.78	7353.96
453.97	7396.09
454.15	7583.34
454.34	7339.92
454.52	7747.17
454.70	7524.82
454.89	7735.47
455.07	7772.92
455.26	7845.48
455.44	7906.33
455.62	7911.01
455.81	7770.58
455.99	7880.58
456.17	7934.42
456.36	7737.81
456.54	7896.97
456.73	8140.38
456.91	8376.78
457.09	8203.58
457.28	8248.05
457.46	8210.60
457.64	8423.59
457.83	8191.88
458.01	8046.76
458.19	8432.95
458.38	8119.32
458.56	8425.93
458.74	8573.38
458.93	8215.28
459.11	8205.92
459.29	8454.02
459.48	8379.12
459.66	8187.19
459.84	8376.78
460.03	8564.02
460.21	8425.93
460.39	8681.05
460.57	8753.60
460.76	8765.31
460.94	8940.85
461.12	8966.59
461.31	8772.33
461.49	9022.77
461.67	8901.06
461.85	8872.97
462.04	8851.91
462.22	9338.74
462.40	9050.85
462.59	8985.32
462.77	9123.41
462.95	9085.96
463.13	9163.20
463.32	9214.69
463.50	9116.39
463.68	9221.71
463.86	9235.75
464.05	8975.95
464.23	9233.41
464.41	9071.92
464.59	9069.58
464.78	9399.59
464.96	9357.46
465.14	9362.14
465.32	9291.93
465.50	9343.42
465.69	9380.87
465.87	9378.53
466.05	9317.67
466.23	9357.46
466.41	9331.72
466.60	9535.34
466.78	9404.27
466.96	9338.74
467.14	9439.38
467.32	9469.81
467.51	9628.96
467.69	9254.48
467.87	9722.59
468.05	9479.17
468.23	9575.13
468.41	9446.40
468.60	9717.90
468.78	9666.41
468.96	9657.05
469.14	9736.63
469.32	9764.72
469.50	9444.06
469.69	9912.17
469.87	10003.45
470.05	10087.71
470.23	9839.61
470.41	10012.81
470.59	10251.55
470.77	10078.35
470.95	9916.85
471.14	10036.22
471.32	10174.31
471.50	10265.59
471.68	10448.15
471.86	10415.38
472.04	10373.25
472.22	10743.06
472.40	10345.17
472.58	10539.43
472.77	10532.41
472.95	10668.16
473.13	11255.64
473.31	10607.31
473.49	10663.48
473.67	10801.57
473.85	10782.85
474.03	10958.39
474.21	11023.92
474.39	11400.75
474.57	11363.30
474.75	11503.73
474.93	11499.05
475.12	11417.13
475.30	11522.46
475.48	11356.28
475.66	11492.03
475.84	11595.01
476.02	11616.08
476.20	11548.20
476.38	11843.11
476.56	11967.16
476.74	11880.56
476.92	12145.04
477.10	11955.46
477.28	12208.23
477.46	12697.41
477.64	12549.95
477.82	12585.06
478.00	12737.20
478.18	12769.96
478.36	12615.49
478.54	12774.64
478.72	13057.85
478.90	13095.30
479.08	13209.98
479.26	13418.29
479.44	13397.23
479.62	13268.50
479.80	13523.62
479.98	13631.28
480.16	14064.28
480.34	14047.90
480.52	14012.79
480.70	13774.05
480.88	13806.82
481.06	13820.86
481.24	14267.91
481.41	14628.35
481.59	14668.14
481.77	14637.71
481.95	14583.88
482.13	14801.55
482.31	14829.63
482.49	14768.78
482.67	15030.92
482.85	15524.77
483.03	15255.61
483.21	15587.97
483.39	15644.14
483.57	15499.03
483.74	15719.04
483.92	15927.35
484.10	15534.14
484.28	16210.55
484.46	16432.90
484.64	16475.03
484.82	16095.86
485.00	16402.47
485.18	16554.61
485.35	16882.28
485.53	16695.04
485.71	16418.86
485.89	16589.72
486.07	16650.57
486.25	16915.05
486.43	17128.04
486.61	17411.25
486.78	17647.64
486.96	17664.02
487.14	17968.29
487.32	17825.52
487.50	17916.80
487.68	18431.72
487.85	18689.18
488.03	18733.65
488.21	18815.57
488.39	18967.70
488.57	19246.23
488.75	19133.88
488.92	19323.46
489.10	19377.30
489.28	20025.62
489.46	20058.39
489.64	19793.91
489.81	20437.56
489.99	20397.77
490.17	20819.07
490.35	20477.35
490.53	20458.62
490.70	20842.47
490.88	20718.42
491.06	21329.30
491.24	21062.48
491.41	21252.06
491.59	21270.79
491.77	21102.27
491.95	21387.82
492.13	21860.60
492.30	21933.16
492.48	22239.77
492.66	22396.59
492.84	22291.26
493.01	22476.16
493.19	22658.73
493.37	22445.74
493.54	22745.33
493.72	22913.84
493.90	23293.01
494.08	23337.48
494.25	23672.18
494.43	23557.49
494.61	24056.03
494.79	23950.70
494.96	23784.52
495.14	23669.84
495.32	24294.76
495.49	24290.08
495.67	24137.94
495.85	24334.55
496.02	24474.98
496.20	24765.21
496.38	24996.92
496.55	24879.89
496.73	25638.23
496.91	25266.08
497.09	25252.04
497.26	25521.20
497.44	25516.52
497.62	25556.31
497.79	25830.15
497.97	25621.84
498.14	26010.37
498.32	25986.97
498.50	26314.64
498.67	26251.45
498.85	26780.41
499.03	26817.86
499.20	26302.94
499.38	26911.48
499.56	26911.48
499.73	27002.76
499.91	27061.27
500.08	27056.59
500.26	27070.64
500.44	26988.72
500.61	27257.88
500.79	27117.45
500.97	27112.77
501.14	27683.86
501.32	27250.86
501.49	27576.19
501.67	27529.38
501.84	27772.80
502.02	27967.06
502.20	28439.85
502.37	28154.30
502.55	28144.94
502.72	28416.44
502.90	28268.99
503.07	28311.12
503.25	28343.89
503.43	28486.66
503.60	28596.67
503.78	28577.94
503.95	28987.53
504.13	28954.77
504.30	29102.22
504.48	29465.00
504.65	29340.96
504.83	28929.02
505.01	29752.89
505.18	29776.30
505.36	30038.44
505.53	30064.18
505.71	30515.90
505.88	30183.55
506.06	29647.57
506.23	30125.04
506.41	30082.91
506.58	30295.89
506.76	30389.52
506.93	30604.84
507.11	30314.62
507.28	30551.01
507.46	30733.57
507.63	30689.10
507.81	30696.13
507.98	30579.10
508.16	31087.00
508.33	30920.82
508.50	31215.72
508.68	31356.16
508.85	31559.78
509.03	31524.68
509.20	31559.78
509.38	32013.85
509.55	32088.74
509.73	31667.45
509.90	31805.54
510.08	31899.16
510.25	31854.69
510.42	32177.68
510.60	32175.34
510.77	32315.78
510.95	32870.48
511.12	32444.51
511.30	32671.54
511.47	33352.63
511.64	32893.89
511.82	33244.97
511.99	32591.96
512.17	32875.16
512.34	32435.14
512.51	32959.42
512.69	33118.58
512.86	33336.25
513.04	33516.47
513.21	33256.67
513.38	33144.33
513.56	33450.94
513.73	33198.16
513.90	33799.68
514.08	33549.24
514.25	33741.16
514.43	33617.11
514.60	34029.05
514.77	34045.43
514.95	34410.56
515.12	33764.57
515.29	34129.69
515.47	34497.16
515.64	34721.85
515.81	34635.25
515.99	34279.49
516.16	34258.42
516.33	34223.31
516.51	34270.12
516.68	34127.35
516.85	33586.69
517.03	34412.90
517.20	34593.12
517.37	35143.14
517.54	34958.24
517.72	35063.57
517.89	34361.40
518.06	34686.74
518.24	35096.33
518.41	35042.50
518.58	35255.49
518.75	35192.30
518.93	35267.19
519.10	35353.79
519.27	35639.34
519.45	35388.90
519.62	36151.91
519.79	35667.42
519.96	36154.26
520.14	36187.02
520.31	35702.53
520.48	36425.76
520.65	35571.46
520.83	36240.86
521.00	36552.15
521.17	36570.87
521.34	36528.74
521.52	37083.45
521.69	36561.51
521.86	36945.36
522.03	37041.32
522.20	36629.38
522.38	36910.25
522.55	37062.38
522.72	36783.86
522.89	37132.60
523.07	37338.57
523.24	36870.46
523.41	37729.44
523.58	37619.43
523.75	37684.97
523.92	38209.25
524.10	37663.90
524.27	37748.16
524.44	37801.99
524.61	37954.13
524.78	38356.70
524.96	38307.55
525.13	38473.73
525.30	38745.23
525.47	38403.51
525.64	38513.52
525.81	38153.07
525.98	38045.41
526.16	38024.34
526.33	37724.75
526.50	38330.95
526.67	37867.53
526.84	38265.42
527.01	38265.42
527.18	38536.92
527.36	38511.17
527.53	38796.72
527.70	39548.03
527.87	39445.05
528.04	39332.70
528.21	39199.29
528.38	39269.51
528.55	39571.44
528.72	39484.84
528.89	39988.05
529.07	39498.88
529.24	39150.14
529.41	39428.66
529.58	39676.76
529.75	39646.33
529.92	39847.62
530.09	39730.59
530.26	39889.75
530.43	40034.86
530.60	39929.54
530.77	40130.83
530.94	40425.73
531.11	40058.27
531.28	40453.82
531.46	40037.20
531.63	40292.32
531.80	40126.14
531.97	40189.34
532.14	40081.67
532.31	40126.14
532.48	40306.37
532.65	40383.60
532.82	40587.23
532.99	40692.55
533.16	40835.33
533.33	41015.55
533.50	41092.79
533.67	40779.15
533.84	40907.88
534.01	40821.28
534.18	40608.29
534.35	40725.32
534.52	40889.16
534.69	41294.07
534.86	40797.88
535.03	41055.34
535.20	41581.96
535.37	41801.97
535.54	41923.68
535.71	41268.33
535.88	41659.20
536.05	41532.81
536.22	41469.61
536.38	41703.67
536.55	41635.79
536.72	41153.64
536.89	41432.16
537.06	41371.31
537.23	41596.00
537.40	41481.31
537.57	41471.95
537.74	41989.21
537.91	41893.25
538.08	42054.75
538.25	41879.21
538.42	41996.23
538.59	42050.06
538.75	42211.56
538.92	42122.62
539.09	42064.11
539.26	42197.52
539.43	41895.59
539.60	42101.56
539.77	42014.96
539.94	42279.44
540.11	41958.78
540.28	42258.37
540.44	42183.48
540.61	42146.03
540.78	42300.50
540.95	41989.21
541.12	42068.79
541.29	42918.40
541.46	42260.71
541.62	42745.20
541.79	42960.53
541.96	42398.80
542.13	42651.58
542.30	42827.12
542.47	43075.22
542.63	42557.96
542.80	43058.84
542.97	43353.74
543.14	43426.30
543.31	43257.78
543.48	43819.51
543.64	43868.66
543.81	44011.43
543.98	43676.74
544.15	43768.02
544.32	43599.50
544.48	43587.80
544.65	43810.15
544.82	43711.84
544.99	43400.55
545.16	43812.49
545.32	43758.66
545.49	43985.69
545.66	44311.02
545.83	43971.64
546.00	44179.95
546.16	44112.08
546.33	44016.11
546.50	43428.64
546.67	44051.22
546.83	43349.06
547.00	43887.39
547.17	43742.27
547.34	43934.20
547.50	44392.94
547.67	44318.04
547.84	44385.92
548.00	44772.11
548.17	44165.91
548.34	44479.54
548.51	44432.73
548.67	44755.72
548.84	44659.76
549.01	44266.55
549.18	44783.81
549.34	44659.76
549.51	44399.96
549.68	44163.57
549.84	45097.44
550.01	44605.93
550.18	44676.15
550.34	44802.53
550.51	44364.85
550.68	44495.92
550.84	44978.07
551.01	45090.42
551.18	44828.28
551.34	44786.15
551.51	45172.34
551.68	44821.26
551.84	44886.79
552.01	44802.53
552.18	44847.00
552.34	44910.20
552.51	45008.50
552.68	45141.91
552.84	45277.66
553.01	45593.64
553.18	45432.14
553.34	45305.75
553.51	44790.83
553.67	45106.80
553.84	45310.43
554.01	45998.55
554.17	45558.53
554.34	45743.43
554.51	45584.27
554.67	45736.41
554.84	45581.93
555.00	45649.81
555.17	45670.87
555.33	45687.26
555.50	45457.88
555.67	45600.66
555.83	45638.11
556.00	45879.18
556.16	45986.85
556.33	46045.36
556.50	45263.62
556.66	46178.77
556.83	45277.66
556.99	45677.90
557.16	45928.33
557.32	46148.34
557.49	45684.92
557.65	45560.87
557.82	46272.39
557.98	45652.15
558.15	45886.20
558.32	46216.22
558.48	46066.42
558.65	46010.25
558.81	46000.89
558.98	45478.95
559.14	46071.10
559.31	45738.75
559.47	46110.89
559.64	45935.35
559.80	46211.54
559.97	46078.13
560.13	45710.66
560.30	46188.13
560.46	46033.66
560.63	45895.56
560.79	45893.22
560.96	46328.56
561.12	45867.48
561.29	46213.88
561.45	46330.90
561.61	46052.38
561.78	45935.35
561.94	46307.50
562.11	46169.41
562.27	46490.06
562.44	46511.13
562.60	46328.56
562.77	46333.24
562.93	46326.22
563.10	46312.18
563.26	46134.30
563.42	46625.81
563.59	46274.73
563.75	46316.86
563.92	46504.10
564.08	46712.41
564.24	46593.04
564.41	46443.25
564.57	46333.24
564.74	46536.87
564.90	46546.23
565.07	46478.36
565.23	46689.01
565.39	46326.22
565.56	46913.70
565.72	46342.61
565.88	46576.66
566.05	46494.74
566.21	46457.29
566.38	46333.24
566.54	46635.17
566.70	46637.51
566.87	46972.21
567.03	46801.35
567.19	47028.38
567.36	47016.68
567.52	46831.78
567.68	46768.58
567.85	46543.89
568.01	46951.15
568.17	46461.97
568.34	46639.86
568.50	46885.61
568.66	46358.99
568.83	46408.14
568.99	46836.46
569.15	46504.10
569.32	46714.75
569.48	46600.07
569.64	46965.19
569.81	46916.04
569.97	46548.57
570.13	46672.62
570.30	46754.54
570.46	46677.30
570.62	46728.80
570.78	46394.10
570.95	46670.28
571.11	47271.80
571.27	46892.63
571.43	46796.67
571.60	46899.65
571.76	46803.69
571.92	47168.82
572.09	46770.93
572.25	46801.35
572.41	46848.16
572.57	47201.58
572.74	47194.56
572.90	47002.64
573.06	46995.62
573.22	46885.61
573.38	47026.04
573.55	46321.54
573.71	47070.51
573.87	47004.98
574.03	46426.87
574.20	47114.98
574.36	46822.42
574.52	47086.90
574.68	46925.40
574.84	47004.98
575.01	46761.56
575.17	47075.19
575.33	46454.95
575.49	46574.32
575.65	47466.06
575.82	47159.45
575.98	46951.15
576.14	47199.24
576.30	46754.54
576.46	46932.42
576.62	46967.53
576.79	46878.59
576.95	46586.02
577.11	46763.90
577.27	46686.67
577.43	46836.46
577.59	46597.73
577.75	46918.38
577.92	46471.34
578.08	46665.60
578.24	46326.22
578.40	46796.67
578.56	47173.50
578.72	47084.56
578.88	47089.24
579.04	46993.28
579.21	46939.44
579.37	46843.48
579.53	47117.32
579.69	47157.11
579.85	47164.14
580.01	47133.71
580.17	46923.06
580.33	47051.79
580.49	46773.27
580.65	47325.63
580.82	46829.44
580.98	46752.20
581.14	46862.21
581.30	47562.03
581.46	46628.15
581.62	47206.26
581.78	46988.60
581.94	47239.03
582.10	46937.10
582.26	47019.02
582.42	47058.81
582.58	47327.97
582.74	47494.15
582.90	47262.44
583.06	47239.03
583.22	47454.36
583.38	47384.15
583.54	47257.76
583.70	47035.41
583.86	47093.92
584.02	46871.57
584.18	47255.42
584.34	47489.47
584.50	47096.26
584.66	47440.32
584.82	46686.67
584.98	47573.73
585.14	47035.41
585.30	47070.51
585.46	47194.56
585.62	46644.54
585.78	47014.34
585.94	46473.68
586.10	47206.26
586.26	46726.46
586.42	46710.07
586.58	47201.58
586.74	46838.80
586.90	46738.16
587.06	46909.02
587.22	46836.46
587.38	47004.98
587.54	47206.26
587.70	47171.16
587.86	47114.98
588.02	47206.26
588.18	47398.19
588.34	46621.13
588.49	46630.49
588.65	46422.19
588.81	46710.07
588.97	46344.95
589.13	46738.16
589.29	46557.94
589.45	46653.90
589.61	46663.26
589.77	47327.97
589.93	47388.83
590.08	47463.72
590.24	47384.15
590.40	47138.39
590.56	47292.86
590.72	47316.27
590.88	47103.28
591.04	47625.22
591.20	47342.02
591.35	47194.56
591.51	47437.98
591.67	47227.33
591.83	47452.02
591.99	46784.97
592.15	46777.95
592.31	47107.96
592.46	47491.81
592.62	47084.56
592.78	47414.57
592.94	47409.89
593.10	47421.59
593.26	47203.92
593.41	47189.88
593.57	47122.01
593.73	46892.63
593.89	47065.83
594.05	47065.83
594.20	47468.40
594.36	47412.23
594.52	47222.65
594.68	46862.21
594.84	47299.89
594.99	47430.96
595.15	47405.21
595.31	47054.13
595.47	47466.06
595.62	47503.51
595.78	47107.96
595.94	47330.31
596.10	47363.08
596.25	47208.61
596.41	47428.62
596.57	47395.85
596.73	47332.65
596.88	47098.60
597.04	47360.74
597.20	47311.59
597.36	47056.47
597.51	47344.36
597.67	47386.49
597.83	47459.04
597.99	47545.64
598.14	47070.51
598.30	47246.05
598.46	47351.38
598.61	47351.38
598.77	47152.43
598.93	47320.95
599.09	47112.64
599.24	47653.31
599.40	47611.18
599.56	47636.92
599.71	47096.26
599.87	47384.15
600.03	47606.50
600.18	47316.27
600.34	47257.76
600.50	47203.92
600.65	47035.41
600.81	47419.25
600.97	47608.84
601.12	47796.08
601.28	47173.50
601.44	47704.80
601.59	47505.85
601.75	47009.66
601.91	47309.25
602.06	46824.76
602.22	47470.75
602.37	47012.00
602.53	47386.49
602.69	47550.32
602.84	47393.51
603.00	47360.74
603.16	47114.98
603.31	46913.70
603.47	46705.39
603.62	46609.43
603.78	47672.03
603.94	47208.61
604.09	47250.74
604.25	47463.72
604.40	47606.50
604.56	47515.22
604.71	47166.48
604.87	47077.54
605.03	46932.42
605.18	46988.60
605.34	47384.15
605.49	47110.30
605.65	47634.58
605.80	47114.98
605.96	47351.38
606.12	47187.54
606.27	47627.56
606.43	46752.20
606.58	47232.01
606.74	47019.02
606.89	46866.89
607.05	46934.76
607.20	47175.84
607.36	47311.59
607.51	47187.54
607.67	46988.60
607.82	47388.83
607.98	47320.95
608.13	47105.62
608.29	46937.10
608.44	46630.49
608.60	46579.00
608.75	46120.26
608.91	46703.05
609.06	46913.70
609.22	47138.39
609.37	46909.02
609.53	46777.95
609.68	46799.01
609.84	46887.95
609.99	46962.85
610.15	46894.97
610.30	46651.56
610.46	46066.42
610.61	46548.57
610.76	46667.94
610.92	46436.23
611.07	46747.52
611.23	46522.83
611.38	46951.15
611.54	46527.51
611.69	46445.59
611.84	45961.10
612.00	46344.95
612.15	46567.30
612.31	46796.67
612.46	46363.67
612.62	46784.97
612.77	46497.08
612.92	46480.70
613.08	46143.66
613.23	46326.22
613.39	45944.72
613.54	45860.46
613.69	46218.56
613.85	46258.35
614.00	46131.96
614.15	46429.21
614.31	46190.47
614.46	46642.20
614.62	46160.05
614.77	46012.59
614.92	46426.87
615.08	45909.61
615.23	46307.50
615.38	45893.22
615.54	45930.67
615.69	45970.46
615.84	45769.18
616.00	45862.80
616.15	45921.31
616.30	45614.70
616.46	45219.15
616.61	45813.65
616.76	46038.34
616.92	45797.26
617.07	45652.15
617.22	45757.47
617.37	45865.14
617.53	46021.95
617.68	45771.52
617.83	46043.02
617.99	45902.59
618.14	45776.20
618.29	45874.50
618.45	45160.64
618.60	45275.32
618.75	45312.77
618.90	45787.90
619.06	45514.06
619.21	45186.38
619.36	45687.26
619.51	45272.98
619.67	45497.67
619.82	45415.76
619.97	45476.61
620.12	45701.30
620.28	44898.50
620.43	45284.68
620.58	44961.69
620.73	45340.86
620.89	45034.25
621.04	45207.45
621.19	45324.47
621.34	45226.17
621.49	44889.13
621.65	44875.09
621.80	45127.87
621.95	45090.42
622.10	44713.59
622.25	45113.83
622.41	44856.37
622.56	45148.93
622.71	44935.95
622.86	44931.26
623.01	45137.23
623.16	45216.81
623.32	44844.66
623.47	44982.76
623.62	44907.86
623.77	44624.65
623.92	44828.28
624.07	44531.03
624.23	44472.52
624.38	44446.77
624.53	44168.25
624.68	44849.35
624.83	44751.04
624.98	44706.57
625.13	44545.08
625.29	44385.92
625.44	44325.07
625.59	44123.78
625.74	44074.63
625.89	43702.48
626.04	43791.42
626.19	44025.48
626.34	44388.26
626.49	44177.61
626.65	44186.97
626.80	44528.69
626.95	43966.96
627.10	44051.22
627.25	43840.57
627.40	43342.04
627.55	43573.75
627.70	43641.63
627.85	43496.52
628.00	43756.32
628.15	44385.92
628.30	43435.66
628.45	43735.25
628.60	43594.82
628.76	43885.04
628.91	43515.24
629.06	43742.27
629.21	43508.22
629.36	42904.36
629.51	43646.31
629.66	42960.53
629.81	43023.73
629.96	43505.88
630.11	43531.62
630.26	43679.08
630.41	43285.87
630.56	43545.67
630.71	43559.71
630.86	43199.27
631.01	43100.97
631.16	42979.26
631.31	42899.68
631.46	42848.19
631.61	43353.74
631.76	43255.44
631.91	43449.70
632.06	43075.22
632.21	43119.69
632.36	43449.70
632.51	42890.32
632.66	43122.03
632.81	43105.65
632.96	43372.47
633.10	42632.86
633.25	42288.80
633.40	42904.36
633.55	43014.37
633.70	42670.31
633.85	42892.66
634.00	42787.33
634.15	42707.76
634.30	43122.03
634.45	42967.55
634.60	42443.27
634.75	42536.90
634.90	42644.56
635.05	42897.34
635.19	42541.58
635.34	43082.24
635.49	42351.99
635.64	42410.51
635.79	42075.81
635.94	42583.71
636.09	41961.12
636.24	42483.06
636.39	42078.15
636.53	42190.50
636.68	42359.02
636.83	42323.91
636.98	42312.20
637.13	42012.62
637.28	42337.95
637.43	42775.63
637.57	42171.77
637.72	42052.41
637.87	42312.20
638.02	41787.92
638.17	42010.28
638.32	42438.59
638.46	41909.63
638.61	41794.95
638.76	41862.82
638.91	42019.64
639.06	41879.21
639.20	41972.83
639.35	41790.27
639.50	41748.14
639.65	41844.10
639.80	41448.55
639.94	41603.02
640.09	41404.08
640.24	41441.53
640.39	41347.90
640.54	41773.88
640.68	41691.96
640.83	41703.67
640.98	41448.55
641.13	41352.58
641.27	41329.18
641.42	41256.62
641.57	41624.09
641.72	41146.62
641.86	41315.14
642.01	41158.32
642.16	41233.22
642.31	41057.68
642.45	40886.82
642.60	40921.93
642.75	40575.53
642.90	41024.91
643.04	40989.80
643.19	41223.86
643.34	41022.57
643.48	41097.47
643.63	40903.20
643.78	40390.62
643.93	40807.24
644.07	40811.92
644.22	40980.44
644.37	40638.72
644.51	40591.91
644.66	40919.59
644.81	41118.53
644.95	41085.76
645.10	40921.93
645.25	41209.81
645.39	40456.16
645.54	40807.24
645.69	40842.35
645.83	40175.30
645.98	41041.29
646.13	40329.77
646.27	40603.61
646.42	40357.86
646.57	40495.95
646.71	40814.26
646.86	40334.45
647.00	40364.88
647.15	40362.54
647.30	40584.89
647.44	40105.08
647.59	40278.28
647.74	40121.46
647.88	39744.64
648.03	39746.98
648.17	39957.63
648.32	40238.49
648.47	39704.85
648.61	40067.63
648.76	40093.38
648.90	40027.84
649.05	39840.60
649.20	40025.50
649.34	40084.01
649.49	39709.53
649.63	39777.40
649.78	39618.25
649.92	39849.96
650.07	40343.81
650.21	39681.44
650.36	40133.17
650.51	39728.25
650.65	39824.22
650.80	40390.62
650.94	40079.33
651.09	40184.66
651.23	39742.30
651.38	39688.46
651.52	39311.64
651.67	39332.70
651.81	39531.65
651.96	39374.83
652.10	39519.95
652.25	39147.80
652.39	39358.45
652.54	39566.76
652.68	40018.48
652.83	39683.78
652.97	39234.40
653.12	39328.02
653.26	39323.34
653.41	39075.24
653.55	38808.42
653.70	39365.47
653.84	39133.76
653.99	39140.78
654.13	39175.89
654.27	39232.06
654.42	39072.90
654.56	39089.29
654.71	39269.51
654.85	38766.29
655.00	38895.02
655.14	38438.62
655.29	38476.07
655.43	38569.69
655.57	38508.83
655.72	38141.37
655.86	38225.63
656.01	38199.88
656.15	38431.60
656.30	38403.51
656.44	38368.40
656.58	38316.91
656.73	38202.22
656.87	38630.54
657.01	37736.46
657.16	37745.82
657.30	37904.98
657.45	37970.51
657.59	38529.90
657.73	38380.10
657.88	37940.08
658.02	38302.87
658.16	38237.33
658.31	38637.56
658.45	38527.56
658.60	38314.57
658.74	38380.10
658.88	38253.72
659.03	37834.76
659.17	37474.32
659.31	37867.53
659.46	37701.35
659.60	38213.93
659.74	38073.49
659.89	37357.29
660.03	37897.95
660.17	37666.24
660.32	37333.89
660.46	37996.26
660.60	37881.57
660.74	37890.93
660.89	37748.16
661.03	37127.92
661.17	37008.55
661.32	37226.22
661.46	37469.64
661.60	37324.52
661.74	36992.17
661.89	37029.62
662.03	37254.31
662.17	37345.59
662.31	37046.00
662.46	37273.03
662.60	36989.83
662.74	36706.62
662.88	36898.55
663.03	36744.07
663.17	36552.15
663.31	36802.58
663.45	36659.81
663.60	36463.21
663.74	36481.93
663.88	36105.10
664.02	36655.13
664.17	36416.40
664.31	36130.85
664.45	36121.49
664.59	35990.42
664.73	36168.30
664.88	35700.19
665.02	35775.09
665.16	35978.72
665.30	35901.48
665.44	35667.42
665.59	35854.67
665.73	35538.69
665.87	35768.07
666.01	35711.89
666.15	35875.73
666.29	35798.49
666.44	35810.20
666.58	35358.47
666.72	35592.53
666.86	35419.33
667.00	35526.99
667.14	35173.57
667.28	35042.50
667.43	34827.17
667.57	35070.59
667.71	34700.78
667.85	34824.83
667.99	34616.52
668.13	34756.96
668.27	34792.06
668.41	34787.38
668.56	34675.04
668.70	34976.97
668.84	34359.06
668.98	34513.54
669.12	34424.60
669.26	34242.04
669.40	34422.26
669.54	34349.70
669.68	34513.54
669.82	34094.58
669.96	33954.15
670.10	33668.61
670.25	34209.27
670.39	34347.36
670.53	33996.28
670.67	33579.67
670.81	34036.07
670.95	34157.78
671.09	34024.37
671.23	33853.51
671.37	33935.43
671.51	33177.09
671.65	33771.59
671.79	33153.69
671.93	33127.94
672.07	33301.14
672.21	33029.64
672.35	32893.89
672.49	33268.37
672.63	32854.10
672.77	33024.96
672.91	33429.87
673.05	32856.44
673.19	32905.59
673.33	32465.57
673.47	32360.25
673.61	32402.38
673.75	32222.16
673.89	32114.49
674.03	32149.60
674.17	32119.17
674.31	32268.97
674.45	32123.85
674.59	32252.58
674.73	32121.51
674.87	32072.36
675.01	32070.02
675.15	32259.60
675.29	31957.67
675.43	31990.44
675.56	31456.80
675.70	31728.30
675.84	31625.32
675.98	30717.19
676.12	31339.77
676.26	31299.98
676.40	31634.68
676.54	30813.15
676.68	30878.69
676.82	30288.87
676.96	30733.57
677.10	30504.20
677.23	30508.88
677.37	30548.67
677.51	30323.98
677.65	30614.21
677.79	30066.52
677.93	30148.44
678.07	29907.37
678.21	29600.76
678.34	29902.68
678.48	30106.31
678.62	29806.72
678.76	29621.82
678.90	29572.67
679.04	29551.60
679.18	29495.43
679.31	28744.12
679.45	28999.24
679.59	28882.21
679.73	28662.20
679.87	28896.25
680.00	29076.48
680.14	28318.14
680.28	28549.85
680.42	28552.20
680.56	28655.18
680.70	28121.54
680.83	28065.36
680.97	28077.07
681.11	28121.54
681.25	27751.73
681.39	27985.79
681.52	27374.91
681.66	27669.81
681.80	27880.46
681.94	27019.14
682.07	27557.47
682.21	27491.93
682.35	26920.84
682.49	27358.52
682.62	27414.69
682.76	27042.55
682.90	26827.22
683.04	26881.05
683.17	27175.96
683.31	26529.97
683.45	26859.99
683.59	26223.36
683.72	26052.50
683.86	26345.07
684.00	26075.91
684.13	26181.23
684.27	26284.22
684.41	26185.91
684.55	26155.49
684.68	25834.83
684.82	25605.46
684.96	25551.63
685.09	25415.88
685.23	25331.62
685.37	25280.13
685.50	25254.38
685.64	25614.82
685.78	25106.93
685.91	25284.81
686.05	25193.53
686.19	24915.00
686.32	24744.14
686.46	24657.54
686.60	24201.14
686.73	24245.61
686.87	24020.92
687.01	23630.05
687.14	24046.66
687.28	23875.80
687.42	23695.58
687.55	23391.31
687.69	23316.42
687.82	23513.02
687.96	23672.18
688.10	23620.69
688.23	23122.15
688.37	23213.43
688.50	23122.15
688.64	22855.33
688.78	22766.39
688.91	22656.39
689.05	22796.82
689.18	22672.77
689.32	22628.30
689.46	22597.87
689.59	22733.62
689.73	22710.22
689.86	22459.78
690.00	22473.82
690.13	22602.55
690.27	22178.92
690.41	22726.60
690.54	21935.50
690.68	22024.44
690.81	21912.10
690.95	21792.73
691.08	21741.24
691.22	21624.21
691.35	21668.68
691.49	21802.09
691.62	21635.91
691.76	21507.18
691.89	21579.74
692.03	21355.05
692.16	21118.65
692.30	21275.47
692.43	21069.50
692.57	20655.23
692.70	20709.06
692.84	20739.49
692.97	20526.50
693.11	20365.00
693.24	20505.43
693.38	20290.10
693.51	20027.96
693.65	20540.54
693.78	20233.93
693.92	19889.87
694.05	19847.74
694.19	19761.14
694.32	19566.88
694.45	19786.89
694.59	19690.93
694.72	19466.24
694.86	19463.90
694.99	19241.54
695.13	19178.35
695.26	18890.46
695.39	18867.06
695.53	19061.32
695.66	19222.82
695.80	18913.87
695.93	18948.98
696.07	18696.20
696.20	18455.12
696.33	18642.37
696.47	18696.20
696.60	18558.11
696.73	18478.53
696.87	18384.91
697.00	18162.56
697.14	18464.49
697.27	18001.06
697.40	17919.14
697.54	18015.10
697.67	18003.40
697.80	17949.57
697.94	17731.90
698.07	17422.95
698.21	17666.36
698.34	17422.95
698.47	17371.46
698.61	17170.17
698.74	17130.38
698.87	17114.00
699.01	17142.08
699.14	16800.37
699.27	17067.19
699.40	16795.68
699.54	16751.21
699.67	16681.00
699.80	16566.31
699.94	16657.59
700.07	16456.31
700.20	16444.60
700.34	16297.15
700.47	16304.17
700.60	16130.97
700.73	16521.84
700.87	16236.30
701.00	16016.29
701.13	16130.97
701.26	15981.18
701.40	15950.75
701.53	15831.38
701.66	15693.29
701.79	15527.11
701.93	15721.38
702.06	15382.00
702.19	15508.39
702.32	15522.43
702.46	15185.40
702.59	15154.97
702.72	15314.13
702.85	15309.44
702.99	15311.78
703.12	15227.53
703.25	14951.34
703.38	14925.60
703.51	14698.56
703.65	14932.62
703.78	14672.82
703.91	14420.04
704.04	14541.75
704.17	14544.09
704.31	14101.73
704.44	14221.10
704.57	14097.05
704.70	14478.55
704.83	14162.58
704.96	14101.73
705.10	13991.72
705.23	14281.95
>>>>>End Processed Spectral Data<<<<<
