SpectraSuite Data File
++++++++++++++++++++++++++++++++++++
Date: Fri Oct 25 11:34:00 EDT 2013
User: price-jones
Dark Spectrum Present: No
Reference Spectrum Present: No
Number of Sampled Component Spectra: 1
Spectrometers: USB2+H05261
Integration Time (usec): 100000 (USB2+H05261)
Spectra Averaged: 1 (USB2+H05261)
Boxcar Smoothing: 0 (USB2+H05261)
Correct for Electrical Dark: No (USB2+H05261)
Strobe/Lamp Enabled: No (USB2+H05261)
Correct for Detector Non-linearity: No (USB2+H05261)
Correct for Stray Light: No (USB2+H05261)
Number of Pixels in Processed Spectrum: 2048
>>>>>Begin Processed Spectral Data<<<<<
365.73	262.14
365.92	262.14
366.12	262.14
366.32	194.26
366.52	175.54
366.72	156.82
366.91	177.88
367.11	177.88
367.31	208.31
367.51	212.99
367.70	215.33
367.90	161.50
368.10	252.78
368.30	149.79
368.49	203.63
368.69	175.54
368.89	163.84
369.09	229.37
369.28	231.71
369.48	191.92
369.68	215.33
369.87	355.76
370.07	180.22
370.27	252.78
370.47	362.78
370.66	496.19
370.86	578.11
371.06	540.66
371.25	526.62
371.45	543.00
371.65	479.81
371.84	510.24
372.04	561.73
372.24	622.58
372.44	608.54
372.63	603.86
372.83	617.90
373.03	615.56
373.22	615.56
373.42	610.88
373.62	613.22
373.81	641.31
374.01	631.94
374.21	657.69
374.40	587.47
374.60	671.73
374.79	606.20
374.99	669.39
375.19	606.20
375.38	730.25
375.58	662.37
375.78	641.31
375.97	685.78
376.17	737.27
376.37	669.39
376.56	683.44
376.76	617.90
376.95	727.91
377.15	706.84
377.35	587.47
377.54	725.57
377.74	676.41
377.93	669.39
378.13	713.86
378.33	751.31
378.52	643.65
378.72	744.29
378.91	683.44
379.11	683.44
379.31	596.84
379.50	690.46
379.70	727.91
379.89	725.57
380.09	793.44
380.28	730.25
380.48	798.12
380.68	697.48
380.87	688.12
381.07	767.70
381.26	784.08
381.46	730.25
381.65	741.95
381.85	816.85
382.04	781.74
382.24	842.59
382.43	727.91
382.63	847.27
382.83	819.19
383.02	835.57
383.22	723.23
383.41	737.27
383.61	805.14
383.80	748.97
384.00	676.41
384.19	798.12
384.39	814.51
384.58	748.97
384.78	851.96
384.97	760.67
385.17	844.93
385.36	861.32
385.56	791.10
385.75	809.83
385.95	777.06
386.14	882.38
386.34	873.02
386.53	863.66
386.72	919.83
386.92	866.00
387.11	990.05
387.31	856.64
387.50	842.59
387.70	917.49
387.89	868.34
388.09	875.36
388.28	964.30
388.48	868.34
388.67	915.15
388.86	964.30
389.06	950.26
389.25	938.55
389.45	971.32
389.64	976.00
389.84	999.41
390.03	1022.81
390.22	1008.77
390.42	903.45
390.61	997.07
390.81	985.37
391.00	1043.88
391.19	1053.24
391.39	1057.92
391.58	1039.20
391.78	990.05
391.97	1006.43
392.16	1036.86
392.36	1097.71
392.55	1109.41
392.75	1050.90
392.94	1097.71
393.13	1025.15
393.33	1090.69
393.52	1064.94
393.71	1198.35
393.91	1015.79
394.10	1050.90
394.29	1125.80
394.49	1086.01
394.68	1041.54
394.88	1107.07
395.07	1097.71
395.26	1149.20
395.46	1181.97
395.65	1212.40
395.84	1142.18
396.04	1196.01
396.23	1160.91
396.42	1151.54
396.62	1256.87
396.81	1224.10
397.00	1128.14
397.19	1207.72
397.39	1226.44
397.58	1254.53
397.77	1266.23
397.97	1160.91
398.16	1207.72
398.35	1249.85
398.55	1226.44
398.74	1306.02
398.93	1242.82
399.12	1317.72
399.32	1200.69
399.51	1327.08
399.70	1387.94
399.90	1277.93
400.09	1336.45
400.28	1481.56
400.47	1334.11
400.67	1404.32
400.86	1327.08
401.05	1284.95
401.24	1350.49
401.44	1437.09
401.63	1378.58
401.82	1434.75
402.01	1584.54
402.21	1469.86
402.40	1556.46
402.59	1561.14
402.78	1451.13
402.97	1509.65
403.17	1526.03
403.36	1582.20
403.55	1556.46
403.74	1596.25
403.93	1673.48
404.13	1568.16
404.32	1612.63
404.51	1638.38
404.70	1661.78
404.89	1654.76
405.09	1626.67
405.28	1636.03
405.47	1666.46
405.66	1689.87
405.85	1722.63
406.05	1732.00
406.24	1668.80
406.43	1699.23
406.62	1708.59
406.81	1837.32
407.00	1774.13
407.20	1839.66
407.39	1792.85
407.58	1797.53
407.77	1760.08
407.96	1825.62
408.15	1898.17
408.34	1809.23
408.54	1905.20
408.73	1923.92
408.92	1933.28
409.11	2017.54
409.30	1895.83
409.49	1888.81
409.68	1975.41
409.87	2078.40
410.07	2057.33
410.26	1982.43
410.45	2141.59
410.64	2062.01
410.83	1973.07
411.02	2071.37
411.21	2101.80
411.40	2026.90
411.59	2136.91
411.78	2139.25
411.98	2127.55
412.17	2282.02
412.36	2118.18
412.55	2260.96
412.74	2387.35
412.93	2310.11
413.12	2246.91
413.31	2499.69
413.50	2373.30
413.69	2377.98
413.88	2523.10
414.07	2352.24
414.26	2293.72
414.45	2457.56
414.64	2544.16
414.83	2590.97
415.02	2480.97
415.22	2588.63
415.41	2703.32
415.60	2759.49
415.79	2764.17
415.98	2745.45
416.17	2616.72
416.36	2605.02
416.55	2628.42
416.74	2794.60
416.93	2869.50
417.12	2836.73
417.31	3021.63
417.50	2796.94
417.69	2843.75
417.88	2920.99
418.07	2899.92
418.26	2988.86
418.45	2937.37
418.64	3014.61
418.83	3019.29
419.02	3045.04
419.21	3166.74
419.39	3176.11
419.58	3101.21
419.77	3073.12
419.96	3030.99
420.15	3023.97
420.34	3150.36
420.53	3178.45
420.72	3215.90
420.91	3251.00
421.10	3213.56
421.29	3286.11
421.48	3208.87
421.67	3201.85
421.86	3267.39
422.05	3351.65
422.24	3178.45
422.43	3368.03
422.61	3314.20
422.80	3351.65
422.99	3218.24
423.18	3456.97
423.37	3499.10
423.56	3393.78
423.75	3384.41
423.94	3391.44
424.13	3049.72
424.32	3260.37
424.50	3445.27
424.69	3358.67
424.88	3412.50
425.07	3349.31
425.26	3370.37
425.45	3356.33
425.64	3302.50
425.83	3288.45
426.01	3447.61
426.20	3499.10
426.39	3414.84
426.58	3463.99
426.77	3377.39
426.96	3548.25
427.15	3527.19
427.33	3590.38
427.52	3508.46
427.71	3471.01
427.90	3578.68
428.09	3681.66
428.28	3585.70
428.46	3672.30
428.65	3524.85
428.84	3681.66
429.03	3716.77
429.22	3543.57
429.40	3684.00
429.59	3686.34
429.78	3566.98
429.97	3555.27
430.16	3672.30
430.34	3770.60
430.53	3929.76
430.72	3824.44
430.91	3805.71
431.10	3829.12
431.28	3763.58
431.47	3918.06
431.66	4086.58
431.85	3843.16
432.03	4016.36
432.22	4042.11
432.41	4070.19
432.60	4025.72
432.79	4002.32
432.97	4009.34
433.16	3997.64
433.35	4021.04
433.54	4070.19
433.72	4133.39
433.91	4177.86
434.10	4053.81
434.28	4032.74
434.47	4166.15
434.66	4131.05
434.85	4290.20
435.03	4105.30
435.22	4156.79
435.41	4484.47
435.59	4386.16
435.78	4397.87
435.97	4285.52
436.16	4381.48
436.34	4269.14
436.53	4332.33
436.72	4393.19
436.90	4458.72
437.09	4423.61
437.28	4404.89
437.46	4407.23
437.65	4533.62
437.84	4648.30
438.02	4557.02
438.21	4468.08
438.40	4505.53
438.58	4748.95
438.77	4688.09
438.96	4617.88
439.14	4798.10
439.33	4882.36
439.52	4987.68
439.70	4945.55
439.89	5027.47
440.08	4865.97
440.26	5013.43
440.45	4830.87
440.63	5125.77
440.82	5149.18
441.01	4971.30
441.19	5114.07
441.38	5263.86
441.57	5186.63
441.75	5329.40
441.94	5240.46
442.12	5341.10
442.31	5420.68
442.50	5369.19
442.68	5313.02
442.87	5413.66
443.05	5535.37
443.24	5446.43
443.43	5497.92
443.61	5488.56
443.80	5572.82
443.98	5575.16
444.17	5313.02
444.35	5483.88
444.54	5724.95
444.73	5495.58
444.91	5526.00
445.10	5486.22
445.28	5404.30
445.47	5593.88
445.65	5383.23
445.84	5579.84
446.02	5652.39
446.21	5586.86
446.39	5657.07
446.58	5699.20
446.77	5731.97
446.95	5563.45
447.14	5694.52
447.32	5884.11
447.51	5664.10
447.69	5556.43
447.88	5664.10
448.06	5673.46
448.25	5696.86
448.43	5867.72
448.62	5738.99
448.80	5614.95
448.99	5860.70
449.17	5825.59
449.36	5813.89
449.54	5872.40
449.73	6045.60
449.91	6113.48
450.10	6143.91
450.28	6005.81
450.46	6148.59
450.65	5956.66
450.83	6036.24
451.02	6022.20
451.20	6120.50
451.39	6211.78
451.57	6143.91
451.76	6113.48
451.94	6012.84
452.13	6296.04
452.31	6146.25
452.49	6141.57
452.68	6335.83
452.86	6169.65
453.05	6228.17
453.23	6193.06
453.42	6399.02
453.60	6239.87
453.78	6305.40
453.97	6111.14
454.15	6422.43
454.34	6406.05
454.52	6567.54
454.70	6349.87
454.89	6392.00
455.07	6450.52
455.26	6492.65
455.44	6761.81
455.62	6747.76
455.81	6635.42
455.99	6506.69
456.17	6590.95
456.36	6539.46
456.54	6717.34
456.73	6890.54
456.91	7033.31
457.09	6981.82
457.28	6895.22
457.46	6920.96
457.64	7023.95
457.83	7007.56
458.01	7105.87
458.19	7185.44
458.38	6855.43
458.56	7066.08
458.74	7103.53
458.93	7052.03
459.11	7206.51
459.29	7173.74
459.48	7105.87
459.66	7232.26
459.84	7206.51
460.03	7342.26
460.21	7297.79
460.39	7148.00
460.57	7391.41
460.76	7311.83
460.94	7473.33
461.12	7386.73
461.31	7377.37
461.49	7318.86
461.67	7164.38
461.85	7564.61
462.04	7571.63
462.22	7915.69
462.40	7602.06
462.59	7756.54
462.77	7499.08
462.95	7669.94
463.13	7667.60
463.32	7747.17
463.50	7810.37
463.68	7948.46
463.86	7625.47
464.05	7658.23
464.23	7658.23
464.41	7850.16
464.59	7744.83
464.78	8086.55
464.96	8028.04
465.14	7812.71
465.32	7988.25
465.50	7967.18
465.69	8028.04
465.87	7854.84
466.05	7896.97
466.23	8074.85
466.41	8121.66
466.60	8390.82
466.78	8046.76
466.96	8088.89
467.14	8102.93
467.32	8018.68
467.51	8416.57
467.69	8142.72
467.87	8271.45
468.05	8306.56
468.23	8346.35
468.41	8336.99
468.60	8454.02
468.78	8376.78
468.96	8479.76
469.14	8524.23
469.32	8561.68
469.50	8308.90
469.69	8514.87
469.87	8451.67
470.05	8688.07
470.23	8594.45
470.41	8594.45
470.59	8758.28
470.77	8669.34
470.95	8819.14
471.14	9020.42
471.32	8809.78
471.50	8758.28
471.68	8842.54
471.86	8842.54
472.04	8767.65
472.22	9029.79
472.40	9006.38
472.58	9015.74
472.77	9179.58
472.95	9193.62
473.13	9476.83
473.31	9186.60
473.49	9528.32
473.67	9217.03
473.85	9327.03
474.03	9699.18
474.21	9912.17
474.39	9738.97
474.57	9664.07
474.75	9682.80
474.93	10054.94
475.12	9694.50
475.30	9771.74
475.48	9954.30
475.66	10122.82
475.84	9830.25
476.02	10209.42
476.20	10038.56
476.38	10340.49
476.56	10483.26
476.74	10389.64
476.92	10431.77
477.10	10406.02
477.28	10518.37
477.46	10438.79
477.64	10523.05
477.82	10682.20
478.00	11030.94
478.18	10965.41
478.36	11110.52
478.54	11297.77
478.72	10946.69
478.90	11279.04
479.08	11272.02
479.26	11712.04
479.44	11569.27
479.62	11676.93
479.80	11698.00
479.98	11784.60
480.16	12121.63
480.34	11726.08
480.52	12161.42
480.70	12147.38
480.88	12042.06
481.06	12243.34
481.24	12255.04
481.41	12519.53
481.59	12486.76
481.77	12784.01
481.95	12819.11
482.13	13008.70
482.31	12781.67
482.49	13088.28
482.67	13097.64
482.85	13107.00
483.03	13437.02
483.21	13532.98
483.39	13579.79
483.57	13563.40
483.74	13806.82
483.92	13898.10
484.10	13832.57
484.28	14513.66
484.46	14319.40
484.64	14436.42
484.82	14384.93
485.00	14410.68
485.18	14668.14
485.35	15005.17
485.53	14562.81
485.71	14686.86
485.89	15225.18
486.07	15066.03
486.25	15103.48
486.43	15337.53
486.61	15161.99
486.78	15346.89
486.96	15786.91
487.14	15901.60
487.32	16100.55
487.50	16224.59
487.68	16212.89
487.85	16393.11
488.03	16744.19
488.21	16865.90
488.39	16568.65
488.57	16886.97
488.75	17032.08
488.92	17205.28
489.10	17352.73
489.28	17102.29
489.46	17537.63
489.64	17554.02
489.81	17905.10
489.99	17933.18
490.17	17968.29
490.35	18342.78
490.53	18424.70
490.70	18366.18
490.88	18398.95
491.06	18583.85
491.24	18579.17
491.41	18682.16
491.59	18988.77
491.77	18843.65
491.95	19152.60
492.13	19281.33
492.30	19365.59
492.48	19381.98
492.66	19580.92
492.84	19552.84
493.01	19761.14
493.19	19541.13
493.37	19859.45
493.54	20180.10
493.72	20231.59
493.90	20329.89
494.08	20355.64
494.25	20842.47
494.43	20666.93
494.61	20861.19
494.79	20847.15
494.96	20875.24
495.14	21153.76
495.32	21287.17
495.49	21238.02
495.67	21521.23
495.85	21802.09
496.02	21806.77
496.20	21972.95
496.38	21933.16
496.55	22106.36
496.73	22546.38
496.91	22122.74
497.09	22562.76
497.26	22651.70
497.44	22682.13
497.62	22766.39
497.79	23143.22
497.97	23014.49
498.14	23417.06
498.32	23154.92
498.50	23323.44
498.67	23821.97
498.85	23716.65
499.03	23789.20
499.20	23552.81
499.38	23850.06
499.56	23964.75
499.73	24210.50
499.91	24294.76
500.08	24386.04
500.26	24020.92
500.44	24395.40
500.61	24470.30
500.79	24746.48
500.97	24482.00
501.14	25008.62
501.32	25137.35
501.49	25172.46
501.67	25219.27
501.84	25729.51
502.02	25228.63
502.20	25209.91
502.37	25486.09
502.55	25357.36
502.72	25933.14
502.90	25603.12
503.07	25516.52
503.25	25893.35
503.43	25724.83
503.60	26134.42
503.78	25830.15
503.95	26281.88
504.13	26712.53
504.30	26387.20
504.48	26471.46
504.65	26253.79
504.83	26820.20
505.01	26829.56
505.18	26565.08
505.36	26717.22
505.53	26871.69
505.71	26932.54
505.88	27021.48
506.06	26768.71
506.23	27330.44
506.41	26909.14
506.58	27454.48
506.76	27197.02
506.93	27718.96
507.11	27168.94
507.28	27697.90
507.46	27632.36
507.63	28105.15
507.81	27899.19
507.98	27576.19
508.16	28238.56
508.33	28201.11
508.50	28383.68
508.68	28294.74
508.85	28591.98
509.03	28320.48
509.20	28851.78
509.38	29149.03
509.55	28823.70
509.73	28919.66
509.90	28926.68
510.08	28786.25
510.25	29188.82
510.42	29125.63
510.60	29472.03
510.77	29673.31
510.95	29708.42
511.12	29355.00
511.30	29965.88
511.47	29579.69
511.64	29846.51
511.82	29692.04
511.99	29759.91
512.17	29766.93
512.34	30010.35
512.51	30340.36
512.69	30490.16
512.86	30773.36
513.04	30319.30
513.21	30675.06
513.38	30546.33
513.56	30656.34
513.73	30930.18
513.90	30864.64
514.08	30789.75
514.25	30937.20
514.43	31213.38
514.60	30962.95
514.77	31510.63
514.95	31349.14
515.12	31409.99
515.29	31417.01
515.47	31674.47
515.64	31569.15
515.81	31342.11
515.99	31496.59
516.16	32151.94
516.33	31960.02
516.51	32306.41
516.68	31442.76
516.85	31730.64
517.03	32301.73
517.20	32376.63
517.37	31782.13
517.54	32390.67
517.72	32716.01
517.89	32889.21
518.06	32458.55
518.24	32701.96
518.41	32744.09
518.58	32807.29
518.75	32643.45
518.93	32917.29
519.10	32690.26
519.27	33188.80
519.45	33273.06
519.62	33041.34
519.79	33448.60
519.96	33251.99
520.14	33722.44
520.31	33244.97
520.48	33120.92
520.65	33804.36
520.83	33413.49
521.00	33928.41
521.17	34279.49
521.34	33916.70
521.52	34036.07
521.69	34012.66
521.86	34394.17
522.03	33935.43
522.20	34092.24
522.38	34403.53
522.55	34574.39
522.72	34546.31
522.89	34651.63
523.07	34881.00
523.24	34682.06
523.41	34948.88
523.58	34810.79
523.75	34525.24
523.92	34857.60
524.10	35058.88
524.27	35196.98
524.44	35115.06
524.61	35351.45
524.78	35655.72
524.96	35363.15
525.13	35325.71
525.30	35632.32
525.47	35789.13
525.64	35625.29
525.81	35622.95
525.98	35721.26
526.16	35683.81
526.33	35601.89
526.50	36250.22
526.67	35854.67
526.84	35779.77
527.01	36144.89
527.18	36196.38
527.36	36404.69
527.53	36168.30
527.70	36526.40
527.87	36596.62
528.04	36783.86
528.21	36273.62
528.38	36795.56
528.55	36938.33
528.72	36793.22
528.89	36542.78
529.07	36622.36
529.24	36828.33
529.41	36692.58
529.58	36828.33
529.75	37130.26
529.92	37017.91
530.09	37062.38
530.26	37340.91
530.43	37378.36
530.60	36601.30
530.77	37289.42
530.94	37067.06
531.11	37221.54
531.28	37364.31
531.46	37352.61
531.63	37455.59
531.80	37684.97
531.97	38080.52
532.14	38169.46
532.31	37792.63
532.48	37935.40
532.65	37862.85
532.82	37677.94
532.99	38209.25
533.16	37872.21
533.33	38363.72
533.50	38064.13
533.67	38160.09
533.84	38323.93
534.01	38515.86
534.18	38293.50
534.35	38696.08
534.52	38653.95
534.69	38653.95
534.86	38419.89
535.03	38698.42
535.20	38773.31
535.37	38946.51
535.54	39129.08
535.71	38843.53
535.88	39147.80
536.05	39124.40
536.22	39512.92
536.38	39058.86
536.55	39136.10
536.72	39154.82
536.89	39218.02
537.06	39215.68
537.23	39365.47
537.40	39358.45
537.57	39042.48
537.74	39452.07
537.91	39332.70
538.08	39309.30
538.25	39321.00
538.42	39253.12
538.59	40027.84
538.75	39498.88
538.92	39309.30
539.09	39934.22
539.26	40161.25
539.43	39749.32
539.60	39915.50
539.77	40224.45
539.94	40432.75
540.11	40102.74
540.28	40353.18
540.44	40243.17
540.61	40315.73
540.78	39873.37
540.95	40142.53
541.12	40135.51
541.29	39976.35
541.46	40091.04
541.62	40535.74
541.79	40725.32
541.96	40367.22
542.13	40364.88
542.30	40608.29
542.47	40692.55
542.63	40568.51
542.80	41067.04
542.97	41462.59
543.14	41394.71
543.31	41151.30
543.48	40877.46
543.64	41757.50
543.81	41729.41
543.98	41507.06
544.15	41263.64
544.32	41495.36
544.48	41832.39
544.65	41677.92
544.82	41827.71
544.99	41385.35
545.16	42054.75
545.32	41841.76
545.49	42103.90
545.66	41933.04
545.83	41631.11
546.00	42312.20
546.16	42171.77
546.33	42040.70
546.50	41385.35
546.67	41963.46
546.83	41504.72
547.00	41944.74
547.17	42054.75
547.34	42321.57
547.50	41872.18
547.67	42997.98
547.84	42249.01
548.00	42359.02
548.17	42476.04
548.34	42518.17
548.51	42602.43
548.67	42972.24
548.84	42658.60
549.01	42628.18
549.18	42522.85
549.34	42777.97
549.51	43166.50
549.68	43180.54
549.84	42738.18
550.01	43070.54
550.18	42670.31
550.34	42979.26
550.51	43107.99
550.68	43152.46
550.84	42567.32
551.01	43152.46
551.18	43138.41
551.34	43440.34
551.51	43215.65
551.68	43487.15
551.84	43430.98
552.01	42658.60
552.18	43210.97
552.34	43281.19
552.51	43578.43
552.68	43154.80
552.84	43559.71
553.01	43257.78
553.18	43428.64
553.34	44086.33
553.51	43878.02
553.67	43718.87
553.84	43878.02
554.01	44027.82
554.17	43669.72
554.34	43969.30
554.51	43529.28
554.67	44353.15
554.84	43793.76
555.00	43995.05
555.17	43718.87
555.33	44570.82
555.50	43653.33
555.67	43873.34
555.83	43611.20
556.00	44247.83
556.16	44128.46
556.33	44116.76
556.50	44245.49
556.66	44184.63
556.83	44088.67
556.99	44428.05
557.16	44385.92
557.32	44306.34
557.49	44570.82
557.65	44835.30
557.82	44491.24
557.98	44694.87
558.15	44531.03
558.32	45050.63
558.48	44341.45
558.65	44589.55
558.81	44924.24
558.98	44774.45
559.14	44545.08
559.31	44722.96
559.47	44837.64
559.64	44676.15
559.80	44573.16
559.97	45127.87
560.13	44727.64
560.30	44739.34
560.46	44690.19
560.63	44877.43
560.79	45130.21
560.96	45062.33
561.12	45343.20
561.29	45233.19
561.45	45092.76
561.61	45265.96
561.78	44861.05
561.94	44800.19
562.11	44971.05
562.27	45460.23
562.44	45106.80
562.60	45123.19
562.77	45556.19
562.93	45373.63
563.10	45652.15
563.26	44854.03
563.42	45427.46
563.59	44854.03
563.75	45284.68
563.92	45296.39
564.08	45427.46
564.24	45698.96
564.41	45031.91
564.57	45755.13
564.74	45469.59
564.90	45703.64
565.07	44980.42
565.23	45275.32
565.39	45738.75
565.56	45614.70
565.72	45050.63
565.88	45591.30
566.05	45483.63
566.21	45525.76
566.38	45347.88
566.54	45612.36
566.70	46092.17
566.87	45771.52
567.03	45736.41
567.19	45364.26
567.36	45649.81
567.52	45684.92
567.68	46192.81
567.85	45818.33
568.01	46138.98
568.17	45532.78
568.34	46096.85
568.50	46131.96
568.66	45420.44
568.83	46277.07
568.99	45855.78
569.15	45504.70
569.32	45940.04
569.48	46244.30
569.64	46258.35
569.81	46185.79
569.97	45764.49
570.13	46244.30
570.30	45766.84
570.46	45766.84
570.62	45930.67
570.78	46045.36
570.95	45872.16
571.11	46227.92
571.27	45975.14
571.43	45799.60
571.60	46174.09
571.76	45963.44
571.92	46248.99
572.09	45853.44
572.25	46202.18
572.41	45858.12
572.57	46490.06
572.74	46534.53
572.90	46150.68
573.06	46546.23
573.22	46391.76
573.38	46017.27
573.55	46375.37
573.71	46696.03
573.87	46740.50
574.03	46422.19
574.20	47117.32
574.36	46422.19
574.52	46258.35
574.68	46096.85
574.84	46550.91
575.01	46380.06
575.17	46532.19
575.33	46232.60
575.49	46602.41
575.65	45989.19
575.82	46403.46
575.98	46204.52
576.14	46878.59
576.30	46461.97
576.46	46485.38
576.62	46529.85
576.79	46363.67
576.95	45705.98
577.11	46536.87
577.27	46232.60
577.43	46426.87
577.59	46286.43
577.75	46511.13
577.92	46555.60
578.08	46543.89
578.24	46291.12
578.40	46927.74
578.56	46527.51
578.72	46749.86
578.88	46487.72
579.04	46445.59
579.21	46637.51
579.37	46588.36
579.53	46801.35
579.69	46653.90
579.85	46213.88
580.01	46506.44
580.17	46312.18
580.33	46124.94
580.49	46595.38
580.65	46777.95
580.82	46581.34
580.98	46726.46
581.14	46298.14
581.30	46478.36
581.46	46260.69
581.62	46653.90
581.78	46389.42
581.94	46501.76
582.10	46492.40
582.26	46878.59
582.42	46677.30
582.58	46576.66
582.74	46700.71
582.90	46279.41
583.06	46691.35
583.22	46494.74
583.38	46536.87
583.54	46827.10
583.70	46387.08
583.86	46761.56
584.02	46972.21
584.18	47079.88
584.34	46876.25
584.50	46628.15
584.66	47220.31
584.82	46759.22
584.98	46569.64
585.14	46609.43
585.30	46511.13
585.46	46724.11
585.62	46600.07
585.78	46829.44
585.94	46169.41
586.10	46621.13
586.26	46494.74
586.42	46574.32
586.58	47054.13
586.74	46593.04
586.90	46476.02
587.06	46553.26
587.22	46841.14
587.38	46450.27
587.54	47131.37
587.70	46787.31
587.86	46658.58
588.02	47030.72
588.18	46560.28
588.34	46944.12
588.49	46766.24
588.65	46593.04
588.81	46960.51
588.97	47107.96
589.13	46791.99
589.29	46925.40
589.45	46871.57
589.61	47136.05
589.77	47026.04
589.93	47096.26
590.08	46794.33
590.24	47618.20
590.40	47089.24
590.56	47215.63
590.72	47339.68
590.88	47070.51
591.04	46696.03
591.20	47765.65
591.35	47285.84
591.51	47402.87
591.67	47676.71
591.83	47498.83
591.99	47311.59
592.15	47208.61
592.31	47138.39
592.46	47093.92
592.62	46586.02
592.78	47742.25
592.94	47536.28
593.10	47772.67
593.26	47863.96
593.41	47440.32
593.57	47643.94
593.73	47704.80
593.89	47945.87
594.05	47660.33
594.20	47690.76
594.36	47473.09
594.52	47599.47
594.68	47672.03
594.84	47524.58
594.99	47828.85
595.15	47278.82
595.31	47412.23
595.47	47379.46
595.62	47159.45
595.78	47440.32
595.94	47569.05
596.10	47543.30
596.25	47686.07
596.41	47674.37
596.57	47576.07
596.73	47725.86
596.88	47662.67
597.04	47487.13
597.20	47906.08
597.36	47711.82
597.51	47051.79
597.67	47449.68
597.83	47704.80
597.99	47447.34
598.14	47243.71
598.30	47840.55
598.46	47526.92
598.61	47786.72
598.77	48093.33
598.93	47824.17
599.09	47660.33
599.24	47969.28
599.40	47192.22
599.56	47793.74
599.71	47657.99
599.87	48301.64
600.03	47657.99
600.18	47847.57
600.34	47239.03
600.50	47833.53
600.65	47721.18
600.81	47894.38
600.97	47538.62
601.12	47693.10
601.28	47833.53
601.44	47756.29
601.59	47533.94
601.75	47571.39
601.91	48130.78
602.06	47775.02
602.22	47690.76
602.37	47533.94
602.53	47845.23
602.69	48004.39
602.84	47885.02
603.00	47484.79
603.16	47728.20
603.31	47725.86
603.47	48025.45
603.62	47789.06
603.78	47985.66
603.94	47723.52
604.09	47824.17
604.25	47332.65
604.40	47767.99
604.56	47700.12
604.71	48076.94
604.87	47753.95
605.03	47789.06
605.18	47381.80
605.34	47936.51
605.49	47449.68
605.65	47693.10
605.80	47323.29
605.96	47744.59
606.12	47772.67
606.27	47683.73
606.43	47377.12
606.58	47302.23
606.74	47941.19
606.89	47498.83
607.05	47824.17
607.20	47594.79
607.36	47405.21
607.51	47271.80
607.67	47283.50
607.82	47386.49
607.98	47466.06
608.13	47517.56
608.29	47412.23
608.44	47557.35
608.60	47473.09
608.75	47639.26
608.91	47646.29
609.06	47288.18
609.22	47732.89
609.37	47075.19
609.53	47213.29
609.68	47430.96
609.84	47562.03
609.99	47304.57
610.15	47700.12
610.30	47372.44
610.46	47206.26
610.61	47100.94
610.76	47702.46
610.92	46897.31
611.07	47365.42
611.23	47086.90
611.38	47239.03
611.54	47615.86
611.69	47496.49
611.84	47445.00
612.00	47395.85
612.15	47051.79
612.31	47084.56
612.46	46721.77
612.62	47105.62
612.77	46806.03
612.92	47271.80
613.08	47349.04
613.23	47241.37
613.39	46932.42
613.54	46747.52
613.69	47178.18
613.85	47271.80
614.00	46925.40
614.15	47297.55
614.31	46993.28
614.46	46775.61
614.62	46820.08
614.77	46993.28
614.92	46941.78
615.08	46866.89
615.23	46834.12
615.38	46967.53
615.54	47269.46
615.69	47091.58
615.84	46803.69
616.00	47381.80
616.15	46801.35
616.30	47342.02
616.46	46965.19
616.61	46571.98
616.76	47473.09
616.92	46934.76
617.07	46911.36
617.22	46520.49
617.37	46256.01
617.53	46600.07
617.68	46326.22
617.83	46726.46
617.99	46728.80
618.14	46604.75
618.29	46686.67
618.45	46522.83
618.60	46291.12
618.75	46209.20
618.90	46553.26
619.06	46270.05
619.21	46492.40
619.36	46965.19
619.51	46791.99
619.67	46305.16
619.82	46270.05
619.97	46728.80
620.12	46080.47
620.28	46045.36
620.43	46368.35
620.58	46361.33
620.73	46677.30
620.89	46153.02
621.04	46515.81
621.19	46195.15
621.34	46080.47
621.49	46431.55
621.65	46150.68
621.80	46635.17
621.95	46099.19
622.10	46239.62
622.25	46146.00
622.41	46480.70
622.56	46244.30
622.71	45839.39
622.86	46286.43
623.01	46190.47
623.16	45904.93
623.32	45663.85
623.47	45834.71
623.62	45860.46
623.77	46314.52
623.92	46043.02
624.07	46045.36
624.23	46106.21
624.38	45762.15
624.53	45862.80
624.68	46225.58
624.83	45813.65
624.98	45663.85
625.13	45750.45
625.29	45359.58
625.44	45909.61
625.59	45783.22
625.74	45893.22
625.89	45134.89
626.04	45787.90
626.19	45947.06
626.34	45331.50
626.49	45235.53
626.65	44933.60
626.80	45057.65
626.95	45038.93
627.10	45109.14
627.25	45202.77
627.40	45111.49
627.55	45401.71
627.70	45095.10
627.85	45478.95
628.00	45682.58
628.15	45064.67
628.30	44528.69
628.45	45038.93
628.60	44694.87
628.76	44643.38
628.91	45048.29
629.06	44502.95
629.21	44662.10
629.36	45017.86
629.51	45036.59
629.66	44989.78
629.81	45221.49
629.96	45216.81
630.11	44839.98
630.26	44769.77
630.41	44739.34
630.56	44762.75
630.71	44868.07
630.86	45034.25
631.01	44727.64
631.16	44486.56
631.31	44641.04
631.46	44495.92
631.61	44964.03
631.76	44591.89
631.91	44669.12
632.06	44928.92
632.21	44753.38
632.36	44940.63
632.51	44020.80
632.66	44182.29
632.81	44556.78
632.96	44102.71
633.10	44636.36
633.25	44341.45
633.40	44002.07
633.55	44556.78
633.70	44346.13
633.85	44519.33
634.00	44212.72
634.15	43959.94
634.30	43995.05
634.45	44107.40
634.60	44355.49
634.75	44069.95
634.90	44348.47
635.05	44121.44
635.19	44168.25
635.34	44102.71
635.49	44385.92
635.64	44402.30
635.79	44289.96
635.94	43835.89
636.09	43901.43
636.24	43772.70
636.39	43805.47
636.53	44044.20
636.68	43552.69
636.83	43484.81
636.98	43281.19
637.13	43487.15
637.28	44161.23
637.43	43463.75
637.57	43782.06
637.72	43540.99
637.87	43646.31
638.02	43566.73
638.17	43461.41
638.32	43899.09
638.46	43215.65
638.61	43412.26
638.76	43330.34
638.91	43543.33
639.06	43220.33
639.20	43196.93
639.35	43192.25
639.50	43098.62
639.65	43459.07
639.80	43290.55
639.94	43468.43
640.09	43360.76
640.24	43419.28
640.39	43157.14
640.54	42546.26
640.68	43229.69
640.83	43447.36
640.98	43346.72
641.13	42693.71
641.27	43721.21
641.42	42916.06
641.57	42777.97
641.72	43374.81
641.86	43241.40
642.01	42773.29
642.16	42897.34
642.31	42227.95
642.45	43220.33
642.60	42459.66
642.75	42637.54
642.90	43346.72
643.04	43152.46
643.19	42794.36
643.34	42281.78
643.48	42354.33
643.63	42497.11
643.78	42761.59
643.93	42993.30
644.07	42464.34
644.22	42920.74
644.37	42368.38
644.51	42780.31
644.66	42583.71
644.81	42689.03
644.95	42618.81
645.10	42160.07
645.25	42579.03
645.39	42263.05
645.54	42396.46
645.69	41991.55
645.83	41975.17
645.98	42174.11
646.13	42197.52
646.27	41937.72
646.42	41642.81
646.57	42541.58
646.71	42389.44
646.86	42204.54
647.00	42101.56
647.15	42143.69
647.30	41626.43
647.44	41734.09
647.59	41972.83
647.74	41975.17
647.88	42195.18
648.03	42040.70
648.17	42539.24
648.32	42347.31
648.47	41895.59
648.61	41820.69
648.76	41839.42
648.90	41961.12
649.05	41741.11
649.20	41982.19
649.34	41591.32
649.49	41902.61
649.63	42054.75
649.78	41734.09
649.92	41422.80
650.07	42000.91
650.21	42096.88
650.36	42155.39
650.51	41413.44
650.65	41743.45
650.80	41708.35
650.94	41893.25
651.09	41450.89
651.23	41247.26
651.38	41521.10
651.52	41258.96
651.67	41579.62
651.81	41361.95
651.96	41537.49
652.10	40893.84
652.25	41174.70
652.39	41137.26
652.54	41038.95
652.68	40786.18
652.83	41443.87
652.97	41116.19
653.12	41340.88
653.26	41289.39
653.41	41280.03
653.55	41219.17
653.70	41001.50
653.84	40989.80
653.99	40863.41
654.13	41270.67
654.27	41167.68
654.42	40783.83
654.56	40488.93
654.71	41137.26
654.85	40669.15
655.00	40730.00
655.14	40905.54
655.29	40987.46
655.43	41205.13
655.57	40584.89
655.72	40463.18
655.86	40802.56
656.01	40414.03
656.15	40215.08
656.30	40287.64
656.44	41074.06
656.58	40776.81
656.73	40446.80
656.87	40114.44
657.01	40236.15
657.16	40371.90
657.30	40414.03
657.45	40282.96
657.59	40257.21
657.73	39852.30
657.88	39892.09
658.02	40261.90
658.16	40231.47
658.31	40259.55
658.45	40329.77
658.60	40322.75
658.74	39971.67
658.88	40133.17
659.03	39763.36
659.17	39915.50
659.31	39538.67
659.46	39636.97
659.60	39730.59
659.74	39667.40
659.89	39629.95
660.03	39264.83
660.17	39550.37
660.32	39531.65
660.46	39461.43
660.60	39173.55
660.74	39393.56
660.89	39569.10
661.03	39112.69
661.17	39063.54
661.32	39138.44
661.46	39051.84
661.60	38873.96
661.74	38419.89
661.89	38843.53
662.03	39023.75
662.17	38672.67
662.31	38768.63
662.46	39070.56
662.60	38827.15
662.74	38499.47
662.88	38583.73
663.03	38321.59
663.17	38424.57
663.31	38085.20
663.45	38029.02
663.60	38965.24
663.74	38607.14
663.88	38869.28
664.02	38129.67
664.17	38099.24
664.31	37839.44
664.45	37902.64
664.59	38220.95
664.73	37991.58
664.88	38000.94
665.02	37511.77
665.16	37556.24
665.30	37670.92
665.44	37813.70
665.59	37340.91
665.73	37263.67
665.87	37188.77
666.01	37586.66
666.15	37415.80
666.29	37694.33
666.44	37703.69
666.58	37699.01
666.72	37146.64
666.86	37233.24
667.00	36851.73
667.14	37270.69
667.28	37015.57
667.43	37034.30
667.57	37181.75
667.71	37163.03
667.85	37038.98
667.99	37043.66
668.13	36582.57
668.27	36311.07
668.41	36856.42
668.56	35821.90
668.70	36189.36
668.84	36294.69
668.98	36252.56
669.12	36079.36
669.26	36374.27
669.40	36046.59
669.54	36013.82
669.68	35761.05
669.82	35686.15
669.96	35543.38
670.10	35262.51
670.25	35873.39
670.39	35697.85
670.53	35351.45
670.67	35622.95
670.81	35730.62
670.95	35969.35
671.09	35442.73
671.23	34941.86
671.37	35700.19
671.51	35241.45
671.65	35564.44
671.79	34813.13
671.93	34976.97
672.07	35234.42
672.21	34972.28
672.35	34607.16
672.49	34904.41
672.63	35075.27
672.77	34513.54
672.91	34368.43
673.05	34637.59
673.19	34340.34
673.33	34408.22
673.47	34213.95
673.61	33860.53
673.75	34007.98
673.89	33806.70
674.03	33921.38
674.17	33741.16
674.31	33596.05
674.45	33507.11
674.59	33495.41
674.73	33741.16
674.87	33235.61
675.01	33256.67
675.15	33333.91
675.29	32807.29
675.43	32863.46
675.56	33219.22
675.70	33294.12
675.84	32762.82
675.98	31857.03
676.12	33055.39
676.26	32776.86
676.40	32720.69
676.54	32250.24
676.68	31761.07
676.82	31789.16
676.96	32009.17
677.10	32264.28
677.23	32215.13
677.37	32091.09
677.51	32002.14
677.65	31585.53
677.79	31768.09
677.93	31779.79
678.07	31337.43
678.21	30976.99
678.34	31094.02
678.48	31037.84
678.62	30927.84
678.76	31007.42
678.90	30639.95
679.04	30569.74
679.18	31136.15
679.31	30579.10
679.45	30527.61
679.59	30450.37
679.73	29806.72
679.87	30089.93
680.00	30132.06
680.14	29570.33
680.28	30148.44
680.42	30127.38
680.56	29460.32
680.70	29455.64
680.83	29516.50
680.97	29411.17
681.11	29479.05
681.25	29064.77
681.39	28814.34
681.52	29001.58
681.66	28458.57
681.80	28299.42
681.94	28521.77
682.07	28652.84
682.21	28379.00
682.35	28266.65
682.49	28191.75
682.62	28423.47
682.76	28086.43
682.90	28308.78
683.04	27585.55
683.17	27850.03
683.31	27873.44
683.45	27480.23
683.59	27377.25
683.72	27407.67
683.86	26986.38
684.00	27194.68
684.13	27461.51
684.27	27033.19
684.41	27208.73
684.55	26724.24
684.68	27096.38
684.82	26663.38
684.96	26527.63
685.09	26387.20
685.23	26417.63
685.37	26745.30
685.50	26518.27
685.64	26298.26
685.78	26459.76
685.91	26059.52
686.05	25338.64
686.19	25333.96
686.32	25626.53
686.46	25144.38
686.60	24957.13
686.73	25212.25
686.87	25420.56
687.01	25036.71
687.14	25479.07
687.28	25062.46
687.42	24964.15
687.55	24840.11
687.69	24816.70
687.82	24636.48
687.96	24603.71
688.10	24219.86
688.23	24613.07
688.37	24662.22
688.50	24643.50
688.64	24222.20
688.78	24044.32
688.91	23641.75
689.05	23770.48
689.18	23438.12
689.32	23426.42
689.46	23494.30
689.59	23421.74
689.73	23513.02
689.86	23805.59
690.00	23583.24
690.13	23175.98
690.27	23094.07
690.41	22981.72
690.54	22738.30
690.68	22899.80
690.81	22544.04
690.95	22684.47
691.08	22478.50
691.22	22272.54
691.35	22443.40
691.49	22359.14
691.62	22059.55
691.76	22043.17
691.89	21626.55
692.03	21385.47
692.16	21113.97
692.30	21687.40
692.43	21680.38
692.57	21273.13
692.70	20957.16
692.84	21205.25
692.97	20891.62
693.11	21041.42
693.24	20570.97
693.38	20531.18
693.51	20795.66
693.65	20842.47
693.78	20411.81
693.92	20542.88
694.05	20711.40
694.19	20353.30
694.32	20514.80
694.45	20271.38
694.59	20322.87
694.72	20229.25
694.86	19819.66
694.99	19943.70
695.13	19555.18
695.26	19531.77
695.39	19351.55
695.53	19400.70
695.66	19194.73
695.80	19344.53
695.93	19756.46
696.07	19084.73
696.20	18829.61
696.33	18679.82
696.47	18850.67
696.60	19164.31
696.73	18693.86
696.87	18796.84
697.00	18712.58
697.14	18583.85
697.27	18462.15
697.40	18469.17
697.54	18038.51
697.67	17937.87
697.80	18068.94
697.94	18033.83
698.07	17916.80
698.21	17703.81
698.34	17914.46
698.47	17380.82
698.61	17233.36
698.74	17399.54
698.87	17654.66
699.01	17020.38
699.14	17254.43
699.27	17345.71
699.40	17053.14
699.54	16954.84
699.67	16830.79
699.80	16973.56
699.94	16657.59
700.07	16477.37
700.20	16709.08
700.34	16517.16
700.47	16631.85
700.60	16446.94
700.73	16425.88
700.87	16271.40
701.00	16023.31
701.13	16002.24
701.26	15676.91
701.40	16088.84
701.53	15857.13
701.66	15758.83
701.79	15716.70
701.93	15489.67
702.06	15199.44
702.19	15602.01
702.32	15342.21
702.46	15307.10
702.59	15332.85
702.72	15372.64
702.85	15211.14
702.99	15239.23
703.12	14974.75
703.25	14939.64
703.38	14614.30
703.51	14740.69
703.65	14366.21
703.78	14438.76
703.91	14431.74
704.04	14345.14
704.17	14420.04
704.31	14375.57
704.44	14120.45
704.57	14211.73
704.70	13921.51
704.83	13937.89
704.96	13731.92
705.10	13678.09
705.23	13710.86
>>>>>End Processed Spectral Data<<<<<
