SpectraSuite Data File
++++++++++++++++++++++++++++++++++++
Date: Fri Oct 25 10:43:14 EDT 2013
User: price-jones
Dark Spectrum Present: No
Reference Spectrum Present: No
Number of Sampled Component Spectra: 1
Spectrometers: USB2+H05261
Integration Time (usec): 100000 (USB2+H05261)
Spectra Averaged: 1 (USB2+H05261)
Boxcar Smoothing: 0 (USB2+H05261)
Correct for Electrical Dark: No (USB2+H05261)
Strobe/Lamp Enabled: No (USB2+H05261)
Correct for Detector Non-linearity: No (USB2+H05261)
Correct for Stray Light: No (USB2+H05261)
Number of Pixels in Processed Spectrum: 2048
>>>>>Begin Processed Spectral Data<<<<<
365.73	140.43
365.92	140.43
366.12	140.43
366.32	0.00
366.52	28.09
366.72	9.36
366.91	0.00
367.11	30.43
367.31	25.75
367.51	0.00
367.70	0.00
367.90	16.38
368.10	21.06
368.30	0.00
368.49	0.00
368.69	65.54
368.89	28.09
369.09	49.15
369.28	51.49
369.48	30.43
369.68	58.51
369.87	44.47
370.07	44.47
370.27	149.79
370.47	191.92
370.66	404.91
370.86	461.09
371.06	540.66
371.25	449.38
371.45	465.77
371.65	421.30
371.84	475.13
372.04	447.04
372.24	475.13
372.44	507.90
372.63	524.28
372.83	507.90
373.03	514.92
373.22	475.13
373.42	531.30
373.62	575.77
373.81	580.45
374.01	550.03
374.21	648.33
374.40	557.05
374.60	524.28
374.79	587.47
374.99	587.47
375.19	573.43
375.38	601.52
375.58	557.05
375.78	585.13
375.97	564.07
376.17	678.76
376.37	500.87
376.56	601.52
376.76	554.71
376.95	573.43
377.15	678.76
377.35	645.99
377.54	664.71
377.74	587.47
377.93	638.97
378.13	702.16
378.33	699.82
378.52	631.94
378.72	648.33
378.91	634.29
379.11	582.79
379.31	627.26
379.50	596.84
379.70	706.84
379.89	671.73
380.09	737.27
380.28	638.97
380.48	713.86
380.68	643.65
380.87	751.31
381.07	730.25
381.26	718.54
381.46	674.07
381.65	676.41
381.85	734.93
382.04	674.07
382.24	739.61
382.43	683.44
382.63	753.65
382.83	699.82
383.02	779.40
383.22	826.21
383.41	718.54
383.61	718.54
383.80	755.99
384.00	779.40
384.19	741.95
384.39	779.40
384.58	849.61
384.78	800.46
384.97	748.97
385.17	786.42
385.36	837.91
385.56	819.19
385.75	753.65
385.95	767.70
386.14	847.27
386.34	732.59
386.53	861.32
386.72	840.25
386.92	917.49
387.11	854.30
387.31	901.11
387.50	828.55
387.70	793.44
387.89	826.21
388.09	884.72
388.28	901.11
388.48	1039.20
388.67	896.43
388.86	917.49
389.06	987.71
389.25	990.05
389.45	1020.47
389.64	1011.11
389.84	1090.69
390.03	964.30
390.22	987.71
390.42	997.07
390.61	1041.54
390.81	1034.52
391.00	1013.45
391.19	1090.69
391.39	1013.45
391.58	1055.58
391.78	1071.97
391.97	1039.20
392.16	1067.28
392.36	983.02
392.55	1025.15
392.75	971.32
392.94	1025.15
393.13	1001.75
393.33	980.68
393.52	1088.35
393.71	1107.07
393.91	1008.77
394.10	1137.50
394.29	1149.20
394.49	1167.93
394.68	1149.20
394.88	1200.69
395.07	1303.68
395.26	1273.25
395.46	1170.27
395.65	1273.25
395.84	1219.42
396.04	1170.27
396.23	1100.05
396.42	1109.41
396.62	1188.99
396.81	1207.72
397.00	1214.74
397.19	1200.69
397.39	1289.64
397.58	1380.92
397.77	1409.00
397.97	1348.15
398.16	1411.34
398.35	1462.83
398.55	1355.17
398.74	1413.68
398.93	1451.13
399.12	1406.66
399.32	1481.56
399.51	1514.33
399.70	1502.62
399.90	1598.59
400.09	1572.84
400.28	1526.03
400.47	1734.34
400.67	1640.72
400.86	1678.16
401.05	1617.31
401.24	1680.50
401.44	1746.04
401.63	1636.03
401.82	1727.32
402.01	1631.35
402.21	1778.81
402.40	1781.15
402.59	1689.87
402.78	1678.16
402.97	1785.83
403.17	1851.36
403.36	1816.26
403.55	1884.13
403.74	1806.89
403.93	1816.26
404.13	1888.81
404.32	1881.79
404.51	1895.83
404.70	1961.37
404.89	1870.09
405.09	1968.39
405.28	2001.16
405.47	1956.69
405.66	1935.62
405.85	1987.11
406.05	1937.96
406.24	2019.88
406.43	1991.80
406.62	2083.08
406.81	2230.53
407.00	2132.23
407.20	2010.52
407.39	2183.72
407.58	2125.21
407.77	2155.63
407.96	2085.42
408.15	2195.42
408.34	2244.57
408.54	2239.89
408.73	2265.64
408.92	2312.45
409.11	2303.09
409.30	2328.83
409.49	2310.11
409.68	2251.60
409.87	2275.00
410.07	2328.83
410.26	2396.71
410.45	2406.07
410.64	2368.62
410.83	2495.01
411.02	2537.14
411.21	2689.28
411.40	2567.57
411.59	2677.57
411.78	2623.74
411.98	2619.06
412.17	2722.04
412.36	2656.51
412.55	2593.31
412.74	2708.00
412.93	2708.00
413.12	2785.24
413.31	2883.54
413.50	2771.19
413.69	2691.62
413.88	2799.28
414.07	2892.90
414.26	2918.65
414.45	2909.29
414.64	2986.52
414.83	3108.23
415.02	3021.63
415.22	3021.63
415.41	2998.23
415.60	3131.64
415.79	3288.45
415.98	3314.20
416.17	3323.56
416.36	3255.69
416.55	3162.06
416.74	3199.51
416.93	3241.64
417.12	3204.19
417.31	3295.47
417.50	3260.37
417.69	3454.63
417.88	3417.18
418.07	3379.73
418.26	3361.01
418.45	3407.82
418.64	3613.79
418.83	3625.49
419.02	3543.57
419.21	3662.94
419.39	3733.15
419.58	3475.70
419.77	3438.25
419.96	3574.00
420.15	3662.94
420.34	3681.66
420.53	3588.04
420.72	3637.19
420.91	3691.02
421.10	3721.45
421.29	3932.10
421.48	3770.60
421.67	3840.82
421.86	3665.28
422.05	3810.39
422.24	3737.84
422.43	3808.05
422.61	3882.95
422.80	3950.82
422.99	3772.94
423.18	3861.88
423.37	4084.23
423.56	3925.08
423.75	3946.14
423.94	3775.28
424.13	3723.79
424.32	3695.71
424.50	3885.29
424.69	4051.47
424.88	3939.12
425.07	3985.93
425.26	3892.31
425.45	3861.88
425.64	3847.84
425.83	4028.06
426.01	4007.00
426.20	4007.00
426.39	3906.35
426.58	3819.75
426.77	3908.69
426.96	4039.76
427.15	3988.27
427.33	4051.47
427.52	3964.87
427.71	4161.47
427.90	4095.94
428.09	4086.58
428.28	4124.02
428.46	4060.83
428.65	4184.88
428.84	4348.72
429.03	4180.20
429.22	4138.07
429.40	4119.34
429.59	4255.09
429.78	3920.40
429.97	3847.84
430.16	3997.64
430.34	4051.47
430.53	4306.59
430.72	4147.43
430.91	4173.18
431.10	4334.67
431.28	4484.47
431.47	4620.22
431.66	4685.75
431.85	4587.45
432.03	4681.07
432.22	4482.13
432.41	4596.81
432.60	4587.45
432.79	4746.61
432.97	4741.93
433.16	4582.77
433.35	4727.88
433.54	4692.77
433.72	4617.88
433.91	4631.92
434.10	4615.54
434.28	4709.16
434.47	4713.84
434.66	4910.44
434.85	4896.40
435.03	4858.95
435.22	4807.46
435.41	5144.50
435.59	4966.62
435.78	5137.48
435.97	5076.62
436.16	5249.82
436.34	4931.51
436.53	4990.02
436.72	5301.31
436.90	5231.10
437.09	5252.16
437.28	4980.66
437.46	5221.74
437.65	5179.61
437.84	5163.22
438.02	5235.78
438.21	5114.07
438.40	5214.71
438.58	5329.40
438.77	5434.72
438.96	5493.24
439.14	5523.66
439.33	5469.83
439.52	5582.18
439.70	5593.88
439.89	5696.86
440.08	5476.85
440.26	5762.40
440.45	5626.65
440.63	5825.59
440.82	5966.03
441.01	5804.53
441.19	6078.37
441.38	6113.48
441.57	6143.91
441.75	6181.35
441.94	6324.13
442.12	6340.51
442.31	6218.80
442.50	6399.02
442.68	6289.02
442.87	6169.65
443.05	6284.34
443.24	6392.00
443.43	6342.85
443.61	6567.54
443.80	6579.25
443.98	6438.81
444.17	6263.27
444.35	6436.47
444.54	6476.26
444.73	6609.67
444.91	6457.54
445.10	6436.47
445.28	6506.69
445.47	6296.04
445.65	6429.45
445.84	6352.21
446.02	6607.33
446.21	6586.27
446.39	6574.56
446.58	6490.31
446.77	6670.53
446.95	6604.99
447.14	6686.91
447.32	6895.22
447.51	6546.48
447.69	6810.96
447.88	6700.95
448.06	6672.87
448.25	6754.79
448.43	6689.25
448.62	6651.80
448.80	6740.74
448.99	6717.34
449.17	6937.35
449.36	6764.15
449.54	6782.87
449.73	6913.94
449.91	7124.59
450.10	7260.34
450.28	7225.23
450.46	7091.82
450.65	7281.41
450.83	7227.57
451.02	7122.25
451.20	7339.92
451.39	7129.27
451.57	7187.79
451.76	7061.40
451.94	7227.57
452.13	7272.04
452.31	7267.36
452.49	6995.86
452.68	7049.69
452.86	7014.59
453.05	7162.04
453.23	7321.20
453.42	7229.91
453.60	7351.62
453.78	7447.58
453.97	7255.66
454.15	7339.92
454.34	7438.22
454.52	7517.80
454.70	7454.61
454.89	7655.89
455.07	7611.42
455.26	7531.84
455.44	7777.60
455.62	7726.11
455.81	7602.06
455.99	7915.69
456.17	7662.91
456.36	7667.60
456.54	7908.67
456.73	7903.99
456.91	8187.19
457.09	8095.91
457.28	8257.41
457.46	8042.08
457.64	8255.07
457.83	8166.13
458.01	8039.74
458.19	8322.94
458.38	8056.12
458.56	8229.32
458.74	8131.02
458.93	8189.53
459.11	8133.36
459.29	8456.36
459.48	8526.57
459.66	8264.43
459.84	8360.39
460.03	8306.56
460.21	8320.60
460.39	8393.16
460.57	8290.18
460.76	8542.96
460.94	8671.68
461.12	8479.76
461.31	8643.60
461.49	8669.34
461.67	8793.39
461.85	8667.00
462.04	8821.48
462.22	9270.86
462.40	8947.87
462.59	8858.93
462.77	8875.31
462.95	9118.73
463.13	8650.62
463.32	8833.18
463.50	8917.44
463.68	8966.59
463.86	8908.08
464.05	8774.67
464.23	8966.59
464.41	8879.99
464.59	8786.37
464.78	9219.37
464.96	9156.18
465.14	9057.87
465.32	9249.80
465.50	9259.16
465.69	9334.06
465.87	9057.87
466.05	9263.84
466.23	8987.66
466.41	9090.64
466.60	9493.21
466.78	9006.38
466.96	9310.65
467.14	9217.03
467.32	9177.24
467.51	9521.30
467.69	9114.05
467.87	9430.02
468.05	9488.53
468.23	9441.72
468.41	9423.00
468.60	9385.55
468.78	9628.96
468.96	9472.15
469.14	9568.11
469.32	9701.52
469.50	9408.95
469.69	9554.07
469.87	9696.84
470.05	9949.62
470.23	10052.60
470.41	9745.99
470.59	9788.12
470.77	9734.29
470.95	9921.53
471.14	9951.96
471.32	9977.70
471.50	10092.39
471.68	10239.84
471.86	10289.00
472.04	10345.17
472.22	10621.35
472.40	10209.42
472.58	10244.52
472.77	10326.44
472.95	10328.78
473.13	10984.13
473.31	10466.88
473.49	10480.92
473.67	10445.81
473.85	10647.10
474.03	11110.52
474.21	10916.26
474.39	10970.09
474.57	11183.08
474.75	11176.06
474.93	11138.61
475.12	11089.46
475.30	11227.55
475.48	11208.83
475.66	11428.84
475.84	11183.08
476.02	11339.90
476.20	11468.62
476.38	11714.38
476.56	11758.85
476.74	11817.36
476.92	11847.79
477.10	11786.94
477.28	12189.51
477.46	12123.98
477.64	12194.19
477.82	12259.73
478.00	12521.87
478.18	12336.96
478.36	12519.53
478.54	12472.71
478.72	12905.71
478.90	12891.67
479.08	13078.91
479.26	13111.68
479.44	13142.11
479.62	13125.72
479.80	13055.51
479.98	13242.75
480.16	13624.26
480.34	13481.49
480.52	13528.30
480.70	13710.86
480.88	13556.38
481.06	13783.41
481.24	13977.68
481.41	14359.19
481.59	14300.67
481.77	14338.12
481.95	14270.25
482.13	14494.94
482.31	14555.79
482.49	14698.56
482.67	14855.38
482.85	14949.00
483.03	15054.33
483.21	15124.54
483.39	15468.60
483.57	14899.85
483.74	15370.30
483.92	15494.35
484.10	15414.77
484.28	15712.02
484.46	16053.73
484.64	16233.96
484.82	15978.84
485.00	16170.76
485.18	16208.21
485.35	16386.09
485.53	15957.77
485.71	16065.44
485.89	16430.56
486.07	16397.79
486.25	16341.62
486.43	16631.85
486.61	17163.15
486.78	17041.44
486.96	17364.43
487.14	17556.36
487.32	17490.82
487.50	18111.07
487.68	18064.25
487.85	18338.10
488.03	18555.77
488.21	18448.10
488.39	18410.65
488.57	18466.83
488.75	18733.65
488.92	18841.31
489.10	19021.53
489.28	19332.82
489.46	19440.49
489.64	19681.56
489.81	20030.30
489.99	20044.35
490.17	20173.08
490.35	20236.27
490.53	20109.88
490.70	20409.47
490.88	20589.69
491.06	20601.40
491.24	20634.16
491.41	20592.03
491.59	20622.46
491.77	20627.14
491.95	21020.35
492.13	21074.18
492.30	21495.48
492.48	21884.01
492.66	21827.84
492.84	21834.86
493.01	21912.10
493.19	21916.78
493.37	21984.65
493.54	22328.71
493.72	22331.05
493.90	22300.62
494.08	22988.74
494.25	23180.67
494.43	23173.64
494.61	23321.10
494.79	23335.14
494.96	23482.59
495.14	23484.94
495.32	23419.40
495.49	23417.06
495.67	23782.18
495.85	23939.00
496.02	23836.02
496.20	24144.97
496.38	24301.78
496.55	24685.63
496.73	25191.19
496.91	24556.90
497.09	25186.50
497.26	24900.96
497.44	24788.61
497.62	25289.49
497.79	25565.67
497.97	25277.79
498.14	25102.25
498.32	25654.61
498.50	25465.03
498.67	26031.44
498.85	26197.62
499.03	25778.66
499.20	26113.36
499.38	26024.42
499.56	26492.52
499.73	26377.84
499.91	26541.68
500.08	26726.58
500.26	26398.90
500.44	26544.02
500.61	26464.44
500.79	26387.20
500.97	26881.05
501.14	27026.17
501.32	27051.91
501.49	26998.08
501.67	26883.39
501.84	27304.69
502.02	27751.73
502.20	27536.40
502.37	27803.22
502.55	27402.99
502.72	27756.41
502.90	27793.86
503.07	27541.08
503.25	27908.55
503.43	28226.86
503.60	28158.99
503.78	28116.86
503.95	27948.34
504.13	28297.08
504.30	28526.45
504.48	28636.45
504.65	29001.58
504.83	28882.21
505.01	28861.15
505.18	28929.02
505.36	29296.49
505.53	29268.40
505.71	29474.37
505.88	29659.27
506.06	29310.53
506.23	29701.40
506.41	29284.78
506.58	29675.65
506.76	29720.12
506.93	29935.45
507.11	29809.06
507.28	29820.77
507.46	29394.79
507.63	29731.83
507.81	30047.80
507.98	30000.99
508.16	30239.72
508.33	30883.37
508.50	30595.48
508.68	30541.65
508.85	31042.53
509.03	30827.20
509.20	30993.37
509.38	31056.57
509.55	31213.38
509.73	31253.17
509.90	31047.21
510.08	31370.20
510.25	31349.14
510.42	31606.59
510.60	31529.36
510.77	32023.21
510.95	31913.20
511.12	31494.25
511.30	31758.73
511.47	32315.78
511.64	31997.46
511.82	31955.33
511.99	31644.04
512.17	32304.07
512.34	32287.69
512.51	32275.99
512.69	32519.40
512.86	32446.85
513.04	32594.30
513.21	32638.77
513.38	32479.61
513.56	32723.03
513.73	32374.29
513.90	33069.43
514.08	32868.14
514.25	33350.29
514.43	33242.63
514.60	33249.65
514.77	33462.64
514.95	33146.67
515.12	33420.51
515.29	33703.71
515.47	33694.35
515.64	34181.18
515.81	33640.52
515.99	33532.86
516.16	33413.49
516.33	33574.98
516.51	33631.16
516.68	33322.21
516.85	32863.46
517.03	33195.82
517.20	33369.02
517.37	34319.28
517.54	34478.43
517.72	34019.69
517.89	33619.46
518.06	33893.30
518.24	33991.60
518.41	34148.42
518.58	34398.85
518.75	34326.30
518.93	34422.26
519.10	34616.52
519.27	34881.00
519.45	34637.59
519.62	35178.25
519.79	35459.12
519.96	35365.49
520.14	35232.08
520.31	34831.85
520.48	35264.85
520.65	35351.45
520.83	35522.31
521.00	35592.53
521.17	35988.08
521.34	35812.54
521.52	35913.18
521.69	36037.23
521.86	35962.33
522.03	36107.44
522.20	36245.54
522.38	36107.44
522.55	36222.13
522.72	36121.49
522.89	36369.58
523.07	36177.66
523.24	36582.57
523.41	37127.92
523.58	36622.36
523.75	36999.19
523.92	36861.10
524.10	36940.68
524.27	37212.18
524.44	36678.54
524.61	37420.48
524.78	37479.00
524.96	37244.94
525.13	36828.33
525.30	37167.71
525.47	37441.55
525.64	37621.77
525.81	37205.16
525.98	37361.97
526.16	37144.30
526.33	36870.46
526.50	37450.91
526.67	37127.92
526.84	37333.89
527.01	37387.72
527.18	37518.79
527.36	37816.04
527.53	38218.61
527.70	38157.75
527.87	38162.43
528.04	38110.94
528.21	38029.02
528.38	38593.09
528.55	38965.24
528.72	38300.53
528.89	38937.15
529.07	38508.83
529.24	38293.50
529.41	38553.30
529.58	38817.78
529.75	39103.33
529.92	38712.46
530.09	38925.45
530.26	38782.68
530.43	38824.81
530.60	39028.43
530.77	39325.68
530.94	39175.89
531.11	38871.62
531.28	38906.73
531.46	39267.17
531.63	39541.01
531.80	39065.88
531.97	39215.68
532.14	39105.67
532.31	38988.64
532.48	39173.55
532.65	39297.59
532.82	39459.09
532.99	39636.97
533.16	39372.49
533.33	39901.45
533.50	39943.58
533.67	39536.33
533.84	39842.94
534.01	39910.82
534.18	39704.85
534.35	40177.64
534.52	39573.78
534.69	40306.37
534.86	40495.95
535.03	40088.70
535.20	40505.31
535.37	40802.56
535.54	40942.99
535.71	40746.39
535.88	40617.66
536.05	40292.32
536.22	40727.66
536.38	40673.83
536.55	40596.59
536.72	40472.54
536.89	40395.31
537.06	40648.08
537.23	40959.38
537.40	40659.79
537.57	41111.51
537.74	40919.59
537.91	41439.18
538.08	41181.73
538.25	40800.22
538.42	40982.78
538.59	41003.85
538.75	40968.74
538.92	41308.11
539.09	41453.23
539.26	40858.73
539.43	41375.99
539.60	41144.28
539.77	41057.68
539.94	41303.43
540.11	40950.01
540.28	41067.04
540.44	41083.42
540.61	41427.48
540.78	41048.32
540.95	41392.37
541.12	41265.99
541.29	41432.16
541.46	41605.36
541.62	41518.76
541.79	41574.94
541.96	41469.61
542.13	41708.35
542.30	41603.02
542.47	41984.53
542.63	41441.53
542.80	41773.88
542.97	42539.24
543.14	42752.23
543.31	42232.63
543.48	42026.66
543.64	42892.66
543.81	42550.94
543.98	42146.03
544.15	42663.28
544.32	42541.58
544.48	42883.30
544.65	42731.16
544.82	42733.50
544.99	42670.31
545.16	43126.71
545.32	42707.76
545.49	43143.09
545.66	43232.04
545.83	42866.91
546.00	43082.24
546.16	42773.29
546.33	43140.75
546.50	42618.81
546.67	43096.28
546.83	42548.60
547.00	43126.71
547.17	43012.02
547.34	43374.81
547.50	43330.34
547.67	43215.65
547.84	43440.34
548.00	43723.55
548.17	43246.08
548.34	43615.88
548.51	43452.05
548.67	43332.68
548.84	43129.05
549.01	43398.21
549.18	43330.34
549.34	43512.90
549.51	43423.96
549.68	43901.43
549.84	43594.82
550.01	43842.92
550.18	43470.77
550.34	43583.12
550.51	43510.56
550.68	43859.30
550.84	43407.58
551.01	43943.56
551.18	43667.37
551.34	43585.46
551.51	43995.05
551.68	44135.48
551.84	43646.31
552.01	43847.60
552.18	43990.37
552.34	43622.90
552.51	44016.11
552.68	43391.19
552.84	44098.03
553.01	44385.92
553.18	44545.08
553.34	43854.62
553.51	44327.41
553.67	44142.50
553.84	44774.45
554.01	44706.57
554.17	44545.08
554.34	44575.50
554.51	44549.76
554.67	44343.79
554.84	44533.37
555.00	44376.56
555.17	44282.94
555.33	44465.50
555.50	44662.10
555.67	44561.46
555.83	44296.98
556.00	44467.84
556.16	44903.18
556.33	44416.35
556.50	44378.90
556.66	44666.78
556.83	44624.65
556.99	44439.75
557.16	44533.37
557.32	44477.20
557.49	45102.12
557.65	43941.22
557.82	44830.62
557.98	44299.32
558.15	45057.65
558.32	44830.62
558.48	44711.25
558.65	44694.87
558.81	44671.46
558.98	44278.25
559.14	45015.52
559.31	44844.66
559.47	44877.43
559.64	45006.16
559.80	45003.82
559.97	45083.40
560.13	45127.87
560.30	44914.88
560.46	44987.44
560.63	45474.27
560.79	45408.73
560.96	45294.05
561.12	45467.25
561.29	44968.71
561.45	45301.07
561.61	45195.74
561.78	45170.00
561.94	44938.29
562.11	44992.12
562.27	45111.49
562.44	45186.38
562.60	45074.04
562.77	45258.94
562.93	45223.83
563.10	45338.52
563.26	44872.75
563.42	45584.27
563.59	45404.05
563.75	45621.72
563.92	45219.15
564.08	44814.24
564.24	45858.12
564.41	45179.36
564.57	45202.77
564.74	45420.44
564.90	45258.94
565.07	45521.08
565.23	45586.61
565.39	45240.21
565.56	45586.61
565.72	45130.21
565.88	45507.04
566.05	45296.39
566.21	45507.04
566.38	45097.44
566.54	45624.06
566.70	45492.99
566.87	45607.68
567.03	45844.07
567.19	45698.96
567.36	45170.00
567.52	45741.09
567.68	45397.03
567.85	45476.61
568.01	45773.86
568.17	45914.29
568.34	45947.06
568.50	45092.76
568.66	45701.30
568.83	45478.95
568.99	45881.52
569.15	45504.70
569.32	45591.30
569.48	45696.62
569.64	45469.59
569.81	46012.59
569.97	45083.40
570.13	45612.36
570.30	45476.61
570.46	45373.63
570.62	45322.13
570.78	45284.68
570.95	45132.55
571.11	45523.42
571.27	45418.10
571.43	45490.65
571.60	45923.65
571.76	45755.13
571.92	45827.69
572.09	45710.66
572.25	45900.25
572.41	46066.42
572.57	45827.69
572.74	46120.26
572.90	45717.68
573.06	45928.33
573.22	45612.36
573.38	45366.60
573.55	45331.50
573.71	45977.48
573.87	45970.46
574.03	45624.06
574.20	45858.12
574.36	45846.41
574.52	45572.57
574.68	45228.51
574.84	45500.01
575.01	45766.84
575.17	45200.43
575.33	45553.85
575.49	45511.72
575.65	46026.63
575.82	45542.14
575.98	45734.07
576.14	46272.39
576.30	45853.44
576.46	45741.09
576.62	45509.38
576.79	45848.75
576.95	45574.91
577.11	46043.02
577.27	45837.05
577.43	45380.65
577.59	45874.50
577.75	45853.44
577.92	45361.92
578.08	45378.31
578.24	45469.59
578.40	45687.26
578.56	46028.98
578.72	45399.37
578.88	46487.72
579.04	46101.53
579.21	45448.52
579.37	45567.89
579.53	45710.66
579.69	45483.63
579.85	45991.53
580.01	45647.47
580.17	45755.13
580.33	46047.70
580.49	45563.21
580.65	45682.58
580.82	45652.15
580.98	45680.24
581.14	45624.06
581.30	45886.20
581.46	45808.96
581.62	45745.77
581.78	45659.17
581.94	46176.43
582.10	46057.06
582.26	45918.97
582.42	45888.54
582.58	45785.56
582.74	45722.37
582.90	46021.95
583.06	46253.67
583.22	45736.41
583.38	46281.75
583.54	46342.61
583.70	45872.16
583.86	45769.18
584.02	45830.03
584.18	46197.49
584.34	46019.61
584.50	45918.97
584.66	45738.75
584.82	46059.40
584.98	46094.51
585.14	46106.21
585.30	45558.53
585.46	45797.26
585.62	45579.59
585.78	45930.67
585.94	45406.39
586.10	46019.61
586.26	45588.95
586.42	45673.21
586.58	46157.70
586.74	45867.48
586.90	45902.59
587.06	45879.18
587.22	46040.68
587.38	45918.97
587.54	45986.85
587.70	45982.16
587.86	45656.83
588.02	46026.63
588.18	46522.83
588.34	45427.46
588.49	45340.86
588.65	45411.07
588.81	45532.78
588.97	45490.65
589.13	45436.82
589.29	45090.42
589.45	45713.00
589.61	45619.38
589.77	45565.55
589.93	45682.58
590.08	46117.92
590.24	45610.02
590.40	46078.13
590.56	46103.87
590.72	45874.50
590.88	45970.46
591.04	46138.98
591.20	46354.31
591.35	46344.95
591.51	46557.94
591.67	46146.00
591.83	45970.46
591.99	45881.52
592.15	45731.73
592.31	46150.68
592.46	45982.16
592.62	46047.70
592.78	45965.78
592.94	46071.10
593.10	46260.69
593.26	46309.84
593.41	45972.80
593.57	45698.96
593.73	45769.18
593.89	45979.82
594.05	46234.94
594.20	46375.37
594.36	46337.93
594.52	45645.13
594.68	46387.08
594.84	46005.57
594.99	46040.68
595.15	45979.82
595.31	45790.24
595.47	46012.59
595.62	46181.11
595.78	46270.05
595.94	46258.35
596.10	46457.29
596.25	46136.64
596.41	46160.05
596.57	45701.30
596.73	46043.02
596.88	45755.13
597.04	45549.17
597.20	45617.04
597.36	45572.57
597.51	46131.96
597.67	45862.80
597.83	46045.36
597.99	46696.03
598.14	46335.59
598.30	46181.11
598.46	46724.11
598.61	46162.39
598.77	45324.47
598.93	46143.66
599.09	46078.13
599.24	46485.38
599.40	46206.86
599.56	46239.62
599.71	46040.68
599.87	46674.96
600.03	46265.37
600.18	45893.22
600.34	46092.17
600.50	46052.38
600.65	46003.23
600.81	46146.00
600.97	46162.39
601.12	46319.20
601.28	46110.89
601.44	46021.95
601.59	45977.48
601.75	45867.48
601.91	45813.65
602.06	46075.79
602.22	45713.00
602.37	46307.50
602.53	46157.70
602.69	46263.03
602.84	45783.22
603.00	45895.56
603.16	46213.88
603.31	45944.72
603.47	46078.13
603.62	45914.29
603.78	46534.53
603.94	45883.86
604.09	46036.00
604.25	45993.87
604.40	46110.89
604.56	46021.95
604.71	46171.75
604.87	45333.84
605.03	46241.96
605.18	45668.53
605.34	45968.12
605.49	45785.56
605.65	45797.26
605.80	45851.09
605.96	46213.88
606.12	45869.82
606.27	46024.29
606.43	45532.78
606.58	45977.48
606.74	45495.33
606.89	45432.14
607.05	46323.88
607.20	46347.29
607.36	46473.68
607.51	46284.09
607.67	46071.10
607.82	45392.35
607.98	45626.40
608.13	45698.96
608.29	45542.14
608.44	45619.38
608.60	45249.58
608.75	45897.91
608.91	45441.50
609.06	45202.77
609.22	45722.37
609.37	45450.86
609.53	45801.94
609.68	44980.42
609.84	45172.34
609.99	45296.39
610.15	45364.26
610.30	45282.34
610.46	45195.74
610.61	45755.13
610.76	45345.54
610.92	45404.05
611.07	45572.57
611.23	45195.74
611.38	45776.20
611.54	45172.34
611.69	45024.89
611.84	45010.84
612.00	45455.54
612.15	45200.43
612.31	45418.10
612.46	45170.00
612.62	45361.92
612.77	45467.25
612.92	44982.76
613.08	44882.11
613.23	44973.39
613.39	44814.24
613.54	44332.09
613.69	45237.87
613.85	44488.90
614.00	44844.66
614.15	45029.57
614.31	44753.38
614.46	45174.68
614.62	44751.04
614.77	44547.42
614.92	45001.48
615.08	44678.49
615.23	44570.82
615.38	44907.86
615.54	44516.99
615.69	44652.74
615.84	44540.39
616.00	44423.37
616.15	44423.37
616.30	45043.61
616.46	44495.92
616.61	44540.39
616.76	44713.59
616.92	44067.61
617.07	44350.81
617.22	44119.10
617.37	44465.50
617.53	44746.36
617.68	44900.84
617.83	44240.81
617.99	44418.69
618.14	44126.12
618.29	44362.51
618.45	44280.60
618.60	44025.48
618.75	43992.71
618.90	44023.14
619.06	44238.47
619.21	44549.76
619.36	44854.03
619.51	43952.92
619.67	44006.75
619.82	43938.88
619.97	43763.34
620.12	43344.38
620.28	43217.99
620.43	43721.21
620.58	44027.82
620.73	43643.97
620.89	44130.80
621.04	43629.93
621.19	43543.33
621.34	43648.65
621.49	43358.42
621.65	43590.14
621.80	43805.47
621.95	43648.65
622.10	43976.33
622.25	43332.68
622.41	43718.87
622.56	43299.91
622.71	43667.37
622.86	43522.26
623.01	43438.00
623.16	43423.96
623.32	43328.00
623.47	43398.21
623.62	43761.00
623.77	43166.50
623.92	43058.84
624.07	43117.35
624.23	43145.44
624.38	43517.58
624.53	42972.24
624.68	42932.45
624.83	43304.59
624.98	43353.74
625.13	42873.93
625.29	43138.41
625.44	43503.54
625.59	42941.81
625.74	42930.11
625.89	42794.36
626.04	42817.76
626.19	42777.97
626.34	42782.65
626.49	42775.63
626.65	42649.24
626.80	43091.60
626.95	42674.99
627.10	42539.24
627.25	42614.13
627.40	42564.98
627.55	42515.83
627.70	42665.63
627.85	42314.55
628.00	42923.08
628.15	42712.44
628.30	42239.65
628.45	42794.36
628.60	42110.92
628.76	42038.36
628.91	42312.20
629.06	41937.72
629.21	42162.41
629.36	41989.21
629.51	41998.57
629.66	41949.42
629.81	41876.86
629.96	41902.61
630.11	41858.14
630.26	41972.83
630.41	42108.58
630.56	42101.56
630.71	41961.12
630.86	41570.25
631.01	41755.16
631.16	41813.67
631.31	41670.90
631.46	41577.28
631.61	42272.42
631.76	41858.14
631.91	42024.32
632.06	42026.66
632.21	41923.68
632.36	41628.77
632.51	41493.02
632.66	41661.54
632.81	41696.64
632.96	41600.68
633.10	41317.48
633.25	41460.25
633.40	41537.49
633.55	41778.56
633.70	41600.68
633.85	41436.84
634.00	41565.57
634.15	41212.15
634.30	41139.60
634.45	40919.59
634.60	41544.51
634.75	40940.65
634.90	40732.34
635.05	40982.78
635.19	41242.58
635.34	41352.58
635.49	41240.24
635.64	40854.05
635.79	40999.16
635.94	40945.33
636.09	41076.40
636.24	40840.01
636.39	40706.60
636.53	40868.09
636.68	40521.69
636.83	40760.43
636.98	41242.58
637.13	40739.36
637.28	41193.43
637.43	41099.81
637.57	40971.08
637.72	40648.08
637.87	40737.02
638.02	40856.39
638.17	40928.95
638.32	40868.09
638.46	40367.22
638.61	40437.44
638.76	40236.15
638.91	40332.11
639.06	40491.27
639.20	41031.93
639.35	40418.71
639.50	40374.24
639.65	40140.19
639.80	40360.20
639.94	40416.37
640.09	40362.54
640.24	39901.45
640.39	40463.18
640.54	40149.55
640.68	39959.97
640.83	40065.29
640.98	39983.37
641.13	39515.26
641.27	40226.79
641.42	40030.18
641.57	40142.53
641.72	40011.46
641.86	40196.36
642.01	39601.86
642.16	39812.51
642.31	40004.44
642.45	39817.19
642.60	39700.17
642.75	39948.26
642.90	40013.80
643.04	39945.92
643.19	39526.97
643.34	40105.08
643.48	39854.64
643.63	39821.87
643.78	39192.27
643.93	39709.53
644.07	39365.47
644.22	39573.78
644.37	39552.71
644.51	39391.22
644.66	39697.83
644.81	39756.34
644.95	39812.51
645.10	39459.09
645.25	39512.92
645.39	39313.98
645.54	39461.43
645.69	39108.01
645.83	38972.26
645.98	39061.20
646.13	39400.58
646.27	38974.60
646.42	38817.78
646.57	39014.39
646.71	39180.57
646.86	39791.45
647.00	38611.82
647.15	38972.26
647.30	39103.33
647.44	38770.97
647.59	38848.21
647.74	38447.98
647.88	38960.56
648.03	38679.69
648.17	38705.44
648.32	39054.18
648.47	38106.26
648.61	38932.47
648.76	39187.59
648.90	38780.34
649.05	38377.76
649.20	38974.60
649.34	38440.96
649.49	38174.14
649.63	38799.06
649.78	38682.03
649.92	38625.86
650.07	38548.62
650.21	38162.43
650.36	38567.35
650.51	38487.77
650.65	39093.97
650.80	39047.16
650.94	38543.94
651.09	38342.66
651.23	38213.93
651.38	37579.64
651.52	38249.03
651.67	38146.05
651.81	38103.92
651.96	38092.22
652.10	38396.49
652.25	37940.08
652.39	38197.54
652.54	38094.56
652.68	38333.29
652.83	38356.70
652.97	38438.62
653.12	38258.40
653.26	37947.11
653.41	37869.87
653.55	37982.21
653.70	38239.67
653.84	38155.41
653.99	37617.09
654.13	37827.74
654.27	37766.88
654.42	37776.25
654.56	37518.79
654.71	37645.18
654.85	37343.25
655.00	37986.89
655.14	37736.46
655.29	37411.12
655.43	37151.32
655.57	37003.87
655.72	37060.04
655.86	36992.17
656.01	36727.69
656.15	36924.29
656.30	36865.78
656.44	37247.29
656.58	37067.06
656.73	37069.40
656.87	36917.27
657.01	36495.97
657.16	37163.03
657.30	36669.17
657.45	36996.85
657.59	36505.34
657.73	36807.26
657.88	36964.08
658.02	37001.53
658.16	36758.11
658.31	37284.73
658.45	36924.29
658.60	37125.58
658.74	36833.01
658.88	36823.65
659.03	36856.42
659.17	36493.63
659.31	36823.65
659.46	36715.98
659.60	36643.43
659.74	36112.13
659.89	35924.88
660.03	36194.04
660.17	36526.40
660.32	36636.41
660.46	36311.07
660.60	36278.30
660.74	36203.41
660.89	36392.99
661.03	36088.72
661.17	36070.00
661.32	35819.56
661.46	36105.10
661.60	35756.36
661.74	35512.95
661.89	35892.12
662.03	36156.60
662.17	35707.21
662.31	36091.06
662.46	36109.78
662.60	35725.94
662.74	35433.37
662.88	35728.28
663.03	35269.53
663.17	35091.65
663.31	34965.26
663.45	35564.44
663.60	35278.89
663.74	35285.92
663.88	35494.22
664.02	35159.53
664.17	35180.59
664.31	34696.10
664.45	34991.01
664.59	35108.04
664.73	34778.02
664.88	34845.90
665.02	34370.77
665.16	34499.50
665.30	34307.57
665.44	34422.26
665.59	34047.77
665.73	34298.21
665.87	34532.26
666.01	34483.11
666.15	34476.09
666.29	34448.00
666.44	34565.03
666.58	34171.82
666.72	34082.88
666.86	34017.35
667.00	34576.73
667.14	33645.20
667.28	34073.52
667.43	33804.36
667.57	34323.96
667.71	33811.38
667.85	33472.00
667.99	33766.91
668.13	34110.97
668.27	33514.13
668.41	33935.43
668.56	33235.61
668.70	33282.42
668.84	33359.66
668.98	33429.87
669.12	33284.76
669.26	33387.74
669.40	32788.56
669.54	33275.40
669.68	32959.42
669.82	32533.45
669.96	33291.78
670.10	32921.98
670.25	32713.67
670.39	32538.13
670.53	33006.23
670.67	32357.91
670.81	32381.31
670.95	32390.67
671.09	32610.68
671.23	32140.24
671.37	32556.85
671.51	32390.67
671.65	31936.61
671.79	31679.15
671.93	31960.02
672.07	32006.83
672.21	31950.65
672.35	31903.84
672.49	31571.49
672.63	31791.50
672.77	31445.10
672.91	31543.40
673.05	31473.18
673.19	31527.02
673.33	31655.75
673.47	31489.57
673.61	30857.62
673.75	30899.75
673.89	31019.12
674.03	30782.73
674.17	31049.55
674.31	31147.85
674.45	31562.12
674.59	31199.34
674.73	31211.04
674.87	30476.12
675.01	30356.75
675.15	30731.23
675.29	30703.15
675.43	30579.10
675.56	30712.51
675.70	30813.15
675.84	30288.87
675.98	29439.26
676.12	30249.08
676.26	30485.48
676.40	30012.69
676.54	30068.86
676.68	29930.77
676.82	29439.26
676.96	29677.99
677.10	29355.00
677.23	29624.16
677.37	29558.63
677.51	29104.56
677.65	29289.46
677.79	28924.34
677.93	28596.67
678.07	29064.77
678.21	28566.24
678.34	28678.58
678.48	28287.71
678.62	28369.63
678.76	28332.18
678.90	27807.90
679.04	28025.57
679.18	28116.86
679.31	27880.46
679.45	27735.35
679.59	27751.73
679.73	27775.14
679.87	27358.52
680.00	27803.22
680.14	27843.01
680.28	27674.49
680.42	26932.54
680.56	27405.33
680.70	27255.54
680.83	26890.41
680.97	27138.51
681.11	26981.70
681.25	26984.04
681.39	26757.00
681.52	26895.10
681.66	26707.85
681.80	26834.24
681.94	26572.10
682.07	26019.74
682.21	25865.26
682.35	26286.56
682.49	26125.06
682.62	25837.17
682.76	25949.52
682.90	26195.28
683.04	25823.13
683.17	25652.27
683.31	25593.76
683.45	25434.60
683.59	25570.35
683.72	25551.63
683.86	25411.20
684.00	24884.58
684.13	24659.88
684.27	24938.41
684.41	25111.61
684.55	24865.85
684.68	24540.52
684.82	24865.85
684.96	24788.61
685.09	24931.39
685.23	24636.48
685.37	24603.71
685.50	24491.37
685.64	24329.87
685.78	23943.68
685.91	24170.71
686.05	23695.58
686.19	23702.61
686.32	23772.82
686.46	23250.88
686.60	22817.88
686.73	23562.17
686.87	23391.31
687.01	22967.68
687.14	23070.66
687.28	22623.62
687.42	22946.61
687.55	23009.81
687.69	22862.35
687.82	22902.14
687.96	22799.16
688.10	22670.43
688.23	22459.78
688.37	22485.53
688.50	22403.61
688.64	22279.56
688.78	22270.20
688.91	22045.51
689.05	21893.37
689.18	21823.16
689.32	21514.20
689.46	21673.36
689.59	22209.34
689.73	21972.95
689.86	21493.14
690.00	21645.27
690.13	21649.96
690.27	21120.99
690.41	21137.38
690.54	20812.04
690.68	21128.02
690.81	21352.71
690.95	20706.72
691.08	20844.81
691.22	20664.59
691.35	21010.99
691.49	20798.00
691.62	20587.35
691.76	20503.09
691.89	20379.04
692.03	20437.56
692.16	20353.30
692.30	20271.38
692.43	19962.43
692.57	19782.21
692.70	19960.09
692.84	19817.32
692.97	19529.43
693.11	19623.05
693.24	19473.26
693.38	19580.92
693.51	19419.42
693.65	19185.37
693.78	19136.22
693.92	19208.78
694.05	19222.82
694.19	19323.46
694.32	19136.22
694.45	19309.42
694.59	18967.70
694.72	19161.97
694.86	18906.85
694.99	18565.13
695.13	18628.32
695.26	18377.89
695.39	18391.93
695.53	18434.06
695.66	18405.97
695.80	18394.27
695.93	18080.64
696.07	18050.21
696.20	18125.11
696.33	17982.34
696.47	18148.51
696.60	17532.95
696.73	17689.77
696.87	17626.57
697.00	17696.79
697.14	17341.03
697.27	17280.18
697.40	17277.83
697.54	17380.82
697.67	17060.16
697.80	17181.87
697.94	16812.07
698.07	17151.45
698.21	16835.47
698.34	16732.49
698.47	16870.58
698.61	16430.56
698.74	16599.08
698.87	16519.50
699.01	16505.46
699.14	16301.83
699.27	16182.46
699.40	16044.37
699.54	16149.70
699.67	16210.55
699.80	16037.35
699.94	16074.80
700.07	16318.22
700.20	16149.70
700.34	15833.72
700.47	15864.15
700.60	15550.52
700.73	15850.11
700.87	15648.82
701.00	15667.55
701.13	15154.97
701.26	15218.16
701.40	15091.77
701.53	15077.73
701.66	15178.37
701.79	14846.02
701.93	14930.28
702.06	14745.38
702.19	14743.03
702.32	14752.40
702.46	14946.66
702.59	14857.72
702.72	14817.93
702.85	14665.80
702.99	14523.02
703.12	14305.35
703.25	14230.46
703.38	14361.53
703.51	14127.47
703.65	13865.33
703.78	13851.29
703.91	13748.31
704.04	13947.25
704.17	13919.17
704.31	13919.17
704.44	13731.92
704.57	13631.28
704.70	13392.55
704.83	13509.57
704.96	13621.92
705.10	13497.87
705.23	13341.05
>>>>>End Processed Spectral Data<<<<<
