SpectraSuite Data File
++++++++++++++++++++++++++++++++++++
Date: Fri Oct 25 10:48:25 EDT 2013
User: price-jones
Dark Spectrum Present: No
Reference Spectrum Present: No
Number of Sampled Component Spectra: 1
Spectrometers: USB2+H05261
Integration Time (usec): 100000 (USB2+H05261)
Spectra Averaged: 1 (USB2+H05261)
Boxcar Smoothing: 0 (USB2+H05261)
Correct for Electrical Dark: No (USB2+H05261)
Strobe/Lamp Enabled: No (USB2+H05261)
Correct for Detector Non-linearity: No (USB2+H05261)
Correct for Stray Light: No (USB2+H05261)
Number of Pixels in Processed Spectrum: 2048
>>>>>Begin Processed Spectral Data<<<<<
365.73	117.03
365.92	117.03
366.12	117.03
366.32	49.15
366.52	37.45
366.72	145.11
366.91	0.00
367.11	9.36
367.31	65.54
367.51	86.60
367.70	63.19
367.90	100.64
368.10	9.36
368.30	21.06
368.49	56.17
368.69	0.00
368.89	23.41
369.09	67.88
369.28	65.54
369.48	105.32
369.68	98.30
369.87	110.01
370.07	191.92
370.27	159.16
370.47	189.58
370.66	360.44
370.86	449.38
371.06	479.81
371.25	568.75
371.45	472.79
371.65	358.10
371.84	407.25
372.04	451.72
372.24	519.60
372.44	554.71
372.63	496.19
372.83	437.68
373.03	535.98
373.22	437.68
373.42	559.39
373.62	606.20
373.81	585.13
374.01	587.47
374.21	564.07
374.40	622.58
374.60	624.92
374.79	507.90
374.99	599.18
375.19	564.07
375.38	678.76
375.58	596.84
375.78	603.86
375.97	627.26
376.17	599.18
376.37	533.64
376.56	622.58
376.76	571.09
376.95	711.52
377.15	645.99
377.35	627.26
377.54	657.69
377.74	634.29
377.93	643.65
378.13	690.46
378.33	709.18
378.52	653.01
378.72	699.82
378.91	617.90
379.11	664.71
379.31	662.37
379.50	610.88
379.70	655.35
379.89	706.84
380.09	692.80
380.28	662.37
380.48	716.20
380.68	660.03
380.87	730.25
381.07	631.94
381.26	739.61
381.46	734.93
381.65	774.72
381.85	716.20
382.04	676.41
382.24	713.86
382.43	770.04
382.63	744.29
382.83	702.16
383.02	688.12
383.22	767.70
383.41	770.04
383.61	751.31
383.80	760.67
384.00	753.65
384.19	716.20
384.39	788.76
384.58	854.30
384.78	784.08
384.97	910.47
385.17	730.25
385.36	819.19
385.56	784.08
385.75	732.59
385.95	807.48
386.14	884.72
386.34	840.25
386.53	849.61
386.72	812.17
386.92	901.11
387.11	854.30
387.31	866.00
387.50	858.98
387.70	868.34
387.89	894.08
388.09	866.00
388.28	854.30
388.48	826.21
388.67	964.30
388.86	999.41
389.06	940.90
389.25	957.28
389.45	912.81
389.64	936.21
389.84	959.62
390.03	1069.62
390.22	1062.60
390.42	1022.81
390.61	1027.50
390.81	1008.77
391.00	1015.79
391.19	1022.81
391.39	966.64
391.58	1027.50
391.78	1076.65
391.97	1060.26
392.16	1027.50
392.36	1069.62
392.55	940.90
392.75	1020.47
392.94	971.32
393.13	1034.52
393.33	1004.09
393.52	1078.99
393.71	1097.71
393.91	1062.60
394.10	1196.01
394.29	1069.62
394.49	1095.37
394.68	1203.04
394.88	1167.93
395.07	1170.27
395.26	1224.10
395.46	1217.08
395.65	1233.46
395.84	1196.01
396.04	1233.46
396.23	1132.82
396.42	1135.16
396.62	1224.10
396.81	1205.38
397.00	1191.33
397.19	1160.91
397.39	1280.27
397.58	1343.47
397.77	1409.00
397.97	1362.19
398.16	1380.92
398.35	1362.19
398.55	1348.15
398.74	1418.36
398.93	1418.36
399.12	1509.65
399.32	1416.02
399.51	1509.65
399.70	1554.12
399.90	1392.62
400.09	1481.56
400.28	1502.62
400.47	1446.45
400.67	1624.33
400.86	1493.26
401.05	1589.22
401.24	1575.18
401.44	1551.78
401.63	1671.14
401.82	1610.29
402.01	1577.52
402.21	1694.55
402.40	1685.19
402.59	1636.03
402.78	1652.42
402.97	1682.85
403.17	1675.82
403.36	1710.93
403.55	1739.02
403.74	1739.02
403.93	1802.21
404.13	1797.53
404.32	1790.51
404.51	1804.55
404.70	1909.88
404.89	1874.77
405.09	1856.04
405.28	1856.04
405.47	1870.09
405.66	1839.66
405.85	1973.07
406.05	1987.11
406.24	1893.49
406.43	1975.41
406.62	1879.45
406.81	2012.86
407.00	1909.88
407.20	1963.71
407.39	2003.50
407.58	2015.20
407.77	2045.63
407.96	2094.78
408.15	2113.50
408.34	2169.68
408.54	2207.13
408.73	2258.62
408.92	2204.78
409.11	2230.53
409.30	2181.38
409.49	2155.63
409.68	2132.23
409.87	2284.36
410.07	2249.25
410.26	2223.51
410.45	2331.17
410.64	2389.69
410.83	2431.82
411.02	2434.16
411.21	2480.97
411.40	2490.33
411.59	2466.92
411.78	2656.51
411.98	2469.27
412.17	2588.63
412.36	2628.42
412.55	2663.53
412.74	2574.59
412.93	2560.55
413.12	2612.04
413.31	2717.36
413.50	2675.23
413.69	2675.23
413.88	2883.54
414.07	2766.51
414.26	2789.92
414.45	2731.41
414.64	2878.86
414.83	2867.16
415.02	2930.35
415.22	2974.82
415.41	3068.44
415.60	3000.57
415.79	2984.18
415.98	3122.27
416.17	3056.74
416.36	3176.11
416.55	3005.25
416.74	3089.51
416.93	3112.91
417.12	3173.77
417.31	3173.77
417.50	3325.90
417.69	3346.97
417.88	3391.44
418.07	3304.84
418.26	3321.22
418.45	3581.02
418.64	3400.80
418.83	3466.33
419.02	3351.65
419.21	3433.57
419.39	3384.41
419.58	3473.36
419.77	3480.38
419.96	3599.74
420.15	3571.66
420.34	3503.78
420.53	3602.08
420.72	3557.61
420.91	3550.59
421.10	3637.19
421.29	3707.41
421.48	3501.44
421.67	3693.37
421.86	3627.83
422.05	3606.77
422.24	3513.14
422.43	3658.26
422.61	3672.30
422.80	3857.20
422.99	3712.09
423.18	3630.17
423.37	3751.88
423.56	3805.71
423.75	3723.79
423.94	3702.73
424.13	3449.95
424.32	3693.37
424.50	3819.75
424.69	3985.93
424.88	4011.68
425.07	3754.22
425.26	3740.18
425.45	3794.01
425.64	3798.69
425.83	3786.99
426.01	4035.08
426.20	3864.22
426.39	3779.97
426.58	3756.56
426.77	3871.25
426.96	3812.73
427.15	3878.27
427.33	4070.19
427.52	4007.00
427.71	3995.29
427.90	4044.45
428.09	4070.19
428.28	3978.91
428.46	4056.15
428.65	4056.15
428.84	4007.00
429.03	4133.39
429.22	4117.00
429.40	4079.55
429.59	4074.87
429.78	3843.16
429.97	3955.51
430.16	3911.04
430.34	4149.77
430.53	4074.87
430.72	4088.92
430.91	4124.02
431.10	4175.52
431.28	4362.76
431.47	4400.21
431.66	4449.36
431.85	4414.25
432.03	4269.14
432.22	4610.86
432.41	4491.49
432.60	4498.51
432.79	4573.41
432.97	4779.37
433.16	4643.62
433.35	4592.13
433.54	4564.04
433.72	4496.17
433.91	4582.77
434.10	4674.05
434.28	4667.03
434.47	4662.35
434.66	4786.40
434.85	4720.86
435.03	4837.89
435.22	4723.20
435.41	4905.76
435.59	4940.87
435.78	4807.46
435.97	4999.38
436.16	4833.21
436.34	4968.96
436.53	4842.57
436.72	5085.98
436.90	4945.55
437.09	5048.54
437.28	4929.17
437.46	4973.64
437.65	4959.60
437.84	5111.73
438.02	4980.66
438.21	5032.15
438.40	4961.94
438.58	5149.18
438.77	5263.86
438.96	5383.23
439.14	5425.36
439.33	5313.02
439.52	5533.03
439.70	5298.97
439.89	5392.59
440.08	5547.07
440.26	5479.19
440.45	5434.72
440.63	5687.50
440.82	5760.06
441.01	5720.27
441.19	5874.74
441.38	5818.57
441.57	5722.61
441.75	5975.39
441.94	6078.37
442.12	6164.97
442.31	6225.82
442.50	6164.97
442.68	5966.03
442.87	6099.44
443.05	6141.57
443.24	6232.85
443.43	6333.49
443.61	6188.38
443.80	6450.52
443.98	6106.46
444.17	5933.26
444.35	6263.27
444.54	6396.68
444.73	6310.08
444.91	6340.51
445.10	6321.79
445.28	6249.23
445.47	6122.84
445.65	6066.67
445.84	6115.82
446.02	6373.28
446.21	6291.36
446.39	6335.83
446.58	6303.06
446.77	6469.24
446.95	6380.30
447.14	6399.02
447.32	6478.60
447.51	6588.61
447.69	6551.16
447.88	6392.00
448.06	6368.60
448.25	6394.34
448.43	6485.62
448.62	6462.22
448.80	6551.16
448.99	6530.09
449.17	6747.76
449.36	6604.99
449.54	6719.68
449.73	6773.51
449.91	6827.34
450.10	6883.52
450.28	6794.58
450.46	6864.79
450.65	6782.87
450.83	6834.36
451.02	6834.36
451.20	6902.24
451.39	6951.39
451.57	7061.40
451.76	6958.41
451.94	6946.71
452.13	6942.03
452.31	6967.77
452.49	6977.14
452.68	6927.99
452.86	6846.07
453.05	6913.94
453.23	7171.40
453.42	7096.50
453.60	7101.19
453.78	7199.49
453.97	7162.04
454.15	7129.27
454.34	7075.44
454.52	7164.38
454.70	7272.04
454.89	7148.00
455.07	7178.42
455.26	7272.04
455.44	7414.82
455.62	7365.67
455.81	7400.77
455.99	7573.97
456.17	7496.74
456.36	7573.97
456.54	7599.72
456.73	7747.17
456.91	7632.49
457.09	7737.81
457.28	7946.12
457.46	7702.70
457.64	7826.75
457.83	7808.03
458.01	7588.02
458.19	7880.58
458.38	7583.34
458.56	8084.21
458.74	7934.42
458.93	7922.71
459.11	8124.00
459.29	8109.96
459.48	8100.59
459.66	8013.99
459.84	7964.84
460.03	8315.92
460.21	8365.07
460.39	8074.85
460.57	8124.00
460.76	8236.35
460.94	8695.09
461.12	8358.05
461.31	8332.31
461.49	8355.71
461.67	8079.53
461.85	8540.61
462.04	8549.98
462.22	9032.13
462.40	8559.34
462.59	8615.51
462.77	8542.96
462.95	8610.83
463.13	8617.85
463.32	8748.92
463.50	8713.81
463.68	8933.82
463.86	8645.94
464.05	8425.93
464.23	8678.71
464.41	8755.94
464.59	8737.22
464.78	8957.23
464.96	8720.84
465.14	8905.74
465.32	8887.01
465.50	8777.01
465.69	8997.02
465.87	8889.35
466.05	8905.74
466.23	8992.34
466.41	8985.32
466.60	9064.89
466.78	9004.04
466.96	9100.00
467.14	8978.30
467.32	9235.75
467.51	9142.13
467.69	8887.01
467.87	9212.35
468.05	9121.07
468.23	9256.82
468.41	9088.30
468.60	9296.61
468.78	9345.76
468.96	9181.92
469.14	9451.08
469.32	9497.89
469.50	9345.76
469.69	9476.83
469.87	9596.20
470.05	9472.15
470.23	9439.38
470.41	9472.15
470.59	9650.03
470.77	9392.57
470.95	9750.67
471.14	9872.38
471.32	9490.87
471.50	9958.98
471.68	10024.51
471.86	10031.54
472.04	9907.49
472.22	10017.49
472.40	9863.02
472.58	9942.60
472.77	10148.56
472.95	10291.34
473.13	10406.02
473.31	10267.93
473.49	10167.29
473.67	10214.10
473.85	10478.58
474.03	10497.30
474.21	10714.97
474.39	10752.42
474.57	10698.59
474.75	10600.29
474.93	10794.55
475.12	10707.95
475.30	10862.43
475.48	10867.11
475.66	11042.65
475.84	11052.01
476.02	11052.01
476.20	11166.70
476.38	11482.67
476.56	11456.92
476.74	11613.74
476.92	11412.45
477.10	11545.86
477.28	11852.47
477.46	11543.52
477.64	11815.02
477.82	12271.43
478.00	12231.64
478.18	12067.80
478.36	12116.95
478.54	12269.09
478.72	12453.99
478.90	12428.24
479.08	12599.10
479.26	12865.92
479.44	12807.41
479.62	12842.52
479.80	13018.06
479.98	12865.92
480.16	13303.60
480.34	13135.09
480.52	13462.76
480.70	13074.23
480.88	13111.68
481.06	13422.97
481.24	13399.57
481.41	13741.29
481.59	13947.25
481.77	13963.64
481.95	14005.77
482.13	14127.47
482.31	14293.65
482.49	14511.32
482.67	14384.93
482.85	14501.96
483.03	14642.39
483.21	14822.61
483.39	14906.87
483.57	15014.54
483.74	15063.69
483.92	15075.39
484.10	14988.79
484.28	15531.80
484.46	15550.52
484.64	15992.88
484.82	15564.56
485.00	15676.91
485.18	15922.66
485.35	16056.08
485.53	15704.99
485.71	15770.53
485.89	16196.51
486.07	16252.68
486.25	16224.59
486.43	16496.10
486.61	16484.39
486.78	16702.06
486.96	17092.93
487.14	17050.80
487.32	17172.51
487.50	17584.44
487.68	17642.96
487.85	17818.50
488.03	17968.29
488.21	18078.30
488.39	18389.59
488.57	18324.05
488.75	18305.33
488.92	18473.85
489.10	18836.63
489.28	18822.59
489.46	19197.07
489.64	19290.70
489.81	19557.52
489.99	19655.82
490.17	19681.56
490.35	20140.31
490.53	19536.45
490.70	19985.83
490.88	20011.58
491.06	20549.90
491.24	20163.72
491.41	20278.40
491.59	20025.62
491.77	20449.26
491.95	20479.69
492.13	20854.17
492.30	20905.66
492.48	21034.39
492.66	21130.36
492.84	21167.80
493.01	21448.67
493.19	21598.46
493.37	21343.35
493.54	21549.31
493.72	21884.01
493.90	22185.94
494.08	22349.78
494.25	22789.80
494.43	22574.47
494.61	22621.28
494.79	22773.41
494.96	22597.87
495.14	22836.61
495.32	23246.20
495.49	23070.66
495.67	23274.29
495.85	22988.74
496.02	23632.39
496.20	23730.69
496.38	23976.45
496.55	24004.53
496.73	24470.30
496.91	23548.13
497.09	24348.59
497.26	24273.70
497.44	24428.17
497.62	24594.35
497.79	24779.25
497.97	24526.47
498.14	24526.47
498.32	25043.73
498.50	25193.53
498.67	25340.98
498.85	25254.38
499.03	25523.54
499.20	25228.63
499.38	25652.27
499.56	25734.19
499.73	26010.37
499.91	25989.31
500.08	25853.56
500.26	25706.10
500.44	26010.37
500.61	26555.72
500.79	26242.09
500.97	26324.01
501.14	26665.72
501.32	26632.96
501.49	26403.58
501.67	26843.60
501.84	26742.96
502.02	26845.94
502.20	27080.00
502.37	26864.67
502.55	27353.84
502.72	27297.67
502.90	27255.54
503.07	27402.99
503.25	27714.28
503.43	27501.29
503.60	27688.54
503.78	27517.68
503.95	27531.72
504.13	27597.26
504.30	27946.00
504.48	28191.75
504.65	28203.46
504.83	28224.52
505.01	28662.20
505.18	28369.63
505.36	28797.95
505.53	28652.84
505.71	28868.17
505.88	29219.25
506.06	28652.84
506.23	28732.42
506.41	28762.84
506.58	29244.99
506.76	28912.64
506.93	29242.65
507.11	29495.43
507.28	29420.53
507.46	29422.87
507.63	29773.95
507.81	29429.90
507.98	29008.60
508.16	29818.42
508.33	29898.00
508.50	30054.82
508.68	30071.20
508.85	30492.50
509.03	30099.29
509.20	30218.66
509.38	30824.86
509.55	30654.00
509.73	30405.90
509.90	30724.21
510.08	30682.08
510.25	30906.77
510.42	30899.75
510.60	30927.84
510.77	31058.91
510.95	31409.99
511.12	31075.29
511.30	31166.57
511.47	31590.21
511.64	31768.09
511.82	31999.80
511.99	31527.02
512.17	31653.40
512.34	31882.78
512.51	32039.59
512.69	32081.72
512.86	31978.74
513.04	32254.92
513.21	32369.61
513.38	31941.29
513.56	32123.85
513.73	32470.25
513.90	32327.48
514.08	32622.39
514.25	32685.58
514.43	32481.95
514.60	32252.58
514.77	32809.63
514.95	32863.46
515.12	32914.95
515.29	32950.06
515.47	33418.17
515.64	33443.91
515.81	33141.99
515.99	33195.82
516.16	33165.39
516.33	33207.52
516.51	33352.63
516.68	32802.61
516.85	32905.59
517.03	33191.14
517.20	33301.14
517.37	33563.28
517.54	33684.99
517.72	33343.27
517.89	34045.43
518.06	33748.18
518.24	33830.10
518.41	33469.66
518.58	34089.90
518.75	33949.47
518.93	34855.26
519.10	34309.91
519.27	34670.36
519.45	34621.20
519.62	34539.29
519.79	34869.30
519.96	34932.50
520.14	35393.58
520.31	34700.78
520.48	34974.63
520.65	34904.41
520.83	34953.56
521.00	35365.49
521.17	35370.18
521.34	35204.00
521.52	35318.68
521.69	35667.42
521.86	36245.54
522.03	35599.55
522.20	35807.86
522.38	35992.76
522.55	35730.62
522.72	35758.70
522.89	35786.79
523.07	35634.66
523.24	35934.24
523.41	36079.36
523.58	35938.93
523.75	36865.78
523.92	36746.41
524.10	36409.37
524.27	36664.49
524.44	36854.08
524.61	36896.20
524.78	37085.79
524.96	36526.40
525.13	36907.91
525.30	37305.80
525.47	37301.12
525.64	37216.86
525.81	37134.94
525.98	36900.89
526.16	36802.58
526.33	36627.04
526.50	37167.71
526.67	37141.96
526.84	37195.79
527.01	36980.46
527.18	37132.60
527.36	37436.87
527.53	37514.11
527.70	37860.51
527.87	37914.34
528.04	37743.48
528.21	38019.66
528.38	37886.25
528.55	38010.30
528.72	38323.93
528.89	38239.67
529.07	38316.91
529.24	37954.13
529.41	38635.22
529.58	38349.68
529.75	38244.35
529.92	38738.21
530.09	38756.93
530.26	38761.61
530.43	39021.41
530.60	37982.21
530.77	38586.07
530.94	38993.32
531.11	38808.42
531.28	38859.91
531.46	38792.04
531.63	39187.59
531.80	38976.94
531.97	39026.09
532.14	38916.09
532.31	38653.95
532.48	38990.98
532.65	39239.08
532.82	39250.78
532.99	39473.13
533.16	38761.61
533.33	39524.63
533.50	40196.36
533.67	39477.82
533.84	39608.89
534.01	39498.88
534.18	39634.63
534.35	40381.26
534.52	39220.36
534.69	40044.23
534.86	39917.84
535.03	39810.17
535.20	39922.52
535.37	40528.72
535.54	40301.68
535.71	40140.19
535.88	40191.68
536.05	40201.04
536.22	40177.64
536.38	40371.90
536.55	40425.73
536.72	39864.00
536.89	40423.39
537.06	40467.86
537.23	40580.21
537.40	40575.53
537.57	40697.24
537.74	40711.28
537.91	41099.81
538.08	40966.40
538.25	40484.25
538.42	40800.22
538.59	40856.39
538.75	40818.94
538.92	41167.68
539.09	40797.88
539.26	40802.56
539.43	40914.90
539.60	41375.99
539.77	41027.25
539.94	40870.43
540.11	40942.99
540.28	40634.04
540.44	40790.86
540.61	40797.88
540.78	40954.69
540.95	41832.39
541.12	41184.07
541.29	41212.15
541.46	41319.82
541.62	41406.42
541.79	41603.02
541.96	41504.72
542.13	41628.77
542.30	41586.64
542.47	42057.09
542.63	41855.80
542.80	41654.51
542.97	41825.37
543.14	42293.48
543.31	41177.04
543.48	42181.13
543.64	42426.89
543.81	42632.86
543.98	42426.89
544.15	42438.59
544.32	42532.22
544.48	42761.59
544.65	42548.60
544.82	42241.99
544.99	42237.31
545.16	42550.94
545.32	42403.49
545.49	42988.62
545.66	42515.83
545.83	42469.02
546.00	42829.46
546.16	42864.57
546.33	42817.76
546.50	42101.56
546.67	43061.18
546.83	42244.33
547.00	42871.59
547.17	42564.98
547.34	42836.48
547.50	43049.47
547.67	43105.65
547.84	43281.19
548.00	43449.70
548.17	43407.58
548.34	42827.12
548.51	43412.26
548.67	43674.40
548.84	43157.14
549.01	43484.81
549.18	43508.22
549.34	43501.20
549.51	43360.76
549.68	43220.33
549.84	43365.45
550.01	43480.13
550.18	43445.02
550.34	43381.83
550.51	43559.71
550.68	43454.39
550.84	43772.70
551.01	43906.11
551.18	43775.04
551.34	44147.18
551.51	43445.02
551.68	43981.01
551.84	43964.62
552.01	43950.58
552.18	43660.35
552.34	43487.15
552.51	43728.23
552.68	44027.82
552.84	44348.47
553.01	44287.62
553.18	43899.09
553.34	43793.76
553.51	43796.10
553.67	44374.22
553.84	44481.88
554.01	44137.82
554.17	44835.30
554.34	44570.82
554.51	44437.41
554.67	44760.40
554.84	44411.67
555.00	44514.65
555.17	44381.24
555.33	44067.61
555.50	44432.73
555.67	44222.08
555.83	44311.02
556.00	44493.58
556.16	44949.99
556.33	44458.48
556.50	44619.97
556.66	44942.97
556.83	44540.39
556.99	44774.45
557.16	44758.06
557.32	44996.80
557.49	45167.66
557.65	44786.15
557.82	44624.65
557.98	44891.48
558.15	45184.04
558.32	44807.22
558.48	44842.32
558.65	44648.06
558.81	44942.97
558.98	44568.48
559.14	44849.35
559.31	44495.92
559.47	44898.50
559.64	45212.13
559.80	45390.01
559.97	45338.52
560.13	44631.68
560.30	45071.70
560.46	44931.26
560.63	45118.51
560.79	45326.81
560.96	45247.24
561.12	44671.46
561.29	45254.26
561.45	45352.56
561.61	44982.76
561.78	45034.25
561.94	44823.60
562.11	45057.65
562.27	45303.41
562.44	45460.23
562.60	45146.59
562.77	45556.19
562.93	45429.80
563.10	45675.55
563.26	45207.45
563.42	45668.53
563.59	45361.92
563.75	45036.59
563.92	45567.89
564.08	45085.74
564.24	45846.41
564.41	45722.37
564.57	45492.99
564.74	45375.97
564.90	45230.85
565.07	45460.23
565.23	45382.99
565.39	45474.27
565.56	45551.51
565.72	45624.06
565.88	45757.47
566.05	45577.25
566.21	45502.35
566.38	45532.78
566.54	45844.07
566.70	45701.30
566.87	45954.08
567.03	45827.69
567.19	45879.18
567.36	45427.46
567.52	45586.61
567.68	45876.84
567.85	45659.17
568.01	45661.51
568.17	45188.72
568.34	45556.19
568.50	45577.25
568.66	45373.63
568.83	45425.12
568.99	45530.44
569.15	45607.68
569.32	45544.48
569.48	45542.14
569.64	45879.18
569.81	46312.18
569.97	45642.79
570.13	45481.29
570.30	45497.67
570.46	45954.08
570.62	45497.67
570.78	45626.40
570.95	45696.62
571.11	45937.69
571.27	45563.21
571.43	45837.05
571.60	45940.04
571.76	45652.15
571.92	45958.76
572.09	45755.13
572.25	45591.30
572.41	45879.18
572.57	46113.23
572.74	46473.68
572.90	45745.77
573.06	46316.86
573.22	46082.81
573.38	45937.69
573.55	45603.00
573.71	46017.27
573.87	45621.72
574.03	45357.24
574.20	45837.05
574.36	45727.05
574.52	46136.64
574.68	46171.75
574.84	45968.12
575.01	46019.61
575.17	45996.21
575.33	45759.81
575.49	45741.09
575.65	45570.23
575.82	46401.12
575.98	46019.61
576.14	46036.00
576.30	45977.48
576.46	46138.98
576.62	46040.68
576.79	45925.99
576.95	45736.41
577.11	46021.95
577.27	45986.85
577.43	45970.46
577.59	45715.34
577.75	45893.22
577.92	45752.79
578.08	45315.11
578.24	45661.51
578.40	45703.64
578.56	45808.96
578.72	46110.89
578.88	46485.38
579.04	45918.97
579.21	45968.12
579.37	45806.62
579.53	45839.39
579.69	45801.94
579.85	45923.65
580.01	46171.75
580.17	45965.78
580.33	46124.94
580.49	45806.62
580.65	46251.33
580.82	46122.60
580.98	46447.93
581.14	45736.41
581.30	46380.06
581.46	46115.58
581.62	46057.06
581.78	45823.01
581.94	46349.63
582.10	45944.72
582.26	46356.65
582.42	46595.38
582.58	46473.68
582.74	46464.32
582.90	45862.80
583.06	46078.13
583.22	46291.12
583.38	46419.84
583.54	46340.27
583.70	46059.40
583.86	46328.56
584.02	46206.86
584.18	45947.06
584.34	46080.47
584.50	46164.73
584.66	46167.07
584.82	45933.01
584.98	46483.04
585.14	46298.14
585.30	45801.94
585.46	46157.70
585.62	46167.07
585.78	45961.10
585.94	45951.74
586.10	45986.85
586.26	46059.40
586.42	46438.57
586.58	46316.86
586.74	45813.65
586.90	46110.89
587.06	46174.09
587.22	46504.10
587.38	45961.10
587.54	46064.08
587.70	46789.65
587.86	45792.58
588.02	46244.30
588.18	46298.14
588.34	46017.27
588.49	46185.79
588.65	45698.96
588.81	46134.30
588.97	45869.82
589.13	45694.28
589.29	45940.04
589.45	46120.26
589.61	46246.65
589.77	46127.28
589.93	46227.92
590.08	46410.48
590.24	46440.91
590.40	46277.07
590.56	45769.18
590.72	46265.37
590.88	46115.58
591.04	45778.54
591.20	46696.03
591.35	46333.24
591.51	46644.54
591.67	46396.44
591.83	46363.67
591.99	46026.63
592.15	45626.40
592.31	46553.26
592.46	46253.67
592.62	46279.41
592.78	46429.21
592.94	46281.75
593.10	46106.21
593.26	46321.54
593.41	46457.29
593.57	46429.21
593.73	46007.91
593.89	46433.89
594.05	46248.99
594.20	46148.34
594.36	46799.01
594.52	46761.56
594.68	46358.99
594.84	46190.47
594.99	46787.31
595.15	46223.24
595.31	46522.83
595.47	46562.62
595.62	46522.83
595.78	46656.24
595.94	46541.55
596.10	46705.39
596.25	46520.49
596.41	46894.97
596.57	46307.50
596.73	46813.05
596.88	45869.82
597.04	46518.15
597.20	46454.95
597.36	46328.56
597.51	46705.39
597.67	46337.93
597.83	46469.00
597.99	46349.63
598.14	46417.50
598.30	46499.42
598.46	46653.90
598.61	46497.08
598.77	46146.00
598.93	46307.50
599.09	46288.77
599.24	46738.16
599.40	46562.62
599.56	46703.05
599.71	46511.13
599.87	46742.84
600.03	46059.40
600.18	46443.25
600.34	46117.92
600.50	46314.52
600.65	46370.69
600.81	46712.41
600.97	46866.89
601.12	46815.40
601.28	46857.52
601.44	46515.81
601.59	46429.21
601.75	46148.34
601.91	46684.33
602.06	45993.87
602.22	46637.51
602.37	46216.22
602.53	46213.88
602.69	46754.54
602.84	46696.03
603.00	46230.26
603.16	46621.13
603.31	46368.35
603.47	46211.54
603.62	46115.58
603.78	46246.65
603.94	46169.41
604.09	46649.22
604.25	46571.98
604.40	46642.20
604.56	46550.91
604.71	46609.43
604.87	46209.20
605.03	46309.84
605.18	46160.05
605.34	46234.94
605.49	46260.69
605.65	46038.34
605.80	46532.19
605.96	46747.52
606.12	46234.94
606.27	46394.10
606.43	46316.86
606.58	46197.49
606.74	45858.12
606.89	46274.73
607.05	45914.29
607.20	46349.63
607.36	46267.71
607.51	46873.91
607.67	46209.20
607.82	46314.52
607.98	46223.24
608.13	46171.75
608.29	46328.56
608.44	45984.51
608.60	45546.82
608.75	45947.06
608.91	45593.64
609.06	46101.53
609.22	46312.18
609.37	45787.90
609.53	45937.69
609.68	46136.64
609.84	46014.93
609.99	45825.35
610.15	45989.19
610.30	45979.82
610.46	45104.46
610.61	45492.99
610.76	45886.20
610.92	45755.13
611.07	45633.42
611.23	45745.77
611.38	45907.27
611.54	45485.97
611.69	45411.07
611.84	45324.47
612.00	45249.58
612.15	45628.74
612.31	45621.72
612.46	45743.43
612.62	45696.62
612.77	45687.26
612.92	46082.81
613.08	45996.21
613.23	45443.84
613.39	45429.80
613.54	45776.20
613.69	45490.65
613.85	45453.20
614.00	45844.07
614.15	45778.54
614.31	45275.32
614.46	45347.88
614.62	45336.18
614.77	45528.10
614.92	45394.69
615.08	45462.57
615.23	45425.12
615.38	45256.60
615.54	45041.27
615.69	45378.31
615.84	44589.55
616.00	45102.12
616.15	45050.63
616.30	45448.52
616.46	44692.53
616.61	44924.24
616.76	44816.58
616.92	44390.60
617.07	45081.06
617.22	44634.02
617.37	45071.70
617.53	44790.83
617.68	45090.42
617.83	45322.13
617.99	45296.39
618.14	45043.61
618.29	44854.03
618.45	44554.44
618.60	44912.54
618.75	44554.44
618.90	45078.72
619.06	44954.67
619.21	44636.36
619.36	45209.79
619.51	44980.42
619.67	44659.76
619.82	44753.38
619.97	44701.89
620.12	44261.87
620.28	44392.94
620.43	44549.76
620.58	44484.22
620.73	44430.39
620.89	44622.31
621.04	44949.99
621.19	44339.11
621.34	44353.15
621.49	43838.23
621.65	44304.00
621.80	44638.70
621.95	44194.00
622.10	43791.42
622.25	43863.98
622.41	44091.01
622.56	44357.83
622.71	44339.11
622.86	44332.09
623.01	44016.11
623.16	44046.54
623.32	44123.78
623.47	44004.41
623.62	44123.78
623.77	44044.20
623.92	44130.80
624.07	43461.41
624.23	43751.63
624.38	43604.18
624.53	43922.49
624.68	43629.93
624.83	43608.86
624.98	43957.60
625.13	43531.62
625.29	43629.93
625.44	43405.23
625.59	43552.69
625.74	43309.27
625.89	43480.13
626.04	43335.02
626.19	43332.68
626.34	43679.08
626.49	43232.04
626.65	43360.76
626.80	43297.57
626.95	43304.59
627.10	43365.45
627.25	43082.24
627.40	42824.78
627.55	42803.72
627.70	42892.66
627.85	43002.66
628.00	43051.81
628.15	43337.36
628.30	42909.04
628.45	42646.90
628.60	43271.82
628.76	43239.06
628.91	43374.81
629.06	42932.45
629.21	43143.09
629.36	42443.27
629.51	42595.41
629.66	42953.51
629.81	42731.16
629.96	42550.94
630.11	42508.81
630.26	42731.16
630.41	42569.66
630.56	42309.86
630.71	42333.27
630.86	42490.09
631.01	42649.24
631.16	42745.20
631.31	42316.89
631.46	42417.53
631.61	42527.53
631.76	42241.99
631.91	42127.30
632.06	42312.20
632.21	42770.95
632.36	42527.53
632.51	42527.53
632.66	42302.84
632.81	41970.49
632.96	41869.84
633.10	41642.81
633.25	41926.02
633.40	42466.68
633.55	42726.48
633.70	42199.86
633.85	42040.70
634.00	41921.34
634.15	41949.42
634.30	42155.39
634.45	41970.49
634.60	41820.69
634.75	42078.15
634.90	42080.49
635.05	41970.49
635.19	41689.62
635.34	42375.40
635.49	41750.48
635.64	41799.63
635.79	41532.81
635.94	41553.87
636.09	42061.77
636.24	41593.66
636.39	41549.19
636.53	41572.60
636.68	41415.78
636.83	41553.87
636.98	41624.09
637.13	41319.82
637.28	41741.11
637.43	41563.23
637.57	41598.34
637.72	41521.10
637.87	41500.04
638.02	41483.66
638.17	41432.16
638.32	41034.27
638.46	41139.60
638.61	41265.99
638.76	41024.91
638.91	40734.68
639.06	40779.15
639.20	41053.00
639.35	40982.78
639.50	41029.59
639.65	41378.33
639.80	41226.20
639.94	41053.00
640.09	41104.49
640.24	40828.30
640.39	41067.04
640.54	40964.06
640.68	40933.63
640.83	40627.02
640.98	40556.80
641.13	40463.18
641.27	40608.29
641.42	40694.89
641.57	40753.41
641.72	40509.99
641.86	40559.14
642.01	40587.23
642.16	40346.15
642.31	40182.32
642.45	40547.44
642.60	40357.86
642.75	40313.39
642.90	40732.34
643.04	40790.86
643.19	40582.55
643.34	40519.35
643.48	40474.88
643.63	40610.64
643.78	40353.18
643.93	40210.40
644.07	40205.72
644.22	40182.32
644.37	39936.56
644.51	39924.86
644.66	39988.05
644.81	40547.44
644.95	40718.30
645.10	40236.15
645.25	40020.82
645.39	40336.79
645.54	40432.75
645.69	40182.32
645.83	40177.64
645.98	40198.70
646.13	40126.14
646.27	39676.76
646.42	39742.30
646.57	40252.53
646.71	39571.44
646.86	40072.31
647.00	39835.92
647.15	39440.37
647.30	40378.92
647.44	39828.90
647.59	39412.28
647.74	39695.49
647.88	39690.80
648.03	39407.60
648.17	39353.77
648.32	39278.87
648.47	39299.94
648.61	39655.70
648.76	39679.10
648.90	39629.95
649.05	39688.46
649.20	39550.37
649.34	39711.87
649.49	39372.49
649.63	39648.68
649.78	39253.12
649.92	39154.82
650.07	39548.03
650.21	39171.21
650.36	39601.86
650.51	38951.20
650.65	39431.01
650.80	39798.47
650.94	39129.08
651.09	38859.91
651.23	38976.94
651.38	39173.55
651.52	39264.83
651.67	39035.45
651.81	39239.08
651.96	38747.57
652.10	38754.59
652.25	39028.43
652.39	38466.70
652.54	38656.29
652.68	38888.00
652.83	39037.80
652.97	39084.61
653.12	38841.19
653.26	38682.03
653.41	38534.58
653.55	38806.08
653.70	38347.34
653.84	38522.88
653.99	38574.37
654.13	38787.36
654.27	38785.02
654.42	38286.48
654.56	38501.81
654.71	38583.73
654.85	38122.65
655.00	38225.63
655.14	38157.75
655.29	37890.93
655.43	37818.38
655.57	38174.14
655.72	37659.22
655.86	38017.32
656.01	37937.74
656.15	37457.93
656.30	37497.72
656.44	37949.45
656.58	37729.44
656.73	37490.70
656.87	37663.90
657.01	37450.91
657.16	37640.50
657.30	37331.54
657.45	37394.74
657.59	37628.79
657.73	37216.86
657.88	38057.11
658.02	37610.07
658.16	37867.53
658.31	37949.45
658.45	37834.76
658.60	38080.52
658.74	37790.29
658.88	37738.80
659.03	37137.28
659.17	37254.31
659.31	37177.07
659.46	37284.73
659.60	37359.63
659.74	37249.63
659.89	36861.10
660.03	37078.77
660.17	37476.66
660.32	37219.20
660.46	37432.19
660.60	36774.50
660.74	36935.99
660.89	37069.40
661.03	36861.10
661.17	36683.22
661.32	36847.05
661.46	36622.36
661.60	36247.88
661.74	36882.16
661.89	36346.18
662.03	36566.19
662.17	36762.79
662.31	36201.07
662.46	36395.33
662.60	36533.42
662.74	36170.64
662.88	36584.91
663.03	36407.03
663.17	36292.35
663.31	35936.59
663.45	36503.00
663.60	36109.78
663.74	35711.89
663.88	35997.44
664.02	35388.90
664.17	35761.05
664.31	35159.53
664.45	35658.06
664.59	35384.22
664.73	35749.34
664.88	36039.57
665.02	35381.88
665.16	35796.15
665.30	35438.05
665.44	35786.79
665.59	35543.38
665.73	35187.61
665.87	35159.53
666.01	34742.91
666.15	34717.17
666.29	34993.35
666.44	35248.47
666.58	35086.97
666.72	35157.19
666.86	35218.04
667.00	35304.64
667.14	34600.14
667.28	34745.25
667.43	34684.40
667.57	34590.78
667.71	34609.50
667.85	34586.10
667.99	34417.58
668.13	34602.48
668.27	33907.34
668.41	34532.26
668.56	33951.81
668.70	33832.44
668.84	33708.40
668.98	33766.91
669.12	33989.26
669.26	34356.72
669.40	33975.22
669.54	34061.82
669.68	33893.30
669.82	33673.29
669.96	33179.43
670.10	33397.10
670.25	33584.35
670.39	33659.24
670.53	33345.61
670.67	33237.95
670.81	33530.51
670.95	33528.17
671.09	33371.36
671.23	33256.67
671.37	32968.79
671.51	32971.13
671.65	32898.57
671.79	32507.70
671.93	32914.95
672.07	33057.73
672.21	32826.01
672.35	32573.24
672.49	32591.96
672.63	32582.60
672.77	32329.82
672.91	32442.17
673.05	32165.98
673.19	32563.87
673.33	32488.98
673.47	32577.92
673.61	31934.27
673.75	31756.39
673.89	31700.22
674.03	31630.00
674.17	31466.16
674.31	31264.88
674.45	31728.30
674.59	31833.63
674.73	31990.44
674.87	31908.52
675.01	31541.06
675.15	31524.68
675.29	31182.96
675.43	31559.78
675.56	31164.23
675.70	31122.10
675.84	31056.57
675.98	30127.38
676.12	30981.67
676.26	30719.53
676.40	30754.64
676.54	30469.09
676.68	30778.04
676.82	30024.39
676.96	30436.33
677.10	29916.73
677.23	30169.51
677.37	30064.18
677.51	30043.12
677.65	30115.67
677.79	29692.04
677.93	29961.20
678.07	29628.84
678.21	29460.32
678.34	29605.44
678.48	29207.55
678.62	29022.64
678.76	29010.94
678.90	28950.09
679.04	29088.18
679.18	29099.88
679.31	28493.68
679.45	28720.71
679.59	28491.34
679.73	28400.06
679.87	28493.68
680.00	28666.88
680.14	28266.65
680.28	28105.15
680.42	28041.96
680.56	28025.57
680.70	27971.74
680.83	27718.96
680.97	27583.21
681.11	27498.95
681.25	27456.82
681.39	27861.74
681.52	27234.47
681.66	27627.68
681.80	27564.49
681.94	27300.01
682.07	26876.37
682.21	26735.94
682.35	26771.05
682.49	26979.36
682.62	26841.26
682.76	26405.92
682.90	26504.23
683.04	26621.25
683.17	26480.82
683.31	25935.48
683.45	26490.18
683.59	25947.18
683.72	26176.55
683.86	25827.81
684.00	25710.78
684.13	26150.81
684.27	25905.05
684.41	25834.83
684.55	25600.78
684.68	25380.77
684.82	25413.54
684.96	25266.08
685.09	25062.46
685.23	25111.61
685.37	25055.43
685.50	25025.01
685.64	24945.43
685.78	24554.56
685.91	25207.57
686.05	25214.59
686.19	24507.75
686.32	24566.26
686.46	23885.17
686.60	24306.46
686.73	23749.42
686.87	23660.48
687.01	23737.71
687.14	23634.73
687.28	23461.53
687.42	23367.91
687.55	23543.45
687.69	23243.86
687.82	23321.10
687.96	23143.22
688.10	23288.33
688.23	23309.40
688.37	23042.57
688.50	22689.15
688.64	22389.56
688.78	22757.03
688.91	22668.09
689.05	22515.95
689.18	22097.00
689.32	22082.95
689.46	22192.96
689.59	22611.92
689.73	22366.16
689.86	22181.26
690.00	21951.88
690.13	22253.81
690.27	22068.91
690.41	21806.77
690.54	21624.21
690.68	21411.22
690.81	21713.15
690.95	21146.74
691.08	21053.12
691.22	21301.22
691.35	21355.05
691.49	21186.53
691.62	21303.56
691.76	21205.25
691.89	20994.61
692.03	21027.37
692.16	20790.98
692.30	20870.56
692.43	20458.62
692.57	20467.98
692.70	20563.95
692.84	20467.98
692.97	20514.80
693.11	20381.38
693.24	19903.92
693.38	20072.43
693.51	20016.26
693.65	20070.09
693.78	20020.94
693.92	19803.27
694.05	19484.96
694.19	19349.21
694.32	19660.50
694.45	19627.73
694.59	19396.02
694.72	19117.50
694.86	19197.07
694.99	19033.24
695.13	18792.16
695.26	18735.99
695.39	18848.33
695.53	18888.12
695.66	19037.92
695.80	18937.27
695.93	18537.04
696.07	18457.46
696.20	18782.80
696.33	18410.65
696.47	18125.11
696.60	17933.18
696.73	18015.10
696.87	18300.65
697.00	17928.50
697.14	18052.55
697.27	17914.46
697.40	18071.28
697.54	17542.32
697.67	17678.07
697.80	17839.56
697.94	17280.18
698.07	17556.36
698.21	17708.49
698.34	17399.54
698.47	17179.53
698.61	17001.65
698.74	16851.86
698.87	16978.25
699.01	16795.68
699.14	16666.95
699.27	16791.00
699.40	16788.66
699.54	16390.77
699.67	16472.69
699.80	16519.50
699.94	16226.93
700.07	16383.75
700.20	16126.29
700.34	16226.93
700.47	15882.88
700.60	16170.76
700.73	16308.85
700.87	15976.50
701.00	15815.00
701.13	15917.98
701.26	15974.16
701.40	15763.51
701.53	15641.80
701.66	15667.55
701.79	15641.80
701.93	14939.64
702.06	15232.21
702.19	15194.76
702.32	15309.44
702.46	15164.33
702.59	15110.50
702.72	14902.19
702.85	15110.50
702.99	14986.45
703.12	14869.42
703.25	14899.85
703.38	14923.26
703.51	14551.11
703.65	14551.11
703.78	14869.42
703.91	14555.79
704.04	14230.46
704.17	14370.89
704.31	14317.06
704.44	13862.99
704.57	14043.21
704.70	13965.98
704.83	14071.30
704.96	14064.28
705.10	13940.23
705.23	14017.47
>>>>>End Processed Spectral Data<<<<<
