SpectraSuite Data File
++++++++++++++++++++++++++++++++++++
Date: Fri Oct 25 10:44:52 EDT 2013
User: price-jones
Dark Spectrum Present: No
Reference Spectrum Present: No
Number of Sampled Component Spectra: 1
Spectrometers: USB2+H05261
Integration Time (usec): 100000 (USB2+H05261)
Spectra Averaged: 1 (USB2+H05261)
Boxcar Smoothing: 0 (USB2+H05261)
Correct for Electrical Dark: No (USB2+H05261)
Strobe/Lamp Enabled: No (USB2+H05261)
Correct for Detector Non-linearity: No (USB2+H05261)
Correct for Stray Light: No (USB2+H05261)
Number of Pixels in Processed Spectrum: 2048
>>>>>Begin Processed Spectral Data<<<<<
365.73	161.50
365.92	161.50
366.12	161.50
366.32	16.38
366.52	63.19
366.72	23.41
366.91	0.00
367.11	0.00
367.31	21.06
367.51	65.54
367.70	7.02
367.90	0.00
368.10	0.00
368.30	0.00
368.49	39.79
368.69	56.17
368.89	114.69
369.09	72.56
369.28	91.28
369.48	81.92
369.68	63.19
369.87	98.30
370.07	112.35
370.27	128.73
370.47	229.37
370.66	360.44
370.86	369.80
371.06	442.36
371.25	524.28
371.45	428.32
371.65	470.45
371.84	454.06
372.04	447.04
372.24	458.74
372.44	454.06
372.63	475.13
372.83	477.47
373.03	503.22
373.22	456.40
373.42	557.05
373.62	552.37
373.81	500.87
374.01	578.11
374.21	596.84
374.40	557.05
374.60	552.37
374.79	587.47
374.99	557.05
375.19	594.50
375.38	606.20
375.58	547.69
375.78	561.73
375.97	552.37
376.17	641.31
376.37	603.86
376.56	624.92
376.76	592.16
376.95	638.97
377.15	601.52
377.35	606.20
377.54	589.82
377.74	575.77
377.93	594.50
378.13	648.33
378.33	620.24
378.52	601.52
378.72	664.71
378.91	582.79
379.11	566.41
379.31	645.99
379.50	613.22
379.70	720.88
379.89	657.69
380.09	561.73
380.28	615.56
380.48	683.44
380.68	613.22
380.87	650.67
381.07	653.01
381.26	648.33
381.46	545.34
381.65	671.73
381.85	655.35
382.04	650.67
382.24	669.39
382.43	685.78
382.63	685.78
382.83	638.97
383.02	798.12
383.22	748.97
383.41	688.12
383.61	692.80
383.80	744.29
384.00	692.80
384.19	763.01
384.39	713.86
384.58	683.44
384.78	695.14
384.97	727.91
385.17	753.65
385.36	781.74
385.56	713.86
385.75	720.88
385.95	781.74
386.14	805.14
386.34	809.83
386.53	814.51
386.72	730.25
386.92	828.55
387.11	751.31
387.31	856.64
387.50	755.99
387.70	901.11
387.89	812.17
388.09	727.91
388.28	847.27
388.48	851.96
388.67	908.13
388.86	877.70
389.06	784.08
389.25	903.45
389.45	968.98
389.64	898.77
389.84	943.24
390.03	938.55
390.22	863.66
390.42	870.68
390.61	985.37
390.81	910.47
391.00	964.30
391.19	985.37
391.39	966.64
391.58	959.62
391.78	889.40
391.97	943.24
392.16	957.28
392.36	987.71
392.55	940.90
392.75	1053.24
392.94	990.05
393.13	1004.09
393.33	968.98
393.52	990.05
393.71	973.66
393.91	1004.09
394.10	985.37
394.29	1142.18
394.49	964.30
394.68	1153.88
394.88	1069.62
395.07	1064.94
395.26	1184.31
395.46	1095.37
395.65	1128.14
395.84	1151.54
396.04	1221.76
396.23	1083.67
396.42	1034.52
396.62	1125.80
396.81	1156.22
397.00	1100.05
397.19	1193.67
397.39	1107.07
397.58	1289.64
397.77	1224.10
397.97	1238.14
398.16	1261.55
398.35	1320.06
398.55	1266.23
398.74	1219.42
398.93	1310.70
399.12	1322.40
399.32	1334.11
399.51	1423.05
399.70	1348.15
399.90	1397.30
400.09	1334.11
400.28	1453.47
400.47	1397.30
400.67	1448.79
400.86	1472.20
401.05	1385.60
401.24	1383.26
401.44	1465.18
401.63	1455.81
401.82	1540.07
402.01	1500.28
402.21	1502.62
402.40	1526.03
402.59	1479.22
402.78	1542.41
402.97	1497.94
403.17	1533.05
403.36	1657.10
403.55	1563.48
403.74	1713.27
403.93	1666.46
404.13	1713.27
404.32	1556.46
404.51	1631.35
404.70	1650.08
404.89	1603.27
405.09	1753.06
405.28	1727.32
405.47	1748.38
405.66	1771.79
405.85	1757.74
406.05	1776.47
406.24	1802.21
406.43	1837.32
406.62	1825.62
406.81	1881.79
407.00	1884.13
407.20	1771.79
407.39	1816.26
407.58	2090.10
407.77	1930.94
407.96	1998.82
408.15	1973.07
408.34	2001.16
408.54	1954.35
408.73	2012.86
408.92	1935.62
409.11	2129.89
409.30	1987.11
409.49	2094.78
409.68	2024.56
409.87	2047.97
410.07	2139.25
410.26	2111.16
410.45	2099.46
410.64	2115.84
410.83	2181.38
411.02	2195.42
411.21	2333.51
411.40	2291.38
411.59	2303.09
411.78	2256.28
411.98	2303.09
412.17	2321.81
412.36	2394.37
412.55	2286.70
412.74	2422.45
412.93	2462.24
413.12	2392.03
413.31	2551.18
413.50	2478.63
413.69	2523.10
413.88	2647.15
414.07	2525.44
414.26	2682.25
414.45	2607.36
414.64	2705.66
414.83	2717.36
415.02	2808.64
415.22	2700.98
415.41	2827.37
415.60	2733.75
415.79	2855.45
415.98	2799.28
416.17	2960.78
416.36	2871.84
416.55	2885.88
416.74	2981.84
416.93	2827.37
417.12	3002.91
417.31	2991.20
417.50	3049.72
417.69	3089.51
417.88	3028.65
418.07	2923.33
418.26	3227.60
418.45	3110.57
418.64	3337.60
418.83	3171.43
419.02	3197.17
419.21	3162.06
419.39	3119.93
419.58	3101.21
419.77	3138.66
419.96	3218.24
420.15	3295.47
420.34	3269.73
420.53	3375.05
420.72	3391.44
420.91	3342.28
421.10	3473.36
421.29	3452.29
421.48	3400.80
421.67	3487.40
421.86	3461.65
422.05	3522.51
422.24	3311.86
422.43	3414.84
422.61	3543.57
422.80	3517.83
422.99	3454.63
423.18	3431.23
423.37	3597.40
423.56	3471.01
423.75	3529.53
423.94	3449.95
424.13	3454.63
424.32	3286.11
424.50	3662.94
424.69	3522.51
424.88	3564.64
425.07	3475.70
425.26	3515.48
425.45	3559.95
425.64	3463.99
425.83	3459.31
426.01	3667.62
426.20	3658.26
426.39	3569.32
426.58	3592.72
426.77	3669.96
426.96	3510.80
427.15	3574.00
427.33	3721.45
427.52	3627.83
427.71	3721.45
427.90	3833.80
428.09	3707.41
428.28	3885.29
428.46	3974.23
428.65	3796.35
428.84	3948.48
429.03	3857.20
429.22	3794.01
429.40	3723.79
429.59	3871.25
429.78	3637.19
429.97	3737.84
430.16	3850.18
430.34	3737.84
430.53	3819.75
430.72	3915.72
430.91	3892.31
431.10	4023.38
431.28	4046.79
431.47	4285.52
431.66	4290.20
431.85	4086.58
432.03	4149.77
432.22	4301.90
432.41	4060.83
432.60	4194.24
432.79	4196.58
432.97	4313.61
433.16	4273.82
433.35	4245.73
433.54	4344.03
433.72	4440.00
433.91	4301.90
434.10	4318.29
434.28	4320.63
434.47	4479.79
434.66	4482.13
434.85	4550.00
435.03	4465.74
435.22	4526.60
435.41	4655.33
435.59	4573.41
435.78	4528.94
435.97	4674.05
436.16	4592.13
436.34	4557.02
436.53	4603.83
436.72	4779.37
436.90	4669.37
437.09	4613.20
437.28	4395.53
437.46	4568.73
437.65	4688.09
437.84	4819.16
438.02	4887.04
438.21	4585.11
438.40	4765.33
438.58	4870.65
438.77	4882.36
438.96	4940.87
439.14	5097.69
439.33	5181.95
439.52	5151.52
439.70	5020.45
439.89	5093.01
440.08	5114.07
440.26	5214.71
440.45	5088.32
440.63	5348.12
440.82	5359.83
441.01	5434.72
441.19	5437.06
441.38	5495.58
441.57	5481.53
441.75	5418.34
441.94	5671.12
442.12	5778.78
442.31	5720.27
442.50	5879.43
442.68	5647.71
442.87	5652.39
443.05	5764.74
443.24	5811.55
443.43	5717.93
443.61	5898.15
443.80	6073.69
443.98	5816.23
444.17	5659.42
444.35	5856.02
444.54	5970.71
444.73	5996.45
444.91	5900.49
445.10	5912.19
445.28	5783.46
445.47	5736.65
445.65	5753.04
445.84	6087.73
446.02	6012.84
446.21	5834.96
446.39	6005.81
446.58	5973.05
446.77	6040.92
446.95	5860.70
447.14	6204.76
447.32	6069.01
447.51	6183.70
447.69	6087.73
447.88	6169.65
448.06	6101.78
448.25	6066.67
448.43	6153.27
448.62	6118.16
448.80	6029.22
448.99	6141.57
449.17	5980.07
449.36	6127.52
449.54	6197.74
449.73	6174.33
449.91	6363.92
450.10	6312.42
450.28	6424.77
450.46	6487.96
450.65	6375.62
450.83	6314.77
451.02	6534.78
451.20	6462.22
451.39	6555.84
451.57	6469.24
451.76	6558.18
451.94	6431.79
452.13	6771.17
452.31	6569.88
452.49	6445.84
452.68	6569.88
452.86	6380.30
453.05	6637.76
453.23	6553.50
453.42	6691.59
453.60	6464.56
453.78	6733.72
453.97	6649.46
454.15	6499.67
454.34	6710.32
454.52	6609.67
454.70	6773.51
454.89	7082.46
455.07	6703.29
455.26	6764.15
455.44	6963.09
455.62	6993.52
455.81	6801.60
455.99	7042.67
456.17	7059.06
456.36	7178.42
456.54	7194.81
456.73	7258.00
456.91	7428.86
457.09	7330.56
457.28	7358.64
457.46	7239.28
457.64	7503.76
457.83	7201.83
458.01	7255.66
458.19	7428.86
458.38	7440.56
458.56	7700.36
458.74	7183.10
458.93	7424.18
459.11	7550.57
459.29	7538.87
459.48	7494.40
459.66	7520.14
459.84	7616.10
460.03	7770.58
460.21	7648.87
460.39	7630.15
460.57	7536.52
460.76	7777.60
460.94	7981.23
461.12	7775.26
461.31	7772.92
461.49	7866.54
461.67	7744.83
461.85	8018.68
462.04	7817.39
462.22	8208.26
462.40	8140.38
462.59	8037.40
462.77	8081.87
462.95	8042.08
463.13	8060.80
463.32	8084.21
463.50	8116.98
463.68	8124.00
463.86	8269.11
464.05	8053.78
464.23	8217.62
464.41	8152.09
464.59	8067.83
464.78	8379.12
464.96	8320.60
465.14	8229.32
465.32	8500.83
465.50	8542.96
465.69	8449.33
465.87	8601.47
466.05	8381.46
466.23	8287.84
466.41	8512.53
466.60	8514.87
466.78	8449.33
466.96	8542.96
467.14	8528.91
467.32	8664.66
467.51	8814.46
467.69	8491.46
467.87	8526.57
468.05	8634.24
468.23	8489.12
468.41	8613.17
468.60	8697.43
468.78	8758.28
468.96	8769.99
469.14	8894.04
469.32	8835.52
469.50	8772.33
469.69	9100.00
469.87	8931.48
470.05	8931.48
470.23	9071.92
470.41	9081.28
470.59	8889.35
470.77	9179.58
470.95	8947.87
471.14	9441.72
471.32	9259.16
471.50	9341.08
471.68	9577.47
471.86	9336.40
472.04	9231.07
472.22	9628.96
472.40	9387.89
472.58	9586.83
472.77	9451.08
472.95	9647.69
473.13	10050.26
473.31	9479.17
473.49	9617.26
473.67	9657.05
473.85	9715.56
474.03	9816.21
474.21	10010.47
474.39	10270.27
474.57	9886.42
474.75	9984.73
474.93	10190.69
475.12	9912.17
475.30	10171.97
475.48	10085.37
475.66	10377.94
475.84	10141.54
476.02	10586.24
476.20	10427.09
476.38	10754.76
476.56	10834.34
476.74	10778.17
476.92	10677.52
477.10	10651.78
477.28	10934.98
477.46	11042.65
477.64	11187.76
477.82	11325.85
478.00	11754.17
478.18	11358.62
478.36	11295.43
478.54	11499.05
478.72	11611.40
478.90	11665.23
479.08	11625.44
479.26	11915.67
479.44	12058.44
479.62	12107.59
479.80	12049.08
479.98	12058.44
480.16	12341.64
480.34	12409.52
480.52	12341.64
480.70	12484.42
480.88	12287.81
481.06	12809.75
481.24	13011.04
481.41	13130.41
481.59	12968.91
481.77	12922.10
481.95	13069.55
482.13	13160.83
482.31	13193.60
482.49	13652.34
482.67	13467.44
482.85	13554.04
483.03	13720.22
483.21	14108.75
483.39	14328.76
483.57	13912.14
483.74	14298.33
483.92	14216.41
484.10	14193.01
484.28	14565.15
484.46	14941.98
484.64	14993.47
484.82	14839.00
485.00	15115.18
485.18	15014.54
485.35	15201.78
485.53	15206.46
485.71	15028.58
485.89	15431.15
486.07	15335.19
486.25	15304.76
486.43	15527.11
486.61	15651.16
486.78	15871.17
486.96	16093.52
487.14	16238.64
487.32	16470.35
487.50	16449.28
487.68	16734.83
487.85	16952.50
488.03	17406.56
488.21	17282.52
488.39	17046.12
488.57	17584.44
488.75	17406.56
488.92	17722.54
489.10	17888.71
489.28	17603.17
489.46	18129.79
489.64	17750.62
489.81	18607.26
489.99	18466.83
490.17	18609.60
490.35	18860.04
490.53	18827.27
490.70	19058.98
490.88	18824.93
491.06	19054.30
491.24	19056.64
491.41	19194.73
491.59	19211.12
491.77	19440.49
491.95	19737.74
492.13	19482.62
492.30	19875.83
492.48	19854.76
492.66	20236.27
492.84	19953.07
493.01	20582.67
493.19	20142.65
493.37	20587.35
493.54	20748.85
493.72	21018.01
493.90	20730.12
494.08	21050.78
494.25	21298.88
494.43	21525.91
494.61	21359.73
494.79	21584.42
494.96	21401.86
495.14	21743.58
495.32	22036.14
495.49	21577.40
495.67	22298.28
495.85	22199.98
496.02	22394.25
496.20	22412.97
496.38	22649.36
496.55	22490.21
496.73	23173.64
496.91	23185.35
497.09	23122.15
497.26	22815.54
497.44	23243.86
497.62	23433.44
497.79	23761.12
497.97	23435.78
498.14	23857.08
498.32	23599.62
498.50	23899.21
498.67	24081.77
498.85	24093.47
499.03	24189.44
499.20	24299.44
499.38	24465.62
499.56	24676.27
499.73	24512.43
499.91	24418.81
500.08	24573.28
500.26	24680.95
500.44	24601.37
500.61	24851.81
500.79	24601.37
500.97	24903.30
501.14	25060.12
501.32	25240.34
501.49	25022.67
501.67	25109.27
501.84	25455.67
502.02	25663.97
502.20	25902.71
502.37	25912.07
502.55	25837.17
502.72	25989.31
502.90	26363.79
503.07	25949.52
503.25	26029.10
503.43	26099.31
503.60	26300.60
503.78	26157.83
503.95	26597.85
504.13	26445.71
504.30	26698.49
504.48	26490.18
504.65	27164.26
504.83	26969.99
505.01	27129.15
505.18	27154.90
505.36	27173.62
505.53	27269.58
505.71	27498.95
505.88	27782.16
506.06	27615.98
506.23	27620.66
506.41	27461.51
506.58	27697.90
506.76	27489.59
506.93	27821.95
507.11	27494.27
507.28	27803.22
507.46	28065.36
507.63	27747.05
507.81	28276.01
507.98	28268.99
508.16	28418.78
508.33	28278.35
508.50	28893.91
508.68	28650.50
508.85	28793.27
509.03	28730.08
509.20	28786.25
509.38	28877.53
509.55	29535.22
509.73	29181.80
509.90	29188.82
510.08	29460.32
510.25	29518.84
510.42	29422.87
510.60	29970.56
510.77	29982.26
510.95	29699.06
511.12	29879.28
511.30	29900.34
511.47	30274.83
511.64	30345.05
511.82	30368.45
511.99	30150.78
512.17	30380.15
512.34	30211.64
512.51	30639.95
512.69	30668.04
512.86	30541.65
513.04	30682.08
513.21	30764.00
513.38	30742.94
513.56	30820.17
513.73	30513.56
513.90	30934.86
514.08	30738.26
514.25	31028.48
514.43	31140.83
514.60	30981.67
514.77	30878.69
514.95	31552.76
515.12	31330.41
515.29	31536.38
515.47	32032.57
515.64	31978.74
515.81	31412.33
515.99	31562.12
516.16	31646.38
516.33	31681.49
516.51	32245.56
516.68	31707.24
516.85	31405.31
517.03	31945.97
517.20	31938.95
517.37	32091.09
517.54	32545.15
517.72	32369.61
517.89	32261.94
518.06	31845.33
518.24	32191.73
518.41	32446.85
518.58	32568.55
518.75	32643.45
518.93	32985.17
519.10	32786.22
519.27	32837.72
519.45	32999.21
519.62	33301.14
519.79	33212.20
519.96	32917.29
520.14	33514.13
520.31	33385.40
520.48	32996.87
520.65	33577.33
520.83	34082.88
521.00	33848.83
521.17	33701.37
521.34	33860.53
521.52	33832.44
521.69	34075.86
521.86	34206.93
522.03	34237.36
522.20	34424.60
522.38	34408.22
522.55	34237.36
522.72	34897.39
522.89	34508.86
523.07	34717.17
523.24	34284.17
523.41	34513.54
523.58	34164.80
523.75	35154.85
523.92	34792.06
524.10	34906.75
524.27	35091.65
524.44	35199.32
524.61	35358.47
524.78	35543.38
524.96	35405.28
525.13	35323.36
525.30	35580.82
525.47	35690.83
525.64	35920.20
525.81	35388.90
525.98	35629.98
526.16	35253.15
526.33	35988.08
526.50	35800.83
526.67	35143.14
526.84	35339.75
527.01	35297.62
527.18	35655.72
527.36	36093.40
527.53	36212.77
527.70	36128.51
527.87	36491.29
528.04	36252.56
528.21	36320.43
528.38	36109.78
528.55	36439.80
528.72	36854.08
528.89	36987.49
529.07	36507.68
529.24	36404.69
529.41	36503.00
529.58	36783.86
529.75	36507.68
529.92	36793.22
530.09	36491.29
530.26	36952.38
530.43	37195.79
530.60	36797.90
530.77	37186.43
530.94	37338.57
531.11	37198.13
531.28	37167.71
531.46	37354.95
531.63	37514.11
531.80	37565.60
531.97	37343.25
532.14	37731.78
532.31	37060.04
532.48	37722.41
532.65	37787.95
532.82	37689.65
532.99	37291.76
533.16	37628.79
533.33	37722.41
533.50	38057.11
533.67	38270.10
533.84	37855.82
534.01	37968.17
534.18	37708.37
534.35	38242.01
534.52	37930.72
534.69	38230.31
534.86	38787.36
535.03	37846.46
535.20	38649.27
535.37	38632.88
535.54	38658.63
535.71	38340.32
535.88	39051.84
536.05	38368.40
536.22	38665.65
536.38	38649.27
536.55	38588.41
536.72	38597.77
536.89	38272.44
537.06	38536.92
537.23	39215.68
537.40	39203.97
537.57	39154.82
537.74	39068.22
537.91	39267.17
538.08	38700.76
538.25	38834.17
538.42	38836.51
538.59	39115.03
538.75	38703.10
538.92	39414.62
539.09	39000.35
539.26	39379.51
539.43	39512.92
539.60	39754.00
539.77	39349.09
539.94	39393.56
540.11	39379.51
540.28	39489.52
540.44	39161.84
540.61	39360.79
540.78	39332.70
540.95	39215.68
541.12	39632.29
541.29	39517.60
541.46	39648.68
541.62	39695.49
541.79	40327.43
541.96	39515.26
542.13	39866.34
542.30	39723.57
542.47	40058.27
542.63	40016.14
542.80	40170.61
542.97	40231.47
543.14	40730.00
543.31	40598.93
543.48	40535.74
543.64	41205.13
543.81	40818.94
543.98	40863.41
544.15	40741.71
544.32	41106.83
544.48	40795.54
544.65	40886.82
544.82	40662.13
544.99	40767.45
545.16	41141.94
545.32	40886.82
545.49	41471.95
545.66	41441.53
545.83	40914.90
546.00	41120.87
546.16	41350.24
546.33	40893.84
546.50	40737.02
546.67	41603.02
546.83	40692.55
547.00	40856.39
547.17	41280.03
547.34	41516.42
547.50	41558.55
547.67	41640.47
547.84	41490.68
548.00	41881.55
548.17	41916.65
548.34	41371.31
548.51	41977.51
548.67	42066.45
548.84	41486.00
549.01	41549.19
549.18	41588.98
549.34	42230.29
549.51	41890.91
549.68	41701.32
549.84	42003.25
550.01	42110.92
550.18	42398.80
550.34	41944.74
550.51	41865.16
550.68	42335.61
550.84	41638.13
551.01	42075.81
551.18	42370.72
551.34	42073.47
551.51	42120.28
551.68	42082.83
551.84	42211.56
552.01	41909.63
552.18	42543.92
552.34	42286.46
552.51	42082.83
552.68	42066.45
552.84	43138.41
553.01	42925.42
553.18	42520.51
553.34	42480.72
553.51	42895.00
553.67	42689.03
553.84	42698.39
554.01	43016.71
554.17	42913.72
554.34	42426.89
554.51	42478.38
554.67	42759.25
554.84	42899.68
555.00	42745.20
555.17	42780.31
555.33	42773.29
555.50	42539.24
555.67	42869.25
555.83	43040.11
556.00	43452.05
556.16	43168.84
556.33	43196.93
556.50	43086.92
556.66	43269.48
556.83	42815.42
556.99	42995.64
557.16	42969.90
557.32	43143.09
557.49	43557.37
557.65	42967.55
557.82	43234.38
557.98	43271.82
558.15	43157.14
558.32	43459.07
558.48	43543.33
558.65	43278.85
558.81	43370.13
558.98	43473.11
559.14	43428.64
559.31	43054.15
559.47	43079.90
559.64	43552.69
559.80	43887.39
559.97	43557.37
560.13	43276.51
560.30	43143.09
560.46	43393.53
560.63	43655.67
560.79	44006.75
560.96	43782.06
561.12	43842.92
561.29	43508.22
561.45	43583.12
561.61	43580.78
561.78	43716.53
561.94	43529.28
562.11	43246.08
562.27	43452.05
562.44	43910.79
562.60	44240.81
562.77	43990.37
562.93	44055.90
563.10	43519.92
563.26	43966.96
563.42	43714.19
563.59	43625.25
563.75	43552.69
563.92	43899.09
564.08	44053.56
564.24	43927.17
564.41	44341.45
564.57	44343.79
564.74	44325.07
564.90	43777.38
565.07	43777.38
565.23	44154.21
565.39	44320.38
565.56	44095.69
565.72	43737.59
565.88	43973.98
566.05	43529.28
566.21	44058.24
566.38	43667.37
566.54	44224.42
566.70	44168.25
566.87	44547.42
567.03	44149.53
567.19	44603.59
567.36	44060.58
567.52	44208.04
567.68	44678.49
567.85	44217.40
568.01	44039.52
568.17	43962.28
568.34	44126.12
568.50	44135.48
568.66	43938.88
568.83	44376.56
568.99	43938.88
569.15	44144.84
569.32	44158.89
569.48	43990.37
569.64	44837.64
569.81	44186.97
569.97	44699.55
570.13	44341.45
570.30	43501.20
570.46	44313.36
570.62	44154.21
570.78	44428.05
570.95	44250.17
571.11	44357.83
571.27	44327.41
571.43	44102.71
571.60	44287.62
571.76	43814.83
571.92	44296.98
572.09	44243.15
572.25	44179.95
572.41	44076.97
572.57	44453.79
572.74	45050.63
572.90	44652.74
573.06	44547.42
573.22	44528.69
573.38	43945.90
573.55	44236.12
573.71	44325.07
573.87	44563.80
574.03	43775.04
574.20	44673.81
574.36	44006.75
574.52	44577.84
574.68	44605.93
574.84	44552.10
575.01	43995.05
575.17	44505.29
575.33	44397.62
575.49	43833.55
575.65	44971.05
575.82	44535.71
575.98	44444.43
576.14	44704.23
576.30	44598.91
576.46	44226.76
576.62	44147.18
576.79	44610.61
576.95	44509.97
577.11	44224.42
577.27	44837.64
577.43	44250.17
577.59	44406.98
577.75	43910.79
577.92	44034.84
578.08	44327.41
578.24	44395.28
578.40	44392.94
578.56	44247.83
578.72	44568.48
578.88	44849.35
579.04	44711.25
579.21	44540.39
579.37	44472.52
579.53	44182.29
579.69	44212.72
579.85	44093.35
580.01	44549.76
580.17	44491.24
580.33	44711.25
580.49	44524.01
580.65	44655.08
580.82	44868.07
580.98	44748.70
581.14	44034.84
581.30	44704.23
581.46	44533.37
581.62	44657.42
581.78	44795.51
581.94	44839.98
582.10	44404.64
582.26	44776.79
582.42	44762.75
582.58	44851.69
582.74	44594.23
582.90	44505.29
583.06	44921.90
583.22	44847.00
583.38	44694.87
583.54	44821.26
583.70	44825.94
583.86	44634.02
584.02	44474.86
584.18	44699.55
584.34	44383.58
584.50	44561.46
584.66	44189.31
584.82	44374.22
584.98	44690.19
585.14	44732.32
585.30	44172.93
585.46	44467.84
585.62	44563.80
585.78	44678.49
585.94	44666.78
586.10	44439.75
586.26	44512.31
586.42	44676.15
586.58	44924.24
586.74	44844.66
586.90	44383.58
587.06	44208.04
587.22	45139.57
587.38	44495.92
587.54	44645.72
587.70	44690.19
587.86	44966.37
588.02	44774.45
588.18	44694.87
588.34	44612.95
588.49	44629.34
588.65	44091.01
588.81	43882.70
588.97	44655.08
589.13	44521.67
589.29	44865.73
589.45	44701.89
589.61	44615.29
589.77	45008.50
589.93	45059.99
590.08	45450.86
590.24	44863.39
590.40	45076.38
590.56	45059.99
590.72	44734.66
590.88	44809.56
591.04	44715.93
591.20	45219.15
591.35	45041.27
591.51	45120.85
591.67	45258.94
591.83	44786.15
591.99	44973.39
592.15	44701.89
592.31	44465.50
592.46	44748.70
592.62	44465.50
592.78	45052.97
592.94	45240.21
593.10	44912.54
593.26	44935.95
593.41	44776.79
593.57	44877.43
593.73	44610.61
593.89	45155.96
594.05	44776.79
594.20	44917.22
594.36	45181.70
594.52	44626.99
594.68	44809.56
594.84	44811.90
594.99	45198.09
595.15	44783.81
595.31	45038.93
595.47	44942.97
595.62	44781.47
595.78	44825.94
595.94	45287.03
596.10	45237.87
596.25	45244.90
596.41	45762.15
596.57	44751.04
596.73	45244.90
596.88	44774.45
597.04	45024.89
597.20	44872.75
597.36	45013.18
597.51	45429.80
597.67	45177.02
597.83	45146.59
597.99	45132.55
598.14	45338.52
598.30	45221.49
598.46	44961.69
598.61	45158.30
598.77	44865.73
598.93	44786.15
599.09	44662.10
599.24	45881.52
599.40	45137.23
599.56	45256.60
599.71	44870.41
599.87	44999.14
600.03	45368.94
600.18	45366.60
600.34	45237.87
600.50	45560.87
600.65	44952.33
600.81	45146.59
600.97	45081.06
601.12	45214.47
601.28	44683.17
601.44	44914.88
601.59	45125.53
601.75	44947.65
601.91	44884.45
602.06	45022.54
602.22	45034.25
602.37	44886.79
602.53	44891.48
602.69	44954.67
602.84	45081.06
603.00	44989.78
603.16	44996.80
603.31	44968.71
603.47	44832.96
603.62	44896.16
603.78	45081.06
603.94	44650.40
604.09	45490.65
604.25	45481.29
604.40	45048.29
604.56	45523.42
604.71	45158.30
604.87	44779.13
605.03	45020.20
605.18	44928.92
605.34	44720.62
605.49	44552.10
605.65	45050.63
605.80	45043.61
605.96	45172.34
606.12	45057.65
606.27	45570.23
606.43	44889.13
606.58	45317.45
606.74	44762.75
606.89	44795.51
607.05	44912.54
607.20	45347.88
607.36	44030.16
607.51	44765.09
607.67	44870.41
607.82	45052.97
607.98	44641.04
608.13	44851.69
608.29	44769.77
608.44	44456.14
608.60	44477.20
608.75	44453.79
608.91	44439.75
609.06	44336.77
609.22	45024.89
609.37	44561.46
609.53	44755.72
609.68	44428.05
609.84	44549.76
609.99	44575.50
610.15	44364.85
610.30	44479.54
610.46	44435.07
610.61	44594.23
610.76	44495.92
610.92	44355.49
611.07	44589.55
611.23	44589.55
611.38	44601.25
611.54	44161.23
611.69	44273.57
611.84	44301.66
612.00	44458.48
612.15	44589.55
612.31	44266.55
612.46	44144.84
612.62	44636.36
612.77	44524.01
612.92	44626.99
613.08	44320.38
613.23	44016.11
613.39	44280.60
613.54	43786.74
613.69	43920.15
613.85	44271.23
614.00	44254.85
614.15	44842.32
614.31	44392.94
614.46	44201.02
614.62	44067.61
614.77	44336.77
614.92	43955.26
615.08	43957.60
615.23	43931.86
615.38	44212.72
615.54	43608.86
615.69	43765.68
615.84	43349.06
616.00	43999.73
616.15	43416.94
616.30	44123.78
616.46	43611.20
616.61	43812.49
616.76	43484.81
616.92	43154.80
617.07	43725.89
617.22	43349.06
617.37	43217.99
617.53	43835.89
617.68	43749.29
617.83	43285.87
617.99	43423.96
618.14	43899.09
618.29	43772.70
618.45	43508.22
618.60	43243.74
618.75	43583.12
618.90	43344.38
619.06	43381.83
619.21	43182.88
619.36	43789.08
619.51	43154.80
619.67	43166.50
619.82	43695.46
619.97	43548.01
620.12	43438.00
620.28	42794.36
620.43	42913.72
620.58	43021.39
620.73	43112.67
620.89	43047.13
621.04	43379.49
621.19	43351.40
621.34	43009.68
621.49	43023.73
621.65	43063.52
621.80	43152.46
621.95	42656.26
622.10	42525.19
622.25	42988.62
622.41	42801.38
622.56	42567.32
622.71	42749.88
622.86	42667.97
623.01	42653.92
623.16	42684.35
623.32	42485.40
623.47	42656.26
623.62	42745.20
623.77	42422.21
623.92	42803.72
624.07	42476.04
624.23	42567.32
624.38	42635.20
624.53	42553.28
624.68	42443.27
624.83	42726.48
624.98	42337.95
625.13	41806.65
625.29	42567.32
625.44	42277.10
625.59	42148.37
625.74	41956.44
625.89	41766.86
626.04	41860.48
626.19	42059.43
626.34	42389.44
626.49	42272.42
626.65	42593.07
626.80	42162.41
626.95	42188.16
627.10	41921.34
627.25	42314.55
627.40	41780.90
627.55	41642.81
627.70	41317.48
627.85	41729.41
628.00	41778.56
628.15	41909.63
628.30	41752.82
628.45	41610.04
628.60	41560.89
628.76	42033.68
628.91	41563.23
629.06	41605.36
629.21	41546.85
629.36	41631.11
629.51	41635.79
629.66	41511.74
629.81	41235.56
629.96	41191.09
630.11	41471.95
630.26	41556.21
630.41	41687.28
630.56	41677.92
630.71	41593.66
630.86	41315.14
631.01	41392.37
631.16	41069.38
631.31	41188.75
631.46	41045.97
631.61	40823.62
631.76	40982.78
631.91	41120.87
632.06	41102.15
632.21	41350.24
632.36	41411.10
632.51	40980.44
632.66	41200.45
632.81	40896.18
632.96	40975.76
633.10	40671.49
633.25	41181.73
633.40	40737.02
633.55	41022.57
633.70	41024.91
633.85	40568.51
634.00	41315.14
634.15	41008.53
634.30	40807.24
634.45	40720.64
634.60	40945.33
634.75	40868.09
634.90	40790.86
635.05	40107.42
635.19	40484.25
635.34	41041.29
635.49	40533.40
635.64	40509.99
635.79	40594.25
635.94	40306.37
636.09	40533.40
636.24	40360.20
636.39	39873.37
636.53	40133.17
636.68	40119.12
636.83	40093.38
636.98	40470.20
637.13	39784.43
637.28	40418.71
637.43	40194.02
637.57	40364.88
637.72	40023.16
637.87	40226.79
638.02	40128.48
638.17	40362.54
638.32	40177.64
638.46	39519.95
638.61	39744.64
638.76	39833.58
638.91	39711.87
639.06	39746.98
639.20	40198.70
639.35	40179.98
639.50	39903.79
639.65	40034.86
639.80	40502.97
639.94	40196.36
640.09	39690.80
640.24	39529.31
640.39	39620.59
640.54	39377.17
640.68	39407.60
640.83	39643.99
640.98	39267.17
641.13	39384.19
641.27	39704.85
641.42	39826.56
641.57	39505.90
641.72	39438.03
641.86	39365.47
642.01	38871.62
642.16	39152.48
642.31	38808.42
642.45	39763.36
642.60	39295.25
642.75	39550.37
642.90	39196.95
643.04	39206.31
643.19	39044.82
643.34	39232.06
643.48	39110.35
643.63	38778.00
643.78	38822.47
643.93	38682.03
644.07	38497.13
644.22	39171.21
644.37	39035.45
644.51	38820.13
644.66	39175.89
644.81	38902.04
644.95	38944.17
645.10	39283.55
645.25	38953.54
645.39	38677.35
645.54	38822.47
645.69	38574.37
645.83	38763.95
645.98	38600.12
646.13	39089.29
646.27	38899.70
646.42	38782.68
646.57	38366.06
646.71	38644.59
646.86	39091.63
647.00	38955.88
647.15	38995.67
647.30	38775.66
647.44	38593.09
647.59	38815.44
647.74	38534.58
647.88	38424.57
648.03	38703.10
648.17	38345.00
648.32	38115.62
648.47	38611.82
648.61	38534.58
648.76	38094.56
648.90	38373.08
649.05	38359.04
649.20	38024.34
649.34	38017.32
649.49	38216.27
649.63	37762.20
649.78	37972.85
649.92	38340.32
650.07	38064.13
650.21	37823.06
650.36	38218.61
650.51	38204.56
650.65	38347.34
650.80	38242.01
650.94	38167.12
651.09	38132.01
651.23	38139.03
651.38	37928.38
651.52	38033.71
651.67	38010.30
651.81	37635.81
651.96	37675.60
652.10	37638.15
652.25	37659.22
652.39	37848.80
652.54	37813.70
652.68	37839.44
652.83	37972.85
652.97	37638.15
653.12	37598.37
653.26	37427.51
653.41	37347.93
653.55	37621.77
653.70	37298.78
653.84	37659.22
653.99	37530.49
654.13	37677.94
654.27	37050.68
654.42	37556.24
654.56	37528.15
654.71	37404.10
654.85	37392.40
655.00	37048.34
655.14	36655.13
655.29	36924.29
655.43	37207.50
655.57	37132.60
655.72	36891.52
655.86	36788.54
656.01	36465.55
656.15	36947.70
656.30	36980.46
656.44	36950.04
656.58	36488.95
656.73	36886.84
656.87	36477.25
657.01	36540.44
657.16	37329.20
657.30	36659.81
657.45	36465.55
657.59	37043.66
657.73	36411.71
657.88	36973.44
658.02	36734.71
658.16	36818.97
658.31	36793.22
658.45	36491.29
658.60	36531.08
658.74	36561.51
658.88	36222.13
659.03	36629.38
659.17	36292.35
659.31	36170.64
659.46	36261.92
659.60	36631.72
659.74	36046.59
659.89	36580.23
660.03	35948.29
660.17	35772.75
660.32	35945.95
660.46	36451.50
660.60	36039.57
660.74	36163.62
660.89	35871.05
661.03	35557.42
661.17	35484.86
661.32	35243.79
661.46	35281.24
661.60	35480.18
661.74	35847.64
661.89	35700.19
662.03	35672.10
662.17	35440.39
662.31	35302.30
662.46	35204.00
662.60	35435.71
662.74	35412.31
662.88	34981.65
663.03	35019.10
663.17	34808.45
663.31	34888.03
663.45	35292.94
663.60	35021.44
663.74	34841.21
663.88	34979.31
664.02	34478.43
664.17	35353.79
664.31	34852.92
664.45	34646.95
664.59	35016.75
664.73	34799.08
664.88	34820.15
665.02	33930.75
665.16	34426.94
665.30	34181.18
665.44	34263.10
665.59	34202.25
665.73	34113.31
665.87	33631.16
666.01	34078.20
666.15	34061.82
666.29	33991.60
666.44	34199.91
666.58	33799.68
666.72	34272.46
666.86	33991.60
667.00	33820.74
667.14	33544.56
667.28	33474.34
667.43	33560.94
667.57	33516.47
667.71	33680.31
667.85	33673.29
667.99	33378.38
668.13	33259.01
668.27	33448.60
668.41	33116.24
668.56	33149.01
668.70	33392.42
668.84	33605.41
668.98	32861.12
669.12	32919.63
669.26	32858.78
669.40	32285.35
669.54	32830.69
669.68	32870.48
669.82	32943.04
669.96	32503.02
670.10	32332.16
670.25	33006.23
670.39	32584.94
670.53	31943.63
670.67	32301.73
670.81	32114.49
670.95	32790.91
671.09	32133.21
671.23	32713.67
671.37	32308.76
671.51	31906.18
671.65	31952.99
671.79	31452.12
671.93	31545.74
672.07	31658.09
672.21	32102.79
672.35	31498.93
672.49	31622.98
672.63	31807.88
672.77	31627.66
672.91	31431.05
673.05	31639.36
673.19	31208.70
673.33	30991.03
673.47	31281.26
673.61	30792.09
673.75	30974.65
673.89	30452.71
674.03	30773.36
674.17	30822.51
674.31	30642.29
674.45	30721.87
674.59	30878.69
674.73	30911.46
674.87	30764.00
675.01	30677.40
675.15	30621.23
675.29	30883.37
675.43	30455.05
675.56	30153.12
675.70	30143.76
675.84	30096.95
675.98	29350.32
676.12	30178.87
676.26	29773.95
676.40	29867.58
676.54	29888.64
676.68	29713.10
676.82	29490.75
676.96	29806.72
677.10	29612.46
677.23	29289.46
677.37	29053.07
677.51	28973.49
677.65	29158.39
677.79	28549.85
677.93	28870.51
678.07	28582.62
678.21	28217.50
678.34	28320.48
678.48	28116.86
678.62	28077.07
678.76	28016.21
678.90	28205.80
679.04	27758.75
679.18	28067.70
679.31	27550.45
679.45	27583.21
679.59	27150.21
679.73	27576.19
679.87	27433.42
680.00	27285.97
680.14	27105.74
680.28	27201.71
680.42	27351.50
680.56	27351.50
680.70	27145.53
680.83	27012.12
680.97	27077.66
681.11	27452.14
681.25	26497.20
681.39	26539.33
681.52	26476.14
681.66	26808.50
681.80	26469.12
681.94	26141.44
682.07	26412.95
682.21	26436.35
682.35	26132.08
682.49	26082.93
682.62	26008.03
682.76	26019.74
682.90	25701.42
683.04	25795.04
683.17	25493.12
683.31	25816.11
683.45	25373.75
683.59	25514.18
683.72	25146.72
683.86	25146.72
684.00	25153.74
684.13	25348.00
684.27	24786.27
684.41	24730.10
684.55	24683.29
684.68	24816.70
684.82	24379.02
684.96	24556.90
685.09	24510.09
685.23	24533.50
685.37	24510.09
685.50	24435.19
685.64	24091.13
685.78	24128.58
685.91	24238.59
686.05	23641.75
686.19	23810.27
686.32	23777.50
686.46	23183.01
686.60	23346.84
686.73	23690.90
686.87	23124.49
687.01	22843.63
687.14	22948.95
687.28	23012.15
687.42	22824.90
687.55	22827.24
687.69	23028.53
687.82	22860.01
687.96	22766.39
688.10	22780.43
688.23	22391.91
688.37	22427.01
688.50	22319.35
688.64	22150.83
688.78	22153.17
688.91	22176.58
689.05	22424.67
689.18	22059.55
689.32	21797.41
689.46	21888.69
689.59	21820.81
689.73	21923.80
689.86	21673.36
690.00	21495.48
690.13	21401.86
690.27	21329.30
690.41	20900.98
690.54	21032.05
690.68	20999.29
690.81	21102.27
690.95	20844.81
691.08	20826.09
691.22	20943.11
691.35	20996.95
691.49	21048.44
691.62	20467.98
691.76	20732.47
691.89	20042.01
692.03	20304.15
692.16	19915.62
692.30	20336.91
692.43	20180.10
692.57	19765.82
692.70	19817.32
692.84	19534.11
692.97	19693.27
693.11	19456.87
693.24	19363.25
693.38	19473.26
693.51	19475.60
693.65	19704.97
693.78	19758.80
693.92	19653.48
694.05	18981.74
694.19	19087.07
694.32	18906.85
694.45	18970.04
694.59	18733.65
694.72	19021.53
694.86	18895.14
694.99	18403.63
695.13	18644.71
695.26	18324.05
695.39	18405.97
695.53	18651.73
695.66	18506.62
695.80	18298.31
695.93	18185.96
696.07	17987.02
696.20	18167.24
696.33	18099.36
696.47	17837.22
696.60	17584.44
696.73	17661.68
696.87	17666.36
697.00	17525.93
697.14	17436.99
697.27	17366.78
697.40	17451.03
697.54	17539.97
697.67	17137.40
697.80	17081.23
697.94	16514.82
698.07	16692.70
698.21	16697.38
698.34	16978.25
698.47	16685.68
698.61	16411.84
698.74	16229.27
698.87	16297.15
699.01	15934.37
699.14	15920.32
699.27	16159.06
699.40	16203.53
699.54	15985.86
699.67	15983.52
699.80	16210.55
699.94	16201.19
700.07	16065.44
700.20	15742.44
700.34	15686.27
700.47	15562.22
700.60	15800.96
700.73	15819.68
700.87	15770.53
701.00	15433.49
701.13	15611.37
701.26	15295.40
701.40	15264.97
701.53	15000.49
701.66	14970.07
701.79	14972.41
701.93	14946.66
702.06	14813.25
702.19	14801.55
702.32	14806.23
702.46	14689.20
702.59	14567.49
702.72	14382.59
702.85	14679.84
702.99	14555.79
703.12	14483.24
703.25	14354.51
703.38	14160.24
703.51	14134.50
703.65	14052.58
703.78	14307.69
703.91	14169.60
704.04	13654.69
704.17	13951.93
704.31	13996.40
704.44	13933.21
704.57	13916.83
704.70	13666.39
704.83	13514.25
704.96	13708.52
705.10	13603.19
705.23	13486.17
>>>>>End Processed Spectral Data<<<<<
