SpectraSuite Data File
++++++++++++++++++++++++++++++++++++
Date: Fri Oct 25 10:44:12 EDT 2013
User: price-jones
Dark Spectrum Present: No
Reference Spectrum Present: No
Number of Sampled Component Spectra: 1
Spectrometers: USB2+H05261
Integration Time (usec): 100000 (USB2+H05261)
Spectra Averaged: 1 (USB2+H05261)
Boxcar Smoothing: 0 (USB2+H05261)
Correct for Electrical Dark: No (USB2+H05261)
Strobe/Lamp Enabled: No (USB2+H05261)
Correct for Detector Non-linearity: No (USB2+H05261)
Correct for Stray Light: No (USB2+H05261)
Number of Pixels in Processed Spectrum: 2048
>>>>>Begin Processed Spectral Data<<<<<
365.73	163.84
365.92	163.84
366.12	163.84
366.32	63.19
366.52	0.00
366.72	32.77
366.91	0.00
367.11	23.41
367.31	44.47
367.51	0.00
367.70	37.45
367.90	2.34
368.10	0.00
368.30	32.77
368.49	0.00
368.69	44.47
368.89	107.66
369.09	79.58
369.28	35.11
369.48	16.38
369.68	102.98
369.87	86.60
370.07	154.48
370.27	145.11
370.47	222.35
370.66	351.08
370.86	353.42
371.06	397.89
371.25	521.94
371.45	458.74
371.65	517.26
371.84	472.79
372.04	442.36
372.24	531.30
372.44	435.34
372.63	475.13
372.83	496.19
373.03	540.66
373.22	463.43
373.42	550.03
373.62	505.56
373.81	554.71
374.01	664.71
374.21	603.86
374.40	533.64
374.60	514.92
374.79	528.96
374.99	547.69
375.19	533.64
375.38	608.54
375.58	594.50
375.78	645.99
375.97	589.82
376.17	685.78
376.37	571.09
376.56	638.97
376.76	620.24
376.95	615.56
377.15	629.60
377.35	603.86
377.54	653.01
377.74	606.20
377.93	620.24
378.13	671.73
378.33	617.90
378.52	629.60
378.72	664.71
378.91	720.88
379.11	617.90
379.31	678.76
379.50	596.84
379.70	599.18
379.89	678.76
380.09	629.60
380.28	634.29
380.48	699.82
380.68	674.07
380.87	711.52
381.07	716.20
381.26	730.25
381.46	685.78
381.65	697.48
381.85	702.16
382.04	725.57
382.24	753.65
382.43	683.44
382.63	648.33
382.83	657.69
383.02	791.10
383.22	718.54
383.41	674.07
383.61	830.89
383.80	784.08
384.00	718.54
384.19	767.70
384.39	805.14
384.58	809.83
384.78	748.97
384.97	685.78
385.17	807.48
385.36	791.10
385.56	802.80
385.75	805.14
385.95	786.42
386.14	802.80
386.34	821.53
386.53	896.43
386.72	805.14
386.92	866.00
387.11	882.38
387.31	880.04
387.50	800.46
387.70	884.72
387.89	835.57
388.09	905.79
388.28	999.41
388.48	863.66
388.67	971.32
388.86	915.15
389.06	908.13
389.25	976.00
389.45	929.19
389.64	875.36
389.84	1015.79
390.03	950.26
390.22	929.19
390.42	973.66
390.61	1013.45
390.81	1013.45
391.00	1137.50
391.19	1015.79
391.39	1146.86
391.58	1011.11
391.78	1015.79
391.97	1093.03
392.16	1095.37
392.36	1025.15
392.55	952.60
392.75	1015.79
392.94	910.47
393.13	1011.11
393.33	945.58
393.52	1011.11
393.71	929.19
393.91	1142.18
394.10	1172.61
394.29	1090.69
394.49	1203.04
394.68	1200.69
394.88	1238.14
395.07	1104.73
395.26	1205.38
395.46	1259.21
395.65	1259.21
395.84	1186.65
396.04	1233.46
396.23	1165.59
396.42	1149.20
396.62	1235.80
396.81	1165.59
397.00	1299.00
397.19	1242.82
397.39	1270.91
397.58	1289.64
397.77	1357.51
397.97	1444.11
398.16	1373.89
398.35	1446.45
398.55	1479.22
398.74	1460.49
398.93	1504.96
399.12	1390.28
399.32	1451.13
399.51	1558.80
399.70	1537.73
399.90	1476.88
400.09	1486.24
400.28	1547.09
400.47	1551.78
400.67	1565.82
400.86	1689.87
401.05	1589.22
401.24	1708.59
401.44	1692.21
401.63	1720.29
401.82	1621.99
402.01	1675.82
402.21	1699.23
402.40	1689.87
402.59	1671.14
402.78	1701.57
402.97	1708.59
403.17	1703.91
403.36	1746.04
403.55	1834.98
403.74	1844.34
403.93	1905.20
404.13	1856.04
404.32	1865.41
404.51	1832.64
404.70	1916.90
404.89	2015.20
405.09	1884.13
405.28	1928.60
405.47	1844.34
405.66	1921.58
405.85	1942.64
406.05	2005.84
406.24	1963.71
406.43	1996.48
406.62	1994.14
406.81	2108.82
407.00	2008.18
407.20	2036.27
407.39	2108.82
407.58	2090.10
407.77	2104.14
407.96	2195.42
408.15	2366.28
408.34	2282.02
408.54	2174.36
408.73	2223.51
408.92	2366.28
409.11	2434.16
409.30	2270.32
409.49	2162.66
409.68	2277.34
409.87	2260.96
410.07	2331.17
410.26	2298.41
410.45	2438.84
410.64	2443.52
410.83	2401.39
411.02	2438.84
411.21	2576.93
411.40	2581.61
411.59	2513.74
411.78	2602.68
411.98	2497.35
412.17	2628.42
412.36	2605.02
412.55	2574.59
412.74	2778.22
412.93	2623.74
413.12	2799.28
413.31	2796.94
413.50	2794.60
413.69	2768.85
413.88	2892.90
414.07	2951.42
414.26	2850.77
414.45	2899.92
414.64	2909.29
414.83	2946.73
415.02	2925.67
415.22	3119.93
415.41	3059.08
415.60	3056.74
415.79	3218.24
415.98	3248.66
416.17	3136.32
416.36	3180.79
416.55	3119.93
416.74	3243.98
416.93	3190.15
417.12	3258.03
417.31	3283.77
417.50	3262.71
417.69	3353.99
417.88	3396.12
418.07	3496.76
418.26	3419.52
418.45	3442.93
418.64	3634.85
418.83	3461.65
419.02	3641.87
419.21	3527.19
419.39	3459.31
419.58	3454.63
419.77	3564.64
419.96	3676.98
420.15	3611.45
420.34	3552.93
420.53	3691.02
420.72	3705.07
420.91	3854.86
421.10	3868.91
421.29	3873.59
421.48	3684.00
421.67	3875.93
421.86	3737.84
422.05	3836.14
422.24	3707.41
422.43	3875.93
422.61	3791.67
422.80	3784.65
422.99	3906.35
423.18	3901.67
423.37	3960.19
423.56	3920.40
423.75	3974.23
423.94	3894.65
424.13	3686.34
424.32	3779.97
424.50	3955.51
424.69	3878.27
424.88	3962.53
425.07	3899.33
425.26	3999.98
425.45	3850.18
425.64	3761.24
425.83	3885.29
426.01	4002.32
426.20	3967.21
426.39	4030.40
426.58	3901.67
426.77	4035.08
426.96	3859.54
427.15	4025.72
427.33	3936.78
427.52	3971.89
427.71	4189.56
427.90	3941.46
428.09	3992.95
428.28	4184.88
428.46	4182.54
428.65	4098.28
428.84	4156.79
429.03	4088.92
429.22	4067.85
429.40	4114.66
429.59	4156.79
429.78	3904.01
429.97	3997.64
430.16	3995.29
430.34	4065.51
430.53	4161.47
430.72	4119.34
430.91	4208.28
431.10	4070.19
431.28	4528.94
431.47	4566.39
431.66	4624.90
431.85	4545.32
432.03	4507.87
432.22	4573.41
432.41	4669.37
432.60	4685.75
432.79	4638.94
432.97	4781.71
433.16	4676.39
433.35	4526.60
433.54	4690.43
433.72	4727.88
433.91	4517.23
434.10	4725.54
434.28	4741.93
434.47	4823.84
434.66	4809.80
434.85	4926.83
435.03	4788.74
435.22	4858.95
435.41	5093.01
435.59	4915.12
435.78	4980.66
435.97	5076.62
436.16	5034.49
436.34	4987.68
436.53	5060.24
436.72	5114.07
436.90	5020.45
437.09	5142.16
437.28	5163.22
437.46	5081.30
437.65	5235.78
437.84	5001.72
438.02	4968.96
438.21	5097.69
438.40	5111.73
438.58	5331.74
438.77	5369.19
438.96	5434.72
439.14	5362.17
439.33	5626.65
439.52	5575.16
439.70	5549.41
439.89	5511.96
440.08	5640.69
440.26	5692.18
440.45	5584.52
440.63	5631.33
440.82	5743.67
441.01	5926.24
441.19	5991.77
441.38	5919.21
441.57	5980.07
441.75	6169.65
441.94	6282.00
442.12	6338.17
442.31	6359.24
442.50	6242.21
442.68	6279.66
442.87	6389.66
443.05	6373.28
443.24	6417.75
443.43	6232.85
443.61	6473.92
443.80	6462.22
443.98	6396.68
444.17	6080.71
444.35	6502.01
444.54	6504.35
444.73	6539.46
444.91	6314.77
445.10	6424.77
445.28	6279.66
445.47	6272.64
445.65	6417.75
445.84	6497.33
446.02	6509.03
446.21	6509.03
446.39	6525.41
446.58	6499.67
446.77	6724.36
446.95	6502.01
447.14	6733.72
447.32	6644.78
447.51	6600.31
447.69	6473.92
447.88	6548.82
448.06	6817.98
448.25	6738.40
448.43	6565.20
448.62	6670.53
448.80	6801.60
448.99	6628.40
449.17	6803.94
449.36	6651.80
449.54	6834.36
449.73	6939.69
449.91	6970.12
450.10	7052.03
450.28	7054.37
450.46	7009.90
450.65	7279.07
450.83	7157.36
451.02	7115.23
451.20	7105.87
451.39	7124.59
451.57	7187.79
451.76	6960.75
451.94	7091.82
452.13	7201.83
452.31	7279.07
452.49	6974.80
452.68	7124.59
452.86	7248.64
453.05	7258.00
453.23	7255.66
453.42	7138.63
453.60	7164.38
453.78	7419.50
453.97	7133.95
454.15	7176.08
454.34	7267.36
454.52	7489.71
454.70	7356.30
454.89	7314.17
455.07	7506.10
455.26	7375.03
455.44	7646.53
455.62	7623.12
455.81	7679.30
455.99	7573.97
456.17	7836.11
456.36	7826.75
456.54	7978.89
456.73	7815.05
456.91	7962.50
457.09	8049.10
457.28	8088.89
457.46	7868.88
457.64	8049.10
457.83	8011.65
458.01	7967.18
458.19	8231.66
458.38	8070.17
458.56	8189.53
458.74	8053.78
458.93	8163.79
459.11	8229.32
459.29	8226.98
459.48	8095.91
459.66	8212.94
459.84	8273.79
460.03	8510.19
460.21	8308.90
460.39	8418.91
460.57	8301.88
460.76	8367.42
460.94	8589.77
461.12	8266.77
461.31	8524.23
461.49	8526.57
461.67	8542.96
461.85	8830.84
462.04	8667.00
462.22	8898.72
462.40	8926.80
462.59	8599.13
462.77	8741.90
462.95	8865.95
463.13	8720.84
463.32	8805.10
463.50	8865.95
463.68	8720.84
463.86	9022.77
464.05	8713.81
464.23	8823.82
464.41	8990.00
464.59	8781.69
464.78	9015.74
464.96	9090.64
465.14	9125.75
465.32	9240.44
465.50	9242.78
465.69	9125.75
465.87	9018.08
466.05	9151.49
466.23	9191.28
466.41	9057.87
466.60	9399.59
466.78	9207.67
466.96	9217.03
467.14	9322.35
467.32	9062.55
467.51	9378.53
467.69	9277.88
467.87	9298.95
468.05	9296.61
468.23	9312.99
468.41	9331.72
468.60	9495.55
468.78	9472.15
468.96	9362.14
469.14	9666.41
469.32	9907.49
469.50	9357.46
469.69	9495.55
469.87	9696.84
470.05	9654.71
470.23	9724.93
470.41	9624.28
470.59	9841.95
470.77	9788.12
470.95	9930.89
471.14	10263.25
471.32	9982.38
471.50	10260.91
471.68	10097.07
471.86	10382.62
472.04	10209.42
472.22	10586.24
472.40	10221.12
472.58	10375.59
472.77	10296.02
472.95	10443.47
473.13	10745.40
473.31	10490.28
473.49	10333.47
473.67	10324.10
473.85	10686.89
474.03	10775.83
474.21	10721.99
474.39	11014.56
474.57	10972.43
474.75	11063.71
474.93	11082.44
475.12	11007.54
475.30	11030.94
475.48	11049.67
475.66	11302.45
475.84	11164.36
476.02	11360.96
476.20	11300.11
476.38	11499.05
476.56	11726.08
476.74	11836.09
476.92	11723.74
477.10	11817.36
477.28	11943.75
477.46	11992.90
477.64	12004.61
477.82	12287.81
478.00	12390.80
478.18	12346.33
478.36	12468.03
478.54	12697.41
478.72	12713.79
478.90	12727.83
479.08	12664.64
479.26	12966.57
479.44	13008.70
479.62	13280.20
479.80	13146.79
479.98	13064.87
480.16	13509.57
480.34	13596.17
480.52	13661.71
480.70	13612.56
480.88	13687.45
481.06	13813.84
481.24	13748.31
481.41	14274.93
481.59	14347.48
481.77	14031.51
481.95	14190.67
482.13	14490.26
482.31	14616.65
482.49	14743.03
482.67	14761.76
482.85	14789.85
483.03	15080.07
483.21	14956.02
483.39	15199.44
483.57	15115.18
483.74	15618.39
483.92	15513.07
484.10	15487.32
484.28	15674.57
484.46	15791.59
484.64	16091.18
484.82	16011.60
485.00	16023.31
485.18	16280.77
485.35	16374.39
485.53	16156.72
485.71	15992.88
485.89	16411.84
486.07	16404.81
486.25	16334.60
486.43	16833.13
486.61	16723.13
486.78	17092.93
486.96	17055.48
487.14	17694.45
487.32	17483.80
487.50	17799.77
487.68	18260.86
487.85	18078.30
488.03	18408.31
488.21	18312.35
488.39	18548.75
488.57	18368.52
488.75	18614.28
488.92	19140.90
489.10	19241.54
489.28	19138.56
489.46	19295.38
489.64	19866.47
489.81	19910.94
489.99	20025.62
490.17	20032.65
490.35	19915.62
490.53	20051.37
490.70	20517.14
490.88	20615.44
491.06	20671.61
491.24	20601.40
491.41	20362.66
491.59	20863.54
491.77	20620.12
491.95	21097.59
492.13	20999.29
492.30	21472.07
492.48	21383.13
492.66	21687.40
492.84	21570.38
493.01	21579.74
493.19	21869.97
493.37	22085.30
493.54	22132.11
493.72	22473.82
493.90	22476.16
494.08	22932.57
494.25	22799.16
494.43	22551.06
494.61	23080.02
494.79	23459.19
494.96	23131.51
495.14	23311.74
495.32	23498.98
495.49	23384.29
495.67	23786.86
495.85	23934.32
496.02	24180.07
496.20	23995.17
496.38	24102.84
496.55	24388.38
496.73	24840.11
496.91	24482.00
497.09	24753.51
497.26	25153.74
497.44	24800.32
497.62	25294.17
497.79	25259.06
497.97	24915.00
498.14	25200.55
498.32	25710.78
498.50	25338.64
498.67	25912.07
498.85	25830.15
499.03	26115.70
499.20	25937.82
499.38	26218.68
499.56	26288.90
499.73	26656.36
499.91	26312.30
500.08	26452.73
500.26	26068.89
500.44	26155.49
500.61	26717.22
500.79	26607.21
500.97	26560.40
501.14	26920.84
501.32	26693.81
501.49	26944.25
501.67	26700.83
501.84	26902.12
502.02	27618.32
502.20	27718.96
502.37	27529.38
502.55	27482.57
502.72	27765.78
502.90	27669.81
503.07	27716.62
503.25	27824.29
503.43	27669.81
503.60	28027.92
503.78	27688.54
503.95	27793.86
504.13	28437.51
504.30	28425.81
504.48	28451.55
504.65	29109.24
504.83	28900.94
505.01	29142.01
505.18	28875.19
505.36	29315.21
505.53	29528.20
505.71	29415.85
505.88	29631.18
506.06	28811.99
506.23	29654.59
506.41	29525.86
506.58	29462.66
506.76	29795.02
506.93	29921.41
507.11	29851.19
507.28	29717.78
507.46	29890.98
507.63	29502.45
507.81	30153.12
507.98	29930.77
508.16	30302.92
508.33	30092.27
508.50	30810.81
508.68	30693.79
508.85	30745.28
509.03	30883.37
509.20	30597.82
509.38	31339.77
509.55	31094.02
509.73	31192.32
509.90	30745.28
510.08	31089.34
510.25	31140.83
510.42	31295.30
510.60	31646.38
510.77	31456.80
510.95	32175.34
511.12	31573.83
511.30	32222.16
511.47	32830.69
511.64	32311.10
511.82	32254.92
511.99	32116.83
512.17	32313.44
512.34	31735.32
512.51	32311.10
512.69	32629.41
512.86	32800.27
513.04	32800.27
513.21	33083.47
513.38	32753.46
513.56	32692.60
513.73	32390.67
513.90	32975.81
514.08	33078.79
514.25	33170.07
514.43	33179.43
514.60	33181.77
514.77	33123.26
514.95	33603.07
515.12	33343.27
515.29	33242.63
515.47	33937.77
515.64	34057.14
515.81	33790.31
515.99	33263.69
516.16	33324.55
516.33	33635.84
516.51	33097.52
516.68	33261.35
516.85	33240.29
517.03	33041.34
517.20	33603.07
517.37	34134.37
517.54	34433.96
517.72	33902.66
517.89	34024.37
518.06	33958.83
518.24	34064.16
518.41	34211.61
518.58	34281.83
518.75	34244.38
518.93	34621.20
519.10	34279.49
519.27	34792.06
519.45	35388.90
519.62	34988.67
519.79	35215.70
519.96	34932.50
520.14	34986.33
520.31	35110.38
520.48	35180.59
520.65	35157.19
520.83	35744.66
521.00	35625.29
521.17	35742.32
521.34	35599.55
521.52	35665.08
521.69	36275.96
521.86	36254.90
522.03	35885.09
522.20	36144.89
522.38	36385.97
522.55	36278.30
522.72	35770.41
522.89	36243.20
523.07	36261.92
523.24	36767.48
523.41	36708.96
523.58	36463.21
523.75	37160.69
523.92	37230.90
524.10	37488.36
524.27	37163.03
524.44	37205.16
524.61	37432.19
524.78	37029.62
524.96	37546.87
525.13	37368.99
525.30	37867.53
525.47	37572.62
525.64	37724.75
525.81	36943.02
525.98	37574.96
526.16	37200.47
526.33	37141.96
526.50	37500.06
526.67	37254.31
526.84	37422.83
527.01	37357.29
527.18	37942.42
527.36	38129.67
527.53	38010.30
527.70	38307.55
527.87	38394.15
528.04	38117.96
528.21	38232.65
528.38	38113.28
528.55	38635.22
528.72	38756.93
528.89	38604.80
529.07	38579.05
529.24	38473.73
529.41	38328.61
529.58	38518.20
529.75	38834.17
529.92	38850.55
530.09	38895.02
530.26	39068.22
530.43	39192.27
530.60	38906.73
530.77	38918.43
530.94	39178.23
531.11	39002.69
531.28	39634.63
531.46	39206.31
531.63	39517.60
531.80	39484.84
531.97	39337.38
532.14	39526.97
532.31	39178.23
532.48	39470.79
532.65	39796.13
532.82	39716.55
532.99	39503.56
533.16	39681.44
533.33	39763.36
533.50	40116.78
533.67	40107.42
533.84	39641.65
534.01	39880.39
534.18	39475.48
534.35	40076.99
534.52	39878.05
534.69	40144.87
534.86	40388.28
535.03	40275.94
535.20	40779.15
535.37	40591.91
535.54	40737.02
535.71	39978.69
535.88	40636.38
536.05	40165.93
536.22	40238.49
536.38	40467.86
536.55	40470.20
536.72	40545.10
536.89	40039.54
537.06	40711.28
537.23	41284.71
537.40	40849.37
537.57	40975.76
537.74	40760.43
537.91	41125.55
538.08	40762.77
538.25	41022.57
538.42	40877.46
538.59	41565.57
538.75	40730.00
538.92	40975.76
539.09	41357.27
539.26	41235.56
539.43	40840.01
539.60	41535.15
539.77	41062.36
539.94	40964.06
540.11	41214.49
540.28	41488.34
540.44	41420.46
540.61	41586.64
540.78	41549.19
540.95	41214.49
541.12	41553.87
541.29	41287.05
541.46	41844.10
541.62	41478.97
541.79	41874.52
541.96	41525.78
542.13	41801.97
542.30	41478.97
542.47	41954.10
542.63	42012.62
542.80	42295.82
542.97	42412.85
543.14	42658.60
543.31	42567.32
543.48	42597.75
543.64	43182.88
543.81	42602.43
543.98	42820.10
544.15	42391.78
544.32	42600.09
544.48	42909.04
544.65	42653.92
544.82	42749.88
544.99	42176.45
545.16	42869.25
545.32	42576.69
545.49	42813.08
545.66	42972.24
545.83	42787.33
546.00	43182.88
546.16	42721.80
546.33	43281.19
546.50	42752.23
546.67	43019.05
546.83	42607.11
547.00	42962.87
547.17	42955.85
547.34	43229.69
547.50	43253.10
547.67	43239.06
547.84	43145.44
548.00	43723.55
548.17	43498.86
548.34	43283.53
548.51	43646.31
548.67	43938.88
548.84	43519.92
549.01	43512.90
549.18	43414.60
549.34	43746.95
549.51	44053.56
549.68	43929.51
549.84	43761.00
550.01	44102.71
550.18	43723.55
550.34	44030.16
550.51	43622.90
550.68	43758.66
550.84	43470.77
551.01	43821.85
551.18	43856.96
551.34	43941.22
551.51	44186.97
551.68	44538.05
551.84	44215.06
552.01	43688.44
552.18	44060.58
552.34	43936.54
552.51	43903.77
552.68	43866.32
552.84	44161.23
553.01	44685.51
553.18	44320.38
553.34	44280.60
553.51	44037.18
553.67	44402.30
553.84	44451.45
554.01	44467.84
554.17	44882.11
554.34	44964.03
554.51	44891.48
554.67	44837.64
554.84	44685.51
555.00	44257.19
555.17	44704.23
555.33	44605.93
555.50	44488.90
555.67	44907.86
555.83	44701.89
556.00	44802.53
556.16	45153.62
556.33	44650.40
556.50	44690.19
556.66	44692.53
556.83	44369.54
556.99	45244.90
557.16	45090.42
557.32	44699.55
557.49	45008.50
557.65	44397.62
557.82	44886.79
557.98	45132.55
558.15	44868.07
558.32	45235.53
558.48	44767.43
558.65	45095.10
558.81	44957.01
558.98	44582.52
559.14	44889.13
559.31	45387.67
559.47	45272.98
559.64	45385.33
559.80	45633.42
559.97	44882.11
560.13	44884.45
560.30	45209.79
560.46	45165.32
560.63	45595.98
560.79	45254.26
560.96	45790.24
561.12	44898.50
561.29	45556.19
561.45	44980.42
561.61	45656.83
561.78	45308.09
561.94	45249.58
562.11	45310.43
562.27	45514.06
562.44	45162.98
562.60	45745.77
562.77	45720.02
562.93	45617.04
563.10	45476.61
563.26	45345.54
563.42	45675.55
563.59	45254.26
563.75	45378.31
563.92	45801.94
564.08	45268.30
564.24	45418.10
564.41	45551.51
564.57	45254.26
564.74	45514.06
564.90	45230.85
565.07	45886.20
565.23	45631.08
565.39	45361.92
565.56	45879.18
565.72	45324.47
565.88	45607.68
566.05	45256.60
566.21	45902.59
566.38	45607.68
566.54	45731.73
566.70	46136.64
566.87	45925.99
567.03	45523.42
567.19	46040.68
567.36	46232.60
567.52	45436.82
567.68	46007.91
567.85	45881.52
568.01	45432.14
568.17	45598.32
568.34	45869.82
568.50	45741.09
568.66	45890.88
568.83	45542.14
568.99	45619.38
569.15	45708.32
569.32	45413.41
569.48	45471.93
569.64	45485.97
569.81	45858.12
569.97	45638.11
570.13	45439.16
570.30	45567.89
570.46	45237.87
570.62	45443.84
570.78	45734.07
570.95	46031.32
571.11	45872.16
571.27	45759.81
571.43	45446.18
571.60	45876.84
571.76	45790.24
571.92	46136.64
572.09	45942.38
572.25	45694.28
572.41	45750.45
572.57	46021.95
572.74	46401.12
572.90	45872.16
573.06	46054.72
573.22	45801.94
573.38	45862.80
573.55	45869.82
573.71	46101.53
573.87	46223.24
574.03	45659.17
574.20	45848.75
574.36	45893.22
574.52	46134.30
574.68	46405.80
574.84	46007.91
575.01	45654.49
575.17	45846.41
575.33	45738.75
575.49	45556.19
575.65	45963.44
575.82	46024.29
575.98	45619.38
576.14	45902.59
576.30	46031.32
576.46	46333.24
576.62	45759.81
576.79	45570.23
576.95	45549.17
577.11	46007.91
577.27	45673.21
577.43	46394.10
577.59	45888.54
577.75	45844.07
577.92	45111.49
578.08	45521.08
578.24	45588.95
578.40	45844.07
578.56	45734.07
578.72	45785.56
578.88	45851.09
579.04	46256.01
579.21	45886.20
579.37	46115.58
579.53	46225.58
579.69	45911.95
579.85	46117.92
580.01	46150.68
580.17	46188.13
580.33	46263.03
580.49	46094.51
580.65	46141.32
580.82	46401.12
580.98	45696.62
581.14	46000.89
581.30	46323.88
581.46	46143.66
581.62	46157.70
581.78	46028.98
581.94	46052.38
582.10	46270.05
582.26	45949.40
582.42	45869.82
582.58	46057.06
582.74	45703.64
582.90	46284.09
583.06	46281.75
583.22	46358.99
583.38	46321.54
583.54	46550.91
583.70	46213.88
583.86	46253.67
584.02	46017.27
584.18	46000.89
584.34	45715.34
584.50	45893.22
584.66	46019.61
584.82	46036.00
584.98	46312.18
585.14	45893.22
585.30	46155.36
585.46	46014.93
585.62	45954.08
585.78	46050.04
585.94	45804.28
586.10	46043.02
586.26	46265.37
586.42	46124.94
586.58	46082.81
586.74	46408.14
586.90	45972.80
587.06	46106.21
587.22	46490.06
587.38	46113.23
587.54	45982.16
587.70	46089.83
587.86	46312.18
588.02	46073.45
588.18	46323.88
588.34	45853.44
588.49	45523.42
588.65	45921.31
588.81	45539.80
588.97	45972.80
589.13	45305.75
589.29	45771.52
589.45	46021.95
589.61	46213.88
589.77	46291.12
589.93	46131.96
590.08	46373.03
590.24	46260.69
590.40	46511.13
590.56	46520.49
590.72	46043.02
590.88	46241.96
591.04	46426.87
591.20	46445.59
591.35	46349.63
591.51	46436.23
591.67	46625.81
591.83	46543.89
591.99	46059.40
592.15	46382.40
592.31	46410.48
592.46	46639.86
592.62	45951.74
592.78	46667.94
592.94	46691.35
593.10	46408.14
593.26	46625.81
593.41	45970.46
593.57	46211.54
593.73	46583.68
593.89	46424.53
594.05	46246.65
594.20	46279.41
594.36	46330.90
594.52	46396.44
594.68	46274.73
594.84	46246.65
594.99	46548.57
595.15	45944.72
595.31	46167.07
595.47	46305.16
595.62	46277.07
595.78	46138.98
595.94	46218.56
596.10	46494.74
596.25	46232.60
596.41	46616.45
596.57	46010.25
596.73	46667.94
596.88	46267.71
597.04	46129.62
597.20	46164.73
597.36	46277.07
597.51	46394.10
597.67	46543.89
597.83	46160.05
597.99	47028.38
598.14	46679.64
598.30	45897.91
598.46	46422.19
598.61	46164.73
598.77	46370.69
598.93	45764.49
599.09	46127.28
599.24	46770.93
599.40	46270.05
599.56	46309.84
599.71	46199.83
599.87	46571.98
600.03	46349.63
600.18	46387.08
600.34	46515.81
600.50	46483.04
600.65	46167.07
600.81	46270.05
600.97	46337.93
601.12	46450.27
601.28	46220.90
601.44	46454.95
601.59	46302.82
601.75	45794.92
601.91	46267.71
602.06	45975.14
602.22	46649.22
602.37	46464.32
602.53	46387.08
602.69	46693.69
602.84	46302.82
603.00	45923.65
603.16	46260.69
603.31	46223.24
603.47	46225.58
603.62	46241.96
603.78	45963.44
603.94	46265.37
604.09	47084.56
604.25	46153.02
604.40	46293.46
604.56	46059.40
604.71	46375.37
604.87	45883.86
605.03	46120.26
605.18	46195.15
605.34	46021.95
605.49	45944.72
605.65	46143.66
605.80	46138.98
605.96	46045.36
606.12	46129.62
606.27	46518.15
606.43	46473.68
606.58	46192.81
606.74	46588.36
606.89	46007.91
607.05	46160.05
607.20	46499.42
607.36	46087.49
607.51	46211.54
607.67	46642.20
607.82	46291.12
607.98	46101.53
608.13	45893.22
608.29	45743.43
608.44	45743.43
608.60	45488.31
608.75	46192.81
608.91	45741.09
609.06	45418.10
609.22	46270.05
609.37	45869.82
609.53	45729.39
609.68	45956.42
609.84	45427.46
609.99	45675.55
610.15	45390.01
610.30	45558.53
610.46	45478.95
610.61	45595.98
610.76	45649.81
610.92	45713.00
611.07	45584.27
611.23	45659.17
611.38	45815.99
611.54	46127.28
611.69	45523.42
611.84	45041.27
612.00	44987.44
612.15	45390.01
612.31	45439.16
612.46	45294.05
612.62	45282.34
612.77	45212.13
612.92	45661.51
613.08	45111.49
613.23	45184.04
613.39	45593.64
613.54	44875.09
613.69	45453.20
613.85	45352.56
614.00	45624.06
614.15	45420.44
614.31	45067.02
614.46	45361.92
614.62	45567.89
614.77	45233.19
614.92	45024.89
615.08	44996.80
615.23	44865.73
615.38	45202.77
615.54	44516.99
615.69	44765.09
615.84	44856.37
616.00	44680.83
616.15	44751.04
616.30	44692.53
616.46	44748.70
616.61	44856.37
616.76	44718.28
616.92	44158.89
617.07	44816.58
617.22	44664.44
617.37	44318.04
617.53	44835.30
617.68	44907.86
617.83	44662.10
617.99	44762.75
618.14	44959.35
618.29	44451.45
618.45	44381.24
618.60	44128.46
618.75	44425.71
618.90	44339.11
619.06	44364.85
619.21	44713.59
619.36	44961.69
619.51	44804.88
619.67	44320.38
619.82	44299.32
619.97	44320.38
620.12	44313.36
620.28	43608.86
620.43	43835.89
620.58	44886.79
620.73	44095.69
620.89	43868.66
621.04	44425.71
621.19	43997.39
621.34	44512.31
621.49	43845.26
621.65	44353.15
621.80	44250.17
621.95	44105.06
622.10	43952.92
622.25	43952.92
622.41	43524.60
622.56	43395.87
622.71	44004.41
622.86	43730.57
623.01	44013.77
623.16	43824.19
623.32	43863.98
623.47	43587.80
623.62	43842.92
623.77	44074.63
623.92	43894.41
624.07	43805.47
624.23	43878.02
624.38	43136.07
624.53	43498.86
624.68	43320.98
624.83	43482.47
624.98	43283.53
625.13	43227.35
625.29	43428.64
625.44	43225.01
625.59	43012.02
625.74	42988.62
625.89	42916.06
626.04	43105.65
626.19	43498.86
626.34	43075.22
626.49	43351.40
626.65	43199.27
626.80	43615.88
626.95	42969.90
627.10	42784.99
627.25	42784.99
627.40	42895.00
627.55	42501.79
627.70	42944.15
627.85	42997.98
628.00	42904.36
628.15	42574.34
628.30	42646.90
628.45	43033.09
628.60	42295.82
628.76	42974.58
628.91	42939.47
629.06	42644.56
629.21	42309.86
629.36	42588.39
629.51	42127.30
629.66	42375.40
629.81	42464.34
629.96	42768.61
630.11	42485.40
630.26	42749.88
630.41	42878.61
630.56	42642.22
630.71	42188.16
630.86	42305.18
631.01	42164.75
631.16	42370.72
631.31	41949.42
631.46	42019.64
631.61	42136.66
631.76	41900.27
631.91	42323.91
632.06	42094.53
632.21	42302.84
632.36	42506.47
632.51	41542.17
632.66	42263.05
632.81	41549.19
632.96	41776.22
633.10	42108.58
633.25	42019.64
633.40	41462.59
633.55	42277.10
633.70	41783.24
633.85	41507.06
634.00	41598.34
634.15	41713.03
634.30	41476.63
634.45	41558.55
634.60	41926.02
634.75	41373.65
634.90	41535.15
635.05	41986.87
635.19	41195.77
635.34	41710.69
635.49	41516.42
635.64	41457.91
635.79	41546.85
635.94	41631.11
636.09	41261.30
636.24	41301.09
636.39	40687.87
636.53	40910.22
636.68	41167.68
636.83	41502.38
636.98	41439.18
637.13	40980.44
637.28	41258.96
637.43	41366.63
637.57	41319.82
637.72	40961.72
637.87	41242.58
638.02	41081.08
638.17	41598.34
638.32	40891.50
638.46	40938.31
638.61	40734.68
638.76	40847.03
638.91	40903.20
639.06	40849.37
639.20	41200.45
639.35	41148.96
639.50	41050.66
639.65	41354.93
639.80	41308.11
639.94	40751.07
640.09	40517.01
640.24	40793.20
640.39	40320.41
640.54	40636.38
640.68	40428.07
640.83	40238.49
640.98	40961.72
641.13	40556.80
641.27	40720.64
641.42	40498.29
641.57	40568.51
641.72	40025.50
641.86	39852.30
642.01	40318.07
642.16	40411.69
642.31	39768.04
642.45	40257.21
642.60	39643.99
642.75	40250.19
642.90	39847.62
643.04	40568.51
643.19	40158.91
643.34	39814.85
643.48	40133.17
643.63	39779.74
643.78	39501.22
643.93	39683.78
644.07	40025.50
644.22	39814.85
644.37	40048.91
644.51	39428.66
644.66	40320.41
644.81	39800.81
644.95	40067.63
645.10	40179.98
645.25	39892.09
645.39	40030.18
645.54	40006.78
645.69	39344.41
645.83	39775.06
645.98	39838.26
646.13	39576.12
646.27	39793.79
646.42	39421.64
646.57	39461.43
646.71	39620.59
646.86	39566.76
647.00	39435.69
647.15	39393.56
647.30	39335.04
647.44	39267.17
647.59	38946.51
647.74	39477.82
647.88	39433.35
648.03	39508.24
648.17	39065.88
648.32	39220.36
648.47	39105.67
648.61	39243.76
648.76	39103.33
648.90	39152.48
649.05	39040.14
649.20	39077.58
649.34	39091.63
649.49	38513.52
649.63	39232.06
649.78	38768.63
649.92	38848.21
650.07	39299.94
650.21	39124.40
650.36	38951.20
650.51	39082.27
650.65	39075.24
650.80	39533.99
650.94	38759.27
651.09	38941.83
651.23	38595.43
651.38	38700.76
651.52	38557.99
651.67	38398.83
651.81	38373.08
651.96	38625.86
652.10	38373.08
652.25	38560.33
652.39	38443.30
652.54	38548.62
652.68	38396.49
652.83	38178.82
652.97	38569.69
653.12	38761.61
653.26	38529.90
653.41	38333.29
653.55	38181.16
653.70	37890.93
653.84	38010.30
653.99	38197.54
654.13	38246.69
654.27	38089.88
654.42	38209.25
654.56	37886.25
654.71	38169.46
654.85	38075.84
655.00	38148.39
655.14	38244.35
655.29	37521.13
655.43	37893.27
655.57	37427.51
655.72	37495.38
655.86	37043.66
656.01	37017.91
656.15	37418.14
656.30	37214.52
656.44	37603.05
656.58	37184.09
656.73	37378.36
656.87	37289.42
657.01	36961.74
657.16	37380.70
657.30	37312.82
657.45	37214.52
657.59	37125.58
657.73	37111.53
657.88	37912.00
658.02	37331.54
658.16	38038.39
658.31	37706.03
658.45	37624.11
658.60	37102.17
658.74	37699.01
658.88	37249.63
659.03	36919.61
659.17	36762.79
659.31	36638.75
659.46	36952.38
659.60	37235.58
659.74	37266.01
659.89	36868.12
660.03	36725.35
660.17	36957.06
660.32	36884.50
660.46	36650.45
660.60	36311.07
660.74	36680.88
660.89	36664.49
661.03	36711.30
661.17	36168.30
661.32	36357.88
661.46	36161.28
661.60	35931.90
661.74	36631.72
661.89	36582.57
662.03	36341.50
662.17	35714.23
662.31	36346.18
662.46	36374.27
662.60	36299.37
662.74	35962.33
662.88	35606.57
663.03	35524.65
663.17	35557.42
663.31	35332.73
663.45	35735.30
663.60	35725.94
663.74	35845.30
663.88	35344.43
664.02	35651.04
664.17	35779.77
664.31	35122.08
664.45	35335.07
664.59	35101.01
664.73	34972.28
664.88	35260.17
665.02	34897.39
665.16	35126.76
665.30	34780.36
665.44	34998.03
665.59	34345.02
665.73	35309.32
665.87	34857.60
666.01	34747.59
666.15	35145.48
666.29	35000.37
666.44	34871.64
666.58	34630.57
666.72	34649.29
666.86	34511.20
667.00	34754.61
667.14	34330.98
667.28	34244.38
667.43	34415.24
667.57	34536.94
667.71	34497.16
667.85	34230.33
667.99	34218.63
668.13	33881.60
668.27	34153.10
668.41	34036.07
668.56	34045.43
668.70	33654.56
668.84	34031.39
668.98	33441.57
669.12	33591.37
669.26	33383.06
669.40	33514.13
669.54	33277.74
669.68	33495.41
669.82	33263.69
669.96	33481.36
670.10	32741.75
670.25	33509.45
670.39	32687.92
670.53	32734.73
670.67	33041.34
670.81	33074.11
670.95	32872.82
671.09	32701.96
671.23	32692.60
671.37	32947.72
671.51	32566.21
671.65	32587.28
671.79	32360.25
671.93	32692.60
672.07	33029.64
672.21	32486.64
672.35	32360.25
672.49	32453.87
672.63	32208.11
672.77	32362.59
672.91	32606.00
673.05	32048.96
673.19	31955.33
673.33	31892.14
673.47	31658.09
673.61	31945.97
673.75	31552.76
673.89	31625.32
674.03	31330.41
674.17	31527.02
674.31	31365.52
674.45	31068.27
674.59	31276.58
674.73	31206.36
674.87	31335.09
675.01	31138.49
675.15	31365.52
675.29	30801.45
675.43	30745.28
675.56	30946.56
675.70	30904.43
675.84	30614.21
675.98	29816.08
676.12	30480.80
676.26	30586.12
676.40	30761.66
676.54	30520.59
676.68	30501.86
676.82	29893.32
676.96	30380.15
677.10	29947.15
677.23	29727.14
677.37	30125.04
677.51	29500.11
677.65	29441.60
677.79	29394.79
677.93	29479.05
678.07	29364.36
678.21	28968.81
678.34	29132.65
678.48	28685.61
678.62	28591.98
678.76	28315.80
678.90	28217.50
679.04	28367.29
679.18	28526.45
679.31	28369.63
679.45	27978.76
679.59	27906.21
679.73	28163.67
679.87	28037.28
680.00	28194.09
680.14	27852.38
680.28	27665.13
680.42	27887.48
680.56	28151.96
680.70	27831.31
680.83	27793.86
680.97	27765.78
681.11	27541.08
681.25	27119.79
681.39	27173.62
681.52	27531.72
681.66	27035.53
681.80	26911.48
681.94	26864.67
682.07	26916.16
682.21	26515.93
682.35	26370.82
682.49	26689.13
682.62	26658.70
682.76	26518.27
682.90	25809.09
683.04	26263.15
683.17	25928.45
683.31	25900.37
683.45	26134.42
683.59	25893.35
683.72	25806.75
683.86	25715.47
684.00	25628.87
684.13	25235.66
684.27	25591.42
684.41	25495.46
684.55	25221.61
684.68	25256.72
684.82	25502.48
684.96	25125.65
685.09	24863.51
685.23	25025.01
685.37	24636.48
685.50	24643.50
685.64	24489.03
685.78	24489.03
685.91	24521.79
686.05	24273.70
686.19	23805.59
686.32	23868.78
686.46	23314.08
686.60	23262.58
686.73	23316.42
686.87	23257.90
687.01	23133.86
687.14	22913.84
687.28	23016.83
687.42	23119.81
687.55	23269.61
687.69	22991.08
687.82	23070.66
687.96	22993.42
688.10	23281.31
688.23	22647.02
688.37	22576.81
688.50	22455.10
688.64	22263.18
688.78	22728.94
688.91	22733.62
689.05	22331.05
689.18	22616.60
689.32	22132.11
689.46	22354.46
689.59	22064.23
689.73	22434.03
689.86	22331.05
690.00	21879.33
690.13	21628.89
690.27	21539.95
690.41	21612.51
690.54	21128.02
690.68	21369.09
690.81	21525.91
690.95	21151.42
691.08	21111.63
691.22	21076.52
691.35	21139.72
691.49	21015.67
691.62	21043.76
691.76	20910.35
691.89	20936.09
692.03	20566.29
692.16	20357.98
692.30	20545.22
692.43	20182.44
692.57	20372.02
692.70	20163.72
692.84	20161.37
692.97	19737.74
693.11	19824.34
693.24	20119.24
693.38	19812.63
693.51	19435.81
693.65	19899.23
693.78	19564.54
693.92	19644.12
694.05	19740.08
694.19	19475.60
694.32	19286.01
694.45	19166.65
694.59	19138.56
694.72	18965.36
694.86	19150.26
694.99	18829.61
695.13	18944.30
695.26	18841.31
695.39	18532.36
695.53	18740.67
695.66	18658.75
695.80	18794.50
695.93	18740.67
696.07	18459.81
696.20	18544.06
696.33	18429.38
696.47	18178.94
696.60	18071.28
696.73	17860.63
696.87	18045.53
697.00	17996.38
697.14	17806.80
697.27	18047.87
697.40	17720.20
697.54	17621.89
697.67	17177.19
697.80	17315.28
697.94	17364.43
698.07	17427.63
698.21	17034.42
698.34	17186.55
698.47	17025.06
698.61	16720.79
698.74	16800.37
698.87	16545.25
699.01	16212.89
699.14	16255.02
699.27	16446.94
699.40	16376.73
699.54	16219.91
699.67	16381.41
699.80	16278.43
699.94	16278.43
700.07	16259.70
700.20	15999.90
700.34	16210.55
700.47	15948.41
700.60	16042.03
700.73	16280.77
700.87	15836.06
701.00	15716.70
701.13	15758.83
701.26	15557.54
701.40	15346.89
701.53	15264.97
701.66	15335.19
701.79	15316.47
701.93	15054.33
702.06	15094.11
702.19	15042.62
702.32	14960.70
702.46	15000.49
702.59	15190.08
702.72	14789.85
702.85	14909.21
702.99	14853.04
703.12	14604.94
703.25	14530.05
703.38	14464.51
703.51	14263.22
703.65	14335.78
703.78	14445.79
703.91	14209.39
704.04	14174.28
704.17	14068.96
704.31	14178.97
704.44	14188.33
704.57	13834.91
704.70	14045.55
704.83	13781.07
704.96	14003.43
705.10	13706.18
705.23	13724.90
>>>>>End Processed Spectral Data<<<<<
