SpectraSuite Data File
++++++++++++++++++++++++++++++++++++
Date: Fri Oct 25 10:44:51 EDT 2013
User: price-jones
Dark Spectrum Present: No
Reference Spectrum Present: No
Number of Sampled Component Spectra: 1
Spectrometers: USB2+H05261
Integration Time (usec): 100000 (USB2+H05261)
Spectra Averaged: 1 (USB2+H05261)
Boxcar Smoothing: 0 (USB2+H05261)
Correct for Electrical Dark: No (USB2+H05261)
Strobe/Lamp Enabled: No (USB2+H05261)
Correct for Detector Non-linearity: No (USB2+H05261)
Correct for Stray Light: No (USB2+H05261)
Number of Pixels in Processed Spectrum: 2048
>>>>>Begin Processed Spectral Data<<<<<
365.73	91.28
365.92	91.28
366.12	91.28
366.32	39.79
366.52	105.32
366.72	53.83
366.91	25.75
367.11	70.22
367.31	18.72
367.51	0.00
367.70	117.03
367.90	91.28
368.10	25.75
368.30	46.81
368.49	23.41
368.69	37.45
368.89	65.54
369.09	79.58
369.28	119.37
369.48	58.51
369.68	114.69
369.87	65.54
370.07	65.54
370.27	159.16
370.47	259.80
370.66	362.78
370.86	440.02
371.06	430.66
371.25	437.68
371.45	437.68
371.65	465.77
371.84	393.21
372.04	503.22
372.24	444.70
372.44	482.15
372.63	486.83
372.83	461.09
373.03	538.32
373.22	557.05
373.42	505.56
373.62	496.19
373.81	454.06
374.01	531.30
374.21	571.09
374.40	498.53
374.60	601.52
374.79	554.71
374.99	608.54
375.19	521.94
375.38	575.77
375.58	463.43
375.78	550.03
375.97	571.09
376.17	645.99
376.37	580.45
376.56	552.37
376.76	629.60
376.95	599.18
377.15	671.73
377.35	596.84
377.54	589.82
377.74	657.69
377.93	660.03
378.13	561.73
378.33	624.92
378.52	667.05
378.72	758.33
378.91	692.80
379.11	587.47
379.31	648.33
379.50	587.47
379.70	564.07
379.89	718.54
380.09	627.26
380.28	613.22
380.48	653.01
380.68	697.48
380.87	603.86
381.07	744.29
381.26	664.71
381.46	706.84
381.65	690.46
381.85	610.88
382.04	676.41
382.24	678.76
382.43	657.69
382.63	641.31
382.83	655.35
383.02	660.03
383.22	737.27
383.41	641.31
383.61	755.99
383.80	716.20
384.00	741.95
384.19	720.88
384.39	781.74
384.58	723.23
384.78	699.82
384.97	755.99
385.17	667.05
385.36	697.48
385.56	730.25
385.75	716.20
385.95	774.72
386.14	807.48
386.34	718.54
386.53	793.44
386.72	779.40
386.92	760.67
387.11	826.21
387.31	840.25
387.50	770.04
387.70	807.48
387.89	835.57
388.09	795.78
388.28	793.44
388.48	915.15
388.67	861.32
388.86	849.61
389.06	882.38
389.25	903.45
389.45	950.26
389.64	968.98
389.84	954.94
390.03	922.17
390.22	922.17
390.42	896.43
390.61	985.37
390.81	959.62
391.00	901.11
391.19	1006.43
391.39	887.06
391.58	968.98
391.78	940.90
391.97	938.55
392.16	966.64
392.36	987.71
392.55	924.51
392.75	1020.47
392.94	924.51
393.13	1006.43
393.33	933.87
393.52	1011.11
393.71	1050.90
393.91	901.11
394.10	1001.75
394.29	1130.48
394.49	1071.97
394.68	1111.75
394.88	1160.91
395.07	1128.14
395.26	1111.75
395.46	1095.37
395.65	1081.33
395.84	1172.61
396.04	1174.95
396.23	1090.69
396.42	1090.69
396.62	1184.31
396.81	1114.10
397.00	1102.39
397.19	1128.14
397.39	1174.95
397.58	1259.21
397.77	1338.79
397.97	1212.40
398.16	1235.80
398.35	1327.08
398.55	1210.06
398.74	1287.29
398.93	1411.34
399.12	1336.45
399.32	1205.38
399.51	1401.98
399.70	1458.15
399.90	1289.64
400.09	1338.79
400.28	1444.11
400.47	1453.47
400.67	1483.90
400.86	1460.49
401.05	1441.77
401.24	1458.15
401.44	1451.13
401.63	1542.41
401.82	1483.90
402.01	1544.75
402.21	1558.80
402.40	1479.22
402.59	1469.86
402.78	1511.99
402.97	1591.56
403.17	1612.63
403.36	1629.01
403.55	1673.48
403.74	1645.40
403.93	1654.76
404.13	1657.10
404.32	1577.52
404.51	1598.59
404.70	1703.91
404.89	1682.85
405.09	1778.81
405.28	1713.27
405.47	1748.38
405.66	1769.44
405.85	1687.53
406.05	1839.66
406.24	1804.55
406.43	1760.08
406.62	1736.68
406.81	1823.28
407.00	1799.87
407.20	1792.85
407.39	1895.83
407.58	1919.24
407.77	1867.75
407.96	1989.46
408.15	2036.27
408.34	2005.84
408.54	1989.46
408.73	1984.77
408.92	2057.33
409.11	2132.23
409.30	2038.61
409.49	2036.27
409.68	1919.24
409.87	1959.03
410.07	2108.82
410.26	2099.46
410.45	2200.10
410.64	2195.42
410.83	2195.42
411.02	2169.68
411.21	2293.72
411.40	2312.45
411.59	2356.92
411.78	2303.09
411.98	2298.41
412.17	2366.28
412.36	2436.50
412.55	2441.18
412.74	2569.91
412.93	2487.99
413.12	2370.96
413.31	2579.27
413.50	2502.03
413.69	2525.44
413.88	2635.44
414.07	2696.30
414.26	2548.84
414.45	2708.00
414.64	2616.72
414.83	2607.36
415.02	2759.49
415.22	2853.11
415.41	2874.18
415.60	2815.66
415.79	2843.75
415.98	2874.18
416.17	2869.50
416.36	2904.60
416.55	2848.43
416.74	2986.52
416.93	2998.23
417.12	2899.92
417.31	2963.12
417.50	3012.27
417.69	3105.89
417.88	3143.34
418.07	3117.59
418.26	3112.91
418.45	3274.41
418.64	3279.09
418.83	3171.43
419.02	3248.66
419.21	3124.62
419.39	3274.41
419.58	3234.62
419.77	3227.60
419.96	3171.43
420.15	3248.66
420.34	3309.52
420.53	3372.71
420.72	3377.39
420.91	3522.51
421.10	3330.58
421.29	3337.60
421.48	3384.41
421.67	3463.99
421.86	3459.31
422.05	3342.28
422.24	3442.93
422.43	3433.57
422.61	3449.95
422.80	3466.33
422.99	3478.04
423.18	3536.55
423.37	3592.72
423.56	3609.11
423.75	3480.38
423.94	3449.95
424.13	3356.33
424.32	3480.38
424.50	3543.57
424.69	3644.21
424.88	3609.11
425.07	3604.42
425.26	3480.38
425.45	3637.19
425.64	3669.96
425.83	3676.98
426.01	3637.19
426.20	3751.88
426.39	3662.94
426.58	3606.77
426.77	3618.47
426.96	3604.42
427.15	3590.38
427.33	3691.02
427.52	3679.32
427.71	3712.09
427.90	3763.58
428.09	3950.82
428.28	3815.07
428.46	3868.91
428.65	3822.09
428.84	3922.74
429.03	4011.68
429.22	3840.82
429.40	3819.75
429.59	3803.37
429.78	3789.33
429.97	3606.77
430.16	3843.16
430.34	3779.97
430.53	3936.78
430.72	3754.22
430.91	3829.12
431.10	3882.95
431.28	4121.68
431.47	4175.52
431.66	4241.05
431.85	4009.34
432.03	4091.26
432.22	4203.60
432.41	4318.29
432.60	4140.41
432.79	4236.37
432.97	4397.87
433.16	4301.90
433.35	4196.58
433.54	4395.53
433.72	4334.67
433.91	4245.73
434.10	4313.61
434.28	4311.27
434.47	4486.81
434.66	4428.29
434.85	4512.55
435.03	4334.67
435.22	4465.74
435.41	4580.43
435.59	4510.21
435.78	4592.13
435.97	4774.69
436.16	4678.73
436.34	4610.86
436.53	4624.90
436.72	4767.67
436.90	4561.70
437.09	4748.95
437.28	4596.81
437.46	4732.56
437.65	4702.14
437.84	4690.43
438.02	4762.99
438.21	4744.27
438.40	4746.61
438.58	4772.35
438.77	4933.85
438.96	4917.47
439.14	5116.41
439.33	4994.70
439.52	5142.16
439.70	4990.02
439.89	5088.32
440.08	5076.62
440.26	5228.76
440.45	5093.01
440.63	5245.14
440.82	5303.65
441.01	5188.97
441.19	5460.47
441.38	5579.84
441.57	5518.98
441.75	5591.54
441.94	5561.11
442.12	5439.40
442.31	5816.23
442.50	5743.67
442.68	5607.92
442.87	5706.23
443.05	5870.06
443.24	5987.09
443.43	5902.83
443.61	5760.06
443.80	5914.53
443.98	5879.43
444.17	5610.26
444.35	6080.71
444.54	5996.45
444.73	5856.02
444.91	5867.72
445.10	5753.04
445.28	5774.10
445.47	5827.93
445.65	5856.02
445.84	5966.03
446.02	5975.39
446.21	5708.57
446.39	5893.47
446.58	6186.04
446.77	5987.09
446.95	5647.71
447.14	5895.81
447.32	6061.99
447.51	6139.23
447.69	6080.71
447.88	6080.71
448.06	6125.18
448.25	6108.80
448.43	6047.94
448.62	6174.33
448.80	5987.09
448.99	6232.85
449.17	6459.88
449.36	6155.61
449.54	6160.29
449.73	6420.09
449.91	6459.88
450.10	6464.56
450.28	6604.99
450.46	6417.75
450.65	6502.01
450.83	6438.81
451.02	6604.99
451.20	6548.82
451.39	6558.18
451.57	6506.69
451.76	6331.15
451.94	6317.11
452.13	6576.91
452.31	6478.60
452.49	6434.13
452.68	6546.48
452.86	6513.71
453.05	6590.95
453.23	6586.27
453.42	6562.86
453.60	6415.41
453.78	6881.18
453.97	6813.30
454.15	6621.38
454.34	6775.85
454.52	6927.99
454.70	6740.74
454.89	6733.72
455.07	6817.98
455.26	6927.99
455.44	7026.29
455.62	7012.24
455.81	6995.86
455.99	6949.05
456.17	7157.36
456.36	7002.88
456.54	7108.21
456.73	7129.27
456.91	7386.73
457.09	7300.13
457.28	7454.61
457.46	7442.90
457.64	7494.40
457.83	7396.09
458.01	7185.44
458.19	7435.88
458.38	7396.09
458.56	7707.38
458.74	7449.93
458.93	7342.26
459.11	7426.52
459.29	7564.61
459.48	7571.63
459.66	7489.71
459.84	7651.21
460.03	7850.16
460.21	7660.57
460.39	7651.21
460.57	7805.69
460.76	7765.90
460.94	7985.91
461.12	7824.41
461.31	7822.07
461.49	7934.42
461.67	7801.01
461.85	8060.80
462.04	8004.63
462.22	8100.59
462.40	8023.36
462.59	7932.08
462.77	7957.82
462.95	8077.19
463.13	8093.57
463.32	8149.75
463.50	8030.38
463.68	8098.25
463.86	8236.35
464.05	8112.30
464.23	8030.38
464.41	8259.75
464.59	7992.93
464.78	8397.84
464.96	8297.20
465.14	8212.94
465.32	8292.52
465.50	8329.97
465.69	8498.49
465.87	8358.05
466.05	8292.52
466.23	8451.67
466.41	8432.95
466.60	8540.61
466.78	8217.62
466.96	8283.16
467.14	8479.76
467.32	8444.65
467.51	8697.43
467.69	8308.90
467.87	8837.86
468.05	8571.04
468.23	8535.93
468.41	8585.08
468.60	8526.57
468.78	8741.90
468.96	8915.10
469.14	8922.12
469.32	9043.83
469.50	8767.65
469.69	8828.50
469.87	9013.40
470.05	8912.76
470.23	9022.77
470.41	8840.20
470.59	9090.64
470.77	9071.92
470.95	9170.22
471.14	9036.81
471.32	9011.06
471.50	9352.78
471.68	9465.13
471.86	9568.11
472.04	9530.66
472.22	9561.09
472.40	9523.64
472.58	9556.41
472.77	9511.94
472.95	9647.69
473.13	9961.32
473.31	9813.87
473.49	9661.73
473.67	9776.42
473.85	9893.44
474.03	10054.94
474.21	10010.47
474.39	10155.58
474.57	9982.38
474.75	10244.52
474.93	10164.95
475.12	10216.44
475.30	10195.37
475.48	10263.25
475.66	10324.10
475.84	10513.69
476.02	10511.35
476.20	10396.66
476.38	10780.51
476.56	10843.70
476.74	10832.00
476.92	10794.55
477.10	10843.70
477.28	10939.66
477.46	11213.51
477.64	11040.31
477.82	11506.07
478.00	11587.99
478.18	11314.15
478.36	11440.54
478.54	11672.25
478.72	11648.85
478.90	11702.68
479.08	11983.54
479.26	12116.95
479.44	11889.92
479.62	11887.58
479.80	12051.42
479.98	12187.17
480.16	12554.63
480.34	12622.51
480.52	12549.95
480.70	12776.98
480.88	12397.82
481.06	12498.46
481.24	12556.97
481.41	13064.87
481.59	13083.59
481.77	13317.65
481.95	13107.00
482.13	13275.52
482.31	13228.71
482.49	13713.20
482.67	13572.77
482.85	13659.37
483.03	13755.33
483.21	13963.64
483.39	14190.67
483.57	14139.18
483.74	14345.14
483.92	14494.94
484.10	14452.81
484.28	14579.20
484.46	14827.29
484.64	14923.26
484.82	14764.10
485.00	14712.61
485.18	15482.64
485.35	15459.24
485.53	14764.10
485.71	15250.93
485.89	15417.11
486.07	15382.00
486.25	15475.62
486.43	15403.07
486.61	16030.33
486.78	15941.39
486.96	16030.33
487.14	16278.43
487.32	16374.39
487.50	16540.57
487.68	16884.62
487.85	16856.54
488.03	17025.06
488.21	17228.68
488.39	17191.23
488.57	17308.26
488.75	17352.73
488.92	17837.22
489.10	17579.76
489.28	17724.88
489.46	18249.16
489.64	18171.92
489.81	18780.46
489.99	18560.45
490.17	18436.40
490.35	18813.23
490.53	18658.75
490.70	19136.22
490.88	18895.14
491.06	19236.86
491.24	18923.23
491.41	18881.10
491.59	19302.40
491.77	19218.14
491.95	19737.74
492.13	19859.45
492.30	19747.10
492.48	19988.18
492.66	20144.99
492.84	20208.19
493.01	20374.36
493.19	20849.49
493.37	20695.02
493.54	20732.47
493.72	20858.85
493.90	20695.02
494.08	20971.20
494.25	21287.17
494.43	21607.83
494.61	21418.24
494.79	21743.58
494.96	21467.39
495.14	21628.89
495.32	21921.46
495.49	21900.39
495.67	21816.13
495.85	22207.00
496.02	22361.48
496.20	22492.55
496.38	22733.62
496.55	22551.06
496.73	23276.63
496.91	22963.00
497.09	23168.96
497.26	23473.23
497.44	22993.42
497.62	23065.98
497.79	23426.42
497.97	23566.85
498.14	23730.69
498.32	23971.77
498.50	23571.54
498.67	23948.36
498.85	24116.88
499.03	24374.34
499.20	24772.23
499.38	24238.59
499.56	24430.51
499.73	24474.98
499.91	24634.14
500.08	24723.08
500.26	24446.90
500.44	24769.89
500.61	24716.06
500.79	24999.26
500.97	25088.20
501.14	25188.85
501.32	25392.47
501.49	25249.70
501.67	25238.00
501.84	25383.11
502.02	25364.39
502.20	25514.18
502.37	26162.51
502.55	25764.62
502.72	26162.51
502.90	26206.98
503.07	25933.14
503.25	25940.16
503.43	26211.66
503.60	26022.08
503.78	26221.02
503.95	26441.03
504.13	26335.71
504.30	26850.63
504.48	26803.82
504.65	27136.17
504.83	26948.93
505.01	27012.12
505.18	27356.18
505.36	27269.58
505.53	27730.67
505.71	27601.94
505.88	27903.87
506.06	27300.01
506.23	27981.10
506.41	27180.64
506.58	27843.01
506.76	27824.29
506.93	27850.03
507.11	27969.40
507.28	27721.30
507.46	28175.37
507.63	28407.08
507.81	28067.70
507.98	28095.79
508.16	28383.68
508.33	28376.66
508.50	28486.66
508.68	28573.26
508.85	29032.00
509.03	28922.00
509.20	28896.25
509.38	28783.91
509.55	28952.43
509.73	28666.88
509.90	29364.36
510.08	29273.08
510.25	29401.81
510.42	29385.43
510.60	29511.81
510.77	29862.90
510.95	29783.32
511.12	29404.15
511.30	30122.69
511.47	30092.27
511.64	30284.19
511.82	30169.51
511.99	30059.50
512.17	30368.45
512.34	30202.27
512.51	30572.08
512.69	31005.08
512.86	30478.46
513.04	30621.23
513.21	30609.53
513.38	30604.84
513.56	30794.43
513.73	30944.22
513.90	30864.64
514.08	30799.11
514.25	31175.94
514.43	31009.76
514.60	31171.25
514.77	31302.32
514.95	31344.45
515.12	31351.48
515.29	31290.62
515.47	31938.95
515.64	31672.13
515.81	31283.60
515.99	31562.12
516.16	31995.12
516.33	32041.93
516.51	32037.25
516.68	31618.30
516.85	31938.95
517.03	31971.72
517.20	31915.54
517.37	32048.96
517.54	32205.77
517.72	32409.40
517.89	32126.19
518.06	32318.12
518.24	32294.71
518.41	32559.19
518.58	32694.94
518.75	32802.61
518.93	32725.37
519.10	33041.34
519.27	33139.65
519.45	33057.73
519.62	32910.27
519.79	33235.61
519.96	33060.07
520.14	33638.18
520.31	32854.10
520.48	33785.63
520.65	33062.41
520.83	33926.07
521.00	33890.96
521.17	33610.09
521.34	33729.46
521.52	33605.41
521.69	34352.04
521.86	33993.94
522.03	34256.08
522.20	34270.12
522.38	34558.01
522.55	34483.11
522.72	34380.13
522.89	34658.65
523.07	34550.99
523.24	34415.24
523.41	34583.76
523.58	34663.33
523.75	35105.70
523.92	35234.42
524.10	34920.79
524.27	35042.50
524.44	34607.16
524.61	35246.13
524.78	35351.45
524.96	35620.61
525.13	35494.22
525.30	35833.60
525.47	35739.98
525.64	35557.42
525.81	35325.71
525.98	35339.75
526.16	35578.48
526.33	35515.29
526.50	35536.35
526.67	34677.38
526.84	35405.28
527.01	35625.29
527.18	35842.96
527.36	36357.88
527.53	36222.13
527.70	36517.04
527.87	36699.60
528.04	36219.79
528.21	36247.88
528.38	36196.38
528.55	36353.20
528.72	36559.17
528.89	36921.95
529.07	36449.16
529.24	36617.68
529.41	36940.68
529.58	36414.05
529.75	36669.17
529.92	36940.68
530.09	36891.52
530.26	37097.49
530.43	37041.32
530.60	36510.02
530.77	37209.84
530.94	37549.21
531.11	37146.64
531.28	37502.40
531.46	37457.93
531.63	37397.08
531.80	37102.17
531.97	37947.11
532.14	37493.04
532.31	37298.78
532.48	37340.91
532.65	37741.14
532.82	37455.59
532.99	37677.94
533.16	37532.83
533.33	37940.08
533.50	38157.75
533.67	37659.22
533.84	37759.86
534.01	38017.32
534.18	37872.21
534.35	38352.02
534.52	38234.99
534.69	38438.62
534.86	38321.59
535.03	38155.41
535.20	38635.22
535.37	38848.21
535.54	38829.49
535.71	38223.29
535.88	38969.92
536.05	38770.97
536.22	38937.15
536.38	38567.35
536.55	38401.17
536.72	38637.56
536.89	38667.99
537.06	38630.54
537.23	38749.91
537.40	38974.60
537.57	38883.32
537.74	39026.09
537.91	39131.42
538.08	39119.71
538.25	39342.06
538.42	38724.16
538.59	39248.44
538.75	39253.12
538.92	39433.35
539.09	39210.99
539.26	39449.73
539.43	39653.36
539.60	39370.15
539.77	39496.54
539.94	39278.87
540.11	39524.63
540.28	39831.24
540.44	39419.30
540.61	39770.38
540.78	39878.05
540.95	39974.01
541.12	39276.53
541.29	39466.11
541.46	39761.02
541.62	39810.17
541.79	40088.70
541.96	39297.59
542.13	39943.58
542.30	39971.67
542.47	40339.13
542.63	40027.84
542.80	40041.88
542.97	40425.73
543.14	41125.55
543.31	40627.02
543.48	40769.79
543.64	41200.45
543.81	40903.20
543.98	40392.97
544.15	40811.92
544.32	40847.03
544.48	41219.17
544.65	40814.26
544.82	40598.93
544.99	40575.53
545.16	40957.03
545.32	40648.08
545.49	41333.86
545.66	41378.33
545.83	41200.45
546.00	41214.49
546.16	41081.08
546.33	41125.55
546.50	40952.35
546.67	40903.20
546.83	40835.33
547.00	41195.77
547.17	41022.57
547.34	40987.46
547.50	41593.66
547.67	41460.25
547.84	41167.68
548.00	42012.62
548.17	42052.41
548.34	41469.61
548.51	42122.62
548.67	41841.76
548.84	41720.05
549.01	41530.47
549.18	41626.43
549.34	41359.61
549.51	41834.74
549.68	41909.63
549.84	42089.85
550.01	41911.97
550.18	41776.22
550.34	42164.75
550.51	42139.00
550.68	41965.81
550.84	41879.21
551.01	42106.24
551.18	41865.16
551.34	42129.64
551.51	41991.55
551.68	42412.85
551.84	42197.52
552.01	41989.21
552.18	42223.26
552.34	41951.76
552.51	42342.63
552.68	42295.82
552.84	42642.22
553.01	42897.34
553.18	42967.55
553.34	42363.70
553.51	42326.25
553.67	42464.34
553.84	42677.33
554.01	42721.80
554.17	42925.42
554.34	43014.37
554.51	42667.97
554.67	42979.26
554.84	42656.26
555.00	43063.52
555.17	42576.69
555.33	42637.54
555.50	42773.29
555.67	43255.44
555.83	42969.90
556.00	43185.22
556.16	43576.09
556.33	42885.64
556.50	43217.99
556.66	43210.97
556.83	42548.60
556.99	43147.78
557.16	43356.08
557.32	43100.97
557.49	43463.75
557.65	43042.45
557.82	42792.01
557.98	43201.61
558.15	43171.18
558.32	43482.47
558.48	43388.85
558.65	43136.07
558.81	43192.25
558.98	43199.27
559.14	43636.95
559.31	43531.62
559.47	43269.48
559.64	43480.13
559.80	43700.14
559.97	43613.54
560.13	43597.16
560.30	43351.40
560.46	43253.10
560.63	43508.22
560.79	43693.12
560.96	43821.85
561.12	43428.64
561.29	44123.78
561.45	43688.44
561.61	44170.59
561.78	43613.54
561.94	43217.99
562.11	43601.84
562.27	43484.81
562.44	43931.86
562.60	43903.77
562.77	44362.51
562.93	43693.12
563.10	43959.94
563.26	43309.27
563.42	44191.65
563.59	44095.69
563.75	44055.90
563.92	43789.08
564.08	44149.53
564.24	44170.59
564.41	44186.97
564.57	43840.57
564.74	43704.82
564.90	43962.28
565.07	43966.96
565.23	43894.41
565.39	44053.56
565.56	44098.03
565.72	43540.99
565.88	44191.65
566.05	44238.47
566.21	44318.04
566.38	43999.73
566.54	43929.51
566.70	44128.46
566.87	44154.21
567.03	44086.33
567.19	44460.82
567.36	44418.69
567.52	44079.31
567.68	43899.09
567.85	44212.72
568.01	43931.86
568.17	44062.93
568.34	44484.22
568.50	44161.23
568.66	43814.83
568.83	44734.66
568.99	44088.67
569.15	43831.21
569.32	44451.45
569.48	43906.11
569.64	44163.57
569.81	44573.16
569.97	44189.31
570.13	44226.76
570.30	44318.04
570.46	44203.36
570.62	44093.35
570.78	43702.48
570.95	44226.76
571.11	44435.07
571.27	44196.34
571.43	44168.25
571.60	44306.34
571.76	44217.40
571.92	44217.40
572.09	44128.46
572.25	44605.93
572.41	44093.35
572.57	44493.58
572.74	44935.95
572.90	44453.79
573.06	44821.26
573.22	44402.30
573.38	44671.46
573.55	44177.61
573.71	44444.43
573.87	44573.16
574.03	44224.42
574.20	44184.63
574.36	44404.64
574.52	44402.30
574.68	44451.45
574.84	44285.28
575.01	44858.71
575.17	44491.24
575.33	44222.08
575.49	44399.96
575.65	44591.89
575.82	44409.32
575.98	44388.26
576.14	44652.74
576.30	44006.75
576.46	44296.98
576.62	44624.65
576.79	44343.79
576.95	44491.24
577.11	44570.82
577.27	44470.18
577.43	44538.05
577.59	44636.36
577.75	44350.81
577.92	43917.81
578.08	44172.93
578.24	44212.72
578.40	44343.79
578.56	44442.09
578.72	44273.57
578.88	44729.98
579.04	44603.59
579.21	44648.06
579.37	44320.38
579.53	44566.14
579.69	44729.98
579.85	44559.12
580.01	44725.30
580.17	44327.41
580.33	45125.53
580.49	44652.74
580.65	45120.85
580.82	44673.81
580.98	44282.94
581.14	44659.76
581.30	44406.98
581.46	44591.89
581.62	44765.09
581.78	44636.36
581.94	45200.43
582.10	44287.62
582.26	44877.43
582.42	44832.96
582.58	44718.28
582.74	44411.67
582.90	44807.22
583.06	44980.42
583.22	44779.13
583.38	44376.56
583.54	44854.03
583.70	44767.43
583.86	44664.44
584.02	44346.13
584.18	44851.69
584.34	44402.30
584.50	44381.24
584.66	44589.55
584.82	44292.30
584.98	44828.28
585.14	45102.12
585.30	44746.36
585.46	45048.29
585.62	44617.63
585.78	44788.49
585.94	44500.61
586.10	44870.41
586.26	44804.88
586.42	44685.51
586.58	44863.39
586.74	44744.02
586.90	44811.90
587.06	44655.08
587.22	45059.99
587.38	44568.48
587.54	44865.73
587.70	44907.86
587.86	44612.95
588.02	44666.78
588.18	45095.10
588.34	44713.59
588.49	44357.83
588.65	43966.96
588.81	44418.69
588.97	44470.18
589.13	44369.54
589.29	44538.05
589.45	45057.65
589.61	44563.80
589.77	44737.00
589.93	44847.00
590.08	45354.90
590.24	45113.83
590.40	44491.24
590.56	45127.87
590.72	44999.14
590.88	44678.49
591.04	45181.70
591.20	45207.45
591.35	45146.59
591.51	45270.64
591.67	45137.23
591.83	45193.40
591.99	44931.26
592.15	45102.12
592.31	45013.18
592.46	44980.42
592.62	44516.99
592.78	45282.34
592.94	45024.89
593.10	44765.09
593.26	45244.90
593.41	44800.19
593.57	44809.56
593.73	44781.47
593.89	45006.16
594.05	45134.89
594.20	45205.11
594.36	45455.54
594.52	45041.27
594.68	44617.63
594.84	45078.72
594.99	45495.33
595.15	45144.25
595.31	45202.77
595.47	45057.65
595.62	45031.91
595.78	45235.53
595.94	45315.11
596.10	45188.72
596.25	45214.47
596.41	45144.25
596.57	45158.30
596.73	45102.12
596.88	44706.57
597.04	45319.79
597.20	45188.72
597.36	45563.21
597.51	45474.27
597.67	45361.92
597.83	45317.45
597.99	45621.72
598.14	45071.70
598.30	45022.54
598.46	44982.76
598.61	45155.96
598.77	44926.58
598.93	44959.35
599.09	45097.44
599.24	45621.72
599.40	45347.88
599.56	45551.51
599.71	45043.61
599.87	45223.83
600.03	45186.38
600.18	45104.46
600.34	45123.19
600.50	45106.80
600.65	44938.29
600.81	45177.02
600.97	45476.61
601.12	45453.20
601.28	45031.91
601.44	45186.38
601.59	45006.16
601.75	45160.64
601.91	45095.10
602.06	44641.04
602.22	44882.11
602.37	45563.21
602.53	45188.72
602.69	45497.67
602.84	45097.44
603.00	45488.31
603.16	44573.16
603.31	45029.57
603.47	45350.22
603.62	45022.54
603.78	45017.86
603.94	45006.16
604.09	45151.27
604.25	44598.91
604.40	45036.59
604.56	45160.64
604.71	45305.75
604.87	45085.74
605.03	45139.57
605.18	44715.93
605.34	44849.35
605.49	44760.40
605.65	44889.13
605.80	44737.00
605.96	45050.63
606.12	44648.06
606.27	45364.26
606.43	44837.64
606.58	44624.65
606.74	44458.48
606.89	44889.13
607.05	44931.26
607.20	44966.37
607.36	44804.88
607.51	45160.64
607.67	45153.62
607.82	44814.24
607.98	45043.61
608.13	44641.04
608.29	44938.29
608.44	44341.45
608.60	44657.42
608.75	44800.19
608.91	44514.65
609.06	44296.98
609.22	44566.14
609.37	44252.51
609.53	44802.53
609.68	44678.49
609.84	44430.39
609.99	44535.71
610.15	44711.25
610.30	44636.36
610.46	44474.86
610.61	44500.61
610.76	44526.35
610.92	44563.80
611.07	44664.44
611.23	44416.35
611.38	44505.29
611.54	44411.67
611.69	44329.75
611.84	44322.72
612.00	44154.21
612.15	43819.51
612.31	44751.04
612.46	44442.09
612.62	44573.16
612.77	44374.22
612.92	44828.28
613.08	44243.15
613.23	44617.63
613.39	44142.50
613.54	43679.08
613.69	44217.40
613.85	44020.80
614.00	44107.40
614.15	44254.85
614.31	43833.55
614.46	44194.00
614.62	44219.74
614.77	44301.66
614.92	44245.49
615.08	44006.75
615.23	44163.57
615.38	43917.81
615.54	43627.59
615.69	43641.63
615.84	43821.85
616.00	43395.87
616.15	43824.19
616.30	43950.58
616.46	43805.47
616.61	43779.72
616.76	43665.03
616.92	43515.24
617.07	43164.16
617.22	43449.70
617.37	43461.41
617.53	43599.50
617.68	44189.31
617.83	43789.08
617.99	43658.01
618.14	43716.53
618.29	43508.22
618.45	43100.97
618.60	43236.72
618.75	43271.82
618.90	43182.88
619.06	43299.91
619.21	43339.70
619.36	43995.05
619.51	43966.96
619.67	43545.67
619.82	43681.42
619.97	43938.88
620.12	43370.13
620.28	43000.32
620.43	43075.22
620.58	42838.83
620.73	42618.81
620.89	42871.59
621.04	43164.16
621.19	43100.97
621.34	43187.56
621.49	43370.13
621.65	42808.40
621.80	43143.09
621.95	42707.76
622.10	42906.70
622.25	42827.12
622.41	42667.97
622.56	43030.75
622.71	42904.36
622.86	42923.08
623.01	43014.37
623.16	42799.04
623.32	42953.51
623.47	42726.48
623.62	42293.48
623.77	42562.64
623.92	42724.14
624.07	43012.02
624.23	42101.56
624.38	42319.23
624.53	42188.16
624.68	42501.79
624.83	42337.95
624.98	42579.03
625.13	42129.64
625.29	42597.75
625.44	42129.64
625.59	42391.78
625.74	41748.14
625.89	41827.71
626.04	41720.05
626.19	42213.90
626.34	41937.72
626.49	42555.62
626.65	41975.17
626.80	42153.05
626.95	42274.76
627.10	42265.39
627.25	41446.21
627.40	41982.19
627.55	41516.42
627.70	41488.34
627.85	41769.20
628.00	41404.08
628.15	42220.92
628.30	42080.49
628.45	42164.75
628.60	41790.27
628.76	41706.01
628.91	42267.73
629.06	41706.01
629.21	41603.02
629.36	41907.29
629.51	41645.15
629.66	41469.61
629.81	41390.03
629.96	41504.72
630.11	41530.47
630.26	41415.78
630.41	42003.25
630.56	41322.16
630.71	41659.20
630.86	41666.22
631.01	41364.29
631.16	41394.71
631.31	41184.07
631.46	41111.51
631.61	41263.64
631.76	41460.25
631.91	41291.73
632.06	41228.54
632.21	41778.56
632.36	41741.11
632.51	40950.01
632.66	41013.21
632.81	40964.06
632.96	41200.45
633.10	41057.68
633.25	40818.94
633.40	41226.20
633.55	41228.54
633.70	40971.08
633.85	40301.68
634.00	40978.10
634.15	41008.53
634.30	40491.27
634.45	40987.46
634.60	40547.44
634.75	40575.53
634.90	40790.86
635.05	40439.78
635.19	40751.07
635.34	40816.60
635.49	40549.78
635.64	40385.94
635.79	40620.00
635.94	40238.49
636.09	40470.20
636.24	40301.68
636.39	40655.11
636.53	40418.71
636.68	39807.83
636.83	40222.11
636.98	40425.73
637.13	40322.75
637.28	40507.65
637.43	40404.67
637.57	40577.87
637.72	40275.94
637.87	39744.64
638.02	40196.36
638.17	40339.13
638.32	39889.75
638.46	40154.23
638.61	39709.53
638.76	40030.18
638.91	40175.30
639.06	40020.82
639.20	40058.27
639.35	40229.13
639.50	39957.63
639.65	39856.98
639.80	39950.60
639.94	39988.05
640.09	40076.99
640.24	39529.31
640.39	39063.54
640.54	39742.30
640.68	39866.34
640.83	39407.60
640.98	39625.27
641.13	39484.84
641.27	39849.96
641.42	39613.57
641.57	39494.20
641.72	39643.99
641.86	39093.97
642.01	39335.04
642.16	39084.61
642.31	38513.52
642.45	39363.13
642.60	39201.63
642.75	39229.72
642.90	39325.68
643.04	39145.46
643.19	38902.04
643.34	39103.33
643.48	39299.94
643.63	38843.53
643.78	38925.45
643.93	38478.41
644.07	39119.71
644.22	38546.28
644.37	38974.60
644.51	39215.68
644.66	39103.33
644.81	38787.36
644.95	39367.81
645.10	39229.72
645.25	39112.69
645.39	38824.81
645.54	38859.91
645.69	38962.90
645.83	38885.66
645.98	38845.87
646.13	39222.70
646.27	38955.88
646.42	38658.63
646.57	38960.56
646.71	38529.90
646.86	38892.68
647.00	38923.11
647.15	38607.14
647.30	38607.14
647.44	38773.31
647.59	38543.94
647.74	38539.26
647.88	38436.28
648.03	38363.72
648.17	38675.01
648.32	38426.92
648.47	38543.94
648.61	37897.95
648.76	38345.00
648.90	38555.64
649.05	38127.33
649.20	38096.90
649.34	38541.60
649.49	37827.74
649.63	38368.40
649.78	38199.88
649.92	38274.78
650.07	38363.72
650.21	37769.22
650.36	38398.83
650.51	38515.86
650.65	38387.13
650.80	38202.22
650.94	38473.73
651.09	38052.43
651.23	38349.68
651.38	38134.35
651.52	37684.97
651.67	37794.97
651.81	37750.50
651.96	37701.35
652.10	37764.54
652.25	37738.80
652.39	38064.13
652.54	37614.75
652.68	37904.98
652.83	37909.66
652.97	38153.07
653.12	37394.74
653.26	37387.72
653.41	37511.77
653.55	37617.09
653.70	37570.28
653.84	37661.56
653.99	37556.24
654.13	37422.83
654.27	37315.16
654.42	36992.17
654.56	37109.19
654.71	37425.17
654.85	37399.42
655.00	37593.68
655.14	37296.44
655.29	36720.66
655.43	37038.98
655.57	36968.76
655.72	37345.59
655.86	37062.38
656.01	37158.34
656.15	36713.64
656.30	36591.94
656.44	37029.62
656.58	36713.64
656.73	36636.41
656.87	37081.11
657.01	36825.99
657.16	37137.28
657.30	36797.90
657.45	36247.88
657.59	36950.04
657.73	36781.52
657.88	36706.62
658.02	37034.30
658.16	36732.37
658.31	36514.70
658.45	36739.39
658.60	36594.28
658.74	36727.69
658.88	36313.41
659.03	36510.02
659.17	36327.45
659.31	36098.08
659.46	36362.56
659.60	36531.08
659.74	36528.74
659.89	36023.19
660.03	35751.68
660.17	36346.18
660.32	36252.56
660.46	35878.07
660.60	36123.83
660.74	36095.74
660.89	36533.42
661.03	36039.57
661.17	35651.04
661.32	35133.78
661.46	35424.01
661.60	35321.02
661.74	35842.96
661.89	35775.09
662.03	35543.38
662.17	35637.00
662.31	35386.56
662.46	35510.61
662.60	35622.95
662.74	35690.83
662.88	35199.32
663.03	35030.80
663.17	34759.30
663.31	34801.43
663.45	35166.55
663.60	35035.48
663.74	34831.85
663.88	34920.79
664.02	34763.98
664.17	34794.40
664.31	34422.26
664.45	34455.03
664.59	34485.45
664.73	34766.32
664.88	34749.93
665.02	34635.25
665.16	34501.84
665.30	34408.22
665.44	34089.90
665.59	34192.89
665.73	34536.94
665.87	34433.96
666.01	34052.45
666.15	34075.86
666.29	33853.51
666.44	34150.76
666.58	34052.45
666.72	33867.55
666.86	34022.03
667.00	34506.52
667.14	34015.01
667.28	33734.14
667.43	33432.21
667.57	33846.49
667.71	33832.44
667.85	33535.20
667.99	33319.87
668.13	33455.62
668.27	33364.34
668.41	33303.48
668.56	32907.93
668.70	33291.78
668.84	33357.32
668.98	32713.67
669.12	32540.47
669.26	33226.24
669.40	32727.71
669.54	32671.54
669.68	32699.62
669.82	32589.62
669.96	32694.94
670.10	32514.72
670.25	32996.87
670.39	32622.39
670.53	32140.24
670.67	32432.80
670.81	32493.66
670.95	32467.91
671.09	32357.91
671.23	32191.73
671.37	32271.31
671.51	32350.88
671.65	31899.16
671.79	31292.96
671.93	31690.85
672.07	31901.50
672.21	32189.39
672.35	31740.00
672.49	31409.99
672.63	31672.13
672.77	31262.54
672.91	31807.88
673.05	31419.35
673.19	31363.18
673.33	31325.73
673.47	30899.75
673.61	31491.91
673.75	30817.83
673.89	30782.73
674.03	30679.74
674.17	30955.93
674.31	30876.35
674.45	30724.21
674.59	30913.80
674.73	30829.54
674.87	30686.76
675.01	30525.27
675.15	30328.66
675.29	30623.57
675.43	30338.02
675.56	30419.94
675.70	30054.82
675.84	30113.33
675.98	29397.13
676.12	30082.91
676.26	30281.85
676.40	30061.84
676.54	29898.00
676.68	29635.86
676.82	29467.34
676.96	29467.34
677.10	29198.18
677.23	29720.12
677.37	29156.05
677.51	29062.43
677.65	29233.29
677.79	28767.52
677.93	28554.54
678.07	28877.53
678.21	28409.42
678.34	28357.93
678.48	28603.69
678.62	28493.68
678.76	27913.23
678.90	27601.94
679.04	28025.57
679.18	27896.85
679.31	27733.01
679.45	27587.89
679.59	27435.76
679.73	27480.23
679.87	27190.00
680.00	27529.38
680.14	27087.02
680.28	27407.67
680.42	27428.74
680.56	27541.08
680.70	27253.20
680.83	27129.15
680.97	27068.30
681.11	27056.59
681.25	26595.51
681.39	26916.16
681.52	26579.12
681.66	26499.55
681.80	26611.89
681.94	26429.33
682.07	26445.71
682.21	26553.38
682.35	26005.69
682.49	26157.83
682.62	26089.95
682.76	26054.84
682.90	26139.10
683.04	25734.19
683.17	25537.59
683.31	25439.28
683.45	25249.70
683.59	25284.81
683.72	25326.94
683.86	25263.74
684.00	25219.27
684.13	25053.09
684.27	25106.93
684.41	24943.09
684.55	24767.55
684.68	24713.72
684.82	24624.78
684.96	24678.61
685.09	24308.80
685.23	24500.73
685.37	24439.87
685.50	24245.61
685.64	24353.27
685.78	24374.34
685.91	24030.28
686.05	23840.70
686.19	23784.52
686.32	23957.72
686.46	23431.10
686.60	22951.29
686.73	23166.62
686.87	23030.87
687.01	23051.94
687.14	22836.61
687.28	22860.01
687.42	22583.83
687.55	22782.77
687.69	23297.69
687.82	22815.54
687.96	22525.32
688.10	22654.05
688.23	22586.17
688.37	22073.59
688.50	22574.47
688.64	22160.19
688.78	22324.03
688.91	22043.17
689.05	22377.86
689.18	22148.49
689.32	21750.60
689.46	21907.41
689.59	21944.86
689.73	21895.71
689.86	21947.20
690.00	21481.44
690.13	21621.87
690.27	21284.83
690.41	21104.61
690.54	21254.40
690.68	20870.56
690.81	20982.90
690.95	21001.63
691.08	21273.13
691.22	20748.85
691.35	21060.14
691.49	20692.68
691.62	20737.15
691.76	20257.34
691.89	20423.51
692.03	20313.51
692.16	20175.42
692.30	20163.72
692.43	20217.55
692.57	19906.26
692.70	19906.26
692.84	19974.13
692.97	20212.87
693.11	19793.91
693.24	19550.49
693.38	19330.48
693.51	19271.97
693.65	19428.79
693.78	19571.56
693.92	19309.42
694.05	19037.92
694.19	19150.26
694.32	18948.98
694.45	18867.06
694.59	18574.49
694.72	18537.04
694.86	18625.98
694.99	18878.76
695.13	18539.38
695.26	18368.52
695.39	18253.84
695.53	18265.54
695.66	18403.63
695.80	18155.54
695.93	18174.26
696.07	18134.47
696.20	18033.83
696.33	18012.76
696.47	17933.18
696.60	17846.58
696.73	17479.12
696.87	17605.51
697.00	17799.77
697.14	17544.66
697.27	17397.20
697.40	17511.89
697.54	17277.83
697.67	17179.53
697.80	16985.27
697.94	16929.09
698.07	16786.32
698.21	16791.00
698.34	17092.93
698.47	16645.89
698.61	16535.88
698.74	16428.22
698.87	16381.41
699.01	16196.51
699.14	16287.79
699.27	16126.29
699.40	16243.32
699.54	16105.23
699.67	16016.29
699.80	15908.62
699.94	15566.90
700.07	15913.30
700.20	15815.00
700.34	15829.04
700.47	15639.46
700.60	15662.86
700.73	16187.14
700.87	15674.57
701.00	15531.80
701.13	15599.67
701.26	15325.83
701.40	15295.40
701.53	15145.61
701.66	15204.12
701.79	15370.30
701.93	14895.17
702.06	14757.08
702.19	14846.02
702.32	14736.01
702.46	14595.58
702.59	14537.07
702.72	14644.73
702.85	14602.60
702.99	14508.98
703.12	14401.32
703.25	14129.81
703.38	14111.09
703.51	14134.50
703.65	14099.39
703.78	13926.19
703.91	13991.72
704.04	14008.11
704.17	13785.76
704.31	13776.39
704.44	13724.90
704.57	13937.89
704.70	13635.96
704.83	13855.97
704.96	13642.98
705.10	13673.41
705.23	13549.36
>>>>>End Processed Spectral Data<<<<<
