SpectraSuite Data File
++++++++++++++++++++++++++++++++++++
Date: Fri Oct 25 10:47:39 EDT 2013
User: price-jones
Dark Spectrum Present: No
Reference Spectrum Present: No
Number of Sampled Component Spectra: 1
Spectrometers: USB2+H05261
Integration Time (usec): 100000 (USB2+H05261)
Spectra Averaged: 1 (USB2+H05261)
Boxcar Smoothing: 0 (USB2+H05261)
Correct for Electrical Dark: No (USB2+H05261)
Strobe/Lamp Enabled: No (USB2+H05261)
Correct for Detector Non-linearity: No (USB2+H05261)
Correct for Stray Light: No (USB2+H05261)
Number of Pixels in Processed Spectrum: 2048
>>>>>Begin Processed Spectral Data<<<<<
365.73	159.16
365.92	159.16
366.12	159.16
366.32	63.19
366.52	53.83
366.72	4.68
366.91	70.22
367.11	63.19
367.31	2.34
367.51	77.24
367.70	0.00
367.90	58.51
368.10	0.00
368.30	81.92
368.49	79.58
368.69	51.49
368.89	51.49
369.09	77.24
369.28	37.45
369.48	84.26
369.68	44.47
369.87	72.56
370.07	102.98
370.27	149.79
370.47	149.79
370.66	414.27
370.86	465.77
371.06	503.22
371.25	472.79
371.45	463.43
371.65	423.64
371.84	414.27
372.04	491.51
372.24	512.58
372.44	433.00
372.63	397.89
372.83	514.92
373.03	514.92
373.22	500.87
373.42	493.85
373.62	507.90
373.81	540.66
374.01	550.03
374.21	550.03
374.40	512.58
374.60	554.71
374.79	526.62
374.99	526.62
375.19	383.85
375.38	594.50
375.58	543.00
375.78	585.13
375.97	606.20
376.17	711.52
376.37	575.77
376.56	617.90
376.76	596.84
376.95	538.32
377.15	535.98
377.35	575.77
377.54	624.92
377.74	662.37
377.93	580.45
378.13	592.16
378.33	617.90
378.52	592.16
378.72	645.99
378.91	596.84
379.11	653.01
379.31	648.33
379.50	638.97
379.70	662.37
379.89	660.03
380.09	660.03
380.28	662.37
380.48	692.80
380.68	648.33
380.87	667.05
381.07	660.03
381.26	751.31
381.46	624.92
381.65	627.26
381.85	681.10
382.04	664.71
382.24	706.84
382.43	613.22
382.63	662.37
382.83	709.18
383.02	734.93
383.22	716.20
383.41	697.48
383.61	781.74
383.80	781.74
384.00	718.54
384.19	699.82
384.39	725.57
384.58	816.85
384.78	777.06
384.97	833.23
385.17	744.29
385.36	777.06
385.56	737.27
385.75	753.65
385.95	788.76
386.14	943.24
386.34	816.85
386.53	741.95
386.72	753.65
386.92	798.12
387.11	854.30
387.31	854.30
387.50	807.48
387.70	819.19
387.89	887.06
388.09	856.64
388.28	809.83
388.48	755.99
388.67	898.77
388.86	854.30
389.06	891.74
389.25	854.30
389.45	901.11
389.64	931.53
389.84	915.15
390.03	1001.75
390.22	959.62
390.42	950.26
390.61	861.32
390.81	943.24
391.00	964.30
391.19	992.39
391.39	994.73
391.58	898.77
391.78	968.98
391.97	1100.05
392.16	910.47
392.36	1076.65
392.55	997.07
392.75	985.37
392.94	1018.13
393.13	933.87
393.33	936.21
393.52	992.39
393.71	1048.56
393.91	1060.26
394.10	1004.09
394.29	1083.67
394.49	1149.20
394.68	1078.99
394.88	1125.80
395.07	1160.91
395.26	1125.80
395.46	1181.97
395.65	1156.22
395.84	1121.12
396.04	1198.35
396.23	1177.29
396.42	1172.61
396.62	1186.65
396.81	1263.89
397.00	1226.44
397.19	1259.21
397.39	1153.88
397.58	1179.63
397.77	1263.89
397.97	1238.14
398.16	1198.35
398.35	1336.45
398.55	1373.89
398.74	1373.89
398.93	1387.94
399.12	1425.39
399.32	1345.81
399.51	1315.38
399.70	1437.09
399.90	1313.04
400.09	1397.30
400.28	1458.15
400.47	1444.11
400.67	1427.73
400.86	1483.90
401.05	1411.34
401.24	1577.52
401.44	1511.99
401.63	1425.39
401.82	1511.99
402.01	1519.01
402.21	1584.54
402.40	1509.65
402.59	1537.73
402.78	1530.71
402.97	1488.58
403.17	1579.86
403.36	1717.95
403.55	1619.65
403.74	1708.59
403.93	1729.66
404.13	1678.16
404.32	1619.65
404.51	1692.21
404.70	1734.34
404.89	1631.35
405.09	1795.19
405.28	1823.28
405.47	1834.98
405.66	1778.81
405.85	1790.51
406.05	1788.17
406.24	1762.42
406.43	1736.68
406.62	1849.02
406.81	1909.88
407.00	1776.47
407.20	1764.76
407.39	1919.24
407.58	2019.88
407.77	1961.37
407.96	2022.22
408.15	2017.54
408.34	1984.77
408.54	2040.95
408.73	2024.56
408.92	2008.18
409.11	2043.29
409.30	2003.50
409.49	2083.08
409.68	2111.16
409.87	2001.16
410.07	2069.03
410.26	2066.69
410.45	2200.10
410.64	2183.72
410.83	2216.49
411.02	2354.58
411.21	2380.32
411.40	2370.96
411.59	2277.34
411.78	2197.76
411.98	2429.48
412.17	2457.56
412.36	2408.41
412.55	2415.43
412.74	2588.63
412.93	2490.33
413.12	2434.16
413.31	2576.93
413.50	2457.56
413.69	2630.76
413.88	2656.51
414.07	2593.31
414.26	2640.12
414.45	2682.25
414.64	2569.91
414.83	2679.91
415.02	2834.39
415.22	2839.07
415.41	2867.16
415.60	2806.30
415.79	2832.05
415.98	2853.11
416.17	2869.50
416.36	2960.78
416.55	3030.99
416.74	3042.70
416.93	2991.20
417.12	2998.23
417.31	3056.74
417.50	2981.84
417.69	3035.67
417.88	3267.39
418.07	3150.36
418.26	3002.91
418.45	3178.45
418.64	3279.09
418.83	3190.15
419.02	3190.15
419.21	3265.05
419.39	3094.19
419.58	3075.46
419.77	3180.79
419.96	3330.58
420.15	3318.88
420.34	3300.16
420.53	3365.69
420.72	3382.07
420.91	3335.26
421.10	3375.05
421.29	3566.98
421.48	3447.61
421.67	3393.78
421.86	3428.88
422.05	3375.05
422.24	3428.88
422.43	3485.06
422.61	3522.51
422.80	3466.33
422.99	3531.87
423.18	3574.00
423.37	3714.43
423.56	3496.76
423.75	3501.44
423.94	3590.38
424.13	3335.26
424.32	3480.38
424.50	3639.53
424.69	3578.68
424.88	3735.50
425.07	3578.68
425.26	3562.30
425.45	3555.27
425.64	3419.52
425.83	3574.00
426.01	3737.84
426.20	3552.93
426.39	3538.89
426.58	3604.42
426.77	3548.25
426.96	3681.66
427.15	3730.81
427.33	3714.43
427.52	3782.31
427.71	3892.31
427.90	3761.24
428.09	3705.07
428.28	3822.09
428.46	3808.05
428.65	3803.37
428.84	3761.24
429.03	3899.33
429.22	3838.48
429.40	3992.95
429.59	3786.99
429.78	3749.54
429.97	3641.87
430.16	3768.26
430.34	3747.20
430.53	3967.21
430.72	4032.74
430.91	3946.14
431.10	3964.87
431.28	4140.41
431.47	4084.23
431.66	4131.05
431.85	4065.51
432.03	4227.01
432.22	4418.93
432.41	4189.56
432.60	4168.49
432.79	4341.69
432.97	4292.54
433.16	4299.56
433.35	4191.90
433.54	4250.41
433.72	4376.80
433.91	4191.90
434.10	4393.19
434.28	4346.37
434.47	4383.82
434.66	4458.72
434.85	4580.43
435.03	4554.68
435.22	4505.53
435.41	4643.62
435.59	4512.55
435.78	4664.69
435.97	4786.40
436.16	4720.86
436.34	4610.86
436.53	4603.83
436.72	4751.29
436.90	4601.49
437.09	4842.57
437.28	4674.05
437.46	4690.43
437.65	4725.54
437.84	4795.76
438.02	4744.27
438.21	4840.23
438.40	4741.93
438.58	4933.85
438.77	4980.66
438.96	4903.42
439.14	5144.50
439.33	5247.48
439.52	5291.95
439.70	5219.39
439.89	5212.37
440.08	5188.97
440.26	5146.84
440.45	5043.85
440.63	5369.19
440.82	5444.09
441.01	5425.36
441.19	5416.00
441.38	5411.32
441.57	5533.03
441.75	5713.25
441.94	5692.18
442.12	5575.16
442.31	5729.63
442.50	5673.46
442.68	5687.50
442.87	5717.93
443.05	5750.70
443.24	5937.94
443.43	5881.77
443.61	5776.44
443.80	6052.63
443.98	5673.46
444.17	5668.78
444.35	5977.73
444.54	5959.00
444.73	5750.70
444.91	5954.32
445.10	5970.71
445.28	5731.97
445.47	5830.27
445.65	5715.59
445.84	5905.17
446.02	5996.45
446.21	6101.78
446.39	6026.88
446.58	6073.69
446.77	6078.37
446.95	5947.30
447.14	6155.61
447.32	6029.22
447.51	6061.99
447.69	5947.30
447.88	6010.50
448.06	6083.05
448.25	6069.01
448.43	6127.52
448.62	6136.88
448.80	6036.24
448.99	6228.17
449.17	6209.44
449.36	6225.82
449.54	6324.13
449.73	6399.02
449.91	6319.45
450.10	6422.43
450.28	6473.92
450.46	6492.65
450.65	6462.22
450.83	6614.35
451.02	6553.50
451.20	6560.52
451.39	6623.72
451.57	6307.74
451.76	6408.39
451.94	6459.88
452.13	6647.12
452.31	6569.88
452.49	6401.37
452.68	6544.14
452.86	6558.18
453.05	6621.38
453.23	6738.40
453.42	6612.01
453.60	6572.22
453.78	6717.34
453.97	6684.57
454.15	6658.82
454.34	6722.02
454.52	6792.23
454.70	6860.11
454.89	6850.75
455.07	6707.98
455.26	6909.26
455.44	7190.13
455.62	7087.14
455.81	6967.77
455.99	6960.75
456.17	7173.74
456.36	7089.48
456.54	7258.00
456.73	7220.55
456.91	7234.60
457.09	7241.62
457.28	7449.93
457.46	7309.49
457.64	7475.67
457.83	7398.43
458.01	7279.07
458.19	7562.27
458.38	7428.86
458.56	7545.89
458.74	7606.74
458.93	7520.14
459.11	7609.08
459.29	7564.61
459.48	7625.47
459.66	7576.31
459.84	7609.08
460.03	7726.11
460.21	7789.30
460.39	7871.22
460.57	7653.55
460.76	7782.28
460.94	7796.32
461.12	7812.71
461.31	7836.11
461.49	7850.16
461.67	7751.85
461.85	8081.87
462.04	7967.18
462.22	8606.15
462.40	8327.63
462.59	7985.91
462.77	8229.32
462.95	8156.77
463.13	8226.98
463.32	8205.92
463.50	8320.60
463.68	8292.52
463.86	8250.39
464.05	8145.06
464.23	8173.15
464.41	8079.53
464.59	8250.39
464.78	8365.07
464.96	8301.88
465.14	8456.36
465.32	8278.47
465.50	8276.13
465.69	8496.14
465.87	8475.08
466.05	8383.80
466.23	8531.25
466.41	8503.17
466.60	8704.45
466.78	8568.70
466.96	8566.36
467.14	8699.77
467.32	8505.51
467.51	8697.43
467.69	8519.55
467.87	8479.76
468.05	8568.70
468.23	8791.05
468.41	8807.44
468.60	8725.52
468.78	8863.61
468.96	8826.16
469.14	9039.15
469.32	8781.69
469.50	8549.98
469.69	8966.59
469.87	8879.99
470.05	9118.73
470.23	9088.30
470.41	9074.26
470.59	9195.96
470.77	9097.66
470.95	9020.42
471.14	9284.91
471.32	9050.85
471.50	9444.06
471.68	9455.76
471.86	9488.53
472.04	9703.86
472.22	9708.54
472.40	9495.55
472.58	9420.66
472.77	9607.90
472.95	9619.60
473.13	9973.02
473.31	9591.52
473.49	9568.11
473.67	9795.14
473.85	9792.80
474.03	9968.34
474.21	10113.45
474.39	10026.86
474.57	10324.10
474.75	10129.84
474.93	10270.27
475.12	10422.41
475.30	10511.35
475.48	10202.40
475.66	10265.59
475.84	10382.62
476.02	10544.11
476.20	10441.13
476.38	10778.17
476.56	10972.43
476.74	11030.94
476.92	10890.51
477.10	10944.34
477.28	11232.23
477.46	11260.32
477.64	11302.45
477.82	11073.07
478.00	11353.94
478.18	11372.66
478.36	11466.28
478.54	11796.30
478.72	11840.77
478.90	11967.16
479.08	12004.61
479.26	12138.02
479.44	12187.17
479.62	12077.16
479.80	12222.28
479.98	12432.93
480.16	12526.55
480.34	12535.91
480.52	12688.04
480.70	12739.54
480.88	12659.96
481.06	12800.39
481.24	12755.92
481.41	12947.84
481.59	13191.26
481.77	13277.86
481.95	13142.11
482.13	13322.33
482.31	13493.19
482.49	13734.26
482.67	13785.76
482.85	14064.28
483.03	13839.59
483.21	14078.32
483.39	14157.90
483.57	13872.36
483.74	14265.57
483.92	14466.85
484.10	14403.66
484.28	14698.56
484.46	14869.42
484.64	14939.64
484.82	14995.81
485.00	14960.70
485.18	15197.10
485.35	15391.36
485.53	15129.22
485.71	15126.88
485.89	15229.87
486.07	15384.34
486.25	15454.56
486.43	15545.84
486.61	15674.57
486.78	16238.64
486.96	16114.59
487.14	16198.85
487.32	16273.74
487.50	16631.85
487.68	16877.60
487.85	17090.59
488.03	17076.55
488.21	17179.53
488.39	17493.16
488.57	17359.75
488.75	17518.91
488.92	17912.12
489.10	18010.42
489.28	18001.06
489.46	18195.32
489.64	18036.17
489.81	18471.51
489.99	18539.38
490.17	18602.58
490.35	18838.97
490.53	18757.05
490.70	19042.60
490.88	19033.24
491.06	19541.13
491.24	19208.78
491.41	19260.27
491.59	19396.02
491.77	19166.65
491.95	19782.21
492.13	19854.76
492.30	19786.89
492.48	20269.04
492.66	20418.83
492.84	20297.13
493.01	20208.19
493.19	20449.26
493.37	20409.47
493.54	20861.19
493.72	20898.64
493.90	20975.88
494.08	21057.80
494.25	21352.71
494.43	21446.33
494.61	21476.76
494.79	21799.75
494.96	21874.65
495.14	21884.01
495.32	22153.17
495.49	22078.27
495.67	21862.94
495.85	22644.68
496.02	22419.99
496.20	22609.58
496.38	22567.45
496.55	22909.16
496.73	23208.75
496.91	22951.29
497.09	23080.02
497.26	23229.82
497.44	23211.09
497.62	23110.45
497.79	23716.65
497.97	23424.08
498.14	23627.71
498.32	23845.38
498.50	23913.25
498.67	24259.65
498.85	24081.77
499.03	24524.13
499.20	24252.63
499.38	24343.91
499.56	24482.00
499.73	24601.37
499.91	24699.67
500.08	25214.59
500.26	24606.05
500.44	24772.23
500.61	25254.38
500.79	24886.92
500.97	25472.05
501.14	25603.12
501.32	25355.02
501.49	25455.67
501.67	25516.52
501.84	25385.45
502.02	25738.87
502.20	25771.64
502.37	26139.10
502.55	25909.73
502.72	26094.63
502.90	26263.15
503.07	25926.11
503.25	26368.48
503.43	26066.55
503.60	26181.23
503.78	26541.68
503.95	26803.82
504.13	26649.34
504.30	26555.72
504.48	26544.02
504.65	26967.65
504.83	27084.68
505.01	27166.60
505.18	27080.00
505.36	27349.16
505.53	27559.81
505.71	27828.97
505.88	27606.62
506.06	27400.65
506.23	27814.93
506.41	27805.56
506.58	27683.86
506.76	27978.76
506.93	28402.40
507.11	28147.28
507.28	28636.45
507.46	28243.24
507.63	28053.66
507.81	28081.75
507.98	28198.77
508.16	28332.18
508.33	29046.05
508.50	28966.47
508.68	28989.88
508.85	28727.74
509.03	28912.64
509.20	28882.21
509.38	28945.41
509.55	29099.88
509.73	29113.92
509.90	29301.17
510.08	29261.38
510.25	29312.87
510.42	29530.54
510.60	29628.84
510.77	29837.15
510.95	29570.33
511.12	29940.13
511.30	30192.91
511.47	30050.14
511.64	30293.55
511.82	30593.14
511.99	29846.51
512.17	30611.87
512.34	30223.34
512.51	30309.94
512.69	30703.15
512.86	30710.17
513.04	31016.78
513.21	31023.80
513.38	31014.44
513.56	30827.20
513.73	30972.31
513.90	31042.53
514.08	31161.89
514.25	31220.41
514.43	31065.93
514.60	31487.23
514.77	31421.69
514.95	31740.00
515.12	31866.39
515.29	31585.53
515.47	31646.38
515.64	31599.57
515.81	31491.91
515.99	31555.10
516.16	31885.12
516.33	31714.26
516.51	31871.07
516.68	31548.08
516.85	31831.29
517.03	31866.39
517.20	32587.28
517.37	32091.09
517.54	32353.23
517.72	32613.02
517.89	32290.03
518.06	32390.67
518.24	32343.86
518.41	32109.81
518.58	32606.00
518.75	32666.86
518.93	32889.21
519.10	32999.21
519.27	33373.70
519.45	33120.92
519.62	33518.81
519.79	32975.81
519.96	33392.42
520.14	33343.27
520.31	33750.52
520.48	34164.80
520.65	33249.65
520.83	33942.45
521.00	33827.76
521.17	34211.61
521.34	34092.24
521.52	34312.25
521.69	33989.26
521.86	34377.79
522.03	34316.93
522.20	34340.34
522.38	34979.31
522.55	34550.99
522.72	34335.66
522.89	34529.92
523.07	34937.18
523.24	34686.74
523.41	34789.72
523.58	34906.75
523.75	35187.61
523.92	35384.22
524.10	35262.51
524.27	34792.06
524.44	35246.13
524.61	35314.00
524.78	35353.79
524.96	35391.24
525.13	35824.24
525.30	35875.73
525.47	35697.85
525.64	35496.56
525.81	35828.92
525.98	35789.13
526.16	35688.49
526.33	35615.93
526.50	35913.18
526.67	35615.93
526.84	35906.16
527.01	35679.13
527.18	36364.90
527.36	35913.18
527.53	36708.96
527.70	36325.11
527.87	36002.12
528.04	36507.68
528.21	36807.26
528.38	36383.63
528.55	36964.08
528.72	36233.83
528.89	37219.20
529.07	36954.72
529.24	36460.87
529.41	36891.52
529.58	36580.23
529.75	36961.74
529.92	36863.44
530.09	36957.06
530.26	37235.58
530.43	37193.45
530.60	37120.90
530.77	37340.91
530.94	37226.22
531.11	37331.54
531.28	37069.40
531.46	37766.88
531.63	37797.31
531.80	37141.96
531.97	37483.68
532.14	37479.00
532.31	37368.99
532.48	38249.03
532.65	37661.56
532.82	37745.82
532.99	38064.13
533.16	37340.91
533.33	37902.64
533.50	38230.31
533.67	38190.52
533.84	37397.08
534.01	38234.99
534.18	37797.31
534.35	38490.11
534.52	38263.08
534.69	38843.53
534.86	38665.65
535.03	38150.73
535.20	38969.92
535.37	38902.04
535.54	38827.15
535.71	39007.37
535.88	38649.27
536.05	38752.25
536.22	38953.54
536.38	38808.42
536.55	38948.85
536.72	38565.01
536.89	39264.83
537.06	38855.23
537.23	39655.70
537.40	39075.24
537.57	39047.16
537.74	39281.21
537.91	39510.58
538.08	39232.06
538.25	39187.59
538.42	38946.51
538.59	39798.47
538.75	39358.45
538.92	39311.64
539.09	39702.51
539.26	39510.58
539.43	39166.52
539.60	39592.50
539.77	39480.16
539.94	39758.68
540.11	39697.83
540.28	39618.25
540.44	39578.46
540.61	39391.22
540.78	39461.43
540.95	39959.97
541.12	40013.80
541.29	39414.62
541.46	39817.19
541.62	39978.69
541.79	40404.67
541.96	39702.51
542.13	40318.07
542.30	39915.50
542.47	40423.39
542.63	40486.59
542.80	40509.99
542.97	40758.09
543.14	40935.97
543.31	40774.47
543.48	41017.89
543.64	41053.00
543.81	41233.22
543.98	40945.33
544.15	41050.66
544.32	40788.52
544.48	41247.26
544.65	41209.81
544.82	41221.52
544.99	40655.11
545.16	40919.59
545.32	40715.96
545.49	41418.12
545.66	41221.52
545.83	41469.61
546.00	41301.09
546.16	41439.18
546.33	41572.60
546.50	40772.13
546.67	41263.64
546.83	41062.36
547.00	41301.09
547.17	41427.48
547.34	41553.87
547.50	41680.26
547.67	42017.30
547.84	41511.74
548.00	41982.19
548.17	42134.32
548.34	41947.08
548.51	41947.08
548.67	42117.94
548.84	42417.53
549.01	41977.51
549.18	42139.00
549.34	42054.75
549.51	42253.69
549.68	42464.34
549.84	41989.21
550.01	42115.60
550.18	42117.94
550.34	42113.26
550.51	41689.62
550.68	41991.55
550.84	41808.99
551.01	41785.58
551.18	42164.75
551.34	42431.57
551.51	42714.78
551.68	42136.66
551.84	42609.45
552.01	42518.17
552.18	42543.92
552.34	41979.85
552.51	42913.72
552.68	42941.81
552.84	42384.76
553.01	43044.79
553.18	42593.07
553.34	42918.40
553.51	42564.98
553.67	42462.00
553.84	43353.74
554.01	42906.70
554.17	42789.67
554.34	43227.35
554.51	43161.82
554.67	43082.24
554.84	43196.93
555.00	43091.60
555.17	42876.27
555.33	43086.92
555.50	43063.52
555.67	42962.87
555.83	43423.96
556.00	43000.32
556.16	43775.04
556.33	43131.39
556.50	43164.16
556.66	43140.75
556.83	43143.09
556.99	43306.93
557.16	43147.78
557.32	43430.98
557.49	43533.96
557.65	42995.64
557.82	43515.24
557.98	42756.91
558.15	43812.49
558.32	43573.75
558.48	43529.28
558.65	43608.86
558.81	43611.20
558.98	43772.70
559.14	44060.58
559.31	43646.31
559.47	43522.26
559.64	43629.93
559.80	44100.37
559.97	44030.16
560.13	43662.69
560.30	43578.43
560.46	43758.66
560.63	44294.64
560.79	43629.93
560.96	44048.88
561.12	43765.68
561.29	43966.96
561.45	44161.23
561.61	43835.89
561.78	43922.49
561.94	43709.50
562.11	43611.20
562.27	43632.27
562.44	43945.90
562.60	44058.24
562.77	44311.02
562.93	43948.24
563.10	44432.73
563.26	43959.94
563.42	44168.25
563.59	44004.41
563.75	44142.50
563.92	44095.69
564.08	44378.90
564.24	44147.18
564.41	44163.57
564.57	44451.45
564.74	44137.82
564.90	44521.67
565.07	44392.94
565.23	44144.84
565.39	43856.96
565.56	44238.47
565.72	44107.40
565.88	44282.94
566.05	44367.20
566.21	44149.53
566.38	44432.73
566.54	44493.58
566.70	44699.55
566.87	45174.68
567.03	44467.84
567.19	44416.35
567.36	44725.30
567.52	44521.67
567.68	44165.91
567.85	44865.73
568.01	44507.63
568.17	44495.92
568.34	44229.10
568.50	44360.17
568.66	44350.81
568.83	44385.92
568.99	44165.91
569.15	44201.02
569.32	44046.54
569.48	44512.31
569.64	44987.44
569.81	44718.28
569.97	44690.19
570.13	44851.69
570.30	44456.14
570.46	44458.48
570.62	44320.38
570.78	44566.14
570.95	44921.90
571.11	44938.29
571.27	44498.26
571.43	44652.74
571.60	44631.68
571.76	44472.52
571.92	44563.80
572.09	44566.14
572.25	44746.36
572.41	44343.79
572.57	44666.78
572.74	45258.94
572.90	44575.50
573.06	44729.98
573.22	44959.35
573.38	44299.32
573.55	44304.00
573.71	44851.69
573.87	44718.28
574.03	44531.03
574.20	44973.39
574.36	44622.31
574.52	44758.06
574.68	44942.97
574.84	44910.20
575.01	44687.85
575.17	44966.37
575.33	44399.96
575.49	44765.09
575.65	45113.83
575.82	44994.46
575.98	44788.49
576.14	45378.31
576.30	44945.31
576.46	44797.85
576.62	44844.66
576.79	44755.72
576.95	44348.47
577.11	44360.17
577.27	44907.86
577.43	45048.29
577.59	44605.93
577.75	45118.51
577.92	44205.70
578.08	44680.83
578.24	44650.40
578.40	44811.90
578.56	45111.49
578.72	44453.79
578.88	45052.97
579.04	44694.87
579.21	44402.30
579.37	44521.67
579.53	45090.42
579.69	44549.76
579.85	44823.60
580.01	45230.85
580.17	45027.23
580.33	45134.89
580.49	45385.33
580.65	44884.45
580.82	45059.99
580.98	45095.10
581.14	44371.88
581.30	45127.87
581.46	44732.32
581.62	44554.44
581.78	44891.48
581.94	45301.07
582.10	44463.16
582.26	45212.13
582.42	45041.27
582.58	44928.92
582.74	45013.18
582.90	45111.49
583.06	45186.38
583.22	44964.03
583.38	45256.60
583.54	45106.80
583.70	44720.62
583.86	44603.59
584.02	44566.14
584.18	44954.67
584.34	45167.66
584.50	45263.62
584.66	44783.81
584.82	44921.90
584.98	45158.30
585.14	44933.60
585.30	44540.39
585.46	44839.98
585.62	44619.97
585.78	44942.97
585.94	44748.70
586.10	44577.84
586.26	44701.89
586.42	45085.74
586.58	44907.86
586.74	44776.79
586.90	44816.58
587.06	44751.04
587.22	45277.66
587.38	44842.32
587.54	44994.46
587.70	45179.36
587.86	44982.76
588.02	45233.19
588.18	45670.87
588.34	44823.60
588.49	44903.18
588.65	44570.82
588.81	44465.50
588.97	44404.64
589.13	44713.59
589.29	44821.26
589.45	44729.98
589.61	45015.52
589.77	45237.87
589.93	45268.30
590.08	45359.58
590.24	45153.62
590.40	45291.71
590.56	45862.80
590.72	45462.57
590.88	45074.04
591.04	45258.94
591.20	45464.91
591.35	45081.06
591.51	45523.42
591.67	45045.95
591.83	45148.93
591.99	45010.84
592.15	44839.98
592.31	45272.98
592.46	44847.00
592.62	45083.40
592.78	45233.19
592.94	45045.95
593.10	45411.07
593.26	45380.65
593.41	45041.27
593.57	44942.97
593.73	44844.66
593.89	45448.52
594.05	45375.97
594.20	45223.83
594.36	45284.68
594.52	45270.64
594.68	45375.97
594.84	44818.92
594.99	45535.12
595.15	45270.64
595.31	45368.94
595.47	45399.37
595.62	45500.01
595.78	45429.80
595.94	45514.06
596.10	45696.62
596.25	45247.24
596.41	45371.28
596.57	44748.70
596.73	45380.65
596.88	45125.53
597.04	45202.77
597.20	45329.16
597.36	45385.33
597.51	45537.46
597.67	45619.38
597.83	45455.54
597.99	45565.55
598.14	45481.29
598.30	45846.41
598.46	45495.33
598.61	44924.24
598.77	45045.95
598.93	45146.59
599.09	45621.72
599.24	45713.00
599.40	45633.42
599.56	45647.47
599.71	45689.60
599.87	45989.19
600.03	45401.71
600.18	45380.65
600.34	45291.71
600.50	45420.44
600.65	45556.19
600.81	45481.29
600.97	45663.85
601.12	45467.25
601.28	45925.99
601.44	45317.45
601.59	45607.68
601.75	45088.08
601.91	45380.65
602.06	45329.16
602.22	45123.19
602.37	45436.82
602.53	45673.21
602.69	45680.24
602.84	45261.28
603.00	45233.19
603.16	45228.51
603.31	44896.16
603.47	45600.66
603.62	45148.93
603.78	45249.58
603.94	45343.20
604.09	45492.99
604.25	45310.43
604.40	44671.46
604.56	45752.79
604.71	45743.43
604.87	45113.83
605.03	45315.11
605.18	45453.20
605.34	45270.64
605.49	45160.64
605.65	45825.35
605.80	44823.60
605.96	45371.28
606.12	45605.34
606.27	45570.23
606.43	44844.66
606.58	45453.20
606.74	44919.56
606.89	44884.45
607.05	44854.03
607.20	44825.94
607.36	45483.63
607.51	45729.39
607.67	45467.25
607.82	45191.06
607.98	45064.67
608.13	45268.30
608.29	44933.60
608.44	45031.91
608.60	44893.82
608.75	44650.40
608.91	44914.88
609.06	45034.25
609.22	45488.31
609.37	44851.69
609.53	45151.27
609.68	44390.60
609.84	45078.72
609.99	44732.32
610.15	44839.98
610.30	44879.77
610.46	44748.70
610.61	44509.97
610.76	44751.04
610.92	44818.92
611.07	44758.06
611.23	44601.25
611.38	44804.88
611.54	44713.59
611.69	44776.79
611.84	44659.76
612.00	44545.08
612.15	44891.48
612.31	45151.27
612.46	44210.38
612.62	44727.64
612.77	44842.32
612.92	44825.94
613.08	44247.83
613.23	44318.04
613.39	44411.67
613.54	44060.58
613.69	44149.53
613.85	45076.38
614.00	44594.23
614.15	44987.44
614.31	44587.21
614.46	44900.84
614.62	44327.41
614.77	44030.16
614.92	44451.45
615.08	44004.41
615.23	43955.26
615.38	44175.27
615.54	43903.77
615.69	44278.25
615.84	43847.60
616.00	43739.93
616.15	44435.07
616.30	44245.49
616.46	44224.42
616.61	43524.60
616.76	43859.30
616.92	43873.34
617.07	43615.88
617.22	43910.79
617.37	43702.48
617.53	44439.75
617.68	43871.00
617.83	44053.56
617.99	44060.58
618.14	44194.00
618.29	43973.98
618.45	43033.09
618.60	44020.80
618.75	44016.11
618.90	43779.72
619.06	44184.63
619.21	43765.68
619.36	43587.80
619.51	43786.74
619.67	43711.84
619.82	43498.86
619.97	43931.86
620.12	43695.46
620.28	43290.55
620.43	43339.70
620.58	43599.50
620.73	43665.03
620.89	43271.82
621.04	43339.70
621.19	43426.30
621.34	43054.15
621.49	43056.50
621.65	43271.82
621.80	43585.46
621.95	42883.30
622.10	43072.88
622.25	43887.39
622.41	42822.44
622.56	43192.25
622.71	43688.44
622.86	42838.83
623.01	43260.12
623.16	43161.82
623.32	42934.79
623.47	43459.07
623.62	43435.66
623.77	42506.47
623.92	42831.80
624.07	42766.27
624.23	42543.92
624.38	42649.24
624.53	42801.38
624.68	42611.79
624.83	42913.72
624.98	42911.38
625.13	42518.17
625.29	42319.23
625.44	42792.01
625.59	42356.67
625.74	42450.30
625.89	42073.47
626.04	41790.27
626.19	42202.20
626.34	42719.46
626.49	42672.65
626.65	41993.89
626.80	42918.40
626.95	42684.35
627.10	42410.51
627.25	42452.64
627.40	42110.92
627.55	41799.63
627.70	41883.89
627.85	41986.87
628.00	42295.82
628.15	42440.93
628.30	42024.32
628.45	42368.38
628.60	42195.18
628.76	42110.92
628.91	42237.31
629.06	42279.44
629.21	41914.31
629.36	41816.01
629.51	42316.89
629.66	41652.17
629.81	41628.77
629.96	41724.73
630.11	41834.74
630.26	41933.04
630.41	41893.25
630.56	41560.89
630.71	41724.73
630.86	41937.72
631.01	41310.46
631.16	41638.13
631.31	41593.66
631.46	41350.24
631.61	41127.89
631.76	41642.81
631.91	41221.52
632.06	41577.28
632.21	41570.25
632.36	41612.38
632.51	41656.85
632.66	41493.02
632.81	40666.81
632.96	40992.14
633.10	41153.64
633.25	41406.42
633.40	41422.80
633.55	41282.37
633.70	41525.78
633.85	40858.73
634.00	41420.46
634.15	41057.68
634.30	40992.14
634.45	41188.75
634.60	40950.01
634.75	40940.65
634.90	40954.69
635.05	40840.01
635.19	40982.78
635.34	41146.62
635.49	40851.71
635.64	41172.36
635.79	40512.33
635.94	40542.76
636.09	40680.85
636.24	40418.71
636.39	40341.47
636.53	40678.51
636.68	40247.85
636.83	40177.64
636.98	40825.96
637.13	40212.74
637.28	40825.96
637.43	40966.40
637.57	40685.53
637.72	41071.72
637.87	40837.67
638.02	40154.23
638.17	40147.21
638.32	40446.80
638.46	40524.04
638.61	40414.03
638.76	40058.27
638.91	40875.12
639.06	40327.43
639.20	40357.86
639.35	40769.79
639.50	39782.09
639.65	40474.88
639.80	40315.73
639.94	39681.44
640.09	40198.70
640.24	40067.63
640.39	39889.75
640.54	40392.97
640.68	39714.21
640.83	39969.33
640.98	40044.23
641.13	39688.46
641.27	40498.29
641.42	39702.51
641.57	39908.47
641.72	40343.81
641.86	39742.30
642.01	39442.71
642.16	39569.10
642.31	39491.86
642.45	39704.85
642.60	39061.20
642.75	39517.60
642.90	39655.70
643.04	39356.11
643.19	39419.30
643.34	39653.36
643.48	39686.12
643.63	39421.64
643.78	39524.63
643.93	39332.70
644.07	38934.81
644.22	39218.02
644.37	39019.07
644.51	39344.41
644.66	39175.89
644.81	39552.71
644.95	39606.55
645.10	38967.58
645.25	39356.11
645.39	39585.48
645.54	39578.46
645.69	39264.83
645.83	38939.49
645.98	38862.26
646.13	39562.08
646.27	39536.33
646.42	39075.24
646.57	39222.70
646.71	38888.00
646.86	39042.48
647.00	38787.36
647.15	39026.09
647.30	39089.29
647.44	39077.58
647.59	38794.38
647.74	38937.15
647.88	38834.17
648.03	38930.13
648.17	38667.99
648.32	38857.57
648.47	38766.29
648.61	38422.23
648.76	38546.28
648.90	38799.06
649.05	38789.70
649.20	38581.39
649.34	38660.97
649.49	38382.45
649.63	38256.06
649.78	38560.33
649.92	38548.62
650.07	38944.17
650.21	38384.79
650.36	38059.45
650.51	38115.62
650.65	38721.82
650.80	38326.27
650.94	38817.78
651.09	38499.47
651.23	38359.04
651.38	38459.68
651.52	38075.84
651.67	38155.41
651.81	38202.22
651.96	37783.27
652.10	38246.69
652.25	37895.61
652.39	37935.40
652.54	38181.16
652.68	38218.61
652.83	37996.26
652.97	38017.32
653.12	38092.22
653.26	37633.47
653.41	38057.11
653.55	37469.64
653.70	37914.34
653.84	38316.91
653.99	37825.40
654.13	37694.33
654.27	37794.97
654.42	37530.49
654.56	37338.57
654.71	37586.66
654.85	37652.20
655.00	37544.53
655.14	37418.14
655.29	37336.23
655.43	36943.02
655.57	37343.25
655.72	36851.73
655.86	37090.47
656.01	36989.83
656.15	37434.53
656.30	37406.44
656.44	37015.57
656.58	36947.70
656.73	36985.15
656.87	36833.01
657.01	37134.94
657.16	37095.15
657.30	36687.90
657.45	36428.10
657.59	36505.34
657.73	36989.83
657.88	36879.82
658.02	37214.52
658.16	36439.80
658.31	37144.30
658.45	37013.23
658.60	36737.05
658.74	36751.09
658.88	36992.17
659.03	36385.97
659.17	36514.70
659.31	36636.41
659.46	36629.38
659.60	36683.22
659.74	36259.58
659.89	36231.49
660.03	36507.68
660.17	36294.69
660.32	36091.06
660.46	36526.40
660.60	36275.96
660.74	36322.77
660.89	36327.45
661.03	35824.24
661.17	35892.12
661.32	35833.60
661.46	35758.70
661.60	35697.85
661.74	35941.27
661.89	35599.55
662.03	35971.69
662.17	35840.62
662.31	35559.76
662.46	35938.93
662.60	35658.06
662.74	35456.78
662.88	35644.02
663.03	35576.14
663.17	35363.15
663.31	35627.63
663.45	35379.54
663.60	35304.64
663.74	35189.95
663.88	34679.72
664.02	34766.32
664.17	34895.05
664.31	34803.77
664.45	34752.27
664.59	35175.91
664.73	34939.52
664.88	35157.19
665.02	34363.75
665.16	34976.97
665.30	34810.79
665.44	34691.42
665.59	34213.95
665.73	34490.13
665.87	34209.27
666.01	34520.56
666.15	34368.43
666.29	34342.68
666.44	34565.03
666.58	34675.04
666.72	33986.92
666.86	34047.77
667.00	34600.14
667.14	34033.73
667.28	33659.24
667.43	33907.34
667.57	33642.86
667.71	33687.33
667.85	33837.12
667.99	34120.33
668.13	33516.47
668.27	33570.30
668.41	33795.00
668.56	33275.40
668.70	33392.42
668.84	33340.93
668.98	33406.47
669.12	33441.57
669.26	33324.55
669.40	33259.01
669.54	32900.91
669.68	33212.20
669.82	33088.15
669.96	33099.86
670.10	32788.56
670.25	32783.88
670.39	32659.84
670.53	33200.50
670.67	32470.25
670.81	32940.70
670.95	32830.69
671.09	32353.23
671.23	32678.56
671.37	32821.33
671.51	32498.34
671.65	32491.32
671.79	31924.91
671.93	32158.96
672.07	32470.25
672.21	32212.79
672.35	32051.30
672.49	32264.28
672.63	32107.47
672.77	32126.19
672.91	31524.68
673.05	31557.44
673.19	31805.54
673.33	31395.95
673.47	31370.20
673.61	31402.97
673.75	31154.87
673.89	31192.32
674.03	31037.84
674.17	31201.68
674.31	30981.67
674.45	31115.08
674.59	30733.57
674.73	31314.03
674.87	30857.62
675.01	31173.60
675.15	30834.22
675.29	31290.62
675.43	30382.49
675.56	30658.68
675.70	30302.92
675.84	30279.51
675.98	29064.77
676.12	30366.11
676.26	30513.56
676.40	29975.24
676.54	29998.65
676.68	29848.85
676.82	29205.20
676.96	29881.62
677.10	29055.41
677.23	29282.44
677.37	29296.49
677.51	29355.00
677.65	29439.26
677.79	29298.83
677.93	28950.09
678.07	28950.09
678.21	28727.74
678.34	28713.69
678.48	28765.18
678.62	28596.67
678.76	28467.94
678.90	28428.15
679.04	28428.15
679.18	28613.05
679.31	28362.61
679.45	28119.20
679.59	27536.40
679.73	27545.76
679.87	27871.10
680.00	27800.88
680.14	28048.98
680.28	27442.78
680.42	27115.11
680.56	27101.06
680.70	27470.87
680.83	27227.45
680.97	27105.74
681.11	26918.50
681.25	27164.26
681.39	26754.66
681.52	26920.84
681.66	26923.18
681.80	26691.47
681.94	26932.54
682.07	26618.91
682.21	26366.13
682.35	26321.66
682.49	26368.48
682.62	26448.05
682.76	26178.89
682.90	25916.75
683.04	25996.33
683.17	26167.19
683.31	26033.78
683.45	26108.68
683.59	25678.02
683.72	25518.86
683.86	25291.83
684.00	25401.83
684.13	25450.99
684.27	25462.69
684.41	25539.93
684.55	25343.32
684.68	25142.03
684.82	24699.67
684.96	24629.46
685.09	24671.59
685.23	24694.99
685.37	24690.31
685.50	24741.80
685.64	24673.93
685.78	24233.91
685.91	24198.80
686.05	24276.04
686.19	23901.55
686.32	23946.02
686.46	23749.42
686.60	23604.30
686.73	23704.95
686.87	23232.16
687.01	23828.99
687.14	23243.86
687.28	23058.96
687.42	23295.35
687.55	23033.21
687.69	22855.33
687.82	23410.04
687.96	23061.30
688.10	23033.21
688.23	22544.04
688.37	22504.25
688.50	22408.29
688.64	22581.49
688.78	22146.15
688.91	22099.34
689.05	22228.07
689.18	21951.88
689.32	21500.16
689.46	22167.21
689.59	22141.47
689.73	22054.87
689.86	22082.95
690.00	21741.24
690.13	22122.74
690.27	21446.33
690.41	21380.79
690.54	21425.26
690.68	21270.79
690.81	21076.52
690.95	20847.15
691.08	20989.92
691.22	21202.91
691.35	20994.61
691.49	21151.42
691.62	20961.84
691.76	20847.15
691.89	20898.64
692.03	20641.18
692.16	20547.56
692.30	20563.95
692.43	20283.08
692.57	20070.09
692.70	19800.93
692.84	20065.41
692.97	19885.19
693.11	19922.64
693.24	19667.52
693.38	19763.48
693.51	19623.05
693.65	19513.05
693.78	19852.42
693.92	19733.06
694.05	19393.68
694.19	19201.76
694.32	19199.41
694.45	19133.88
694.59	18925.57
694.72	18970.04
694.86	18965.36
694.99	18710.24
695.13	18637.69
695.26	18731.31
695.39	18274.90
695.53	18333.42
695.66	18207.03
695.80	18333.42
695.93	18230.43
696.07	18097.02
696.20	18190.64
696.33	18022.12
696.47	17989.36
696.60	17912.12
696.73	18153.20
696.87	18139.15
697.00	17879.35
697.14	17895.74
697.27	17504.87
697.40	17813.82
697.54	17439.33
697.67	17202.94
697.80	17114.00
697.94	16776.96
698.07	17296.56
698.21	16910.37
698.34	17193.58
698.47	16851.86
698.61	16816.75
698.74	16739.51
698.87	16652.91
699.01	16503.12
699.14	16264.38
699.27	16219.91
699.40	16201.19
699.54	16063.10
699.67	16154.38
699.80	16119.27
699.94	16011.60
700.07	15962.45
700.20	15899.26
700.34	15712.02
700.47	15946.07
700.60	15777.55
700.73	15772.87
700.87	15674.57
701.00	15672.23
701.13	15489.67
701.26	15543.50
701.40	15545.84
701.53	15391.36
701.66	15274.34
701.79	15028.58
701.93	15169.01
702.06	14920.92
702.19	15028.58
702.32	14984.11
702.46	14930.28
702.59	14738.35
702.72	14740.69
702.85	14700.90
702.99	14932.62
703.12	14609.62
703.25	14546.43
703.38	14267.91
703.51	14562.81
703.65	14293.65
703.78	14237.48
703.91	14097.05
704.04	14225.78
704.17	14085.34
704.31	13699.16
704.44	13591.49
704.57	13823.20
704.70	13523.62
704.83	13748.31
704.96	13652.34
705.10	13544.68
705.23	13715.54
>>>>>End Processed Spectral Data<<<<<
