SpectraSuite Data File
++++++++++++++++++++++++++++++++++++
Date: Fri Oct 25 10:48:07 EDT 2013
User: price-jones
Dark Spectrum Present: No
Reference Spectrum Present: No
Number of Sampled Component Spectra: 1
Spectrometers: USB2+H05261
Integration Time (usec): 100000 (USB2+H05261)
Spectra Averaged: 1 (USB2+H05261)
Boxcar Smoothing: 0 (USB2+H05261)
Correct for Electrical Dark: No (USB2+H05261)
Strobe/Lamp Enabled: No (USB2+H05261)
Correct for Detector Non-linearity: No (USB2+H05261)
Correct for Stray Light: No (USB2+H05261)
Number of Pixels in Processed Spectrum: 2048
>>>>>Begin Processed Spectral Data<<<<<
365.73	166.18
365.92	166.18
366.12	166.18
366.32	58.51
366.52	35.11
366.72	119.37
366.91	0.00
367.11	18.72
367.31	46.81
367.51	7.02
367.70	51.49
367.90	21.06
368.10	32.77
368.30	56.17
368.49	32.77
368.69	70.22
368.89	46.81
369.09	86.60
369.28	145.11
369.48	51.49
369.68	86.60
369.87	67.88
370.07	161.50
370.27	93.62
370.47	145.11
370.66	409.59
370.86	395.55
371.06	428.32
371.25	472.79
371.45	409.59
371.65	393.21
371.84	376.83
372.04	479.81
372.24	444.70
372.44	493.85
372.63	461.09
372.83	472.79
373.03	564.07
373.22	566.41
373.42	540.66
373.62	475.13
373.81	599.18
374.01	617.90
374.21	507.90
374.40	547.69
374.60	517.26
374.79	566.41
374.99	610.88
375.19	545.34
375.38	547.69
375.58	571.09
375.78	573.43
375.97	575.77
376.17	519.60
376.37	514.92
376.56	571.09
376.76	575.77
376.95	543.00
377.15	648.33
377.35	636.63
377.54	617.90
377.74	606.20
377.93	559.39
378.13	653.01
378.33	655.35
378.52	589.82
378.72	704.50
378.91	592.16
379.11	561.73
379.31	634.29
379.50	683.44
379.70	667.05
379.89	697.48
380.09	657.69
380.28	624.92
380.48	734.93
380.68	627.26
380.87	664.71
381.07	748.97
381.26	695.14
381.46	624.92
381.65	821.53
381.85	704.50
382.04	713.86
382.24	685.78
382.43	741.95
382.63	695.14
382.83	653.01
383.02	709.18
383.22	702.16
383.41	695.14
383.61	781.74
383.80	739.61
384.00	732.59
384.19	692.80
384.39	730.25
384.58	704.50
384.78	697.48
384.97	760.67
385.17	758.33
385.36	739.61
385.56	706.84
385.75	741.95
385.95	763.01
386.14	793.44
386.34	847.27
386.53	837.91
386.72	772.38
386.92	835.57
387.11	772.38
387.31	856.64
387.50	767.70
387.70	898.77
387.89	947.92
388.09	805.14
388.28	882.38
388.48	842.59
388.67	915.15
388.86	828.55
389.06	924.51
389.25	945.58
389.45	954.94
389.64	882.38
389.84	971.32
390.03	861.32
390.22	922.17
390.42	896.43
390.61	896.43
390.81	950.26
391.00	903.45
391.19	905.79
391.39	961.96
391.58	931.53
391.78	1032.18
391.97	976.00
392.16	882.38
392.36	978.34
392.55	938.55
392.75	961.96
392.94	896.43
393.13	1046.22
393.33	950.26
393.52	1067.28
393.71	1006.43
393.91	1020.47
394.10	1008.77
394.29	1074.31
394.49	987.71
394.68	1071.97
394.88	1090.69
395.07	1095.37
395.26	1069.62
395.46	1086.01
395.65	1069.62
395.84	1123.46
396.04	1174.95
396.23	1097.71
396.42	1046.22
396.62	1130.48
396.81	1135.16
397.00	1074.31
397.19	1109.41
397.39	1076.65
397.58	1205.38
397.77	1172.61
397.97	1221.76
398.16	1268.57
398.35	1203.04
398.55	1200.69
398.74	1221.76
398.93	1273.25
399.12	1306.02
399.32	1270.91
399.51	1383.26
399.70	1397.30
399.90	1345.81
400.09	1306.02
400.28	1394.96
400.47	1390.28
400.67	1394.96
400.86	1343.47
401.05	1413.68
401.24	1453.47
401.44	1385.60
401.63	1575.18
401.82	1392.62
402.01	1427.73
402.21	1385.60
402.40	1483.90
402.59	1509.65
402.78	1441.77
402.97	1542.41
403.17	1551.78
403.36	1511.99
403.55	1600.93
403.74	1584.54
403.93	1528.37
404.13	1633.69
404.32	1614.97
404.51	1605.61
404.70	1732.00
404.89	1643.06
405.09	1762.42
405.28	1668.80
405.47	1699.23
405.66	1692.21
405.85	1680.50
406.05	1706.25
406.24	1720.29
406.43	1788.17
406.62	1757.74
406.81	1820.94
407.00	1856.04
407.20	1708.59
407.39	1867.75
407.58	1790.51
407.77	1851.36
407.96	1832.64
408.15	1954.35
408.34	1898.17
408.54	1914.56
408.73	1930.94
408.92	1956.69
409.11	1921.58
409.30	2064.35
409.49	1914.56
409.68	2113.50
409.87	2054.99
410.07	2092.44
410.26	2026.90
410.45	2108.82
410.64	1994.14
410.83	2218.83
411.02	2127.55
411.21	2249.25
411.40	2155.63
411.59	2239.89
411.78	2296.07
411.98	2246.91
412.17	2291.38
412.36	2214.15
412.55	2335.85
412.74	2399.05
412.93	2387.35
413.12	2342.88
413.31	2457.56
413.50	2445.86
413.69	2445.86
413.88	2523.10
414.07	2487.99
414.26	2609.70
414.45	2619.06
414.64	2548.84
414.83	2546.50
415.02	2616.72
415.22	2696.30
415.41	2581.61
415.60	2715.02
415.79	2782.90
415.98	2801.62
416.17	2708.00
416.36	2813.32
416.55	2827.37
416.74	2818.00
416.93	2878.86
417.12	2890.56
417.31	2935.03
417.50	2958.44
417.69	2935.03
417.88	2913.97
418.07	3087.17
418.26	3014.61
418.45	2977.16
418.64	3253.34
418.83	3077.80
419.02	3112.91
419.21	3035.67
419.39	3119.93
419.58	3068.44
419.77	3042.70
419.96	3253.34
420.15	3152.70
420.34	3190.15
420.53	3342.28
420.72	3152.70
420.91	3300.16
421.10	3241.64
421.29	3337.60
421.48	3190.15
421.67	3342.28
421.86	3358.67
422.05	3307.18
422.24	3332.92
422.43	3379.73
422.61	3363.35
422.80	3485.06
422.99	3445.27
423.18	3461.65
423.37	3417.18
423.56	3531.87
423.75	3379.73
423.94	3440.59
424.13	3243.98
424.32	3349.31
424.50	3522.51
424.69	3393.78
424.88	3620.81
425.07	3424.20
425.26	3438.25
425.45	3391.44
425.64	3487.40
425.83	3595.06
426.01	3609.11
426.20	3627.83
426.39	3637.19
426.58	3524.85
426.77	3541.23
426.96	3522.51
427.15	3597.40
427.33	3499.10
427.52	3529.53
427.71	3700.39
427.90	3552.93
428.09	3707.41
428.28	3733.15
428.46	3651.24
428.65	3686.34
428.84	3808.05
429.03	3794.01
429.22	3599.74
429.40	3763.58
429.59	3653.58
429.78	3538.89
429.97	3674.64
430.16	3702.73
430.34	3695.71
430.53	3644.21
430.72	3845.50
430.91	3808.05
431.10	3852.52
431.28	4053.81
431.47	4049.13
431.66	4156.79
431.85	3911.04
432.03	4105.30
432.22	4142.75
432.41	4119.34
432.60	4079.55
432.79	4262.12
432.97	4117.00
433.16	4058.49
433.35	4128.70
433.54	4049.13
433.72	4159.13
433.91	4168.49
434.10	4269.14
434.28	4266.80
434.47	4156.79
434.66	4358.08
434.85	4313.61
435.03	4346.37
435.22	4360.42
435.41	4622.56
435.59	4451.70
435.78	4493.83
435.97	4470.42
436.16	4573.41
436.34	4383.82
436.53	4620.22
436.72	4676.39
436.90	4411.91
437.09	4535.96
437.28	4449.36
437.46	4557.02
437.65	4535.96
437.84	4697.46
438.02	4418.93
438.21	4620.22
438.40	4718.52
438.58	4697.46
438.77	4746.61
438.96	4713.84
439.14	4870.65
439.33	4889.38
439.52	4922.15
439.70	4884.70
439.89	5034.49
440.08	5060.24
440.26	4968.96
440.45	4821.50
440.63	5130.45
440.82	5238.12
441.01	5181.95
441.19	5294.29
441.38	5315.36
441.57	5516.64
441.75	5486.22
441.94	5530.69
442.12	5558.77
442.31	5511.96
442.50	5652.39
442.68	5439.40
442.87	5577.50
443.05	5600.90
443.24	5582.18
443.43	5460.47
443.61	5797.51
443.80	5724.95
443.98	5483.88
444.17	5537.71
444.35	5748.36
444.54	5846.66
444.73	5612.60
444.91	5596.22
445.10	5846.66
445.28	5771.76
445.47	5619.63
445.65	5701.54
445.84	5799.85
446.02	5823.25
446.21	5612.60
446.39	5727.29
446.58	5774.10
446.77	5797.51
446.95	5834.96
447.14	5781.12
447.32	5806.87
447.51	5785.80
447.69	5919.21
447.88	5895.81
448.06	6101.78
448.25	5783.46
448.43	5949.64
448.62	5912.19
448.80	5966.03
448.99	6080.71
449.17	5909.85
449.36	6026.88
449.54	6122.84
449.73	6141.57
449.91	6277.32
450.10	6225.82
450.28	6031.56
450.46	6239.87
450.65	6141.57
450.83	6324.13
451.02	6270.30
451.20	6293.70
451.39	6293.70
451.57	6181.35
451.76	6363.92
451.94	6382.64
452.13	6530.09
452.31	6340.51
452.49	6237.53
452.68	6450.52
452.86	6277.32
453.05	6424.77
453.23	6422.43
453.42	6520.73
453.60	6558.18
453.78	6443.49
453.97	6473.92
454.15	6604.99
454.34	6459.88
454.52	6675.21
454.70	6630.74
454.89	6555.84
455.07	6626.06
455.26	6551.16
455.44	6853.09
455.62	6759.47
455.81	6642.44
455.99	6803.94
456.17	6621.38
456.36	6841.39
456.54	7023.95
456.73	7084.80
456.91	7281.41
457.09	7243.96
457.28	7363.33
457.46	7016.93
457.64	7248.64
457.83	7091.82
458.01	6935.01
458.19	7304.81
458.38	7194.81
458.56	7201.83
458.74	7260.34
458.93	7272.04
459.11	7311.83
459.29	7253.32
459.48	7248.64
459.66	7375.03
459.84	7456.95
460.03	7599.72
460.21	7463.97
460.39	7485.03
460.57	7503.76
460.76	7548.23
460.94	7639.51
461.12	7604.40
461.31	7583.34
461.49	7700.36
461.67	7686.32
461.85	7866.54
462.04	7644.19
462.22	8189.53
462.40	7997.61
462.59	7808.03
462.77	7740.15
462.95	7896.97
463.13	7751.85
463.32	7866.54
463.50	7737.81
463.68	8070.17
463.86	7939.10
464.05	7702.70
464.23	7885.26
464.41	8234.00
464.59	7761.22
464.78	8175.49
464.96	8107.62
465.14	7992.93
465.32	8100.59
465.50	8215.28
465.69	8154.43
465.87	8170.81
466.05	8243.37
466.23	7995.27
466.41	8065.49
466.60	8283.16
466.78	8341.67
466.96	8325.29
467.14	8386.14
467.32	8191.88
467.51	8423.59
467.69	8180.17
467.87	8273.79
468.05	8561.68
468.23	8400.18
468.41	8336.99
468.60	8428.27
468.78	8526.57
468.96	8535.93
469.14	8631.90
469.32	8915.10
469.50	8344.01
469.69	8664.66
469.87	8561.68
470.05	8912.76
470.23	8978.30
470.41	8837.86
470.59	8931.48
470.77	8669.34
470.95	8964.25
471.14	8929.14
471.32	8784.03
471.50	9001.70
471.68	8990.00
471.86	9163.20
472.04	9238.09
472.22	9357.46
472.40	9179.58
472.58	9210.01
472.77	9263.84
472.95	9446.40
473.13	9561.09
473.31	9198.31
473.49	9533.00
473.67	9336.40
473.85	9298.95
474.03	9851.31
474.21	9731.95
474.39	9708.54
474.57	9603.22
474.75	9694.50
474.93	9975.36
475.12	9935.57
475.30	10104.09
475.48	10066.64
475.66	10122.82
475.84	9975.36
476.02	10260.91
476.20	10225.80
476.38	10389.64
476.56	10516.03
476.74	10520.71
476.92	10359.21
477.10	10476.24
477.28	10691.57
477.46	10691.57
477.64	10963.07
477.82	11084.78
478.00	11234.57
478.18	10960.73
478.36	11066.05
478.54	11218.19
478.72	11201.80
478.90	11637.14
479.08	11555.22
479.26	11627.78
479.44	11735.45
479.62	11786.94
479.80	12016.31
479.98	11843.11
480.16	12184.83
480.34	12016.31
480.52	12241.00
480.70	12191.85
480.88	12168.45
481.06	12449.31
481.24	12423.56
481.41	12683.36
481.59	12807.41
481.77	13095.30
481.95	12919.76
482.13	12999.34
482.31	12999.34
482.49	13275.52
482.67	13444.04
482.85	13390.20
483.03	13432.33
483.21	13963.64
483.39	13593.83
483.57	13818.52
483.74	14047.90
483.92	13949.59
484.10	13757.67
484.28	14195.35
484.46	14242.16
484.64	14597.92
484.82	14176.62
485.00	14757.08
485.18	14670.48
485.35	14911.55
485.53	14698.56
485.71	14913.89
485.89	15056.67
486.07	15047.30
486.25	14946.66
486.43	15365.62
486.61	15580.95
486.78	15632.44
486.96	15735.42
487.14	15983.52
487.32	15859.47
487.50	16077.14
487.68	16425.88
487.85	16716.11
488.03	16622.48
488.21	16875.26
488.39	16561.63
488.57	16730.15
488.75	17109.32
488.92	17259.11
489.10	17767.01
489.28	17399.54
489.46	17469.76
489.64	17458.06
489.81	18106.38
489.99	18108.72
490.17	18288.95
490.35	18349.80
490.53	18347.46
490.70	18464.49
490.88	18525.34
491.06	18679.82
491.24	18728.97
491.41	18848.33
491.59	19012.17
491.77	18937.27
491.95	19136.22
492.13	19491.98
492.30	19484.96
492.48	19620.71
492.66	19531.77
492.84	19550.49
493.01	19805.61
493.19	19859.45
493.37	20137.97
493.54	20313.51
493.72	20353.30
493.90	20535.86
494.08	20711.40
494.25	20767.57
494.43	20585.01
494.61	21181.85
494.79	20891.62
494.96	20748.85
495.14	21003.97
495.32	21521.23
495.49	21553.99
495.67	21439.31
495.85	21724.85
496.02	22024.44
496.20	21876.99
496.38	22071.25
496.55	22127.42
496.73	22714.90
496.91	22448.08
497.09	22185.94
497.26	22326.37
497.44	22632.98
497.62	22668.09
497.79	22852.99
497.97	22883.42
498.14	23171.30
498.32	23145.56
498.50	23290.67
498.67	23442.81
498.85	23349.18
499.03	23508.34
499.20	23789.20
499.38	23850.06
499.56	23868.78
499.73	23737.71
499.91	23924.96
500.08	24341.57
500.26	24102.84
500.44	24346.25
500.61	24372.00
500.79	23948.36
500.97	24692.65
501.14	24783.93
501.32	24959.47
501.49	24563.92
501.67	24617.75
501.84	24982.88
502.02	24966.49
502.20	25441.62
502.37	25500.14
502.55	25530.56
502.72	25289.49
502.90	25678.02
503.07	25429.92
503.25	25493.12
503.43	25378.43
503.60	26038.46
503.78	26019.74
503.95	25390.13
504.13	25989.31
504.30	26167.19
504.48	26359.11
504.65	26441.03
504.83	26314.64
505.01	26541.68
505.18	26368.48
505.36	26635.30
505.53	26614.23
505.71	27026.17
505.88	26979.36
506.06	26679.77
506.23	26988.72
506.41	27182.98
506.58	27103.40
506.76	27410.01
506.93	27447.46
507.11	27285.97
507.28	27529.38
507.46	27669.81
507.63	27566.83
507.81	27714.28
507.98	27543.42
508.16	28070.04
508.33	27662.79
508.50	28056.00
508.68	28182.39
508.85	28161.33
509.03	28158.99
509.20	28503.04
509.38	28290.06
509.55	28547.51
509.73	28594.32
509.90	28765.18
510.08	28795.61
510.25	29020.30
510.42	28877.53
510.60	29149.03
510.77	29202.86
510.95	29186.48
511.12	29088.18
511.30	29268.40
511.47	29495.43
511.64	29457.98
511.82	29642.88
511.99	29734.17
512.17	29799.70
512.34	29666.29
512.51	30136.74
512.69	30326.32
512.86	30277.17
513.04	30291.21
513.21	30356.75
513.38	30209.29
513.56	30412.92
513.73	30455.05
513.90	30019.71
514.08	30298.23
514.25	30349.73
514.43	30543.99
514.60	30593.14
514.77	30590.80
514.95	30969.97
515.12	30775.70
515.29	31030.82
515.47	31290.62
515.64	31821.92
515.81	30967.63
515.99	31232.11
516.16	31417.01
516.33	31405.31
516.51	31307.01
516.68	31571.49
516.85	31250.83
517.03	31314.03
517.20	31945.97
517.37	31758.73
517.54	31894.48
517.72	31880.44
517.89	32032.57
518.06	31850.01
518.24	31625.32
518.41	31997.46
518.58	32079.38
518.75	31828.95
518.93	32060.66
519.10	32556.85
519.27	32428.12
519.45	31903.84
519.62	32484.30
519.79	32673.88
519.96	32783.88
520.14	33123.26
520.31	32762.82
520.48	33226.24
520.65	32837.72
520.83	33560.94
521.00	33085.81
521.17	33111.56
521.34	32980.49
521.52	33867.55
521.69	33539.88
521.86	33567.96
522.03	33574.98
522.20	33558.60
522.38	33820.74
522.55	34405.88
522.72	33928.41
522.89	33755.21
523.07	34064.16
523.24	33645.20
523.41	33970.54
523.58	33839.47
523.75	34347.36
523.92	34473.75
524.10	34494.82
524.27	34803.77
524.44	34443.32
524.61	34785.04
524.78	34745.25
524.96	34167.14
525.13	34616.52
525.30	35101.01
525.47	35063.57
525.64	34684.40
525.81	35077.61
525.98	34972.28
526.16	34763.98
526.33	34881.00
526.50	35459.12
526.67	34911.43
526.84	34969.94
527.01	35112.72
527.18	35211.02
527.36	35428.69
527.53	35629.98
527.70	35566.78
527.87	35491.88
528.04	35730.62
528.21	35377.20
528.38	35426.35
528.55	35681.47
528.72	35646.36
528.89	36196.38
529.07	35789.13
529.24	35908.50
529.41	36140.21
529.58	35924.88
529.75	36357.88
529.92	36266.60
530.09	35887.43
530.26	36645.77
530.43	36479.59
530.60	36027.87
530.77	36510.02
530.94	36718.32
531.11	36680.88
531.28	36643.43
531.46	36617.68
531.63	36928.97
531.80	37074.09
531.97	36980.46
532.14	37060.04
532.31	36395.33
532.48	36992.17
532.65	37280.05
532.82	37139.62
532.99	37502.40
533.16	37258.99
533.33	37427.51
533.50	37589.00
533.67	37392.40
533.84	37198.13
534.01	37617.09
534.18	37308.14
534.35	38078.18
534.52	37317.50
534.69	37518.79
534.86	37991.58
535.03	37537.51
535.20	38150.73
535.37	37972.85
535.54	38188.18
535.71	37970.51
535.88	37715.39
536.05	37790.29
536.22	38005.62
536.38	38143.71
536.55	38134.35
536.72	38146.05
536.89	37881.57
537.06	38321.59
537.23	38202.22
537.40	38443.30
537.57	38726.50
537.74	38354.36
537.91	38836.51
538.08	38770.97
538.25	38375.42
538.42	38476.07
538.59	38490.11
538.75	38611.82
538.92	38773.31
539.09	38927.79
539.26	38955.88
539.43	38845.87
539.60	39061.20
539.77	39028.43
539.94	39072.90
540.11	38876.30
540.28	38754.59
540.44	38782.68
540.61	39026.09
540.78	39051.84
540.95	39051.84
541.12	39175.89
541.29	39412.28
541.46	39337.38
541.62	39421.64
541.79	39262.49
541.96	39292.91
542.13	39405.26
542.30	39449.73
542.47	39559.73
542.63	39124.40
542.80	39716.55
542.97	39868.69
543.14	40435.10
543.31	40177.64
543.48	40011.46
543.64	40804.90
543.81	39985.71
543.98	40208.06
544.15	40034.86
544.32	40524.04
544.48	40584.89
544.65	40484.25
544.82	40266.58
544.99	40306.37
545.16	40694.89
545.32	40741.71
545.49	40840.01
545.66	40329.77
545.83	40795.54
546.00	41200.45
546.16	40659.79
546.33	40582.55
546.50	40013.80
546.67	40727.66
546.83	40308.71
547.00	40856.39
547.17	40521.69
547.34	40821.28
547.50	40844.69
547.67	41179.39
547.84	41041.29
548.00	41125.55
548.17	41228.54
548.34	40844.69
548.51	41422.80
548.67	41338.54
548.84	41336.20
549.01	41125.55
549.18	41301.09
549.34	41158.32
549.51	41551.53
549.68	41778.56
549.84	41277.69
550.01	41851.12
550.18	41111.51
550.34	41596.00
550.51	41563.23
550.68	41539.83
550.84	41181.73
551.01	41972.83
551.18	41317.48
551.34	41663.88
551.51	41743.45
551.68	41642.81
551.84	41656.85
552.01	41888.57
552.18	41897.93
552.34	41102.15
552.51	41703.67
552.68	41717.71
552.84	41956.44
553.01	42244.33
553.18	41783.24
553.34	41886.23
553.51	42003.25
553.67	42225.60
553.84	42337.95
554.01	42462.00
554.17	42387.10
554.34	42408.17
554.51	42403.49
554.67	42328.59
554.84	42408.17
555.00	42356.67
555.17	42415.19
555.33	42349.65
555.50	42440.93
555.67	42211.56
555.83	42752.23
556.00	42412.85
556.16	43150.12
556.33	42321.57
556.50	42602.43
556.66	42752.23
556.83	42445.62
556.99	43175.86
557.16	42728.82
557.32	42927.77
557.49	42679.67
557.65	42459.66
557.82	42784.99
557.98	43150.12
558.15	42562.64
558.32	42476.04
558.48	42789.67
558.65	42740.52
558.81	42574.34
558.98	42937.13
559.14	42738.18
559.31	43178.20
559.47	43213.31
559.64	43033.09
559.80	43269.48
559.97	43636.95
560.13	42831.80
560.30	43295.23
560.46	42911.38
560.63	42878.61
560.79	43089.26
560.96	43702.48
561.12	43386.51
561.29	43168.84
561.45	43119.69
561.61	43585.46
561.78	43208.63
561.94	42838.83
562.11	42988.62
562.27	43512.90
562.44	43241.40
562.60	43335.02
562.77	43384.17
562.93	42962.87
563.10	43679.08
563.26	43243.74
563.42	43468.43
563.59	43515.24
563.75	43648.65
563.92	43674.40
564.08	43435.66
564.24	43573.75
564.41	43627.59
564.57	43721.21
564.74	43248.42
564.90	43594.82
565.07	43632.27
565.23	43543.33
565.39	43714.19
565.56	43936.54
565.72	43393.53
565.88	43426.30
566.05	43501.20
566.21	43611.20
566.38	43559.71
566.54	43641.63
566.70	44191.65
566.87	43896.75
567.03	43957.60
567.19	44048.88
567.36	44172.93
567.52	43592.48
567.68	44086.33
567.85	43456.73
568.01	44053.56
568.17	43681.42
568.34	43793.76
568.50	43632.27
568.66	43531.62
568.83	43402.89
568.99	43615.88
569.15	43828.87
569.32	44009.09
569.48	43189.91
569.64	44205.70
569.81	43686.10
569.97	44114.42
570.13	43866.32
570.30	44215.06
570.46	43842.92
570.62	43779.72
570.78	43702.48
570.95	44051.22
571.11	43943.56
571.27	43978.67
571.43	43559.71
571.60	43929.51
571.76	43868.66
571.92	44175.27
572.09	43777.38
572.25	43945.90
572.41	44055.90
572.57	43821.85
572.74	44507.63
572.90	44053.56
573.06	44018.46
573.22	44067.61
573.38	44158.89
573.55	43833.55
573.71	44222.08
573.87	43835.89
574.03	44081.65
574.20	44198.68
574.36	44133.14
574.52	44208.04
574.68	44079.31
574.84	44315.70
575.01	44013.77
575.17	43952.92
575.33	43906.11
575.49	44327.41
575.65	44105.06
575.82	44528.69
575.98	44133.14
576.14	44282.94
576.30	44416.35
576.46	44144.84
576.62	43814.83
576.79	44025.48
576.95	43969.30
577.11	44196.34
577.27	43964.62
577.43	44219.74
577.59	43721.21
577.75	43952.92
577.92	43751.63
578.08	43716.53
578.24	43922.49
578.40	44191.65
578.56	44268.89
578.72	43828.87
578.88	43896.75
579.04	44046.54
579.21	44432.73
579.37	44086.33
579.53	43889.73
579.69	43896.75
579.85	44247.83
580.01	44364.85
580.17	44465.50
580.33	44980.42
580.49	44411.67
580.65	44753.38
580.82	44287.62
580.98	44205.70
581.14	44140.16
581.30	44376.56
581.46	44341.45
581.62	44432.73
581.78	44383.58
581.94	44458.48
582.10	44198.68
582.26	44694.87
582.42	44680.83
582.58	44364.85
582.74	44240.81
582.90	44371.88
583.06	44222.08
583.22	44313.36
583.38	44643.38
583.54	44505.29
583.70	44385.92
583.86	44374.22
584.02	44034.84
584.18	44533.37
584.34	44294.64
584.50	44137.82
584.66	44343.79
584.82	44289.96
584.98	44605.93
585.14	44486.56
585.30	44491.24
585.46	44332.09
585.62	44208.04
585.78	44362.51
585.94	44018.46
586.10	44423.37
586.26	44039.52
586.42	44339.11
586.58	44762.75
586.74	44065.27
586.90	44205.70
587.06	44343.79
587.22	44734.66
587.38	44182.29
587.54	44659.76
587.70	44870.41
587.86	44851.69
588.02	44184.63
588.18	44198.68
588.34	44219.74
588.49	44353.15
588.65	44201.02
588.81	44161.23
588.97	44208.04
589.13	44051.22
589.29	44421.03
589.45	44580.18
589.61	44678.49
589.77	45036.59
589.93	44264.21
590.08	44861.05
590.24	45099.78
590.40	44671.46
590.56	45146.59
590.72	44444.43
590.88	44229.10
591.04	44858.71
591.20	45050.63
591.35	45010.84
591.51	45357.24
591.67	44538.05
591.83	44444.43
591.99	44610.61
592.15	44561.46
592.31	45006.16
592.46	44697.21
592.62	44692.53
592.78	45434.48
592.94	45099.78
593.10	44664.44
593.26	44622.31
593.41	44884.45
593.57	44678.49
593.73	44669.12
593.89	44769.77
594.05	44905.52
594.20	44460.82
594.36	44856.37
594.52	45193.40
594.68	44823.60
594.84	44968.71
594.99	45301.07
595.15	44552.10
595.31	45048.29
595.47	44580.18
595.62	44545.08
595.78	44626.99
595.94	45013.18
596.10	45013.18
596.25	45020.20
596.41	45043.61
596.57	44701.89
596.73	44704.23
596.88	44512.31
597.04	44804.88
597.20	45055.31
597.36	44753.38
597.51	45469.59
597.67	45209.79
597.83	44718.28
597.99	45291.71
598.14	44933.60
598.30	44713.59
598.46	45059.99
598.61	44706.57
598.77	44189.31
598.93	44889.13
599.09	44645.72
599.24	45418.10
599.40	45415.76
599.56	45340.86
599.71	44804.88
599.87	44912.54
600.03	44720.62
600.18	45106.80
600.34	44839.98
600.50	45057.65
600.65	44849.35
600.81	44942.97
600.97	45336.18
601.12	45492.99
601.28	44774.45
601.44	45113.83
601.59	44713.59
601.75	44477.20
601.91	44872.75
602.06	45001.48
602.22	45022.54
602.37	44882.11
602.53	44753.38
602.69	45153.62
602.84	44865.73
603.00	44802.53
603.16	44783.81
603.31	44669.12
603.47	44563.80
603.62	44933.60
603.78	44907.86
603.94	45130.21
604.09	45062.33
604.25	44914.88
604.40	44788.49
604.56	44966.37
604.71	44849.35
604.87	44933.60
605.03	45001.48
605.18	44680.83
605.34	44875.09
605.49	44596.57
605.65	44804.88
605.80	44289.96
605.96	45144.25
606.12	44725.30
606.27	45006.16
606.43	44612.95
606.58	44741.68
606.74	44690.19
606.89	44479.54
607.05	44856.37
607.20	44596.57
607.36	44795.51
607.51	44821.26
607.67	44832.96
607.82	45029.57
607.98	44823.60
608.13	44638.70
608.29	44802.53
608.44	44196.34
608.60	44119.10
608.75	44374.22
608.91	44252.51
609.06	44809.56
609.22	44839.98
609.37	44421.03
609.53	44428.05
609.68	44589.55
609.84	44435.07
609.99	44610.61
610.15	44493.58
610.30	44463.16
610.46	44198.68
610.61	44376.56
610.76	44353.15
610.92	44018.46
611.07	44112.08
611.23	44292.30
611.38	44315.70
611.54	43969.30
611.69	44137.82
611.84	43990.37
612.00	44116.76
612.15	44306.34
612.31	44411.67
612.46	44032.50
612.62	44554.44
612.77	44135.48
612.92	44636.36
613.08	44177.61
613.23	44151.87
613.39	43871.00
613.54	43650.99
613.69	43892.07
613.85	44091.01
614.00	43976.33
614.15	44201.02
614.31	43810.15
614.46	44009.09
614.62	44098.03
614.77	43847.60
614.92	44037.18
615.08	43615.88
615.23	43817.17
615.38	43849.94
615.54	43498.86
615.69	43683.76
615.84	43533.96
616.00	43583.12
616.15	43510.56
616.30	43438.00
616.46	43185.22
616.61	43430.98
616.76	43789.08
616.92	43452.05
617.07	43313.95
617.22	43215.65
617.37	43625.25
617.53	43765.68
617.68	43625.25
617.83	43812.49
617.99	43463.75
618.14	43552.69
618.29	43328.00
618.45	42808.40
618.60	43285.87
618.75	43000.32
618.90	43227.35
619.06	42887.98
619.21	43416.94
619.36	43611.20
619.51	43210.97
619.67	43225.01
619.82	43178.20
619.97	43225.01
620.12	43100.97
620.28	42803.72
620.43	43379.49
620.58	43215.65
620.73	43257.78
620.89	42752.23
621.04	43065.86
621.19	42878.61
621.34	42897.34
621.49	42731.16
621.65	42885.64
621.80	42880.95
621.95	42822.44
622.10	42941.81
622.25	42684.35
622.41	42670.31
622.56	42682.01
622.71	43187.56
622.86	42759.25
623.01	42721.80
623.16	42770.95
623.32	42408.17
623.47	42817.76
623.62	42796.70
623.77	42567.32
623.92	42602.43
624.07	42249.01
624.23	42632.86
624.38	42483.06
624.53	42244.33
624.68	42167.09
624.83	42607.11
624.98	42586.05
625.13	42291.14
625.29	42298.16
625.44	41888.57
625.59	42178.79
625.74	42094.53
625.89	42232.63
626.04	42021.98
626.19	41827.71
626.34	42094.53
626.49	42078.15
626.65	42326.25
626.80	42209.22
626.95	41750.48
627.10	41778.56
627.25	41673.24
627.40	41738.77
627.55	41404.08
627.70	41385.35
627.85	41722.39
628.00	41928.36
628.15	42124.96
628.30	41975.17
628.45	42354.33
628.60	41780.90
628.76	41727.07
628.91	41823.03
629.06	41743.45
629.21	41790.27
629.36	41507.06
629.51	41593.66
629.66	41626.43
629.81	41029.59
629.96	41647.49
630.11	41125.55
630.26	41544.51
630.41	41209.81
630.56	41846.44
630.71	41240.24
630.86	41017.89
631.01	41375.99
631.16	41006.19
631.31	40872.78
631.46	40884.48
631.61	40957.03
631.76	41067.04
631.91	40968.74
632.06	41413.44
632.21	41317.48
632.36	41352.58
632.51	41001.50
632.66	41045.97
632.81	40762.77
632.96	40921.93
633.10	40875.12
633.25	40741.71
633.40	40708.94
633.55	41081.08
633.70	40704.26
633.85	41226.20
634.00	41216.83
634.15	40294.66
634.30	40891.50
634.45	40942.99
634.60	40367.22
634.75	40746.39
634.90	40636.38
635.05	40868.09
635.19	40407.01
635.34	40730.00
635.49	40648.08
635.64	40615.32
635.79	40573.19
635.94	40652.76
636.09	40657.45
636.24	40198.70
636.39	40453.82
636.53	39934.22
636.68	39887.41
636.83	40098.06
636.98	40381.26
637.13	39765.70
637.28	40383.60
637.43	40762.77
637.57	40402.33
637.72	40030.18
637.87	40568.51
638.02	40156.57
638.17	39868.69
638.32	39838.26
638.46	39756.34
638.61	39817.19
638.76	40198.70
638.91	40098.06
639.06	40079.33
639.20	39894.43
639.35	40175.30
639.50	40084.01
639.65	40318.07
639.80	40009.12
639.94	40128.48
640.09	40046.57
640.24	39618.25
640.39	39447.39
640.54	39557.39
640.68	39346.75
640.83	39405.26
640.98	39758.68
641.13	39386.54
641.27	40156.57
641.42	39082.27
641.57	39852.30
641.72	39414.62
641.86	39035.45
642.01	39016.73
642.16	39082.27
642.31	39089.29
642.45	38787.36
642.60	38806.08
642.75	38995.67
642.90	39426.32
643.04	39164.18
643.19	38876.30
643.34	39243.76
643.48	39203.97
643.63	38946.51
643.78	38834.17
643.93	38782.68
644.07	38593.09
644.22	38918.43
644.37	38429.26
644.51	38916.09
644.66	38820.13
644.81	38597.77
644.95	39093.97
645.10	39199.29
645.25	38766.29
645.39	38948.85
645.54	38986.30
645.69	38536.92
645.83	38621.18
645.98	38969.92
646.13	38955.88
646.27	38993.32
646.42	38862.26
646.57	38412.87
646.71	38405.85
646.86	38754.59
647.00	38864.60
647.15	38649.27
647.30	38909.07
647.44	38731.18
647.59	39021.41
647.74	38220.95
647.88	38429.26
648.03	38370.74
648.17	38396.49
648.32	37790.29
648.47	38593.09
648.61	38164.78
648.76	38649.27
648.90	37907.32
649.05	37668.58
649.20	38300.53
649.34	38639.90
649.49	38326.27
649.63	38174.14
649.78	38328.61
649.92	38089.88
650.07	38305.21
650.21	37570.28
650.36	38209.25
650.51	38136.69
650.65	38810.76
650.80	38302.87
650.94	38321.59
651.09	38075.84
651.23	37930.72
651.38	37827.74
651.52	37504.74
651.67	37724.75
651.81	37806.67
651.96	37699.01
652.10	37649.86
652.25	37785.61
652.39	37696.67
652.54	37780.93
652.68	37563.26
652.83	38103.92
652.97	37895.61
653.12	37801.99
653.26	37404.10
653.41	37448.57
653.55	37277.71
653.70	37408.78
653.84	37521.13
653.99	37684.97
654.13	37776.25
654.27	37558.58
654.42	37624.11
654.56	37439.21
654.71	37507.08
654.85	37752.84
655.00	37284.73
655.14	37467.30
655.29	36730.03
655.43	36622.36
655.57	36821.31
655.72	36903.23
655.86	36849.39
656.01	36851.73
656.15	36884.50
656.30	37090.47
656.44	36683.22
656.58	36917.27
656.73	36680.88
656.87	36723.01
657.01	36582.57
657.16	36584.91
657.30	36650.45
657.45	36577.89
657.59	36229.15
657.73	36533.42
657.88	36825.99
658.02	36725.35
658.16	36950.04
658.31	36802.58
658.45	36369.58
658.60	36493.63
658.74	36828.33
658.88	36601.30
659.03	36194.04
659.17	35826.58
659.31	36144.89
659.46	36327.45
659.60	36121.49
659.74	35847.64
659.89	35969.35
660.03	36023.19
660.17	36290.01
660.32	36250.22
660.46	36322.77
660.60	36500.65
660.74	35903.82
660.89	35812.54
661.03	35475.50
661.17	36027.87
661.32	35510.61
661.46	35508.27
661.60	35653.38
661.74	35693.17
661.89	35309.32
662.03	35882.75
662.17	35337.41
662.31	35178.25
662.46	35842.96
662.60	35531.67
662.74	35526.99
662.88	35353.79
663.03	34960.58
663.17	35271.87
663.31	35248.47
663.45	35264.85
663.60	34965.26
663.74	35012.07
663.88	34806.11
664.02	34927.81
664.17	34653.97
664.31	34160.12
664.45	34616.52
664.59	34850.58
664.73	34644.61
664.88	34462.05
665.02	33940.11
665.16	34618.86
665.30	34616.52
665.44	34426.94
665.59	34312.25
665.73	34045.43
665.87	34113.31
666.01	34043.09
666.15	34494.82
666.29	34045.43
666.44	34164.80
666.58	34045.43
666.72	34099.26
666.86	34347.36
667.00	34181.18
667.14	33689.67
667.28	33853.51
667.43	33724.78
667.57	34026.71
667.71	33357.32
667.85	33750.52
667.99	33727.12
668.13	33099.86
668.27	33177.09
668.41	33378.38
668.56	32989.85
668.70	33270.72
668.84	33427.53
668.98	33216.88
669.12	32863.46
669.26	32943.04
669.40	32828.35
669.54	33172.41
669.68	33036.66
669.82	32821.33
669.96	32549.83
670.10	32685.58
670.25	32540.47
670.39	33010.92
670.53	32500.68
670.67	32318.12
670.81	32449.19
670.95	32676.22
671.09	32673.88
671.23	32488.98
671.37	32591.96
671.51	31896.82
671.65	32180.03
671.79	31662.77
671.93	32032.57
672.07	31922.57
672.21	32046.62
672.35	32196.41
672.49	31515.31
672.63	31845.33
672.77	31608.93
672.91	31419.35
673.05	31665.11
673.19	31438.08
673.33	31599.57
673.47	31665.11
673.61	31117.42
673.75	30993.37
673.89	30670.38
674.03	30773.36
674.17	30511.22
674.31	30703.15
674.45	30614.21
674.59	31246.15
674.73	30817.83
674.87	30375.47
675.01	30892.73
675.15	30508.88
675.29	30665.70
675.43	30590.80
675.56	30518.25
675.70	30464.41
675.84	30321.64
675.98	29074.13
676.12	29743.53
676.26	30047.80
676.40	29598.41
676.54	29546.92
676.68	29633.52
676.82	29111.58
676.96	29736.51
677.10	29329.25
677.23	29153.71
677.37	29331.59
677.51	29032.00
677.65	29106.90
677.79	28999.24
677.93	29085.84
678.07	28912.64
678.21	28503.04
678.34	28236.22
678.48	28528.79
678.62	28421.13
678.76	28173.03
678.90	28004.51
679.04	28343.89
679.18	28229.20
679.31	27798.54
679.45	27758.75
679.59	27513.00
679.73	27545.76
679.87	27716.62
680.00	27803.22
680.14	27662.79
680.28	27337.46
680.42	27335.12
680.56	27129.15
680.70	27257.88
680.83	27133.83
680.97	27063.61
681.11	26845.94
681.25	26548.70
681.39	26785.09
681.52	27150.21
681.66	26419.97
681.80	26588.49
681.94	26258.47
682.07	26555.72
682.21	26228.04
682.35	26087.61
682.49	26478.48
682.62	26012.71
682.76	25832.49
682.90	25687.38
683.04	25792.70
683.17	25832.49
683.31	25544.61
683.45	25465.03
683.59	25296.51
683.72	25467.37
683.86	25198.21
684.00	24929.05
684.13	25497.80
684.27	25186.50
684.41	25069.48
684.55	25062.46
684.68	25006.28
684.82	24922.02
684.96	24339.23
685.09	24687.97
685.23	24414.13
685.37	24273.70
685.50	24430.51
685.64	24077.09
685.78	24414.13
685.91	24226.89
686.05	24065.39
686.19	23805.59
686.32	23894.53
686.46	23438.12
686.60	23590.26
686.73	23683.88
686.87	23578.56
687.01	23281.31
687.14	23082.36
687.28	23040.23
687.42	22874.06
687.55	22644.68
687.69	23040.23
687.82	22597.87
687.96	22778.09
688.10	22525.32
688.23	22775.75
688.37	22515.95
688.50	22419.99
688.64	22274.88
688.78	22160.19
688.91	22054.87
689.05	21898.05
689.18	21909.75
689.32	21493.14
689.46	22029.12
689.59	22008.06
689.73	21921.46
689.86	21750.60
690.00	21631.23
690.13	21757.62
690.27	21474.42
690.41	21848.90
690.54	21050.78
690.68	21221.64
690.81	21062.48
690.95	20889.28
691.08	20961.84
691.22	20809.70
691.35	20992.26
691.49	20884.60
691.62	20711.40
691.76	20315.85
691.89	20617.78
692.03	20594.37
692.16	20458.62
692.30	20477.35
692.43	20067.75
692.57	20217.55
692.70	20292.44
692.84	20039.67
692.97	19639.44
693.11	19676.88
693.24	19894.55
693.38	19508.37
693.51	19454.53
693.65	19447.51
693.78	19613.69
693.92	19332.82
694.05	19208.78
694.19	19056.64
694.32	19112.81
694.45	18911.53
694.59	18810.89
694.72	18932.59
694.86	18771.10
694.99	18513.64
695.13	18298.31
695.26	18403.63
695.39	18452.78
695.53	18235.11
695.66	18555.77
695.80	18139.15
695.93	18090.00
696.07	17989.36
696.20	18071.28
696.33	18068.94
696.47	18022.12
696.60	17816.16
696.73	17525.93
696.87	17589.13
697.00	17486.14
697.14	17532.95
697.27	17479.12
697.40	17329.33
697.54	17142.08
697.67	17193.58
697.80	17221.66
697.94	17102.29
698.07	17013.35
698.21	17083.57
698.34	16903.35
698.47	16709.08
698.61	16549.93
698.74	16463.33
698.87	16400.13
699.01	16233.96
699.14	16334.60
699.27	16264.38
699.40	16056.08
699.54	16102.89
699.67	15955.43
699.80	16114.59
699.94	16051.39
700.07	16226.93
700.20	15878.19
700.34	15683.93
700.47	15536.48
700.60	16109.91
700.73	16016.29
700.87	15655.84
701.00	15503.71
701.13	15440.51
701.26	15522.43
701.40	15520.09
701.53	15293.06
701.66	15138.58
701.79	15040.28
701.93	14820.27
702.06	14689.20
702.19	14923.26
702.32	14892.83
702.46	14518.34
702.59	14686.86
702.72	14466.85
702.85	14621.33
702.99	14623.67
703.12	14436.42
703.25	14480.89
703.38	14345.14
703.51	14389.61
703.65	14413.02
703.78	14565.15
703.91	14274.93
704.04	14094.71
704.17	14125.13
704.31	13989.38
704.44	13769.37
704.57	13781.07
704.70	13647.66
704.83	13591.49
704.96	13509.57
705.10	13458.08
705.23	13713.20
>>>>>End Processed Spectral Data<<<<<
