SpectraSuite Data File
++++++++++++++++++++++++++++++++++++
Date: Fri Oct 25 10:48:29 EDT 2013
User: price-jones
Dark Spectrum Present: No
Reference Spectrum Present: No
Number of Sampled Component Spectra: 1
Spectrometers: USB2+H05261
Integration Time (usec): 100000 (USB2+H05261)
Spectra Averaged: 1 (USB2+H05261)
Boxcar Smoothing: 0 (USB2+H05261)
Correct for Electrical Dark: No (USB2+H05261)
Strobe/Lamp Enabled: No (USB2+H05261)
Correct for Detector Non-linearity: No (USB2+H05261)
Correct for Stray Light: No (USB2+H05261)
Number of Pixels in Processed Spectrum: 2048
>>>>>Begin Processed Spectral Data<<<<<
365.73	170.86
365.92	170.86
366.12	170.86
366.32	70.22
366.52	39.79
366.72	149.79
366.91	74.90
367.11	70.22
367.31	0.00
367.51	145.11
367.70	84.26
367.90	0.00
368.10	14.04
368.30	72.56
368.49	74.90
368.69	81.92
368.89	35.11
369.09	53.83
369.28	46.81
369.48	121.71
369.68	65.54
369.87	81.92
370.07	107.66
370.27	142.77
370.47	243.42
370.66	491.51
370.86	475.13
371.06	451.72
371.25	503.22
371.45	519.60
371.65	526.62
371.84	496.19
372.04	400.23
372.24	517.26
372.44	507.90
372.63	538.32
372.83	566.41
373.03	489.17
373.22	519.60
373.42	449.38
373.62	538.32
373.81	622.58
374.01	543.00
374.21	538.32
374.40	540.66
374.60	655.35
374.79	538.32
374.99	559.39
375.19	641.31
375.38	645.99
375.58	613.22
375.78	697.48
375.97	643.65
376.17	685.78
376.37	575.77
376.56	657.69
376.76	753.65
376.95	650.67
377.15	704.50
377.35	671.73
377.54	681.10
377.74	638.97
377.93	695.14
378.13	650.67
378.33	678.76
378.52	660.03
378.72	730.25
378.91	690.46
379.11	648.33
379.31	610.88
379.50	674.07
379.70	723.23
379.89	699.82
380.09	671.73
380.28	777.06
380.48	671.73
380.68	718.54
380.87	688.12
381.07	753.65
381.26	772.38
381.46	753.65
381.65	692.80
381.85	744.29
382.04	751.31
382.24	692.80
382.43	781.74
382.63	720.88
382.83	779.40
383.02	851.96
383.22	816.85
383.41	816.85
383.61	727.91
383.80	746.63
384.00	873.02
384.19	854.30
384.39	791.10
384.58	786.42
384.78	837.91
384.97	812.17
385.17	870.68
385.36	763.01
385.56	847.27
385.75	861.32
385.95	910.47
386.14	898.77
386.34	868.34
386.53	905.79
386.72	844.93
386.92	812.17
387.11	861.32
387.31	800.46
387.50	978.34
387.70	866.00
387.89	866.00
388.09	884.72
388.28	910.47
388.48	950.26
388.67	968.98
388.86	954.94
389.06	947.92
389.25	908.13
389.45	1006.43
389.64	980.68
389.84	1111.75
390.03	973.66
390.22	1029.84
390.42	1071.97
390.61	1013.45
390.81	1069.62
391.00	1034.52
391.19	997.07
391.39	1069.62
391.58	1114.10
391.78	1020.47
391.97	1088.35
392.16	1083.67
392.36	1090.69
392.55	1146.86
392.75	1015.79
392.94	992.39
393.13	1041.54
393.33	1027.50
393.52	1111.75
393.71	1153.88
393.91	1118.78
394.10	1102.39
394.29	1114.10
394.49	1249.85
394.68	1174.95
394.88	1240.48
395.07	1301.34
395.26	1226.44
395.46	1228.78
395.65	1341.13
395.84	1317.72
396.04	1345.81
396.23	1284.95
396.42	1238.14
396.62	1261.55
396.81	1303.68
397.00	1205.38
397.19	1327.08
397.39	1378.58
397.58	1327.08
397.77	1430.07
397.97	1399.64
398.16	1458.15
398.35	1474.54
398.55	1563.48
398.74	1519.01
398.93	1547.09
399.12	1448.79
399.32	1551.78
399.51	1495.60
399.70	1598.59
399.90	1565.82
400.09	1488.58
400.28	1621.99
400.47	1664.12
400.67	1755.40
400.86	1689.87
401.05	1715.61
401.24	1699.23
401.44	1717.95
401.63	1703.91
401.82	1636.03
402.01	1781.15
402.21	1781.15
402.40	1769.44
402.59	1739.02
402.78	1785.83
402.97	1802.21
403.17	1870.09
403.36	1851.36
403.55	1860.73
403.74	1863.07
403.93	1881.79
404.13	1914.56
404.32	1849.02
404.51	1900.52
404.70	1877.11
404.89	1839.66
405.09	1952.01
405.28	1982.43
405.47	2043.29
405.66	1982.43
405.85	2064.35
406.05	1949.67
406.24	2001.16
406.43	1977.75
406.62	2129.89
406.81	2293.72
407.00	2064.35
407.20	2062.01
407.39	2108.82
407.58	2165.00
407.77	2099.46
407.96	2211.81
408.15	2356.92
408.34	2216.49
408.54	2403.73
408.73	2363.94
408.92	2303.09
409.11	2260.96
409.30	2218.83
409.49	2251.60
409.68	2387.35
409.87	2420.11
410.07	2459.90
410.26	2420.11
410.45	2511.39
410.64	2527.78
410.83	2441.18
411.02	2588.63
411.21	2635.44
411.40	2544.16
411.59	2609.70
411.78	2661.19
411.98	2637.78
412.17	2726.72
412.36	2724.38
412.55	2691.62
412.74	2731.41
412.93	2839.07
413.12	2698.64
413.31	2895.24
413.50	2799.28
413.69	2862.48
413.88	2958.44
414.07	2925.67
414.26	2991.20
414.45	2949.08
414.64	2953.76
414.83	3042.70
415.02	3009.93
415.22	3260.37
415.41	3166.74
415.60	3260.37
415.79	3180.79
415.98	3272.07
416.17	3213.56
416.36	3133.98
416.55	3372.71
416.74	3225.26
416.93	3314.20
417.12	3325.90
417.31	3419.52
417.50	3368.03
417.69	3342.28
417.88	3407.82
418.07	3590.38
418.26	3456.97
418.45	3702.73
418.64	3611.45
418.83	3632.51
419.02	3515.48
419.21	3576.34
419.39	3667.62
419.58	3693.37
419.77	3604.42
419.96	3595.06
420.15	3786.99
420.34	3737.84
420.53	3756.56
420.72	3861.88
420.91	3927.42
421.10	3878.27
421.29	3868.91
421.48	3728.47
421.67	3836.14
421.86	3899.33
422.05	3768.26
422.24	3768.26
422.43	3969.55
422.61	3953.16
422.80	3985.93
422.99	3798.69
423.18	3957.85
423.37	3997.64
423.56	3932.10
423.75	3964.87
423.94	3969.55
424.13	3775.28
424.32	3758.90
424.50	4133.39
424.69	4002.32
424.88	4023.38
425.07	3880.61
425.26	3941.46
425.45	4002.32
425.64	3955.51
425.83	4004.66
426.01	4182.54
426.20	4051.47
426.39	4182.54
426.58	3885.29
426.77	3950.82
426.96	4138.07
427.15	3950.82
427.33	4049.13
427.52	4100.62
427.71	4311.27
427.90	4208.28
428.09	4257.43
428.28	4264.46
428.46	4109.98
428.65	4297.22
428.84	4297.22
429.03	4194.24
429.22	4105.30
429.40	4255.09
429.59	4117.00
429.78	3934.44
429.97	4105.30
430.16	4140.41
430.34	4227.01
430.53	4198.92
430.72	4255.09
430.91	4117.00
431.10	4456.38
431.28	4657.67
431.47	4685.75
431.66	4652.98
431.85	4547.66
432.03	4690.43
432.22	4683.41
432.41	4744.27
432.60	4795.76
432.79	4765.33
432.97	4880.02
433.16	4746.61
433.35	4786.40
433.54	4734.90
433.72	4737.24
433.91	4788.74
434.10	4784.06
434.28	4875.34
434.47	5020.45
434.66	4983.00
434.85	4929.17
435.03	5020.45
435.22	5093.01
435.41	5195.99
435.59	5238.12
435.78	5186.63
435.97	5308.34
436.16	5121.09
436.34	5198.33
436.53	5226.42
436.72	5259.18
436.90	5207.69
437.09	5245.14
437.28	5076.62
437.46	4990.02
437.65	5205.35
437.84	5163.22
438.02	5158.54
438.21	5165.56
438.40	5233.44
438.58	5425.36
438.77	5462.81
438.96	5413.66
439.14	5643.03
439.33	5689.84
439.52	5650.05
439.70	5710.91
439.89	5839.64
440.08	5692.18
440.26	5687.50
440.45	5727.29
440.63	5888.79
440.82	6174.33
441.01	5937.94
441.19	6099.44
441.38	6134.54
441.57	6171.99
441.75	6195.40
441.94	6258.59
442.12	6214.12
442.31	6312.42
442.50	6429.45
442.68	6466.90
442.87	6256.25
443.05	6321.79
443.24	6548.82
443.43	6487.96
443.61	6619.04
443.80	6780.53
443.98	6455.20
444.17	6380.30
444.35	6581.59
444.54	6738.40
444.73	6569.88
444.91	6415.41
445.10	6478.60
445.28	6392.00
445.47	6480.94
445.65	6551.16
445.84	6455.20
446.02	6773.51
446.21	6539.46
446.39	6710.32
446.58	6649.46
446.77	6960.75
446.95	6656.48
447.14	6597.97
447.32	6937.35
447.51	6621.38
447.69	6740.74
447.88	6665.85
448.06	6834.36
448.25	6953.73
448.43	6736.06
448.62	6724.36
448.80	6789.89
448.99	6899.90
449.17	7063.74
449.36	6906.92
449.54	6970.12
449.73	7119.91
449.91	7267.36
450.10	7152.68
450.28	7353.96
450.46	7253.32
450.65	7187.79
450.83	7070.76
451.02	7227.57
451.20	7461.63
451.39	7452.27
451.57	7384.39
451.76	7246.30
451.94	7372.69
452.13	7311.83
452.31	7225.23
452.49	7084.80
452.68	7431.20
452.86	7279.07
453.05	7513.12
453.23	7403.11
453.42	7126.93
453.60	7279.07
453.78	7611.42
453.97	7496.74
454.15	7503.76
454.34	7459.29
454.52	7585.68
454.70	7494.40
454.89	7616.10
455.07	7588.02
455.26	7747.17
455.44	7918.03
455.62	7885.26
455.81	8016.33
455.99	7840.79
456.17	7946.12
456.36	8053.78
456.54	7974.21
456.73	8042.08
456.91	8243.37
457.09	8212.94
457.28	8184.85
457.46	8255.07
457.64	8098.25
457.83	7971.86
458.01	8147.40
458.19	8175.49
458.38	8388.48
458.56	8360.39
458.74	8255.07
458.93	8442.31
459.11	8521.89
459.29	8418.91
459.48	8561.68
459.66	8318.26
459.84	8475.08
460.03	8454.02
460.21	8547.64
460.39	8704.45
460.57	8781.69
460.76	8683.39
460.94	8662.32
461.12	8755.94
461.31	8725.52
461.49	8781.69
461.67	8681.05
461.85	8870.63
462.04	8868.29
462.22	9320.01
462.40	8901.06
462.59	8952.55
462.77	8908.08
462.95	9111.71
463.13	8945.53
463.32	8915.10
463.50	9013.40
463.68	9076.60
463.86	9291.93
464.05	8943.19
464.23	9060.21
464.41	9090.64
464.59	9015.74
464.78	9310.65
464.96	9181.92
465.14	8961.91
465.32	9364.48
465.50	9408.95
465.69	9336.40
465.87	9331.72
466.05	9514.28
466.23	9294.27
466.41	9533.00
466.60	9380.87
466.78	9275.54
466.96	9116.39
467.14	9408.95
467.32	9418.32
467.51	9617.26
467.69	9298.95
467.87	9617.26
468.05	9825.57
468.23	9549.39
468.41	9603.22
468.60	9668.75
468.78	9795.14
468.96	9577.47
469.14	9795.14
469.32	9893.44
469.50	9682.80
469.69	9813.87
469.87	10036.22
470.05	9858.34
470.23	10068.98
470.41	9991.75
470.59	10127.50
470.77	9996.43
470.95	9991.75
471.14	10249.21
471.32	10111.11
471.50	10459.85
471.68	10370.91
471.86	10347.51
472.04	10525.39
472.22	10548.79
472.40	10326.44
472.58	10455.17
472.77	10682.20
472.95	10719.65
473.13	11183.08
473.31	10710.29
473.49	10836.68
473.67	10813.28
473.85	10792.21
474.03	11054.35
474.21	11101.16
474.39	11293.08
474.57	11267.34
474.75	11143.29
474.93	11171.38
475.12	11260.32
475.30	11307.13
475.48	11328.19
475.66	11269.68
475.84	11274.36
476.02	11403.09
476.20	11513.10
476.38	11770.55
476.56	12009.29
476.74	11875.88
476.92	11899.28
477.10	11908.65
477.28	12006.95
477.46	12161.42
477.64	12250.36
477.82	12571.02
478.00	12940.82
478.18	12496.12
478.36	12320.58
478.54	12863.58
478.72	12884.65
478.90	12978.27
479.08	13289.56
479.26	13266.16
479.44	13451.06
479.62	13249.77
479.80	13364.46
479.98	13530.64
480.16	13785.76
480.34	13652.34
480.52	13998.74
480.70	13692.13
480.88	13973.00
481.06	14066.62
481.24	14167.26
481.41	14307.69
481.59	14487.92
481.77	14616.65
481.95	14649.41
482.13	14726.65
482.31	14815.59
482.49	15110.50
482.67	14946.66
482.85	15417.11
483.03	15257.95
483.21	15407.75
483.39	15714.36
483.57	15466.26
483.74	15744.78
483.92	15992.88
484.10	15815.00
484.28	15932.03
484.46	16128.63
484.64	16699.72
484.82	16133.31
485.00	16280.77
485.18	16893.99
485.35	16552.27
485.53	16374.39
485.71	16308.85
485.89	16833.13
486.07	16893.99
486.25	16786.32
486.43	17254.43
486.61	16989.95
486.78	17483.80
486.96	17518.91
487.14	18085.32
487.32	18082.98
487.50	18026.81
487.68	18176.60
487.85	18441.08
488.03	18691.52
488.21	18616.62
488.39	18684.50
488.57	18911.53
488.75	18923.23
488.92	19655.82
489.10	19545.81
489.28	19496.66
489.46	19950.73
489.64	19946.05
489.81	20262.02
489.99	20306.49
490.17	20643.52
490.35	20936.09
490.53	20549.90
490.70	21022.69
490.88	20704.38
491.06	20903.32
491.24	21223.98
491.41	21130.36
491.59	20783.96
491.77	21219.30
491.95	21132.70
492.13	21453.35
492.30	21642.93
492.48	21977.63
492.66	22286.58
492.84	22150.83
493.01	22565.10
493.19	22492.55
493.37	22506.59
493.54	22508.93
493.72	23080.02
493.90	22932.57
494.08	23070.66
494.25	23241.52
494.43	23611.32
494.61	23831.33
494.79	23711.97
494.96	23669.84
495.14	23777.50
495.32	24126.24
495.49	23953.04
495.67	24201.14
495.85	24360.30
496.02	24123.90
496.20	24615.41
496.38	24603.71
496.55	25001.60
496.73	25216.93
496.91	24922.02
497.09	25378.43
497.26	25427.58
497.44	25177.14
497.62	25345.66
497.79	25869.94
497.97	25270.76
498.14	25958.88
498.32	25776.32
498.50	25626.53
498.67	26223.36
498.85	26342.73
499.03	26649.34
499.20	26157.83
499.38	26590.83
499.56	26719.56
499.73	26913.82
499.91	27063.61
500.08	27005.10
500.26	27014.46
500.44	27075.32
500.61	26977.01
500.79	27087.02
500.97	27236.81
501.14	27564.49
501.32	27330.44
501.49	27686.20
501.67	27246.18
501.84	27318.73
502.02	27786.84
502.20	27777.48
502.37	28278.35
502.55	27981.10
502.72	28432.83
502.90	28168.35
503.07	28379.00
503.25	28493.68
503.43	28238.56
503.60	28584.96
503.78	28510.07
503.95	28556.88
504.13	28496.02
504.30	29055.41
504.48	29167.76
504.65	29207.55
504.83	29329.25
505.01	29673.31
505.18	29764.59
505.36	29724.80
505.53	29724.80
505.71	29841.83
505.88	30068.86
506.06	29750.55
506.23	29823.11
506.41	29546.92
506.58	30171.85
506.76	29830.13
506.93	30464.41
507.11	30319.30
507.28	30480.80
507.46	30637.61
507.63	30326.32
507.81	30939.54
507.98	30684.42
508.16	30562.72
508.33	30988.69
508.50	31316.37
508.68	31484.89
508.85	31342.11
509.03	31388.92
509.20	31110.40
509.38	31735.32
509.55	31402.97
509.73	31861.71
509.90	31906.18
510.08	31819.58
510.25	31791.50
510.42	31985.76
510.60	32336.84
510.77	32301.73
510.95	32472.59
511.12	32561.53
511.30	32732.39
511.47	32964.10
511.64	32669.20
511.82	32828.35
511.99	32519.40
512.17	32760.48
512.34	32802.61
512.51	32917.29
512.69	33298.80
512.86	33205.18
513.04	33371.36
513.21	33069.43
513.38	33237.95
513.56	33282.42
513.73	33544.56
513.90	33502.43
514.08	33883.94
514.25	33532.86
514.43	33574.98
514.60	33942.45
514.77	33738.82
514.95	34160.12
515.12	34143.74
515.29	34251.40
515.47	34417.58
515.64	34319.28
515.81	34272.46
515.99	34127.35
516.16	33769.25
516.33	34160.12
516.51	33839.47
516.68	33757.55
516.85	33680.31
517.03	33982.24
517.20	34501.84
517.37	34410.56
517.54	34658.65
517.72	34487.79
517.89	34476.09
518.06	34660.99
518.24	34930.16
518.41	34794.40
518.58	35208.68
518.75	35000.37
518.93	35349.11
519.10	35456.78
519.27	35014.41
519.45	35529.33
519.62	35864.03
519.79	35873.39
519.96	35967.01
520.14	36109.78
520.31	35943.61
520.48	36320.43
520.65	36016.16
520.83	36341.50
521.00	36554.49
521.17	36301.71
521.34	36652.79
521.52	36650.45
521.69	36774.50
521.86	36992.17
522.03	37046.00
522.20	36744.07
522.38	37060.04
522.55	36828.33
522.72	36577.89
522.89	36732.37
523.07	37476.66
523.24	36692.58
523.41	37125.58
523.58	37301.12
523.75	37825.40
523.92	37668.58
524.10	37507.08
524.27	37975.19
524.44	38110.94
524.61	37860.51
524.78	38143.71
524.96	37912.00
525.13	38096.90
525.30	38473.73
525.47	38455.00
525.64	38136.69
525.81	38349.68
525.98	38623.52
526.16	37785.61
526.33	37544.53
526.50	38333.29
526.67	38155.41
526.84	37926.04
527.01	37982.21
527.18	38394.15
527.36	38672.67
527.53	38576.71
527.70	39005.03
527.87	39440.37
528.04	39028.43
528.21	38930.13
528.38	39335.04
528.55	39412.28
528.72	39367.81
528.89	39452.07
529.07	39597.18
529.24	39349.09
529.41	39800.81
529.58	39072.90
529.75	39271.85
529.92	39997.41
530.09	39402.92
530.26	40011.46
530.43	40025.50
530.60	39498.88
530.77	39922.52
530.94	40172.96
531.11	39702.51
531.28	39550.37
531.46	40154.23
531.63	40172.96
531.80	40095.72
531.97	40371.90
532.14	40088.70
532.31	40502.97
532.48	39789.11
532.65	40390.62
532.82	40495.95
532.99	40692.55
533.16	40346.15
533.33	40816.60
533.50	40615.32
533.67	40687.87
533.84	40374.24
534.01	40858.73
534.18	40795.54
534.35	40973.42
534.52	40926.61
534.69	40786.18
534.86	40924.27
535.03	40699.58
535.20	41305.77
535.37	41336.20
535.54	41640.47
535.71	41106.83
535.88	41750.48
536.05	41394.71
536.22	41265.99
536.38	41633.45
536.55	41464.93
536.72	41170.02
536.89	41263.64
537.06	41797.29
537.23	41736.43
537.40	41591.32
537.57	41448.55
537.74	41993.89
537.91	42019.64
538.08	41907.29
538.25	41694.30
538.42	42171.77
538.59	42115.60
538.75	41757.50
538.92	41832.39
539.09	42160.07
539.26	41818.35
539.43	41717.71
539.60	42370.72
539.77	41823.03
539.94	42143.69
540.11	41551.53
540.28	42251.35
540.44	42370.72
540.61	42265.39
540.78	42026.66
540.95	42244.33
541.12	41947.08
541.29	42572.00
541.46	42375.40
541.62	42684.35
541.79	42464.34
541.96	42724.14
542.13	42564.98
542.30	42410.51
542.47	42845.85
542.63	42396.46
542.80	42770.95
542.97	43063.52
543.14	43402.89
543.31	43363.11
543.48	43110.33
543.64	43782.06
543.81	43667.37
543.98	43220.33
544.15	43360.76
544.32	43936.54
544.48	43812.49
544.65	43660.35
544.82	43557.37
544.99	43344.38
545.16	43744.61
545.32	43208.63
545.49	43634.61
545.66	43915.47
545.83	43641.63
546.00	43786.74
546.16	43672.06
546.33	43639.29
546.50	43262.46
546.67	43948.24
546.83	43707.16
547.00	43849.94
547.17	43819.51
547.34	43707.16
547.50	43849.94
547.67	44140.16
547.84	44091.01
548.00	44044.20
548.17	44505.29
548.34	44135.48
548.51	44334.43
548.67	44542.74
548.84	44793.17
549.01	44418.69
549.18	44259.53
549.34	44488.90
549.51	44243.15
549.68	44774.45
549.84	44502.95
550.01	44744.02
550.18	44659.76
550.34	44865.73
550.51	44617.63
550.68	44280.60
550.84	44570.82
551.01	44533.37
551.18	44790.83
551.34	44807.22
551.51	44556.78
551.68	44989.78
551.84	45001.48
552.01	44449.11
552.18	44776.79
552.34	44449.11
552.51	45153.62
552.68	44872.75
552.84	45151.27
553.01	45198.09
553.18	45104.46
553.34	45366.60
553.51	44996.80
553.67	45055.31
553.84	45998.55
554.01	45413.41
554.17	45258.94
554.34	45806.62
554.51	45556.19
554.67	45485.97
554.84	45457.88
555.00	45256.60
555.17	45256.60
555.33	45394.69
555.50	45586.61
555.67	45544.48
555.83	45764.49
556.00	45844.07
556.16	45935.35
556.33	45741.09
556.50	45432.14
556.66	45364.26
556.83	45331.50
556.99	45647.47
557.16	45815.99
557.32	45762.15
557.49	45874.50
557.65	45399.37
557.82	45766.84
557.98	45961.10
558.15	45848.75
558.32	45832.37
558.48	45684.92
558.65	45647.47
558.81	45823.01
558.98	45949.40
559.14	45766.84
559.31	45874.50
559.47	45827.69
559.64	46040.68
559.80	45918.97
559.97	46019.61
560.13	45565.55
560.30	45839.39
560.46	45874.50
560.63	46174.09
560.79	46141.32
560.96	46349.63
561.12	46099.19
561.29	45956.42
561.45	46202.18
561.61	46457.29
561.78	46162.39
561.94	45792.58
562.11	46045.36
562.27	45790.24
562.44	46110.89
562.60	46478.36
562.77	46490.06
562.93	46064.08
563.10	46274.73
563.26	46246.65
563.42	46515.81
563.59	46010.25
563.75	46443.25
563.92	46712.41
564.08	46579.00
564.24	46632.83
564.41	46873.91
564.57	45904.93
564.74	46321.54
564.90	46447.93
565.07	46342.61
565.23	46583.68
565.39	46466.66
565.56	46754.54
565.72	46335.59
565.88	46138.98
566.05	46536.87
566.21	46358.99
566.38	46176.43
566.54	46487.72
566.70	46794.33
566.87	47051.79
567.03	46199.83
567.19	47004.98
567.36	46174.09
567.52	46270.05
567.68	46855.18
567.85	46473.68
568.01	46422.19
568.17	46307.50
568.34	46698.37
568.50	46480.70
568.66	46099.19
568.83	46969.87
568.99	46312.18
569.15	46143.66
569.32	46581.34
569.48	46300.48
569.64	46768.58
569.81	46948.81
569.97	46700.71
570.13	46948.81
570.30	46459.63
570.46	46845.82
570.62	46256.01
570.78	46096.85
570.95	46801.35
571.11	46513.47
571.27	46609.43
571.43	46761.56
571.60	46894.97
571.76	47063.49
571.92	46829.44
572.09	46454.95
572.25	46815.40
572.41	46689.01
572.57	46590.70
572.74	47269.46
572.90	46749.86
573.06	46824.76
573.22	47002.64
573.38	46728.80
573.55	46410.48
573.71	47079.88
573.87	46733.48
574.03	46827.10
574.20	46501.76
574.36	47063.49
574.52	46997.96
574.68	47040.09
574.84	47281.16
575.01	46672.62
575.17	46469.00
575.33	46630.49
575.49	46513.47
575.65	47166.48
575.82	47030.72
575.98	46967.53
576.14	47292.86
576.30	46866.89
576.46	46581.34
576.62	46728.80
576.79	47002.64
576.95	46398.78
577.11	46560.28
577.27	46948.81
577.43	46880.93
577.59	46918.38
577.75	46909.02
577.92	46630.49
578.08	46492.40
578.24	46382.40
578.40	46377.72
578.56	46742.84
578.72	46588.36
578.88	46707.73
579.04	46979.23
579.21	46457.29
579.37	46838.80
579.53	46674.96
579.69	46806.03
579.85	47112.64
580.01	47122.01
580.17	47004.98
580.33	46944.12
580.49	46967.53
580.65	46958.17
580.82	46986.25
580.98	47250.74
581.14	46892.63
581.30	47129.03
581.46	46864.55
581.62	47009.66
581.78	47131.37
581.94	47381.80
582.10	46653.90
582.26	47054.13
582.42	47180.52
582.58	47114.98
582.74	46216.22
582.90	47325.63
583.06	47026.04
583.22	46920.72
583.38	47353.72
583.54	47021.36
583.70	47004.98
583.86	46841.14
584.02	47072.85
584.18	46756.88
584.34	47229.67
584.50	47023.70
584.66	46892.63
584.82	46859.87
584.98	47372.44
585.14	46948.81
585.30	46532.19
585.46	46873.91
585.62	46883.27
585.78	47112.64
585.94	46775.61
586.10	46721.77
586.26	46869.23
586.42	47065.83
586.58	46820.08
586.74	46803.69
586.90	46735.82
587.06	46810.71
587.22	47395.85
587.38	46656.24
587.54	47164.14
587.70	47124.35
587.86	47461.38
588.02	46990.94
588.18	47002.64
588.34	46681.98
588.49	46504.10
588.65	46415.16
588.81	46312.18
588.97	46199.83
589.13	46501.76
589.29	46684.33
589.45	46892.63
589.61	47173.50
589.77	46899.65
589.93	47199.24
590.08	46850.50
590.24	47370.10
590.40	47386.49
590.56	47650.97
590.72	46848.16
590.88	47086.90
591.04	47014.34
591.20	47613.52
591.35	47292.86
591.51	47566.71
591.67	47061.15
591.83	47150.09
591.99	46923.06
592.15	46911.36
592.31	47288.18
592.46	46820.08
592.62	47023.70
592.78	47227.33
592.94	46967.53
593.10	46712.41
593.26	47178.18
593.41	46822.42
593.57	47353.72
593.73	46974.55
593.89	46766.24
594.05	47082.22
594.20	47049.45
594.36	47241.37
594.52	47042.43
594.68	46976.89
594.84	47248.39
594.99	47669.69
595.15	47016.68
595.31	47721.18
595.47	47217.97
595.62	47262.44
595.78	47749.27
595.94	47447.34
596.10	47590.11
596.25	47356.06
596.41	47508.19
596.57	47318.61
596.73	47510.53
596.88	46990.94
597.04	47309.25
597.20	47583.09
597.36	46791.99
597.51	47526.92
597.67	47358.40
597.83	47192.22
597.99	47309.25
598.14	47320.95
598.30	46784.97
598.46	46820.08
598.61	47309.25
598.77	46892.63
598.93	47047.11
599.09	47454.36
599.24	47550.32
599.40	47430.96
599.56	47435.64
599.71	47447.34
599.87	47674.37
600.03	47437.98
600.18	47138.39
600.34	46836.46
600.50	47105.62
600.65	47351.38
600.81	47327.97
600.97	47365.42
601.12	47377.12
601.28	47423.93
601.44	47208.61
601.59	47318.61
601.75	46953.49
601.91	47201.58
602.06	47145.41
602.22	47232.01
602.37	46932.42
602.53	47173.50
602.69	47339.68
602.84	47374.78
603.00	47049.45
603.16	47367.76
603.31	47405.21
603.47	47042.43
603.62	46691.35
603.78	47079.88
603.94	47042.43
604.09	47248.39
604.25	47927.15
604.40	47297.55
604.56	47070.51
604.71	46850.50
604.87	47082.22
605.03	47040.09
605.18	46555.60
605.34	46721.77
605.49	46747.52
605.65	47353.72
605.80	46894.97
605.96	47047.11
606.12	47339.68
606.27	47222.65
606.43	46791.99
606.58	47229.67
606.74	46766.24
606.89	47054.13
607.05	46787.31
607.20	46822.42
607.36	47222.65
607.51	47379.46
607.67	47070.51
607.82	47093.92
607.98	46869.23
608.13	46770.93
608.29	46969.87
608.44	46588.36
608.60	46719.43
608.75	46681.98
608.91	46539.21
609.06	46887.95
609.22	46983.91
609.37	46897.31
609.53	46815.40
609.68	46574.32
609.84	46454.95
609.99	46663.26
610.15	46731.14
610.30	46880.93
610.46	46209.20
610.61	46696.03
610.76	46689.01
610.92	46705.39
611.07	46368.35
611.23	46665.60
611.38	46637.51
611.54	46518.15
611.69	46288.77
611.84	46574.32
612.00	46167.07
612.15	46445.59
612.31	46485.38
612.46	46286.43
612.62	46571.98
612.77	46256.01
612.92	46511.13
613.08	46066.42
613.23	46438.57
613.39	46148.34
613.54	46096.85
613.69	46305.16
613.85	46256.01
614.00	46464.32
614.15	46433.89
614.31	46454.95
614.46	46501.76
614.62	46171.75
614.77	46153.02
614.92	45879.18
615.08	45977.48
615.23	46319.20
615.38	46019.61
615.54	45656.83
615.69	45436.82
615.84	45521.08
616.00	45879.18
616.15	45832.37
616.30	46232.60
616.46	45275.32
616.61	45588.95
616.76	45790.24
616.92	45668.53
617.07	45628.74
617.22	45544.48
617.37	45591.30
617.53	45792.58
617.68	45811.31
617.83	45628.74
617.99	46270.05
618.14	45553.85
618.29	45448.52
618.45	45546.82
618.60	45617.04
618.75	45614.70
618.90	45635.77
619.06	45443.84
619.21	45074.04
619.36	45500.01
619.51	45574.91
619.67	45200.43
619.82	45488.31
619.97	45745.77
620.12	45146.59
620.28	44839.98
620.43	44914.88
620.58	45397.03
620.73	44727.64
620.89	45179.36
621.04	45280.00
621.19	45287.03
621.34	45125.53
621.49	44704.23
621.65	44320.38
621.80	45006.16
621.95	44797.85
622.10	45153.62
622.25	44453.79
622.41	44587.21
622.56	45085.74
622.71	44999.14
622.86	44872.75
623.01	44870.41
623.16	44786.15
623.32	44727.64
623.47	44933.60
623.62	44626.99
623.77	44315.70
623.92	44678.49
624.07	44364.85
624.23	44598.91
624.38	44428.05
624.53	44414.01
624.68	44629.34
624.83	45064.67
624.98	44442.09
625.13	44296.98
625.29	44247.83
625.44	44460.82
625.59	44158.89
625.74	44006.75
625.89	43901.43
626.04	43966.96
626.19	43952.92
626.34	44163.57
626.49	44105.06
626.65	43583.12
626.80	44353.15
626.95	44058.24
627.10	43805.47
627.25	43840.57
627.40	43395.87
627.55	43430.98
627.70	43208.63
627.85	43510.56
628.00	43662.69
628.15	43943.56
628.30	43430.98
628.45	43784.40
628.60	43501.20
628.76	43681.42
628.91	43838.23
629.06	43594.82
629.21	43505.88
629.36	43290.55
629.51	43498.86
629.66	43215.65
629.81	42962.87
629.96	43590.14
630.11	43119.69
630.26	43805.47
630.41	43042.45
630.56	43091.60
630.71	43302.25
630.86	43363.11
631.01	43051.81
631.16	42918.40
631.31	42555.62
631.46	42328.59
631.61	43161.82
631.76	42967.55
631.91	42983.94
632.06	43199.27
632.21	42934.79
632.36	43339.70
632.51	43405.23
632.66	43255.44
632.81	42359.02
632.96	42796.70
633.10	42160.07
633.25	42368.38
633.40	42621.16
633.55	42768.61
633.70	42579.03
633.85	42295.82
634.00	42792.01
634.15	42375.40
634.30	42625.84
634.45	42665.63
634.60	43154.80
634.75	42920.74
634.90	42820.10
635.05	42862.23
635.19	42405.83
635.34	43012.02
635.49	42424.55
635.64	42286.46
635.79	41902.61
635.94	42300.50
636.09	42368.38
636.24	41956.44
636.39	42120.28
636.53	42110.92
636.68	42277.10
636.83	41832.39
636.98	42412.85
637.13	41780.90
637.28	42497.11
637.43	42600.09
637.57	42103.90
637.72	42136.66
637.87	42202.20
638.02	42412.85
638.17	41727.07
638.32	41755.16
638.46	41907.29
638.61	41673.24
638.76	41514.08
638.91	41434.50
639.06	41865.16
639.20	42057.09
639.35	41926.02
639.50	41675.58
639.65	41949.42
639.80	42047.72
639.94	41642.81
640.09	41757.50
640.24	41525.78
640.39	40989.80
640.54	41193.43
640.68	41521.10
640.83	41593.66
640.98	41516.42
641.13	41441.53
641.27	41153.64
641.42	41273.01
641.57	41521.10
641.72	41214.49
641.86	40973.42
642.01	41151.30
642.16	41200.45
642.31	40919.59
642.45	41495.36
642.60	40797.88
642.75	41254.28
642.90	40795.54
643.04	40893.84
643.19	40889.16
643.34	41027.25
643.48	40734.68
643.63	41113.85
643.78	40961.72
643.93	40444.46
644.07	40837.67
644.22	40748.73
644.37	40421.05
644.51	40409.35
644.66	41097.47
644.81	40811.92
644.95	40645.74
645.10	40762.77
645.25	40769.79
645.39	41390.03
645.54	40935.97
645.69	40526.38
645.83	40865.75
645.98	40601.27
646.13	40971.08
646.27	40301.68
646.42	40442.12
646.57	40472.54
646.71	40219.77
646.86	40041.88
647.00	40112.10
647.15	40100.40
647.30	39800.81
647.44	40137.85
647.59	40348.50
647.74	40425.73
647.88	40231.47
648.03	40268.92
648.17	40179.98
648.32	40397.65
648.47	39711.87
648.61	39948.26
648.76	40294.66
648.90	40442.12
649.05	40116.78
649.20	39679.10
649.34	40069.97
649.49	40238.49
649.63	39702.51
649.78	40044.23
649.92	39632.29
650.07	40194.02
650.21	39782.09
650.36	40165.93
650.51	39641.65
650.65	40411.69
650.80	40308.71
650.94	40074.65
651.09	39938.90
651.23	39643.99
651.38	39332.70
651.52	39414.62
651.67	39590.16
651.81	39365.47
651.96	39229.72
652.10	39239.08
652.25	39386.54
652.39	39232.06
652.54	39597.18
652.68	39166.52
652.83	39639.31
652.97	39342.06
653.12	39194.61
653.26	39768.04
653.41	39449.73
653.55	39229.72
653.70	39185.25
653.84	39051.84
653.99	39103.33
654.13	39054.18
654.27	39213.34
654.42	38684.37
654.56	39065.88
654.71	39110.35
654.85	38862.26
655.00	38689.06
655.14	38604.80
655.29	38579.05
655.43	38682.03
655.57	38684.37
655.72	38401.17
655.86	38141.37
656.01	38106.26
656.15	38270.10
656.30	38366.06
656.44	38040.73
656.58	38422.23
656.73	38293.50
656.87	38188.18
657.01	37888.59
657.16	37923.70
657.30	38277.12
657.45	38157.75
657.59	37947.11
657.73	38019.66
657.88	37947.11
658.02	38258.40
658.16	38218.61
658.31	38167.12
658.45	38253.72
658.60	37944.76
658.74	38160.09
658.88	38176.48
659.03	37813.70
659.17	37640.50
659.31	38080.52
659.46	37596.03
659.60	37640.50
659.74	37961.15
659.89	37467.30
660.03	37607.73
660.17	37560.92
660.32	37696.67
660.46	37776.25
660.60	37954.13
660.74	37736.46
660.89	37296.44
661.03	36900.89
661.17	37364.31
661.32	37120.90
661.46	37083.45
661.60	36917.27
661.74	37097.49
661.89	37392.40
662.03	36779.18
662.17	36931.31
662.31	36584.91
662.46	37024.93
662.60	36753.43
662.74	36715.98
662.88	36769.82
663.03	36910.25
663.17	36734.71
663.31	36350.86
663.45	36378.95
663.60	36655.13
663.74	36341.50
663.88	36376.61
664.02	36098.08
664.17	36156.60
664.31	35768.07
664.45	36081.70
664.59	36177.66
664.73	35899.14
664.88	36264.26
665.02	35796.15
665.16	36140.21
665.30	35775.09
665.44	35835.94
665.59	35817.22
665.73	35828.92
665.87	35571.46
666.01	35824.24
666.15	35716.58
666.29	35639.34
666.44	35945.95
666.58	35515.29
666.72	35152.51
666.86	35501.25
667.00	35655.72
667.14	35126.76
667.28	35189.95
667.43	35119.74
667.57	35262.51
667.71	35042.50
667.85	35065.91
667.99	34663.33
668.13	34340.34
668.27	34508.86
668.41	35077.61
668.56	34684.40
668.70	34705.46
668.84	34668.02
668.98	34763.98
669.12	34480.77
669.26	34333.32
669.40	34548.65
669.54	34209.27
669.68	34309.91
669.82	34202.25
669.96	33862.87
670.10	33785.63
670.25	34291.19
670.39	33963.51
670.53	33776.27
670.67	34115.65
670.81	34022.03
670.95	34504.18
671.09	34068.84
671.23	33549.24
671.37	33528.17
671.51	33539.88
671.65	33401.79
671.79	33116.24
671.93	33432.21
672.07	33144.33
672.21	32645.79
672.35	33013.26
672.49	32973.47
672.63	32849.42
672.77	33294.12
672.91	32905.59
673.05	33050.70
673.19	32950.06
673.33	32751.12
673.47	32135.56
673.61	32018.53
673.75	32474.93
673.89	32257.26
674.03	32037.25
674.17	32077.04
674.31	32397.70
674.45	31828.95
674.59	32081.72
674.73	32177.68
674.87	31648.72
675.01	32079.38
675.15	31997.46
675.29	31938.95
675.43	32194.07
675.56	31826.60
675.70	31566.81
675.84	31262.54
675.98	30450.37
676.12	31042.53
676.26	31271.90
676.40	30771.02
676.54	30836.56
676.68	31295.30
676.82	30555.69
676.96	30312.28
677.10	30635.27
677.23	30768.68
677.37	30696.13
677.51	30242.06
677.65	30478.46
677.79	29879.28
677.93	30270.15
678.07	30185.89
678.21	29626.50
678.34	29993.97
678.48	29813.74
678.62	29542.24
678.76	29575.01
678.90	29230.95
679.04	29596.07
679.18	29820.77
679.31	29097.54
679.45	28481.98
679.59	28563.90
679.73	28514.75
679.87	28929.02
680.00	28676.24
680.14	28306.44
680.28	28559.22
680.42	28407.08
680.56	28435.17
680.70	28315.80
680.83	28105.15
680.97	27824.29
681.11	27845.35
681.25	27718.96
681.39	28009.19
681.52	28070.04
681.66	27669.81
681.80	27852.38
681.94	27672.15
682.07	27449.80
682.21	27241.50
682.35	27248.52
682.49	27384.27
682.62	27009.78
682.76	26742.96
682.90	26813.18
683.04	27248.52
683.17	27033.19
683.31	26625.93
683.45	26948.93
683.59	26366.13
683.72	26024.42
683.86	25998.67
684.00	25858.24
684.13	26162.51
684.27	26052.50
684.41	26073.57
684.55	25673.34
684.68	25479.07
684.82	25933.14
684.96	25181.82
685.09	25256.72
685.23	25553.97
685.37	25319.92
685.50	25186.50
685.64	25376.09
685.78	25511.84
685.91	25355.02
686.05	25270.76
686.19	24753.51
686.32	24807.34
686.46	24505.41
686.60	24390.72
686.73	24156.67
686.87	23711.97
687.01	23859.42
687.14	23637.07
687.28	23910.91
687.42	23576.22
687.55	23513.02
687.69	23845.38
687.82	23564.51
687.96	23644.09
688.10	23515.36
688.23	23466.21
688.37	23061.30
688.50	22965.34
688.64	22967.68
688.78	22958.31
688.91	23030.87
689.05	22600.21
689.18	22293.60
689.32	22405.95
689.46	22427.01
689.59	22899.80
689.73	22810.86
689.86	22419.99
690.00	22569.79
690.13	22389.56
690.27	22221.05
690.41	22532.34
690.54	21701.45
690.68	21921.46
690.81	21654.64
690.95	21750.60
691.08	21469.73
691.22	21366.75
691.35	21415.90
691.49	21385.47
691.62	21474.42
691.76	21305.90
691.89	21469.73
692.03	20982.90
692.16	21132.70
692.30	20987.58
692.43	21003.97
692.57	20840.13
692.70	20826.09
692.84	21074.18
692.97	20435.22
693.11	20503.09
693.24	20510.11
693.38	20294.79
693.51	20135.63
693.65	20187.12
693.78	19939.02
693.92	20006.90
694.05	19840.72
694.19	19829.02
694.32	19917.96
694.45	20027.96
694.59	19702.63
694.72	19847.74
694.86	19232.18
694.99	19342.19
695.13	19260.27
695.26	18932.59
695.39	18707.90
695.53	19103.45
695.66	19194.73
695.80	18904.51
695.93	18813.23
696.07	18838.97
696.20	18782.80
696.33	18441.08
696.47	18422.36
696.60	18750.03
696.73	18530.02
696.87	18689.18
697.00	18328.74
697.14	18080.64
697.27	17994.04
697.40	17980.00
697.54	17916.80
697.67	17898.08
697.80	17715.51
697.94	17788.07
698.07	17486.14
698.21	17778.71
698.34	17348.05
698.47	17289.54
698.61	17352.73
698.74	16957.18
698.87	17123.36
699.01	17125.70
699.14	16936.12
699.27	17247.41
699.40	17011.01
699.54	16877.60
699.67	16819.09
699.80	16791.00
699.94	16734.83
700.07	16629.51
700.20	16203.53
700.34	16114.59
700.47	16393.11
700.60	16266.72
700.73	16505.46
700.87	16044.37
701.00	15737.76
701.13	16142.67
701.26	15857.13
701.40	16039.69
701.53	15733.08
701.66	15651.16
701.79	15704.99
701.93	15370.30
702.06	15229.87
702.19	15515.41
702.32	15440.51
702.46	15211.14
702.59	15176.03
702.72	15197.10
702.85	14883.47
702.99	15119.86
703.12	15213.48
703.25	15054.33
703.38	14970.07
703.51	14705.59
703.65	14560.47
703.78	14796.87
703.91	14370.89
704.04	14857.72
704.17	14279.61
704.31	14511.32
704.44	13984.70
704.57	14314.72
704.70	14118.11
704.83	13881.72
704.96	14211.73
705.10	14246.84
705.23	14174.28
>>>>>End Processed Spectral Data<<<<<
