SpectraSuite Data File
++++++++++++++++++++++++++++++++++++
Date: Fri Oct 25 10:43:58 EDT 2013
User: price-jones
Dark Spectrum Present: No
Reference Spectrum Present: No
Number of Sampled Component Spectra: 1
Spectrometers: USB2+H05261
Integration Time (usec): 100000 (USB2+H05261)
Spectra Averaged: 1 (USB2+H05261)
Boxcar Smoothing: 0 (USB2+H05261)
Correct for Electrical Dark: No (USB2+H05261)
Strobe/Lamp Enabled: No (USB2+H05261)
Correct for Detector Non-linearity: No (USB2+H05261)
Correct for Stray Light: No (USB2+H05261)
Number of Pixels in Processed Spectrum: 2048
>>>>>Begin Processed Spectral Data<<<<<
365.73	145.11
365.92	145.11
366.12	145.11
366.32	49.15
366.52	0.00
366.72	67.88
366.91	0.00
367.11	11.70
367.31	0.00
367.51	0.00
367.70	0.00
367.90	21.06
368.10	9.36
368.30	14.04
368.49	9.36
368.69	72.56
368.89	25.75
369.09	56.17
369.28	51.49
369.48	0.00
369.68	37.45
369.87	46.81
370.07	93.62
370.27	74.90
370.47	229.37
370.66	315.97
370.86	435.34
371.06	491.51
371.25	521.94
371.45	444.70
371.65	479.81
371.84	414.27
372.04	416.62
372.24	458.74
372.44	543.00
372.63	514.92
372.83	533.64
373.03	578.11
373.22	507.90
373.42	526.62
373.62	521.94
373.81	594.50
374.01	531.30
374.21	538.32
374.40	512.58
374.60	589.82
374.79	589.82
374.99	580.45
375.19	580.45
375.38	648.33
375.58	582.79
375.78	587.47
375.97	566.41
376.17	688.12
376.37	561.73
376.56	627.26
376.76	629.60
376.95	615.56
377.15	690.46
377.35	678.76
377.54	674.07
377.74	631.94
377.93	645.99
378.13	645.99
378.33	631.94
378.52	671.73
378.72	730.25
378.91	622.58
379.11	774.72
379.31	690.46
379.50	683.44
379.70	706.84
379.89	713.86
380.09	753.65
380.28	716.20
380.48	730.25
380.68	643.65
380.87	678.76
381.07	758.33
381.26	748.97
381.46	678.76
381.65	727.91
381.85	763.01
382.04	664.71
382.24	751.31
382.43	636.63
382.63	678.76
382.83	681.10
383.02	765.36
383.22	725.57
383.41	683.44
383.61	653.01
383.80	760.67
384.00	807.48
384.19	826.21
384.39	844.93
384.58	798.12
384.78	896.43
384.97	826.21
385.17	866.00
385.36	800.46
385.56	786.42
385.75	915.15
385.95	786.42
386.14	903.45
386.34	868.34
386.53	819.19
386.72	835.57
386.92	919.83
387.11	880.04
387.31	837.91
387.50	837.91
387.70	791.10
387.89	858.98
388.09	887.06
388.28	898.77
388.48	1020.47
388.67	933.87
388.86	894.08
389.06	901.11
389.25	1022.81
389.45	1025.15
389.64	971.32
389.84	1039.20
390.03	1074.31
390.22	1029.84
390.42	1086.01
390.61	1025.15
390.81	1018.13
391.00	1025.15
391.19	1167.93
391.39	1107.07
391.58	1156.22
391.78	1029.84
391.97	1095.37
392.16	1029.84
392.36	1086.01
392.55	1053.24
392.75	1027.50
392.94	1008.77
393.13	994.73
393.33	976.00
393.52	1078.99
393.71	1114.10
393.91	1067.28
394.10	1121.12
394.29	1196.01
394.49	1191.33
394.68	1240.48
394.88	1221.76
395.07	1299.00
395.26	1270.91
395.46	1256.87
395.65	1242.82
395.84	1226.44
396.04	1184.31
396.23	1160.91
396.42	1153.88
396.62	1181.97
396.81	1210.06
397.00	1301.34
397.19	1240.48
397.39	1317.72
397.58	1406.66
397.77	1385.60
397.97	1434.75
398.16	1329.42
398.35	1481.56
398.55	1563.48
398.74	1511.99
398.93	1502.62
399.12	1502.62
399.32	1523.69
399.51	1551.78
399.70	1535.39
399.90	1619.65
400.09	1579.86
400.28	1614.97
400.47	1661.78
400.67	1509.65
400.86	1657.10
401.05	1734.34
401.24	1654.76
401.44	1694.55
401.63	1748.38
401.82	1715.61
402.01	1666.46
402.21	1774.13
402.40	1774.13
402.59	1881.79
402.78	1739.02
402.97	1830.30
403.17	1849.02
403.36	1816.26
403.55	1863.07
403.74	1877.11
403.93	1851.36
404.13	1966.05
404.32	1877.11
404.51	1867.75
404.70	1914.56
404.89	1877.11
405.09	1980.09
405.28	1989.46
405.47	1916.90
405.66	2054.99
405.85	1933.28
406.05	2069.03
406.24	2031.58
406.43	2022.22
406.62	2047.97
406.81	2244.57
407.00	2078.40
407.20	2050.31
407.39	2176.70
407.58	2188.40
407.77	2167.34
407.96	2242.23
408.15	2256.28
408.34	2270.32
408.54	2307.77
408.73	2333.51
408.92	2258.62
409.11	2389.69
409.30	2298.41
409.49	2221.17
409.68	2363.94
409.87	2356.92
410.07	2331.17
410.26	2373.30
410.45	2235.21
410.64	2420.11
410.83	2527.78
411.02	2532.46
411.21	2607.36
411.40	2616.72
411.59	2747.79
411.78	2670.55
411.98	2619.06
412.17	2637.78
412.36	2705.66
412.55	2731.41
412.74	2656.51
412.93	2768.85
413.12	2820.35
413.31	2911.63
413.50	2848.43
413.69	2888.22
413.88	3038.02
414.07	3066.10
414.26	2874.18
414.45	3148.02
414.64	3030.99
414.83	3038.02
415.02	3075.46
415.22	3157.38
415.41	3225.26
415.60	3211.22
415.79	3213.56
415.98	3353.99
416.17	3293.13
416.36	3297.81
416.55	3309.52
416.74	3262.71
416.93	3314.20
417.12	3339.94
417.31	3344.63
417.50	3346.97
417.69	3520.17
417.88	3578.68
418.07	3433.57
418.26	3494.42
418.45	3590.38
418.64	3705.07
418.83	3592.72
419.02	3684.00
419.21	3651.24
419.39	3641.87
419.58	3641.87
419.77	3548.25
419.96	3637.19
420.15	3712.09
420.34	3637.19
420.53	3810.39
420.72	3824.44
420.91	3920.40
421.10	3817.41
421.29	3854.86
421.48	3843.16
421.67	3955.51
421.86	3770.60
422.05	3789.33
422.24	3880.61
422.43	3889.97
422.61	3885.29
422.80	4070.19
422.99	4021.04
423.18	3939.12
423.37	3875.93
423.56	3932.10
423.75	3950.82
423.94	3978.91
424.13	3817.41
424.32	3833.80
424.50	3962.53
424.69	4147.43
424.88	4159.13
425.07	3957.85
425.26	3889.97
425.45	3957.85
425.64	4037.42
425.83	3962.53
426.01	4007.00
426.20	4187.22
426.39	4014.02
426.58	4039.76
426.77	3962.53
426.96	4053.81
427.15	3999.98
427.33	4044.45
427.52	4187.22
427.71	4229.35
427.90	4131.05
428.09	4269.14
428.28	4250.41
428.46	4138.07
428.65	4124.02
428.84	4269.14
429.03	4360.42
429.22	4215.30
429.40	4383.82
429.59	4102.96
429.78	4128.70
429.97	4074.87
430.16	4037.42
430.34	4117.00
430.53	4257.43
430.72	4217.65
430.91	4294.88
431.10	4447.02
431.28	4421.27
431.47	4610.86
431.66	4732.56
431.85	4463.40
432.03	4575.75
432.22	4720.86
432.41	4690.43
432.60	4725.54
432.79	4842.57
432.97	4819.16
433.16	4891.72
433.35	4652.98
433.54	4582.77
433.72	4580.43
433.91	4685.75
434.10	4882.36
434.28	4812.14
434.47	4908.10
434.66	4971.30
434.85	4807.46
435.03	5067.26
435.22	5027.47
435.41	5139.82
435.59	5207.69
435.78	5198.33
435.97	5277.91
436.16	5095.35
436.34	5214.71
436.53	5345.78
436.72	5268.55
436.90	5184.29
437.09	5146.84
437.28	5111.73
437.46	5167.90
437.65	5224.08
437.84	5359.83
438.02	5294.29
438.21	5310.68
438.40	5280.25
438.58	5345.78
438.77	5448.77
438.96	5448.77
439.14	5547.07
439.33	5621.97
439.52	5664.10
439.70	5708.57
439.89	5788.14
440.08	5816.23
440.26	5799.85
440.45	5734.31
440.63	5811.55
440.82	5919.21
441.01	5987.09
441.19	6052.63
441.38	6094.76
441.57	6183.70
441.75	6162.63
441.94	6452.86
442.12	6377.96
442.31	6469.24
442.50	6310.08
442.68	6387.32
442.87	6333.49
443.05	6457.54
443.24	6583.93
443.43	6651.80
443.61	6621.38
443.80	6712.66
443.98	6392.00
444.17	6324.13
444.35	6633.08
444.54	6722.02
444.73	6457.54
444.91	6452.86
445.10	6551.16
445.28	6537.12
445.47	6490.31
445.65	6588.61
445.84	6614.35
446.02	6663.51
446.21	6588.61
446.39	6490.31
446.58	6740.74
446.77	6773.51
446.95	6665.85
447.14	6773.51
447.32	6942.03
447.51	6743.08
447.69	6715.00
447.88	6862.45
448.06	6867.13
448.25	6773.51
448.43	6864.79
448.62	6979.48
448.80	6904.58
448.99	6916.28
449.17	6930.33
449.36	7070.76
449.54	6974.80
449.73	7145.66
449.91	7145.66
450.10	7136.29
450.28	7454.61
450.46	7431.20
450.65	7260.34
450.83	7274.38
451.02	7316.51
451.20	7250.98
451.39	7239.28
451.57	7332.90
451.76	7274.38
451.94	7307.15
452.13	7391.41
452.31	7199.49
452.49	7234.60
452.68	7180.76
452.86	7314.17
453.05	7449.93
453.23	7611.42
453.42	7246.30
453.60	7403.11
453.78	7581.00
453.97	7531.84
454.15	7564.61
454.34	7492.05
454.52	7585.68
454.70	7669.94
454.89	7735.47
455.07	7784.62
455.26	7749.51
455.44	7779.94
455.62	7859.52
455.81	7871.22
455.99	8088.89
456.17	7873.56
456.36	7918.03
456.54	8004.63
456.73	8074.85
456.91	8147.40
457.09	8149.75
457.28	8355.71
457.46	8168.47
457.64	8203.58
457.83	8128.68
458.01	8072.51
458.19	8472.74
458.38	8250.39
458.56	8454.02
458.74	8297.20
458.93	8376.78
459.11	8388.48
459.29	8344.01
459.48	8627.21
459.66	8346.35
459.84	8308.90
460.03	8690.41
460.21	8645.94
460.39	8587.43
460.57	8599.13
460.76	8865.95
460.94	8908.08
461.12	8690.41
461.31	8772.33
461.49	8798.07
461.67	8917.44
461.85	8959.57
462.04	8788.71
462.22	8994.68
462.40	8795.73
462.59	8994.68
462.77	8966.59
462.95	8922.12
463.13	8919.78
463.32	8912.76
463.50	9158.52
463.68	9114.05
463.86	9132.77
464.05	9078.94
464.23	8879.99
464.41	9081.28
464.59	9018.08
464.78	9156.18
464.96	9032.13
465.14	9301.29
465.32	9289.59
465.50	9364.48
465.69	9504.92
465.87	9366.82
466.05	9352.78
466.23	9383.21
466.41	9401.93
466.60	9263.84
466.78	9315.33
466.96	9228.73
467.14	9385.55
467.32	9282.56
467.51	9617.26
467.69	9369.16
467.87	9568.11
468.05	9687.48
468.23	9753.01
468.41	9584.49
468.60	9589.17
468.78	9675.77
468.96	9504.92
469.14	9958.98
469.32	9923.87
469.50	9603.22
469.69	10017.49
469.87	10078.35
470.05	10076.01
470.23	10183.67
470.41	10134.52
470.59	9872.38
470.77	10085.37
470.95	10186.01
471.14	10097.07
471.32	10064.30
471.50	10321.76
471.68	10326.44
471.86	10448.15
472.04	10675.18
472.22	10628.37
472.40	10483.26
472.58	10296.02
472.77	10665.82
472.95	10686.89
473.13	10970.09
473.31	10670.50
473.49	10684.55
473.67	10672.84
473.85	10736.04
474.03	11166.70
474.21	11037.97
474.39	11227.55
474.57	11169.04
474.75	11337.56
474.93	11335.21
475.12	11250.96
475.30	11433.52
475.48	11623.10
475.66	11379.68
475.84	11250.96
476.02	11637.14
476.20	11775.24
476.38	11850.13
476.56	12032.69
476.74	11875.88
476.92	11817.36
477.10	11695.66
477.28	11985.88
477.46	12341.64
477.64	12444.63
477.82	12549.95
478.00	12943.16
478.18	12685.70
478.36	12690.38
478.54	12812.09
478.72	12706.77
478.90	12784.01
479.08	13062.53
479.26	13125.72
479.44	13446.38
479.62	13385.52
479.80	13455.74
479.98	13493.19
480.16	13853.63
480.34	13813.84
480.52	13809.16
480.70	13790.44
480.88	13797.46
481.06	14293.65
481.24	14111.09
481.41	14216.41
481.59	14401.32
481.77	14539.41
481.95	14511.32
482.13	14752.40
482.31	14499.62
482.49	15161.99
482.67	15159.65
482.85	14988.79
483.03	15360.94
483.21	15618.39
483.39	15646.48
483.57	15616.05
483.74	15651.16
483.92	15967.13
484.10	15737.76
484.28	16042.03
484.46	16198.85
484.64	16526.52
484.82	15955.43
485.00	16278.43
485.18	16484.39
485.35	16613.12
485.53	16147.36
485.71	16322.90
485.89	16823.77
486.07	16615.46
486.25	16821.43
486.43	17111.66
486.61	17202.94
486.78	17502.53
486.96	17628.92
487.14	18003.40
487.32	17816.16
487.50	18272.56
487.68	18129.79
487.85	18487.89
488.03	18506.62
488.21	18934.93
488.39	18778.12
488.57	18766.42
488.75	18899.83
488.92	19257.93
489.10	19463.90
489.28	19541.13
489.46	19594.96
489.64	19651.14
489.81	20372.02
489.99	20472.67
490.17	20180.10
490.35	20606.08
490.53	20556.93
490.70	20769.91
490.88	20538.20
491.06	21128.02
491.24	20957.16
491.41	20999.29
491.59	21046.10
491.77	20744.17
491.95	21284.83
492.13	21495.48
492.30	21830.18
492.48	21968.27
492.66	21734.21
492.84	22188.28
493.01	22312.33
493.19	22043.17
493.37	22572.13
493.54	22815.54
493.72	23084.70
493.90	22916.19
494.08	22995.76
494.25	23583.24
494.43	23377.27
494.61	23396.00
494.79	23718.99
494.96	23931.98
495.14	23805.59
495.32	24142.63
495.49	24142.63
495.67	23901.55
495.85	24133.26
496.02	24470.30
496.20	24449.24
496.38	24573.28
496.55	24795.64
496.73	25333.96
496.91	25113.95
497.09	25039.05
497.26	25729.51
497.44	25638.23
497.62	25549.29
497.79	25902.71
497.97	25305.87
498.14	25724.83
498.32	25853.56
498.50	25649.93
498.67	26539.33
498.85	26237.41
499.03	26583.80
499.20	26448.05
499.38	26558.06
499.56	26567.42
499.73	26630.62
499.91	26918.50
500.08	27091.70
500.26	26787.43
500.44	26995.74
500.61	27199.37
500.79	27147.87
500.97	27236.81
501.14	27405.33
501.32	27400.65
501.49	27285.97
501.67	27725.99
501.84	27571.51
502.02	27798.54
502.20	28142.60
502.37	28318.14
502.55	28224.52
502.72	28400.06
502.90	28243.24
503.07	28268.99
503.25	28819.02
503.43	28100.47
503.60	28187.07
503.78	28224.52
503.95	28549.85
504.13	28744.12
504.30	28690.29
504.48	29041.37
504.65	29163.08
504.83	29315.21
505.01	29675.65
505.18	29605.44
505.36	30202.27
505.53	29441.60
505.71	30232.70
505.88	29970.56
506.06	29605.44
506.23	30235.04
506.41	29881.62
506.58	30284.19
506.76	30548.67
506.93	30707.83
507.11	30300.58
507.28	30183.55
507.46	30185.89
507.63	30614.21
507.81	30874.01
507.98	30164.82
508.16	30644.63
508.33	31007.42
508.50	30955.93
508.68	31365.52
508.85	31892.14
509.03	31201.68
509.20	31077.63
509.38	31637.02
509.55	31459.14
509.73	31625.32
509.90	31608.93
510.08	31957.67
510.25	31548.08
510.42	31800.86
510.60	32278.33
510.77	31955.33
510.95	32411.74
511.12	32240.88
511.30	32306.41
511.47	32760.48
511.64	32507.70
511.82	32849.42
511.99	32453.87
512.17	32615.37
512.34	32854.10
512.51	32856.44
512.69	33156.03
512.86	33708.40
513.04	33446.26
513.21	33317.53
513.38	33387.74
513.56	33137.30
513.73	33439.23
513.90	33074.11
514.08	33378.38
514.25	33301.14
514.43	33404.13
514.60	33352.63
514.77	33474.34
514.95	33574.98
515.12	33954.15
515.29	34328.64
515.47	34307.57
515.64	34185.86
515.81	34129.69
515.99	34038.41
516.16	34108.63
516.33	33706.05
516.51	33958.83
516.68	33923.72
516.85	33259.01
517.03	33497.75
517.20	34066.50
517.37	34646.95
517.54	34735.89
517.72	34602.48
517.89	34237.36
518.06	34153.10
518.24	34438.64
518.41	34462.05
518.58	35147.82
518.75	35171.23
518.93	35409.96
519.10	35173.57
519.27	35421.67
519.45	35346.77
519.62	35302.30
519.79	35838.28
519.96	35782.11
520.14	35964.67
520.31	35566.78
520.48	35803.17
520.65	35896.80
520.83	36229.15
521.00	36268.94
521.17	36332.14
521.34	36018.50
521.52	36755.77
521.69	36472.57
521.86	36577.89
522.03	36830.67
522.20	36357.88
522.38	36605.98
522.55	36844.71
522.72	36966.42
522.89	36519.38
523.07	37022.59
523.24	36996.85
523.41	37303.46
523.58	37387.72
523.75	37593.68
523.92	37633.47
524.10	37638.15
524.27	37621.77
524.44	37813.70
524.61	37801.99
524.78	37567.94
524.96	37816.04
525.13	37839.44
525.30	37823.06
525.47	38316.91
525.64	37907.32
525.81	37963.49
525.98	37696.67
526.16	37963.49
526.33	37368.99
526.50	37752.84
526.67	37532.83
526.84	37560.92
527.01	37745.82
527.18	38162.43
527.36	38780.34
527.53	38553.30
527.70	38965.24
527.87	39079.92
528.04	38981.62
528.21	38976.94
528.38	38824.81
528.55	39337.38
528.72	39063.54
528.89	39304.62
529.07	39206.31
529.24	38880.98
529.41	39431.01
529.58	39098.65
529.75	39220.36
529.92	39093.97
530.09	39768.04
530.26	39489.52
530.43	39503.56
530.60	39704.85
530.77	39440.37
530.94	39793.79
531.11	39739.96
531.28	39477.82
531.46	39798.47
531.63	40093.38
531.80	39828.90
531.97	39447.39
532.14	39770.38
532.31	39615.91
532.48	39861.66
532.65	40261.90
532.82	39510.58
532.99	40025.50
533.16	40535.74
533.33	40718.30
533.50	40266.58
533.67	40364.88
533.84	40336.79
534.01	40533.40
534.18	40196.36
534.35	40444.46
534.52	40357.86
534.69	40779.15
534.86	40722.98
535.03	40926.61
535.20	40886.82
535.37	41123.21
535.54	41317.48
535.71	40692.55
535.88	40992.14
536.05	41209.81
536.22	41017.89
536.38	41277.69
536.55	41296.41
536.72	40879.80
536.89	40727.66
537.06	40957.03
537.23	41567.91
537.40	41476.63
537.57	41448.55
537.74	41619.41
537.91	41720.05
538.08	41572.60
538.25	41563.23
538.42	41762.18
538.59	41977.51
538.75	41085.76
538.92	41537.49
539.09	41977.51
539.26	41968.15
539.43	41839.42
539.60	41993.89
539.77	41841.76
539.94	41958.78
540.11	41848.78
540.28	42017.30
540.44	41979.85
540.61	41942.40
540.78	41390.03
540.95	41776.22
541.12	41680.26
541.29	41916.65
541.46	41893.25
541.62	42485.40
541.79	42782.65
541.96	41687.28
542.13	42047.72
542.30	42319.23
542.47	42108.58
542.63	42157.73
542.80	42342.63
542.97	42625.84
543.14	43131.39
543.31	42857.55
543.48	42555.62
543.64	43440.34
543.81	43124.37
543.98	43533.96
544.15	43353.74
544.32	43400.55
544.48	43496.52
544.65	43491.83
544.82	43583.12
544.99	42890.32
545.16	43220.33
545.32	43136.07
545.49	43882.70
545.66	43742.27
545.83	43875.68
546.00	43878.02
546.16	43573.75
546.33	43805.47
546.50	43309.27
546.67	43665.03
546.83	43372.47
547.00	43438.00
547.17	43459.07
547.34	43423.96
547.50	43969.30
547.67	43641.63
547.84	43742.27
548.00	43854.62
548.17	44423.37
548.34	44147.18
548.51	44446.77
548.67	44069.95
548.84	44165.91
549.01	43849.94
549.18	43981.01
549.34	44502.95
549.51	44498.26
549.68	44399.96
549.84	44435.07
550.01	44444.43
550.18	44163.57
550.34	44320.38
550.51	44119.10
550.68	44516.99
550.84	44306.34
551.01	44643.38
551.18	44554.44
551.34	44406.98
551.51	44924.24
551.68	44362.51
551.84	44535.71
552.01	44552.10
552.18	44690.19
552.34	44353.15
552.51	44708.91
552.68	44268.89
552.84	44739.34
553.01	45074.04
553.18	44505.29
553.34	44648.06
553.51	44617.63
553.67	44704.23
553.84	45338.52
554.01	45017.86
554.17	45275.32
554.34	45102.12
554.51	45177.02
554.67	45158.30
554.84	45366.60
555.00	44807.22
555.17	44598.91
555.33	45134.89
555.50	44751.04
555.67	45230.85
555.83	45048.29
556.00	45148.93
556.16	45776.20
556.33	45059.99
556.50	45120.85
556.66	45633.42
556.83	45067.02
556.99	45155.96
557.16	45783.22
557.32	45635.77
557.49	45188.72
557.65	45558.53
557.82	45258.94
557.98	45179.36
558.15	45518.74
558.32	45504.70
558.48	45249.58
558.65	45392.35
558.81	45069.36
558.98	45427.46
559.14	45713.00
559.31	45127.87
559.47	45626.40
559.64	45766.84
559.80	45298.73
559.97	45507.04
560.13	45595.98
560.30	45713.00
560.46	45411.07
560.63	45741.09
560.79	45553.85
560.96	46115.58
561.12	45794.92
561.29	45846.41
561.45	45736.41
561.61	45603.00
561.78	45853.44
561.94	45560.87
562.11	45535.12
562.27	45574.91
562.44	46190.47
562.60	46373.03
562.77	45937.69
562.93	46021.95
563.10	45935.35
563.26	45598.32
563.42	45933.01
563.59	45677.90
563.75	45411.07
563.92	46291.12
564.08	46010.25
564.24	46408.14
564.41	46017.27
564.57	45937.69
564.74	45649.81
564.90	46103.87
565.07	45897.91
565.23	46089.83
565.39	46101.53
565.56	45741.09
565.72	45930.67
565.88	45794.92
566.05	45638.11
566.21	45675.55
566.38	46298.14
566.54	46115.58
566.70	46389.42
566.87	46770.93
567.03	46129.62
567.19	46738.16
567.36	46286.43
567.52	46213.88
567.68	46101.53
567.85	46148.34
568.01	46473.68
568.17	46092.17
568.34	46274.73
568.50	46307.50
568.66	45509.38
568.83	46333.24
568.99	45989.19
569.15	46698.37
569.32	46045.36
569.48	46043.02
569.64	46630.49
569.81	46380.06
569.97	46244.30
570.13	46361.33
570.30	45832.37
570.46	45703.64
570.62	45935.35
570.78	45921.31
570.95	46054.72
571.11	46071.10
571.27	46270.05
571.43	45734.07
571.60	46075.79
571.76	46241.96
571.92	46433.89
572.09	46291.12
572.25	46588.36
572.41	46293.46
572.57	46321.54
572.74	46691.35
572.90	46543.89
573.06	46440.91
573.22	46522.83
573.38	46246.65
573.55	46281.75
573.71	46319.20
573.87	46452.61
574.03	46637.51
574.20	46979.23
574.36	46040.68
574.52	46073.45
574.68	46705.39
574.84	46394.10
575.01	46321.54
575.17	46305.16
575.33	46288.77
575.49	46368.35
575.65	46375.37
575.82	46153.02
575.98	46431.55
576.14	46670.28
576.30	46663.26
576.46	46600.07
576.62	46267.71
576.79	46333.24
576.95	45844.07
577.11	46536.87
577.27	46398.78
577.43	46064.08
577.59	46143.66
577.75	46206.86
577.92	45928.33
578.08	46330.90
578.24	46195.15
578.40	46138.98
578.56	46543.89
578.72	46576.66
578.88	46396.44
579.04	46564.96
579.21	46429.21
579.37	46363.67
579.53	46546.23
579.69	46525.17
579.85	46562.62
580.01	46667.94
580.17	46213.88
580.33	46251.33
580.49	46553.26
580.65	46707.73
580.82	46557.94
580.98	46614.11
581.14	46274.73
581.30	46492.40
581.46	46644.54
581.62	46525.17
581.78	46209.20
581.94	46419.84
582.10	46843.48
582.26	46337.93
582.42	46457.29
582.58	46387.08
582.74	46195.15
582.90	46796.67
583.06	46705.39
583.22	46473.68
583.38	46892.63
583.54	47138.39
583.70	46433.89
583.86	46588.36
584.02	46012.59
584.18	46525.17
584.34	46820.08
584.50	46281.75
584.66	46270.05
584.82	46330.90
584.98	46525.17
585.14	46876.25
585.30	46225.58
585.46	46520.49
585.62	46150.68
585.78	46623.47
585.94	46204.52
586.10	46562.62
586.26	46096.85
586.42	46660.92
586.58	46892.63
586.74	46604.75
586.90	46185.79
587.06	45689.60
587.22	46532.19
587.38	46543.89
587.54	46476.02
587.70	46555.60
587.86	46733.48
588.02	46387.08
588.18	47065.83
588.34	46038.34
588.49	45837.05
588.65	45907.27
588.81	45911.95
588.97	46316.86
589.13	45659.17
589.29	46284.09
589.45	46527.51
589.61	46459.63
589.77	46225.58
589.93	46382.40
590.08	46438.57
590.24	46894.97
590.40	47372.44
590.56	46803.69
590.72	46314.52
590.88	46160.05
591.04	46773.27
591.20	46700.71
591.35	46747.52
591.51	47639.26
591.67	46361.33
591.83	46724.11
591.99	46693.69
592.15	46621.13
592.31	46644.54
592.46	46759.22
592.62	46326.22
592.78	46445.59
592.94	46700.71
593.10	46934.76
593.26	46876.25
593.41	46801.35
593.57	46258.35
593.73	46560.28
593.89	46749.86
594.05	46864.55
594.20	46571.98
594.36	46859.87
594.52	46382.40
594.68	46639.86
594.84	46925.40
594.99	46827.10
595.15	46543.89
595.31	46546.23
595.47	46581.34
595.62	46794.33
595.78	46337.93
595.94	46937.10
596.10	47098.60
596.25	46801.35
596.41	46731.14
596.57	46375.37
596.73	46726.46
596.88	46305.16
597.04	46614.11
597.20	46396.44
597.36	46356.65
597.51	46843.48
597.67	46813.05
597.83	46791.99
597.99	47271.80
598.14	46382.40
598.30	46597.73
598.46	46672.62
598.61	46330.90
598.77	46672.62
598.93	46344.95
599.09	46534.53
599.24	47236.69
599.40	47105.62
599.56	46653.90
599.71	46686.67
599.87	46979.23
600.03	46834.12
600.18	46639.86
600.34	46866.89
600.50	46511.13
600.65	46724.11
600.81	46974.55
600.97	46869.23
601.12	46794.33
601.28	47070.51
601.44	46218.56
601.59	46321.54
601.75	46686.67
601.91	46906.68
602.06	46412.82
602.22	46742.84
602.37	46761.56
602.53	46454.95
602.69	46735.82
602.84	46284.09
603.00	46358.99
603.16	46761.56
603.31	46433.89
603.47	46995.62
603.62	46553.26
603.78	46684.33
603.94	46679.64
604.09	46433.89
604.25	46745.18
604.40	46316.86
604.56	46515.81
604.71	46859.87
604.87	46663.26
605.03	46614.11
605.18	46354.31
605.34	46174.09
605.49	46520.49
605.65	46677.30
605.80	46579.00
605.96	46426.87
606.12	46773.27
606.27	46628.15
606.43	46164.73
606.58	46600.07
606.74	46181.11
606.89	46389.42
607.05	46696.03
607.20	45970.46
607.36	46248.99
607.51	47030.72
607.67	46457.29
607.82	46473.68
607.98	45879.18
608.13	46361.33
608.29	46319.20
608.44	46033.66
608.60	45668.53
608.75	46082.81
608.91	46110.89
609.06	46263.03
609.22	46387.08
609.37	46328.56
609.53	46143.66
609.68	46272.39
609.84	46110.89
609.99	46169.41
610.15	45949.40
610.30	45741.09
610.46	45614.70
610.61	45970.46
610.76	45958.76
610.92	45968.12
611.07	46342.61
611.23	46028.98
611.38	45731.73
611.54	46028.98
611.69	45415.76
611.84	45773.86
612.00	45528.10
612.15	45296.39
612.31	46344.95
612.46	45806.62
612.62	46026.63
612.77	45888.54
612.92	46398.78
613.08	45687.26
613.23	45394.69
613.39	45773.86
613.54	45294.05
613.69	45565.55
613.85	45188.72
614.00	45581.93
614.15	46122.60
614.31	45464.91
614.46	45488.31
614.62	45502.35
614.77	45698.96
614.92	45792.58
615.08	45366.60
615.23	45420.44
615.38	45265.96
615.54	45249.58
615.69	45324.47
615.84	45141.91
616.00	45034.25
616.15	45020.20
616.30	45102.12
616.46	45284.68
616.61	44952.33
616.76	45088.08
616.92	44634.02
617.07	44961.69
617.22	45008.50
617.37	45249.58
617.53	45165.32
617.68	45272.98
617.83	44975.73
617.99	45174.68
618.14	44877.43
618.29	45031.91
618.45	44882.11
618.60	44435.07
618.75	44662.10
618.90	44371.88
619.06	45050.63
619.21	44900.84
619.36	44795.51
619.51	44905.52
619.67	44687.85
619.82	44739.34
619.97	45081.06
620.12	44612.95
620.28	44182.29
620.43	44519.33
620.58	44493.58
620.73	44744.02
620.89	44500.61
621.04	44868.07
621.19	44615.29
621.34	44105.06
621.49	44624.65
621.65	44549.76
621.80	44608.27
621.95	44343.79
622.10	44189.31
622.25	44231.44
622.41	44048.88
622.56	43871.00
622.71	44301.66
622.86	44336.77
623.01	44135.48
623.16	44215.06
623.32	44229.10
623.47	44208.04
623.62	44243.15
623.77	43901.43
623.92	44308.68
624.07	44079.31
624.23	43906.11
624.38	44065.27
624.53	43924.83
624.68	43763.34
624.83	43868.66
624.98	44184.63
625.13	43580.78
625.29	43725.89
625.44	43426.30
625.59	43381.83
625.74	43381.83
625.89	43110.33
626.04	43356.08
626.19	43622.90
626.34	43377.15
626.49	43180.54
626.65	43409.92
626.80	43470.77
626.95	43559.71
627.10	43126.71
627.25	43480.13
627.40	42845.85
627.55	42457.32
627.70	42939.47
627.85	42831.80
628.00	42796.70
628.15	43283.53
628.30	42873.93
628.45	43489.49
628.60	42817.76
628.76	43030.75
628.91	43461.41
629.06	42607.11
629.21	42405.83
629.36	42899.68
629.51	42682.01
629.66	42557.96
629.81	42387.10
629.96	42220.92
630.11	42972.24
630.26	42471.36
630.41	42703.07
630.56	42979.26
630.71	42511.15
630.86	42714.78
631.01	42504.13
631.16	42766.27
631.31	42181.13
631.46	41876.86
631.61	42649.24
631.76	42122.62
631.91	42354.33
632.06	42377.74
632.21	42693.71
632.36	42471.36
632.51	41968.15
632.66	42181.13
632.81	42031.34
632.96	42234.97
633.10	42075.81
633.25	42045.38
633.40	42054.75
633.55	42504.13
633.70	42213.90
633.85	41926.02
634.00	41968.15
634.15	41886.23
634.30	41743.45
634.45	41619.41
634.60	41951.76
634.75	41647.49
634.90	41909.63
635.05	41663.88
635.19	42326.25
635.34	42064.11
635.49	41944.74
635.64	41518.76
635.79	41808.99
635.94	41165.34
636.09	41687.28
636.24	41607.70
636.39	40893.84
636.53	41586.64
636.68	41509.40
636.83	41596.00
636.98	41820.69
637.13	41024.91
637.28	41586.64
637.43	41656.85
637.57	41734.09
637.72	41504.72
637.87	41612.38
638.02	41441.53
638.17	41315.14
638.32	41268.33
638.46	41043.63
638.61	41212.15
638.76	41282.37
638.91	41518.76
639.06	41223.86
639.20	41188.75
639.35	41521.10
639.50	41352.58
639.65	41041.29
639.80	41673.24
639.94	40898.52
640.09	41062.36
640.24	41240.24
640.39	40678.51
640.54	40725.32
640.68	40451.48
640.83	41074.06
640.98	40671.49
641.13	40638.72
641.27	41148.96
641.42	40659.79
641.57	40023.16
641.72	40250.19
641.86	40643.40
642.01	40140.19
642.16	40547.44
642.31	39882.73
642.45	40346.15
642.60	40224.45
642.75	40554.46
642.90	40240.83
643.04	40325.09
643.19	40151.89
643.34	40652.76
643.48	40088.70
643.63	40355.52
643.78	40140.19
643.93	40058.27
644.07	40123.80
644.22	40203.38
644.37	39571.44
644.51	39922.52
644.66	40346.15
644.81	40238.49
644.95	40509.99
645.10	39461.43
645.25	39798.47
645.39	39950.60
645.54	39962.31
645.69	40023.16
645.83	39943.58
645.98	39866.34
646.13	39892.09
646.27	40126.14
646.42	39723.57
646.57	39402.92
646.71	39498.88
646.86	39452.07
647.00	39819.53
647.15	39608.89
647.30	39292.91
647.44	39342.06
647.59	39566.76
647.74	39328.02
647.88	39522.29
648.03	39590.16
648.17	39232.06
648.32	39225.04
648.47	39255.46
648.61	38698.42
648.76	39522.29
648.90	39590.16
649.05	39571.44
649.20	39075.24
649.34	39185.25
649.49	38595.43
649.63	39150.14
649.78	39194.61
649.92	38932.47
650.07	39421.64
650.21	39108.01
650.36	39342.06
650.51	39250.78
650.65	39533.99
650.80	39578.46
650.94	39056.52
651.09	39562.08
651.23	38843.53
651.38	38677.35
651.52	38782.68
651.67	38653.95
651.81	38579.05
651.96	38813.10
652.10	38588.41
652.25	39117.37
652.39	38646.93
652.54	39079.92
652.68	38759.27
652.83	38616.50
652.97	38892.68
653.12	39077.58
653.26	38752.25
653.41	38410.53
653.55	38401.17
653.70	38281.80
653.84	38288.82
653.99	38375.42
654.13	38782.68
654.27	38094.56
654.42	38122.65
654.56	38286.48
654.71	38246.69
654.85	38366.06
655.00	38108.60
655.14	38272.44
655.29	37315.16
655.43	37926.04
655.57	37418.14
655.72	37373.67
655.86	37928.38
656.01	37455.59
656.15	37301.12
656.30	37762.20
656.44	37603.05
656.58	37390.06
656.73	37640.50
656.87	37930.72
657.01	37476.66
657.16	37825.40
657.30	37378.36
657.45	37418.14
657.59	37338.57
657.73	37537.51
657.88	37841.78
658.02	37827.74
658.16	37844.12
658.31	37411.12
658.45	37801.99
658.60	37556.24
658.74	37591.34
658.88	37502.40
659.03	37244.94
659.17	37062.38
659.31	37003.87
659.46	37287.07
659.60	37275.37
659.74	37024.93
659.89	37038.98
660.03	36685.56
660.17	37254.31
660.32	37036.64
660.46	37497.72
660.60	37046.00
660.74	36739.39
660.89	37106.85
661.03	36556.83
661.17	36292.35
661.32	36629.38
661.46	36910.25
661.60	36952.38
661.74	36226.81
661.89	36629.38
662.03	36617.68
662.17	36343.84
662.31	36238.51
662.46	36034.89
662.60	36353.20
662.74	36350.86
662.88	36215.11
663.03	35922.54
663.17	36360.22
663.31	35981.06
663.45	35775.09
663.60	35819.56
663.74	35625.29
663.88	35730.62
664.02	35672.10
664.17	36006.80
664.31	35814.88
664.45	35267.19
664.59	35428.69
664.73	35714.23
664.88	35480.18
665.02	35129.10
665.16	35489.54
665.30	35192.30
665.44	35267.19
665.59	34782.70
665.73	34836.53
665.87	34890.37
666.01	34733.55
666.15	35145.48
666.29	35470.82
666.44	34660.99
666.58	34810.79
666.72	34775.68
666.86	34742.91
667.00	34953.56
667.14	34387.15
667.28	34342.68
667.43	34660.99
667.57	34579.07
667.71	34047.77
667.85	34574.39
667.99	34452.69
668.13	34382.47
668.27	34256.08
668.41	34499.50
668.56	33923.72
668.70	34506.52
668.84	33624.14
668.98	33553.92
669.12	33722.44
669.26	33511.79
669.40	33673.29
669.54	33567.96
669.68	33661.58
669.82	33102.20
669.96	33160.71
670.10	32950.06
670.25	33233.27
670.39	33287.10
670.53	33308.16
670.67	33041.34
670.81	33237.95
670.95	33273.06
671.09	33031.98
671.23	32865.80
671.37	32732.39
671.51	32769.84
671.65	32833.04
671.79	32519.40
671.93	33134.96
672.07	32521.74
672.21	32748.78
672.35	32584.94
672.49	32524.08
672.63	32414.08
672.77	32589.62
672.91	32388.33
673.05	31952.99
673.19	32093.43
673.33	32006.83
673.47	31978.74
673.61	32016.19
673.75	31768.09
673.89	31747.03
674.03	31704.90
674.17	31770.43
674.31	31218.07
674.45	31557.44
674.59	31117.42
674.73	32077.04
674.87	31028.48
675.01	31433.39
675.15	31417.01
675.29	30927.84
675.43	31094.02
675.56	31096.36
675.70	30909.11
675.84	30845.92
675.98	29926.09
676.12	30586.12
676.26	30532.29
676.40	30756.98
676.54	30946.56
676.68	30864.64
676.82	29771.61
676.96	29935.45
677.10	29898.00
677.23	30157.80
677.37	30157.80
677.51	29699.06
677.65	29715.44
677.79	29043.71
677.93	29359.68
678.07	29259.04
678.21	28982.85
678.34	28685.61
678.48	29181.80
678.62	29167.76
678.76	28638.80
678.90	28940.72
679.04	28463.25
679.18	28486.66
679.31	28336.87
679.45	28290.06
679.59	28678.58
679.73	28542.83
679.87	27772.80
680.00	28189.41
680.14	27957.70
680.28	28023.23
680.42	28027.92
680.56	27908.55
680.70	27796.20
680.83	27786.84
680.97	27578.53
681.11	27475.55
681.25	27253.20
681.39	27353.84
681.52	27136.17
681.66	27117.45
681.80	27065.96
681.94	27089.36
682.07	26747.64
682.21	26808.50
682.35	26710.19
682.49	26878.71
682.62	26796.79
682.76	26738.28
682.90	26338.05
683.04	26450.39
683.17	26333.37
683.31	26061.87
683.45	25766.96
683.59	26061.87
683.72	26066.55
683.86	25879.30
684.00	25738.87
684.13	25472.05
684.27	25589.08
684.41	25195.87
684.55	25036.71
684.68	25518.86
684.82	25219.27
684.96	25198.21
685.09	25205.23
685.23	24737.12
685.37	25092.88
685.50	25195.87
685.64	24985.22
685.78	24290.08
685.91	24482.00
686.05	24486.68
686.19	23709.63
686.32	23772.82
686.46	23690.90
686.60	23447.49
686.73	23260.24
686.87	22941.93
687.01	23136.20
687.14	22888.10
687.28	23311.74
687.42	23311.74
687.55	23431.10
687.69	23033.21
687.82	23119.81
687.96	23297.69
688.10	22951.29
688.23	22815.54
688.37	22843.63
688.50	22855.33
688.64	22710.22
688.78	22871.72
688.91	22497.23
689.05	22445.74
689.18	22237.43
689.32	21881.67
689.46	22050.19
689.59	22469.14
689.73	22127.42
689.86	22080.61
690.00	21865.28
690.13	21830.18
690.27	21647.61
690.41	21612.51
690.54	21348.03
690.68	21184.19
690.81	21303.56
690.95	21263.77
691.08	21090.57
691.22	21245.04
691.35	21256.75
691.49	21303.56
691.62	21174.83
691.76	20851.83
691.89	21064.82
692.03	20989.92
692.16	21083.55
692.30	20416.49
692.43	20114.56
692.57	20535.86
692.70	20292.44
692.84	20217.55
692.97	20271.38
693.11	20105.20
693.24	19950.73
693.38	19861.79
693.51	19606.67
693.65	19779.87
693.78	19887.53
693.92	19393.68
694.05	19604.33
694.19	19480.28
694.32	19386.66
694.45	19278.99
694.59	19150.26
694.72	19246.23
694.86	18806.20
694.99	18845.99
695.13	19150.26
695.26	18567.47
695.39	18661.09
695.53	18946.64
695.66	18906.85
695.80	18644.71
695.93	18354.48
696.07	18331.08
696.20	18361.50
696.33	18448.10
696.47	18277.24
696.60	17984.68
696.73	18036.17
696.87	17977.65
697.00	17802.11
697.14	17614.87
697.27	17703.81
697.40	17935.53
697.54	17291.88
697.67	17308.26
697.80	17432.31
697.94	17174.85
698.07	17151.45
698.21	17273.15
698.34	17334.01
698.47	16996.97
698.61	17057.82
698.74	16802.71
698.87	16840.15
699.01	16624.83
699.14	16449.28
699.27	16498.44
699.40	16519.50
699.54	16238.64
699.67	16418.86
699.80	16215.23
699.94	16290.13
700.07	16362.69
700.20	16264.38
700.34	16449.28
700.47	16044.37
700.60	16002.24
700.73	16070.12
700.87	16060.76
701.00	15686.27
701.13	15669.89
701.26	15620.74
701.40	15662.86
701.53	15267.31
701.66	15480.30
701.79	15059.01
701.93	15477.96
702.06	14925.60
702.19	15035.60
702.32	15073.05
702.46	15009.86
702.59	14913.89
702.72	15215.82
702.85	14817.93
702.99	14904.53
703.12	14471.53
703.25	14487.92
703.38	14429.40
703.51	14537.07
703.65	14373.23
703.78	14178.97
703.91	14017.47
704.04	14326.42
704.17	14298.33
704.31	14090.02
704.44	13703.84
704.57	13907.46
704.70	13977.68
704.83	13874.70
704.96	13785.76
705.10	13558.72
705.23	13701.50
>>>>>End Processed Spectral Data<<<<<
