SpectraSuite Data File
++++++++++++++++++++++++++++++++++++
Date: Fri Oct 25 11:33:53 EDT 2013
User: price-jones
Dark Spectrum Present: No
Reference Spectrum Present: No
Number of Sampled Component Spectra: 1
Spectrometers: USB2+H05261
Integration Time (usec): 100000 (USB2+H05261)
Spectra Averaged: 1 (USB2+H05261)
Boxcar Smoothing: 0 (USB2+H05261)
Correct for Electrical Dark: No (USB2+H05261)
Strobe/Lamp Enabled: No (USB2+H05261)
Correct for Detector Non-linearity: No (USB2+H05261)
Correct for Stray Light: No (USB2+H05261)
Number of Pixels in Processed Spectrum: 2048
>>>>>Begin Processed Spectral Data<<<<<
365.73	308.95
365.92	308.95
366.12	308.95
366.32	196.60
366.52	224.69
366.72	203.63
366.91	138.09
367.11	142.77
367.31	145.11
367.51	166.18
367.70	212.99
367.90	222.35
368.10	205.97
368.30	159.16
368.49	212.99
368.69	205.97
368.89	210.65
369.09	248.10
369.28	241.08
369.48	224.69
369.68	276.18
369.87	236.39
370.07	280.86
370.27	367.46
370.47	372.15
370.66	447.04
370.86	538.32
371.06	589.82
371.25	531.30
371.45	503.22
371.65	552.37
371.84	533.64
372.04	557.05
372.24	613.22
372.44	641.31
372.63	622.58
372.83	620.24
373.03	552.37
373.22	645.99
373.42	695.14
373.62	589.82
373.81	596.84
374.01	603.86
374.21	671.73
374.40	631.94
374.60	688.12
374.79	681.10
374.99	645.99
375.19	678.76
375.38	585.13
375.58	648.33
375.78	650.67
375.97	748.97
376.17	758.33
376.37	667.05
376.56	702.16
376.76	695.14
376.95	734.93
377.15	720.88
377.35	608.54
377.54	699.82
377.74	636.63
377.93	678.76
378.13	770.04
378.33	650.67
378.52	809.83
378.72	748.97
378.91	716.20
379.11	716.20
379.31	706.84
379.50	657.69
379.70	674.07
379.89	718.54
380.09	753.65
380.28	753.65
380.48	746.63
380.68	739.61
380.87	781.74
381.07	697.48
381.26	784.08
381.46	793.44
381.65	753.65
381.85	777.06
382.04	725.57
382.24	781.74
382.43	763.01
382.63	760.67
382.83	741.95
383.02	851.96
383.22	802.80
383.41	777.06
383.61	828.55
383.80	884.72
384.00	851.96
384.19	873.02
384.39	849.61
384.58	812.17
384.78	847.27
384.97	802.80
385.17	854.30
385.36	816.85
385.56	805.14
385.75	748.97
385.95	873.02
386.14	894.08
386.34	809.83
386.53	912.81
386.72	835.57
386.92	976.00
387.11	788.76
387.31	917.49
387.50	936.21
387.70	912.81
387.89	875.36
388.09	870.68
388.28	922.17
388.48	884.72
388.67	924.51
388.86	917.49
389.06	954.94
389.25	1001.75
389.45	936.21
389.64	971.32
389.84	983.02
390.03	903.45
390.22	1027.50
390.42	898.77
390.61	945.58
390.81	936.21
391.00	990.05
391.19	1022.81
391.39	924.51
391.58	1086.01
391.78	1004.09
391.97	994.73
392.16	1046.22
392.36	1011.11
392.55	992.39
392.75	973.66
392.94	1050.90
393.13	1006.43
393.33	1032.18
393.52	1083.67
393.71	1074.31
393.91	1109.41
394.10	1081.33
394.29	1097.71
394.49	1078.99
394.68	1151.54
394.88	1151.54
395.07	1125.80
395.26	1093.03
395.46	1114.10
395.65	1137.50
395.84	1233.46
396.04	1203.04
396.23	1186.65
396.42	1214.74
396.62	1193.67
396.81	1184.31
397.00	1224.10
397.19	1200.69
397.39	1214.74
397.58	1343.47
397.77	1261.55
397.97	1263.89
398.16	1240.48
398.35	1203.04
398.55	1334.11
398.74	1282.61
398.93	1331.76
399.12	1308.36
399.32	1282.61
399.51	1397.30
399.70	1291.98
399.90	1334.11
400.09	1310.70
400.28	1313.04
400.47	1420.71
400.67	1376.24
400.86	1341.13
401.05	1369.21
401.24	1434.75
401.44	1392.62
401.63	1483.90
401.82	1453.47
402.01	1460.49
402.21	1383.26
402.40	1434.75
402.59	1446.45
402.78	1500.28
402.97	1390.28
403.17	1446.45
403.36	1610.29
403.55	1511.99
403.74	1636.03
403.93	1483.90
404.13	1579.86
404.32	1568.16
404.51	1556.46
404.70	1568.16
404.89	1614.97
405.09	1696.89
405.28	1694.55
405.47	1638.38
405.66	1640.72
405.85	1685.19
406.05	1692.21
406.24	1804.55
406.43	1762.42
406.62	1809.23
406.81	1811.57
407.00	1867.75
407.20	1692.21
407.39	1710.93
407.58	1823.28
407.77	1844.34
407.96	1909.88
408.15	1856.04
408.34	1912.22
408.54	1895.83
408.73	2078.40
408.92	1856.04
409.11	1898.17
409.30	2038.61
409.49	2008.18
409.68	1989.46
409.87	1935.62
410.07	2022.22
410.26	2104.14
410.45	2026.90
410.64	1954.35
410.83	2143.93
411.02	2120.53
411.21	2237.55
411.40	2050.31
411.59	2239.89
411.78	2200.10
411.98	2108.82
412.17	2167.34
412.36	2284.36
412.55	2279.68
412.74	2312.45
412.93	2363.94
413.12	2314.79
413.31	2445.86
413.50	2399.05
413.69	2331.17
413.88	2492.67
414.07	2305.43
414.26	2445.86
414.45	2448.20
414.64	2623.74
414.83	2600.34
415.02	2614.38
415.22	2607.36
415.41	2644.81
415.60	2670.55
415.79	2565.23
415.98	2691.62
416.17	2672.89
416.36	2656.51
416.55	2693.96
416.74	2787.58
416.93	2878.86
417.12	2836.73
417.31	2834.39
417.50	2932.69
417.69	3052.06
417.88	2897.58
418.07	2923.33
418.26	3035.67
418.45	2916.31
418.64	3094.19
418.83	3000.57
419.02	3052.06
419.21	3133.98
419.39	3040.36
419.58	3012.27
419.77	3019.29
419.96	3166.74
420.15	3248.66
420.34	3073.12
420.53	3145.68
420.72	3183.13
420.91	3335.26
421.10	3133.98
421.29	3300.16
421.48	3265.05
421.67	3351.65
421.86	3122.27
422.05	3222.92
422.24	3323.56
422.43	3190.15
422.61	3361.01
422.80	3290.79
422.99	3375.05
423.18	3433.57
423.37	3400.80
423.56	3428.88
423.75	3407.82
423.94	3335.26
424.13	3220.58
424.32	3353.99
424.50	3445.27
424.69	3447.61
424.88	3447.61
425.07	3335.26
425.26	3342.28
425.45	3463.99
425.64	3363.35
425.83	3368.03
426.01	3487.40
426.20	3566.98
426.39	3440.59
426.58	3419.52
426.77	3424.20
426.96	3679.32
427.15	3531.87
427.33	3555.27
427.52	3494.42
427.71	3679.32
427.90	3506.12
428.09	3653.58
428.28	3660.60
428.46	3620.81
428.65	3662.94
428.84	3875.93
429.03	3756.56
429.22	3723.79
429.40	3721.45
429.59	3737.84
429.78	3707.41
429.97	3520.17
430.16	3679.32
430.34	3742.52
430.53	3957.85
430.72	3829.12
430.91	3819.75
431.10	3896.99
431.28	3831.46
431.47	3962.53
431.66	4009.34
431.85	3953.16
432.03	4004.66
432.22	4037.42
432.41	4112.32
432.60	4046.79
432.79	3992.95
432.97	4035.08
433.16	4203.60
433.35	4051.47
433.54	4107.64
433.72	4243.39
433.91	4170.83
434.10	4042.11
434.28	4119.34
434.47	4259.78
434.66	4212.96
434.85	4299.56
435.03	4208.28
435.22	4257.43
435.41	4397.87
435.59	4334.67
435.78	4299.56
435.97	4264.46
436.16	4264.46
436.34	4337.01
436.53	4416.59
436.72	4430.63
436.90	4301.90
437.09	4554.68
437.28	4503.19
437.46	4456.38
437.65	4550.00
437.84	4720.86
438.02	4542.98
438.21	4498.51
438.40	4521.92
438.58	4725.54
438.77	4910.44
438.96	4751.29
439.14	4863.63
439.33	4744.27
439.52	4770.01
439.70	5018.11
439.89	4919.81
440.08	4983.00
440.26	4978.32
440.45	4961.94
440.63	4990.02
440.82	5165.56
441.01	4971.30
441.19	5107.05
441.38	5177.26
441.57	5144.50
441.75	5259.18
441.94	5261.52
442.12	5268.55
442.31	5345.78
442.50	5224.08
442.68	5280.25
442.87	5301.31
443.05	5514.30
443.24	5441.75
443.43	5551.75
443.61	5526.00
443.80	5612.60
443.98	5383.23
444.17	5305.99
444.35	5444.09
444.54	5626.65
444.73	5650.05
444.91	5743.67
445.10	5598.56
445.28	5509.62
445.47	5640.69
445.65	5607.92
445.84	5785.80
446.02	5614.95
446.21	5568.13
446.39	5603.24
446.58	5675.80
446.77	5572.82
446.95	5624.31
447.14	5603.24
447.32	5626.65
447.51	5703.89
447.69	5596.22
447.88	5722.61
448.06	5865.38
448.25	5781.12
448.43	5701.54
448.62	5893.47
448.80	5748.36
448.99	5912.19
449.17	5888.79
449.36	5734.31
449.54	5874.74
449.73	6120.50
449.91	6040.92
450.10	5933.26
450.28	6038.58
450.46	6179.01
450.65	6019.86
450.83	6179.01
451.02	6235.19
451.20	6300.72
451.39	6097.10
451.57	6174.33
451.76	6193.06
451.94	6033.90
452.13	6312.42
452.31	6225.82
452.49	6080.71
452.68	6293.70
452.86	6150.93
453.05	6406.05
453.23	6366.26
453.42	6312.42
453.60	6246.89
453.78	6352.21
453.97	6352.21
454.15	6429.45
454.34	6289.02
454.52	6602.65
454.70	6497.33
454.89	6516.05
455.07	6628.40
455.26	6532.44
455.44	6766.49
455.62	6656.48
455.81	6576.91
455.99	6647.12
456.17	6747.76
456.36	6759.47
456.54	6738.40
456.73	6846.07
456.91	6881.18
457.09	6944.37
457.28	7087.14
457.46	6935.01
457.64	6988.84
457.83	6995.86
458.01	6841.39
458.19	7049.69
458.38	6995.86
458.56	7082.46
458.74	7307.15
458.93	7164.38
459.11	7096.50
459.29	7276.73
459.48	7208.85
459.66	7267.36
459.84	7314.17
460.03	7566.95
460.21	7293.11
460.39	7236.94
460.57	7194.81
460.76	7391.41
460.94	7400.77
461.12	7562.27
461.31	7410.14
461.49	7346.94
461.67	7466.31
461.85	7644.19
462.04	7445.24
462.22	7992.93
462.40	7618.44
462.59	7695.68
462.77	7674.62
462.95	7688.66
463.13	7688.66
463.32	7616.10
463.50	7838.45
463.68	7829.09
463.86	7843.14
464.05	7714.41
464.23	7620.78
464.41	7901.65
464.59	7850.16
464.78	8168.47
464.96	8126.34
465.14	7955.48
465.32	8084.21
465.50	8098.25
465.69	8163.79
465.87	7906.33
466.05	8079.53
466.23	8208.26
466.41	8077.19
466.60	8439.97
466.78	8060.80
466.96	8168.47
467.14	8079.53
467.32	8142.72
467.51	8329.97
467.69	7999.95
467.87	8348.69
468.05	8423.59
468.23	8091.23
468.41	8208.26
468.60	8238.69
468.78	8362.73
468.96	8468.06
469.14	8493.80
469.32	8636.58
469.50	8510.19
469.69	8559.34
469.87	8601.47
470.05	8798.07
470.23	8734.88
470.41	8674.03
470.59	8706.79
470.77	8978.30
470.95	8917.44
471.14	9029.79
471.32	8730.20
471.50	8997.02
471.68	8833.18
471.86	9022.77
472.04	9193.62
472.22	9392.57
472.40	8898.72
472.58	9008.72
472.77	9228.73
472.95	9254.48
473.13	9516.62
473.31	9322.35
473.49	9392.57
473.67	9437.04
473.85	9582.15
474.03	9593.86
474.21	9734.29
474.39	9689.82
474.57	9605.56
474.75	9848.97
474.93	9785.78
475.12	9921.53
475.30	9949.62
475.48	9867.70
475.66	9994.09
475.84	9898.13
476.02	10305.38
476.20	10092.39
476.38	10331.12
476.56	10394.32
476.74	10544.11
476.92	10480.92
477.10	10321.76
477.28	10619.01
477.46	10541.77
477.64	10942.00
477.82	10778.17
478.00	10932.64
478.18	10862.43
478.36	11199.46
478.54	11253.30
478.72	11162.01
478.90	11321.17
479.08	11564.59
479.26	11632.46
479.44	11585.65
479.62	11620.76
479.80	11878.22
479.98	11751.83
480.16	12126.32
480.34	11946.09
480.52	12205.89
480.70	12241.00
480.88	12119.29
481.06	12336.96
481.24	12327.60
481.41	12566.34
481.59	12826.14
481.77	12767.62
481.95	12732.51
482.13	13011.04
482.31	13111.68
482.49	12966.57
482.67	13034.44
482.85	13191.26
483.03	13692.13
483.21	13582.13
483.39	13743.63
483.57	13668.73
483.74	13898.10
483.92	13956.61
484.10	13743.63
484.28	14270.25
484.46	14466.85
484.64	14693.88
484.82	14249.18
485.00	14626.01
485.18	14644.73
485.35	15037.94
485.53	14867.08
485.71	15073.05
485.89	15407.75
486.07	15272.00
486.25	15398.38
486.43	15431.15
486.61	15672.23
486.78	15583.29
486.96	15712.02
487.14	16123.95
487.32	15943.73
487.50	15978.84
487.68	16372.05
487.85	16559.29
488.03	16671.64
488.21	16767.60
488.39	16669.30
488.57	16987.61
488.75	16912.71
488.92	17216.98
489.10	17568.06
489.28	17518.91
489.46	17830.20
489.64	17554.02
489.81	17855.95
489.99	17816.16
490.17	17996.38
490.35	18211.71
490.53	18431.72
490.70	18328.74
490.88	18520.66
491.06	18735.99
491.24	18761.73
491.41	18876.42
491.59	19103.45
491.77	18876.42
491.95	19304.74
492.13	19140.90
492.30	19786.89
492.48	19723.69
492.66	19566.88
492.84	19871.15
493.01	19903.92
493.19	20210.53
493.37	20077.12
493.54	20308.83
493.72	20224.57
493.90	20161.37
494.08	20641.18
494.25	20779.28
494.43	21029.71
494.61	20748.85
494.79	20847.15
494.96	21036.74
495.14	21479.10
495.32	21310.58
495.49	21738.90
495.67	21523.57
495.85	22036.14
496.02	21905.07
496.20	21729.53
496.38	21923.80
496.55	22354.46
496.73	22862.35
496.91	22478.50
497.09	22780.43
497.26	22750.01
497.44	22654.05
497.62	23110.45
497.79	23091.73
497.97	23349.18
498.14	23276.63
498.32	23482.59
498.50	23470.89
498.67	23740.05
498.85	23716.65
499.03	23639.41
499.20	23892.19
499.38	24084.11
499.56	24149.65
499.73	24168.37
499.91	24610.73
500.08	24706.70
500.26	24463.28
500.44	24711.38
500.61	24781.59
500.79	24484.34
500.97	24769.89
501.14	25017.99
501.32	25062.46
501.49	24877.55
501.67	25205.23
501.84	25191.19
502.02	25359.70
502.20	25326.94
502.37	25432.26
502.55	25436.94
502.72	25905.05
502.90	25638.23
503.07	25645.25
503.25	25886.32
503.43	25879.30
503.60	26295.92
503.78	25914.41
503.95	26221.02
504.13	26333.37
504.30	26214.00
504.48	26214.00
504.65	26443.37
504.83	26834.24
505.01	26911.48
505.18	26836.58
505.36	27222.77
505.53	26960.63
505.71	26988.72
505.88	27150.21
506.06	27197.02
506.23	27229.79
506.41	27627.68
506.58	27428.74
506.76	27917.91
506.93	27754.07
507.11	28093.45
507.28	27866.42
507.46	28034.94
507.63	28039.62
507.81	28311.12
507.98	28016.21
508.16	28357.93
508.33	28439.85
508.50	28538.15
508.68	28638.80
508.85	28678.58
509.03	28573.26
509.20	28868.17
509.38	29202.86
509.55	29249.67
509.73	29142.01
509.90	29507.13
510.08	28982.85
510.25	29104.56
510.42	29266.06
510.60	29734.17
510.77	29408.83
510.95	29851.19
511.12	29495.43
511.30	29497.77
511.47	29432.24
511.64	29998.65
511.82	30139.08
511.99	29820.77
512.17	30043.12
512.34	30305.26
512.51	30424.62
512.69	30623.57
512.86	30499.52
513.04	30604.84
513.21	30721.87
513.38	30724.21
513.56	31409.99
513.73	30675.06
513.90	31206.36
514.08	31058.91
514.25	31311.69
514.43	31295.30
514.60	31005.08
514.77	31632.34
514.95	31845.33
515.12	31578.51
515.29	31351.48
515.47	31508.29
515.64	31470.84
515.81	31639.36
515.99	31754.05
516.16	31990.44
516.33	31889.80
516.51	32339.18
516.68	32271.31
516.85	32034.91
517.03	32393.01
517.20	32634.09
517.37	32430.46
517.54	32477.27
517.72	32360.25
517.89	32648.13
518.06	32580.26
518.24	32711.33
518.41	32540.47
518.58	32957.08
518.75	32659.84
518.93	33462.64
519.10	32790.91
519.27	33436.89
519.45	33287.10
519.62	33141.99
519.79	33385.40
519.96	33406.47
520.14	33586.69
520.31	33371.36
520.48	33862.87
520.65	33553.92
520.83	33947.13
521.00	34038.41
521.17	33441.57
521.34	34279.49
521.52	34576.73
521.69	34103.95
521.86	34611.84
522.03	34408.22
522.20	34820.15
522.38	34911.43
522.55	34597.80
522.72	34586.10
522.89	34279.49
523.07	35051.86
523.24	35014.41
523.41	35578.48
523.58	34799.08
523.75	35353.79
523.92	35161.87
524.10	35409.96
524.27	35428.69
524.44	35246.13
524.61	35260.17
524.78	35646.36
524.96	35637.00
525.13	36053.61
525.30	35667.42
525.47	36037.23
525.64	35835.94
525.81	36168.30
525.98	36306.39
526.16	36060.63
526.33	36126.17
526.50	36521.72
526.67	36383.63
526.84	36357.88
527.01	36577.89
527.18	36201.07
527.36	36385.97
527.53	36748.75
527.70	36999.19
527.87	36701.94
528.04	36704.28
528.21	36765.14
528.38	36964.08
528.55	37404.10
528.72	36645.77
528.89	36959.40
529.07	37237.92
529.24	36704.28
529.41	37123.24
529.58	37296.44
529.75	37244.94
529.92	37305.80
530.09	37357.29
530.26	37301.12
530.43	37773.91
530.60	37083.45
530.77	37418.14
530.94	37544.53
531.11	37359.63
531.28	37902.64
531.46	37902.64
531.63	37654.54
531.80	37984.55
531.97	37893.27
532.14	37935.40
532.31	37944.76
532.48	38155.41
532.65	38892.68
532.82	38057.11
532.99	38258.40
533.16	38494.79
533.33	38422.23
533.50	38873.96
533.67	38382.45
533.84	38274.78
534.01	38494.79
534.18	38649.27
534.35	38719.48
534.52	38976.94
534.69	38717.14
534.86	39346.75
535.03	39218.02
535.20	38693.74
535.37	39042.48
535.54	38993.32
535.71	39180.57
535.88	39428.66
536.05	39372.49
536.22	39398.24
536.38	39569.10
536.55	39756.34
536.72	39379.51
536.89	39093.97
537.06	39407.60
537.23	40067.63
537.40	39529.31
537.57	39613.57
537.74	39267.17
537.91	39997.41
538.08	39533.99
538.25	39454.41
538.42	40046.57
538.59	39941.24
538.75	40201.04
538.92	39782.09
539.09	40367.22
539.26	40217.43
539.43	39957.63
539.60	40409.35
539.77	40304.02
539.94	40512.33
540.11	40222.11
540.28	40357.86
540.44	40701.92
540.61	40189.34
540.78	40142.53
540.95	40388.28
541.12	40514.67
541.29	40830.65
541.46	40690.21
541.62	40697.24
541.79	40746.39
541.96	40708.94
542.13	40418.71
542.30	40722.98
542.47	40959.38
542.63	41064.70
542.80	41212.15
542.97	41193.43
543.14	41633.45
543.31	41193.43
543.48	41233.22
543.64	41771.54
543.81	41897.93
543.98	41706.01
544.15	41102.15
544.32	41516.42
544.48	42045.38
544.65	41706.01
544.82	42099.22
544.99	41254.28
545.16	42031.34
545.32	41823.03
545.49	42143.69
545.66	42349.65
545.83	42225.60
546.00	42007.94
546.16	42047.72
546.33	41853.46
546.50	41904.95
546.67	42579.03
546.83	41816.01
547.00	42146.03
547.17	42064.11
547.34	42396.46
547.50	42351.99
547.67	42815.42
547.84	42569.66
548.00	42827.12
548.17	42712.44
548.34	43058.84
548.51	42979.26
548.67	42705.41
548.84	42672.65
549.01	42644.56
549.18	42782.65
549.34	42850.53
549.51	43145.44
549.68	43461.41
549.84	43117.35
550.01	43515.24
550.18	42990.96
550.34	43646.31
550.51	43391.19
550.68	43264.80
550.84	42515.83
551.01	43241.40
551.18	42761.59
551.34	43594.82
551.51	43728.23
551.68	43758.66
551.84	43636.95
552.01	43487.15
552.18	43533.96
552.34	43709.50
552.51	43426.30
552.68	43714.19
552.84	43826.53
553.01	43892.07
553.18	43775.04
553.34	44219.74
553.51	43777.38
553.67	43786.74
553.84	43976.33
554.01	44013.77
554.17	43917.81
554.34	43756.32
554.51	43538.65
554.67	44151.87
554.84	44266.55
555.00	43952.92
555.17	44399.96
555.33	44229.10
555.50	44383.58
555.67	44367.20
555.83	44692.53
556.00	44233.78
556.16	44975.73
556.33	44697.21
556.50	44631.68
556.66	44692.53
556.83	44645.72
556.99	44669.12
557.16	45090.42
557.32	44582.52
557.49	44671.46
557.65	44570.82
557.82	44516.99
557.98	44875.09
558.15	44886.79
558.32	44741.68
558.48	44755.72
558.65	44978.07
558.81	44987.44
558.98	44814.24
559.14	44875.09
559.31	45099.78
559.47	44741.68
559.64	45474.27
559.80	45134.89
559.97	45043.61
560.13	45017.86
560.30	45193.40
560.46	45134.89
560.63	45263.62
560.79	45511.72
560.96	45509.38
561.12	45617.04
561.29	45441.50
561.45	45249.58
561.61	44891.48
561.78	44975.73
561.94	45186.38
562.11	45148.93
562.27	45375.97
562.44	45392.35
562.60	45425.12
562.77	45539.80
562.93	45268.30
563.10	45600.66
563.26	45806.62
563.42	46068.76
563.59	45570.23
563.75	45535.12
563.92	45588.95
564.08	45474.27
564.24	45918.97
564.41	45649.81
564.57	45881.52
564.74	45792.58
564.90	45607.68
565.07	45731.73
565.23	45544.48
565.39	45825.35
565.56	45867.48
565.72	45595.98
565.88	45710.66
566.05	45619.38
566.21	45811.31
566.38	45947.06
566.54	46560.28
566.70	46209.20
566.87	46253.67
567.03	45862.80
567.19	46260.69
567.36	46120.26
567.52	45965.78
567.68	46078.13
567.85	45991.53
568.01	46761.56
568.17	46171.75
568.34	45855.78
568.50	45722.37
568.66	45717.68
568.83	45764.49
568.99	45834.71
569.15	46366.01
569.32	45942.38
569.48	46248.99
569.64	46312.18
569.81	46260.69
569.97	46494.74
570.13	46499.42
570.30	46136.64
570.46	46216.22
570.62	46436.23
570.78	46431.55
570.95	46506.44
571.11	46583.68
571.27	46586.02
571.43	46143.66
571.60	46328.56
571.76	45881.52
571.92	46412.82
572.09	46213.88
572.25	46155.36
572.41	46307.50
572.57	46396.44
572.74	46717.09
572.90	46536.87
573.06	46501.76
573.22	46567.30
573.38	46445.59
573.55	46256.01
573.71	46733.48
573.87	46508.79
574.03	46433.89
574.20	46911.36
574.36	46438.57
574.52	46689.01
574.68	46506.44
574.84	46806.03
575.01	46787.31
575.17	46955.83
575.33	46265.37
575.49	46424.53
575.65	46728.80
575.82	46494.74
575.98	46555.60
576.14	46670.28
576.30	47054.13
576.46	46829.44
576.62	46763.90
576.79	46845.82
576.95	46546.23
577.11	46223.24
577.27	46789.65
577.43	46660.92
577.59	46642.20
577.75	46602.41
577.92	46225.58
578.08	46447.93
578.24	46810.71
578.40	46824.76
578.56	46918.38
578.72	46623.47
578.88	46710.07
579.04	46674.96
579.21	46574.32
579.37	46850.50
579.53	46958.17
579.69	46614.11
579.85	46843.48
580.01	46995.62
580.17	46653.90
580.33	46892.63
580.49	46986.25
580.65	46948.81
580.82	46784.97
580.98	46747.52
581.14	46780.29
581.30	46485.38
581.46	46625.81
581.62	46763.90
581.78	46679.64
581.94	47033.07
582.10	46759.22
582.26	47327.97
582.42	47482.45
582.58	47028.38
582.74	46843.48
582.90	47077.54
583.06	47023.70
583.22	47054.13
583.38	46958.17
583.54	47194.56
583.70	46775.61
583.86	47152.43
584.02	46492.40
584.18	47079.88
584.34	47093.92
584.50	47421.59
584.66	47023.70
584.82	46932.42
584.98	47552.66
585.14	47016.68
585.30	46897.31
585.46	46855.18
585.62	46972.21
585.78	47051.79
585.94	47012.00
586.10	47016.68
586.26	46480.70
586.42	46836.46
586.58	47236.69
586.74	46930.08
586.90	47023.70
587.06	47056.47
587.22	47030.72
587.38	46934.76
587.54	47339.68
587.70	47257.76
587.86	47344.36
588.02	47381.80
588.18	46955.83
588.34	47278.82
588.49	47016.68
588.65	46953.49
588.81	46806.03
588.97	47379.46
589.13	47103.28
589.29	47210.95
589.45	47292.86
589.61	47641.60
589.77	47372.44
589.93	47049.45
590.08	47503.51
590.24	47739.91
590.40	47880.34
590.56	47765.65
590.72	47980.98
590.88	47208.61
591.04	47482.45
591.20	47789.06
591.35	47267.12
591.51	47901.40
591.67	47622.88
591.83	47714.16
591.99	47288.18
592.15	47337.33
592.31	47316.27
592.46	47267.12
592.62	47538.62
592.78	47468.40
592.94	48144.82
593.10	47948.21
593.26	48123.75
593.41	47723.52
593.57	47814.80
593.73	47697.78
593.89	48140.14
594.05	47838.21
594.20	47360.74
594.36	48177.59
594.52	48098.01
594.68	47997.37
594.84	47538.62
594.99	48315.68
595.15	47690.76
595.31	47868.64
595.47	47196.90
595.62	47945.87
595.78	47751.61
595.94	47625.22
596.10	47426.28
596.25	47842.89
596.41	47557.35
596.57	47800.76
596.73	48205.67
596.88	48048.86
597.04	48215.04
597.20	47433.30
597.36	48055.88
597.51	47657.99
597.67	47587.77
597.83	47763.31
597.99	47908.43
598.14	47641.60
598.30	47592.45
598.46	48119.07
598.61	48123.75
598.77	47936.51
598.93	47672.03
599.09	47749.27
599.24	47838.21
599.40	47985.66
599.56	47779.70
599.71	48360.15
599.87	48245.46
600.03	48046.52
600.18	48222.06
600.34	48116.73
600.50	47618.20
600.65	47992.68
600.81	48381.21
600.97	47765.65
601.12	48474.84
601.28	48318.02
601.44	48023.11
601.59	47910.77
601.75	47660.33
601.91	48205.67
602.06	47672.03
602.22	48069.92
602.37	48048.86
602.53	47821.83
602.69	48217.38
602.84	48140.14
603.00	48025.45
603.16	47973.96
603.31	47585.43
603.47	48413.98
603.62	47767.99
603.78	48364.83
603.94	47978.64
604.09	47985.66
604.25	47711.82
604.40	47688.42
604.56	47983.32
604.71	47969.28
604.87	47749.27
605.03	47896.72
605.18	48142.48
605.34	48046.52
605.49	47562.03
605.65	48098.01
605.80	47906.08
605.96	47452.02
606.12	48006.73
606.27	48208.01
606.43	47985.66
606.58	47833.53
606.74	47721.18
606.89	47924.81
607.05	47983.32
607.20	47995.03
607.36	47892.04
607.51	47428.62
607.67	47899.06
607.82	47878.00
607.98	47695.44
608.13	47629.90
608.29	47714.16
608.44	47908.43
608.60	47824.17
608.75	48088.65
608.91	47463.72
609.06	47613.52
609.22	47821.83
609.37	47676.71
609.53	48105.03
609.68	47714.16
609.84	47550.32
609.99	47789.06
610.15	47524.58
610.30	47828.85
610.46	47615.86
610.61	47735.23
610.76	47819.49
610.92	47473.09
611.07	47194.56
611.23	47800.76
611.38	47306.91
611.54	47650.97
611.69	47690.76
611.84	47515.22
612.00	47489.47
612.15	47257.76
612.31	47833.53
612.46	47267.12
612.62	47379.46
612.77	47140.73
612.92	47360.74
613.08	47290.52
613.23	47742.25
613.39	47299.89
613.54	47547.98
613.69	47445.00
613.85	47449.68
614.00	47262.44
614.15	47552.66
614.31	47157.11
614.46	47267.12
614.62	47065.83
614.77	47058.81
614.92	47442.66
615.08	47430.96
615.23	47203.92
615.38	47491.81
615.54	47384.15
615.69	47650.97
615.84	47145.41
616.00	47260.10
616.15	47164.14
616.30	47110.30
616.46	47196.90
616.61	47224.99
616.76	47232.01
616.92	47381.80
617.07	47093.92
617.22	46990.94
617.37	46672.62
617.53	46553.26
617.68	46848.16
617.83	46979.23
617.99	46740.50
618.14	46902.00
618.29	46649.22
618.45	46632.83
618.60	46621.13
618.75	46316.86
618.90	46305.16
619.06	46876.25
619.21	46995.62
619.36	47030.72
619.51	46564.96
619.67	46380.06
619.82	46534.53
619.97	46681.98
620.12	46419.84
620.28	46759.22
620.43	46733.48
620.58	46527.51
620.73	46485.38
620.89	46894.97
621.04	46459.63
621.19	46579.00
621.34	46546.23
621.49	45956.42
621.65	46553.26
621.80	46710.07
621.95	46436.23
622.10	46326.22
622.25	46384.74
622.41	46316.86
622.56	46277.07
622.71	46017.27
622.86	46354.31
623.01	46469.00
623.16	46036.00
623.32	46433.89
623.47	46543.89
623.62	46330.90
623.77	46050.04
623.92	46026.63
624.07	46134.30
624.23	46377.72
624.38	46443.25
624.53	45865.14
624.68	46284.09
624.83	45649.81
624.98	46108.55
625.13	45586.61
625.29	45965.78
625.44	45801.94
625.59	45736.41
625.74	45911.95
625.89	45633.42
626.04	45251.92
626.19	45780.88
626.34	45839.39
626.49	45284.68
626.65	45329.16
626.80	45537.46
626.95	45427.46
627.10	45289.37
627.25	45771.52
627.40	45495.33
627.55	45677.90
627.70	45764.49
627.85	45551.51
628.00	45738.75
628.15	45724.71
628.30	44907.86
628.45	44804.88
628.60	45347.88
628.76	45088.08
628.91	45158.30
629.06	44790.83
629.21	45092.76
629.36	44781.47
629.51	44903.18
629.66	45844.07
629.81	45085.74
629.96	45017.86
630.11	45408.73
630.26	44872.75
630.41	45390.01
630.56	45083.40
630.71	44769.77
630.86	44973.39
631.01	44900.84
631.16	44954.67
631.31	44624.65
631.46	45198.09
631.61	45202.77
631.76	44942.97
631.91	45024.89
632.06	45373.63
632.21	44816.58
632.36	45282.34
632.51	44907.86
632.66	44446.77
632.81	44516.99
632.96	44910.20
633.10	44495.92
633.25	44760.40
633.40	44989.78
633.55	44861.05
633.70	44528.69
633.85	44856.37
634.00	44065.27
634.15	43566.73
634.30	44397.62
634.45	44524.01
634.60	44451.45
634.75	44634.02
634.90	44343.79
635.05	44320.38
635.19	44301.66
635.34	44722.96
635.49	44289.96
635.64	44484.22
635.79	44222.08
635.94	44151.87
636.09	44285.28
636.24	44343.79
636.39	44325.07
636.53	44280.60
636.68	44027.82
636.83	43882.70
636.98	43894.41
637.13	43414.60
637.28	43512.90
637.43	43782.06
637.57	44165.91
637.72	43959.94
637.87	43613.54
638.02	43576.09
638.17	43665.03
638.32	43807.81
638.46	43562.05
638.61	43702.48
638.76	43512.90
638.91	43908.45
639.06	43660.35
639.20	43042.45
639.35	43400.55
639.50	43276.51
639.65	43517.58
639.80	43770.36
639.94	43555.03
640.09	43828.87
640.24	43531.62
640.39	43168.84
640.54	42841.17
640.68	43826.53
640.83	43629.93
640.98	43271.82
641.13	43419.28
641.27	43564.39
641.42	43304.59
641.57	43299.91
641.72	43292.89
641.86	42777.97
642.01	43002.66
642.16	43180.54
642.31	42513.49
642.45	43122.03
642.60	42490.09
642.75	43075.22
642.90	42979.26
643.04	43201.61
643.19	42696.05
643.34	42682.01
643.48	42246.67
643.63	42466.68
643.78	42937.13
643.93	43540.99
644.07	43077.56
644.22	42834.14
644.37	42714.78
644.51	43269.48
644.66	42731.16
644.81	42635.20
644.95	42555.62
645.10	43072.88
645.25	42564.98
645.39	42656.26
645.54	42550.94
645.69	42644.56
645.83	42085.17
645.98	42204.54
646.13	42876.27
646.27	42043.04
646.42	41830.05
646.57	42747.54
646.71	42696.05
646.86	42525.19
647.00	42422.21
647.15	42595.41
647.30	42740.52
647.44	42618.81
647.59	41631.11
647.74	41853.46
647.88	42476.04
648.03	42188.16
648.17	42209.22
648.32	42143.69
648.47	42525.19
648.61	41928.36
648.76	42073.47
648.90	41923.68
649.05	41832.39
649.20	41982.19
649.34	42213.90
649.49	42520.51
649.63	42246.67
649.78	41951.76
649.92	41958.78
650.07	42689.03
650.21	42356.67
650.36	42305.18
650.51	41848.78
650.65	42073.47
650.80	41986.87
650.94	41954.10
651.09	42206.88
651.23	41474.29
651.38	41251.94
651.52	41343.22
651.67	41493.02
651.81	41656.85
651.96	41820.69
652.10	40823.62
652.25	41329.18
652.39	41476.63
652.54	41598.34
652.68	41198.11
652.83	41621.75
652.97	41347.90
653.12	41275.35
653.26	41148.96
653.41	41722.39
653.55	41652.17
653.70	41682.60
653.84	41865.16
653.99	41790.27
654.13	41427.48
654.27	40992.14
654.42	41155.98
654.56	41223.86
654.71	41038.95
654.85	41490.68
655.00	41273.01
655.14	41235.56
655.29	41588.98
655.43	41361.95
655.57	40900.86
655.72	40973.42
655.86	40952.35
656.01	40584.89
656.15	40587.23
656.30	40854.05
656.44	40772.13
656.58	40938.31
656.73	40346.15
656.87	40259.55
657.01	40474.88
657.16	40591.91
657.30	40615.32
657.45	40989.80
657.59	40547.44
657.73	40098.06
657.88	40671.49
658.02	40467.86
658.16	40671.49
658.31	40584.89
658.45	40011.46
658.60	40198.70
658.74	40924.27
658.88	40156.57
659.03	40404.67
659.17	40219.77
659.31	39676.76
659.46	39477.82
659.60	40381.26
659.74	39541.01
659.89	39423.98
660.03	39615.91
660.17	39864.00
660.32	39681.44
660.46	39728.25
660.60	39550.37
660.74	39358.45
660.89	39409.94
661.03	39571.44
661.17	39407.60
661.32	39119.71
661.46	39115.03
661.60	39494.20
661.74	39325.68
661.89	38859.91
662.03	39330.36
662.17	38714.80
662.31	38845.87
662.46	39262.49
662.60	39096.31
662.74	38969.92
662.88	38672.67
663.03	38644.59
663.17	38478.41
663.31	38511.17
663.45	38932.47
663.60	38993.32
663.74	38700.76
663.88	38342.66
664.02	38539.26
664.17	38281.80
664.31	38066.47
664.45	38066.47
664.59	38199.88
664.73	38314.57
664.88	38127.33
665.02	38075.84
665.16	38094.56
665.30	37750.50
665.44	38162.43
665.59	37804.33
665.73	37764.54
665.87	37350.27
666.01	37888.59
666.15	37867.53
666.29	37343.25
666.44	37591.34
666.58	37556.24
666.72	37446.23
666.86	37600.71
667.00	37427.51
667.14	37132.60
667.28	36999.19
667.43	36875.14
667.57	37359.63
667.71	37345.59
667.85	37146.64
667.99	37029.62
668.13	36783.86
668.27	36727.69
668.41	36556.83
668.56	36802.58
668.70	36201.07
668.84	36367.24
668.98	36741.73
669.12	36783.86
669.26	36268.94
669.40	36430.44
669.54	36315.75
669.68	36556.83
669.82	36210.43
669.96	35957.65
670.10	36388.31
670.25	35873.39
670.39	35981.06
670.53	36474.91
670.67	36107.44
670.81	35857.01
670.95	35747.00
671.09	35271.87
671.23	35555.08
671.37	35744.66
671.51	35697.85
671.65	35351.45
671.79	35498.91
671.93	35260.17
672.07	35700.19
672.21	35381.88
672.35	34569.71
672.49	35342.09
672.63	35344.43
672.77	34925.47
672.91	35285.92
673.05	34913.77
673.19	34370.77
673.33	34249.06
673.47	34469.07
673.61	33977.56
673.75	34239.70
673.89	33977.56
674.03	33919.04
674.17	33743.50
674.31	33654.56
674.45	33607.75
674.59	33699.03
674.73	34176.50
674.87	33518.81
675.01	33373.70
675.15	33413.49
675.29	33411.15
675.43	33312.84
675.56	33013.26
675.70	33380.72
675.84	33195.82
675.98	32004.49
676.12	32905.59
676.26	32641.11
676.40	32617.71
676.54	32177.68
676.68	32437.48
676.82	32074.70
676.96	32531.11
677.10	32353.23
677.23	32034.91
677.37	32524.08
677.51	31693.19
677.65	32119.17
677.79	31786.82
677.93	31859.37
678.07	31435.74
678.21	31363.18
678.34	30845.92
678.48	31042.53
678.62	31541.06
678.76	31124.44
678.90	31222.75
679.04	30536.97
679.18	31021.46
679.31	30794.43
679.45	30457.39
679.59	30441.01
679.73	30438.67
679.87	30202.27
680.00	30232.70
680.14	30092.27
680.28	30000.99
680.42	30279.51
680.56	30080.56
680.70	29708.42
680.83	29474.37
680.97	29544.58
681.11	29570.33
681.25	29406.49
681.39	28947.75
681.52	29355.00
681.66	28783.91
681.80	28460.91
681.94	28432.83
682.07	28491.34
682.21	28561.56
682.35	28680.92
682.49	28517.09
682.62	28308.78
682.76	28519.43
682.90	28264.31
683.04	28048.98
683.17	28058.34
683.31	27777.48
683.45	27906.21
683.59	27866.42
683.72	27253.20
683.86	27138.51
684.00	27494.27
684.13	27541.08
684.27	27009.78
684.41	27356.18
684.55	27166.60
684.68	27119.79
684.82	26862.33
684.96	27171.28
685.09	26925.52
685.23	26874.03
685.37	26916.16
685.50	26810.84
685.64	26867.01
685.78	26551.04
685.91	26080.59
686.05	25865.26
686.19	25415.88
686.32	26181.23
686.46	25315.23
686.60	25181.82
686.73	25937.82
686.87	25163.10
687.01	25125.65
687.14	25551.63
687.28	25294.17
687.42	25322.26
687.55	24809.68
687.69	25123.31
687.82	24573.28
687.96	24556.90
688.10	24870.53
688.23	24538.18
688.37	24938.41
688.50	24467.96
688.64	24348.59
688.78	24283.06
688.91	24381.36
689.05	24601.37
689.18	23669.84
689.32	23714.31
689.46	23538.77
689.59	24018.58
689.73	23571.54
689.86	24013.90
690.00	23655.79
690.13	23620.69
690.27	23473.23
690.41	23152.58
690.54	23222.80
690.68	22834.27
690.81	22771.07
690.95	22733.62
691.08	22530.00
691.22	22265.52
691.35	22267.86
691.49	22806.18
691.62	22157.85
691.76	21991.67
691.89	22192.96
692.03	21876.99
692.16	21528.25
692.30	21385.47
692.43	21589.10
692.57	21525.91
692.70	21151.42
692.84	21373.77
692.97	21142.06
693.11	21104.61
693.24	20711.40
693.38	20912.69
693.51	20842.47
693.65	21130.36
693.78	20727.78
693.92	20493.73
694.05	20467.98
694.19	20402.45
694.32	20460.96
694.45	20432.88
694.59	20524.16
694.72	20383.73
694.86	20060.73
694.99	19964.77
695.13	19702.63
695.26	19910.94
695.39	19543.47
695.53	19779.87
695.66	19829.02
695.80	19515.39
695.93	19314.10
696.07	19201.76
696.20	18932.59
696.33	18883.44
696.47	18899.83
696.60	18817.91
696.73	18801.52
696.87	18906.85
697.00	18595.56
697.14	18600.24
697.27	18696.20
697.40	18487.89
697.54	18277.24
697.67	18171.92
697.80	18001.06
697.94	18345.12
698.07	18022.12
698.21	17916.80
698.34	17895.74
698.47	17956.59
698.61	17738.92
698.74	17315.28
698.87	17605.51
699.01	17184.21
699.14	17369.12
699.27	16952.50
699.40	17441.67
699.54	16931.44
699.67	17106.98
699.80	17212.30
699.94	16840.15
700.07	16863.56
700.20	16592.06
700.34	16578.01
700.47	16360.34
700.60	16725.47
700.73	16755.90
700.87	16177.78
701.00	16217.57
701.13	16006.92
701.26	16140.33
701.40	16147.36
701.53	16142.67
701.66	15859.47
701.79	15967.13
701.93	15555.20
702.06	15508.39
702.19	15468.60
702.32	15695.63
702.46	15606.69
702.59	15861.81
702.72	15396.04
702.85	15309.44
702.99	15372.64
703.12	15173.69
703.25	14867.08
703.38	14839.00
703.51	14864.74
703.65	14843.68
703.78	14312.38
703.91	14520.68
704.04	14251.52
704.17	14429.40
704.31	14415.36
704.44	14293.65
704.57	14422.38
704.70	13944.91
704.83	13977.68
704.96	14216.41
705.10	13785.76
705.23	13900.44
>>>>>End Processed Spectral Data<<<<<
