SpectraSuite Data File
++++++++++++++++++++++++++++++++++++
Date: Fri Oct 25 10:43:52 EDT 2013
User: price-jones
Dark Spectrum Present: No
Reference Spectrum Present: No
Number of Sampled Component Spectra: 1
Spectrometers: USB2+H05261
Integration Time (usec): 100000 (USB2+H05261)
Spectra Averaged: 1 (USB2+H05261)
Boxcar Smoothing: 0 (USB2+H05261)
Correct for Electrical Dark: No (USB2+H05261)
Strobe/Lamp Enabled: No (USB2+H05261)
Correct for Detector Non-linearity: No (USB2+H05261)
Correct for Stray Light: No (USB2+H05261)
Number of Pixels in Processed Spectrum: 2048
>>>>>Begin Processed Spectral Data<<<<<
365.73	81.92
365.92	81.92
366.12	81.92
366.32	0.00
366.52	16.38
366.72	95.96
366.91	7.02
367.11	30.43
367.31	39.79
367.51	0.00
367.70	0.00
367.90	0.00
368.10	4.68
368.30	0.00
368.49	23.41
368.69	23.41
368.89	60.85
369.09	9.36
369.28	37.45
369.48	32.77
369.68	16.38
369.87	77.24
370.07	98.30
370.27	4.68
370.47	166.18
370.66	348.74
370.86	407.25
371.06	421.30
371.25	447.04
371.45	397.89
371.65	468.11
371.84	468.11
372.04	421.30
372.24	435.34
372.44	493.85
372.63	545.34
372.83	482.15
373.03	465.77
373.22	421.30
373.42	582.79
373.62	500.87
373.81	486.83
374.01	585.13
374.21	526.62
374.40	599.18
374.60	578.11
374.79	543.00
374.99	631.94
375.19	624.92
375.38	617.90
375.58	615.56
375.78	589.82
375.97	568.75
376.17	638.97
376.37	676.41
376.56	660.03
376.76	685.78
376.95	681.10
377.15	683.44
377.35	610.88
377.54	610.88
377.74	561.73
377.93	664.71
378.13	669.39
378.33	674.07
378.52	713.86
378.72	706.84
378.91	645.99
379.11	648.33
379.31	592.16
379.50	622.58
379.70	634.29
379.89	713.86
380.09	617.90
380.28	746.63
380.48	695.14
380.68	669.39
380.87	746.63
381.07	758.33
381.26	681.10
381.46	739.61
381.65	664.71
381.85	741.95
382.04	748.97
382.24	603.86
382.43	716.20
382.63	697.48
382.83	653.01
383.02	798.12
383.22	755.99
383.41	702.16
383.61	690.46
383.80	760.67
384.00	713.86
384.19	798.12
384.39	807.48
384.58	786.42
384.78	828.55
384.97	868.34
385.17	805.14
385.36	901.11
385.56	770.04
385.75	805.14
385.95	861.32
386.14	823.87
386.34	866.00
386.53	912.81
386.72	849.61
386.92	922.17
387.11	858.98
387.31	898.77
387.50	880.04
387.70	856.64
387.89	814.51
388.09	819.19
388.28	917.49
388.48	847.27
388.67	875.36
388.86	966.64
389.06	976.00
389.25	1095.37
389.45	933.87
389.64	870.68
389.84	992.39
390.03	964.30
390.22	938.55
390.42	1050.90
390.61	999.41
390.81	1013.45
391.00	1144.52
391.19	1090.69
391.39	1034.52
391.58	1004.09
391.78	992.39
391.97	1095.37
392.16	978.34
392.36	1015.79
392.55	1025.15
392.75	1102.39
392.94	1034.52
393.13	1057.92
393.33	994.73
393.52	1064.94
393.71	1071.97
393.91	1160.91
394.10	1135.16
394.29	1050.90
394.49	1198.35
394.68	1142.18
394.88	1242.82
395.07	1240.48
395.26	1289.64
395.46	1174.95
395.65	1315.38
395.84	1261.55
396.04	1235.80
396.23	1245.16
396.42	1163.25
396.62	1198.35
396.81	1151.54
397.00	1146.86
397.19	1369.21
397.39	1423.05
397.58	1455.81
397.77	1441.77
397.97	1493.26
398.16	1479.22
398.35	1551.78
398.55	1514.33
398.74	1579.86
398.93	1582.20
399.12	1558.80
399.32	1497.94
399.51	1568.16
399.70	1678.16
399.90	1474.54
400.09	1647.74
400.28	1607.95
400.47	1614.97
400.67	1631.35
400.86	1650.08
401.05	1694.55
401.24	1739.02
401.44	1788.17
401.63	1720.29
401.82	1774.13
402.01	1755.40
402.21	1746.04
402.40	1741.36
402.59	1736.68
402.78	1767.10
402.97	1867.75
403.17	1795.19
403.36	1813.92
403.55	1886.47
403.74	1886.47
403.93	1942.64
404.13	1959.03
404.32	1830.30
404.51	2010.52
404.70	1994.14
404.89	1994.14
405.09	1973.07
405.28	1968.39
405.47	2064.35
405.66	2019.88
405.85	1916.90
406.05	1891.15
406.24	2050.31
406.43	2040.95
406.62	2122.87
406.81	2195.42
407.00	2078.40
407.20	2080.74
407.39	2031.58
407.58	2193.08
407.77	2146.27
407.96	2286.70
408.15	2242.23
408.34	2186.06
408.54	2328.83
408.73	2317.13
408.92	2352.24
409.11	2183.72
409.30	2396.71
409.49	2265.64
409.68	2326.49
409.87	2270.32
410.07	2410.75
410.26	2380.32
410.45	2399.05
410.64	2464.58
410.83	2499.69
411.02	2579.27
411.21	2595.65
411.40	2602.68
411.59	2635.44
411.78	2679.91
411.98	2761.83
412.17	2733.75
412.36	2696.30
412.55	2855.45
412.74	2724.38
412.93	2785.24
413.12	2712.68
413.31	3007.59
413.50	2846.09
413.69	3019.29
413.88	2946.73
414.07	2911.63
414.26	2988.86
414.45	3016.95
414.64	3084.83
414.83	3094.19
415.02	3164.40
415.22	3059.08
415.41	3150.36
415.60	3229.94
415.79	3272.07
415.98	3332.92
416.17	3293.13
416.36	3297.81
416.55	3251.00
416.74	3370.37
416.93	3389.10
417.12	3356.33
417.31	3403.14
417.50	3442.93
417.69	3618.47
417.88	3403.14
418.07	3545.91
418.26	3599.74
418.45	3524.85
418.64	3660.60
418.83	3559.95
419.02	3602.08
419.21	3574.00
419.39	3602.08
419.58	3522.51
419.77	3552.93
419.96	3775.28
420.15	3709.75
420.34	3648.90
420.53	3843.16
420.72	3932.10
420.91	3873.59
421.10	3784.65
421.29	3983.59
421.48	3892.31
421.67	3990.61
421.86	3864.22
422.05	3850.18
422.24	3789.33
422.43	3866.56
422.61	3955.51
422.80	4002.32
422.99	4025.72
423.18	3918.06
423.37	4133.39
423.56	4016.36
423.75	4095.94
423.94	3887.63
424.13	3726.13
424.32	3761.24
424.50	3974.23
424.69	4138.07
424.88	4018.70
425.07	3936.78
425.26	3927.42
425.45	3978.91
425.64	3922.74
425.83	4088.92
426.01	4091.26
426.20	4109.98
426.39	4212.96
426.58	4145.09
426.77	3939.12
426.96	4025.72
427.15	4131.05
427.33	4194.24
427.52	4163.81
427.71	4128.70
427.90	4074.87
428.09	4285.52
428.28	4365.10
428.46	4271.48
428.65	4248.07
428.84	4418.93
429.03	4252.75
429.22	4105.30
429.40	4100.62
429.59	4238.71
429.78	3948.48
429.97	3969.55
430.16	4133.39
430.34	4126.36
430.53	4231.69
430.72	4189.56
430.91	4257.43
431.10	4315.95
431.28	4664.69
431.47	4671.71
431.66	4678.73
431.85	4678.73
432.03	4727.88
432.22	4688.09
432.41	4709.16
432.60	4744.27
432.79	4697.46
432.97	4863.63
433.16	4821.50
433.35	4685.75
433.54	4889.38
433.72	4678.73
433.91	4660.01
434.10	4854.27
434.28	4844.91
434.47	5067.26
434.66	4917.47
434.85	5081.30
435.03	4980.66
435.22	4978.32
435.41	5100.03
435.59	5252.16
435.78	5165.56
435.97	5193.65
436.16	5247.48
436.34	5107.05
436.53	5233.44
436.72	5331.74
436.90	5331.74
437.09	5313.02
437.28	5233.44
437.46	5167.90
437.65	5320.04
437.84	5036.83
438.02	5231.10
438.21	5240.46
438.40	5303.65
438.58	5366.85
438.77	5392.59
438.96	5563.45
439.14	5671.12
439.33	5753.04
439.52	5694.52
439.70	5799.85
439.89	5736.65
440.08	5830.27
440.26	5996.45
440.45	5724.95
440.63	5834.96
440.82	6111.14
441.01	6043.26
441.19	5935.60
441.38	6094.76
441.57	6038.58
441.75	6218.80
441.94	6424.77
442.12	6389.66
442.31	6530.09
442.50	6429.45
442.68	6473.92
442.87	6464.56
443.05	6497.33
443.24	6780.53
443.43	6509.03
443.61	6574.56
443.80	6817.98
443.98	6511.37
444.17	6387.32
444.35	6607.33
444.54	6775.85
444.73	6607.33
444.91	6593.29
445.10	6583.93
445.28	6686.91
445.47	6506.69
445.65	6590.95
445.84	6558.18
446.02	6726.70
446.21	6717.34
446.39	6644.78
446.58	6780.53
446.77	6832.02
446.95	6530.09
447.14	6789.89
447.32	6895.22
447.51	6867.13
447.69	6841.39
447.88	6799.26
448.06	6860.11
448.25	6869.47
448.43	6827.34
448.62	6876.49
448.80	6867.13
448.99	6974.80
449.17	7150.34
449.36	7019.27
449.54	7094.16
449.73	7000.54
449.91	7192.47
450.10	7417.16
450.28	7356.30
450.46	7321.20
450.65	7377.37
450.83	7253.32
451.02	7190.13
451.20	7290.77
451.39	7339.92
451.57	7250.98
451.76	7314.17
451.94	7236.94
452.13	7438.22
452.31	7391.41
452.49	7131.61
452.68	7201.83
452.86	7279.07
453.05	7316.51
453.23	7375.03
453.42	7419.50
453.60	7531.84
453.78	7588.02
453.97	7478.01
454.15	7485.03
454.34	7555.25
454.52	7592.70
454.70	7658.23
454.89	7606.74
455.07	7744.83
455.26	7662.91
455.44	7826.75
455.62	7751.85
455.81	7922.71
455.99	7756.54
456.17	8032.72
456.36	8145.06
456.54	7948.46
456.73	8215.28
456.91	8372.10
457.09	8402.52
457.28	8461.04
457.46	8084.21
457.64	8334.65
457.83	8182.51
458.01	8133.36
458.19	8327.63
458.38	8241.03
458.56	8287.84
458.74	8348.69
458.93	8320.60
459.11	8322.94
459.29	8500.83
459.48	8416.57
459.66	8482.10
459.84	8463.38
460.03	8636.58
460.21	8652.96
460.39	8744.24
460.57	8709.13
460.76	8793.39
460.94	8898.72
461.12	8737.22
461.31	8772.33
461.49	8636.58
461.67	8669.34
461.85	9018.08
462.04	8975.95
462.22	9064.89
462.40	9078.94
462.59	8987.66
462.77	8807.44
462.95	9104.68
463.13	9060.21
463.32	9205.33
463.50	9296.61
463.68	9186.60
463.86	9109.36
464.05	9144.47
464.23	9118.73
464.41	8943.19
464.59	9057.87
464.78	9427.68
464.96	9174.90
465.14	9137.45
465.32	9219.37
465.50	9572.79
465.69	9362.14
465.87	9441.72
466.05	9439.38
466.23	9516.62
466.41	9205.33
466.60	9394.91
466.78	9144.47
466.96	9275.54
467.14	9369.16
467.32	9497.89
467.51	9479.17
467.69	9163.20
467.87	9715.56
468.05	9668.75
468.23	9561.09
468.41	9596.20
468.60	9617.26
468.78	9748.33
468.96	9603.22
469.14	9961.32
469.32	9764.72
469.50	9533.00
469.69	10005.79
469.87	10164.95
470.05	10031.54
470.23	9781.10
470.41	9991.75
470.59	10047.92
470.77	9823.23
470.95	10087.71
471.14	10382.62
471.32	10017.49
471.50	10366.23
471.68	10513.69
471.86	10525.39
472.04	10810.93
472.22	10794.55
472.40	10462.19
472.58	10399.00
472.77	10656.46
472.95	10628.37
473.13	10860.09
473.31	10750.08
473.49	10787.53
473.67	10712.63
473.85	10736.04
474.03	11211.17
474.21	11367.98
474.39	11077.76
474.57	11398.41
474.75	11330.53
474.93	11281.38
475.12	11499.05
475.30	11384.37
475.48	11515.44
475.66	11417.13
475.84	11466.28
476.02	11634.80
476.20	11527.14
476.38	11674.59
476.56	12203.55
476.74	12156.74
476.92	11995.25
477.10	12166.10
477.28	12154.40
477.46	12477.40
477.64	12372.07
477.82	12566.34
478.00	12854.22
478.18	12475.06
478.36	12659.96
478.54	12996.99
478.72	12812.09
478.90	13083.59
479.08	13476.80
479.26	13298.92
479.44	13310.63
479.62	13542.34
479.80	13476.80
479.98	13659.37
480.16	13724.90
480.34	13664.05
480.52	14033.85
480.70	13846.61
480.88	13940.23
481.06	13989.38
481.24	14036.19
481.41	14373.23
481.59	14616.65
481.77	14672.82
481.95	14483.24
482.13	14839.00
482.31	14682.18
482.49	15382.00
482.67	15159.65
482.85	15152.63
483.03	15379.66
483.21	15733.08
483.39	15499.03
483.57	15644.14
483.74	15854.79
483.92	16027.99
484.10	15683.93
484.28	16100.55
484.46	16465.67
484.64	16697.38
484.82	16301.83
485.00	16549.93
485.18	16362.69
485.35	16500.78
485.53	16348.64
485.71	16362.69
485.89	16812.07
486.07	16659.93
486.25	17081.23
486.43	17020.38
486.61	17355.07
486.78	17181.87
486.96	17448.69
487.14	17788.07
487.32	17982.34
487.50	18253.84
487.68	18508.96
487.85	18714.92
488.03	18728.97
488.21	19040.26
488.39	18902.17
488.57	18892.80
488.75	19253.25
488.92	19227.50
489.10	19529.43
489.28	19576.24
489.46	19936.68
489.64	19969.45
489.81	21085.89
489.99	20458.62
490.17	20491.39
490.35	20814.38
490.53	20652.89
490.70	20688.00
490.88	20601.40
491.06	21270.79
491.24	21322.28
491.41	20800.34
491.59	21219.30
491.77	21261.43
491.95	21254.40
492.13	21624.21
492.30	21846.56
492.48	22089.98
492.66	22146.15
492.84	22457.44
493.01	22731.28
493.19	22312.33
493.37	22796.82
493.54	22855.33
493.72	22965.34
493.90	23009.81
494.08	23208.75
494.25	23438.12
494.43	23714.31
494.61	23744.73
494.79	23700.26
494.96	23718.99
495.14	23697.92
495.32	24086.45
495.49	23948.36
495.67	24421.15
495.85	24699.67
496.02	24613.07
496.20	24545.20
496.38	24587.33
496.55	25261.40
496.73	25259.06
496.91	25308.21
497.09	25518.86
497.26	25333.96
497.44	25184.16
497.62	25408.86
497.79	25984.63
497.97	25497.80
498.14	25846.54
498.32	25956.54
498.50	26036.12
498.67	26359.11
498.85	26352.09
499.03	26618.91
499.20	26532.31
499.38	26560.40
499.56	26937.23
499.73	27215.75
499.91	26944.25
500.08	27248.52
500.26	27147.87
500.44	26941.91
500.61	27070.64
500.79	26471.46
500.97	27344.48
501.14	27257.88
501.32	27126.81
501.49	27349.16
501.67	27489.59
501.84	27779.82
502.02	27711.94
502.20	28329.84
502.37	28074.73
502.55	28039.62
502.72	28070.04
502.90	28704.33
503.07	28353.25
503.25	28760.50
503.43	28556.88
503.60	28259.63
503.78	28268.99
503.95	28463.25
504.13	28896.25
504.30	29092.86
504.48	29146.69
504.65	29670.97
504.83	29565.65
505.01	29603.10
505.18	29628.84
505.36	29434.58
505.53	30075.88
505.71	29975.24
505.88	29766.93
506.06	29883.96
506.23	30185.89
506.41	29771.61
506.58	29834.81
506.76	30398.88
506.93	30555.69
507.11	30197.59
507.28	30457.39
507.46	30202.27
507.63	30553.35
507.81	30845.92
507.98	30782.73
508.16	30902.09
508.33	30834.22
508.50	31108.06
508.68	31302.32
508.85	31693.19
509.03	31419.35
509.20	31470.84
509.38	31211.04
509.55	31789.16
509.73	31440.42
509.90	32020.87
510.08	31700.22
510.25	31648.72
510.42	31798.52
510.60	32376.63
510.77	32177.68
510.95	32598.98
511.12	32400.04
511.30	32517.06
511.47	32477.27
511.64	32978.15
511.82	33109.22
511.99	32638.77
512.17	32795.59
512.34	32598.98
512.51	32985.17
512.69	33118.58
512.86	33031.98
513.04	32947.72
513.21	33617.11
513.38	33495.41
513.56	33757.55
513.73	33251.99
513.90	33530.51
514.08	33369.02
514.25	33270.72
514.43	33617.11
514.60	33895.64
514.77	33436.89
514.95	34092.24
515.12	33865.21
515.29	34230.33
515.47	34356.72
515.64	34436.30
515.81	33858.19
515.99	34239.70
516.16	34103.95
516.33	34316.93
516.51	34382.47
516.68	33834.78
516.85	33549.24
517.03	33876.91
517.20	34389.49
517.37	34354.38
517.54	34974.63
517.72	34953.56
517.89	34562.69
518.06	34267.78
518.24	34417.58
518.41	34660.99
518.58	34969.94
518.75	35040.16
518.93	34885.68
519.10	35028.46
519.27	35576.14
519.45	35718.92
519.62	35496.56
519.79	35835.94
519.96	35903.82
520.14	36027.87
520.31	35662.74
520.48	36409.37
520.65	35880.41
520.83	36158.94
521.00	36467.89
521.17	36751.09
521.34	36556.83
521.52	36280.64
521.69	36531.08
521.86	36610.66
522.03	36952.38
522.20	36514.70
522.38	36400.01
522.55	36903.23
522.72	36893.86
522.89	36339.16
523.07	36999.19
523.24	36907.91
523.41	37333.89
523.58	37179.41
523.75	37668.58
523.92	37500.06
524.10	37633.47
524.27	37422.83
524.44	37546.87
524.61	37670.92
524.78	38274.78
524.96	38132.01
525.13	38134.35
525.30	38171.80
525.47	38108.60
525.64	38337.98
525.81	38148.39
525.98	37787.95
526.16	37792.63
526.33	37745.82
526.50	37933.06
526.67	37949.45
526.84	37780.93
527.01	37598.37
527.18	38232.65
527.36	38368.40
527.53	38696.08
527.70	38852.89
527.87	38478.41
528.04	38609.48
528.21	38738.21
528.38	39100.99
528.55	39220.36
528.72	39501.22
528.89	39587.82
529.07	39250.78
529.24	38780.34
529.41	39274.19
529.58	39332.70
529.75	39012.05
529.92	39393.56
530.09	39690.80
530.26	39482.50
530.43	39807.83
530.60	39297.59
530.77	40222.11
530.94	40226.79
531.11	39658.04
531.28	39356.11
531.46	40322.75
531.63	39903.79
531.80	39438.03
531.97	39746.98
532.14	39875.71
532.31	39505.90
532.48	39833.58
532.65	40355.52
532.82	40154.23
532.99	40322.75
533.16	40133.17
533.33	40418.71
533.50	40863.41
533.67	40573.19
533.84	40512.33
534.01	40275.94
534.18	40594.25
534.35	40615.32
534.52	40875.12
534.69	40545.10
534.86	41404.08
535.03	41137.26
535.20	41282.37
535.37	41570.25
535.54	40980.44
535.71	40987.46
535.88	41312.80
536.05	40961.72
536.22	41354.93
536.38	41104.49
536.55	41163.00
536.72	41261.30
536.89	41043.63
537.06	40961.72
537.23	41675.58
537.40	41186.41
537.57	41443.87
537.74	41811.33
537.91	42045.38
538.08	41577.28
538.25	41844.10
538.42	41804.31
538.59	41930.70
538.75	41755.16
538.92	42169.43
539.09	41624.09
539.26	41881.55
539.43	41729.41
539.60	41883.89
539.77	41647.49
539.94	41949.42
540.11	41689.62
540.28	42361.36
540.44	41860.48
540.61	41958.78
540.78	41717.71
540.95	41846.44
541.12	42040.70
541.29	42349.65
541.46	42588.39
541.62	42249.01
541.79	42307.52
541.96	42291.14
542.13	41841.76
542.30	42597.75
542.47	42492.43
542.63	42656.26
542.80	42693.71
542.97	42990.96
543.14	42831.80
543.31	42813.08
543.48	43543.33
543.64	43470.77
543.81	43386.51
543.98	43297.57
544.15	43030.75
544.32	43353.74
544.48	43627.59
544.65	43442.68
544.82	43276.51
544.99	43037.77
545.16	43459.07
545.32	43332.68
545.49	43634.61
545.66	43475.45
545.83	43634.61
546.00	43831.21
546.16	43697.80
546.33	43505.88
546.50	43136.07
546.67	43543.33
546.83	43461.41
547.00	43772.70
547.17	43995.05
547.34	43461.41
547.50	44081.65
547.67	43903.77
547.84	43936.54
548.00	44313.36
548.17	43999.73
548.34	43861.64
548.51	44135.48
548.67	44025.48
548.84	44364.85
549.01	43714.19
549.18	44105.06
549.34	44444.43
549.51	44381.24
549.68	44224.42
549.84	44175.27
550.01	44608.27
550.18	43929.51
550.34	44364.85
550.51	44304.00
550.68	44357.83
550.84	44130.80
551.01	44828.28
551.18	44919.56
551.34	44205.70
551.51	44849.35
551.68	44488.90
551.84	44858.71
552.01	44868.07
552.18	44776.79
552.34	44516.99
552.51	44732.32
552.68	44847.00
552.84	44622.31
553.01	44938.29
553.18	45022.54
553.34	45155.96
553.51	44828.28
553.67	45088.08
553.84	45177.02
554.01	45097.44
554.17	45474.27
554.34	45427.46
554.51	45450.86
554.67	44978.07
554.84	44701.89
555.00	45177.02
555.17	45130.21
555.33	45364.26
555.50	45350.22
555.67	45151.27
555.83	45244.90
556.00	45350.22
556.16	45469.59
556.33	45174.68
556.50	44722.96
556.66	45427.46
556.83	44992.12
556.99	45453.20
557.16	45347.88
557.32	45464.91
557.49	45352.56
557.65	45366.60
557.82	45560.87
557.98	45736.41
558.15	45598.32
558.32	45603.00
558.48	45146.59
558.65	45500.01
558.81	45268.30
558.98	45621.72
559.14	45577.25
559.31	45296.39
559.47	45579.59
559.64	45867.48
559.80	45277.66
559.97	45902.59
560.13	45511.72
560.30	45619.38
560.46	45394.69
560.63	45741.09
560.79	46052.38
560.96	45989.19
561.12	45469.59
561.29	45879.18
561.45	45954.08
561.61	46064.08
561.78	45516.40
561.94	45614.70
562.11	45858.12
562.27	45570.23
562.44	45918.97
562.60	46164.73
562.77	46195.15
562.93	45832.37
563.10	46302.82
563.26	45757.47
563.42	45748.11
563.59	45654.49
563.75	46330.90
563.92	46031.32
564.08	46162.39
564.24	46106.21
564.41	46408.14
564.57	45977.48
564.74	46363.67
564.90	46014.93
565.07	45729.39
565.23	45963.44
565.39	46146.00
565.56	46040.68
565.72	45689.60
565.88	45998.55
566.05	45986.85
566.21	45933.01
566.38	45991.53
566.54	46131.96
566.70	46066.42
566.87	46370.69
567.03	46375.37
567.19	46700.71
567.36	46387.08
567.52	46047.70
567.68	46232.60
567.85	46319.20
568.01	46071.10
568.17	46195.15
568.34	46227.92
568.50	46347.29
568.66	46471.34
568.83	46459.63
568.99	46279.41
569.15	46181.11
569.32	46178.77
569.48	46447.93
569.64	46770.93
569.81	46293.46
569.97	46141.32
570.13	46204.52
570.30	46024.29
570.46	45890.88
570.62	45918.97
570.78	45851.09
570.95	46071.10
571.11	46429.21
571.27	46141.32
571.43	46387.08
571.60	46164.73
571.76	46515.81
571.92	46429.21
572.09	46408.14
572.25	46047.70
572.41	46312.18
572.57	46253.67
572.74	46686.67
572.90	46174.09
573.06	46646.88
573.22	46473.68
573.38	46337.93
573.55	45975.14
573.71	46532.19
573.87	46841.14
574.03	46333.24
574.20	46543.89
574.36	46543.89
574.52	46354.31
574.68	46361.33
574.84	46347.29
575.01	46293.46
575.17	46452.61
575.33	45820.67
575.49	45778.54
575.65	46813.05
575.82	46784.97
575.98	46431.55
576.14	46366.01
576.30	46639.86
576.46	46047.70
576.62	46087.49
576.79	46452.61
576.95	46513.47
577.11	46618.79
577.27	46515.81
577.43	46260.69
577.59	46251.33
577.75	46349.63
577.92	46188.13
578.08	45940.04
578.24	45965.78
578.40	46209.20
578.56	46302.82
578.72	46050.04
578.88	46932.42
579.04	45965.78
579.21	46590.70
579.37	46403.46
579.53	46213.88
579.69	46672.62
579.85	46384.74
580.01	46579.00
580.17	46113.23
580.33	46590.70
580.49	46258.35
580.65	46347.29
580.82	46520.49
580.98	46368.35
581.14	46373.03
581.30	46597.73
581.46	46597.73
581.62	46787.31
581.78	46560.28
581.94	46438.57
582.10	46536.87
582.26	46892.63
582.42	46291.12
582.58	46712.41
582.74	46447.93
582.90	46536.87
583.06	46827.10
583.22	46773.27
583.38	46843.48
583.54	46852.84
583.70	47056.47
583.86	46457.29
584.02	46401.12
584.18	46108.55
584.34	46775.61
584.50	46478.36
584.66	46246.65
584.82	46543.89
584.98	46808.37
585.14	46394.10
585.30	46038.34
585.46	46485.38
585.62	46061.74
585.78	46674.96
585.94	46131.96
586.10	46433.89
586.26	46127.28
586.42	46571.98
586.58	46894.97
586.74	46887.95
586.90	46316.86
587.06	46813.05
587.22	46775.61
587.38	46504.10
587.54	46866.89
587.70	46681.98
587.86	46649.22
588.02	46153.02
588.18	46761.56
588.34	46536.87
588.49	46373.03
588.65	46188.13
588.81	45645.13
588.97	46518.15
589.13	45986.85
589.29	46153.02
589.45	46417.50
589.61	46522.83
589.77	46855.18
589.93	46866.89
590.08	46092.17
590.24	46890.29
590.40	46894.97
590.56	46976.89
590.72	46312.18
590.88	46344.95
591.04	46527.51
591.20	47093.92
591.35	46796.67
591.51	46925.40
591.67	46164.73
591.83	46782.63
591.99	47004.98
592.15	46471.34
592.31	46752.20
592.46	46323.88
592.62	46583.68
592.78	46625.81
592.94	46728.80
593.10	46644.54
593.26	46380.06
593.41	46284.09
593.57	46497.08
593.73	46176.43
593.89	46916.04
594.05	46670.28
594.20	46586.02
594.36	46749.86
594.52	46770.93
594.68	46417.50
594.84	47042.43
594.99	47026.04
595.15	46696.03
595.31	46824.76
595.47	46588.36
595.62	46576.66
595.78	46553.26
595.94	46738.16
596.10	47079.88
596.25	47112.64
596.41	46735.82
596.57	46490.06
596.73	46410.48
596.88	46653.90
597.04	46609.43
597.20	46899.65
597.36	46260.69
597.51	46869.23
597.67	46733.48
597.83	46422.19
597.99	47168.82
598.14	47026.04
598.30	46660.92
598.46	46747.52
598.61	46604.75
598.77	46302.82
598.93	46761.56
599.09	46784.97
599.24	47007.32
599.40	46993.28
599.56	46962.85
599.71	46611.77
599.87	46553.26
600.03	46560.28
600.18	46738.16
600.34	46426.87
600.50	46651.56
600.65	46363.67
600.81	46920.72
600.97	47007.32
601.12	47072.85
601.28	46593.04
601.44	46571.98
601.59	46569.64
601.75	46052.38
601.91	46340.27
602.06	46728.80
602.22	46897.31
602.37	46398.78
602.53	46220.90
602.69	46791.99
602.84	46534.53
603.00	46794.33
603.16	47068.17
603.31	46127.28
603.47	46927.74
603.62	46759.22
603.78	46506.44
603.94	46728.80
604.09	46761.56
604.25	46806.03
604.40	46644.54
604.56	46457.29
604.71	47004.98
604.87	46476.02
605.03	46609.43
605.18	46038.34
605.34	46461.97
605.49	46206.86
605.65	46710.07
605.80	46473.68
605.96	46686.67
606.12	46651.56
606.27	46321.54
606.43	46408.14
606.58	46429.21
606.74	46548.57
606.89	46480.70
607.05	46415.16
607.20	46553.26
607.36	46513.47
607.51	46611.77
607.67	46396.44
607.82	46199.83
607.98	46085.15
608.13	46211.54
608.29	46248.99
608.44	45759.81
608.60	46115.58
608.75	46256.01
608.91	46387.08
609.06	46209.20
609.22	46410.48
609.37	46206.86
609.53	46384.74
609.68	46429.21
609.84	46171.75
609.99	46174.09
610.15	45567.89
610.30	45689.60
610.46	45542.14
610.61	45881.52
610.76	46248.99
610.92	46099.19
611.07	46251.33
611.23	46040.68
611.38	45771.52
611.54	45921.31
611.69	45610.02
611.84	45490.65
612.00	45439.16
612.15	45642.79
612.31	45766.84
612.46	45804.28
612.62	45940.04
612.77	46007.91
612.92	45595.98
613.08	45551.51
613.23	45654.49
613.39	45221.49
613.54	45071.70
613.69	45617.04
613.85	45287.03
614.00	45305.75
614.15	45991.53
614.31	45581.93
614.46	46005.57
614.62	45509.38
614.77	45893.22
614.92	45588.95
615.08	45443.84
615.23	45151.27
615.38	45230.85
615.54	45195.74
615.69	45301.07
615.84	45404.05
616.00	45490.65
616.15	45593.64
616.30	45539.80
616.46	45125.53
616.61	45233.19
616.76	45340.86
616.92	44472.52
617.07	45418.10
617.22	44650.40
617.37	45375.97
617.53	45137.23
617.68	44959.35
617.83	45069.36
617.99	44935.95
618.14	44690.19
618.29	44992.12
618.45	44512.31
618.60	44615.29
618.75	44479.54
618.90	45090.42
619.06	44659.76
619.21	44561.46
619.36	45200.43
619.51	45265.96
619.67	44533.37
619.82	44793.17
619.97	44811.90
620.12	44788.49
620.28	44147.18
620.43	44542.74
620.58	44655.08
620.73	44634.02
620.89	44729.98
621.04	44191.65
621.19	44399.96
621.34	44619.97
621.49	44449.11
621.65	44465.50
621.80	44250.17
621.95	44130.80
622.10	44264.21
622.25	44203.36
622.41	44027.82
622.56	44285.28
622.71	44561.46
622.86	44505.29
623.01	44088.67
623.16	44257.19
623.32	44210.38
623.47	43842.92
623.62	44388.26
623.77	44189.31
623.92	43962.28
624.07	43882.70
624.23	43613.54
624.38	43709.50
624.53	43576.09
624.68	43683.76
624.83	43805.47
624.98	43512.90
625.13	43391.19
625.29	43519.92
625.44	43496.52
625.59	43281.19
625.74	43220.33
625.89	43115.01
626.04	43182.88
626.19	43512.90
626.34	43428.64
626.49	43784.40
626.65	43255.44
626.80	43271.82
626.95	43632.27
627.10	43306.93
627.25	43395.87
627.40	43009.68
627.55	42651.58
627.70	42951.17
627.85	42930.11
628.00	43412.26
628.15	42953.51
628.30	42883.30
628.45	43061.18
628.60	43143.09
628.76	43332.68
628.91	42693.71
629.06	42899.68
629.21	42880.95
629.36	42780.31
629.51	42658.60
629.66	42457.32
629.81	42204.54
629.96	42700.73
630.11	42487.74
630.26	42918.40
630.41	42719.46
630.56	42841.17
630.71	42796.70
630.86	42651.58
631.01	42218.58
631.16	42983.94
631.31	42265.39
631.46	42567.32
631.61	42513.49
631.76	42405.83
631.91	42305.18
632.06	42375.40
632.21	42527.53
632.36	42728.82
632.51	42024.32
632.66	42424.55
632.81	42291.14
632.96	42337.95
633.10	42319.23
633.25	42635.20
633.40	42136.66
633.55	41944.74
633.70	42162.41
633.85	41975.17
634.00	42319.23
634.15	42204.54
634.30	41993.89
634.45	41794.95
634.60	42319.23
634.75	41560.89
634.90	42005.59
635.05	41581.96
635.19	41385.35
635.34	41848.78
635.49	42103.90
635.64	41883.89
635.79	41422.80
635.94	41560.89
636.09	41780.90
636.24	41233.22
636.39	41357.27
636.53	41270.67
636.68	41305.77
636.83	41263.64
636.98	41806.65
637.13	41340.88
637.28	41837.08
637.43	41811.33
637.57	41727.07
637.72	42017.30
637.87	41352.58
638.02	41305.77
638.17	41556.21
638.32	41263.64
638.46	41308.11
638.61	41326.84
638.76	41174.70
638.91	41275.35
639.06	41193.43
639.20	41212.15
639.35	41635.79
639.50	41352.58
639.65	41486.00
639.80	41111.51
639.94	40898.52
640.09	40996.82
640.24	41003.85
640.39	40474.88
640.54	40524.04
640.68	40683.19
640.83	40573.19
640.98	40690.21
641.13	40507.65
641.27	41392.37
641.42	40465.52
641.57	40697.24
641.72	40521.69
641.86	40933.63
642.01	40304.02
642.16	40430.41
642.31	39983.37
642.45	40383.60
642.60	40175.30
642.75	40388.28
642.90	40418.71
643.04	40189.34
643.19	40247.85
643.34	40058.27
643.48	40666.81
643.63	40184.66
643.78	40177.64
643.93	40175.30
644.07	40484.25
644.22	40243.17
644.37	39505.90
644.51	40109.76
644.66	40009.12
644.81	40304.02
644.95	40023.16
645.10	40126.14
645.25	39952.94
645.39	40182.32
645.54	40226.79
645.69	39847.62
645.83	39985.71
645.98	39798.47
646.13	39861.66
646.27	40240.83
646.42	39763.36
646.57	39732.93
646.71	39606.55
646.86	39321.00
647.00	39384.19
647.15	39861.66
647.30	39550.37
647.44	39246.10
647.59	39906.13
647.74	39225.04
647.88	39454.41
648.03	39154.82
648.17	39260.15
648.32	39777.40
648.47	39065.88
648.61	39257.81
648.76	39541.01
648.90	39171.21
649.05	39580.80
649.20	39297.59
649.34	39672.08
649.49	38733.53
649.63	39143.12
649.78	39112.69
649.92	39423.98
650.07	39335.04
650.21	39278.87
650.36	39157.16
650.51	39159.50
650.65	39124.40
650.80	39353.77
650.94	39466.11
651.09	39035.45
651.23	38572.03
651.38	38511.17
651.52	38471.39
651.67	38799.06
651.81	38749.91
651.96	38550.96
652.10	38824.81
652.25	38703.10
652.39	39192.27
652.54	38843.53
652.68	38728.84
652.83	38810.76
652.97	38752.25
653.12	38583.73
653.26	38775.66
653.41	38359.04
653.55	38401.17
653.70	38333.29
653.84	38471.39
653.99	38012.64
654.13	37935.40
654.27	38333.29
654.42	38059.45
654.56	38022.00
654.71	38284.14
654.85	38518.20
655.00	38394.15
655.14	37935.40
655.29	37977.53
655.43	37897.95
655.57	37408.78
655.72	37687.31
655.86	37666.24
656.01	37589.00
656.15	37237.92
656.30	37233.24
656.44	37486.02
656.58	37577.30
656.73	37904.98
656.87	37181.75
657.01	37254.31
657.16	37483.68
657.30	37031.96
657.45	37631.13
657.59	37635.81
657.73	37500.06
657.88	37947.11
658.02	37572.62
658.16	37727.10
658.31	37476.66
658.45	37834.76
658.60	37380.70
658.74	37670.92
658.88	37537.51
659.03	37125.58
659.17	36870.46
659.31	37251.97
659.46	36975.78
659.60	37109.19
659.74	37371.33
659.89	36835.35
660.03	36264.26
660.17	36989.83
660.32	37148.98
660.46	37380.70
660.60	36634.06
660.74	36350.86
660.89	36989.83
661.03	36247.88
661.17	36439.80
661.32	36390.65
661.46	36802.58
661.60	36549.81
661.74	36170.64
661.89	36575.55
662.03	36734.71
662.17	36613.00
662.31	36236.17
662.46	36987.49
662.60	36470.23
662.74	36320.43
662.88	36280.64
663.03	35878.07
663.17	36091.06
663.31	35800.83
663.45	36416.40
663.60	35924.88
663.74	35826.58
663.88	35910.84
664.02	35571.46
664.17	35842.96
664.31	35526.99
664.45	35625.29
664.59	35189.95
664.73	35747.00
664.88	35833.60
665.02	35358.47
665.16	35302.30
665.30	35185.27
665.44	35218.04
665.59	34728.87
665.73	35108.04
665.87	34981.65
666.01	35353.79
666.15	35086.97
666.29	34712.49
666.44	35346.77
666.58	35199.32
666.72	34607.16
666.86	34401.19
667.00	34562.69
667.14	34293.53
667.28	34251.40
667.43	34396.51
667.57	34448.00
667.71	34483.11
667.85	34621.20
667.99	34307.57
668.13	34188.21
668.27	34256.08
668.41	34888.03
668.56	34099.26
668.70	33853.51
668.84	33696.69
668.98	33076.45
669.12	34029.05
669.26	34057.14
669.40	33696.69
669.54	33315.19
669.68	33982.24
669.82	33151.35
669.96	33268.37
670.10	33715.42
670.25	33535.20
670.39	33219.22
670.53	32851.76
670.67	33104.54
670.81	33528.17
670.95	32889.21
671.09	33193.48
671.23	32582.60
671.37	32877.51
671.51	32701.96
671.65	32708.99
671.79	32706.65
671.93	32760.48
672.07	32591.96
672.21	32610.68
672.35	32491.32
672.49	32907.93
672.63	32762.82
672.77	32369.61
672.91	32378.97
673.05	31964.70
673.19	32318.12
673.33	31786.82
673.47	31454.46
673.61	31695.53
673.75	31524.68
673.89	31311.69
674.03	31503.61
674.17	31564.46
674.31	31388.92
674.45	31393.61
674.59	31487.23
674.73	31658.09
674.87	31545.74
675.01	30890.39
675.15	31402.97
675.29	30871.67
675.43	31044.87
675.56	31110.40
675.70	30792.09
675.84	31002.74
675.98	29619.48
676.12	30511.22
676.26	30902.09
676.40	30291.21
676.54	30705.49
676.68	30373.13
676.82	30099.29
676.96	30309.94
677.10	29991.62
677.23	30024.39
677.37	29982.26
677.51	30162.48
677.65	29638.20
677.79	29282.44
677.93	29467.34
678.07	28985.19
678.21	29181.80
678.34	29078.82
678.48	29167.76
678.62	28914.98
678.76	28453.89
678.90	28446.87
679.04	28863.49
679.18	28968.81
679.31	28280.69
679.45	28119.20
679.59	28369.63
679.73	28292.40
679.87	28254.95
680.00	28339.21
680.14	27733.01
680.28	28041.96
680.42	28177.71
680.56	27775.14
680.70	27391.29
680.83	27620.66
680.97	27466.19
681.11	27082.34
681.25	27325.75
681.39	27124.47
681.52	27477.89
681.66	27190.00
681.80	27480.23
681.94	27386.61
682.07	27016.80
682.21	26595.51
682.35	26923.18
682.49	26876.37
682.62	26520.61
682.76	26260.81
682.90	26405.92
683.04	26544.02
683.17	26218.68
683.31	26129.74
683.45	25940.16
683.59	25682.70
683.72	25893.35
683.86	25790.36
684.00	26031.44
684.13	25771.64
684.27	25570.35
684.41	25277.79
684.55	25350.34
684.68	25177.14
684.82	25193.53
684.96	25151.40
685.09	25027.35
685.23	24877.55
685.37	24987.56
685.50	24821.38
685.64	24774.57
685.78	24617.75
685.91	24430.51
686.05	24194.12
686.19	23875.80
686.32	24189.44
686.46	23510.68
686.60	23433.44
686.73	23562.17
686.87	23262.58
687.01	23084.70
687.14	23236.84
687.28	22885.76
687.42	23225.14
687.55	23307.05
687.69	23199.39
687.82	22979.38
687.96	23180.67
688.10	22948.95
688.23	22775.75
688.37	22792.14
688.50	22752.35
688.64	22920.87
688.78	22801.50
688.91	22459.78
689.05	22525.32
689.18	22342.75
689.32	22122.74
689.46	22288.92
689.59	22408.29
689.73	22286.58
689.86	21823.16
690.00	21731.87
690.13	21738.90
690.27	21680.38
690.41	21689.74
690.54	21305.90
690.68	21284.83
690.81	21348.03
690.95	21315.26
691.08	21123.33
691.22	21277.81
691.35	21242.70
691.49	21355.05
691.62	21118.65
691.76	20903.32
691.89	21039.08
692.03	21013.33
692.16	20854.17
692.30	20430.54
692.43	20299.47
692.57	19943.70
692.70	20170.74
692.84	20042.01
692.97	19950.73
693.11	20112.22
693.24	19655.82
693.38	19765.82
693.51	19735.40
693.65	19960.09
693.78	19857.10
693.92	19789.23
694.05	19482.62
694.19	19477.94
694.32	19501.34
694.45	19433.47
694.59	18988.77
694.72	19091.75
694.86	19108.13
694.99	18920.89
695.13	18956.00
695.26	18803.86
695.39	18586.19
695.53	18963.02
695.66	18782.80
695.80	18302.99
695.93	18441.08
696.07	18607.26
696.20	18412.99
696.33	18064.25
696.47	17912.12
696.60	18040.85
696.73	17984.68
696.87	17799.77
697.00	17944.89
697.14	17720.20
697.27	17537.63
697.40	17385.50
697.54	17561.04
697.67	17240.39
697.80	17053.14
697.94	17081.23
698.07	17043.78
698.21	17282.52
698.34	17214.64
698.47	17006.33
698.61	16886.97
698.74	16580.36
698.87	16891.65
699.01	16753.55
699.14	16669.30
699.27	16493.76
699.40	16638.87
699.54	16074.80
699.67	16411.84
699.80	16475.03
699.94	16107.57
700.07	16020.97
700.20	16149.70
700.34	16130.97
700.47	16294.81
700.60	16252.68
700.73	15882.88
700.87	15620.74
701.00	15639.46
701.13	15494.35
701.26	15414.77
701.40	15400.72
701.53	15232.21
701.66	15559.88
701.79	15023.90
701.93	15108.16
702.06	15161.99
702.19	14899.85
702.32	14806.23
702.46	14773.46
702.59	14745.38
702.72	15091.77
702.85	14850.70
702.99	15023.90
703.12	14759.42
703.25	14363.87
703.38	14408.34
703.51	14628.35
703.65	14331.10
703.78	14328.76
703.91	14017.47
704.04	14148.54
704.17	14279.61
704.31	14263.22
704.44	14169.60
704.57	13783.41
704.70	13760.01
704.83	13802.14
704.96	13687.45
705.10	13816.18
705.23	13570.43
>>>>>End Processed Spectral Data<<<<<
