SpectraSuite Data File
++++++++++++++++++++++++++++++++++++
Date: Fri Oct 25 10:48:17 EDT 2013
User: price-jones
Dark Spectrum Present: No
Reference Spectrum Present: No
Number of Sampled Component Spectra: 1
Spectrometers: USB2+H05261
Integration Time (usec): 100000 (USB2+H05261)
Spectra Averaged: 1 (USB2+H05261)
Boxcar Smoothing: 0 (USB2+H05261)
Correct for Electrical Dark: No (USB2+H05261)
Strobe/Lamp Enabled: No (USB2+H05261)
Correct for Detector Non-linearity: No (USB2+H05261)
Correct for Stray Light: No (USB2+H05261)
Number of Pixels in Processed Spectrum: 2048
>>>>>Begin Processed Spectral Data<<<<<
365.73	159.16
365.92	159.16
366.12	159.16
366.32	7.02
366.52	42.13
366.72	58.51
366.91	23.41
367.11	74.90
367.31	63.19
367.51	42.13
367.70	37.45
367.90	102.98
368.10	67.88
368.30	28.09
368.49	0.00
368.69	102.98
368.89	46.81
369.09	53.83
369.28	44.47
369.48	74.90
369.68	74.90
369.87	135.75
370.07	100.64
370.27	142.77
370.47	210.65
370.66	409.59
370.86	423.64
371.06	409.59
371.25	472.79
371.45	540.66
371.65	475.13
371.84	461.09
372.04	526.62
372.24	491.51
372.44	631.94
372.63	559.39
372.83	655.35
373.03	517.26
373.22	528.96
373.42	479.81
373.62	578.11
373.81	557.05
374.01	594.50
374.21	603.86
374.40	526.62
374.60	521.94
374.79	585.13
374.99	650.67
375.19	559.39
375.38	571.09
375.58	587.47
375.78	578.11
375.97	622.58
376.17	732.59
376.37	582.79
376.56	622.58
376.76	653.01
376.95	601.52
377.15	587.47
377.35	674.07
377.54	631.94
377.74	662.37
377.93	653.01
378.13	660.03
378.33	610.88
378.52	613.22
378.72	681.10
378.91	683.44
379.11	734.93
379.31	727.91
379.50	695.14
379.70	716.20
379.89	669.39
380.09	608.54
380.28	645.99
380.48	711.52
380.68	727.91
380.87	744.29
381.07	711.52
381.26	711.52
381.46	770.04
381.65	629.60
381.85	688.12
382.04	755.99
382.24	770.04
382.43	725.57
382.63	770.04
382.83	823.87
383.02	713.86
383.22	779.40
383.41	667.05
383.61	763.01
383.80	805.14
384.00	821.53
384.19	753.65
384.39	837.91
384.58	861.32
384.78	823.87
384.97	744.29
385.17	851.96
385.36	786.42
385.56	770.04
385.75	795.78
385.95	814.51
386.14	912.81
386.34	929.19
386.53	858.98
386.72	837.91
386.92	910.47
387.11	926.85
387.31	929.19
387.50	840.25
387.70	866.00
387.89	877.70
388.09	854.30
388.28	884.72
388.48	945.58
388.67	1001.75
388.86	940.90
389.06	964.30
389.25	1036.86
389.45	980.68
389.64	952.60
389.84	1041.54
390.03	1034.52
390.22	1032.18
390.42	1036.86
390.61	1090.69
390.81	1046.22
391.00	1121.12
391.19	1121.12
391.39	1020.47
391.58	1203.04
391.78	1046.22
391.97	997.07
392.16	1046.22
392.36	1111.75
392.55	1036.86
392.75	1090.69
392.94	945.58
393.13	1060.26
393.33	971.32
393.52	1111.75
393.71	1053.24
393.91	1132.82
394.10	1057.92
394.29	1039.20
394.49	1114.10
394.68	1282.61
394.88	1095.37
395.07	1247.51
395.26	1268.57
395.46	1256.87
395.65	1338.79
395.84	1240.48
396.04	1315.38
396.23	1198.35
396.42	1137.50
396.62	1114.10
396.81	1291.98
397.00	1165.59
397.19	1378.58
397.39	1343.47
397.58	1380.92
397.77	1500.28
397.97	1423.05
398.16	1399.64
398.35	1423.05
398.55	1490.92
398.74	1500.28
398.93	1486.24
399.12	1519.01
399.32	1502.62
399.51	1441.77
399.70	1579.86
399.90	1584.54
400.09	1621.99
400.28	1673.48
400.47	1659.44
400.67	1577.52
400.86	1619.65
401.05	1785.83
401.24	1638.38
401.44	1657.10
401.63	1710.93
401.82	1717.95
402.01	1809.23
402.21	1753.06
402.40	1706.25
402.59	1717.95
402.78	1736.68
402.97	1781.15
403.17	1900.52
403.36	1746.04
403.55	1921.58
403.74	1888.81
403.93	1832.64
404.13	1902.86
404.32	1921.58
404.51	1984.77
404.70	1825.62
404.89	1919.24
405.09	1970.73
405.28	2031.58
405.47	1914.56
405.66	1977.75
405.85	1909.88
406.05	1865.41
406.24	2071.37
406.43	2040.95
406.62	2099.46
406.81	2179.04
407.00	2146.27
407.20	2008.18
407.39	2066.69
407.58	2214.15
407.77	2275.00
407.96	2200.10
408.15	2162.66
408.34	2242.23
408.54	2291.38
408.73	2326.49
408.92	2452.88
409.11	2296.07
409.30	2298.41
409.49	2267.98
409.68	2429.48
409.87	2356.92
410.07	2422.45
410.26	2427.14
410.45	2319.47
410.64	2396.71
410.83	2588.63
411.02	2434.16
411.21	2656.51
411.40	2586.29
411.59	2708.00
411.78	2581.61
411.98	2649.49
412.17	2642.46
412.36	2621.40
412.55	2703.32
412.74	2782.90
412.93	2757.15
413.12	2644.81
413.31	2834.39
413.50	2920.99
413.69	2839.07
413.88	3021.63
414.07	2981.84
414.26	3033.33
414.45	2897.58
414.64	2913.97
414.83	3129.30
415.02	3084.83
415.22	3101.21
415.41	3061.42
415.60	3098.87
415.79	3176.11
415.98	3267.39
416.17	3323.56
416.36	3204.19
416.55	3227.60
416.74	3236.96
416.93	3201.85
417.12	3246.32
417.31	3410.16
417.50	3440.59
417.69	3496.76
417.88	3602.08
418.07	3492.08
418.26	3403.14
418.45	3478.04
418.64	3499.10
418.83	3541.23
419.02	3716.77
419.21	3578.68
419.39	3555.27
419.58	3581.02
419.77	3606.77
419.96	3775.28
420.15	3609.11
420.34	3812.73
420.53	3770.60
420.72	3850.18
420.91	3796.35
421.10	3817.41
421.29	3962.53
421.48	3735.50
421.67	3880.61
421.86	3805.71
422.05	3850.18
422.24	3857.20
422.43	3758.90
422.61	3751.88
422.80	3936.78
422.99	3866.56
423.18	3962.53
423.37	4091.26
423.56	3992.95
423.75	3974.23
423.94	3922.74
424.13	3791.67
424.32	3786.99
424.50	4011.68
424.69	4058.49
424.88	4007.00
425.07	4007.00
425.26	3985.93
425.45	4009.34
425.64	4028.06
425.83	4133.39
426.01	4121.68
426.20	4011.68
426.39	4058.49
426.58	3985.93
426.77	3934.44
426.96	4077.21
427.15	4028.06
427.33	4227.01
427.52	4208.28
427.71	4184.88
427.90	4152.11
428.09	4184.88
428.28	4266.80
428.46	4208.28
428.65	4126.36
428.84	4397.87
429.03	4320.63
429.22	3957.85
429.40	4189.56
429.59	4084.23
429.78	4117.00
429.97	4014.02
430.16	4156.79
430.34	4161.47
430.53	4374.46
430.72	4194.24
430.91	4306.59
431.10	4437.66
431.28	4535.96
431.47	4765.33
431.66	4711.50
431.85	4528.94
432.03	4690.43
432.22	4678.73
432.41	4683.41
432.60	4592.13
432.79	4793.42
432.97	4896.40
433.16	4865.97
433.35	4716.18
433.54	4762.99
433.72	4732.56
433.91	4697.46
434.10	4671.71
434.28	4683.41
434.47	4957.25
434.66	4971.30
434.85	4858.95
435.03	4924.49
435.22	4807.46
435.41	5008.75
435.59	5153.86
435.78	5081.30
435.97	5210.03
436.16	5195.99
436.34	5055.56
436.53	5348.12
436.72	5277.91
436.90	5039.17
437.09	5305.99
437.28	5231.10
437.46	5301.31
437.65	5259.18
437.84	5097.69
438.02	5228.76
438.21	5291.95
438.40	5245.14
438.58	5273.23
438.77	5397.28
438.96	5441.75
439.14	5490.90
439.33	5689.84
439.52	5753.04
439.70	5619.63
439.89	5612.60
440.08	5530.69
440.26	5820.91
440.45	5919.21
440.63	5750.70
440.82	5895.81
441.01	6003.47
441.19	6061.99
441.38	6134.54
441.57	6045.60
441.75	6167.31
441.94	6310.08
442.12	6338.17
442.31	6459.88
442.50	6342.85
442.68	6298.38
442.87	6338.17
443.05	6291.36
443.24	6511.37
443.43	6326.47
443.61	6434.13
443.80	6492.65
443.98	6485.62
444.17	6277.32
444.35	6581.59
444.54	6738.40
444.73	6583.93
444.91	6499.67
445.10	6623.72
445.28	6436.47
445.47	6382.64
445.65	6604.99
445.84	6630.74
446.02	6558.18
446.21	6478.60
446.39	6523.07
446.58	6534.78
446.77	6651.80
446.95	6654.14
447.14	6761.81
447.32	6684.57
447.51	6806.28
447.69	6628.40
447.88	6642.44
448.06	6794.58
448.25	6686.91
448.43	6750.10
448.62	6656.48
448.80	6857.77
448.99	6930.33
449.17	6743.08
449.36	6829.68
449.54	6923.30
449.73	7110.55
449.91	7155.02
450.10	7267.36
450.28	7258.00
450.46	7253.32
450.65	7246.30
450.83	7232.26
451.02	6967.77
451.20	7255.66
451.39	7267.36
451.57	7098.84
451.76	7419.50
451.94	7122.25
452.13	7283.75
452.31	7269.70
452.49	7140.97
452.68	7311.83
452.86	7096.50
453.05	7300.13
453.23	7356.30
453.42	7339.92
453.60	7311.83
453.78	7506.10
453.97	7365.67
454.15	7454.61
454.34	7517.80
454.52	7543.55
454.70	7569.29
454.89	7644.19
455.07	7637.17
455.26	7508.44
455.44	7719.09
455.62	7770.58
455.81	7808.03
455.99	7705.04
456.17	7831.43
456.36	7798.66
456.54	7913.35
456.73	8079.53
456.91	8028.04
457.09	8044.42
457.28	8374.44
457.46	8044.42
457.64	8168.47
457.83	7983.57
458.01	8023.36
458.19	8156.77
458.38	8212.94
458.56	8241.03
458.74	8388.48
458.93	8208.26
459.11	8313.58
459.29	8425.93
459.48	8362.73
459.66	8528.91
459.84	8353.37
460.03	8393.16
460.21	8477.42
460.39	8678.71
460.57	8400.18
460.76	8751.26
460.94	8723.18
461.12	8676.37
461.31	8655.30
461.49	8594.45
461.67	8676.37
461.85	8922.12
462.04	8788.71
462.22	9263.84
462.40	9041.49
462.59	8971.27
462.77	9097.66
462.95	8975.95
463.13	9001.70
463.32	9067.24
463.50	8915.10
463.68	9123.41
463.86	9284.91
464.05	8800.41
464.23	9032.13
464.41	9207.67
464.59	8894.04
464.78	9135.11
464.96	9029.79
465.14	8887.01
465.32	9146.81
465.50	9153.84
465.69	9273.20
465.87	9317.67
466.05	9202.99
466.23	9294.27
466.41	9090.64
466.60	9579.81
466.78	9268.52
466.96	9114.05
467.14	9432.36
467.32	9247.46
467.51	9685.14
467.69	9352.78
467.87	9301.29
468.05	9621.94
468.23	9383.21
468.41	9591.52
468.60	9551.73
468.78	9680.46
468.96	9399.59
469.14	9577.47
469.32	9741.31
469.50	9547.05
469.69	9912.17
469.87	9717.90
470.05	9865.36
470.23	9884.08
470.41	9645.35
470.59	10104.09
470.77	10120.48
470.95	10134.52
471.14	10202.40
471.32	10038.56
471.50	10122.82
471.68	10186.01
471.86	10345.17
472.04	10579.22
472.22	10771.15
472.40	10146.22
472.58	10303.04
472.77	10473.90
472.95	10541.77
473.13	10939.66
473.31	10443.47
473.49	10560.50
473.67	10642.42
473.85	10778.17
474.03	10930.30
474.21	10927.96
474.39	11052.01
474.57	11112.86
474.75	11164.36
474.93	11084.78
475.12	11398.41
475.30	11367.98
475.48	11126.91
475.66	11302.45
475.84	11157.33
476.02	11508.41
476.20	11611.40
476.38	11630.12
476.56	11936.73
476.74	11690.98
476.92	11906.31
477.10	12028.01
477.28	12016.31
477.46	12135.68
477.64	12290.15
477.82	12554.63
478.00	12826.14
478.18	12273.77
478.36	12526.55
478.54	12786.35
478.72	12828.48
478.90	12940.82
479.08	12964.23
479.26	13081.25
479.44	13137.43
479.62	13095.30
479.80	13474.46
479.98	13231.05
480.16	13954.27
480.34	13532.98
480.52	13984.70
480.70	13874.70
480.88	13650.00
481.06	13881.72
481.24	13870.01
481.41	14560.47
481.59	14544.09
481.77	14422.38
481.95	14452.81
482.13	14768.78
482.31	14560.47
482.49	14839.00
482.67	14918.57
482.85	15131.56
483.03	15351.57
483.21	15365.62
483.39	15372.64
483.57	15318.81
483.74	15602.01
483.92	15697.97
484.10	15606.69
484.28	16002.24
484.46	16339.28
484.64	16355.66
484.82	16081.82
485.00	16325.24
485.18	16507.80
485.35	16601.42
485.53	16496.10
485.71	16159.06
485.89	16526.52
486.07	16280.77
486.25	16835.47
486.43	16851.86
486.61	17233.36
486.78	17261.45
486.96	17575.08
487.14	17731.90
487.32	17685.09
487.50	18026.81
487.68	18403.63
487.85	18434.06
488.03	18689.18
488.21	18792.16
488.39	18464.49
488.57	18654.07
488.75	18956.00
488.92	19075.37
489.10	19267.29
489.28	19817.32
489.46	19859.45
489.64	19838.38
489.81	20245.63
489.99	20346.28
490.17	20170.74
490.35	20580.33
490.53	20517.14
490.70	20397.77
490.88	20512.46
491.06	20823.75
491.24	21064.82
491.41	20826.09
491.59	21118.65
491.77	21008.65
491.95	21256.75
492.13	21633.57
492.30	21745.92
492.48	21607.83
492.66	22043.17
492.84	21909.75
493.01	22272.54
493.19	22181.26
493.37	22223.39
493.54	22555.74
493.72	22848.31
493.90	22637.66
494.08	22939.59
494.25	23168.96
494.43	23241.52
494.61	23257.90
494.79	23768.14
494.96	23702.61
495.14	23466.21
495.32	24051.34
495.49	23873.46
495.67	23997.51
495.85	24320.51
496.02	24343.91
496.20	24741.80
496.38	24854.15
496.55	24662.22
496.73	25230.98
496.91	24629.46
497.09	25179.48
497.26	25460.35
497.44	25352.68
497.62	25418.22
497.79	25518.86
497.97	25284.81
498.14	25539.93
498.32	26150.81
498.50	25914.41
498.67	26408.26
498.85	26059.52
499.03	26382.52
499.20	26410.60
499.38	26487.84
499.56	26677.43
499.73	26794.45
499.91	26923.18
500.08	26897.44
500.26	26794.45
500.44	26693.81
500.61	26829.56
500.79	26665.72
500.97	27143.19
501.14	27428.74
501.32	27248.52
501.49	27566.83
501.67	27466.19
501.84	27854.72
502.02	27962.38
502.20	27997.49
502.37	28126.22
502.55	28203.46
502.72	27859.40
502.90	28142.60
503.07	28016.21
503.25	28236.22
503.43	28011.53
503.60	28526.45
503.78	28474.96
503.95	28381.34
504.13	28886.89
504.30	28903.28
504.48	28900.94
504.65	29165.42
504.83	29226.27
505.01	29474.37
505.18	29209.89
505.36	29766.93
505.53	29626.50
505.71	29493.09
505.88	29919.07
506.06	29783.32
506.23	29474.37
506.41	29825.45
506.58	29750.55
506.76	30036.09
506.93	30260.79
507.11	30249.08
507.28	30183.55
507.46	30541.65
507.63	30211.64
507.81	30733.57
507.98	30181.21
508.16	30649.32
508.33	31075.29
508.50	30768.68
508.68	30801.45
508.85	31782.13
509.03	31058.91
509.20	31466.16
509.38	31564.46
509.55	31793.84
509.73	31592.55
509.90	32006.83
510.08	31461.48
510.25	31529.36
510.42	31754.05
510.60	32098.11
510.77	32037.25
510.95	32360.25
511.12	32395.35
511.30	32079.38
511.47	32060.66
511.64	32488.98
511.82	32643.45
511.99	32678.56
512.17	33048.36
512.34	32390.67
512.51	32968.79
512.69	32804.95
512.86	32779.20
513.04	33113.90
513.21	33333.91
513.38	32924.32
513.56	32849.42
513.73	33261.35
513.90	33249.65
514.08	33305.82
514.25	33373.70
514.43	33397.10
514.60	33322.21
514.77	33745.84
514.95	33813.72
515.12	33809.04
515.29	33993.94
515.47	34368.43
515.64	34541.63
515.81	33780.95
515.99	34136.71
516.16	33977.56
516.33	33811.38
516.51	34143.74
516.68	33242.63
516.85	33895.64
517.03	33984.58
517.20	34637.59
517.37	34534.60
517.54	34433.96
517.72	34506.52
517.89	34572.05
518.06	34405.88
518.24	34525.24
518.41	34656.31
518.58	34780.36
518.75	35009.73
518.93	35344.43
519.10	34991.01
519.27	34953.56
519.45	35295.28
519.62	35583.16
519.79	35569.12
519.96	35702.53
520.14	35817.22
520.31	35828.92
520.48	35974.03
520.65	35786.79
520.83	36168.30
521.00	35866.37
521.17	36044.25
521.34	36395.33
521.52	36126.17
521.69	36741.73
521.86	36645.77
522.03	36727.69
522.20	36671.51
522.38	36514.70
522.55	36512.36
522.72	36495.97
522.89	36964.08
523.07	36994.51
523.24	36680.88
523.41	37216.86
523.58	37188.77
523.75	37546.87
523.92	37392.40
524.10	37638.15
524.27	37687.31
524.44	37539.85
524.61	37596.03
524.78	37890.93
524.96	38024.34
525.13	37951.79
525.30	37919.02
525.47	38258.40
525.64	37975.19
525.81	38153.07
525.98	37572.62
526.16	38033.71
526.33	37631.13
526.50	38237.33
526.67	37394.74
526.84	37500.06
527.01	37785.61
527.18	37874.55
527.36	38352.02
527.53	38286.48
527.70	38785.02
527.87	39014.39
528.04	38565.01
528.21	38897.36
528.38	38621.18
528.55	39515.26
528.72	38873.96
528.89	39564.42
529.07	39323.34
529.24	39063.54
529.41	39037.80
529.58	39267.17
529.75	38553.30
529.92	39236.74
530.09	39648.68
530.26	39557.39
530.43	39454.41
530.60	39409.94
530.77	39573.78
530.94	39416.96
531.11	39981.03
531.28	39545.69
531.46	39592.50
531.63	40114.44
531.80	39777.40
531.97	39882.73
532.14	40048.91
532.31	39660.38
532.48	39957.63
532.65	40011.46
532.82	39798.47
532.99	40364.88
533.16	39997.41
533.33	40308.71
533.50	40498.29
533.67	40622.34
533.84	40109.76
534.01	40254.87
534.18	40779.15
534.35	40746.39
534.52	40577.87
534.69	40818.94
534.86	40872.78
535.03	40814.26
535.20	40919.59
535.37	41195.77
535.54	41181.73
535.71	41160.66
535.88	41067.04
536.05	41120.87
536.22	41125.55
536.38	41605.36
536.55	40921.93
536.72	41198.11
536.89	40779.15
537.06	41502.38
537.23	41324.50
537.40	41195.77
537.57	41207.47
537.74	41617.07
537.91	41680.26
538.08	41764.52
538.25	41378.33
538.42	41188.75
538.59	41682.60
538.75	41345.56
538.92	41680.26
539.09	41549.19
539.26	41673.24
539.43	41703.67
539.60	41963.46
539.77	41631.11
539.94	41918.99
540.11	41827.71
540.28	41659.20
540.44	41993.89
540.61	41790.27
540.78	42298.16
540.95	42157.73
541.12	42017.30
541.29	42288.80
541.46	42272.42
541.62	41867.50
541.79	42452.64
541.96	42185.82
542.13	42136.66
542.30	42192.84
542.47	42536.90
542.63	42583.71
542.80	42902.02
542.97	42906.70
543.14	42934.79
543.31	43239.06
543.48	43079.90
543.64	43592.48
543.81	43468.43
543.98	43299.91
544.15	43217.99
544.32	43388.85
544.48	43346.72
544.65	43751.63
544.82	43463.75
544.99	43042.45
545.16	43501.20
545.32	43445.02
545.49	43402.89
545.66	43772.70
545.83	43988.03
546.00	43686.10
546.16	43412.26
546.33	43330.34
546.50	43498.86
546.67	43508.22
546.83	43229.69
547.00	43765.68
547.17	43470.77
547.34	43484.81
547.50	43658.01
547.67	44498.26
547.84	43819.51
548.00	44105.06
548.17	44540.39
548.34	43662.69
548.51	44252.51
548.67	44404.64
548.84	44603.59
549.01	43744.61
549.18	44076.97
549.34	44369.54
549.51	44418.69
549.68	44727.64
549.84	44912.54
550.01	44636.36
550.18	44259.53
550.34	44091.01
550.51	44098.03
550.68	44491.24
550.84	44488.90
551.01	44514.65
551.18	44516.99
551.34	44456.14
551.51	44498.26
551.68	44737.00
551.84	44306.34
552.01	44402.30
552.18	44748.70
552.34	44465.50
552.51	44760.40
552.68	44664.44
552.84	45284.68
553.01	44952.33
553.18	44727.64
553.34	44699.55
553.51	44430.39
553.67	44989.78
553.84	45516.40
554.01	45092.76
554.17	45492.99
554.34	45181.70
554.51	45343.20
554.67	45940.04
554.84	45127.87
555.00	45787.90
555.17	45188.72
555.33	45397.03
555.50	45549.17
555.67	45542.14
555.83	45228.51
556.00	45242.56
556.16	45720.02
556.33	45518.74
556.50	45242.56
556.66	45404.05
556.83	45041.27
556.99	45394.69
557.16	45748.11
557.32	45148.93
557.49	45705.98
557.65	45095.10
557.82	45380.65
557.98	45214.47
558.15	45165.32
558.32	45998.55
558.48	45338.52
558.65	45074.04
558.81	45741.09
558.98	46181.11
559.14	45448.52
559.31	45886.20
559.47	46225.58
559.64	46094.51
559.80	45837.05
559.97	45638.11
560.13	45698.96
560.30	45937.69
560.46	45900.25
560.63	45961.10
560.79	45715.34
560.96	46183.45
561.12	46000.89
561.29	46136.64
561.45	45848.75
561.61	45947.06
561.78	46036.00
561.94	46075.79
562.11	46293.46
562.27	45949.40
562.44	45872.16
562.60	46466.66
562.77	46281.75
562.93	46230.26
563.10	46312.18
563.26	46045.36
563.42	46368.35
563.59	46263.03
563.75	46167.07
563.92	46127.28
564.08	46279.41
564.24	46174.09
564.41	46335.59
564.57	46010.25
564.74	46506.44
564.90	45998.55
565.07	46532.19
565.23	46082.81
565.39	46225.58
565.56	46679.64
565.72	46176.43
565.88	46335.59
566.05	46309.84
566.21	46871.57
566.38	46199.83
566.54	45970.46
566.70	46391.76
566.87	46703.05
567.03	46361.33
567.19	47068.17
567.36	46527.51
567.52	46038.34
567.68	46447.93
567.85	46466.66
568.01	46518.15
568.17	46026.63
568.34	46752.20
568.50	46586.02
568.66	46110.89
568.83	46461.97
568.99	46607.09
569.15	46422.19
569.32	46342.61
569.48	46211.54
569.64	46529.85
569.81	46279.41
569.97	46602.41
570.13	46206.86
570.30	45897.91
570.46	46185.79
570.62	45909.61
570.78	46237.28
570.95	46412.82
571.11	46358.99
571.27	46368.35
571.43	46480.70
571.60	46499.42
571.76	46384.74
571.92	46761.56
572.09	46183.45
572.25	46361.33
572.41	46752.20
572.57	46869.23
572.74	46916.04
572.90	47068.17
573.06	46721.77
573.22	46600.07
573.38	46403.46
573.55	46824.76
573.71	47065.83
573.87	46504.10
574.03	46176.43
574.20	46227.92
574.36	46583.68
574.52	47042.43
574.68	46923.06
574.84	46859.87
575.01	46258.35
575.17	46440.91
575.33	46571.98
575.49	45998.55
575.65	46876.25
575.82	46981.57
575.98	46686.67
576.14	46628.15
576.30	46621.13
576.46	46457.29
576.62	46426.87
576.79	46199.83
576.95	46614.11
577.11	46649.22
577.27	46660.92
577.43	46417.50
577.59	46618.79
577.75	46408.14
577.92	46085.15
578.08	46026.63
578.24	46309.84
578.40	46323.88
578.56	46546.23
578.72	46344.95
578.88	46885.61
579.04	47042.43
579.21	46375.37
579.37	46567.30
579.53	46532.19
579.69	46492.40
579.85	46714.75
580.01	47042.43
580.17	46747.52
580.33	46799.01
580.49	46546.23
580.65	46880.93
580.82	46806.03
580.98	46440.91
581.14	46522.83
581.30	46562.62
581.46	46686.67
581.62	46738.16
581.78	46745.18
581.94	47227.33
582.10	46639.86
582.26	46525.17
582.42	46677.30
582.58	46667.94
582.74	46436.23
582.90	46567.30
583.06	46607.09
583.22	46990.94
583.38	46801.35
583.54	46995.62
583.70	46852.84
583.86	46707.73
584.02	46548.57
584.18	46902.00
584.34	46789.65
584.50	46775.61
584.66	46894.97
584.82	46576.66
584.98	46897.31
585.14	46562.62
585.30	46689.01
585.46	46815.40
585.62	46532.19
585.78	46712.41
585.94	46443.25
586.10	46508.79
586.26	46581.34
586.42	47070.51
586.58	47248.39
586.74	46567.30
586.90	46852.84
587.06	46461.97
587.22	47047.11
587.38	46209.20
587.54	46625.81
587.70	47136.05
587.86	46794.33
588.02	46813.05
588.18	47033.07
588.34	46419.84
588.49	46469.00
588.65	46239.62
588.81	46632.83
588.97	46237.28
589.13	46391.76
589.29	46628.15
589.45	46703.05
589.61	46686.67
589.77	47042.43
589.93	46677.30
590.08	46499.42
590.24	46583.68
590.40	46824.76
590.56	47138.39
590.72	46827.10
590.88	46288.77
591.04	46782.63
591.20	47042.43
591.35	47168.82
591.51	47297.55
591.67	47159.45
591.83	46583.68
591.99	46958.17
592.15	46628.15
592.31	46749.86
592.46	47166.48
592.62	47016.68
592.78	46906.68
592.94	47367.76
593.10	46862.21
593.26	46843.48
593.41	47061.15
593.57	46705.39
593.73	46520.49
593.89	46869.23
594.05	46880.93
594.20	46548.57
594.36	47140.73
594.52	47054.13
594.68	46986.25
594.84	46836.46
594.99	47143.07
595.15	46831.78
595.31	46948.81
595.47	46904.34
595.62	46745.18
595.78	47281.16
595.94	47426.28
596.10	47339.68
596.25	47063.49
596.41	47400.53
596.57	47002.64
596.73	47278.82
596.88	46932.42
597.04	47175.84
597.20	46850.50
597.36	46983.91
597.51	47152.43
597.67	47208.61
597.83	47159.45
597.99	47058.81
598.14	47072.85
598.30	47229.67
598.46	46878.59
598.61	46862.21
598.77	46855.18
598.93	46780.29
599.09	46927.74
599.24	47320.95
599.40	47320.95
599.56	47236.69
599.71	47353.72
599.87	47508.19
600.03	47309.25
600.18	47192.22
600.34	46911.36
600.50	47019.02
600.65	47236.69
600.81	47168.82
600.97	47267.12
601.12	47318.61
601.28	47232.01
601.44	46644.54
601.59	46951.15
601.75	46789.65
601.91	47058.81
602.06	46232.60
602.22	46873.91
602.37	46759.22
602.53	46625.81
602.69	46972.21
602.84	47112.64
603.00	46424.53
603.16	46990.94
603.31	46784.97
603.47	46824.76
603.62	46899.65
603.78	47299.89
603.94	46958.17
604.09	47381.80
604.25	46696.03
604.40	46712.41
604.56	46951.15
604.71	46602.41
604.87	46602.41
605.03	46902.00
605.18	46588.36
605.34	46726.46
605.49	46953.49
605.65	47452.02
605.80	47021.36
605.96	46632.83
606.12	47063.49
606.27	46663.26
606.43	46646.88
606.58	47016.68
606.74	46944.12
606.89	46887.95
607.05	46836.46
607.20	46693.69
607.36	46766.24
607.51	47009.66
607.67	46925.40
607.82	46789.65
607.98	46747.52
608.13	46438.57
608.29	46855.18
608.44	46356.65
608.60	46342.61
608.75	46237.28
608.91	46431.55
609.06	46550.91
609.22	46777.95
609.37	45949.40
609.53	46717.09
609.68	46740.50
609.84	46485.38
609.99	46660.92
610.15	46518.15
610.30	46529.85
610.46	46209.20
610.61	46176.43
610.76	46452.61
610.92	46171.75
611.07	46679.64
611.23	46295.80
611.38	46204.52
611.54	45794.92
611.69	46192.81
611.84	45862.80
612.00	45904.93
612.15	46061.74
612.31	46167.07
612.46	46188.13
612.62	46223.24
612.77	46508.79
612.92	46375.37
613.08	45673.21
613.23	46078.13
613.39	45893.22
613.54	45691.94
613.69	45621.72
613.85	45869.82
614.00	46253.67
614.15	46000.89
614.31	46122.60
614.46	46555.60
614.62	46174.09
614.77	45696.62
614.92	45425.12
615.08	45500.01
615.23	46007.91
615.38	45736.41
615.54	45380.65
615.69	45668.53
615.84	45624.06
616.00	45663.85
616.15	45659.17
616.30	45387.67
616.46	45748.11
616.61	45144.25
616.76	45820.67
616.92	45373.63
617.07	45785.56
617.22	45680.24
617.37	45193.40
617.53	45507.04
617.68	45792.58
617.83	45291.71
617.99	45502.35
618.14	45380.65
618.29	45090.42
618.45	45170.00
618.60	45441.50
618.75	45104.46
618.90	45158.30
619.06	45434.48
619.21	45134.89
619.36	45436.82
619.51	45415.76
619.67	45399.37
619.82	45549.17
619.97	45017.86
620.12	44884.45
620.28	44493.58
620.43	44729.98
620.58	44886.79
620.73	44797.85
620.89	44837.64
621.04	44851.69
621.19	44942.97
621.34	45109.14
621.49	44584.86
621.65	45268.30
621.80	45097.44
621.95	44568.48
622.10	44573.16
622.25	44652.74
622.41	44587.21
622.56	44083.99
622.71	44870.41
622.86	44320.38
623.01	44837.64
623.16	44374.22
623.32	44566.14
623.47	44629.34
623.62	44645.72
623.77	44425.71
623.92	44418.69
624.07	44158.89
624.23	44046.54
624.38	43847.60
624.53	44114.42
624.68	44219.74
624.83	44151.87
624.98	44458.48
625.13	44463.16
625.29	44041.86
625.44	44041.86
625.59	44119.10
625.74	43831.21
625.89	43683.76
626.04	43849.94
626.19	44161.23
626.34	44163.57
626.49	44004.41
626.65	43608.86
626.80	43854.62
626.95	43847.60
627.10	43328.00
627.25	43416.94
627.40	43093.94
627.55	42841.17
627.70	43152.46
627.85	42953.51
628.00	43482.47
628.15	43599.50
628.30	43107.99
628.45	43812.49
628.60	43187.56
628.76	43571.41
628.91	43679.08
629.06	43402.89
629.21	43419.28
629.36	43285.87
629.51	42979.26
629.66	42990.96
629.81	43072.88
629.96	43473.11
630.11	43442.68
630.26	43187.56
630.41	43182.88
630.56	43009.68
630.71	42873.93
630.86	42850.53
631.01	43236.72
631.16	42869.25
631.31	42595.41
631.46	42204.54
631.61	42721.80
631.76	42611.79
631.91	42646.90
632.06	42815.42
632.21	43260.12
632.36	43337.36
632.51	42859.89
632.66	42918.40
632.81	42609.45
632.96	42749.88
633.10	42607.11
633.25	42167.09
633.40	42689.03
633.55	42738.18
633.70	42436.25
633.85	42176.45
634.00	42480.72
634.15	42321.57
634.30	42312.20
634.45	42068.79
634.60	42169.43
634.75	42555.62
634.90	42852.87
635.05	42251.35
635.19	42417.53
635.34	42632.86
635.49	42380.08
635.64	42302.84
635.79	42040.70
635.94	41837.08
636.09	42220.92
636.24	42059.43
636.39	42251.35
636.53	41837.08
636.68	41900.27
636.83	41783.24
636.98	41783.24
637.13	41434.50
637.28	42017.30
637.43	41907.29
637.57	42003.25
637.72	42223.26
637.87	42043.04
638.02	41399.40
638.17	42019.64
638.32	41874.52
638.46	41944.74
638.61	41727.07
638.76	41354.93
638.91	41319.82
639.06	41584.30
639.20	41457.91
639.35	41780.90
639.50	41366.63
639.65	41640.47
639.80	41914.31
639.94	41535.15
640.09	41368.97
640.24	41310.46
640.39	41163.00
640.54	41324.50
640.68	41209.81
640.83	41670.90
640.98	41099.81
641.13	41273.01
641.27	41195.77
641.42	40842.35
641.57	41001.50
641.72	41406.42
641.86	40779.15
642.01	40781.49
642.16	40989.80
642.31	40683.19
642.45	41048.32
642.60	40357.86
642.75	40556.80
642.90	40519.35
643.04	40978.10
643.19	41003.85
643.34	41390.03
643.48	40748.73
643.63	40547.44
643.78	40971.08
643.93	40631.70
644.07	40772.13
644.22	40545.10
644.37	40432.75
644.51	40144.87
644.66	40287.64
644.81	40374.24
644.95	40989.80
645.10	40456.16
645.25	41027.25
645.39	40575.53
645.54	40793.20
645.69	40306.37
645.83	40451.48
645.98	40107.42
646.13	40701.92
646.27	40072.31
646.42	40395.31
646.57	40449.14
646.71	39976.35
646.86	40381.26
647.00	40620.00
647.15	40105.08
647.30	40449.14
647.44	39849.96
647.59	39931.88
647.74	39842.94
647.88	39651.02
648.03	39861.66
648.17	39702.51
648.32	39789.11
648.47	40198.70
648.61	39693.15
648.76	39831.24
648.90	39690.80
649.05	39732.93
649.20	39566.76
649.34	39875.71
649.49	39756.34
649.63	39711.87
649.78	39688.46
649.92	39566.76
650.07	39749.32
650.21	39426.32
650.36	39604.20
650.51	39533.99
650.65	40128.48
650.80	40034.86
650.94	39599.52
651.09	39901.45
651.23	39311.64
651.38	39356.11
651.52	38993.32
651.67	39239.08
651.81	39505.90
651.96	38927.79
652.10	39208.65
652.25	39456.75
652.39	38979.28
652.54	38979.28
652.68	39316.32
652.83	39033.11
652.97	39789.11
653.12	39058.86
653.26	39445.05
653.41	39063.54
653.55	38913.75
653.70	38770.97
653.84	38827.15
653.99	39243.76
654.13	38998.01
654.27	38700.76
654.42	38946.51
654.56	38770.97
654.71	38927.79
654.85	38651.61
655.00	39260.15
655.14	38469.04
655.29	38174.14
655.43	38548.62
655.57	37919.02
655.72	38256.06
655.86	38227.97
656.01	38256.06
656.15	37869.87
656.30	38139.03
656.44	38068.81
656.58	38272.44
656.73	38155.41
656.87	38225.63
657.01	38092.22
657.16	37989.24
657.30	37862.85
657.45	37965.83
657.59	38127.33
657.73	37717.73
657.88	38234.99
658.02	37954.13
658.16	38117.96
658.31	38199.88
658.45	38380.10
658.60	38066.47
658.74	37764.54
658.88	37502.40
659.03	37647.52
659.17	37970.51
659.31	37759.86
659.46	37893.27
659.60	37853.48
659.74	37647.52
659.89	37284.73
660.03	37099.83
660.17	37879.23
660.32	37654.54
660.46	37404.10
660.60	37275.37
660.74	37600.71
660.89	37507.08
661.03	36758.11
661.17	37268.35
661.32	36767.48
661.46	37331.54
661.60	36994.51
661.74	36982.80
661.89	37123.24
662.03	36889.18
662.17	36971.10
662.31	36744.07
662.46	36973.44
662.60	36966.42
662.74	36931.31
662.88	36687.90
663.03	36645.77
663.17	36418.74
663.31	36142.55
663.45	36683.22
663.60	36804.92
663.74	36130.85
663.88	36044.25
664.02	36180.00
664.17	36353.20
664.31	35894.46
664.45	35655.72
664.59	35913.18
664.73	36259.58
664.88	35571.46
665.02	35784.45
665.16	36088.72
665.30	35723.60
665.44	35695.51
665.59	35487.20
665.73	35548.06
665.87	35505.93
666.01	35388.90
666.15	35227.40
666.29	35660.40
666.44	35618.27
666.58	35000.37
666.72	35311.66
666.86	35442.73
667.00	35718.92
667.14	34562.69
667.28	35257.83
667.43	34787.38
667.57	35000.37
667.71	34462.05
667.85	35093.99
667.99	34356.72
668.13	34747.59
668.27	34452.69
668.41	34991.01
668.56	34307.57
668.70	34546.31
668.84	34377.79
668.98	34089.90
669.12	34565.03
669.26	34244.38
669.40	34164.80
669.54	34178.84
669.68	34085.22
669.82	34092.24
669.96	33874.57
670.10	33560.94
670.25	34064.16
670.39	33783.29
670.53	33823.08
670.67	33502.43
670.81	33759.89
670.95	33584.35
671.09	34019.69
671.23	33680.31
671.37	33694.35
671.51	33443.91
671.65	33319.87
671.79	33289.44
671.93	33092.83
672.07	33340.93
672.21	33179.43
672.35	32484.30
672.49	32982.83
672.63	33413.49
672.77	32936.02
672.91	32816.65
673.05	32774.52
673.19	32519.40
673.33	32645.79
673.47	32641.11
673.61	32280.67
673.75	32598.98
673.89	31835.97
674.03	31927.25
674.17	31871.07
674.31	32002.14
674.45	32273.65
674.59	31693.19
674.73	32294.71
674.87	31594.89
675.01	31608.93
675.15	32016.19
675.29	31519.99
675.43	31618.30
675.56	31491.91
675.70	31571.49
675.84	30937.20
675.98	30225.68
676.12	30609.53
676.26	30859.96
676.40	30698.47
676.54	30684.42
676.68	30780.39
676.82	29869.92
676.96	30672.72
677.10	30464.41
677.23	30178.87
677.37	30356.75
677.51	30361.43
677.65	30352.07
677.79	30012.69
677.93	30071.20
678.07	30157.80
678.21	29270.74
678.34	29635.86
678.48	29516.50
678.62	29516.50
678.76	29254.36
678.90	29404.15
679.04	29483.73
679.18	29355.00
679.31	29085.84
679.45	28734.76
679.59	28875.19
679.73	28833.06
679.87	28692.63
680.00	28627.09
680.14	28687.95
680.28	28386.02
680.42	28339.21
680.56	28327.50
680.70	28011.53
680.83	28149.62
680.97	27948.34
681.11	28088.77
681.25	27639.39
681.39	28006.85
681.52	28114.52
681.66	27541.08
681.80	27267.24
681.94	27735.35
682.07	27426.40
682.21	27489.59
682.35	27157.24
682.49	27091.70
682.62	27115.11
682.76	26745.30
682.90	26859.99
683.04	26927.86
683.17	26909.14
683.31	26295.92
683.45	26649.34
683.59	26260.81
683.72	26221.02
683.86	26087.61
684.00	26118.04
684.13	26188.25
684.27	26321.66
684.41	26169.53
684.55	25659.29
684.68	25708.44
684.82	25720.15
684.96	25214.59
685.09	25275.45
685.23	25254.38
685.37	25032.03
685.50	25458.01
685.64	25305.87
685.78	24926.71
685.91	25216.93
686.05	25116.29
686.19	24807.34
686.32	24812.02
686.46	24421.15
686.60	23857.08
686.73	23981.13
686.87	23709.63
687.01	23583.24
687.14	23372.59
687.28	23756.44
687.42	23534.09
687.55	23456.85
687.69	23576.22
687.82	23534.09
687.96	23447.49
688.10	23513.02
688.23	23009.81
688.37	22771.07
688.50	22995.76
688.64	22878.74
688.78	22766.39
688.91	22735.96
689.05	22827.24
689.18	22457.44
689.32	22274.88
689.46	22656.39
689.59	22490.21
689.73	22572.13
689.86	22244.45
690.00	22099.34
690.13	22532.34
690.27	22155.51
690.41	22223.39
690.54	21645.27
690.68	21582.08
690.81	21612.51
690.95	21511.86
691.08	21701.45
691.22	21816.13
691.35	21553.99
691.49	21247.38
691.62	21202.91
691.76	21298.88
691.89	21385.47
692.03	21113.97
692.16	21223.98
692.30	20854.17
692.43	20613.10
692.57	20634.16
692.70	20931.41
692.84	20599.05
692.97	20713.74
693.11	20615.44
693.24	20297.13
693.38	20119.24
693.51	20144.99
693.65	20372.02
693.78	20205.84
693.92	20217.55
694.05	19831.36
694.19	19583.26
694.32	19480.28
694.45	19948.39
694.59	19578.58
694.72	19248.57
694.86	19339.85
694.99	18808.54
695.13	19278.99
695.26	18630.66
695.39	19192.39
695.53	18829.61
695.66	18937.27
695.80	18897.49
695.93	18284.26
696.07	18555.77
696.20	18761.73
696.33	18986.43
696.47	18637.69
696.60	18665.77
696.73	18576.83
696.87	18169.58
697.00	18120.43
697.14	18204.69
697.27	17937.87
697.40	17937.87
697.54	17771.69
697.67	17748.28
697.80	17500.19
697.94	17858.29
698.07	17547.00
698.21	17345.71
698.34	17507.21
698.47	17177.19
698.61	16954.84
698.74	16959.52
698.87	17064.85
699.01	17029.74
699.14	16741.85
699.27	16844.84
699.40	16760.58
699.54	16517.16
699.67	16430.56
699.80	16676.32
699.94	16540.57
700.07	16428.22
700.20	16222.25
700.34	16128.63
700.47	16191.83
700.60	16088.84
700.73	16173.10
700.87	16212.89
701.00	16137.99
701.13	16161.40
701.26	16084.16
701.40	15728.40
701.53	15847.77
701.66	15796.28
701.79	15445.20
701.93	15286.04
702.06	15206.46
702.19	15255.61
702.32	15131.56
702.46	15094.11
702.59	15267.31
702.72	15021.56
702.85	14885.81
702.99	15115.18
703.12	15197.10
703.25	14899.85
703.38	14909.21
703.51	14499.62
703.65	14623.67
703.78	14874.10
703.91	14471.53
704.04	14565.15
704.17	14129.81
704.31	14354.51
704.44	14209.39
704.57	13940.23
704.70	13926.19
704.83	14003.43
704.96	14129.81
705.10	14181.31
705.23	14136.84
>>>>>End Processed Spectral Data<<<<<
