SpectraSuite Data File
++++++++++++++++++++++++++++++++++++
Date: Fri Oct 25 10:46:53 EDT 2013
User: price-jones
Dark Spectrum Present: No
Reference Spectrum Present: No
Number of Sampled Component Spectra: 1
Spectrometers: USB2+H05261
Integration Time (usec): 100000 (USB2+H05261)
Spectra Averaged: 1 (USB2+H05261)
Boxcar Smoothing: 0 (USB2+H05261)
Correct for Electrical Dark: No (USB2+H05261)
Strobe/Lamp Enabled: No (USB2+H05261)
Correct for Detector Non-linearity: No (USB2+H05261)
Correct for Stray Light: No (USB2+H05261)
Number of Pixels in Processed Spectrum: 2048
>>>>>Begin Processed Spectral Data<<<<<
365.73	131.07
365.92	131.07
366.12	131.07
366.32	23.41
366.52	32.77
366.72	72.56
366.91	0.00
367.11	32.77
367.31	32.77
367.51	39.79
367.70	21.06
367.90	25.75
368.10	35.11
368.30	18.72
368.49	0.00
368.69	0.00
368.89	21.06
369.09	51.49
369.28	14.04
369.48	105.32
369.68	74.90
369.87	131.07
370.07	93.62
370.27	117.03
370.47	163.84
370.66	332.36
370.86	461.09
371.06	512.58
371.25	540.66
371.45	362.78
371.65	458.74
371.84	500.87
372.04	425.98
372.24	437.68
372.44	454.06
372.63	517.26
372.83	564.07
373.03	514.92
373.22	517.26
373.42	496.19
373.62	447.04
373.81	503.22
374.01	599.18
374.21	575.77
374.40	505.56
374.60	566.41
374.79	589.82
374.99	568.75
375.19	547.69
375.38	552.37
375.58	533.64
375.78	561.73
375.97	552.37
376.17	496.19
376.37	636.63
376.56	645.99
376.76	685.78
376.95	615.56
377.15	596.84
377.35	608.54
377.54	685.78
377.74	613.22
377.93	718.54
378.13	695.14
378.33	674.07
378.52	681.10
378.72	692.80
378.91	706.84
379.11	648.33
379.31	690.46
379.50	706.84
379.70	629.60
379.89	613.22
380.09	657.69
380.28	685.78
380.48	657.69
380.68	669.39
380.87	678.76
381.07	634.29
381.26	741.95
381.46	643.65
381.65	770.04
381.85	657.69
382.04	730.25
382.24	653.01
382.43	720.88
382.63	730.25
382.83	709.18
383.02	748.97
383.22	791.10
383.41	744.29
383.61	615.56
383.80	816.85
384.00	795.78
384.19	760.67
384.39	837.91
384.58	823.87
384.78	805.14
384.97	788.76
385.17	837.91
385.36	847.27
385.56	819.19
385.75	814.51
385.95	847.27
386.14	898.77
386.34	779.40
386.53	732.59
386.72	798.12
386.92	847.27
387.11	830.89
387.31	875.36
387.50	828.55
387.70	826.21
387.89	854.30
388.09	823.87
388.28	873.02
388.48	945.58
388.67	901.11
388.86	908.13
389.06	901.11
389.25	938.55
389.45	940.90
389.64	943.24
389.84	1011.11
390.03	1006.43
390.22	994.73
390.42	1104.73
390.61	1008.77
390.81	959.62
391.00	1013.45
391.19	1036.86
391.39	1074.31
391.58	1008.77
391.78	994.73
391.97	1041.54
392.16	931.53
392.36	1081.33
392.55	1004.09
392.75	1081.33
392.94	1013.45
393.13	978.34
393.33	1048.56
393.52	1057.92
393.71	1043.88
393.91	1097.71
394.10	1144.52
394.29	1050.90
394.49	1121.12
394.68	1179.63
394.88	1156.22
395.07	1221.76
395.26	1217.08
395.46	1198.35
395.65	1210.06
395.84	1240.48
396.04	1205.38
396.23	1167.93
396.42	1165.59
396.62	1172.61
396.81	1245.16
397.00	1174.95
397.19	1350.49
397.39	1320.06
397.58	1455.81
397.77	1327.08
397.97	1385.60
398.16	1425.39
398.35	1437.09
398.55	1394.96
398.74	1355.17
398.93	1483.90
399.12	1427.73
399.32	1495.60
399.51	1411.34
399.70	1535.39
399.90	1563.48
400.09	1589.22
400.28	1509.65
400.47	1586.88
400.67	1596.25
400.86	1607.95
401.05	1547.09
401.24	1671.14
401.44	1668.80
401.63	1603.27
401.82	1717.95
402.01	1577.52
402.21	1743.70
402.40	1685.19
402.59	1778.81
402.78	1657.10
402.97	1797.53
403.17	1680.50
403.36	1717.95
403.55	1769.44
403.74	1832.64
403.93	1804.55
404.13	1809.23
404.32	1750.72
404.51	1778.81
404.70	1926.26
404.89	1853.70
405.09	1912.22
405.28	1830.30
405.47	1816.26
405.66	1846.68
405.85	1879.45
406.05	1937.96
406.24	2031.58
406.43	1940.30
406.62	1977.75
406.81	2008.18
407.00	2017.54
407.20	2017.54
407.39	2019.88
407.58	2104.14
407.77	2122.87
407.96	2132.23
408.15	2141.59
408.34	2218.83
408.54	2298.41
408.73	2132.23
408.92	2230.53
409.11	2214.15
409.30	2279.68
409.49	2172.02
409.68	2260.96
409.87	2333.51
410.07	2246.91
410.26	2420.11
410.45	2270.32
410.64	2293.72
410.83	2413.09
411.02	2392.03
411.21	2520.76
411.40	2445.86
411.59	2583.95
411.78	2396.71
411.98	2548.84
412.17	2612.04
412.36	2574.59
412.55	2609.70
412.74	2698.64
412.93	2700.98
413.12	2600.34
413.31	2672.89
413.50	2778.22
413.69	2747.79
413.88	2794.60
414.07	2773.53
414.26	2787.58
414.45	2780.56
414.64	2876.52
414.83	2895.24
415.02	3052.06
415.22	2930.35
415.41	3066.10
415.60	3005.25
415.79	2995.89
415.98	3059.08
416.17	3059.08
416.36	3255.69
416.55	3129.30
416.74	3166.74
416.93	3276.75
417.12	3222.92
417.31	3213.56
417.50	3346.97
417.69	3419.52
417.88	3361.01
418.07	3426.54
418.26	3283.77
418.45	3396.12
418.64	3637.19
418.83	3297.81
419.02	3527.19
419.21	3543.57
419.39	3433.57
419.58	3449.95
419.77	3419.52
419.96	3447.61
420.15	3571.66
420.34	3723.79
420.53	3641.87
420.72	3681.66
420.91	3641.87
421.10	3719.11
421.29	3772.94
421.48	3623.15
421.67	3798.69
421.86	3686.34
422.05	3770.60
422.24	3585.70
422.43	3691.02
422.61	3782.31
422.80	3789.33
422.99	3749.54
423.18	3831.46
423.37	3950.82
423.56	3859.54
423.75	3889.97
423.94	3719.11
424.13	3524.85
424.32	3651.24
424.50	3925.08
424.69	3936.78
424.88	3908.69
425.07	3812.73
425.26	3726.13
425.45	3815.07
425.64	3817.41
425.83	3875.93
426.01	4002.32
426.20	3911.04
426.39	3817.41
426.58	3906.35
426.77	3920.40
426.96	3852.52
427.15	3943.80
427.33	3894.65
427.52	3899.33
427.71	4007.00
427.90	4152.11
428.09	4098.28
428.28	3971.89
428.46	4163.81
428.65	4049.13
428.84	4077.21
429.03	4189.56
429.22	4154.45
429.40	4100.62
429.59	4028.06
429.78	3845.50
429.97	3969.55
430.16	4004.66
430.34	4046.79
430.53	4219.99
430.72	4273.82
430.91	4212.96
431.10	4217.65
431.28	4337.01
431.47	4449.36
431.66	4606.17
431.85	4337.01
432.03	4580.43
432.22	4557.02
432.41	4547.66
432.60	4484.47
432.79	4582.77
432.97	4554.68
433.16	4582.77
433.35	4517.23
433.54	4547.66
433.72	4535.96
433.91	4662.35
434.10	4645.96
434.28	4648.30
434.47	4727.88
434.66	4851.93
434.85	4704.48
435.03	4873.00
435.22	4823.84
435.41	4833.21
435.59	4912.78
435.78	4954.91
435.97	4894.06
436.16	4835.55
436.34	5071.94
436.53	4950.23
436.72	4999.38
436.90	4966.62
437.09	5018.11
437.28	4947.89
437.46	5118.75
437.65	5167.90
437.84	5060.24
438.02	5046.20
438.21	5104.71
438.40	5032.15
438.58	5338.76
438.77	5301.31
438.96	5336.42
439.14	5282.59
439.33	5483.88
439.52	5514.30
439.70	5540.05
439.89	5488.56
440.08	5650.05
440.26	5563.45
440.45	5455.79
440.63	5729.63
440.82	5741.33
441.01	5879.43
441.19	5809.21
441.38	5921.56
441.57	5921.56
441.75	5989.43
441.94	6071.35
442.12	6186.04
442.31	6164.97
442.50	6125.18
442.68	6267.95
442.87	6090.07
443.05	6190.72
443.24	6291.36
443.43	6434.13
443.61	6160.29
443.80	6340.51
443.98	6242.21
444.17	6097.10
444.35	6349.87
444.54	6321.79
444.73	6225.82
444.91	6417.75
445.10	6368.60
445.28	6274.98
445.47	6516.05
445.65	6277.32
445.84	6436.47
446.02	6427.11
446.21	6340.51
446.39	6293.70
446.58	6466.90
446.77	6473.92
446.95	6310.08
447.14	6431.79
447.32	6628.40
447.51	6560.52
447.69	6333.49
447.88	6487.96
448.06	6424.77
448.25	6600.31
448.43	6539.46
448.62	6668.19
448.80	6558.18
448.99	6576.91
449.17	6565.20
449.36	6675.21
449.54	6825.00
449.73	6874.15
449.91	6740.74
450.10	6995.86
450.28	7033.31
450.46	7012.24
450.65	6979.48
450.83	7077.78
451.02	7077.78
451.20	7030.97
451.39	7143.32
451.57	7014.59
451.76	6953.73
451.94	7026.29
452.13	7066.08
452.31	6944.37
452.49	6913.94
452.68	7166.72
452.86	7035.65
453.05	6925.65
453.23	6932.67
453.42	6895.22
453.60	7239.28
453.78	7314.17
453.97	7026.29
454.15	7314.17
454.34	7180.76
454.52	7424.18
454.70	7485.03
454.89	7297.79
455.07	7370.35
455.26	7307.15
455.44	7372.69
455.62	7412.48
455.81	7454.61
455.99	7613.76
456.17	7796.32
456.36	7569.29
456.54	7721.43
456.73	7737.81
456.91	7894.63
457.09	7779.94
457.28	7997.61
457.46	7833.77
457.64	7985.91
457.83	7822.07
458.01	7768.24
458.19	7988.25
458.38	8114.64
458.56	7887.61
458.74	7974.21
458.93	8042.08
459.11	8070.17
459.29	7950.80
459.48	7889.95
459.66	8088.89
459.84	8280.82
460.03	8278.47
460.21	8250.39
460.39	8304.22
460.57	8294.86
460.76	8383.80
460.94	8486.78
461.12	8292.52
461.31	8638.92
461.49	8533.59
461.67	8500.83
461.85	8641.26
462.04	8416.57
462.22	8830.84
462.40	8683.39
462.59	8634.24
462.77	8638.92
462.95	8627.21
463.13	8601.47
463.32	8751.26
463.50	8844.88
463.68	8692.75
463.86	8795.73
464.05	8737.22
464.23	8589.77
464.41	8798.07
464.59	8622.53
464.78	8959.57
464.96	8870.63
465.14	8861.27
465.32	8924.46
465.50	9156.18
465.69	9008.72
465.87	8887.01
466.05	9039.15
466.23	9039.15
466.41	8954.89
466.60	9226.39
466.78	8959.57
466.96	9130.43
467.14	8891.70
467.32	9238.09
467.51	9338.74
467.69	9027.45
467.87	9055.53
468.05	9263.84
468.23	9263.84
468.41	9114.05
468.60	9226.39
468.78	9334.06
468.96	9298.95
469.14	9551.73
469.32	9563.43
469.50	9217.03
469.69	9483.85
469.87	9556.41
470.05	9809.19
470.23	9682.80
470.41	9547.05
470.59	9645.35
470.77	9554.07
470.95	9680.46
471.14	9851.31
471.32	9521.30
471.50	9977.70
471.68	10031.54
471.86	10122.82
472.04	10068.98
472.22	10310.06
472.40	9973.02
472.58	10141.54
472.77	10162.61
472.95	10237.50
473.13	10628.37
473.31	10094.73
473.49	10235.16
473.67	10370.91
473.85	10361.55
474.03	10806.25
474.21	10689.23
474.39	10747.74
474.57	10782.85
474.75	10892.85
474.93	11016.90
475.12	11063.71
475.30	11075.42
475.48	10953.71
475.66	11077.76
475.84	11040.31
476.02	11091.80
476.20	11063.71
476.38	11286.06
476.56	11686.29
476.74	11459.26
476.92	11456.92
477.10	11562.25
477.28	11845.45
477.46	11850.13
477.64	12112.27
477.82	12084.19
478.00	12077.16
478.18	12173.13
478.36	12224.62
478.54	12187.17
478.72	12521.87
478.90	12620.17
479.08	12662.30
479.26	13076.57
479.44	12837.84
479.62	12807.41
479.80	13032.10
479.98	12961.89
480.16	13062.53
480.34	13315.31
480.52	13490.85
480.70	13476.80
480.88	13238.07
481.06	13413.61
481.24	13624.26
481.41	13984.70
481.59	14087.68
481.77	14019.81
481.95	14183.65
482.13	14345.14
482.31	14249.18
482.49	14504.30
482.67	14478.55
482.85	14497.28
483.03	14972.41
483.21	15023.90
483.39	14956.02
483.57	15051.99
483.74	15147.95
483.92	15110.50
484.10	15365.62
484.28	15477.96
484.46	15583.29
484.64	16107.57
484.82	15653.50
485.00	15819.68
485.18	15999.90
485.35	16091.18
485.53	16046.71
485.71	15957.77
485.89	16299.49
486.07	16121.61
486.25	16556.95
486.43	16507.80
486.61	16608.44
486.78	17015.69
486.96	17041.44
487.14	17376.14
487.32	17497.84
487.50	17418.27
487.68	17905.10
487.85	18012.76
488.03	18043.19
488.21	18338.10
488.39	17975.31
488.57	18476.19
488.75	18665.77
488.92	18665.77
489.10	18998.13
489.28	18853.02
489.46	19215.80
489.64	19227.50
489.81	19768.16
489.99	19627.73
490.17	19723.69
490.35	19831.36
490.53	19735.40
490.70	19585.60
490.88	20341.60
491.06	20531.18
491.24	20311.17
491.41	20425.86
491.59	20329.89
491.77	20280.74
491.95	20823.75
492.13	20929.07
492.30	20971.20
492.48	21193.55
492.66	21338.66
492.84	21303.56
493.01	21577.40
493.19	21699.11
493.37	21900.39
493.54	21926.14
493.72	22104.02
493.90	21977.63
494.08	22324.03
494.25	22614.26
494.43	22494.89
494.61	22871.72
494.79	22988.74
494.96	23152.58
495.14	22707.88
495.32	23349.18
495.49	23524.72
495.67	23431.10
495.85	23742.39
496.02	23997.51
496.20	23793.89
496.38	24056.03
496.55	24081.77
496.73	24493.71
496.91	24201.14
497.09	24233.91
497.26	24573.28
497.44	24723.08
497.62	24334.55
497.79	24563.92
497.97	24519.45
498.14	25380.77
498.32	24980.54
498.50	25235.66
498.67	25390.13
498.85	25294.17
499.03	25961.22
499.20	25612.48
499.38	25926.11
499.56	25516.52
499.73	25993.99
499.91	25832.49
500.08	26071.23
500.26	25965.90
500.44	26277.19
500.61	25954.20
500.79	26328.69
500.97	26354.43
501.14	26717.22
501.32	26614.23
501.49	26721.90
501.67	26309.96
501.84	27005.10
502.02	26752.32
502.20	27122.13
502.37	27353.84
502.55	27435.76
502.72	27754.07
502.90	27606.62
503.07	27653.43
503.25	27552.79
503.43	27566.83
503.60	27770.46
503.78	27742.37
503.95	27625.34
504.13	27835.99
504.30	28168.35
504.48	28158.99
504.65	28287.71
504.83	28540.49
505.01	28535.81
505.18	29111.58
505.36	29024.98
505.53	29020.30
505.71	29041.37
505.88	28940.72
506.06	28882.21
506.23	29275.42
506.41	29060.09
506.58	29064.77
506.76	28978.17
506.93	29483.73
507.11	29631.18
507.28	29797.36
507.46	29439.26
507.63	29486.07
507.81	29916.73
507.98	29912.05
508.16	29916.73
508.33	30064.18
508.50	30260.79
508.68	30143.76
508.85	30501.86
509.03	30422.28
509.20	30628.25
509.38	30866.98
509.55	30855.28
509.73	30764.00
509.90	30981.67
510.08	30885.71
510.25	31021.46
510.42	31349.14
510.60	31105.72
510.77	31229.77
510.95	31805.54
511.12	31393.61
511.30	31316.37
511.47	31578.51
511.64	31945.97
511.82	32165.98
511.99	31887.46
512.17	31964.70
512.34	31435.74
512.51	32037.25
512.69	31969.38
512.86	31957.67
513.04	32737.07
513.21	32074.70
513.38	32498.34
513.56	32638.77
513.73	32133.21
513.90	32734.73
514.08	32458.55
514.25	32641.11
514.43	32587.28
514.60	32570.90
514.77	33106.88
514.95	33134.96
515.12	33153.69
515.29	33137.30
515.47	33804.36
515.64	33111.56
515.81	32821.33
515.99	33436.89
516.16	33509.45
516.33	33364.34
516.51	33507.11
516.68	33064.75
516.85	32788.56
517.03	33406.47
517.20	33565.62
517.37	33546.90
517.54	34202.25
517.72	34141.39
517.89	33560.94
518.06	33558.60
518.24	34251.40
518.41	33769.25
518.58	34471.41
518.75	34267.78
518.93	34443.32
519.10	34129.69
519.27	34473.75
519.45	34562.69
519.62	35007.39
519.79	34691.42
519.96	34838.87
520.14	35276.55
520.31	35040.16
520.48	35037.82
520.65	35037.82
520.83	35541.03
521.00	35512.95
521.17	35639.34
521.34	35489.54
521.52	36187.02
521.69	35496.56
521.86	35962.33
522.03	35498.91
522.20	35667.42
522.38	35803.17
522.55	36084.04
522.72	35615.93
522.89	35885.09
523.07	36219.79
523.24	35833.60
523.41	36734.71
523.58	35988.08
523.75	36706.62
523.92	36786.20
524.10	36835.35
524.27	36865.78
524.44	36765.14
524.61	37167.71
524.78	37003.87
524.96	37067.06
525.13	37151.32
525.30	37490.70
525.47	37766.88
525.64	36870.46
525.81	37186.43
525.98	37275.37
526.16	37034.30
526.33	36884.50
526.50	37521.13
526.67	36779.18
526.84	37230.90
527.01	37008.55
527.18	37460.27
527.36	37752.84
527.53	37514.11
527.70	38380.10
527.87	37930.72
528.04	37926.04
528.21	37811.35
528.38	37965.83
528.55	37921.36
528.72	38412.87
528.89	38604.80
529.07	37928.38
529.24	38377.76
529.41	38347.34
529.58	38270.10
529.75	38330.95
529.92	38733.53
530.09	38490.11
530.26	38773.31
530.43	38866.94
530.60	38806.08
530.77	38834.17
530.94	38864.60
531.11	38731.18
531.28	38738.21
531.46	39061.20
531.63	39742.30
531.80	38845.87
531.97	39007.37
532.14	39112.69
532.31	38827.15
532.48	38911.41
532.65	39426.32
532.82	39220.36
532.99	39590.16
533.16	39194.61
533.33	39098.65
533.50	39241.42
533.67	39941.24
533.84	39583.14
534.01	39700.17
534.18	39400.58
534.35	39868.69
534.52	40069.97
534.69	40116.78
534.86	40659.79
535.03	39927.20
535.20	40112.10
535.37	40851.71
535.54	40795.54
535.71	40435.10
535.88	39981.03
536.05	40477.22
536.22	40493.61
536.38	40545.10
536.55	40521.69
536.72	40549.78
536.89	40280.62
537.06	40505.31
537.23	41029.59
537.40	40809.58
537.57	40432.75
537.74	40849.37
537.91	40987.46
538.08	41010.87
538.25	40549.78
538.42	40884.48
538.59	40882.14
538.75	40847.03
538.92	40863.41
539.09	41074.06
539.26	40957.03
539.43	41303.43
539.60	40966.40
539.77	41146.62
539.94	41130.23
540.11	41235.56
540.28	40877.46
540.44	41214.49
540.61	41235.56
540.78	41078.74
540.95	41317.48
541.12	41397.06
541.29	41155.98
541.46	41359.61
541.62	41579.62
541.79	42014.96
541.96	41186.41
542.13	41268.33
542.30	41617.07
542.47	41769.20
542.63	41588.98
542.80	42061.77
542.97	42066.45
543.14	42284.12
543.31	42012.62
543.48	42459.66
543.64	42658.60
543.81	42674.99
543.98	42190.50
544.15	42478.38
544.32	42656.26
544.48	42609.45
544.65	42426.89
544.82	42506.47
544.99	42403.49
545.16	42696.05
545.32	42307.52
545.49	42415.19
545.66	43189.91
545.83	42700.73
546.00	42642.22
546.16	42895.00
546.33	42983.94
546.50	42745.20
546.67	42838.83
546.83	42359.02
547.00	42735.84
547.17	43014.37
547.34	42644.56
547.50	43072.88
547.67	43213.31
547.84	43147.78
548.00	43819.51
548.17	43672.06
548.34	43482.47
548.51	43402.89
548.67	43536.30
548.84	43765.68
549.01	43662.69
549.18	43115.01
549.34	43629.93
549.51	43494.18
549.68	43835.89
549.84	43629.93
550.01	44112.08
550.18	43746.95
550.34	43807.81
550.51	43419.28
550.68	43868.66
550.84	43274.16
551.01	43803.13
551.18	43578.43
551.34	43590.14
551.51	44311.02
551.68	43803.13
551.84	44388.26
552.01	43908.45
552.18	44055.90
552.34	43981.01
552.51	44287.62
552.68	44170.59
552.84	44898.50
553.01	44308.68
553.18	44025.48
553.34	44254.85
553.51	44126.12
553.67	44102.71
553.84	44669.12
554.01	44648.06
554.17	44154.21
554.34	44535.71
554.51	44182.29
554.67	44231.44
554.84	44545.08
555.00	44343.79
555.17	44456.14
555.33	44842.32
555.50	44575.50
555.67	44296.98
555.83	44095.69
556.00	44399.96
556.16	44776.79
556.33	44535.71
556.50	44755.72
556.66	44376.56
556.83	44037.18
556.99	45017.86
557.16	45038.93
557.32	44872.75
557.49	45111.49
557.65	44690.19
557.82	44889.13
557.98	44626.99
558.15	44893.82
558.32	45125.53
558.48	44914.88
558.65	44715.93
558.81	44772.11
558.98	44746.36
559.14	44814.24
559.31	45153.62
559.47	45071.70
559.64	45511.72
559.80	45083.40
559.97	45340.86
560.13	45020.20
560.30	44844.66
560.46	45261.28
560.63	45521.08
560.79	45432.14
560.96	45497.67
561.12	45317.45
561.29	45090.42
561.45	45359.58
561.61	45336.18
561.78	44898.50
561.94	45422.78
562.11	45336.18
562.27	45324.47
562.44	45359.58
562.60	45170.00
562.77	45490.65
562.93	45514.06
563.10	45635.77
563.26	44882.11
563.42	45170.00
563.59	45485.97
563.75	45127.87
563.92	45565.55
564.08	45319.79
564.24	45434.48
564.41	45450.86
564.57	45296.39
564.74	45469.59
564.90	45507.04
565.07	45797.26
565.23	45303.41
565.39	45691.94
565.56	45684.92
565.72	45441.50
565.88	45591.30
566.05	45132.55
566.21	45546.82
566.38	45659.17
566.54	45556.19
566.70	45792.58
566.87	46073.45
567.03	45741.09
567.19	45970.46
567.36	45572.57
567.52	45890.88
567.68	45584.27
567.85	45198.09
568.01	45734.07
568.17	45474.27
568.34	45902.59
568.50	45731.73
568.66	45350.22
568.83	45963.44
568.99	45617.04
569.15	45881.52
569.32	45560.87
569.48	45427.46
569.64	45874.50
569.81	45794.92
569.97	45530.44
570.13	45986.85
570.30	45296.39
570.46	45724.71
570.62	45556.19
570.78	45689.60
570.95	45408.73
571.11	45759.81
571.27	45221.49
571.43	45839.39
571.60	45551.51
571.76	45551.51
571.92	45661.51
572.09	45942.38
572.25	45427.46
572.41	45724.71
572.57	45914.29
572.74	46071.10
572.90	45942.38
573.06	46017.27
573.22	45881.52
573.38	45900.25
573.55	45890.88
573.71	46370.69
573.87	45654.49
574.03	45530.44
574.20	45991.53
574.36	45441.50
574.52	46153.02
574.68	45844.07
574.84	46052.38
575.01	46314.52
575.17	45984.51
575.33	45497.67
575.49	45804.28
575.65	45991.53
575.82	46211.54
575.98	45801.94
576.14	46429.21
576.30	46087.49
576.46	46169.41
576.62	45525.76
576.79	45743.43
576.95	45677.90
577.11	45853.44
577.27	46206.86
577.43	45743.43
577.59	46190.47
577.75	45621.72
577.92	45720.02
578.08	45827.69
578.24	46106.21
578.40	45895.56
578.56	45858.12
578.72	45825.35
578.88	46096.85
579.04	46171.75
579.21	46160.05
579.37	46272.39
579.53	46085.15
579.69	45504.70
579.85	45818.33
580.01	46019.61
580.17	45432.14
580.33	45930.67
580.49	46218.56
580.65	46143.66
580.82	46113.23
580.98	46321.54
581.14	46085.15
581.30	46726.46
581.46	46314.52
581.62	46593.04
581.78	46141.32
581.94	46532.19
582.10	46096.85
582.26	46731.14
582.42	45766.84
582.58	45972.80
582.74	45865.14
582.90	45839.39
583.06	45869.82
583.22	46117.92
583.38	46387.08
583.54	46483.04
583.70	46012.59
583.86	46253.67
584.02	46099.19
584.18	46078.13
584.34	45769.18
584.50	46202.18
584.66	46000.89
584.82	46099.19
584.98	45813.65
585.14	46307.50
585.30	45750.45
585.46	46248.99
585.62	46183.45
585.78	45844.07
585.94	46117.92
586.10	46052.38
586.26	46361.33
586.42	46188.13
586.58	46326.22
586.74	45944.72
586.90	46134.30
587.06	45977.48
587.22	46487.72
587.38	45895.56
587.54	46440.91
587.70	46541.55
587.86	46263.03
588.02	46457.29
588.18	46483.04
588.34	45982.16
588.49	46096.85
588.65	45574.91
588.81	45879.18
588.97	46169.41
589.13	45984.51
589.29	45682.58
589.45	45558.53
589.61	46075.79
589.77	46195.15
589.93	46082.81
590.08	46571.98
590.24	46511.13
590.40	46623.47
590.56	46335.59
590.72	46735.82
590.88	46204.52
591.04	46312.18
591.20	46843.48
591.35	46621.13
591.51	46438.57
591.67	46216.22
591.83	46197.49
591.99	46230.26
592.15	46036.00
592.31	46351.97
592.46	45947.06
592.62	46415.16
592.78	46450.27
592.94	46286.43
593.10	46286.43
593.26	46625.81
593.41	46216.22
593.57	46202.18
593.73	46300.48
593.89	46328.56
594.05	46401.12
594.20	46244.30
594.36	46286.43
594.52	46459.63
594.68	46625.81
594.84	45989.19
594.99	46777.95
595.15	46279.41
595.31	46579.00
595.47	46361.33
595.62	46349.63
595.78	46511.13
595.94	46440.91
596.10	46370.69
596.25	46742.84
596.41	46799.01
596.57	46417.50
596.73	46752.20
596.88	45942.38
597.04	46227.92
597.20	46590.70
597.36	46305.16
597.51	46429.21
597.67	46342.61
597.83	46415.16
597.99	46733.48
598.14	46534.53
598.30	46370.69
598.46	46389.42
598.61	46637.51
598.77	46244.30
598.93	46246.65
599.09	46532.19
599.24	46887.95
599.40	47173.50
599.56	46660.92
599.71	46492.40
599.87	46616.45
600.03	46485.38
600.18	46740.50
600.34	46656.24
600.50	46319.20
600.65	46143.66
600.81	46490.06
600.97	46866.89
601.12	46866.89
601.28	46452.61
601.44	46260.69
601.59	46445.59
601.75	46387.08
601.91	46183.45
602.06	46251.33
602.22	46328.56
602.37	46363.67
602.53	46169.41
602.69	46464.32
602.84	46192.81
603.00	46043.02
603.16	46745.18
603.31	46279.41
603.47	46134.30
603.62	46019.61
603.78	46216.22
603.94	46684.33
604.09	46656.24
604.25	46391.76
604.40	46005.57
604.56	46375.37
604.71	46078.13
604.87	46150.68
605.03	46417.50
605.18	46232.60
605.34	46344.95
605.49	45804.28
605.65	46473.68
605.80	46646.88
605.96	46129.62
606.12	46539.21
606.27	46232.60
606.43	46110.89
606.58	45954.08
606.74	45909.61
606.89	46225.58
607.05	46480.70
607.20	46293.46
607.36	46604.75
607.51	46656.24
607.67	46211.54
607.82	46078.13
607.98	45755.13
608.13	45745.77
608.29	45844.07
608.44	45748.11
608.60	45397.03
608.75	45727.05
608.91	45755.13
609.06	45876.84
609.22	45914.29
609.37	45652.15
609.53	46469.00
609.68	45975.14
609.84	45633.42
609.99	46099.19
610.15	45663.85
610.30	45715.34
610.46	45748.11
610.61	45743.43
610.76	46209.20
610.92	45691.94
611.07	45933.01
611.23	45289.37
611.38	46057.06
611.54	45715.34
611.69	45467.25
611.84	45617.04
612.00	45439.16
612.15	45347.88
612.31	45888.54
612.46	45584.27
612.62	45404.05
612.77	45415.76
612.92	45759.81
613.08	45574.91
613.23	45595.98
613.39	45310.43
613.54	45490.65
613.69	45165.32
613.85	45291.71
614.00	45600.66
614.15	45825.35
614.31	45280.00
614.46	45617.04
614.62	45170.00
614.77	44999.14
614.92	45162.98
615.08	45258.94
615.23	45439.16
615.38	45804.28
615.54	44973.39
615.69	45172.34
615.84	44847.00
616.00	44938.29
616.15	44800.19
616.30	44961.69
616.46	44952.33
616.61	44648.06
616.76	45062.33
616.92	44769.77
617.07	44671.46
617.22	44287.62
617.37	44751.04
617.53	45050.63
617.68	44552.10
617.83	45064.67
617.99	44940.63
618.14	44985.10
618.29	45055.31
618.45	44374.22
618.60	44648.06
618.75	44893.82
618.90	44308.68
619.06	44816.58
619.21	44552.10
619.36	45015.52
619.51	44257.19
619.67	44406.98
619.82	44238.47
619.97	44751.04
620.12	44542.74
620.28	44282.94
620.43	44760.40
620.58	44392.94
620.73	44027.82
620.89	44194.00
621.04	44619.97
621.19	44107.40
621.34	43887.39
621.49	44444.43
621.65	43938.88
621.80	44215.06
621.95	44144.84
622.10	43880.36
622.25	44233.78
622.41	44081.65
622.56	43842.92
622.71	44100.37
622.86	44168.25
623.01	44002.07
623.16	44016.11
623.32	44421.03
623.47	44215.06
623.62	43889.73
623.77	43955.26
623.92	43985.69
624.07	43515.24
624.23	43793.76
624.38	43393.53
624.53	43620.56
624.68	43494.18
624.83	43758.66
624.98	43732.91
625.13	43143.09
625.29	43704.82
625.44	43658.01
625.59	42946.49
625.74	43248.42
625.89	42887.98
626.04	43241.40
626.19	43173.52
626.34	43709.50
626.49	43557.37
626.65	43103.31
626.80	43615.88
626.95	43042.45
627.10	43196.93
627.25	43044.79
627.40	42714.78
627.55	42836.48
627.70	42321.57
627.85	42604.77
628.00	42515.83
628.15	42454.98
628.30	43150.12
628.45	43157.14
628.60	42953.51
628.76	42869.25
628.91	42993.30
629.06	42670.31
629.21	42651.58
629.36	43215.65
629.51	42913.72
629.66	42136.66
629.81	42061.77
629.96	42630.52
630.11	42813.08
630.26	42330.93
630.41	43030.75
630.56	42780.31
630.71	42529.87
630.86	42569.66
631.01	42902.02
631.16	42251.35
631.31	42792.01
631.46	42120.28
631.61	42199.86
631.76	42572.00
631.91	42256.03
632.06	42298.16
632.21	42583.71
632.36	42527.53
632.51	42206.88
632.66	42361.36
632.81	41940.06
632.96	42424.55
633.10	41684.94
633.25	41811.33
633.40	42363.70
633.55	42452.64
633.70	42108.58
633.85	42040.70
634.00	42462.00
634.15	42237.31
634.30	41645.15
634.45	42162.41
634.60	42110.92
634.75	41495.36
634.90	41975.17
635.05	41851.12
635.19	41698.98
635.34	41928.36
635.49	41830.05
635.64	41474.29
635.79	41478.97
635.94	41532.81
636.09	41544.51
636.24	41326.84
636.39	41170.02
636.53	41486.00
636.68	41074.06
636.83	41354.93
636.98	41645.15
637.13	41170.02
637.28	41401.74
637.43	41560.89
637.57	41808.99
637.72	41525.78
637.87	41600.68
638.02	41371.31
638.17	41310.46
638.32	41062.36
638.46	41102.15
638.61	40940.65
638.76	41034.27
638.91	40952.35
639.06	41294.07
639.20	41174.70
639.35	41310.46
639.50	41174.70
639.65	41216.83
639.80	41132.57
639.94	41158.32
640.09	40959.38
640.24	40807.24
640.39	40449.14
640.54	40877.46
640.68	40687.87
640.83	40825.96
640.98	40847.03
641.13	40737.02
641.27	40950.01
641.42	41060.02
641.57	40713.62
641.72	40627.02
641.86	40098.06
642.01	40135.51
642.16	40416.37
642.31	40034.86
642.45	40961.72
642.60	40194.02
642.75	39744.64
642.90	40046.57
643.04	40325.09
643.19	40264.24
643.34	40257.21
643.48	40201.04
643.63	40217.43
643.78	40407.01
643.93	40165.93
644.07	39875.71
644.22	40006.78
644.37	40144.87
644.51	40423.39
644.66	40289.98
644.81	40074.65
644.95	40226.79
645.10	40182.32
645.25	40062.95
645.39	40149.55
645.54	40285.30
645.69	39697.83
645.83	39976.35
645.98	39922.52
646.13	39754.00
646.27	39618.25
646.42	39814.85
646.57	39924.86
646.71	39770.38
646.86	39868.69
647.00	39931.88
647.15	39655.70
647.30	40189.34
647.44	39782.09
647.59	39592.50
647.74	39541.01
647.88	39541.01
648.03	39454.41
648.17	39365.47
648.32	39255.46
648.47	39082.27
648.61	39208.65
648.76	39693.15
648.90	39253.12
649.05	39519.95
649.20	39529.31
649.34	39704.85
649.49	39194.61
649.63	38967.58
649.78	39084.61
649.92	39147.80
650.07	39545.69
650.21	39178.23
650.36	39260.15
650.51	38925.45
650.65	39428.66
650.80	38979.28
650.94	39480.16
651.09	39206.31
651.23	38953.54
651.38	38770.97
651.52	38253.72
651.67	38864.60
651.81	38703.10
651.96	38431.60
652.10	38841.19
652.25	38766.29
652.39	38735.87
652.54	38487.77
652.68	39033.11
652.83	38412.87
652.97	39084.61
653.12	38677.35
653.26	38328.61
653.41	38637.56
653.55	38330.95
653.70	38691.40
653.84	38660.97
653.99	38733.53
654.13	38532.24
654.27	38490.11
654.42	38330.95
654.56	38061.79
654.71	38354.36
654.85	38153.07
655.00	38396.49
655.14	37947.11
655.29	37921.36
655.43	37968.17
655.57	38443.30
655.72	37764.54
655.86	37392.40
656.01	37373.67
656.15	37563.26
656.30	37951.79
656.44	38040.73
656.58	37631.13
656.73	37949.45
656.87	37794.97
657.01	37551.56
657.16	37544.53
657.30	37680.28
657.45	37046.00
657.59	37378.36
657.73	37275.37
657.88	37556.24
658.02	37392.40
658.16	37315.16
658.31	37268.35
658.45	37572.62
658.60	37390.06
658.74	37975.19
658.88	37254.31
659.03	37432.19
659.17	37390.06
659.31	37209.84
659.46	37209.84
659.60	37205.16
659.74	37333.89
659.89	37017.91
660.03	36935.99
660.17	36884.50
660.32	36935.99
660.46	36833.01
660.60	37170.05
660.74	37062.38
660.89	36891.52
661.03	36432.78
661.17	36561.51
661.32	36491.29
661.46	36383.63
661.60	36886.84
661.74	36830.67
661.89	36617.68
662.03	36278.30
662.17	36563.85
662.31	36189.36
662.46	36608.32
662.60	36587.25
662.74	36252.56
662.88	36322.77
663.03	36077.02
663.17	35922.54
663.31	35515.29
663.45	35747.00
663.60	36048.93
663.74	35812.54
663.88	36165.96
664.02	35667.42
664.17	35967.01
664.31	35732.96
664.45	35489.54
664.59	35292.94
664.73	35285.92
664.88	35590.19
665.02	35166.55
665.16	35014.41
665.30	35234.42
665.44	35234.42
665.59	35042.50
665.73	35143.14
665.87	34962.92
666.01	35225.06
666.15	35262.51
666.29	35274.21
666.44	34944.20
666.58	34562.69
666.72	35129.10
666.86	34831.85
667.00	35292.94
667.14	34930.16
667.28	34642.27
667.43	34085.22
667.57	34328.64
667.71	34403.53
667.85	34478.43
667.99	34349.70
668.13	34277.15
668.27	34087.56
668.41	34134.37
668.56	34195.23
668.70	34356.72
668.84	33837.12
668.98	34087.56
669.12	33834.78
669.26	34394.17
669.40	33633.50
669.54	33703.71
669.68	33673.29
669.82	33872.23
669.96	33532.86
670.10	33134.96
670.25	33869.89
670.39	33628.82
670.53	33324.55
670.67	33305.82
670.81	33216.88
670.95	33422.85
671.09	33099.86
671.23	33235.61
671.37	33296.46
671.51	33031.98
671.65	32898.57
671.79	32432.80
671.93	32699.62
672.07	32505.36
672.21	32863.46
672.35	32479.61
672.49	32467.91
672.63	32882.19
672.77	32577.92
672.91	32547.49
673.05	31885.12
673.19	31976.40
673.33	31945.97
673.47	32163.64
673.61	31976.40
673.75	32060.66
673.89	31475.52
674.03	31314.03
674.17	31536.38
674.31	31732.98
674.45	31353.82
674.59	31550.42
674.73	31590.21
674.87	31496.59
675.01	31304.67
675.15	31622.98
675.29	31463.82
675.43	31143.17
675.56	31386.58
675.70	31089.34
675.84	30712.51
675.98	30059.50
676.12	30892.73
676.26	30635.27
676.40	30431.65
676.54	30464.41
676.68	30686.76
676.82	30045.46
676.96	30375.47
677.10	30185.89
677.23	30171.85
677.37	29958.86
677.51	29778.64
677.65	29582.03
677.79	29806.72
677.93	29694.38
678.07	29443.94
678.21	29046.05
678.34	29462.66
678.48	29390.11
678.62	29118.60
678.76	29027.32
678.90	28943.06
679.04	29102.22
679.18	28680.92
679.31	28479.64
679.45	28739.44
679.59	28531.13
679.73	28137.92
679.87	27978.76
680.00	27953.02
680.14	27967.06
680.28	27936.63
680.42	28100.47
680.56	28013.87
680.70	27786.84
680.83	27758.75
680.97	27737.69
681.11	27658.11
681.25	27349.16
681.39	27758.75
681.52	27555.13
681.66	27463.85
681.80	27569.17
681.94	26913.82
682.07	27054.25
682.21	26857.65
682.35	26934.88
682.49	26689.13
682.62	26700.83
682.76	26490.18
682.90	26504.23
683.04	26089.95
683.17	26670.40
683.31	26639.98
683.45	26422.31
683.59	25968.24
683.72	25755.26
683.86	26017.40
684.00	25703.76
684.13	26045.48
684.27	25806.75
684.41	25656.95
684.55	25200.55
684.68	25177.14
684.82	25041.39
684.96	25731.85
685.09	25256.72
685.23	25090.54
685.37	24709.04
685.50	24657.54
685.64	24662.22
685.78	24676.27
685.91	24807.34
686.05	24573.28
686.19	24442.21
686.32	24531.15
686.46	23906.23
686.60	23901.55
686.73	23845.38
686.87	23536.43
687.01	23456.85
687.14	23379.61
687.28	23349.18
687.42	23522.38
687.55	23070.66
687.69	23197.05
687.82	23101.09
687.96	22981.72
688.10	23278.97
688.23	23077.68
688.37	22862.35
688.50	22504.25
688.64	22717.24
688.78	22604.89
688.91	22822.56
689.05	23049.60
689.18	22345.09
689.32	22047.85
689.46	22169.55
689.59	22815.54
689.73	22298.28
689.86	21984.65
690.00	22162.53
690.13	22242.11
690.27	21923.80
690.41	22033.80
690.54	21483.78
690.68	21621.87
690.81	21488.46
690.95	21507.18
691.08	21261.43
691.22	21263.77
691.35	21184.19
691.49	21605.49
691.62	21177.17
691.76	21397.18
691.89	20996.95
692.03	20863.54
692.16	20830.77
692.30	20531.18
692.43	20711.40
692.57	20346.28
692.70	20238.61
692.84	20346.28
692.97	20191.80
693.11	20465.64
693.24	20079.46
693.38	19800.93
693.51	20294.79
693.65	20032.65
693.78	20084.14
693.92	19829.02
694.05	19817.32
694.19	19634.75
694.32	19824.34
694.45	19431.13
694.59	19321.12
694.72	19332.82
694.86	19145.58
694.99	18897.49
695.13	18991.11
695.26	18796.84
695.39	18820.25
695.53	18623.64
695.66	18520.66
695.80	18450.44
695.93	18530.02
696.07	18625.98
696.20	18328.74
696.33	18520.66
696.47	18167.24
696.60	18080.64
696.73	18099.36
696.87	17928.50
697.00	18085.32
697.14	18080.64
697.27	17923.82
697.40	17830.20
697.54	17783.39
697.67	17551.68
697.80	17661.68
697.94	17399.54
698.07	17284.86
698.21	17135.06
698.34	17277.83
698.47	17097.61
698.61	16748.87
698.74	16889.31
698.87	17003.99
699.01	17266.13
699.14	16837.81
699.27	16971.22
699.40	16940.80
699.54	16613.12
699.67	16343.96
699.80	16648.23
699.94	15873.51
700.07	16610.78
700.20	16280.77
700.34	16278.43
700.47	16248.00
700.60	16128.63
700.73	16231.62
700.87	16140.33
701.00	15852.45
701.13	15822.02
701.26	15908.62
701.40	15557.54
701.53	15424.13
701.66	15646.48
701.79	14977.09
701.93	15260.29
702.06	15241.57
702.19	15098.80
702.32	15080.07
702.46	15068.37
702.59	15002.83
702.72	14972.41
702.85	14960.70
702.99	14724.31
703.12	14834.32
703.25	14888.15
703.38	14897.51
703.51	14595.58
703.65	14560.47
703.78	14492.60
703.91	14415.36
704.04	14523.02
704.17	14382.59
704.31	14106.41
704.44	13860.65
704.57	13874.70
704.70	14092.37
704.83	14125.13
704.96	13776.39
705.10	14134.50
705.23	14050.24
>>>>>End Processed Spectral Data<<<<<
