SpectraSuite Data File
++++++++++++++++++++++++++++++++++++
Date: Fri Oct 25 11:33:39 EDT 2013
User: price-jones
Dark Spectrum Present: No
Reference Spectrum Present: No
Number of Sampled Component Spectra: 1
Spectrometers: USB2+H05261
Integration Time (usec): 100000 (USB2+H05261)
Spectra Averaged: 1 (USB2+H05261)
Boxcar Smoothing: 0 (USB2+H05261)
Correct for Electrical Dark: No (USB2+H05261)
Strobe/Lamp Enabled: No (USB2+H05261)
Correct for Detector Non-linearity: No (USB2+H05261)
Correct for Stray Light: No (USB2+H05261)
Number of Pixels in Processed Spectrum: 2048
>>>>>Begin Processed Spectral Data<<<<<
365.73	262.14
365.92	262.14
366.12	262.14
366.32	208.31
366.52	138.09
366.72	205.97
366.91	159.16
367.11	121.71
367.31	128.73
367.51	163.84
367.70	182.56
367.90	182.56
368.10	117.03
368.30	131.07
368.49	135.75
368.69	168.52
368.89	168.52
369.09	278.52
369.28	180.22
369.48	212.99
369.68	229.37
369.87	238.73
370.07	212.99
370.27	283.20
370.47	325.33
370.66	547.69
370.86	521.94
371.06	528.96
371.25	521.94
371.45	514.92
371.65	550.03
371.84	557.05
372.04	475.13
372.24	608.54
372.44	505.56
372.63	627.26
372.83	573.43
373.03	615.56
373.22	564.07
373.42	681.10
373.62	596.84
373.81	624.92
374.01	641.31
374.21	629.60
374.40	629.60
374.60	603.86
374.79	573.43
374.99	578.11
375.19	678.76
375.38	711.52
375.58	669.39
375.78	725.57
375.97	664.71
376.17	699.82
376.37	648.33
376.56	655.35
376.76	676.41
376.95	648.33
377.15	669.39
377.35	695.14
377.54	697.48
377.74	664.71
377.93	699.82
378.13	664.71
378.33	667.05
378.52	608.54
378.72	709.18
378.91	734.93
379.11	688.12
379.31	697.48
379.50	678.76
379.70	723.23
379.89	826.21
380.09	695.14
380.28	688.12
380.48	739.61
380.68	746.63
380.87	718.54
381.07	732.59
381.26	819.19
381.46	758.33
381.65	765.36
381.85	699.82
382.04	720.88
382.24	807.48
382.43	781.74
382.63	725.57
382.83	765.36
383.02	866.00
383.22	847.27
383.41	741.95
383.61	784.08
383.80	821.53
384.00	758.33
384.19	781.74
384.39	830.89
384.58	952.60
384.78	828.55
384.97	798.12
385.17	877.70
385.36	800.46
385.56	896.43
385.75	774.72
385.95	884.72
386.14	931.53
386.34	828.55
386.53	816.85
386.72	837.91
386.92	861.32
387.11	882.38
387.31	854.30
387.50	861.32
387.70	912.81
387.89	795.78
388.09	931.53
388.28	821.53
388.48	994.73
388.67	908.13
388.86	898.77
389.06	961.96
389.25	971.32
389.45	926.85
389.64	844.93
389.84	1018.13
390.03	912.81
390.22	957.28
390.42	950.26
390.61	905.79
390.81	966.64
391.00	957.28
391.19	1090.69
391.39	992.39
391.58	1046.22
391.78	968.98
391.97	924.51
392.16	1011.11
392.36	1027.50
392.55	1057.92
392.75	1081.33
392.94	1064.94
393.13	1039.20
393.33	1104.73
393.52	1064.94
393.71	1151.54
393.91	1193.67
394.10	1093.03
394.29	1109.41
394.49	1137.50
394.68	1188.99
394.88	1074.31
395.07	1193.67
395.26	1118.78
395.46	1165.59
395.65	1132.82
395.84	1172.61
396.04	1256.87
396.23	1224.10
396.42	1224.10
396.62	1268.57
396.81	1219.42
397.00	1205.38
397.19	1165.59
397.39	1254.53
397.58	1270.91
397.77	1191.33
397.97	1315.38
398.16	1270.91
398.35	1224.10
398.55	1233.46
398.74	1249.85
398.93	1327.08
399.12	1268.57
399.32	1263.89
399.51	1282.61
399.70	1371.55
399.90	1315.38
400.09	1387.94
400.28	1467.52
400.47	1336.45
400.67	1444.11
400.86	1448.79
401.05	1315.38
401.24	1500.28
401.44	1418.36
401.63	1453.47
401.82	1455.81
402.01	1460.49
402.21	1451.13
402.40	1558.80
402.59	1598.59
402.78	1437.09
402.97	1469.86
403.17	1507.30
403.36	1638.38
403.55	1652.42
403.74	1535.39
403.93	1514.33
404.13	1621.99
404.32	1659.44
404.51	1584.54
404.70	1629.01
404.89	1549.43
405.09	1694.55
405.28	1661.78
405.47	1668.80
405.66	1682.85
405.85	1813.92
406.05	1722.63
406.24	1657.10
406.43	1771.79
406.62	1724.97
406.81	1762.42
407.00	1743.70
407.20	1762.42
407.39	1764.76
407.58	1804.55
407.77	1806.89
407.96	1975.41
408.15	1916.90
408.34	1884.13
408.54	1954.35
408.73	1900.52
408.92	1874.77
409.11	1982.43
409.30	1923.92
409.49	1968.39
409.68	2057.33
409.87	1984.77
410.07	2026.90
410.26	2066.69
410.45	2101.80
410.64	2172.02
410.83	2064.35
411.02	2059.67
411.21	2087.76
411.40	2303.09
411.59	2209.47
411.78	2146.27
411.98	2214.15
412.17	2165.00
412.36	2125.21
412.55	2246.91
412.74	2363.94
412.93	2401.39
413.12	2335.85
413.31	2385.01
413.50	2370.96
413.69	2377.98
413.88	2476.29
414.07	2469.27
414.26	2555.86
414.45	2429.48
414.64	2544.16
414.83	2572.25
415.02	2546.50
415.22	2612.04
415.41	2609.70
415.60	2548.84
415.79	2691.62
415.98	2710.34
416.17	2656.51
416.36	2752.47
416.55	2686.94
416.74	2729.06
416.93	2815.66
417.12	2708.00
417.31	2864.82
417.50	2841.41
417.69	2995.89
417.88	2949.08
418.07	2881.20
418.26	2930.35
418.45	2958.44
418.64	3077.80
418.83	3141.00
419.02	3124.62
419.21	3054.40
419.39	3073.12
419.58	3096.53
419.77	3052.06
419.96	3166.74
420.15	3145.68
420.34	3187.81
420.53	3206.53
420.72	3309.52
420.91	3232.28
421.10	3180.79
421.29	3332.92
421.48	3190.15
421.67	3318.88
421.86	3239.30
422.05	3286.11
422.24	3208.87
422.43	3288.45
422.61	3363.35
422.80	3508.46
422.99	3328.24
423.18	3372.71
423.37	3485.06
423.56	3368.03
423.75	3410.16
423.94	3267.39
424.13	3225.26
424.32	3117.59
424.50	3344.63
424.69	3524.85
424.88	3405.48
425.07	3513.14
425.26	3405.48
425.45	3300.16
425.64	3417.18
425.83	3496.76
426.01	3398.46
426.20	3440.59
426.39	3456.97
426.58	3386.76
426.77	3454.63
426.96	3623.15
427.15	3550.59
427.33	3674.64
427.52	3482.72
427.71	3559.95
427.90	3641.87
428.09	3662.94
428.28	3688.68
428.46	3709.75
428.65	3625.49
428.84	3836.14
429.03	3679.32
429.22	3564.64
429.40	3737.84
429.59	3786.99
429.78	3702.73
429.97	3595.06
430.16	3882.95
430.34	3794.01
430.53	3817.41
430.72	3868.91
430.91	3833.80
431.10	3960.19
431.28	3974.23
431.47	3904.01
431.66	3845.50
431.85	3920.40
432.03	4016.36
432.22	3946.14
432.41	3964.87
432.60	4021.04
432.79	4105.30
432.97	4166.15
433.16	4271.48
433.35	4037.42
433.54	4147.43
433.72	4205.94
433.91	4238.71
434.10	4217.65
434.28	4215.30
434.47	4198.92
434.66	4315.95
434.85	4432.97
435.03	4252.75
435.22	4271.48
435.41	4489.15
435.59	4271.48
435.78	4327.65
435.97	4362.76
436.16	4489.15
436.34	4344.03
436.53	4341.69
436.72	4477.44
436.90	4561.70
437.09	4559.36
437.28	4344.03
437.46	4418.93
437.65	4411.91
437.84	4615.54
438.02	4798.10
438.21	4449.36
438.40	4664.69
438.58	4704.48
438.77	4634.26
438.96	4643.62
439.14	4755.97
439.33	4720.86
439.52	4760.65
439.70	4858.95
439.89	4901.08
440.08	4954.91
440.26	4985.34
440.45	4887.04
440.63	4978.32
440.82	5226.42
441.01	5064.92
441.19	5177.26
441.38	5181.95
441.57	5064.92
441.75	5355.15
441.94	5329.40
442.12	5364.51
442.31	5476.85
442.50	5596.22
442.68	5420.68
442.87	5542.39
443.05	5486.22
443.24	5584.52
443.43	5317.70
443.61	5734.31
443.80	5708.57
443.98	5469.83
444.17	5305.99
444.35	5462.81
444.54	5666.44
444.73	5689.84
444.91	5535.37
445.10	5717.93
445.28	5619.63
445.47	5640.69
445.65	5703.89
445.84	5881.77
446.02	5830.27
446.21	5795.17
446.39	5692.18
446.58	5783.46
446.77	5628.99
446.95	5547.07
447.14	5675.80
447.32	5806.87
447.51	5928.58
447.69	5762.40
447.88	5694.52
448.06	5755.38
448.25	5542.39
448.43	5727.29
448.62	5767.08
448.80	5776.44
448.99	6005.81
449.17	5863.04
449.36	6078.37
449.54	5858.36
449.73	6314.77
449.91	6019.86
450.10	6143.91
450.28	6146.25
450.46	6125.18
450.65	6211.78
450.83	6111.14
451.02	6047.94
451.20	6284.34
451.39	6076.03
451.57	6181.35
451.76	6087.73
451.94	6209.44
452.13	6265.61
452.31	6235.19
452.49	6225.82
452.68	6382.64
452.86	6289.02
453.05	6459.88
453.23	6413.07
453.42	6417.75
453.60	6509.03
453.78	6462.22
453.97	6424.77
454.15	6352.21
454.34	6380.30
454.52	6581.59
454.70	6651.80
454.89	6602.65
455.07	6469.24
455.26	6729.04
455.44	6841.39
455.62	6649.46
455.81	6686.91
455.99	6633.08
456.17	6832.02
456.36	6979.48
456.54	6857.77
456.73	6860.11
456.91	7033.31
457.09	7098.84
457.28	7033.31
457.46	6892.88
457.64	7063.74
457.83	6846.07
458.01	6871.81
458.19	7328.22
458.38	6998.20
458.56	7325.88
458.74	7274.38
458.93	6965.43
459.11	7323.54
459.29	7246.30
459.48	7302.47
459.66	7199.49
459.84	7456.95
460.03	7365.67
460.21	7410.14
460.39	7323.54
460.57	7644.19
460.76	7552.91
460.94	7421.84
461.12	7414.82
461.31	7382.05
461.49	7552.91
461.67	7489.71
461.85	7801.01
462.04	7667.60
462.22	8021.02
462.40	7707.38
462.59	7782.28
462.77	7812.71
462.95	7634.83
463.13	7943.78
463.32	7742.49
463.50	7894.63
463.68	7925.05
463.86	7990.59
464.05	7733.13
464.23	7845.48
464.41	7918.03
464.59	8016.33
464.78	8219.96
464.96	7903.99
465.14	7845.48
465.32	7929.74
465.50	8105.28
465.69	8124.00
465.87	8149.75
466.05	8032.72
466.23	8229.32
466.41	8081.87
466.60	8203.58
466.78	8191.88
466.96	8299.54
467.14	8273.79
467.32	8339.33
467.51	8278.47
467.69	8512.53
467.87	8299.54
468.05	8372.10
468.23	8116.98
468.41	8344.01
468.60	8409.54
468.78	8519.55
468.96	8446.99
469.14	8535.93
469.32	8692.75
469.50	8451.67
469.69	8650.62
469.87	8748.92
470.05	8702.11
470.23	8950.21
470.41	8690.41
470.59	8919.78
470.77	8833.18
470.95	8667.00
471.14	8943.19
471.32	8814.46
471.50	9109.36
471.68	9109.36
471.86	9062.55
472.04	9217.03
472.22	9378.53
472.40	9207.67
472.58	9102.34
472.77	9231.07
472.95	9502.58
473.13	9685.14
473.31	9263.84
473.49	9394.91
473.67	9525.98
473.85	9322.35
474.03	9745.99
474.21	9853.66
474.39	9860.68
474.57	9806.84
474.75	10047.92
474.93	9680.46
475.12	10029.20
475.30	10010.47
475.48	9757.69
475.66	10281.97
475.84	10061.96
476.02	10214.10
476.20	10260.91
476.38	10546.45
476.56	10619.01
476.74	10366.23
476.92	10731.36
477.10	10523.05
477.28	10403.68
477.46	10682.20
477.64	10824.98
477.82	10923.28
478.00	11248.61
478.18	11152.65
478.36	11056.69
478.54	11241.59
478.72	11363.30
478.90	11499.05
479.08	11569.27
479.26	11517.78
479.44	11669.91
479.62	11793.96
479.80	11850.13
479.98	12063.12
480.16	12404.84
480.34	11913.33
480.52	12245.68
480.70	12414.20
480.88	12060.78
481.06	12222.28
481.24	12404.84
481.41	12718.47
481.59	12566.34
481.77	12760.60
481.95	12638.89
482.13	13050.83
482.31	12898.69
482.49	13582.13
482.67	13364.46
482.85	13312.97
483.03	13708.52
483.21	13816.18
483.39	13727.24
483.57	13930.87
483.74	13949.59
483.92	14125.13
484.10	13717.88
484.28	14228.12
484.46	14452.81
484.64	14590.90
484.82	14267.91
485.00	14761.76
485.18	15108.16
485.35	14918.57
485.53	14759.42
485.71	15353.91
485.89	15445.20
486.07	15630.10
486.25	15597.33
486.43	15552.86
486.61	15726.06
486.78	15838.41
486.96	15873.51
487.14	16121.61
487.32	16142.67
487.50	16159.06
487.68	16084.16
487.85	16741.85
488.03	16858.88
488.21	16893.99
488.39	17050.80
488.57	16823.77
488.75	17233.36
488.92	17397.20
489.10	17415.93
489.28	17621.89
489.46	17797.43
489.64	17759.98
489.81	18223.41
489.99	18087.66
490.17	18075.96
490.35	18586.19
490.53	18670.45
490.70	18644.71
490.88	18181.28
491.06	18988.77
491.24	18963.02
491.41	19040.26
491.59	18869.40
491.77	19428.79
491.95	19271.97
492.13	19407.72
492.30	19421.77
492.48	19854.76
492.66	19957.75
492.84	19910.94
493.01	20004.56
493.19	20219.89
493.37	20311.17
493.54	20278.40
493.72	20622.46
493.90	20545.22
494.08	20975.88
494.25	20919.71
494.43	21123.33
494.61	21214.62
494.79	21511.86
494.96	21263.77
495.14	21174.83
495.32	21874.65
495.49	21436.97
495.67	21844.22
495.85	21673.36
496.02	22286.58
496.20	22223.39
496.38	22380.20
496.55	22321.69
496.73	23105.77
496.91	22558.08
497.09	22815.54
497.26	23058.96
497.44	23016.83
497.62	22920.87
497.79	23506.00
497.97	23534.09
498.14	23515.36
498.32	23681.54
498.50	23566.85
498.67	24140.29
498.85	23866.44
499.03	23964.75
499.20	23679.20
499.38	24067.73
499.56	24304.12
499.73	24318.17
499.91	24353.27
500.08	24744.14
500.26	24465.62
500.44	24765.21
500.61	24797.98
500.79	24680.95
500.97	25090.54
501.14	25219.27
501.32	25223.95
501.49	25280.13
501.67	25240.34
501.84	25874.62
502.02	25565.67
502.20	25413.54
502.37	25577.37
502.55	26005.69
502.72	25970.58
502.90	25898.03
503.07	25799.73
503.25	26012.71
503.43	25921.43
503.60	26658.70
503.78	26209.32
503.95	26412.95
504.13	26590.83
504.30	26829.56
504.48	26852.97
504.65	26934.88
504.83	27211.07
505.01	27510.66
505.18	26916.16
505.36	27395.97
505.53	26981.70
505.71	27365.54
505.88	27314.05
506.06	27276.60
506.23	27683.86
506.41	27665.13
506.58	28091.11
506.76	27718.96
506.93	28346.23
507.11	28016.21
507.28	28507.72
507.46	28624.75
507.63	28161.33
507.81	28409.42
507.98	28259.63
508.16	28276.01
508.33	28547.51
508.50	28765.18
508.68	28648.16
508.85	29156.05
509.03	28577.94
509.20	28882.21
509.38	29376.06
509.55	29186.48
509.73	29280.10
509.90	29593.73
510.08	29593.73
510.25	29202.86
510.42	29710.76
510.60	29844.17
510.77	29883.96
510.95	29965.88
511.12	29874.60
511.30	29928.43
511.47	30178.87
511.64	30349.73
511.82	30338.02
511.99	30146.10
512.17	30499.52
512.34	30459.73
512.51	30834.22
512.69	30728.89
512.86	30948.90
513.04	31290.62
513.21	30850.60
513.38	30801.45
513.56	31136.15
513.73	30904.43
513.90	31269.56
514.08	31358.50
514.25	31358.50
514.43	31583.19
514.60	31529.36
514.77	31695.53
514.95	31674.47
515.12	31751.71
515.29	31770.43
515.47	32063.00
515.64	32009.17
515.81	31845.33
515.99	32320.46
516.16	32603.66
516.33	32297.05
516.51	32498.34
516.68	32500.68
516.85	32526.42
517.03	32659.84
517.20	33039.00
517.37	32629.41
517.54	32631.75
517.72	32510.04
517.89	32779.20
518.06	33141.99
518.24	33109.22
518.41	33031.98
518.58	33083.47
518.75	33055.39
518.93	33579.67
519.10	33247.31
519.27	33273.06
519.45	33736.48
519.62	33621.80
519.79	33860.53
519.96	33539.88
520.14	33755.21
520.31	33879.25
520.48	33717.76
520.65	33907.34
520.83	34532.26
521.00	34417.58
521.17	34195.23
521.34	34134.37
521.52	34745.25
521.69	34532.26
521.86	34742.91
522.03	34565.03
522.20	34831.85
522.38	34691.42
522.55	34855.26
522.72	34766.32
522.89	34789.72
523.07	35283.58
523.24	35159.53
523.41	35634.66
523.58	34504.18
523.75	35414.65
523.92	35138.46
524.10	35323.36
524.27	35466.14
524.44	36278.30
524.61	36027.87
524.78	35857.01
524.96	36034.89
525.13	35700.19
525.30	35817.22
525.47	36362.56
525.64	36135.53
525.81	36208.09
525.98	36392.99
526.16	36247.88
526.33	36395.33
526.50	36804.92
526.67	36830.67
526.84	36114.47
527.01	36720.66
527.18	36825.99
527.36	36723.01
527.53	37172.39
527.70	37102.17
527.87	37020.25
528.04	37153.66
528.21	37261.33
528.38	37074.09
528.55	37270.69
528.72	37060.04
528.89	37376.01
529.07	37301.12
529.24	36978.12
529.41	37713.05
529.58	37242.60
529.75	37186.43
529.92	37457.93
530.09	37706.03
530.26	37715.39
530.43	38132.01
530.60	37642.84
530.77	37553.90
530.94	37851.14
531.11	37951.79
531.28	37731.78
531.46	37572.62
531.63	38160.09
531.80	38157.75
531.97	38314.57
532.14	38157.75
532.31	38274.78
532.48	38576.71
532.65	38515.86
532.82	38438.62
532.99	38256.06
533.16	38485.43
533.33	38888.00
533.50	38801.40
533.67	38335.63
533.84	38745.23
534.01	38305.21
534.18	38972.26
534.35	39098.65
534.52	39119.71
534.69	39484.84
534.86	39679.10
535.03	39618.25
535.20	38909.07
535.37	39746.98
535.54	39480.16
535.71	39601.86
535.88	39817.19
536.05	39658.04
536.22	39915.50
536.38	39721.23
536.55	39583.14
536.72	39557.39
536.89	39533.99
537.06	39728.25
537.23	39842.94
537.40	39835.92
537.57	39821.87
537.74	39793.79
537.91	39985.71
538.08	40250.19
538.25	39742.30
538.42	40238.49
538.59	40231.47
538.75	40378.92
538.92	40940.65
539.09	40268.92
539.26	40458.50
539.43	40645.74
539.60	40505.31
539.77	40542.76
539.94	40741.71
540.11	40760.43
540.28	40418.71
540.44	40816.60
540.61	40912.56
540.78	40631.70
540.95	40580.21
541.12	41076.40
541.29	40889.16
541.46	40865.75
541.62	41282.37
541.79	41350.24
541.96	41060.02
542.13	40858.73
542.30	40992.14
542.47	41319.82
542.63	41493.02
542.80	41603.02
542.97	42057.09
543.14	41797.29
543.31	42136.66
543.48	41603.02
543.64	41544.51
543.81	41801.97
543.98	41975.17
544.15	41787.92
544.32	42359.02
544.48	42522.85
544.65	42178.79
544.82	41989.21
544.99	41823.03
545.16	42525.19
545.32	42169.43
545.49	42607.11
545.66	42841.17
545.83	42143.69
546.00	42419.87
546.16	42342.63
546.33	42375.40
546.50	42326.25
546.67	42497.11
546.83	42174.11
547.00	42216.24
547.17	42459.66
547.34	42361.36
547.50	42887.98
547.67	42614.13
547.84	42646.90
548.00	43304.59
548.17	43545.67
548.34	43138.41
548.51	43620.56
548.67	43306.93
548.84	43182.88
549.01	43187.56
549.18	43199.27
549.34	43342.04
549.51	43447.36
549.68	43517.58
549.84	43482.47
550.01	43524.60
550.18	43276.51
550.34	43173.52
550.51	43683.76
550.68	43496.52
550.84	43613.54
551.01	43969.30
551.18	43711.84
551.34	43627.59
551.51	44105.06
551.68	43913.13
551.84	44027.82
552.01	43779.72
552.18	44116.76
552.34	44004.41
552.51	43899.09
552.68	43779.72
552.84	44240.81
553.01	44219.74
553.18	44229.10
553.34	43941.22
553.51	44479.54
553.67	44549.76
553.84	44332.09
554.01	44329.75
554.17	44664.44
554.34	44409.32
554.51	44514.65
554.67	44376.56
554.84	44615.29
555.00	44708.91
555.17	44467.84
555.33	45067.02
555.50	44795.51
555.67	45097.44
555.83	44488.90
556.00	44755.72
556.16	45289.37
556.33	45209.79
556.50	44587.21
556.66	44617.63
556.83	44671.46
556.99	44832.96
557.16	45296.39
557.32	45303.41
557.49	45172.34
557.65	44683.17
557.82	45127.87
557.98	45031.91
558.15	44737.00
558.32	45345.54
558.48	44816.58
558.65	45132.55
558.81	44865.73
558.98	45151.27
559.14	45081.06
559.31	45408.73
559.47	45329.16
559.64	45441.50
559.80	45045.95
559.97	45867.48
560.13	45251.92
560.30	45610.02
560.46	46230.26
560.63	45801.94
560.79	45748.11
560.96	46007.91
561.12	45844.07
561.29	45909.61
561.45	46014.93
561.61	45677.90
561.78	45904.93
561.94	45497.67
562.11	45773.86
562.27	45687.26
562.44	45846.41
562.60	45729.39
562.77	45701.30
562.93	45591.30
563.10	46040.68
563.26	45837.05
563.42	46452.61
563.59	45869.82
563.75	45940.04
563.92	46136.64
564.08	46157.70
564.24	46129.62
564.41	46026.63
564.57	45745.77
564.74	46096.85
564.90	46099.19
565.07	45670.87
565.23	46181.11
565.39	45794.92
565.56	46248.99
565.72	46251.33
565.88	46171.75
566.05	46316.86
566.21	46096.85
566.38	46028.98
566.54	46288.77
566.70	45970.46
566.87	46263.03
567.03	46167.07
567.19	46190.47
567.36	46333.24
567.52	46604.75
567.68	46663.26
567.85	46548.57
568.01	47107.96
568.17	46298.14
568.34	46571.98
568.50	46529.85
568.66	46288.77
568.83	46426.87
568.99	46349.63
569.15	46553.26
569.32	46176.43
569.48	46681.98
569.64	46485.38
569.81	46707.73
569.97	46571.98
570.13	46607.09
570.30	46138.98
570.46	46941.78
570.62	46635.17
570.78	46431.55
570.95	46408.14
571.11	47227.33
571.27	47002.64
571.43	46487.72
571.60	47143.07
571.76	46787.31
571.92	46309.84
572.09	46483.04
572.25	46270.05
572.41	46899.65
572.57	46808.37
572.74	46997.96
572.90	46590.70
573.06	46663.26
573.22	47019.02
573.38	46967.53
573.55	47089.24
573.71	47084.56
573.87	46995.62
574.03	46712.41
574.20	46808.37
574.36	46990.94
574.52	47004.98
574.68	47157.11
574.84	46791.99
575.01	47196.90
575.17	47154.77
575.33	47194.56
575.49	47002.64
575.65	47473.09
575.82	47388.83
575.98	46894.97
576.14	47288.18
576.30	47203.92
576.46	47271.80
576.62	46850.50
576.79	47075.19
576.95	46461.97
577.11	46827.10
577.27	46820.08
577.43	46831.78
577.59	47098.60
577.75	46862.21
577.92	46878.59
578.08	47196.90
578.24	47164.14
578.40	47360.74
578.56	47061.15
578.72	47547.98
578.88	47086.90
579.04	47143.07
579.21	46890.29
579.37	46997.96
579.53	47215.63
579.69	47122.01
579.85	47676.71
580.01	47129.03
580.17	47126.69
580.33	47084.56
580.49	47388.83
580.65	47407.55
580.82	47082.22
580.98	47374.78
581.14	46749.86
581.30	47571.39
581.46	47370.10
581.62	46892.63
581.78	46791.99
581.94	47449.68
582.10	47129.03
582.26	47283.50
582.42	47140.73
582.58	47643.94
582.74	47491.81
582.90	47557.35
583.06	47391.17
583.22	46960.51
583.38	47213.29
583.54	47122.01
583.70	47391.17
583.86	47409.89
584.02	47136.05
584.18	47686.07
584.34	47543.30
584.50	47316.27
584.66	47423.93
584.82	47370.10
584.98	47597.13
585.14	47187.54
585.30	47100.94
585.46	47395.85
585.62	47360.74
585.78	47475.43
585.94	47007.32
586.10	47100.94
586.26	47657.99
586.42	47110.30
586.58	47569.05
586.74	47505.85
586.90	47353.72
587.06	47222.65
587.22	47735.23
587.38	46976.89
587.54	47576.07
587.70	47505.85
587.86	47363.08
588.02	46983.91
588.18	47194.56
588.34	47580.75
588.49	47578.41
588.65	47168.82
588.81	47540.96
588.97	47707.14
589.13	47526.92
589.29	47592.45
589.45	47999.71
589.61	47634.58
589.77	47627.56
589.93	47552.66
590.08	47845.23
590.24	47828.85
590.40	48013.75
590.56	47709.48
590.72	47971.62
590.88	48016.09
591.04	47615.86
591.20	47997.37
591.35	47943.53
591.51	47833.53
591.67	47707.14
591.83	47863.96
591.99	47739.91
592.15	47650.97
592.31	47763.31
592.46	47615.86
592.62	47379.46
592.78	47901.40
592.94	47929.49
593.10	48240.78
593.26	48098.01
593.41	47950.56
593.57	47800.76
593.73	48301.64
593.89	48121.41
594.05	48011.41
594.20	48217.38
594.36	48460.79
594.52	48081.63
594.68	47938.85
594.84	47882.68
594.99	48273.55
595.15	48037.16
595.31	48238.44
595.47	48051.20
595.62	48109.71
595.78	48186.95
595.94	47796.08
596.10	48090.99
596.25	48200.99
596.41	47777.36
596.57	47838.21
596.73	48252.48
596.88	47885.02
597.04	48168.22
597.20	48271.21
597.36	48083.97
597.51	48603.56
597.67	47861.61
597.83	47931.83
597.99	48299.30
598.14	47859.27
598.30	48233.76
598.46	48287.59
598.61	48149.50
598.77	48411.64
598.93	47997.37
599.09	48512.28
599.24	48664.42
599.40	47969.28
599.56	48325.04
599.71	48744.00
599.87	48774.42
600.03	48772.08
600.18	48432.71
600.34	48264.19
600.50	48289.93
600.65	48172.91
600.81	48722.93
600.97	48224.40
601.12	48301.64
601.28	48353.13
601.44	48074.60
601.59	48493.56
601.75	48280.57
601.91	48577.82
602.06	48172.91
602.22	48444.41
602.37	48322.70
602.53	48465.47
602.69	48215.04
602.84	48196.31
603.00	48093.33
603.16	48193.97
603.31	48311.00
603.47	48409.30
603.62	48261.85
603.78	48591.86
603.94	48624.63
604.09	48245.46
604.25	48378.87
604.40	48526.33
604.56	48491.22
604.71	48488.88
604.87	48217.38
605.03	47938.85
605.18	47952.90
605.34	48486.54
605.49	48435.05
605.65	48259.51
605.80	48051.20
605.96	48053.54
606.12	48158.86
606.27	48137.80
606.43	47870.98
606.58	48147.16
606.74	48282.91
606.89	48215.04
607.05	48502.92
607.20	48184.61
607.36	48215.04
607.51	47868.64
607.67	47945.87
607.82	47744.59
607.98	48074.60
608.13	48182.27
608.29	48179.93
608.44	48102.69
608.60	48128.44
608.75	48168.22
608.91	48128.44
609.06	47709.48
609.22	48591.86
609.37	48006.73
609.53	48027.79
609.68	47950.56
609.84	48341.42
609.99	48133.12
610.15	47995.03
610.30	47931.83
610.46	48327.38
610.61	48205.67
610.76	48147.16
610.92	47870.98
611.07	48067.58
611.23	47903.74
611.38	48140.14
611.54	47927.15
611.69	48332.06
611.84	48184.61
612.00	48032.47
612.15	47608.84
612.31	47915.45
612.46	47206.26
612.62	47454.36
612.77	47796.08
612.92	47922.47
613.08	47597.13
613.23	47817.14
613.39	47688.42
613.54	48163.54
613.69	48245.46
613.85	47632.24
614.00	47721.18
614.15	47723.52
614.31	47311.59
614.46	47594.79
614.62	47552.66
614.77	47426.28
614.92	47264.78
615.08	47459.04
615.23	47753.95
615.38	47826.51
615.54	47587.77
615.69	47653.31
615.84	47744.59
616.00	47615.86
616.15	47672.03
616.30	47679.05
616.46	47482.45
616.61	47370.10
616.76	47262.44
616.92	46988.60
617.07	47615.86
617.22	47344.36
617.37	46539.21
617.53	47297.55
617.68	47173.50
617.83	47224.99
617.99	47388.83
618.14	47566.71
618.29	47138.39
618.45	47122.01
618.60	47068.17
618.75	47131.37
618.90	47056.47
619.06	46997.96
619.21	47072.85
619.36	47648.63
619.51	46909.02
619.67	46686.67
619.82	46927.74
619.97	47185.20
620.12	46450.27
620.28	46796.67
620.43	46979.23
620.58	47023.70
620.73	46899.65
620.89	47309.25
621.04	47227.33
621.19	46686.67
621.34	47255.42
621.49	46508.79
621.65	46843.48
621.80	47327.97
621.95	46752.20
622.10	47044.77
622.25	46969.87
622.41	46630.49
622.56	46621.13
622.71	47023.70
622.86	46483.04
623.01	46887.95
623.16	46663.26
623.32	46705.39
623.47	46368.35
623.62	46281.75
623.77	46813.05
623.92	46677.30
624.07	46642.20
624.23	46665.60
624.38	46443.25
624.53	46138.98
624.68	46157.70
624.83	46270.05
624.98	46075.79
625.13	45942.38
625.29	46143.66
625.44	46375.37
625.59	46293.46
625.74	46382.40
625.89	46047.70
626.04	45963.44
626.19	45965.78
626.34	46223.24
626.49	45865.14
626.65	46003.23
626.80	45715.34
626.95	45729.39
627.10	45612.36
627.25	45799.60
627.40	46014.93
627.55	46511.13
627.70	45825.35
627.85	45846.41
628.00	46291.12
628.15	45705.98
628.30	45364.26
628.45	45904.93
628.60	45710.66
628.76	45844.07
628.91	45525.76
629.06	45162.98
629.21	45319.79
629.36	45474.27
629.51	45322.13
629.66	45996.21
629.81	45551.51
629.96	45570.23
630.11	45556.19
630.26	45109.14
630.41	45071.70
630.56	45450.86
630.71	45221.49
630.86	45280.00
631.01	44949.99
631.16	45050.63
631.31	45230.85
631.46	44900.84
631.61	45565.55
631.76	45574.91
631.91	45787.90
632.06	45610.02
632.21	45268.30
632.36	45425.12
632.51	44875.09
632.66	45310.43
632.81	45235.53
632.96	45015.52
633.10	44774.45
633.25	45052.97
633.40	45137.23
633.55	45160.64
633.70	44994.46
633.85	44449.11
634.00	44783.81
634.15	45036.59
634.30	44706.57
634.45	44367.20
634.60	44989.78
634.75	44896.16
634.90	44783.81
635.05	44671.46
635.19	44722.96
635.34	44835.30
635.49	44694.87
635.64	44580.18
635.79	44619.97
635.94	44851.69
636.09	44631.68
636.24	44748.70
636.39	44931.26
636.53	44435.07
636.68	44074.63
636.83	44463.16
636.98	44121.44
637.13	44081.65
637.28	43941.22
637.43	44058.24
637.57	44264.21
637.72	43812.49
637.87	44524.01
638.02	43997.39
638.17	44409.32
638.32	44383.58
638.46	44140.16
638.61	43618.22
638.76	44196.34
638.91	43856.96
639.06	43480.13
639.20	43873.34
639.35	43529.28
639.50	43978.67
639.65	44114.42
639.80	44456.14
639.94	44170.59
640.09	43810.15
640.24	44114.42
640.39	43763.34
640.54	43643.97
640.68	43810.15
640.83	44046.54
640.98	43821.85
641.13	43505.88
641.27	43920.15
641.42	43686.10
641.57	43702.48
641.72	43585.46
641.86	43475.45
642.01	43496.52
642.16	43288.21
642.31	43117.35
642.45	43381.83
642.60	43241.40
642.75	43225.01
642.90	43824.19
643.04	43271.82
643.19	42941.81
643.34	43187.56
643.48	42848.19
643.63	42951.17
643.78	43564.39
643.93	43049.47
644.07	43019.05
644.22	42995.64
644.37	42965.21
644.51	43278.85
644.66	43225.01
644.81	42988.62
644.95	43243.74
645.10	43110.33
645.25	42803.72
645.39	43384.17
645.54	42644.56
645.69	42740.52
645.83	42782.65
645.98	42822.44
646.13	42464.34
646.27	42799.04
646.42	42466.68
646.57	42876.27
646.71	42967.55
646.86	42822.44
647.00	42920.74
647.15	42649.24
647.30	42707.76
647.44	42131.98
647.59	43021.39
647.74	42143.69
647.88	42607.11
648.03	42864.57
648.17	42838.83
648.32	42607.11
648.47	42866.91
648.61	42274.76
648.76	42604.77
648.90	42337.95
649.05	42380.08
649.20	42452.64
649.34	42693.71
649.49	42387.10
649.63	42307.52
649.78	42742.86
649.92	42611.79
650.07	42719.46
650.21	42277.10
650.36	42749.88
650.51	42370.72
650.65	42263.05
650.80	42398.80
650.94	42251.35
651.09	42206.88
651.23	41977.51
651.38	41799.63
651.52	41652.17
651.67	41998.57
651.81	41736.43
651.96	42080.49
652.10	41652.17
652.25	41635.79
652.39	41916.65
652.54	41851.12
652.68	41448.55
652.83	41923.68
652.97	42040.70
653.12	41717.71
653.26	41542.17
653.41	41516.42
653.55	42150.71
653.70	41722.39
653.84	41675.58
653.99	41467.27
654.13	41696.64
654.27	41500.04
654.42	41535.15
654.56	41375.99
654.71	41755.16
654.85	41436.84
655.00	41652.17
655.14	41596.00
655.29	42244.33
655.43	41633.45
655.57	41308.11
655.72	41041.29
655.86	41422.80
656.01	40910.22
656.15	40744.05
656.30	40884.48
656.44	41296.41
656.58	40931.29
656.73	41322.16
656.87	41053.00
657.01	40879.80
657.16	41572.60
657.30	41097.47
657.45	41347.90
657.59	40563.82
657.73	40648.08
657.88	40528.72
658.02	41155.98
658.16	41078.74
658.31	40643.40
658.45	40472.54
658.60	40603.61
658.74	40751.07
658.88	40655.11
659.03	40781.49
659.17	40500.63
659.31	40203.38
659.46	40191.68
659.60	40554.46
659.74	40402.33
659.89	40041.88
660.03	39845.28
660.17	39725.91
660.32	40205.72
660.46	40252.53
660.60	39899.11
660.74	39992.73
660.89	40126.14
661.03	39735.27
661.17	39908.47
661.32	39875.71
661.46	39997.41
661.60	39838.26
661.74	39419.30
661.89	39522.29
662.03	39927.20
662.17	39199.29
662.31	39323.34
662.46	39723.57
662.60	39180.57
662.74	38866.94
662.88	39051.84
663.03	38623.52
663.17	39082.27
663.31	38792.04
663.45	39346.75
663.60	39145.46
663.74	39159.50
663.88	39206.31
664.02	38801.40
664.17	39248.44
664.31	38574.37
664.45	38452.66
664.59	39077.58
664.73	38124.99
664.88	38527.56
665.02	38246.69
665.16	38583.73
665.30	38602.46
665.44	38581.39
665.59	38071.15
665.73	37914.34
665.87	37914.34
666.01	37839.44
666.15	38040.73
666.29	37816.04
666.44	37998.60
666.58	38012.64
666.72	37600.71
666.86	38185.84
667.00	37902.64
667.14	37823.06
667.28	37502.40
667.43	37471.98
667.57	37628.79
667.71	37186.43
667.85	38204.56
667.99	37317.50
668.13	37230.90
668.27	36947.70
668.41	37315.16
668.56	36495.97
668.70	36680.88
668.84	37118.56
668.98	36912.59
669.12	36912.59
669.26	36940.68
669.40	36912.59
669.54	36851.73
669.68	36769.82
669.82	36308.73
669.96	36222.13
670.10	35885.09
670.25	36261.92
670.39	36128.51
670.53	36070.00
670.67	36315.75
670.81	36175.32
670.95	36346.18
671.09	36208.09
671.23	35779.77
671.37	36180.00
671.51	35674.45
671.65	35861.69
671.79	36133.19
671.93	35730.62
672.07	35847.64
672.21	35611.25
672.35	35278.89
672.49	34932.50
672.63	35255.49
672.77	35133.78
672.91	35023.78
673.05	35323.36
673.19	34796.74
673.33	34597.80
673.47	35136.12
673.61	35126.76
673.75	34464.39
673.89	34321.62
674.03	34426.94
674.17	34223.31
674.31	33692.01
674.45	34132.03
674.59	34433.96
674.73	34183.52
674.87	33818.40
675.01	33659.24
675.15	33303.48
675.29	32879.85
675.43	33596.05
675.56	33654.56
675.70	33069.43
675.84	33301.14
675.98	32023.21
676.12	33062.41
676.26	33249.65
676.40	32900.91
676.54	32615.37
676.68	32666.86
676.82	32219.81
676.96	32783.88
677.10	33006.23
677.23	32479.61
677.37	32524.08
677.51	32411.74
677.65	31976.40
677.79	32016.19
677.93	32163.64
678.07	31608.93
678.21	31473.18
678.34	31367.86
678.48	31388.92
678.62	31716.60
678.76	30976.99
678.90	31206.36
679.04	31323.39
679.18	31723.62
679.31	31325.73
679.45	31150.19
679.59	30775.70
679.73	30555.69
679.87	30415.26
680.00	30611.87
680.14	30419.94
680.28	30412.92
680.42	30335.68
680.56	29944.81
680.70	30094.61
680.83	29591.39
680.97	29661.61
681.11	29811.40
681.25	29521.18
681.39	29640.54
681.52	29443.94
681.66	29001.58
681.80	28936.04
681.94	28840.08
682.07	28973.49
682.21	28758.16
682.35	28577.94
682.49	29074.13
682.62	28388.36
682.76	28559.22
682.90	28304.10
683.04	28638.80
683.17	28641.14
683.31	28023.23
683.45	28030.26
683.59	28025.57
683.72	27931.95
683.86	27960.04
684.00	27782.16
684.13	27868.76
684.27	27658.11
684.41	27234.47
684.55	27199.37
684.68	27087.02
684.82	26974.67
684.96	27119.79
685.09	26965.31
685.23	27030.85
685.37	27405.33
685.50	27426.40
685.64	26831.90
685.78	26838.92
685.91	26354.43
686.05	25998.67
686.19	25919.09
686.32	25900.37
686.46	25617.16
686.60	25813.77
686.73	25638.23
686.87	25455.67
687.01	25898.03
687.14	25460.35
687.28	25701.42
687.42	25427.58
687.55	25123.31
687.69	25415.88
687.82	24940.75
687.96	24961.81
688.10	25104.59
688.23	24973.52
688.37	25116.29
688.50	25172.46
688.64	24545.20
688.78	24325.19
688.91	24306.46
689.05	23960.06
689.18	23950.70
689.32	23613.66
689.46	23728.35
689.59	23679.20
689.73	24135.60
689.86	24547.54
690.00	23358.55
690.13	23711.97
690.27	23211.09
690.41	23555.15
690.54	23225.14
690.68	22948.95
690.81	22967.68
690.95	22967.68
691.08	22824.90
691.22	22448.08
691.35	22223.39
691.49	22775.75
691.62	22684.47
691.76	22068.91
691.89	22001.04
692.03	22211.68
692.16	21956.57
692.30	22132.11
692.43	22235.09
692.57	21577.40
692.70	21451.01
692.84	21675.70
692.97	21357.39
693.11	21308.24
693.24	21324.62
693.38	21282.49
693.51	21294.19
693.65	21032.05
693.78	20919.71
693.92	20849.49
694.05	20486.71
694.19	20624.80
694.32	20636.50
694.45	20886.94
694.59	20444.58
694.72	20753.53
694.86	20432.88
694.99	20137.97
695.13	20084.14
695.26	20030.30
695.39	19833.70
695.53	19740.08
695.66	19726.04
695.80	19307.08
695.93	19676.88
696.07	19403.04
696.20	19243.88
696.33	19091.75
696.47	19115.16
696.60	19080.05
696.73	18824.93
696.87	19220.48
697.00	19084.73
697.14	18483.21
697.27	18677.48
697.40	18375.55
697.54	18532.36
697.67	18342.78
697.80	18366.18
697.94	18347.46
698.07	18251.50
698.21	17996.38
698.34	18225.75
698.47	18057.23
698.61	17694.45
698.74	17654.66
698.87	17722.54
699.01	17130.38
699.14	17544.66
699.27	17504.87
699.40	17202.94
699.54	17509.55
699.67	17310.60
699.80	17055.48
699.94	16905.69
700.07	17142.08
700.20	17006.33
700.34	16877.60
700.47	16704.40
700.60	16765.26
700.73	16697.38
700.87	16388.43
701.00	16460.99
701.13	16255.02
701.26	16109.91
701.40	16292.47
701.53	15819.68
701.66	16329.92
701.79	15917.98
701.93	15749.46
702.06	15482.64
702.19	15822.02
702.32	15681.59
702.46	15660.52
702.59	15592.65
702.72	15618.39
702.85	15414.77
702.99	15508.39
703.12	15197.10
703.25	15035.60
703.38	15068.37
703.51	15035.60
703.65	14834.32
703.78	14668.14
703.91	14523.02
704.04	14314.72
704.17	14415.36
704.31	14506.64
704.44	14415.36
704.57	14377.91
704.70	14525.36
704.83	14253.86
704.96	14010.45
705.10	13888.74
705.23	14221.10
>>>>>End Processed Spectral Data<<<<<
