SpectraSuite Data File
++++++++++++++++++++++++++++++++++++
Date: Fri Oct 25 10:44:20 EDT 2013
User: price-jones
Dark Spectrum Present: No
Reference Spectrum Present: No
Number of Sampled Component Spectra: 1
Spectrometers: USB2+H05261
Integration Time (usec): 100000 (USB2+H05261)
Spectra Averaged: 1 (USB2+H05261)
Boxcar Smoothing: 0 (USB2+H05261)
Correct for Electrical Dark: No (USB2+H05261)
Strobe/Lamp Enabled: No (USB2+H05261)
Correct for Detector Non-linearity: No (USB2+H05261)
Correct for Stray Light: No (USB2+H05261)
Number of Pixels in Processed Spectrum: 2048
>>>>>Begin Processed Spectral Data<<<<<
365.73	145.11
365.92	145.11
366.12	145.11
366.32	28.09
366.52	0.00
366.72	60.85
366.91	25.75
367.11	58.51
367.31	14.04
367.51	0.00
367.70	0.00
367.90	77.24
368.10	70.22
368.30	18.72
368.49	9.36
368.69	37.45
368.89	7.02
369.09	58.51
369.28	74.90
369.48	42.13
369.68	70.22
369.87	70.22
370.07	110.01
370.27	184.90
370.47	208.31
370.66	383.85
370.86	360.44
371.06	486.83
371.25	582.79
371.45	505.56
371.65	486.83
371.84	493.85
372.04	498.53
372.24	531.30
372.44	507.90
372.63	507.90
372.83	449.38
373.03	566.41
373.22	444.70
373.42	538.32
373.62	535.98
373.81	592.16
374.01	575.77
374.21	557.05
374.40	514.92
374.60	582.79
374.79	624.92
374.99	601.52
375.19	613.22
375.38	599.18
375.58	589.82
375.78	559.39
375.97	620.24
376.17	650.67
376.37	533.64
376.56	650.67
376.76	655.35
376.95	624.92
377.15	641.31
377.35	683.44
377.54	634.29
377.74	681.10
377.93	688.12
378.13	692.80
378.33	650.67
378.52	678.76
378.72	624.92
378.91	697.48
379.11	638.97
379.31	685.78
379.50	695.14
379.70	751.31
379.89	741.95
380.09	725.57
380.28	660.03
380.48	734.93
380.68	648.33
380.87	702.16
381.07	697.48
381.26	744.29
381.46	786.42
381.65	720.88
381.85	753.65
382.04	671.73
382.24	638.97
382.43	690.46
382.63	720.88
382.83	641.31
383.02	788.76
383.22	758.33
383.41	784.08
383.61	767.70
383.80	816.85
384.00	837.91
384.19	748.97
384.39	805.14
384.58	830.89
384.78	851.96
384.97	863.66
385.17	772.38
385.36	788.76
385.56	844.93
385.75	812.17
385.95	779.40
386.14	891.74
386.34	894.08
386.53	840.25
386.72	889.40
386.92	842.59
387.11	868.34
387.31	851.96
387.50	868.34
387.70	919.83
387.89	922.17
388.09	858.98
388.28	896.43
388.48	992.39
388.67	987.71
388.86	924.51
389.06	985.37
389.25	1008.77
389.45	1025.15
389.64	990.05
389.84	1008.77
390.03	1074.31
390.22	976.00
390.42	1046.22
390.61	1020.47
390.81	985.37
391.00	1036.86
391.19	1011.11
391.39	1130.48
391.58	1064.94
391.78	1046.22
391.97	1062.60
392.16	1090.69
392.36	1067.28
392.55	1004.09
392.75	1090.69
392.94	964.30
393.13	1008.77
393.33	1097.71
393.52	1064.94
393.71	1093.03
393.91	1153.88
394.10	1137.50
394.29	1235.80
394.49	1231.12
394.68	1273.25
394.88	1249.85
395.07	1324.74
395.26	1240.48
395.46	1287.29
395.65	1336.45
395.84	1355.17
396.04	1296.66
396.23	1200.69
396.42	1245.16
396.62	1231.12
396.81	1359.85
397.00	1254.53
397.19	1299.00
397.39	1336.45
397.58	1493.26
397.77	1448.79
397.97	1458.15
398.16	1521.35
398.35	1528.37
398.55	1565.82
398.74	1509.65
398.93	1603.27
399.12	1493.26
399.32	1643.06
399.51	1533.05
399.70	1629.01
399.90	1640.72
400.09	1687.53
400.28	1732.00
400.47	1687.53
400.67	1710.93
400.86	1736.68
401.05	1783.49
401.24	1769.44
401.44	1659.44
401.63	1743.70
401.82	1802.21
402.01	1748.38
402.21	1795.19
402.40	1952.01
402.59	1816.26
402.78	1860.73
402.97	1954.35
403.17	1956.69
403.36	1884.13
403.55	1820.94
403.74	1860.73
403.93	1956.69
404.13	2015.20
404.32	1823.28
404.51	1870.09
404.70	2003.50
404.89	1949.67
405.09	2040.95
405.28	1998.82
405.47	2052.65
405.66	2188.40
405.85	2043.29
406.05	2059.67
406.24	2125.21
406.43	2101.80
406.62	2209.47
406.81	2150.95
407.00	2193.08
407.20	2165.00
407.39	2052.65
407.58	2225.85
407.77	2272.66
407.96	2366.28
408.15	2427.14
408.34	2282.02
408.54	2396.71
408.73	2392.03
408.92	2380.32
409.11	2438.84
409.30	2321.81
409.49	2394.37
409.68	2340.54
409.87	2347.56
410.07	2368.62
410.26	2401.39
410.45	2450.54
410.64	2497.35
410.83	2626.08
411.02	2541.82
411.21	2597.99
411.40	2745.45
411.59	2588.63
411.78	2605.02
411.98	2754.81
412.17	2679.91
412.36	2876.52
412.55	2810.98
412.74	2846.09
412.93	2789.92
413.12	2836.73
413.31	2925.67
413.50	2897.58
413.69	2958.44
413.88	2904.60
414.07	3133.98
414.26	3101.21
414.45	3094.19
414.64	3110.57
414.83	3150.36
415.02	3169.09
415.22	3206.53
415.41	3124.62
415.60	3344.63
415.79	3332.92
415.98	3353.99
416.17	3485.06
416.36	3330.58
416.55	3353.99
416.74	3344.63
416.93	3435.91
417.12	3421.86
417.31	3321.22
417.50	3428.88
417.69	3562.30
417.88	3597.40
418.07	3557.61
418.26	3494.42
418.45	3618.47
418.64	3684.00
418.83	3763.58
419.02	3735.50
419.21	3646.55
419.39	3770.60
419.58	3625.49
419.77	3686.34
419.96	3777.62
420.15	3707.41
420.34	3854.86
420.53	3911.04
420.72	3999.98
420.91	4086.58
421.10	4049.13
421.29	4049.13
421.48	3899.33
421.67	4044.45
421.86	3962.53
422.05	3845.50
422.24	3756.56
422.43	3901.67
422.61	4056.15
422.80	4098.28
422.99	4074.87
423.18	4086.58
423.37	4135.73
423.56	4016.36
423.75	3971.89
423.94	3988.27
424.13	3684.00
424.32	3763.58
424.50	4098.28
424.69	4079.55
424.88	4201.26
425.07	3990.61
425.26	4037.42
425.45	4063.17
425.64	4030.40
425.83	3985.93
426.01	4037.42
426.20	4098.28
426.39	4060.83
426.58	3957.85
426.77	4053.81
426.96	4112.32
427.15	4145.09
427.33	4264.46
427.52	4145.09
427.71	4262.12
427.90	4344.03
428.09	4145.09
428.28	4243.39
428.46	4334.67
428.65	4161.47
428.84	4561.70
429.03	4334.67
429.22	4177.86
429.40	4320.63
429.59	4278.50
429.78	4217.65
429.97	4030.40
430.16	4166.15
430.34	4234.03
430.53	4329.99
430.72	4325.31
430.91	4374.46
431.10	4468.08
431.28	4552.34
431.47	4762.99
431.66	4713.84
431.85	4865.97
432.03	4875.34
432.22	4837.89
432.41	4908.10
432.60	4863.63
432.79	4851.93
432.97	4851.93
433.16	4849.59
433.35	4746.61
433.54	4807.46
433.72	4755.97
433.91	4788.74
434.10	4868.31
434.28	4802.78
434.47	4924.49
434.66	5001.72
434.85	5001.72
435.03	4945.55
435.22	5165.56
435.41	5404.30
435.59	5224.08
435.78	5158.54
435.97	5350.46
436.16	5345.78
436.34	5301.31
436.53	5350.46
436.72	5502.60
436.90	5224.08
437.09	5287.27
437.28	5308.34
437.46	5423.02
437.65	5362.17
437.84	5371.53
438.02	5247.48
438.21	5350.46
438.40	5296.63
438.58	5406.64
438.77	5729.63
438.96	5678.14
439.14	5881.77
439.33	5678.14
439.52	5818.57
439.70	5851.34
439.89	5877.09
440.08	5916.87
440.26	5998.79
440.45	5778.78
440.63	6029.22
440.82	5959.00
441.01	6164.97
441.19	6193.06
441.38	6338.17
441.57	6331.15
441.75	6413.07
441.94	6380.30
442.12	6394.34
442.31	6604.99
442.50	6637.76
442.68	6637.76
442.87	6487.96
443.05	6569.88
443.24	6722.02
443.43	6576.91
443.61	6686.91
443.80	6841.39
443.98	6717.34
444.17	6448.18
444.35	6736.06
444.54	6803.94
444.73	6827.34
444.91	6789.89
445.10	6736.06
445.28	6628.40
445.47	6586.27
445.65	6502.01
445.84	6803.94
446.02	6801.60
446.21	6862.45
446.39	6874.15
446.58	6860.11
446.77	6904.58
446.95	6848.41
447.14	6724.36
447.32	6902.24
447.51	6942.03
447.69	6981.82
447.88	6984.16
448.06	7054.37
448.25	6942.03
448.43	7056.72
448.62	6904.58
448.80	7145.66
448.99	7063.74
449.17	7194.81
449.36	6942.03
449.54	7180.76
449.73	7386.73
449.91	7389.07
450.10	7339.92
450.28	7358.64
450.46	7452.27
450.65	7283.75
450.83	7627.81
451.02	7335.24
451.20	7592.70
451.39	7435.88
451.57	7426.52
451.76	7269.70
451.94	7426.52
452.13	7379.71
452.31	7627.81
452.49	7197.15
452.68	7452.27
452.86	7316.51
453.05	7386.73
453.23	7679.30
453.42	7545.89
453.60	7588.02
453.78	7641.85
453.97	7777.60
454.15	7562.27
454.34	7634.83
454.52	7679.30
454.70	7803.35
454.89	7669.94
455.07	7709.72
455.26	7997.61
455.44	7894.63
455.62	7988.25
455.81	8145.06
455.99	7845.48
456.17	8018.68
456.36	8194.22
456.54	8159.11
456.73	8264.43
456.91	8325.29
457.09	8294.86
457.28	8526.57
457.46	8060.80
457.64	8496.14
457.83	8365.07
458.01	8315.92
458.19	8493.80
458.38	8526.57
458.56	8451.67
458.74	8592.11
458.93	8643.60
459.11	8528.91
459.29	8564.02
459.48	8435.29
459.66	8685.73
459.84	8697.43
460.03	8957.23
460.21	8854.25
460.39	8695.09
460.57	8659.98
460.76	9001.70
460.94	8931.48
461.12	8894.04
461.31	8952.55
461.49	8823.82
461.67	8896.38
461.85	9060.21
462.04	9083.62
462.22	9188.94
462.40	9074.26
462.59	9097.66
462.77	9188.94
462.95	9320.01
463.13	9062.55
463.32	9195.96
463.50	9270.86
463.68	9437.04
463.86	9301.29
464.05	9095.32
464.23	9224.05
464.41	9392.57
464.59	9111.71
464.78	9437.04
464.96	9413.63
465.14	9329.38
465.32	9600.88
465.50	9680.46
465.69	9776.42
465.87	9533.00
466.05	9423.00
466.23	9425.34
466.41	9521.30
466.60	9528.32
466.78	9352.78
466.96	9366.82
467.14	9558.75
467.32	9720.24
467.51	9731.95
467.69	9575.13
467.87	9563.43
468.05	9778.76
468.23	9549.39
468.41	9645.35
468.60	9837.27
468.78	9788.12
468.96	9764.72
469.14	9998.77
469.32	10068.98
469.50	9851.31
469.69	10097.07
469.87	10118.14
470.05	10076.01
470.23	10003.45
470.41	10097.07
470.59	10387.30
470.77	10279.63
470.95	10228.14
471.14	10457.51
471.32	10211.76
471.50	10560.50
471.68	10436.45
471.86	10633.05
472.04	10939.66
472.22	10920.94
472.40	10415.38
472.58	10930.30
472.77	10752.42
472.95	11073.07
473.13	11265.00
473.31	10609.65
473.49	10799.23
473.67	11002.86
473.85	11033.29
474.03	11328.19
474.21	11480.33
474.39	11250.96
474.57	11463.94
474.75	11648.85
474.93	11246.27
475.12	11641.82
475.30	11618.42
475.48	11501.39
475.66	11426.50
475.84	11765.87
476.02	11920.35
476.20	11468.62
476.38	11896.94
476.56	12318.24
476.74	12238.66
476.92	12105.25
477.10	12294.83
477.28	12409.52
477.46	12446.97
477.64	12725.49
477.82	12823.80
478.00	13146.79
478.18	12884.65
478.36	12823.80
478.54	13011.04
478.72	12973.59
478.90	13334.03
479.08	13509.57
479.26	13476.80
479.44	13563.40
479.62	13710.86
479.80	13628.94
479.98	13624.26
480.16	14244.50
480.34	13858.31
480.52	14169.60
480.70	14368.55
480.88	13841.93
481.06	14281.95
481.24	14494.94
481.41	14586.22
481.59	14949.00
481.77	14916.23
481.95	14719.63
482.13	15007.52
482.31	15274.34
482.49	15169.01
482.67	15321.15
482.85	15597.33
483.03	15594.99
483.21	15915.64
483.39	15679.25
483.57	15985.86
483.74	16215.23
483.92	16250.34
484.10	16222.25
484.28	16512.48
484.46	16554.61
484.64	16851.86
484.82	16386.09
485.00	16734.83
485.18	16842.50
485.35	16830.79
485.53	16624.83
485.71	16620.14
485.89	16926.75
486.07	16879.94
486.25	17242.73
486.43	17289.54
486.61	17565.72
486.78	17724.88
486.96	17858.29
487.14	18115.75
487.32	18492.57
487.50	18326.39
487.68	18551.09
487.85	18700.88
488.03	18883.44
488.21	18761.73
488.39	18759.39
488.57	19035.58
488.75	19267.29
488.92	19791.57
489.10	19810.29
489.28	20039.67
489.46	20308.83
489.64	20177.76
489.81	20524.16
489.99	20978.22
490.17	21050.78
490.35	20823.75
490.53	20851.83
490.70	20849.49
490.88	21301.22
491.06	21270.79
491.24	21254.40
491.41	21160.78
491.59	21593.78
491.77	21596.12
491.95	21441.65
492.13	21900.39
492.30	21895.71
492.48	22284.24
492.66	22604.89
492.84	22307.65
493.01	22581.49
493.19	22750.01
493.37	22761.71
493.54	23349.18
493.72	23194.71
493.90	23190.03
494.08	23660.48
494.25	23845.38
494.43	23854.74
494.61	23779.84
494.79	23967.09
494.96	23908.57
495.14	23873.46
495.32	24184.76
495.49	24336.89
495.67	24247.95
495.85	24748.82
496.02	24999.26
496.20	24980.54
496.38	24900.96
496.55	25242.68
496.73	25785.68
496.91	25607.80
497.09	25860.58
497.26	25563.33
497.44	25734.19
497.62	25778.66
497.79	25766.96
497.97	25603.12
498.14	26300.60
498.32	26331.03
498.50	26103.99
498.67	26478.48
498.85	26876.37
499.03	26799.13
499.20	27005.10
499.38	26930.20
499.56	27236.81
499.73	26962.97
499.91	27292.99
500.08	27281.28
500.26	27229.79
500.44	27426.40
500.61	27363.20
500.79	27384.27
500.97	27550.45
501.14	27962.38
501.32	27899.19
501.49	28020.89
501.67	27564.49
501.84	28376.66
502.02	27896.85
502.20	28535.81
502.37	28613.05
502.55	28666.88
502.72	28872.85
502.90	29043.71
503.07	28432.83
503.25	28884.55
503.43	28725.39
503.60	29090.52
503.78	28617.73
503.95	28790.93
504.13	29186.48
504.30	29214.57
504.48	29563.31
504.65	29619.48
504.83	29860.55
505.01	30211.64
505.18	29898.00
505.36	30094.61
505.53	30258.45
505.71	30256.11
505.88	30740.60
506.06	30232.70
506.23	30335.68
506.41	30354.41
506.58	30539.31
506.76	30361.43
506.93	30799.11
507.11	30916.14
507.28	31096.36
507.46	31154.87
507.63	30874.01
507.81	31255.51
507.98	30466.75
508.16	30792.09
508.33	31732.98
508.50	31531.70
508.68	31704.90
508.85	31824.26
509.03	31740.00
509.20	31655.75
509.38	31908.52
509.55	31894.48
509.73	32055.98
509.90	31842.99
510.08	31763.41
510.25	31763.41
510.42	32156.62
510.60	32692.60
510.77	32477.27
510.95	32961.76
511.12	32634.09
511.30	32374.29
511.47	33191.14
511.64	33198.16
511.82	33120.92
511.99	33174.75
512.17	33338.59
512.34	33394.76
512.51	33158.37
512.69	33535.20
512.86	33411.15
513.04	33645.20
513.21	33055.39
513.38	33589.03
513.56	33715.42
513.73	33378.38
513.90	33968.19
514.08	33860.53
514.25	34036.07
514.43	33954.15
514.60	33848.83
514.77	34026.71
514.95	34253.74
515.12	34520.56
515.29	34705.46
515.47	34726.53
515.64	35051.86
515.81	34274.80
515.99	34726.53
516.16	34632.91
516.33	34272.46
516.51	34440.98
516.68	33998.62
516.85	34003.30
517.03	34054.79
517.20	34677.38
517.37	34906.75
517.54	35243.79
517.72	35063.57
517.89	34792.06
518.06	34895.05
518.24	34679.72
518.41	35047.18
518.58	35447.41
518.75	35374.86
518.93	35732.96
519.10	35512.95
519.27	36311.07
519.45	35826.58
519.62	36112.13
519.79	35978.72
519.96	35812.54
520.14	36404.69
520.31	35824.24
520.48	36208.09
520.65	36545.12
520.83	36842.37
521.00	36840.03
521.17	36442.14
521.34	36659.81
521.52	37195.79
521.69	37029.62
521.86	37376.01
522.03	37308.14
522.20	37464.96
522.38	37137.28
522.55	36879.82
522.72	37378.36
522.89	37193.45
523.07	37443.89
523.24	37591.34
523.41	37940.08
523.58	37102.17
523.75	37912.00
523.92	37633.47
524.10	38169.46
524.27	38300.53
524.44	38225.63
524.61	38630.54
524.78	38410.53
524.96	38132.01
525.13	38471.39
525.30	39049.50
525.47	39290.57
525.64	38492.45
525.81	38438.62
525.98	38342.66
526.16	37755.18
526.33	38293.50
526.50	38029.02
526.67	37621.77
526.84	38162.43
527.01	38202.22
527.18	38906.73
527.36	39150.14
527.53	39112.69
527.70	39145.46
527.87	39192.27
528.04	39311.64
528.21	39189.93
528.38	39557.39
528.55	39646.33
528.72	39463.77
528.89	40133.17
529.07	39379.51
529.24	39337.38
529.41	39920.18
529.58	39789.11
529.75	39220.36
529.92	39796.13
530.09	40397.65
530.26	39784.43
530.43	40175.30
530.60	40055.93
530.77	40620.00
530.94	40526.38
531.11	40486.59
531.28	39718.89
531.46	40893.84
531.63	40348.50
531.80	40507.65
531.97	40203.38
532.14	39838.26
532.31	40119.12
532.48	40009.12
532.65	40179.98
532.82	40627.02
532.99	40620.00
533.16	40566.16
533.33	40362.54
533.50	40870.43
533.67	41186.41
533.84	40753.41
534.01	40863.41
534.18	40732.34
534.35	40811.92
534.52	40952.35
534.69	41303.43
534.86	41263.64
535.03	40935.97
535.20	41673.24
535.37	41684.94
535.54	41982.19
535.71	41827.71
535.88	41717.71
536.05	41516.42
536.22	41495.36
536.38	41336.20
536.55	41364.29
536.72	41301.09
536.89	41064.70
537.06	41902.61
537.23	41792.61
537.40	41698.98
537.57	41855.80
537.74	41860.48
537.91	41818.35
538.08	41848.78
538.25	41598.34
538.42	42024.32
538.59	42356.67
538.75	41865.16
538.92	41668.56
539.09	42291.14
539.26	41918.99
539.43	42288.80
539.60	42288.80
539.77	41631.11
539.94	42155.39
540.11	41949.42
540.28	42333.27
540.44	41816.01
540.61	42270.08
540.78	42515.83
540.95	41940.06
541.12	42422.21
541.29	42405.83
541.46	42553.28
541.62	42607.11
541.79	43103.31
541.96	42108.58
542.13	42822.44
542.30	43103.31
542.47	42658.60
542.63	42742.86
542.80	43005.00
542.97	43597.16
543.14	43714.19
543.31	43400.55
543.48	43772.70
543.64	43983.35
543.81	44182.29
543.98	43358.42
544.15	43625.25
544.32	43709.50
544.48	44154.21
544.65	43845.26
544.82	43863.98
544.99	43807.81
545.16	43845.26
545.32	43613.54
545.49	44093.35
545.66	43931.86
545.83	44051.22
546.00	44170.59
546.16	43992.71
546.33	43688.44
546.50	43789.08
546.67	44149.53
546.83	44065.27
547.00	44041.86
547.17	43988.03
547.34	44470.18
547.50	43800.79
547.67	44296.98
547.84	44149.53
548.00	44659.76
548.17	44371.88
548.34	44512.31
548.51	44509.97
548.67	44519.33
548.84	44589.55
549.01	44495.92
549.18	44535.71
549.34	44425.71
549.51	45118.51
549.68	44648.06
549.84	44327.41
550.01	44758.06
550.18	44343.79
550.34	44421.03
550.51	44910.20
550.68	44882.11
550.84	44320.38
551.01	45095.10
551.18	44877.43
551.34	44676.15
551.51	44858.71
551.68	44741.68
551.84	45492.99
552.01	44753.38
552.18	45420.44
552.34	44739.34
552.51	44905.52
552.68	45064.67
552.84	45200.43
553.01	45394.69
553.18	44875.09
553.34	45001.48
553.51	45345.54
553.67	45481.29
553.84	45546.82
554.01	45619.38
554.17	45563.21
554.34	45558.53
554.51	45586.61
554.67	45420.44
554.84	45687.26
555.00	45261.28
555.17	45062.33
555.33	45588.95
555.50	45530.44
555.67	46005.57
555.83	45312.77
556.00	45509.38
556.16	45947.06
556.33	46031.32
556.50	45551.51
556.66	45858.12
556.83	45350.22
556.99	45476.61
557.16	46073.45
557.32	46169.41
557.49	45923.65
557.65	45556.19
557.82	45565.55
557.98	46286.43
558.15	45687.26
558.32	45839.39
558.48	45525.76
558.65	45911.95
558.81	45635.77
558.98	45930.67
559.14	45769.18
559.31	45832.37
559.47	46110.89
559.64	46059.40
559.80	45815.99
559.97	46309.84
560.13	45968.12
560.30	45495.33
560.46	45797.26
560.63	46370.69
560.79	46670.28
560.96	46302.82
561.12	46075.79
561.29	46504.10
561.45	45921.31
561.61	46342.61
561.78	46347.29
561.94	45879.18
562.11	45907.27
562.27	46066.42
562.44	46012.59
562.60	46653.90
562.77	46333.24
562.93	46480.70
563.10	45799.60
563.26	45930.67
563.42	46623.47
563.59	46150.68
563.75	46298.14
563.92	46677.30
564.08	46190.47
564.24	46422.19
564.41	46557.94
564.57	46263.03
564.74	46478.36
564.90	46401.12
565.07	46553.26
565.23	46256.01
565.39	46466.66
565.56	46571.98
565.72	46092.17
565.88	46396.44
566.05	46223.24
566.21	46358.99
566.38	45879.18
566.54	46550.91
566.70	46579.00
566.87	46686.67
567.03	46529.85
567.19	46780.29
567.36	46738.16
567.52	46555.60
567.68	46705.39
567.85	46597.73
568.01	46972.21
568.17	46501.76
568.34	46583.68
568.50	46438.57
568.66	45982.16
568.83	46698.37
568.99	46302.82
569.15	46373.03
569.32	46607.09
569.48	46504.10
569.64	46885.61
569.81	47002.64
569.97	46726.46
570.13	46309.84
570.30	45947.06
570.46	46555.60
570.62	46052.38
570.78	46267.71
570.95	45918.97
571.11	46499.42
571.27	46569.64
571.43	46284.09
571.60	46377.72
571.76	46436.23
571.92	46590.70
572.09	46534.53
572.25	46581.34
572.41	46672.62
572.57	46836.46
572.74	47253.08
572.90	46564.96
573.06	46787.31
573.22	46986.25
573.38	46742.84
573.55	46571.98
573.71	46754.54
573.87	46997.96
574.03	47033.07
574.20	46689.01
574.36	46738.16
574.52	46471.34
574.68	46588.36
574.84	46738.16
575.01	46670.28
575.17	46616.45
575.33	46653.90
575.49	46316.86
575.65	46679.64
575.82	47014.34
575.98	46499.42
576.14	47152.43
576.30	46625.81
576.46	46726.46
576.62	46473.68
576.79	46801.35
576.95	46684.33
577.11	46871.57
577.27	46555.60
577.43	46628.15
577.59	46361.33
577.75	46405.80
577.92	46082.81
578.08	46548.57
578.24	46721.77
578.40	46869.23
578.56	46824.76
578.72	46604.75
578.88	46639.86
579.04	47180.52
579.21	46579.00
579.37	46808.37
579.53	46883.27
579.69	46806.03
579.85	46101.53
580.01	46487.72
580.17	46770.93
580.33	46742.84
580.49	47042.43
580.65	46902.00
580.82	47070.51
580.98	46707.73
581.14	46691.35
581.30	47035.41
581.46	47086.90
581.62	46461.97
581.78	46944.12
581.94	47330.31
582.10	46939.44
582.26	46824.76
582.42	46955.83
582.58	46878.59
582.74	46911.36
582.90	46770.93
583.06	46925.40
583.22	46827.10
583.38	47283.50
583.54	46880.93
583.70	46925.40
583.86	47047.11
584.02	46642.20
584.18	47143.07
584.34	47182.86
584.50	46904.34
584.66	46607.09
584.82	46497.08
584.98	47295.21
585.14	47007.32
585.30	46857.52
585.46	47040.09
585.62	46810.71
585.78	47063.49
585.94	46670.28
586.10	46651.56
586.26	46562.62
586.42	47257.76
586.58	47019.02
586.74	47276.48
586.90	46997.96
587.06	46602.41
587.22	47105.62
587.38	46719.43
587.54	46911.36
587.70	47002.64
587.86	46754.54
588.02	46768.58
588.18	47037.75
588.34	46447.93
588.49	46103.87
588.65	45904.93
588.81	46253.67
588.97	46653.90
589.13	46185.79
589.29	46508.79
589.45	46564.96
589.61	46983.91
589.77	46958.17
589.93	46988.60
590.08	46909.02
590.24	46733.48
590.40	47049.45
590.56	47264.78
590.72	47281.16
590.88	47002.64
591.04	46789.65
591.20	47475.43
591.35	47133.71
591.51	47267.12
591.67	46880.93
591.83	46962.85
591.99	46822.42
592.15	47056.47
592.31	47222.65
592.46	47082.22
592.62	47112.64
592.78	46920.72
592.94	47180.52
593.10	46646.88
593.26	47100.94
593.41	47269.46
593.57	46871.57
593.73	47107.96
593.89	47276.48
594.05	46951.15
594.20	47484.79
594.36	46974.55
594.52	47147.75
594.68	46600.07
594.84	46887.95
594.99	47180.52
595.15	46948.81
595.31	47262.44
595.47	46838.80
595.62	47044.77
595.78	46979.23
595.94	47224.99
596.10	47175.84
596.25	47138.39
596.41	47388.83
596.57	47138.39
596.73	47014.34
596.88	46939.44
597.04	47117.32
597.20	47035.41
597.36	47189.88
597.51	46997.96
597.67	47166.48
597.83	47047.11
597.99	47683.73
598.14	47126.69
598.30	47091.58
598.46	47075.19
598.61	46749.86
598.77	46986.25
598.93	46878.59
599.09	46878.59
599.24	47674.37
599.40	46864.55
599.56	47079.88
599.71	47168.82
599.87	47297.55
600.03	46447.93
600.18	46990.94
600.34	47178.18
600.50	47112.64
600.65	46770.93
600.81	46960.51
600.97	47363.08
601.12	47152.43
601.28	47437.98
601.44	46843.48
601.59	46815.40
601.75	46600.07
601.91	46436.23
602.06	46532.19
602.22	47168.82
602.37	46967.53
602.53	46693.69
602.69	47288.18
602.84	46740.50
603.00	46555.60
603.16	47351.38
603.31	46997.96
603.47	46981.57
603.62	47126.69
603.78	47009.66
603.94	47143.07
604.09	47016.68
604.25	47152.43
604.40	46543.89
604.56	47056.47
604.71	47051.79
604.87	47084.56
605.03	46630.49
605.18	46562.62
605.34	46941.78
605.49	46567.30
605.65	46810.71
605.80	46394.10
605.96	46967.53
606.12	46609.43
606.27	47480.11
606.43	46653.90
606.58	47019.02
606.74	46501.76
606.89	46351.97
607.05	46728.80
607.20	47082.22
607.36	46351.97
607.51	46990.94
607.67	46752.20
607.82	46836.46
607.98	46883.27
608.13	46246.65
608.29	46459.63
608.44	46452.61
608.60	46401.12
608.75	46384.74
608.91	46040.68
609.06	46436.23
609.22	46611.77
609.37	46204.52
609.53	46728.80
609.68	46028.98
609.84	46272.39
609.99	46239.62
610.15	46113.23
610.30	46024.29
610.46	46124.94
610.61	46447.93
610.76	46382.40
610.92	46295.80
611.07	46225.58
611.23	46728.80
611.38	46483.04
611.54	46419.84
611.69	45591.30
611.84	45986.85
612.00	45851.09
612.15	46024.29
612.31	46171.75
612.46	45844.07
612.62	46251.33
612.77	45930.67
612.92	46188.13
613.08	45937.69
613.23	45825.35
613.39	45933.01
613.54	45993.87
613.69	45762.15
613.85	45961.10
614.00	45977.48
614.15	46120.26
614.31	46108.55
614.46	45916.63
614.62	46171.75
614.77	45612.36
614.92	45818.33
615.08	45701.30
615.23	45352.56
615.38	45553.85
615.54	45511.72
615.69	45598.32
615.84	45397.03
616.00	45242.56
616.15	45703.64
616.30	45207.45
616.46	44732.32
616.61	45598.32
616.76	45429.80
616.92	44734.66
617.07	45172.34
617.22	45254.26
617.37	45214.47
617.53	45535.12
617.68	45738.75
617.83	45478.95
617.99	45588.95
618.14	45310.43
618.29	45397.03
618.45	44729.98
618.60	45280.00
618.75	44975.73
618.90	45162.98
619.06	45411.07
619.21	45422.78
619.36	45308.09
619.51	45029.57
619.67	44872.75
619.82	45333.84
619.97	44917.22
620.12	45088.08
620.28	44823.60
620.43	45092.76
620.58	45102.12
620.73	44790.83
620.89	45003.82
621.04	44554.44
621.19	44767.43
621.34	44774.45
621.49	44575.50
621.65	44739.34
621.80	44755.72
621.95	44708.91
622.10	44348.47
622.25	44217.40
622.41	44322.72
622.56	44142.50
622.71	44481.88
622.86	44514.65
623.01	44449.11
623.16	44432.73
623.32	44711.25
623.47	44423.37
623.62	44720.62
623.77	44236.12
623.92	43800.79
624.07	44449.11
624.23	44264.21
624.38	44332.09
624.53	43648.65
624.68	44086.33
624.83	44158.89
624.98	43548.01
625.13	43728.23
625.29	43931.86
625.44	43498.86
625.59	43449.70
625.74	43543.33
625.89	43363.11
626.04	43775.04
626.19	43756.32
626.34	43545.67
626.49	44198.68
626.65	43346.72
626.80	44313.36
626.95	43845.26
627.10	43704.82
627.25	43749.29
627.40	43328.00
627.55	42967.55
627.70	43089.26
627.85	43054.15
628.00	42504.13
628.15	43552.69
628.30	43215.65
628.45	43079.90
628.60	43384.17
628.76	43145.44
628.91	43365.45
629.06	43016.71
629.21	42799.04
629.36	43040.11
629.51	43248.42
629.66	42541.58
629.81	42614.13
629.96	42904.36
630.11	43033.09
630.26	43112.67
630.41	42946.49
630.56	42866.91
630.71	42990.96
630.86	42787.33
631.01	42553.28
631.16	42979.26
631.31	42677.33
631.46	42361.36
631.61	42923.08
631.76	42735.84
631.91	42557.96
632.06	42431.57
632.21	42513.49
632.36	42768.61
632.51	42309.86
632.66	42487.74
632.81	42471.36
632.96	42351.99
633.10	42403.49
633.25	42742.86
633.40	42469.02
633.55	42497.11
633.70	42305.18
633.85	42267.73
634.00	42075.81
634.15	42703.07
634.30	42150.71
634.45	42403.49
634.60	42272.42
634.75	42347.31
634.90	41958.78
635.05	41986.87
635.19	42380.08
635.34	42370.72
635.49	41893.25
635.64	41640.47
635.79	41654.51
635.94	41872.18
636.09	41942.40
636.24	41523.44
636.39	41656.85
636.53	41743.45
636.68	41354.93
636.83	41677.92
636.98	42157.73
637.13	41706.01
637.28	41851.12
637.43	41961.12
637.57	41808.99
637.72	41612.38
637.87	41965.81
638.02	41766.86
638.17	41944.74
638.32	41823.03
638.46	41483.66
638.61	41434.50
638.76	41193.43
638.91	41397.06
639.06	41476.63
639.20	41163.00
639.35	41890.91
639.50	41462.59
639.65	41706.01
639.80	41493.02
639.94	41113.85
640.09	41338.54
640.24	41240.24
640.39	40938.31
640.54	40870.43
640.68	40715.96
640.83	41017.89
640.98	41050.66
641.13	40664.47
641.27	41352.58
641.42	40596.59
641.57	40652.76
641.72	41062.36
641.86	40509.99
642.01	40645.74
642.16	40575.53
642.31	40699.58
642.45	40884.48
642.60	40184.66
642.75	40610.64
642.90	40505.31
643.04	40722.98
643.19	40187.00
643.34	40793.20
643.48	40076.99
643.63	40329.77
643.78	40437.44
643.93	40526.38
644.07	40275.94
644.22	40449.14
644.37	40318.07
644.51	40156.57
644.66	40730.00
644.81	40575.53
644.95	40634.04
645.10	40041.88
645.25	40369.56
645.39	40224.45
645.54	40542.76
645.69	39812.51
645.83	39999.76
645.98	40069.97
646.13	39892.09
646.27	40172.96
646.42	40126.14
646.57	39746.98
646.71	39697.83
646.86	39992.73
647.00	40187.00
647.15	40203.38
647.30	39966.99
647.44	39739.96
647.59	39702.51
647.74	39859.32
647.88	39438.03
648.03	39931.88
648.17	39908.47
648.32	39948.26
648.47	40053.59
648.61	39339.72
648.76	39789.11
648.90	39374.83
649.05	39702.51
649.20	39533.99
649.34	39442.71
649.49	39147.80
649.63	38960.56
649.78	39309.30
649.92	39185.25
650.07	39566.76
650.21	38820.13
650.36	39260.15
650.51	39395.90
650.65	39714.21
650.80	39810.17
650.94	39370.15
651.09	39316.32
651.23	39250.78
651.38	39421.64
651.52	39014.39
651.67	39124.40
651.81	39505.90
651.96	38869.28
652.10	38630.54
652.25	39175.89
652.39	39168.87
652.54	38899.70
652.68	39281.21
652.83	38672.67
652.97	39093.97
653.12	39012.05
653.26	38649.27
653.41	38579.05
653.55	38363.72
653.70	38487.77
653.84	38726.50
653.99	38539.26
654.13	39000.35
654.27	38415.21
654.42	38473.73
654.56	38160.09
654.71	38550.96
654.85	38300.53
655.00	38504.15
655.14	38253.72
655.29	38157.75
655.43	38227.97
655.57	38038.39
655.72	37958.81
655.86	38124.99
656.01	37549.21
656.15	37617.09
656.30	37376.01
656.44	37544.53
656.58	37556.24
656.73	37457.93
656.87	37893.27
657.01	38017.32
657.16	37839.44
657.30	37642.84
657.45	37619.43
657.59	37780.93
657.73	37266.01
657.88	38286.48
658.02	38440.96
658.16	38185.84
658.31	37984.55
658.45	37556.24
658.60	37488.36
658.74	37141.96
658.88	37305.80
659.03	37823.06
659.17	37640.50
659.31	37303.46
659.46	37305.80
659.60	37904.98
659.74	37813.70
659.89	37247.29
660.03	37163.03
660.17	36652.79
660.32	36992.17
660.46	37418.14
660.60	37141.96
660.74	37392.40
660.89	36903.23
661.03	36781.52
661.17	36905.57
661.32	36306.39
661.46	36828.33
661.60	36851.73
661.74	36882.16
661.89	36659.81
662.03	36336.82
662.17	36643.43
662.31	36392.99
662.46	36683.22
662.60	36570.87
662.74	36095.74
662.88	36128.51
663.03	35969.35
663.17	36058.29
663.31	35674.45
663.45	35962.33
663.60	35896.80
663.74	35672.10
663.88	35641.68
664.02	35826.58
664.17	35871.05
664.31	35852.33
664.45	35779.77
664.59	35519.97
664.73	35761.05
664.88	35754.02
665.02	35548.06
665.16	35894.46
665.30	35498.91
665.44	35377.20
665.59	34885.68
665.73	35164.21
665.87	35204.00
666.01	35400.60
666.15	35196.98
666.29	35119.74
666.44	35466.14
666.58	34576.73
666.72	34988.67
666.86	34705.46
667.00	35098.67
667.14	34485.45
667.28	34763.98
667.43	34995.69
667.57	34829.51
667.71	34368.43
667.85	34904.41
667.99	34281.83
668.13	34155.44
668.27	34532.26
668.41	34508.86
668.56	34117.99
668.70	34817.81
668.84	34054.79
668.98	33448.60
669.12	33806.70
669.26	34160.12
669.40	33677.97
669.54	33659.24
669.68	33682.65
669.82	33699.03
669.96	33504.77
670.10	33572.64
670.25	33759.89
670.39	33523.49
670.53	33270.72
670.67	33546.90
670.81	33399.44
670.95	33708.40
671.09	33352.63
671.23	32914.95
671.37	33228.59
671.51	33109.22
671.65	32828.35
671.79	32781.54
671.93	32971.13
672.07	33380.72
672.21	32617.71
672.35	32687.92
672.49	32629.41
672.63	32329.82
672.77	32275.99
672.91	32807.29
673.05	32283.01
673.19	32266.63
673.33	32048.96
673.47	32250.24
673.61	31967.04
673.75	32030.23
673.89	31885.12
674.03	31302.32
674.17	31555.10
674.31	31761.07
674.45	32006.83
674.59	31782.13
674.73	31435.74
674.87	31569.15
675.01	31428.71
675.15	31351.48
675.29	31367.86
675.43	31112.74
675.56	30976.99
675.70	30827.20
675.84	31005.08
675.98	30157.80
676.12	30756.98
676.26	30815.49
676.40	30338.02
676.54	30895.07
676.68	30948.90
676.82	30106.31
676.96	30235.04
677.10	30211.64
677.23	30501.86
677.37	30195.25
677.51	29949.50
677.65	29933.11
677.79	29397.13
677.93	29970.56
678.07	29663.95
678.21	29521.18
678.34	29188.82
678.48	29432.24
678.62	28994.56
678.76	28563.90
678.90	29024.98
679.04	28945.41
679.18	28882.21
679.31	28428.15
679.45	28531.13
679.59	28629.43
679.73	28622.41
679.87	28336.87
680.00	28039.62
680.14	28364.95
680.28	28259.63
680.42	28081.75
680.56	27960.04
680.70	27800.88
680.83	28072.39
680.97	27927.27
681.11	27676.83
681.25	27438.10
681.39	27718.96
681.52	27733.01
681.66	27587.89
681.80	27276.60
681.94	27250.86
682.07	27276.60
682.21	26972.33
682.35	26955.95
682.49	27016.80
682.62	27028.51
682.76	26647.00
682.90	26607.21
683.04	26462.10
683.17	26082.93
683.31	26082.93
683.45	26216.34
683.59	25947.18
683.72	25898.03
683.86	25977.61
684.00	26286.56
684.13	25781.00
684.27	25406.52
684.41	25619.50
684.55	25504.82
684.68	25432.26
684.82	25308.21
684.96	25113.95
685.09	25226.29
685.23	24854.15
685.37	24907.98
685.50	25245.02
685.64	25010.96
685.78	24739.46
685.91	24524.13
686.05	24521.79
686.19	24584.99
686.32	24166.03
686.46	24116.88
686.60	23747.08
686.73	23707.29
686.87	23627.71
687.01	23314.08
687.14	23246.20
687.28	23019.17
687.42	23239.18
687.55	23185.35
687.69	23513.02
687.82	23131.51
687.96	23339.82
688.10	23124.49
688.23	22892.78
688.37	22855.33
688.50	22810.86
688.64	22419.99
688.78	22850.65
688.91	22562.76
689.05	22714.90
689.18	22628.30
689.32	22106.36
689.46	22417.65
689.59	22522.98
689.73	22405.95
689.86	22085.30
690.00	22136.79
690.13	22281.90
690.27	22207.00
690.41	22075.93
690.54	21645.27
690.68	21102.27
690.81	21214.62
690.95	21326.96
691.08	21638.25
691.22	21249.72
691.35	21341.00
691.49	21261.43
691.62	21369.09
691.76	21357.39
691.89	21280.15
692.03	20856.51
692.16	20599.05
692.30	20744.17
692.43	20680.97
692.57	20521.82
692.70	20280.74
692.84	20327.55
692.97	20329.89
693.11	20297.13
693.24	20166.06
693.38	19946.05
693.51	19880.51
693.65	19981.15
693.78	20093.50
693.92	19779.87
694.05	19550.49
694.19	19477.94
694.32	19391.34
694.45	19068.34
694.59	19225.16
694.72	19159.63
694.86	19290.70
694.99	19152.60
695.13	19028.56
695.26	19140.90
695.39	18895.14
695.53	18766.42
695.66	18970.04
695.80	18609.60
695.93	18614.28
696.07	18368.52
696.20	18525.34
696.33	18387.25
696.47	18267.88
696.60	18087.66
696.73	18097.02
696.87	18080.64
697.00	18087.66
697.14	17605.51
697.27	17877.01
697.40	17621.89
697.54	17628.92
697.67	17558.70
697.80	17483.80
697.94	17610.19
698.07	17172.51
698.21	17392.52
698.34	17420.61
698.47	17041.44
698.61	16709.08
698.74	17013.35
698.87	16798.02
699.01	16746.53
699.14	16465.67
699.27	16512.48
699.40	16442.26
699.54	16177.78
699.67	16336.94
699.80	16332.26
699.94	16250.34
700.07	16496.10
700.20	16283.11
700.34	16334.60
700.47	16294.81
700.60	16126.29
700.73	16248.00
700.87	16086.50
701.00	15847.77
701.13	15660.52
701.26	15634.78
701.40	15632.44
701.53	15529.45
701.66	15428.81
701.79	15161.99
701.93	15414.77
702.06	15145.61
702.19	15176.03
702.32	15044.96
702.46	15117.52
702.59	15014.54
702.72	14934.96
702.85	14920.92
702.99	14670.48
703.12	14778.14
703.25	14717.29
703.38	14483.24
703.51	14317.06
703.65	14375.57
703.78	14300.67
703.91	14113.43
704.04	14204.71
704.17	14527.71
704.31	14434.08
704.44	14193.01
704.57	13874.70
704.70	14017.47
704.83	13710.86
704.96	13963.64
705.10	13696.82
705.23	13790.44
>>>>>End Processed Spectral Data<<<<<
