SpectraSuite Data File
++++++++++++++++++++++++++++++++++++
Date: Fri Oct 25 10:44:21 EDT 2013
User: price-jones
Dark Spectrum Present: No
Reference Spectrum Present: No
Number of Sampled Component Spectra: 1
Spectrometers: USB2+H05261
Integration Time (usec): 100000 (USB2+H05261)
Spectra Averaged: 1 (USB2+H05261)
Boxcar Smoothing: 0 (USB2+H05261)
Correct for Electrical Dark: No (USB2+H05261)
Strobe/Lamp Enabled: No (USB2+H05261)
Correct for Detector Non-linearity: No (USB2+H05261)
Correct for Stray Light: No (USB2+H05261)
Number of Pixels in Processed Spectrum: 2048
>>>>>Begin Processed Spectral Data<<<<<
365.73	88.94
365.92	88.94
366.12	88.94
366.32	0.00
366.52	37.45
366.72	21.06
366.91	65.54
367.11	39.79
367.31	28.09
367.51	11.70
367.70	117.03
367.90	65.54
368.10	18.72
368.30	79.58
368.49	18.72
368.69	93.62
368.89	25.75
369.09	53.83
369.28	95.96
369.48	30.43
369.68	23.41
369.87	84.26
370.07	93.62
370.27	131.07
370.47	156.82
370.66	418.96
370.86	397.89
371.06	449.38
371.25	526.62
371.45	472.79
371.65	498.53
371.84	376.83
372.04	418.96
372.24	489.17
372.44	444.70
372.63	482.15
372.83	433.00
373.03	517.26
373.22	557.05
373.42	489.17
373.62	587.47
373.81	472.79
374.01	608.54
374.21	564.07
374.40	561.73
374.60	547.69
374.79	503.22
374.99	587.47
375.19	533.64
375.38	650.67
375.58	631.94
375.78	716.20
375.97	608.54
376.17	641.31
376.37	629.60
376.56	662.37
376.76	662.37
376.95	620.24
377.15	603.86
377.35	528.96
377.54	664.71
377.74	660.03
377.93	655.35
378.13	648.33
378.33	645.99
378.52	669.39
378.72	737.27
378.91	737.27
379.11	594.50
379.31	641.31
379.50	650.67
379.70	730.25
379.89	716.20
380.09	669.39
380.28	695.14
380.48	763.01
380.68	716.20
380.87	720.88
381.07	674.07
381.26	760.67
381.46	748.97
381.65	765.36
381.85	723.23
382.04	671.73
382.24	805.14
382.43	725.57
382.63	674.07
382.83	641.31
383.02	706.84
383.22	777.06
383.41	823.87
383.61	732.59
383.80	716.20
384.00	727.91
384.19	744.29
384.39	809.83
384.58	802.80
384.78	828.55
384.97	875.36
385.17	908.13
385.36	779.40
385.56	856.64
385.75	786.42
385.95	753.65
386.14	880.04
386.34	847.27
386.53	889.40
386.72	819.19
386.92	929.19
387.11	891.74
387.31	901.11
387.50	905.79
387.70	915.15
387.89	884.72
388.09	866.00
388.28	891.74
388.48	947.92
388.67	1041.54
388.86	1055.58
389.06	1067.28
389.25	938.55
389.45	1081.33
389.64	1022.81
389.84	1020.47
390.03	1027.50
390.22	1022.81
390.42	1076.65
390.61	1071.97
390.81	1078.99
391.00	1053.24
391.19	1055.58
391.39	1036.86
391.58	1090.69
391.78	1062.60
391.97	1071.97
392.16	1107.07
392.36	1102.39
392.55	1034.52
392.75	999.41
392.94	933.87
393.13	1008.77
393.33	994.73
393.52	1109.41
393.71	1142.18
393.91	1137.50
394.10	1200.69
394.29	1191.33
394.49	1139.84
394.68	1254.53
394.88	1282.61
395.07	1308.36
395.26	1224.10
395.46	1266.23
395.65	1394.96
395.84	1238.14
396.04	1263.89
396.23	1170.27
396.42	1181.97
396.62	1207.72
396.81	1233.46
397.00	1231.12
397.19	1268.57
397.39	1376.24
397.58	1441.77
397.77	1380.92
397.97	1490.92
398.16	1460.49
398.35	1579.86
398.55	1495.60
398.74	1462.83
398.93	1551.78
399.12	1598.59
399.32	1572.84
399.51	1593.90
399.70	1689.87
399.90	1650.08
400.09	1600.93
400.28	1631.35
400.47	1739.02
400.67	1659.44
400.86	1657.10
401.05	1802.21
401.24	1748.38
401.44	1706.25
401.63	1783.49
401.82	1689.87
402.01	1872.43
402.21	1827.96
402.40	1792.85
402.59	1909.88
402.78	1809.23
402.97	1905.20
403.17	1877.11
403.36	1914.56
403.55	1935.62
403.74	1905.20
403.93	1881.79
404.13	1982.43
404.32	1926.26
404.51	1928.60
404.70	1996.48
404.89	1996.48
405.09	1998.82
405.28	2092.44
405.47	1984.77
405.66	1867.75
405.85	2036.27
406.05	2052.65
406.24	2036.27
406.43	2136.91
406.62	2120.53
406.81	2207.13
407.00	2106.48
407.20	1977.75
407.39	2127.55
407.58	2193.08
407.77	2165.00
407.96	2265.64
408.15	2223.51
408.34	2392.03
408.54	2328.83
408.73	2445.86
408.92	2380.32
409.11	2401.39
409.30	2331.17
409.49	2333.51
409.68	2349.90
409.87	2387.35
410.07	2387.35
410.26	2527.78
410.45	2616.72
410.64	2647.15
410.83	2649.49
411.02	2722.04
411.21	2712.68
411.40	2691.62
411.59	2663.53
411.78	2715.02
411.98	2675.23
412.17	2710.34
412.36	2743.11
412.55	2815.66
412.74	2944.39
412.93	2958.44
413.12	2808.64
413.31	2937.37
413.50	2911.63
413.69	2984.18
413.88	3061.42
414.07	3045.04
414.26	2986.52
414.45	2970.14
414.64	3122.27
414.83	3180.79
415.02	3131.64
415.22	3211.22
415.41	3239.30
415.60	3222.92
415.79	3318.88
415.98	3431.23
416.17	3468.67
416.36	3351.65
416.55	3356.33
416.74	3426.54
416.93	3531.87
417.12	3349.31
417.31	3419.52
417.50	3424.20
417.69	3672.30
417.88	3658.26
418.07	3653.58
418.26	3693.37
418.45	3714.43
418.64	3707.41
418.83	3590.38
419.02	3676.98
419.21	3843.16
419.39	3794.01
419.58	3665.28
419.77	3674.64
419.96	3770.60
420.15	3817.41
420.34	3868.91
420.53	3871.25
420.72	3999.98
420.91	3889.97
421.10	3974.23
421.29	3955.51
421.48	3882.95
421.67	4037.42
421.86	4072.53
422.05	3908.69
422.24	4086.58
422.43	3845.50
422.61	3964.87
422.80	4044.45
422.99	4056.15
423.18	4189.56
423.37	4098.28
423.56	4065.51
423.75	4205.94
423.94	4124.02
424.13	3859.54
424.32	3995.29
424.50	4009.34
424.69	4292.54
424.88	4142.75
425.07	4049.13
425.26	4037.42
425.45	3988.27
425.64	4053.81
425.83	4173.18
426.01	4287.86
426.20	4175.52
426.39	4250.41
426.58	4145.09
426.77	4161.47
426.96	4149.77
427.15	4194.24
427.33	4210.62
427.52	4234.03
427.71	4264.46
427.90	4337.01
428.09	4358.08
428.28	4437.66
428.46	4252.75
428.65	4180.20
428.84	4465.74
429.03	4365.10
429.22	4334.67
429.40	4425.95
429.59	4189.56
429.78	4163.81
429.97	3995.29
430.16	4285.52
430.34	4222.33
430.53	4306.59
430.72	4297.22
430.91	4322.97
431.10	4447.02
431.28	4681.07
431.47	4849.59
431.66	4800.44
431.85	4587.45
432.03	4851.93
432.22	4819.16
432.41	4919.81
432.60	4901.08
432.79	4873.00
432.97	4936.19
433.16	5081.30
433.35	4819.16
433.54	4954.91
433.72	4765.33
433.91	4891.72
434.10	4917.47
434.28	4821.50
434.47	5121.09
434.66	5212.37
434.85	5184.29
435.03	5217.05
435.22	5027.47
435.41	5317.70
435.59	5167.90
435.78	5181.95
435.97	5359.83
436.16	5359.83
436.34	5327.06
436.53	5303.65
436.72	5207.69
436.90	5329.40
437.09	5453.45
437.28	5261.52
437.46	5329.40
437.65	5303.65
437.84	5221.74
438.02	5430.04
438.21	5469.83
438.40	5235.78
438.58	5593.88
438.77	5661.76
438.96	5526.00
439.14	5856.02
439.33	5738.99
439.52	5834.96
439.70	5788.14
439.89	5930.92
440.08	6005.81
440.26	5914.53
440.45	5886.45
440.63	6043.26
440.82	6129.86
441.01	6183.70
441.19	6267.95
441.38	6188.38
441.57	6375.62
441.75	6347.53
441.94	6579.25
442.12	6490.31
442.31	6532.44
442.50	6764.15
442.68	6619.04
442.87	6424.77
443.05	6651.80
443.24	6773.51
443.43	6705.63
443.61	6534.78
443.80	6911.60
443.98	6675.21
444.17	6300.72
444.35	6736.06
444.54	6988.84
444.73	6909.26
444.91	6927.99
445.10	6820.32
445.28	6679.89
445.47	6607.33
445.65	6668.19
445.84	6635.42
446.02	6539.46
446.21	6693.93
446.39	6555.84
446.58	6953.73
446.77	6806.28
446.95	6668.19
447.14	6867.13
447.32	6951.39
447.51	7019.27
447.69	6942.03
447.88	7089.48
448.06	6988.84
448.25	6871.81
448.43	6967.77
448.62	7009.90
448.80	6913.94
448.99	7070.76
449.17	7080.12
449.36	7178.42
449.54	7307.15
449.73	7358.64
449.91	7248.64
450.10	7426.52
450.28	7527.16
450.46	7463.97
450.65	7410.14
450.83	7353.96
451.02	7576.31
451.20	7625.47
451.39	7569.29
451.57	7473.33
451.76	7634.83
451.94	7548.23
452.13	7651.21
452.31	7440.56
452.49	7358.64
452.68	7480.35
452.86	7339.92
453.05	7559.93
453.23	7524.82
453.42	7576.31
453.60	7791.64
453.78	7810.37
453.97	7550.57
454.15	7721.43
454.34	7588.02
454.52	7726.11
454.70	7885.26
454.89	7772.92
455.07	7784.62
455.26	8105.28
455.44	8037.40
455.62	7885.26
455.81	8168.47
455.99	7911.01
456.17	8065.49
456.36	8170.81
456.54	8257.41
456.73	8423.59
456.91	8479.76
457.09	8287.84
457.28	8428.27
457.46	8376.78
457.64	8512.53
457.83	8250.39
458.01	8355.71
458.19	8603.81
458.38	8400.18
458.56	8622.53
458.74	8720.84
458.93	8554.66
459.11	8372.10
459.29	8634.24
459.48	8791.05
459.66	8713.81
459.84	9006.38
460.03	8821.48
460.21	8908.08
460.39	8938.51
460.57	8865.95
460.76	8830.84
460.94	9100.00
461.12	8971.27
461.31	9057.87
461.49	9085.96
461.67	8875.31
461.85	9163.20
462.04	9116.39
462.22	9158.52
462.40	9390.23
462.59	9163.20
462.77	9263.84
462.95	9408.95
463.13	9343.42
463.32	9135.11
463.50	9275.54
463.68	9188.94
463.86	9359.80
464.05	9399.59
464.23	9493.21
464.41	9334.06
464.59	9071.92
464.78	9638.33
464.96	9418.32
465.14	9305.97
465.32	9654.71
465.50	9570.45
465.69	9521.30
465.87	9626.62
466.05	9502.58
466.23	9458.10
466.41	9640.67
466.60	9722.59
466.78	9427.68
466.96	9568.11
467.14	9661.73
467.32	9799.82
467.51	9804.50
467.69	9706.20
467.87	9818.55
468.05	9975.36
468.23	9830.25
468.41	9750.67
468.60	9991.75
468.78	9839.61
468.96	9947.28
469.14	10132.18
469.32	10176.65
469.50	9853.66
469.69	10038.56
469.87	10235.16
470.05	10134.52
470.23	10218.78
470.41	10230.48
470.59	10391.98
470.77	10347.51
470.95	10361.55
471.14	10459.85
471.32	10434.11
471.50	10796.89
471.68	10593.26
471.86	10719.65
472.04	10881.15
472.22	10923.28
472.40	10696.25
472.58	10675.18
472.77	10778.17
472.95	10820.30
473.13	11384.37
473.31	10796.89
473.49	10773.49
473.67	11021.58
473.85	11122.23
474.03	11367.98
474.21	11243.93
474.39	11819.71
474.57	11571.61
474.75	11545.86
474.93	11545.86
475.12	11297.77
475.30	11648.85
475.48	11393.73
475.66	11744.81
475.84	11683.95
476.02	11995.25
476.20	11791.62
476.38	11889.92
476.56	12294.83
476.74	12210.57
476.92	12210.57
477.10	12353.35
477.28	12409.52
477.46	12594.42
477.64	12695.07
477.82	13036.78
478.00	12919.76
478.18	12798.05
478.36	12957.21
478.54	12982.95
478.72	13202.96
478.90	13394.89
479.08	13472.12
479.26	13743.63
479.44	13610.22
479.62	13565.74
479.80	14003.43
479.98	14120.45
480.16	14303.01
480.34	13977.68
480.52	14279.61
480.70	14129.81
480.88	14202.37
481.06	14539.41
481.24	14546.43
481.41	14691.54
481.59	14846.02
481.77	14902.19
481.95	14998.15
482.13	15122.20
482.31	14977.09
482.49	15323.49
482.67	15351.57
482.85	15503.71
483.03	15665.21
483.21	15646.48
483.39	15920.32
483.57	15995.22
483.74	16173.10
483.92	16037.35
484.10	15800.96
484.28	16369.71
484.46	16709.08
484.64	16940.80
484.82	16690.36
485.00	16886.97
485.18	17067.19
485.35	16966.54
485.53	16699.72
485.71	16699.72
485.89	17029.74
486.07	16791.00
486.25	17420.61
486.43	17446.35
486.61	17633.60
486.78	17699.13
486.96	17804.46
487.14	18164.90
487.32	18298.31
487.50	18469.17
487.68	18745.35
487.85	19201.76
488.03	18963.02
488.21	19379.64
488.39	19250.91
488.57	19484.96
488.75	19201.76
488.92	19812.63
489.10	20004.56
489.28	20243.29
489.46	20285.42
489.64	20388.41
489.81	20744.17
489.99	20961.84
490.17	21064.82
490.35	21167.80
490.53	21221.64
490.70	21097.59
490.88	21170.15
491.06	21593.78
491.24	21668.68
491.41	21357.39
491.59	21717.83
491.77	21617.19
491.95	22157.85
492.13	22190.62
492.30	22181.26
492.48	22398.93
492.66	22581.49
492.84	22752.35
493.01	22712.56
493.19	22555.74
493.37	23133.86
493.54	23098.75
493.72	23372.59
493.90	23262.58
494.08	23470.89
494.25	24154.33
494.43	24020.92
494.61	24095.82
494.79	24421.15
494.96	24177.73
495.14	24142.63
495.32	24278.38
495.49	24254.97
495.67	24697.33
495.85	25036.71
496.02	24978.20
496.20	25565.67
496.38	25195.87
496.55	25483.75
496.73	25841.85
496.91	25507.16
497.09	25771.64
497.26	25970.58
497.44	25912.07
497.62	25757.60
497.79	26246.77
497.97	25951.86
498.14	26199.96
498.32	26583.80
498.50	26649.34
498.67	26801.47
498.85	27143.19
499.03	26836.58
499.20	27374.91
499.38	27154.90
499.56	27180.64
499.73	27180.64
499.91	27580.87
500.08	27520.02
500.26	27122.13
500.44	27391.29
500.61	27520.02
500.79	27730.67
500.97	27707.26
501.14	27800.88
501.32	27744.71
501.49	27723.65
501.67	27978.76
501.84	28287.71
502.02	28435.17
502.20	28606.03
502.37	28596.67
502.55	28353.25
502.72	29181.80
502.90	28973.49
503.07	28765.18
503.25	29259.04
503.43	29116.26
503.60	28966.47
503.78	29118.60
503.95	28982.85
504.13	29134.99
504.30	29710.76
504.48	29284.78
504.65	29986.94
504.83	30022.05
505.01	30160.14
505.18	30178.87
505.36	30532.29
505.53	30321.64
505.71	30679.74
505.88	30656.34
506.06	30260.79
506.23	30916.14
506.41	30401.22
506.58	30661.02
506.76	30689.10
506.93	31241.47
507.11	30852.94
507.28	30628.25
507.46	31007.42
507.63	30822.51
507.81	30967.63
507.98	30930.18
508.16	31330.41
508.33	31693.19
508.50	31585.53
508.68	32067.68
508.85	32180.03
509.03	32074.70
509.20	31906.18
509.38	32259.60
509.55	32676.22
509.73	32388.33
509.90	32343.86
510.08	32341.52
510.25	32336.84
510.42	32460.89
510.60	32620.05
510.77	33013.26
510.95	33125.60
511.12	32730.05
511.30	33228.59
511.47	33551.58
511.64	33202.84
511.82	33462.64
511.99	33326.89
512.17	33434.55
512.34	33130.28
512.51	33811.38
512.69	33530.51
512.86	33703.71
513.04	33940.11
513.21	33792.65
513.38	33876.91
513.56	33890.96
513.73	33333.91
513.90	33858.19
514.08	34176.50
514.25	34216.29
514.43	34274.80
514.60	34555.67
514.77	34408.22
514.95	34873.98
515.12	34370.77
515.29	34897.39
515.47	35180.59
515.64	35077.61
515.81	34981.65
515.99	34864.62
516.16	34644.61
516.33	34246.72
516.51	34087.56
516.68	33556.26
516.85	33743.50
517.03	34422.26
517.20	34642.27
517.37	35143.14
517.54	35412.31
517.72	35063.57
517.89	35056.54
518.06	34775.68
518.24	35105.70
518.41	35459.12
518.58	35573.80
518.75	35604.23
518.93	35868.71
519.10	35732.96
519.27	36381.29
519.45	36004.46
519.62	35967.01
519.79	36315.75
519.96	36250.22
520.14	36587.25
520.31	36025.53
520.48	36378.95
520.65	36388.31
520.83	36636.41
521.00	37015.57
521.17	37132.60
521.34	36950.04
521.52	37127.92
521.69	37191.11
521.86	37663.90
522.03	37401.76
522.20	37385.38
522.38	37670.92
522.55	37577.30
522.72	37270.69
522.89	37383.04
523.07	37514.11
523.24	37146.64
523.41	38078.18
523.58	38150.73
523.75	38625.86
523.92	38033.71
524.10	37986.89
524.27	38569.69
524.44	38447.98
524.61	38007.96
524.78	38581.39
524.96	38550.96
525.13	38925.45
525.30	38497.13
525.47	39328.02
525.64	38817.78
525.81	38951.20
525.98	38576.71
526.16	38223.29
526.33	38480.75
526.50	38426.92
526.67	38630.54
526.84	38447.98
527.01	38424.57
527.18	38785.02
527.36	39051.84
527.53	39559.73
527.70	39817.19
527.87	39370.15
528.04	38829.49
528.21	39775.06
528.38	39606.55
528.55	40205.72
528.72	39470.79
528.89	40154.23
529.07	39765.70
529.24	39505.90
529.41	40254.87
529.58	39739.96
529.75	39426.32
529.92	40275.94
530.09	40275.94
530.26	40217.43
530.43	40425.73
530.60	40268.92
530.77	40224.45
530.94	40694.89
531.11	40397.65
531.28	40458.50
531.46	41144.28
531.63	41090.44
531.80	40509.99
531.97	40734.68
532.14	40690.21
532.31	40009.12
532.48	40533.40
532.65	40774.47
532.82	40521.69
532.99	40882.14
533.16	40821.28
533.33	41097.47
533.50	41057.68
533.67	41006.19
533.84	40999.16
534.01	41083.42
534.18	40811.92
534.35	41546.85
534.52	41273.01
534.69	41265.99
534.86	41617.07
535.03	41352.58
535.20	41794.95
535.37	41944.74
535.54	42192.84
535.71	41940.06
535.88	41832.39
536.05	41612.38
536.22	41525.78
536.38	41860.48
536.55	41769.20
536.72	41991.55
536.89	41542.17
537.06	41921.34
537.23	41867.50
537.40	42361.36
537.57	42260.71
537.74	41963.46
537.91	42536.90
538.08	41961.12
538.25	42351.99
538.42	42398.80
538.59	42925.42
538.75	41743.45
538.92	42209.22
539.09	42108.58
539.26	42225.60
539.43	42356.67
539.60	42691.37
539.77	42646.90
539.94	42520.51
540.11	42588.39
540.28	43037.77
540.44	42312.20
540.61	42398.80
540.78	42298.16
540.95	42632.86
541.12	42548.60
541.29	42658.60
541.46	42806.06
541.62	43145.44
541.79	43246.08
541.96	42436.25
542.13	42899.68
542.30	43075.22
542.47	43164.16
542.63	42890.32
542.80	43283.53
542.97	43861.64
543.14	43515.24
543.31	43508.22
543.48	43304.59
543.64	44238.47
543.81	44233.78
543.98	44119.10
544.15	43679.08
544.32	44254.85
544.48	44257.19
544.65	44203.36
544.82	44233.78
544.99	43814.83
545.16	43866.32
545.32	44217.40
545.49	44238.47
545.66	44680.83
545.83	44135.48
546.00	44177.61
546.16	44240.81
546.33	44257.19
546.50	43791.42
546.67	44203.36
546.83	43945.90
547.00	44477.20
547.17	44189.31
547.34	44048.88
547.50	44566.14
547.67	44282.94
547.84	44194.00
548.00	45202.77
548.17	44753.38
548.34	44713.59
548.51	44502.95
548.67	44636.36
548.84	44797.85
549.01	44879.77
549.18	44645.72
549.34	45237.87
549.51	44624.65
549.68	45275.32
549.84	44900.84
550.01	45174.68
550.18	44807.22
550.34	44737.00
550.51	45134.89
550.68	45165.32
550.84	44879.77
551.01	45380.65
551.18	44884.45
551.34	45209.79
551.51	45062.33
551.68	45427.46
551.84	45450.86
552.01	45020.20
552.18	45364.26
552.34	45001.48
552.51	45322.13
552.68	45050.63
552.84	45390.01
553.01	45399.37
553.18	45345.54
553.34	45701.30
553.51	45177.02
553.67	45404.05
553.84	45869.82
554.01	46134.30
554.17	45869.82
554.34	45848.75
554.51	45631.08
554.67	46129.62
554.84	45925.99
555.00	45427.46
555.17	45628.74
555.33	46206.86
555.50	45624.06
555.67	45595.98
555.83	46021.95
556.00	46047.70
556.16	45815.99
556.33	45801.94
556.50	46078.13
556.66	46190.47
556.83	45483.63
556.99	46256.01
557.16	46265.37
557.32	46541.55
557.49	46003.23
557.65	45949.40
557.82	45883.86
557.98	46218.56
558.15	45668.53
558.32	46134.30
558.48	45792.58
558.65	46073.45
558.81	45792.58
558.98	46064.08
559.14	45696.62
559.31	45881.52
559.47	46206.86
559.64	46389.42
559.80	46068.76
559.97	46251.33
560.13	46129.62
560.30	46071.10
560.46	46508.79
560.63	46206.86
560.79	46588.36
560.96	46529.85
561.12	46188.13
561.29	46625.81
561.45	46256.01
561.61	46167.07
561.78	46185.79
561.94	46337.93
562.11	46389.42
562.27	46012.59
562.44	46649.22
562.60	46660.92
562.77	46347.29
562.93	46384.74
563.10	46469.00
563.26	46258.35
563.42	46630.49
563.59	46532.19
563.75	46368.35
563.92	46171.75
564.08	46642.20
564.24	46864.55
564.41	46607.09
564.57	46756.88
564.74	46384.74
564.90	46768.58
565.07	46705.39
565.23	46878.59
565.39	46293.46
565.56	46604.75
565.72	46344.95
565.88	46548.57
566.05	46440.91
566.21	46824.76
566.38	46829.44
566.54	46380.06
566.70	47196.90
566.87	47353.72
567.03	46632.83
567.19	46894.97
567.36	46993.28
567.52	46681.98
567.68	47288.18
567.85	46784.97
568.01	46700.71
568.17	46480.70
568.34	47248.39
568.50	47269.46
568.66	46700.71
568.83	46850.50
568.99	46366.01
569.15	46934.76
569.32	46227.92
569.48	46459.63
569.64	46756.88
569.81	46885.61
569.97	46686.67
570.13	47105.62
570.30	46267.71
570.46	46639.86
570.62	46436.23
570.78	46459.63
570.95	46438.57
571.11	46997.96
571.27	46712.41
571.43	46483.04
571.60	46543.89
571.76	46740.50
571.92	47028.38
572.09	46738.16
572.25	46990.94
572.41	47056.47
572.57	47145.41
572.74	47423.93
572.90	47009.66
573.06	46995.62
573.22	46838.80
573.38	46897.31
573.55	46845.82
573.71	47168.82
573.87	46649.22
574.03	47082.22
574.20	47288.18
574.36	46993.28
574.52	46780.29
574.68	46738.16
574.84	46873.91
575.01	46742.84
575.17	46948.81
575.33	46986.25
575.49	47323.29
575.65	47033.07
575.82	46969.87
575.98	46876.25
576.14	47592.45
576.30	47154.77
576.46	46761.56
576.62	46703.05
576.79	46813.05
576.95	46628.15
577.11	47009.66
577.27	46817.74
577.43	46967.53
577.59	47035.41
577.75	46916.04
577.92	46628.15
578.08	46665.60
578.24	46630.49
578.40	47166.48
578.56	47339.68
578.72	47075.19
578.88	46939.44
579.04	47168.82
579.21	47175.84
579.37	46803.69
579.53	46827.10
579.69	46894.97
579.85	46815.40
580.01	47056.47
580.17	47433.30
580.33	46768.58
580.49	46684.33
580.65	46979.23
580.82	47430.96
580.98	46976.89
581.14	47126.69
581.30	47136.05
581.46	47004.98
581.62	47075.19
581.78	47171.16
581.94	47030.72
582.10	47042.43
582.26	46689.01
582.42	47016.68
582.58	47433.30
582.74	47150.09
582.90	47496.49
583.06	46852.84
583.22	47271.80
583.38	47203.92
583.54	47377.12
583.70	47379.46
583.86	46997.96
584.02	46974.55
584.18	47224.99
584.34	47042.43
584.50	47140.73
584.66	47065.83
584.82	46827.10
584.98	47309.25
585.14	47428.62
585.30	46873.91
585.46	46892.63
585.62	47047.11
585.78	47009.66
585.94	46864.55
586.10	47096.26
586.26	46791.99
586.42	47075.19
586.58	47201.58
586.74	47194.56
586.90	47075.19
587.06	47234.35
587.22	47173.50
587.38	46831.78
587.54	47388.83
587.70	46962.85
587.86	47098.60
588.02	46827.10
588.18	47241.37
588.34	46827.10
588.49	46539.21
588.65	46543.89
588.81	46349.63
588.97	46614.11
589.13	46143.66
589.29	46808.37
589.45	46738.16
589.61	46902.00
589.77	47194.56
589.93	47931.83
590.08	47257.76
590.24	47016.68
590.40	47337.33
590.56	47122.01
590.72	47470.75
590.88	47206.26
591.04	47323.29
591.20	47615.86
591.35	47136.05
591.51	47653.31
591.67	47374.78
591.83	47536.28
591.99	47122.01
592.15	47077.54
592.31	47040.09
592.46	47079.88
592.62	47356.06
592.78	47269.46
592.94	47374.78
593.10	47299.89
593.26	47463.72
593.41	47114.98
593.57	47236.69
593.73	46932.42
593.89	47316.27
594.05	47129.03
594.20	47105.62
594.36	47796.08
594.52	46983.91
594.68	47157.11
594.84	47112.64
594.99	47641.60
595.15	47023.70
595.31	47297.55
595.47	47065.83
595.62	47459.04
595.78	47103.28
595.94	47384.15
596.10	47290.52
596.25	47470.75
596.41	47327.97
596.57	46834.12
596.73	47648.63
596.88	46887.95
597.04	47159.45
597.20	47353.72
597.36	47459.04
597.51	47395.85
597.67	47215.63
597.83	47360.74
597.99	47360.74
598.14	47452.02
598.30	47320.95
598.46	47175.84
598.61	47248.39
598.77	47175.84
598.93	47077.54
599.09	47234.35
599.24	47772.67
599.40	47728.20
599.56	47285.84
599.71	47206.26
599.87	47093.92
600.03	47217.97
600.18	47178.18
600.34	46965.19
600.50	47440.32
600.65	47306.91
600.81	47131.37
600.97	47351.38
601.12	47543.30
601.28	47042.43
601.44	47374.78
601.59	47208.61
601.75	46782.63
601.91	46916.04
602.06	46838.80
602.22	47084.56
602.37	47288.18
602.53	46883.27
602.69	47590.11
602.84	46759.22
603.00	47405.21
603.16	47498.83
603.31	47061.15
603.47	46920.72
603.62	47253.08
603.78	47180.52
603.94	47243.71
604.09	47133.71
604.25	47461.38
604.40	47274.14
604.56	47136.05
604.71	47047.11
604.87	47447.34
605.03	46555.60
605.18	46642.20
605.34	47068.17
605.49	46436.23
605.65	47061.15
605.80	47241.37
605.96	47044.77
606.12	47122.01
606.27	47430.96
606.43	47276.48
606.58	46756.88
606.74	47077.54
606.89	46904.34
607.05	47407.55
607.20	46909.02
607.36	47063.49
607.51	47236.69
607.67	47012.00
607.82	46878.59
607.98	46698.37
608.13	46681.98
608.29	46890.29
608.44	46684.33
608.60	46321.54
608.75	46759.22
608.91	46522.83
609.06	46387.08
609.22	46827.10
609.37	46450.27
609.53	46820.08
609.68	46653.90
609.84	46363.67
609.99	46251.33
610.15	46370.69
610.30	46309.84
610.46	46522.83
610.61	46712.41
610.76	46391.76
610.92	46611.77
611.07	46859.87
611.23	46513.47
611.38	46480.70
611.54	46085.15
611.69	46370.69
611.84	46316.86
612.00	46330.90
612.15	46344.95
612.31	46433.89
612.46	46071.10
612.62	46518.15
612.77	46270.05
612.92	46740.50
613.08	46047.70
613.23	45982.16
613.39	46124.94
613.54	45848.75
613.69	46094.51
613.85	46347.29
614.00	46073.45
614.15	46478.36
614.31	46272.39
614.46	45928.33
614.62	46005.57
614.77	45823.01
614.92	46354.31
615.08	46007.91
615.23	46122.60
615.38	46078.13
615.54	45855.78
615.69	45764.49
615.84	45652.15
616.00	45757.47
616.15	45560.87
616.30	46106.21
616.46	45574.91
616.61	45249.58
616.76	45478.95
616.92	45312.77
617.07	45214.47
617.22	45434.48
617.37	45118.51
617.53	45841.73
617.68	45701.30
617.83	45879.18
617.99	46050.04
618.14	45347.88
618.29	45205.11
618.45	45537.46
618.60	45193.40
618.75	45315.11
618.90	45301.07
619.06	45656.83
619.21	45701.30
619.36	45703.64
619.51	45378.31
619.67	45303.41
619.82	45516.40
619.97	45574.91
620.12	44907.86
620.28	44781.47
620.43	45003.82
620.58	44807.22
620.73	44786.15
620.89	45010.84
621.04	45013.18
621.19	45289.37
621.34	45085.74
621.49	44837.64
621.65	44825.94
621.80	44828.28
621.95	44641.04
622.10	44835.30
622.25	44601.25
622.41	45408.73
622.56	44762.75
622.71	44973.39
622.86	44367.20
623.01	44498.26
623.16	44975.73
623.32	44318.04
623.47	44687.85
623.62	44472.52
623.77	44009.09
623.92	44587.21
624.07	44032.50
624.23	44516.99
624.38	44446.77
624.53	44205.70
624.68	44046.54
624.83	44182.29
624.98	44336.77
625.13	43798.44
625.29	43957.60
625.44	43906.11
625.59	43653.33
625.74	43873.34
625.89	43606.52
626.04	43660.35
626.19	43721.21
626.34	43772.70
626.49	43896.75
626.65	43985.69
626.80	44037.18
626.95	44039.52
627.10	43709.50
627.25	43854.62
627.40	43480.13
627.55	43140.75
627.70	42780.31
627.85	43714.19
628.00	43400.55
628.15	43557.37
628.30	43115.01
628.45	43737.59
628.60	43999.73
628.76	43536.30
628.91	43711.84
629.06	43463.75
629.21	43056.50
629.36	43065.86
629.51	43051.81
629.66	42649.24
629.81	42794.36
629.96	43522.26
630.11	43044.79
630.26	43344.38
630.41	43285.87
630.56	42946.49
630.71	42747.54
630.86	42953.51
631.01	42747.54
631.16	42808.40
631.31	42447.96
631.46	42600.09
631.61	42569.66
631.76	42597.75
631.91	43056.50
632.06	43051.81
632.21	43166.50
632.36	43241.40
632.51	42387.10
632.66	42506.47
632.81	42548.60
632.96	42672.65
633.10	42113.26
633.25	42873.93
633.40	42700.73
633.55	42398.80
633.70	42440.93
633.85	42382.42
634.00	42813.08
634.15	42480.72
634.30	42487.74
634.45	42431.57
634.60	42471.36
634.75	42550.94
634.90	42356.67
635.05	42188.16
635.19	42005.59
635.34	42504.13
635.49	42164.75
635.64	41982.19
635.79	41904.95
635.94	42057.09
636.09	42752.23
636.24	42143.69
636.39	41684.94
636.53	41970.49
636.68	42099.22
636.83	41954.10
636.98	41968.15
637.13	41813.67
637.28	41858.14
637.43	42251.35
637.57	42403.49
637.72	41858.14
637.87	41926.02
638.02	42085.17
638.17	41890.91
638.32	41546.85
638.46	41902.61
638.61	41888.57
638.76	41497.70
638.91	41928.36
639.06	41504.72
639.20	41560.89
639.35	41670.90
639.50	42096.88
639.65	42038.36
639.80	41935.38
639.94	41497.70
640.09	41366.63
640.24	41296.41
640.39	41155.98
640.54	40830.65
640.68	41392.37
640.83	41076.40
640.98	41287.05
641.13	40926.61
641.27	41406.42
641.42	41228.54
641.57	40875.12
641.72	40722.98
641.86	40388.28
642.01	40971.08
642.16	40800.22
642.31	40509.99
642.45	41038.95
642.60	40975.76
642.75	40732.34
642.90	40842.35
643.04	41186.41
643.19	40266.58
643.34	40683.19
643.48	40397.65
643.63	40371.90
643.78	40673.83
643.93	40545.10
644.07	40669.15
644.22	40102.74
644.37	40093.38
644.51	40439.78
644.66	40699.58
644.81	40690.21
644.95	40861.07
645.10	40519.35
645.25	40737.02
645.39	40580.21
645.54	40657.45
645.69	40350.84
645.83	39962.31
645.98	40311.05
646.13	40538.08
646.27	40449.14
646.42	40219.77
646.57	40301.68
646.71	40107.42
646.86	40353.18
647.00	40528.72
647.15	40121.46
647.30	40123.80
647.44	39473.13
647.59	39896.77
647.74	40018.48
647.88	39674.42
648.03	40315.73
648.17	39974.01
648.32	39571.44
648.47	39866.34
648.61	39342.06
648.76	40353.18
648.90	39929.54
649.05	39952.94
649.20	39482.50
649.34	39768.04
649.49	39033.11
649.63	39164.18
649.78	39400.58
649.92	39742.30
650.07	39702.51
650.21	38843.53
650.36	39510.58
650.51	39208.65
650.65	39466.11
650.80	39938.90
650.94	39718.89
651.09	39861.66
651.23	39578.46
651.38	39629.95
651.52	39164.18
651.67	38923.11
651.81	39194.61
651.96	39049.50
652.10	39262.49
652.25	39079.92
652.39	39180.57
652.54	39309.30
652.68	39367.81
652.83	39110.35
652.97	39175.89
653.12	39292.91
653.26	38579.05
653.41	39215.68
653.55	38920.77
653.70	38752.25
653.84	38878.64
653.99	38555.64
654.13	38902.04
654.27	38700.76
654.42	38511.17
654.56	38752.25
654.71	38628.20
654.85	38499.47
655.00	38593.09
655.14	38389.47
655.29	38457.34
655.43	38312.23
655.57	38192.86
655.72	37933.06
655.86	37745.82
656.01	38110.94
656.15	37642.84
656.30	37565.60
656.44	37928.38
656.58	37687.31
656.73	38256.06
656.87	37916.68
657.01	37942.42
657.16	38012.64
657.30	38059.45
657.45	37790.29
657.59	38007.96
657.73	37787.95
657.88	37965.83
658.02	37923.70
658.16	38431.60
658.31	38057.11
658.45	37837.10
658.60	37642.84
658.74	37837.10
658.88	37607.73
659.03	37907.32
659.17	37294.10
659.31	37366.65
659.46	37404.10
659.60	37696.67
659.74	37497.72
659.89	37879.23
660.03	37516.45
660.17	37441.55
660.32	37116.22
660.46	37883.91
660.60	37172.39
660.74	37385.38
660.89	37097.49
661.03	36884.50
661.17	36914.93
661.32	37148.98
661.46	36524.06
661.60	36964.08
661.74	36802.58
661.89	37001.53
662.03	36795.56
662.17	36811.95
662.31	37067.06
662.46	36978.12
662.60	36517.04
662.74	36460.87
662.88	36453.84
663.03	36065.31
663.17	36070.00
663.31	36198.73
663.45	36285.33
663.60	36236.17
663.74	36224.47
663.88	36280.64
664.02	35721.26
664.17	36343.84
664.31	35955.31
664.45	36060.63
664.59	35344.43
664.73	35798.49
664.88	36034.89
665.02	35316.34
665.16	35416.99
665.30	35770.41
665.44	35541.03
665.59	35573.80
665.73	35742.32
665.87	35489.54
666.01	35625.29
666.15	35222.72
666.29	35182.93
666.44	35285.92
666.58	35384.22
666.72	35299.96
666.86	35276.55
667.00	34976.97
667.14	35009.73
667.28	35040.16
667.43	34546.31
667.57	35182.93
667.71	35084.63
667.85	34920.79
667.99	34909.09
668.13	34440.98
668.27	34785.04
668.41	34817.81
668.56	34160.12
668.70	34778.02
668.84	34445.66
668.98	34251.40
669.12	34176.50
669.26	34162.46
669.40	33862.87
669.54	33993.94
669.68	33970.54
669.82	33961.17
669.96	33809.04
670.10	33593.71
670.25	33881.60
670.39	33752.87
670.53	33434.55
670.67	33610.09
670.81	33460.30
670.95	33586.69
671.09	33474.34
671.23	33579.67
671.37	33598.39
671.51	32921.98
671.65	33193.48
671.79	32945.38
671.93	32849.42
672.07	33036.66
672.21	33235.61
672.35	32891.55
672.49	33099.86
672.63	32776.86
672.77	32615.37
672.91	33050.70
673.05	32547.49
673.19	32627.07
673.33	31920.23
673.47	32327.48
673.61	32268.97
673.75	32027.89
673.89	32018.53
674.03	31824.26
674.17	32273.65
674.31	31948.31
674.45	31988.10
674.59	31779.79
674.73	31903.84
674.87	31515.31
675.01	31498.93
675.15	31669.79
675.29	31838.31
675.43	31552.76
675.56	31417.01
675.70	31168.91
675.84	31040.18
675.98	30328.66
676.12	31304.67
676.26	31037.84
676.40	30967.63
676.54	30752.30
676.68	30654.00
676.82	30347.39
676.96	30691.44
677.10	30644.63
677.23	30698.47
677.37	30403.56
677.51	29879.28
677.65	29902.68
677.79	29848.85
677.93	29972.90
678.07	29593.73
678.21	29553.94
678.34	29465.00
678.48	29317.55
678.62	29333.93
678.76	28804.97
678.90	29027.32
679.04	28652.84
679.18	28877.53
679.31	28444.53
679.45	28699.65
679.59	28362.61
679.73	28442.19
679.87	28430.49
680.00	28285.37
680.14	28044.30
680.28	28318.14
680.42	28063.02
680.56	28503.04
680.70	28465.60
680.83	27981.10
680.97	27814.93
681.11	28041.96
681.25	27400.65
681.39	27777.48
681.52	27803.22
681.66	27431.08
681.80	27517.68
681.94	27262.56
682.07	27721.30
682.21	26874.03
682.35	27410.01
682.49	27318.73
682.62	26689.13
682.76	26714.87
682.90	26527.63
683.04	26375.50
683.17	26080.59
683.31	26314.64
683.45	26312.30
683.59	26108.68
683.72	26216.34
683.86	25685.04
684.00	26162.51
684.13	25940.16
684.27	25738.87
684.41	25790.36
684.55	25497.80
684.68	25465.03
684.82	25701.42
684.96	25530.56
685.09	25610.14
685.23	25315.23
685.37	24863.51
685.50	25212.25
685.64	25088.20
685.78	24629.46
685.91	24741.80
686.05	24531.15
686.19	24528.81
686.32	24222.20
686.46	24208.16
686.60	23847.72
686.73	24084.11
686.87	23683.88
687.01	23407.70
687.14	23396.00
687.28	23388.97
687.42	23384.29
687.55	23344.50
687.69	23480.25
687.82	23534.09
687.96	23321.10
688.10	23379.61
688.23	23288.33
688.37	23117.47
688.50	22906.82
688.64	22951.29
688.78	22775.75
688.91	22644.68
689.05	22721.92
689.18	22483.19
689.32	22174.24
689.46	22427.01
689.59	22785.12
689.73	22401.27
689.86	22211.68
690.00	21912.10
690.13	22043.17
690.27	21858.26
690.41	21841.88
690.54	21380.79
690.68	21486.12
690.81	21645.27
690.95	21467.39
691.08	21577.40
691.22	21245.04
691.35	21633.57
691.49	21425.26
691.62	21640.59
691.76	21163.12
691.89	21071.84
692.03	21317.60
692.16	21085.89
692.30	20741.83
692.43	20524.16
692.57	20470.33
692.70	20423.51
692.84	20627.14
692.97	20381.38
693.11	20137.97
693.24	20086.48
693.38	19840.72
693.51	20025.62
693.65	20170.74
693.78	19939.02
693.92	20063.07
694.05	20109.88
694.19	19892.21
694.32	19374.95
694.45	19403.04
694.59	19328.14
694.72	19012.17
694.86	19264.95
694.99	19129.20
695.13	19168.99
695.26	19044.94
695.39	18775.78
695.53	19049.62
695.66	18899.83
695.80	18712.58
695.93	18855.36
696.07	18684.50
696.20	18684.50
696.33	18321.71
696.47	18530.02
696.60	18377.89
696.73	17900.42
696.87	18370.86
697.00	18356.82
697.14	18171.92
697.27	18148.51
697.40	17954.25
697.54	18108.72
697.67	17598.49
697.80	17539.97
697.94	17521.25
698.07	17600.83
698.21	17165.49
698.34	17469.76
698.47	17153.79
698.61	17064.85
698.74	17151.45
698.87	16915.05
699.01	16842.50
699.14	16496.10
699.27	16514.82
699.40	16711.42
699.54	16463.33
699.67	16266.72
699.80	16442.26
699.94	16376.73
700.07	16470.35
700.20	16257.36
700.34	16318.22
700.47	16297.15
700.60	16409.50
700.73	16273.74
700.87	16051.39
701.00	15896.92
701.13	15803.30
701.26	15690.95
701.40	15590.31
701.53	15576.27
701.66	15571.58
701.79	15515.41
701.93	15412.43
702.06	15248.59
702.19	15129.22
702.32	15194.76
702.46	15192.42
702.59	14906.87
702.72	14963.04
702.85	15124.54
702.99	14789.85
703.12	14881.13
703.25	14644.73
703.38	14689.20
703.51	14611.96
703.65	14401.32
703.78	14567.49
703.91	14146.20
704.04	14097.05
704.17	14389.61
704.31	14244.50
704.44	14197.69
704.57	14026.83
704.70	13825.54
704.83	14235.14
704.96	13930.87
705.10	13853.63
705.23	14047.90
>>>>>End Processed Spectral Data<<<<<
