SpectraSuite Data File
++++++++++++++++++++++++++++++++++++
Date: Fri Oct 25 10:43:15 EDT 2013
User: price-jones
Dark Spectrum Present: No
Reference Spectrum Present: No
Number of Sampled Component Spectra: 1
Spectrometers: USB2+H05261
Integration Time (usec): 100000 (USB2+H05261)
Spectra Averaged: 1 (USB2+H05261)
Boxcar Smoothing: 0 (USB2+H05261)
Correct for Electrical Dark: No (USB2+H05261)
Strobe/Lamp Enabled: No (USB2+H05261)
Correct for Detector Non-linearity: No (USB2+H05261)
Correct for Stray Light: No (USB2+H05261)
Number of Pixels in Processed Spectrum: 2048
>>>>>Begin Processed Spectral Data<<<<<
365.73	152.13
365.92	152.13
366.12	152.13
366.32	56.17
366.52	58.51
366.72	30.43
366.91	14.04
367.11	16.38
367.31	11.70
367.51	0.00
367.70	7.02
367.90	79.58
368.10	88.94
368.30	25.75
368.49	0.00
368.69	53.83
368.89	42.13
369.09	42.13
369.28	42.13
369.48	72.56
369.68	72.56
369.87	117.03
370.07	28.09
370.27	46.81
370.47	196.60
370.66	334.70
370.86	397.89
371.06	451.72
371.25	507.90
371.45	383.85
371.65	440.02
371.84	449.38
372.04	475.13
372.24	535.98
372.44	397.89
372.63	557.05
372.83	486.83
373.03	451.72
373.22	479.81
373.42	547.69
373.62	507.90
373.81	526.62
374.01	594.50
374.21	599.18
374.40	489.17
374.60	545.34
374.79	564.07
374.99	662.37
375.19	638.97
375.38	678.76
375.58	557.05
375.78	653.01
375.97	622.58
376.17	620.24
376.37	606.20
376.56	634.29
376.76	566.41
376.95	578.11
377.15	645.99
377.35	629.60
377.54	662.37
377.74	606.20
377.93	653.01
378.13	702.16
378.33	678.76
378.52	662.37
378.72	575.77
378.91	620.24
379.11	608.54
379.31	643.65
379.50	676.41
379.70	681.10
379.89	706.84
380.09	627.26
380.28	681.10
380.48	732.59
380.68	636.63
380.87	585.13
381.07	779.40
381.26	648.33
381.46	667.05
381.65	751.31
381.85	746.63
382.04	755.99
382.24	746.63
382.43	711.52
382.63	645.99
382.83	699.82
383.02	737.27
383.22	753.65
383.41	732.59
383.61	765.36
383.80	760.67
384.00	685.78
384.19	819.19
384.39	816.85
384.58	833.23
384.78	723.23
384.97	795.78
385.17	819.19
385.36	774.72
385.56	772.38
385.75	910.47
385.95	835.57
386.14	858.98
386.34	823.87
386.53	894.08
386.72	737.27
386.92	889.40
387.11	840.25
387.31	851.96
387.50	875.36
387.70	884.72
387.89	917.49
388.09	891.74
388.28	889.40
388.48	849.61
388.67	936.21
388.86	924.51
389.06	976.00
389.25	957.28
389.45	882.38
389.64	1018.13
389.84	957.28
390.03	1001.75
390.22	1055.58
390.42	990.05
390.61	917.49
390.81	980.68
391.00	994.73
391.19	1041.54
391.39	1067.28
391.58	1064.94
391.78	964.30
391.97	1116.44
392.16	983.02
392.36	987.71
392.55	987.71
392.75	990.05
392.94	957.28
393.13	926.85
393.33	912.81
393.52	1004.09
393.71	1135.16
393.91	1053.24
394.10	1060.26
394.29	1139.84
394.49	1149.20
394.68	1203.04
394.88	1109.41
395.07	1224.10
395.26	1153.88
395.46	1200.69
395.65	1247.51
395.84	1249.85
396.04	1324.74
396.23	1137.50
396.42	1188.99
396.62	1186.65
396.81	1160.91
397.00	1174.95
397.19	1308.36
397.39	1259.21
397.58	1287.29
397.77	1301.34
397.97	1355.17
398.16	1439.43
398.35	1495.60
398.55	1373.89
398.74	1554.12
398.93	1523.69
399.12	1418.36
399.32	1516.67
399.51	1488.58
399.70	1582.20
399.90	1479.22
400.09	1472.20
400.28	1502.62
400.47	1589.22
400.67	1743.70
400.86	1673.48
401.05	1598.59
401.24	1617.31
401.44	1727.32
401.63	1755.40
401.82	1727.32
402.01	1722.63
402.21	1748.38
402.40	1799.87
402.59	1722.63
402.78	1706.25
402.97	1806.89
403.17	1755.40
403.36	1753.06
403.55	1837.32
403.74	1966.05
403.93	1764.76
404.13	1778.81
404.32	1839.66
404.51	1825.62
404.70	1959.03
404.89	1816.26
405.09	2019.88
405.28	1961.37
405.47	1874.77
405.66	1898.17
405.85	2050.31
406.05	1956.69
406.24	2033.93
406.43	2066.69
406.62	2036.27
406.81	2012.86
407.00	2052.65
407.20	1982.43
407.39	2087.76
407.58	2186.06
407.77	2132.23
407.96	2228.19
408.15	2284.36
408.34	2190.74
408.54	2197.76
408.73	2183.72
408.92	2216.49
409.11	2377.98
409.30	2298.41
409.49	2221.17
409.68	2256.28
409.87	2436.50
410.07	2389.69
410.26	2457.56
410.45	2307.77
410.64	2473.95
410.83	2478.63
411.02	2623.74
411.21	2551.18
411.40	2576.93
411.59	2647.15
411.78	2583.95
411.98	2513.74
412.17	2605.02
412.36	2630.76
412.55	2705.66
412.74	2724.38
412.93	2862.48
413.12	2668.21
413.31	3016.95
413.50	2726.72
413.69	2857.79
413.88	2998.23
414.07	2998.23
414.26	2897.58
414.45	2988.86
414.64	3026.31
414.83	3009.93
415.02	3094.19
415.22	3075.46
415.41	3129.30
415.60	3119.93
415.79	3194.83
415.98	3262.71
416.17	3258.03
416.36	3185.47
416.55	3262.71
416.74	3283.77
416.93	3260.37
417.12	3358.67
417.31	3272.07
417.50	3375.05
417.69	3548.25
417.88	3379.73
418.07	3475.70
418.26	3440.59
418.45	3536.55
418.64	3426.54
418.83	3667.62
419.02	3590.38
419.21	3538.89
419.39	3590.38
419.58	3597.40
419.77	3522.51
419.96	3627.83
420.15	3749.54
420.34	3583.36
420.53	3751.88
420.72	3967.21
420.91	3864.22
421.10	3698.05
421.29	3819.75
421.48	3838.48
421.67	3833.80
421.86	3976.57
422.05	3782.31
422.24	3819.75
422.43	3798.69
422.61	3948.48
422.80	3983.59
422.99	3913.38
423.18	4028.06
423.37	3889.97
423.56	3981.25
423.75	3831.46
423.94	3765.92
424.13	3840.82
424.32	3794.01
424.50	3948.48
424.69	3995.29
424.88	4159.13
425.07	3894.65
425.26	3918.06
425.45	3922.74
425.64	3892.31
425.83	3981.25
426.01	4079.55
426.20	4025.72
426.39	4081.89
426.58	4053.81
426.77	4021.04
426.96	4037.42
427.15	4009.34
427.33	4077.21
427.52	4126.36
427.71	4159.13
427.90	4135.73
428.09	4208.28
428.28	4112.32
428.46	4159.13
428.65	4079.55
428.84	4215.30
429.03	4292.54
429.22	4070.19
429.40	4191.90
429.59	4159.13
429.78	3950.82
429.97	3843.16
430.16	3983.59
430.34	4079.55
430.53	4194.24
430.72	4159.13
430.91	4234.03
431.10	4517.23
431.28	4388.50
431.47	4692.77
431.66	4741.93
431.85	4587.45
432.03	4765.33
432.22	4758.31
432.41	4540.64
432.60	4631.92
432.79	4854.27
432.97	4713.84
433.16	4835.55
433.35	4685.75
433.54	4638.94
433.72	4627.24
433.91	4669.37
434.10	4851.93
434.28	4760.65
434.47	4833.21
434.66	4978.32
434.85	4957.25
435.03	5046.20
435.22	5097.69
435.41	4905.76
435.59	5078.96
435.78	5111.73
435.97	5050.88
436.16	5121.09
436.34	5081.30
436.53	5177.26
436.72	5369.19
436.90	5027.47
437.09	5275.57
437.28	5095.35
437.46	5266.21
437.65	5100.03
437.84	5123.43
438.02	5146.84
438.21	5205.35
438.40	5121.09
438.58	5434.72
438.77	5479.19
438.96	5348.12
439.14	5600.90
439.33	5621.97
439.52	5453.45
439.70	5699.20
439.89	5708.57
440.08	5841.98
440.26	5743.67
440.45	5636.01
440.63	5746.02
440.82	6022.20
441.01	5994.11
441.19	5844.32
441.38	6054.97
441.57	6085.39
441.75	6195.40
441.94	6216.46
442.12	6420.09
442.31	6480.94
442.50	6160.29
442.68	6272.64
442.87	6270.30
443.05	6401.37
443.24	6480.94
443.43	6284.34
443.61	6328.81
443.80	6663.51
443.98	6356.90
444.17	6356.90
444.35	6509.03
444.54	6663.51
444.73	6569.88
444.91	6612.01
445.10	6537.12
445.28	6490.31
445.47	6270.30
445.65	6209.44
445.84	6370.94
446.02	6670.53
446.21	6590.95
446.39	6516.05
446.58	6509.03
446.77	6562.86
446.95	6431.79
447.14	6675.21
447.32	6759.47
447.51	6679.89
447.69	6600.31
447.88	6609.67
448.06	6778.19
448.25	6707.98
448.43	6626.06
448.62	6789.89
448.80	6764.15
448.99	6911.60
449.17	6794.58
449.36	6775.85
449.54	6757.13
449.73	7176.08
449.91	7073.10
450.10	7037.99
450.28	7073.10
450.46	7213.53
450.65	7145.66
450.83	7225.23
451.02	7269.70
451.20	7250.98
451.39	6979.48
451.57	7077.78
451.76	6988.84
451.94	7143.32
452.13	7117.57
452.31	7016.93
452.49	6981.82
452.68	6918.62
452.86	7094.16
453.05	7178.42
453.23	7286.09
453.42	7176.08
453.60	7157.36
453.78	7456.95
453.97	7300.13
454.15	7171.40
454.34	7396.09
454.52	7627.81
454.70	7496.74
454.89	7442.90
455.07	7606.74
455.26	7578.65
455.44	7634.83
455.62	7833.77
455.81	7728.45
455.99	7756.54
456.17	7662.91
456.36	7875.90
456.54	7920.37
456.73	7981.23
456.91	8021.02
457.09	8044.42
457.28	8484.44
457.46	8058.46
457.64	8159.11
457.83	8140.38
458.01	7908.67
458.19	8269.11
458.38	8140.38
458.56	8262.09
458.74	8105.28
458.93	8409.54
459.11	8278.47
459.29	8067.83
459.48	8308.90
459.66	8575.72
459.84	8344.01
460.03	8587.43
460.21	8564.02
460.39	8589.77
460.57	8479.76
460.76	8482.10
460.94	8786.37
461.12	8542.96
461.31	8725.52
461.49	8554.66
461.67	8613.17
461.85	9001.70
462.04	8805.10
462.22	9188.94
462.40	8814.46
462.59	8856.59
462.77	8760.63
462.95	8950.21
463.13	9027.45
463.32	9013.40
463.50	8849.57
463.68	8964.25
463.86	8929.14
464.05	9043.83
464.23	9095.32
464.41	9078.94
464.59	8781.69
464.78	9104.68
464.96	9092.98
465.14	9186.60
465.32	9210.01
465.50	9153.84
465.69	9476.83
465.87	9144.47
466.05	9074.26
466.23	9088.30
466.41	9013.40
466.60	9521.30
466.78	9254.48
466.96	9149.15
467.14	9109.36
467.32	9303.63
467.51	9804.50
467.69	9329.38
467.87	9563.43
468.05	9563.43
468.23	9329.38
468.41	9528.32
468.60	9341.08
468.78	9675.77
468.96	9336.40
469.14	9745.99
469.32	9757.69
469.50	9378.53
469.69	9757.69
469.87	9767.06
470.05	9956.64
470.23	10029.20
470.41	9722.59
470.59	9788.12
470.77	9909.83
470.95	9874.72
471.14	9893.44
471.32	9996.43
471.50	10438.79
471.68	10448.15
471.86	10340.49
472.04	10466.88
472.22	10380.28
472.40	10150.90
472.58	10389.64
472.77	10478.58
472.95	10443.47
473.13	10857.75
473.31	10738.38
473.49	10628.37
473.67	10450.49
473.85	10534.75
474.03	10951.37
474.21	11005.20
474.39	10829.66
474.57	10920.94
474.75	11112.86
474.93	11426.50
475.12	11119.89
475.30	11466.28
475.48	11061.37
475.66	11435.86
475.84	11272.02
476.02	11274.36
476.20	11538.84
476.38	11648.85
476.56	11719.06
476.74	11948.43
476.92	11857.15
477.10	11932.05
477.28	12196.53
477.46	11887.58
477.64	12114.61
477.82	12334.62
478.00	12301.86
478.18	12320.58
478.36	12613.15
478.54	12695.07
478.72	12807.41
478.90	12938.48
479.08	13090.62
479.26	13104.66
479.44	13020.40
479.62	13259.13
479.80	13301.26
479.98	13429.99
480.16	13593.83
480.34	13448.72
480.52	13790.44
480.70	13774.05
480.88	13479.15
481.06	14001.08
481.24	14001.08
481.41	14183.65
481.59	14225.78
481.77	14340.46
481.95	14200.03
482.13	14953.68
482.31	14593.24
482.49	14883.47
482.67	14731.33
482.85	14902.19
483.03	14934.96
483.21	15133.90
483.39	15407.75
483.57	15279.02
483.74	15616.05
483.92	15527.11
484.10	15314.13
484.28	16079.48
484.46	16231.62
484.64	16240.98
484.82	16116.93
485.00	16283.11
485.18	16479.71
485.35	16402.47
485.53	15882.88
485.71	16231.62
485.89	16196.51
486.07	16311.19
486.25	16367.37
486.43	16847.18
486.61	16936.12
486.78	17252.09
486.96	17193.58
487.14	17795.09
487.32	17572.74
487.50	17820.84
487.68	17956.59
487.85	18059.57
488.03	18773.44
488.21	18635.35
488.39	18377.89
488.57	18508.96
488.75	18602.58
488.92	18876.42
489.10	19269.63
489.28	19889.87
489.46	19520.07
489.64	19644.12
489.81	20070.09
489.99	20088.82
490.17	20299.47
490.35	20306.49
490.53	20219.89
490.70	20262.02
490.88	20269.04
491.06	20847.15
491.24	20699.70
491.41	20755.87
491.59	20844.81
491.77	20823.75
491.95	20912.69
492.13	21259.09
492.30	21308.24
492.48	21626.55
492.66	21785.71
492.84	21900.39
493.01	22216.36
493.19	22207.00
493.37	22148.49
493.54	22450.42
493.72	22237.43
493.90	22733.62
494.08	22808.52
494.25	22897.46
494.43	23180.67
494.61	23592.60
494.79	23372.59
494.96	23391.31
495.14	23573.88
495.32	23506.00
495.49	23688.56
495.67	23960.06
495.85	23807.93
496.02	24320.51
496.20	24332.21
496.38	24154.33
496.55	24500.73
496.73	24676.27
496.91	24608.39
497.09	24648.18
497.26	25069.48
497.44	24985.22
497.62	25261.40
497.79	25568.01
497.97	25223.95
498.14	25380.77
498.32	25516.52
498.50	25647.59
498.67	25565.67
498.85	26382.52
499.03	26195.28
499.20	26263.15
499.38	26307.62
499.56	26204.64
499.73	26443.37
499.91	26525.29
500.08	26321.66
500.26	26441.03
500.44	26874.03
500.61	26560.40
500.79	26469.12
500.97	26782.75
501.14	27260.22
501.32	27208.73
501.49	27023.83
501.67	27063.61
501.84	27208.73
502.02	27527.04
502.20	27344.48
502.37	28011.53
502.55	27639.39
502.72	27915.57
502.90	27796.20
503.07	27709.60
503.25	28147.28
503.43	27910.89
503.60	27835.99
503.78	27934.29
503.95	27950.68
504.13	28233.88
504.30	28474.96
504.48	28638.80
504.65	28709.01
504.83	28964.13
505.01	29184.14
505.18	28496.02
505.36	29457.98
505.53	29336.27
505.71	29682.67
505.88	29401.81
506.06	29347.98
506.23	29914.39
506.41	29282.44
506.58	29563.31
506.76	29422.87
506.93	29811.40
507.11	29624.16
507.28	29851.19
507.46	29984.60
507.63	30008.01
507.81	30178.87
507.98	29961.20
508.16	30225.68
508.33	30356.75
508.50	30796.77
508.68	30473.78
508.85	31154.87
509.03	30623.57
509.20	30883.37
509.38	31040.18
509.55	31517.65
509.73	31311.69
509.90	31400.63
510.08	31098.70
510.25	31110.40
510.42	31421.69
510.60	31627.66
510.77	31700.22
510.95	31831.29
511.12	31758.73
511.30	31702.56
511.47	32535.79
511.64	32617.71
511.82	32584.94
511.99	32016.19
512.17	32313.44
512.34	31826.60
512.51	32566.21
512.69	32563.87
512.86	32453.87
513.04	32587.28
513.21	32755.80
513.38	32748.78
513.56	32936.02
513.73	32570.90
513.90	32758.14
514.08	33275.40
514.25	32751.12
514.43	33507.11
514.60	33331.57
514.77	33067.09
514.95	33280.08
515.12	33523.49
515.29	33261.35
515.47	33694.35
515.64	34036.07
515.81	33689.67
515.99	33729.46
516.16	33841.81
516.33	33354.97
516.51	33387.74
516.68	33149.01
516.85	33291.78
517.03	32987.51
517.20	33942.45
517.37	34031.39
517.54	34380.13
517.72	34075.86
517.89	33689.67
518.06	34103.95
518.24	34059.48
518.41	33947.13
518.58	34501.84
518.75	34724.19
518.93	34630.57
519.10	34763.98
519.27	35220.38
519.45	34703.12
519.62	35098.67
519.79	35295.28
519.96	35199.32
520.14	35213.36
520.31	34972.28
520.48	35473.16
520.65	35285.92
520.83	36114.47
521.00	35665.08
521.17	35885.09
521.34	35798.49
521.52	35901.48
521.69	35569.12
521.86	35976.37
522.03	35985.74
522.20	36027.87
522.38	36102.76
522.55	36718.32
522.72	36451.50
522.89	36018.50
523.07	36655.13
523.24	36140.21
523.41	36935.99
523.58	36669.17
523.75	36875.14
523.92	37165.37
524.10	36938.33
524.27	36964.08
524.44	37123.24
524.61	37099.83
524.78	37589.00
524.96	37324.52
525.13	37179.41
525.30	37862.85
525.47	37228.56
525.64	37387.72
525.81	37624.11
525.98	37734.12
526.16	36975.78
526.33	37144.30
526.50	37532.83
526.67	37017.91
526.84	37008.55
527.01	37113.87
527.18	37607.73
527.36	37848.80
527.53	38246.69
527.70	37890.93
527.87	38078.18
528.04	37991.58
528.21	38256.06
528.38	38438.62
528.55	38277.12
528.72	38675.01
528.89	38843.53
529.07	39037.80
529.24	38667.99
529.41	38965.24
529.58	38569.69
529.75	38160.09
529.92	38773.31
530.09	39161.84
530.26	38792.04
530.43	39164.18
530.60	39117.37
530.77	38841.19
530.94	39641.65
531.11	39295.25
531.28	39274.19
531.46	39381.85
531.63	39468.45
531.80	39136.10
531.97	39185.25
532.14	39290.57
532.31	38560.33
532.48	38862.26
532.65	39611.23
532.82	39477.82
532.99	39611.23
533.16	39512.92
533.33	39995.07
533.50	40095.72
533.67	40069.97
533.84	40030.18
534.01	39894.43
534.18	39629.95
534.35	40098.06
534.52	39971.67
534.69	40528.72
534.86	40603.61
535.03	40517.01
535.20	40472.54
535.37	40591.91
535.54	40734.68
535.71	39840.60
535.88	40472.54
536.05	41029.59
536.22	40446.80
536.38	40893.84
536.55	40500.63
536.72	40790.86
536.89	40479.57
537.06	40643.40
537.23	40877.46
537.40	40884.48
537.57	40879.80
537.74	40926.61
537.91	41228.54
538.08	41064.70
538.25	40854.05
538.42	40636.38
538.59	40935.97
538.75	41191.09
538.92	41216.83
539.09	41268.33
539.26	41256.62
539.43	41141.94
539.60	41045.97
539.77	40849.37
539.94	40748.73
540.11	40957.03
540.28	41205.13
540.44	41577.28
540.61	41668.56
540.78	40999.16
540.95	41139.60
541.12	41352.58
541.29	41338.54
541.46	41846.44
541.62	41801.97
541.79	41631.11
541.96	41490.68
542.13	41738.77
542.30	41713.03
542.47	41989.21
542.63	41759.84
542.80	42300.50
542.97	42124.96
543.14	42298.16
543.31	42656.26
543.48	42707.76
543.64	42618.81
543.81	42759.25
543.98	42363.70
544.15	42808.40
544.32	42794.36
544.48	43189.91
544.65	42691.37
544.82	42497.11
544.99	42534.56
545.16	42401.14
545.32	42218.58
545.49	42939.47
545.66	43147.78
545.83	42590.73
546.00	42506.47
546.16	43285.87
546.33	42817.76
546.50	42990.96
546.67	43173.52
546.83	42279.44
547.00	42927.77
547.17	42806.06
547.34	42953.51
547.50	43082.24
547.67	43339.70
547.84	43407.58
548.00	43648.65
548.17	43391.19
548.34	43150.12
548.51	43496.52
548.67	43384.17
548.84	43985.69
549.01	43386.51
549.18	43470.77
549.34	43674.40
549.51	43519.92
549.68	43510.56
549.84	43775.04
550.01	44083.99
550.18	43391.19
550.34	43915.47
550.51	43620.56
550.68	43433.32
550.84	43349.06
551.01	43997.39
551.18	43849.94
551.34	43742.27
551.51	44032.50
551.68	43854.62
551.84	44294.64
552.01	43920.15
552.18	44619.97
552.34	44098.03
552.51	43688.44
552.68	44186.97
552.84	44435.07
553.01	44549.76
553.18	44095.69
553.34	44580.18
553.51	44376.56
553.67	44322.72
553.84	44638.70
554.01	44713.59
554.17	44786.15
554.34	44568.48
554.51	44697.21
554.67	44617.63
554.84	44521.67
555.00	44109.74
555.17	44130.80
555.33	44671.46
555.50	44481.88
555.67	44727.64
555.83	44474.86
556.00	44762.75
556.16	45198.09
556.33	44481.88
556.50	44732.32
556.66	44713.59
556.83	44364.85
556.99	44774.45
557.16	45228.51
557.32	44949.99
557.49	44828.28
557.65	44652.74
557.82	44357.83
557.98	44933.60
558.15	44973.39
558.32	44865.73
558.48	44371.88
558.65	44753.38
558.81	44727.64
558.98	44858.71
559.14	44772.11
559.31	44713.59
559.47	44758.06
559.64	45043.61
559.80	45113.83
559.97	45041.27
560.13	44832.96
560.30	45038.93
560.46	45188.72
560.63	44641.04
560.79	45029.57
560.96	45216.81
561.12	44928.92
561.29	44882.11
561.45	44914.88
561.61	45312.77
561.78	44678.49
561.94	45247.24
562.11	45099.78
562.27	45067.02
562.44	45464.91
562.60	44921.90
562.77	45345.54
562.93	45251.92
563.10	45406.39
563.26	45308.09
563.42	45553.85
563.59	45495.33
563.75	45572.57
563.92	45698.96
564.08	45478.95
564.24	45567.89
564.41	45411.07
564.57	45757.47
564.74	45469.59
564.90	45984.51
565.07	45382.99
565.23	45256.60
565.39	44699.55
565.56	45558.53
565.72	45111.49
565.88	45375.97
566.05	45130.21
566.21	45083.40
566.38	45371.28
566.54	45350.22
566.70	46241.96
566.87	45584.27
567.03	45371.28
567.19	46141.32
567.36	45867.48
567.52	45528.10
567.68	45818.33
567.85	45331.50
568.01	45666.19
568.17	45507.04
568.34	45626.40
568.50	45741.09
568.66	45291.71
568.83	45406.39
568.99	45429.80
569.15	45497.67
569.32	45783.22
569.48	45106.80
569.64	45659.17
569.81	45659.17
569.97	45691.94
570.13	45296.39
570.30	45235.53
570.46	45184.04
570.62	45010.84
570.78	45130.21
570.95	45390.01
571.11	45471.93
571.27	45308.09
571.43	45682.58
571.60	45663.85
571.76	45521.08
571.92	45705.98
572.09	45614.70
572.25	45607.68
572.41	45397.03
572.57	45584.27
572.74	46199.83
572.90	45425.12
573.06	46106.21
573.22	45694.28
573.38	45687.26
573.55	45804.28
573.71	45443.84
573.87	45806.62
574.03	46089.83
574.20	45949.40
574.36	45560.87
574.52	45982.16
574.68	45872.16
574.84	45771.52
575.01	45907.27
575.17	45982.16
575.33	45769.18
575.49	45787.90
575.65	45633.42
575.82	45654.49
575.98	45237.87
576.14	45947.06
576.30	45855.78
576.46	45823.01
576.62	45310.43
576.79	45834.71
576.95	45249.58
577.11	46005.57
577.27	45514.06
577.43	45846.41
577.59	45177.02
577.75	45518.74
577.92	45624.06
578.08	45371.28
578.24	45467.25
578.40	46096.85
578.56	45769.18
578.72	45776.20
578.88	46305.16
579.04	45659.17
579.21	45464.91
579.37	46017.27
579.53	45776.20
579.69	45223.83
579.85	45294.05
580.01	45876.84
580.17	45820.67
580.33	45748.11
580.49	46138.98
580.65	46110.89
580.82	45844.07
580.98	45876.84
581.14	45219.15
581.30	46047.70
581.46	45830.03
581.62	46174.09
581.78	45577.25
581.94	46412.82
582.10	46028.98
582.26	45792.58
582.42	45619.38
582.58	45708.32
582.74	46021.95
582.90	46309.84
583.06	46232.60
583.22	46293.46
583.38	46260.69
583.54	46342.61
583.70	45879.18
583.86	46007.91
584.02	45799.60
584.18	45975.14
584.34	45593.64
584.50	46237.28
584.66	45523.42
584.82	45872.16
584.98	46073.45
585.14	45778.54
585.30	45715.34
585.46	45677.90
585.62	45675.55
585.78	45947.06
585.94	45904.93
586.10	45565.55
586.26	45504.70
586.42	45977.48
586.58	46017.27
586.74	46150.68
586.90	46021.95
587.06	45755.13
587.22	46096.85
587.38	45694.28
587.54	45642.79
587.70	46036.00
587.86	45801.94
588.02	45584.27
588.18	45834.71
588.34	45469.59
588.49	45577.25
588.65	45357.24
588.81	45198.09
588.97	45921.31
589.13	45837.05
589.29	45516.40
589.45	45818.33
589.61	45579.59
589.77	45956.42
589.93	46363.67
590.08	46232.60
590.24	45947.06
590.40	46307.50
590.56	46234.94
590.72	46141.32
590.88	45897.91
591.04	46000.89
591.20	46258.35
591.35	46230.26
591.51	46267.71
591.67	46054.72
591.83	45879.18
591.99	45935.35
592.15	45656.83
592.31	46010.25
592.46	46071.10
592.62	46146.00
592.78	45605.34
592.94	46028.98
593.10	45703.64
593.26	46373.03
593.41	46356.65
593.57	46043.02
593.73	45530.44
593.89	45972.80
594.05	46045.36
594.20	45956.42
594.36	46007.91
594.52	46103.87
594.68	46342.61
594.84	45979.82
594.99	46291.12
595.15	45776.20
595.31	45811.31
595.47	46335.59
595.62	46323.88
595.78	46415.16
595.94	46466.66
596.10	46492.40
596.25	46019.61
596.41	45902.59
596.57	46253.67
596.73	45944.72
596.88	46007.91
597.04	46394.10
597.20	46073.45
597.36	45940.04
597.51	46408.14
597.67	46085.15
597.83	46071.10
597.99	46663.26
598.14	46043.02
598.30	46169.41
598.46	46120.26
598.61	46593.04
598.77	45565.55
598.93	46005.57
599.09	45874.50
599.24	46487.72
599.40	46216.22
599.56	46347.29
599.71	45907.27
599.87	46115.58
600.03	46277.07
600.18	46181.11
600.34	46248.99
600.50	46164.73
600.65	46157.70
600.81	46389.42
600.97	45979.82
601.12	46316.86
601.28	45741.09
601.44	45865.14
601.59	46178.77
601.75	45832.37
601.91	46071.10
602.06	46148.34
602.22	46047.70
602.37	45897.91
602.53	46146.00
602.69	46103.87
602.84	45703.64
603.00	45914.29
603.16	46366.01
603.31	46087.49
603.47	45827.69
603.62	45605.34
603.78	46368.35
603.94	46244.30
604.09	46607.09
604.25	46157.70
604.40	46003.23
604.56	46380.06
604.71	46476.02
604.87	46061.74
605.03	45635.77
605.18	46064.08
605.34	45741.09
605.49	45830.03
605.65	46031.32
605.80	46270.05
605.96	45439.16
606.12	46094.51
606.27	46050.04
606.43	45900.25
606.58	46356.65
606.74	45420.44
606.89	45539.80
607.05	45914.29
607.20	45670.87
607.36	45897.91
607.51	46148.34
607.67	46026.63
607.82	45787.90
607.98	45469.59
608.13	45762.15
608.29	45429.80
608.44	45394.69
608.60	45848.75
608.75	45743.43
608.91	45532.78
609.06	45621.72
609.22	45640.45
609.37	45682.58
609.53	45581.93
609.68	45720.02
609.84	45291.71
609.99	45429.80
610.15	45085.74
610.30	45364.26
610.46	45556.19
610.61	45434.48
610.76	45219.15
610.92	45397.03
611.07	45691.94
611.23	45174.68
611.38	45528.10
611.54	45446.18
611.69	45214.47
611.84	45284.68
612.00	45387.67
612.15	45244.90
612.31	45219.15
612.46	44861.05
612.62	45144.25
612.77	45249.58
612.92	45471.93
613.08	45130.21
613.23	44903.18
613.39	44823.60
613.54	44722.96
613.69	44893.82
613.85	44598.91
614.00	45490.65
614.15	44891.48
614.31	45043.61
614.46	45195.74
614.62	44973.39
614.77	44835.30
614.92	44587.21
615.08	44683.17
615.23	44933.60
615.38	44793.17
615.54	44444.43
615.69	44779.13
615.84	44629.34
616.00	44697.21
616.15	44900.84
616.30	44980.42
616.46	44545.08
616.61	44446.77
616.76	44210.38
616.92	44088.67
617.07	44285.28
617.22	44289.96
617.37	44729.98
617.53	44547.42
617.68	44673.81
617.83	44659.76
617.99	44542.74
618.14	44318.04
618.29	44690.19
618.45	44172.93
618.60	44002.07
618.75	44240.81
618.90	43725.89
619.06	44156.55
619.21	44147.18
619.36	44320.38
619.51	44254.85
619.67	43648.65
619.82	43861.64
619.97	44304.00
620.12	43908.45
620.28	43157.14
620.43	43704.82
620.58	44158.89
620.73	43840.57
620.89	44046.54
621.04	44222.08
621.19	43922.49
621.34	44109.74
621.49	43571.41
621.65	43756.32
621.80	44009.09
621.95	43510.56
622.10	43690.78
622.25	43667.37
622.41	43555.03
622.56	43817.17
622.71	43704.82
622.86	43405.23
623.01	43477.79
623.16	43438.00
623.32	43540.99
623.47	43646.31
623.62	43536.30
623.77	43405.23
623.92	43540.99
624.07	42941.81
624.23	42911.38
624.38	43208.63
624.53	43023.73
624.68	43283.53
624.83	43412.26
624.98	43122.03
625.13	43105.65
625.29	42492.43
625.44	43002.66
625.59	43196.93
625.74	42822.44
625.89	42801.38
626.04	42789.67
626.19	42782.65
626.34	42838.83
626.49	43189.91
626.65	43150.12
626.80	42892.66
626.95	42658.60
627.10	42373.06
627.25	42630.52
627.40	42291.14
627.55	42277.10
627.70	42148.37
627.85	42492.43
628.00	42335.61
628.15	42752.23
628.30	42478.38
628.45	42691.37
628.60	42431.57
628.76	42614.13
628.91	42576.69
629.06	42237.31
629.21	42405.83
629.36	42075.81
629.51	41956.44
629.66	42150.71
629.81	42075.81
629.96	42162.41
630.11	42412.85
630.26	42340.29
630.41	42256.03
630.56	41806.65
630.71	42302.84
630.86	42122.62
631.01	41633.45
631.16	42113.26
631.31	41537.49
631.46	41675.58
631.61	41914.31
631.76	41605.36
631.91	41855.80
632.06	41790.27
632.21	42057.09
632.36	41645.15
632.51	41532.81
632.66	41773.88
632.81	41525.78
632.96	41511.74
633.10	41315.14
633.25	41675.58
633.40	41647.49
633.55	41413.44
633.70	41588.98
633.85	41914.31
634.00	41364.29
634.15	41404.08
634.30	41773.88
634.45	41221.52
634.60	41258.96
634.75	40879.80
634.90	40818.94
635.05	41404.08
635.19	41282.37
635.34	41333.86
635.49	41373.65
635.64	41254.28
635.79	41198.11
635.94	40509.99
636.09	40942.99
636.24	41001.50
636.39	40687.87
636.53	41015.55
636.68	40715.96
636.83	40704.26
636.98	40706.60
637.13	41060.02
637.28	41205.13
637.43	41481.31
637.57	41263.64
637.72	40828.30
637.87	40837.67
638.02	40779.15
638.17	40933.63
638.32	40465.52
638.46	40514.67
638.61	40596.59
638.76	40215.08
638.91	40610.64
639.06	40652.76
639.20	40701.92
639.35	40666.81
639.50	40376.58
639.65	40554.46
639.80	39983.37
639.94	40631.70
640.09	40369.56
640.24	40231.47
640.39	40313.39
640.54	40198.70
640.68	40172.96
640.83	40039.54
640.98	39796.13
641.13	39615.91
641.27	40407.01
641.42	40201.04
641.57	40023.16
641.72	40034.86
641.86	40086.36
642.01	39662.72
642.16	40023.16
642.31	39842.94
642.45	39969.33
642.60	39906.13
642.75	39459.09
642.90	39625.27
643.04	39243.76
643.19	39519.95
643.34	40020.82
643.48	39714.21
643.63	39798.47
643.78	39709.53
643.93	39742.30
644.07	39365.47
644.22	39931.88
644.37	39683.78
644.51	39445.05
644.66	39395.90
644.81	39651.02
644.95	39393.56
645.10	39676.76
645.25	39498.88
645.39	39381.85
645.54	39306.96
645.69	39185.25
645.83	39337.38
645.98	39496.54
646.13	39201.63
646.27	39625.27
646.42	39201.63
646.57	38962.90
646.71	39409.94
646.86	39283.55
647.00	38848.21
647.15	38476.07
647.30	39274.19
647.44	39108.01
647.59	38979.28
647.74	38607.14
647.88	38609.48
648.03	38806.08
648.17	38955.88
648.32	38298.19
648.47	38567.35
648.61	38824.81
648.76	39033.11
648.90	38649.27
649.05	38653.95
649.20	39168.87
649.34	38373.08
649.49	38396.49
649.63	38719.48
649.78	38693.74
649.92	38326.27
650.07	38642.24
650.21	38281.80
650.36	38515.86
650.51	38490.11
650.65	38979.28
650.80	38932.47
650.94	39131.42
651.09	38703.10
651.23	38106.26
651.38	37921.36
651.52	38057.11
651.67	37890.93
651.81	38349.68
651.96	38000.94
652.10	37780.93
652.25	38321.59
652.39	38677.35
652.54	38288.82
652.68	38298.19
652.83	38394.15
652.97	38129.67
653.12	38117.96
653.26	37951.79
653.41	37928.38
653.55	38000.94
653.70	37893.27
653.84	37837.10
653.99	37912.00
654.13	37785.61
654.27	37315.16
654.42	37832.42
654.56	37474.32
654.71	37897.95
654.85	37446.23
655.00	37736.46
655.14	37441.55
655.29	37324.52
655.43	37282.39
655.57	36891.52
655.72	37062.38
655.86	37345.59
656.01	36781.52
656.15	36481.93
656.30	36591.94
656.44	37130.26
656.58	37488.36
656.73	37324.52
656.87	36971.10
657.01	37181.75
657.16	37097.49
657.30	36856.42
657.45	36727.69
657.59	36659.81
657.73	36811.95
657.88	37193.45
658.02	37209.84
658.16	37071.75
658.31	37228.56
658.45	36814.29
658.60	36732.37
658.74	36868.12
658.88	37378.36
659.03	36800.24
659.17	36589.59
659.31	36140.21
659.46	36320.43
659.60	36542.78
659.74	36603.64
659.89	36343.84
660.03	36437.46
660.17	36346.18
660.32	36140.21
660.46	36463.21
660.60	36446.82
660.74	36102.76
660.89	36589.59
661.03	36257.24
661.17	36240.86
661.32	36421.08
661.46	35896.80
661.60	35454.44
661.74	35709.55
661.89	35798.49
662.03	35777.43
662.17	36219.79
662.31	35697.85
662.46	36367.24
662.60	35894.46
662.74	35761.05
662.88	35473.16
663.03	35466.14
663.17	35517.63
663.31	35416.99
663.45	35257.83
663.60	35068.25
663.74	34923.13
663.88	34983.99
664.02	34717.17
664.17	34925.47
664.31	35061.22
664.45	35035.48
664.59	35007.39
664.73	34733.55
664.88	34824.83
665.02	34443.32
665.16	34672.70
665.30	34422.26
665.44	34307.57
665.59	34148.42
665.73	34771.00
665.87	34213.95
666.01	34558.01
666.15	34677.38
666.29	34553.33
666.44	34726.53
666.58	34242.04
666.72	34534.60
666.86	34263.10
667.00	34141.39
667.14	34122.67
667.28	33956.49
667.43	33933.09
667.57	34368.43
667.71	33954.15
667.85	33993.94
667.99	33879.25
668.13	33914.36
668.27	33853.51
668.41	33841.81
668.56	33301.14
668.70	33893.30
668.84	33474.34
668.98	33057.73
669.12	33017.94
669.26	33497.75
669.40	33179.43
669.54	32828.35
669.68	33055.39
669.82	32978.15
669.96	32748.78
670.10	33008.58
670.25	32875.16
670.39	32678.56
670.53	32975.81
670.67	32315.78
670.81	33041.34
670.95	32397.70
671.09	32236.20
671.23	32446.85
671.37	32353.23
671.51	32378.97
671.65	32357.91
671.79	31835.97
671.93	32013.85
672.07	31648.72
672.21	31854.69
672.35	31878.10
672.49	31686.17
672.63	31948.31
672.77	31789.16
672.91	31880.44
673.05	31365.52
673.19	31395.95
673.33	31480.21
673.47	31302.32
673.61	30925.50
673.75	31199.34
673.89	31248.49
674.03	30902.09
674.17	31119.76
674.31	30988.69
674.45	31197.00
674.59	30749.96
674.73	31094.02
674.87	30764.00
675.01	30925.50
675.15	30686.76
675.29	30600.16
675.43	30618.89
675.56	30565.06
675.70	30408.24
675.84	30579.10
675.98	29493.09
676.12	30087.59
676.26	30321.64
676.40	29879.28
676.54	29809.06
676.68	30092.27
676.82	29076.48
676.96	30045.46
677.10	29942.47
677.23	29455.64
677.37	29612.46
677.51	29427.56
677.65	29102.22
677.79	28802.63
677.93	29109.24
678.07	29125.63
678.21	28769.86
678.34	28404.74
678.48	28451.55
678.62	28126.22
678.76	28348.57
678.90	28105.15
679.04	28212.82
679.18	28474.96
679.31	27805.56
679.45	27948.34
679.59	27901.53
679.73	27854.72
679.87	27573.85
680.00	27653.43
680.14	27578.53
680.28	27744.71
680.42	27587.89
680.56	27372.57
680.70	27220.43
680.83	27576.19
680.97	27365.54
681.11	26930.20
681.25	27119.79
681.39	27136.17
681.52	26787.43
681.66	26724.24
681.80	26644.66
681.94	26583.80
682.07	26291.24
682.21	26040.80
682.35	26167.19
682.49	26279.54
682.62	26141.44
682.76	26019.74
682.90	26192.94
683.04	25806.75
683.17	25568.01
683.31	25385.45
683.45	25689.72
683.59	25488.43
683.72	25348.00
683.86	25507.16
684.00	24922.02
684.13	25156.08
684.27	24994.58
684.41	24720.74
684.55	24793.29
684.68	24858.83
684.82	24489.03
684.96	24704.35
685.09	24577.97
685.23	24315.83
685.37	24376.68
685.50	24500.73
685.64	24407.11
685.78	23955.38
685.91	24173.05
686.05	24016.24
686.19	23726.01
686.32	23742.39
686.46	23147.90
686.60	23351.52
686.73	22923.21
686.87	23117.47
687.01	23115.13
687.14	22448.08
687.28	22766.39
687.42	22841.29
687.55	23012.15
687.69	22794.48
687.82	22537.02
687.96	22782.77
688.10	22677.45
688.23	22309.99
688.37	22040.82
688.50	22590.85
688.64	22246.79
688.78	22286.58
688.91	21984.65
689.05	21799.75
689.18	21844.22
689.32	21359.73
689.46	21825.50
689.59	21891.03
689.73	21682.72
689.86	21860.60
690.00	21436.97
690.13	21282.49
690.27	21064.82
690.41	21160.78
690.54	20989.92
690.68	21380.79
690.81	21240.36
690.95	20952.48
691.08	20999.29
691.22	21060.14
691.35	20931.41
691.49	20968.86
691.62	20737.15
691.76	20828.43
691.89	20596.71
692.03	20365.00
692.16	20528.84
692.30	20339.26
692.43	19796.25
692.57	20177.76
692.70	19775.19
692.84	19941.36
692.97	19609.01
693.11	19599.65
693.24	19276.65
693.38	19414.74
693.51	19571.56
693.65	19381.98
693.78	19421.77
693.92	19421.77
694.05	19477.94
694.19	19374.95
694.32	19250.91
694.45	19290.70
694.59	18979.40
694.72	18778.12
694.86	18857.70
694.99	18647.05
695.13	18621.30
695.26	18546.40
695.39	18225.75
695.53	18537.04
695.66	18721.95
695.80	18415.34
695.93	18097.02
696.07	18143.83
696.20	18005.74
696.33	18111.07
696.47	17912.12
696.60	17769.35
696.73	17589.13
696.87	17715.51
697.00	17282.52
697.14	17362.09
697.27	17291.88
697.40	17188.89
697.54	17177.19
697.67	16992.29
697.80	17137.40
697.94	16886.97
698.07	16863.56
698.21	17114.00
698.34	17261.45
698.47	16643.55
698.61	16746.53
698.74	16849.52
698.87	16451.63
699.01	16390.77
699.14	16343.96
699.27	16198.85
699.40	16217.57
699.54	16170.76
699.67	16027.99
699.80	15922.66
699.94	15985.86
700.07	16339.28
700.20	15749.46
700.34	15630.10
700.47	15662.86
700.60	15868.83
700.73	15592.65
700.87	15585.63
701.00	15393.70
701.13	15360.94
701.26	15246.25
701.40	15513.07
701.53	15047.30
701.66	15122.20
701.79	14911.55
701.93	15236.89
702.06	14897.51
702.19	14869.42
702.32	15208.80
702.46	14616.65
702.59	14836.66
702.72	14455.15
702.85	14616.65
702.99	14422.38
703.12	14523.02
703.25	14174.28
703.38	14338.12
703.51	14300.67
703.65	14064.28
703.78	13895.76
703.91	13987.04
704.04	14197.69
704.17	13921.51
704.31	13703.84
704.44	13813.84
704.57	13565.74
704.70	13654.69
704.83	13413.61
704.96	13661.71
705.10	13273.18
705.23	13584.47
>>>>>End Processed Spectral Data<<<<<
