SpectraSuite Data File
++++++++++++++++++++++++++++++++++++
Date: Fri Oct 25 11:33:10 EDT 2013
User: price-jones
Dark Spectrum Present: No
Reference Spectrum Present: No
Number of Sampled Component Spectra: 1
Spectrometers: USB2+H05261
Integration Time (usec): 100000 (USB2+H05261)
Spectra Averaged: 1 (USB2+H05261)
Boxcar Smoothing: 0 (USB2+H05261)
Correct for Electrical Dark: No (USB2+H05261)
Strobe/Lamp Enabled: No (USB2+H05261)
Correct for Detector Non-linearity: No (USB2+H05261)
Correct for Stray Light: No (USB2+H05261)
Number of Pixels in Processed Spectrum: 2048
>>>>>Begin Processed Spectral Data<<<<<
365.73	311.29
365.92	311.29
366.12	311.29
366.32	227.03
366.52	187.24
366.72	154.48
366.91	264.48
367.11	191.92
367.31	191.92
367.51	180.22
367.70	201.29
367.90	166.18
368.10	63.19
368.30	142.77
368.49	135.75
368.69	203.63
368.89	180.22
369.09	138.09
369.28	135.75
369.48	163.84
369.68	184.90
369.87	189.58
370.07	210.65
370.27	266.82
370.47	301.93
370.66	444.70
370.86	557.05
371.06	571.09
371.25	566.41
371.45	587.47
371.65	585.13
371.84	486.83
372.04	519.60
372.24	580.45
372.44	545.34
372.63	550.03
372.83	554.71
373.03	641.31
373.22	617.90
373.42	608.54
373.62	624.92
373.81	620.24
374.01	648.33
374.21	624.92
374.40	657.69
374.60	667.05
374.79	671.73
374.99	650.67
375.19	678.76
375.38	667.05
375.58	690.46
375.78	725.57
375.97	718.54
376.17	739.61
376.37	634.29
376.56	627.26
376.76	667.05
376.95	737.27
377.15	671.73
377.35	716.20
377.54	704.50
377.74	720.88
377.93	730.25
378.13	648.33
378.33	758.33
378.52	653.01
378.72	716.20
378.91	734.93
379.11	763.01
379.31	723.23
379.50	753.65
379.70	772.38
379.89	770.04
380.09	737.27
380.28	706.84
380.48	730.25
380.68	809.83
380.87	772.38
381.07	709.18
381.26	779.40
381.46	760.67
381.65	786.42
381.85	812.17
382.04	748.97
382.24	809.83
382.43	748.97
382.63	844.93
382.83	784.08
383.02	847.27
383.22	849.61
383.41	826.21
383.61	779.40
383.80	816.85
384.00	882.38
384.19	823.87
384.39	901.11
384.58	809.83
384.78	798.12
384.97	816.85
385.17	800.46
385.36	833.23
385.56	835.57
385.75	807.48
385.95	863.66
386.14	889.40
386.34	880.04
386.53	837.91
386.72	791.10
386.92	908.13
387.11	910.47
387.31	919.83
387.50	861.32
387.70	983.02
387.89	898.77
388.09	868.34
388.28	898.77
388.48	903.45
388.67	964.30
388.86	898.77
389.06	891.74
389.25	976.00
389.45	966.64
389.64	924.51
389.84	1055.58
390.03	992.39
390.22	976.00
390.42	1020.47
390.61	971.32
390.81	940.90
391.00	1081.33
391.19	1060.26
391.39	980.68
391.58	985.37
391.78	990.05
391.97	1069.62
392.16	1020.47
392.36	1043.88
392.55	1027.50
392.75	1102.39
392.94	1022.81
393.13	1039.20
393.33	1090.69
393.52	1083.67
393.71	1132.82
393.91	1114.10
394.10	1121.12
394.29	1142.18
394.49	1172.61
394.68	1177.29
394.88	1181.97
395.07	1165.59
395.26	1193.67
395.46	1165.59
395.65	1191.33
395.84	1167.93
396.04	1153.88
396.23	1203.04
396.42	1210.06
396.62	1205.38
396.81	1203.04
397.00	1142.18
397.19	1163.25
397.39	1188.99
397.58	1193.67
397.77	1320.06
397.97	1256.87
398.16	1186.65
398.35	1301.34
398.55	1224.10
398.74	1277.93
398.93	1322.40
399.12	1334.11
399.32	1289.64
399.51	1425.39
399.70	1434.75
399.90	1329.42
400.09	1324.74
400.28	1301.34
400.47	1359.85
400.67	1404.32
400.86	1380.92
401.05	1444.11
401.24	1495.60
401.44	1507.30
401.63	1554.12
401.82	1469.86
402.01	1362.19
402.21	1561.14
402.40	1483.90
402.59	1554.12
402.78	1537.73
402.97	1523.69
403.17	1521.35
403.36	1540.07
403.55	1617.31
403.74	1558.80
403.93	1575.18
404.13	1589.22
404.32	1652.42
404.51	1666.46
404.70	1638.38
404.89	1631.35
405.09	1739.02
405.28	1720.29
405.47	1687.53
405.66	1727.32
405.85	1680.50
406.05	1638.38
406.24	1701.57
406.43	1788.17
406.62	1813.92
406.81	1797.53
407.00	1804.55
407.20	1867.75
407.39	1771.79
407.58	1926.26
407.77	1966.05
407.96	1802.21
408.15	1919.24
408.34	1881.79
408.54	1895.83
408.73	1961.37
408.92	1895.83
409.11	2010.52
409.30	1956.69
409.49	1970.73
409.68	2054.99
409.87	2033.93
410.07	1989.46
410.26	2094.78
410.45	2001.16
410.64	2080.74
410.83	2087.76
411.02	2190.74
411.21	2179.04
411.40	2183.72
411.59	2223.51
411.78	2141.59
411.98	2242.23
412.17	2303.09
412.36	2113.50
412.55	2223.51
412.74	2265.64
412.93	2321.81
413.12	2270.32
413.31	2410.75
413.50	2312.45
413.69	2427.14
413.88	2555.86
414.07	2459.90
414.26	2438.84
414.45	2562.89
414.64	2607.36
414.83	2656.51
415.02	2651.83
415.22	2693.96
415.41	2722.04
415.60	2682.25
415.79	2703.32
415.98	2796.94
416.17	2775.88
416.36	2759.49
416.55	2878.86
416.74	2881.20
416.93	2745.45
417.12	2806.30
417.31	2841.41
417.50	2958.44
417.69	2998.23
417.88	2916.31
418.07	2932.69
418.26	2972.48
418.45	2958.44
418.64	3061.42
418.83	3084.83
419.02	3136.32
419.21	3243.98
419.39	3150.36
419.58	3108.23
419.77	3159.72
419.96	3211.22
420.15	3248.66
420.34	3070.78
420.53	3133.98
420.72	3274.41
420.91	3445.27
421.10	3283.77
421.29	3372.71
421.48	3190.15
421.67	3267.39
421.86	3370.37
422.05	3225.26
422.24	3398.46
422.43	3393.78
422.61	3358.67
422.80	3419.52
422.99	3400.80
423.18	3524.85
423.37	3417.18
423.56	3351.65
423.75	3307.18
423.94	3368.03
424.13	3185.47
424.32	3349.31
424.50	3569.32
424.69	3644.21
424.88	3655.92
425.07	3489.74
425.26	3459.31
425.45	3424.20
425.64	3407.82
425.83	3389.10
426.01	3501.44
426.20	3482.72
426.39	3548.25
426.58	3552.93
426.77	3454.63
426.96	3705.07
427.15	3590.38
427.33	3585.70
427.52	3592.72
427.71	3700.39
427.90	3552.93
428.09	3672.30
428.28	3646.55
428.46	3641.87
428.65	3714.43
428.84	3854.86
429.03	3803.37
429.22	3693.37
429.40	3676.98
429.59	3735.50
429.78	3641.87
429.97	3784.65
430.16	3801.03
430.34	3861.88
430.53	3808.05
430.72	3904.01
430.91	4035.08
431.10	3939.12
431.28	4009.34
431.47	3911.04
431.66	4058.49
431.85	3983.59
432.03	4070.19
432.22	4063.17
432.41	4142.75
432.60	4121.68
432.79	4229.35
432.97	4124.02
433.16	4269.14
433.35	4074.87
433.54	4109.98
433.72	4276.16
433.91	4159.13
434.10	4128.70
434.28	4159.13
434.47	4278.50
434.66	4325.31
434.85	4313.61
435.03	4491.49
435.22	4432.97
435.41	4554.68
435.59	4351.06
435.78	4353.40
435.97	4566.39
436.16	4362.76
436.34	4414.25
436.53	4432.97
436.72	4533.62
436.90	4486.81
437.09	4627.24
437.28	4482.13
437.46	4498.51
437.65	4652.98
437.84	4531.28
438.02	4568.73
438.21	4671.71
438.40	4540.64
438.58	4901.08
438.77	4938.53
438.96	4784.06
439.14	4861.29
439.33	4931.51
439.52	4983.00
439.70	4954.91
439.89	5121.09
440.08	5111.73
440.26	5095.35
440.45	5085.98
440.63	5205.35
440.82	5050.88
441.01	5179.61
441.19	5242.80
441.38	5343.44
441.57	5181.95
441.75	5298.97
441.94	5472.17
442.12	5488.56
442.31	5472.17
442.50	5439.40
442.68	5401.96
442.87	5575.16
443.05	5528.35
443.24	5589.20
443.43	5507.28
443.61	5715.59
443.80	5692.18
443.98	5366.85
444.17	5371.53
444.35	5703.89
444.54	5673.46
444.73	5638.35
444.91	5636.01
445.10	5621.97
445.28	5631.33
445.47	5685.16
445.65	5710.91
445.84	5764.74
446.02	5827.93
446.21	5724.95
446.39	5792.83
446.58	5937.94
446.77	5783.46
446.95	5671.12
447.14	5872.40
447.32	5834.96
447.51	5764.74
447.69	5645.37
447.88	5776.44
448.06	5930.92
448.25	5888.79
448.43	5841.98
448.62	5874.74
448.80	5738.99
448.99	6024.54
449.17	5956.66
449.36	5865.38
449.54	6204.76
449.73	6120.50
449.91	6242.21
450.10	6174.33
450.28	6237.53
450.46	6253.91
450.65	6204.76
450.83	6179.01
451.02	6164.97
451.20	6211.78
451.39	6263.27
451.57	6190.72
451.76	6202.42
451.94	6244.55
452.13	6401.37
452.31	6354.55
452.49	6209.44
452.68	6258.59
452.86	6403.71
453.05	6441.15
453.23	6527.75
453.42	6480.94
453.60	6401.37
453.78	6520.73
453.97	6466.90
454.15	6537.12
454.34	6480.94
454.52	6544.14
454.70	6619.04
454.89	6597.97
455.07	6752.45
455.26	6623.72
455.44	6712.66
455.62	6752.45
455.81	6658.82
455.99	6647.12
456.17	6839.05
456.36	6693.93
456.54	7084.80
456.73	6972.46
456.91	7110.55
457.09	6813.30
457.28	7265.02
457.46	6972.46
457.64	7136.29
457.83	7108.21
458.01	7110.55
458.19	7243.96
458.38	7225.23
458.56	7194.81
458.74	7183.10
458.93	7288.43
459.11	7246.30
459.29	7283.75
459.48	7349.28
459.66	7323.54
459.84	7269.70
460.03	7602.06
460.21	7492.05
460.39	7286.09
460.57	7435.88
460.76	7398.43
460.94	7496.74
461.12	7639.51
461.31	7536.52
461.49	7660.57
461.67	7639.51
461.85	7702.70
462.04	7627.81
462.22	8035.06
462.40	7796.32
462.59	7730.79
462.77	7941.44
462.95	7929.74
463.13	7922.71
463.32	7927.39
463.50	7899.31
463.68	7971.86
463.86	8072.51
464.05	7868.88
464.23	7756.54
464.41	8170.81
464.59	7964.84
464.78	8166.13
464.96	8252.73
465.14	7836.11
465.32	8100.59
465.50	8294.86
465.69	8262.09
465.87	8215.28
466.05	8067.83
466.23	8351.03
466.41	8241.03
466.60	8360.39
466.78	8243.37
466.96	8152.09
467.14	8437.63
467.32	8308.90
467.51	8561.68
467.69	8119.32
467.87	8327.63
468.05	8482.10
468.23	8454.02
468.41	8414.23
468.60	8592.11
468.78	8514.87
468.96	8505.51
469.14	8528.91
469.32	8507.85
469.50	8545.30
469.69	8592.11
469.87	8664.66
470.05	8655.30
470.23	8760.63
470.41	8807.44
470.59	9104.68
470.77	8891.70
470.95	8877.65
471.14	9011.06
471.32	8744.24
471.50	9273.20
471.68	9001.70
471.86	9097.66
472.04	9282.56
472.22	9521.30
472.40	9179.58
472.58	9324.69
472.77	9277.88
472.95	9500.23
473.13	9811.53
473.31	9366.82
473.49	9446.40
473.67	9626.62
473.85	9729.61
474.03	9767.06
474.21	9769.40
474.39	9825.57
474.57	9893.44
474.75	9961.32
474.93	9949.62
475.12	9958.98
475.30	10141.54
475.48	9989.41
475.66	10181.33
475.84	10092.39
476.02	10375.59
476.20	10235.16
476.38	10520.71
476.56	10656.46
476.74	10689.23
476.92	10721.99
477.10	10658.80
477.28	10719.65
477.46	10923.28
477.64	11094.14
477.82	11239.25
478.00	11248.61
478.18	11192.44
478.36	11363.30
478.54	11382.03
478.72	11477.99
478.90	11688.64
479.08	11578.63
479.26	11946.09
479.44	11906.31
479.62	11929.71
479.80	11903.96
479.98	12168.45
480.16	12421.22
480.34	12088.87
480.52	12306.54
480.70	12507.82
480.88	12435.27
481.06	12561.66
481.24	12383.77
481.41	12821.45
481.59	12952.52
481.77	12812.09
481.95	12957.21
482.13	13102.32
482.31	13085.94
482.49	13584.47
482.67	13392.55
482.85	13664.05
483.03	13558.72
483.21	13743.63
483.39	14111.09
483.57	13699.16
483.74	14143.86
483.92	14001.08
484.10	13991.72
484.28	14359.19
484.46	14679.84
484.64	15138.58
484.82	14623.67
485.00	15105.82
485.18	15159.65
485.35	15267.31
485.53	15279.02
485.71	15180.71
485.89	15580.95
486.07	15307.10
486.25	15733.08
486.43	15744.78
486.61	15803.30
486.78	15936.71
486.96	16133.31
487.14	16442.26
487.32	16381.41
487.50	16580.36
487.68	16435.24
487.85	16840.15
488.03	17022.72
488.21	17109.32
488.39	17289.54
488.57	17106.98
488.75	17385.50
488.92	17797.43
489.10	17734.24
489.28	17895.74
489.46	17930.84
489.64	17947.23
489.81	18267.88
489.99	18448.10
490.17	18321.71
490.35	18445.76
490.53	18717.26
490.70	19192.39
490.88	18579.17
491.06	18899.83
491.24	19302.40
491.41	19309.42
491.59	19620.71
491.77	19377.30
491.95	19777.53
492.13	19819.66
492.30	20053.71
492.48	19880.51
492.66	20194.14
492.84	19924.98
493.01	20264.36
493.19	20236.27
493.37	20599.05
493.54	20790.98
493.72	20652.89
493.90	20877.58
494.08	21205.25
494.25	21476.76
494.43	21558.67
494.61	21006.31
494.79	21598.46
494.96	21500.16
495.14	21561.02
495.32	21958.91
495.49	21874.65
495.67	22047.85
495.85	22476.16
496.02	22244.45
496.20	22801.50
496.38	22726.60
496.55	22719.58
496.73	23019.17
496.91	22822.56
497.09	23157.26
497.26	23009.81
497.44	22890.44
497.62	23508.34
497.79	23782.18
497.97	23742.39
498.14	23686.22
498.32	23838.36
498.50	24058.37
498.67	24077.09
498.85	23777.50
499.03	23955.38
499.20	24343.91
499.38	24645.84
499.56	24556.90
499.73	24486.68
499.91	24985.22
500.08	25238.00
500.26	24805.00
500.44	24985.22
500.61	24823.72
500.79	24975.86
500.97	25252.04
501.14	25565.67
501.32	25830.15
501.49	25490.77
501.67	25680.36
501.84	25399.49
502.02	26160.17
502.20	25996.33
502.37	25544.61
502.55	26249.11
502.72	26223.36
502.90	26230.38
503.07	25965.90
503.25	26417.63
503.43	26162.51
503.60	26408.26
503.78	26789.77
503.95	26986.38
504.13	26852.97
504.30	26794.45
504.48	27016.80
504.65	27522.36
504.83	27489.59
505.01	27566.83
505.18	27428.74
505.36	27814.93
505.53	27704.92
505.71	27688.54
505.88	27894.50
506.06	27477.89
506.23	27665.13
506.41	27887.48
506.58	28020.89
506.76	28086.43
506.93	28477.30
507.11	28313.46
507.28	28261.97
507.46	28662.20
507.63	28709.01
507.81	28741.78
507.98	28704.33
508.16	28741.78
508.33	28732.42
508.50	28994.56
508.68	28938.38
508.85	28774.55
509.03	29177.12
509.20	29453.30
509.38	29610.12
509.55	29706.08
509.73	29551.60
509.90	29544.58
510.08	29523.52
510.25	29834.81
510.42	30038.44
510.60	30251.42
510.77	30281.85
510.95	30565.06
511.12	29872.26
511.30	30387.18
511.47	30349.73
511.64	30527.61
511.82	30803.79
511.99	30277.17
512.17	30852.94
512.34	30588.46
512.51	30843.58
512.69	31122.10
512.86	31307.01
513.04	31417.01
513.21	31091.68
513.38	31885.12
513.56	31571.49
513.73	31419.35
513.90	31545.74
514.08	31484.89
514.25	31630.00
514.43	31945.97
514.60	32060.66
514.77	32187.05
514.95	32320.46
515.12	32041.93
515.29	32088.74
515.47	32589.62
515.64	32119.17
515.81	32191.73
515.99	32093.43
516.16	32772.18
516.33	32287.69
516.51	32921.98
516.68	32542.81
516.85	33141.99
517.03	32753.46
517.20	33174.75
517.37	33074.11
517.54	32896.23
517.72	33039.00
517.89	33443.91
518.06	33654.56
518.24	33076.45
518.41	33745.84
518.58	33343.27
518.75	33474.34
518.93	33759.89
519.10	33415.83
519.27	33944.79
519.45	33706.05
519.62	34141.39
519.79	34164.80
519.96	33816.06
520.14	34206.93
520.31	34281.83
520.48	34569.71
520.65	34340.34
520.83	34553.33
521.00	35042.50
521.17	34623.54
521.34	34689.08
521.52	34876.32
521.69	34904.41
521.86	35047.18
522.03	34991.01
522.20	35103.35
522.38	35463.80
522.55	35620.61
522.72	35328.05
522.89	35264.85
523.07	35754.02
523.24	35414.65
523.41	35819.56
523.58	35662.74
523.75	35367.84
523.92	35227.40
524.10	35779.77
524.27	36224.47
524.44	36170.64
524.61	35835.94
524.78	36304.05
524.96	36643.43
525.13	36388.31
525.30	36613.00
525.47	36491.29
525.64	36554.49
525.81	36568.53
525.98	36613.00
526.16	36479.59
526.33	36418.74
526.50	37263.67
526.67	36360.22
526.84	36966.42
527.01	37184.09
527.18	36987.49
527.36	36884.50
527.53	37572.62
527.70	37748.16
527.87	37830.08
528.04	37457.93
528.21	37251.97
528.38	37617.09
528.55	37589.00
528.72	37104.51
528.89	37785.61
529.07	37687.31
529.24	37659.22
529.41	37879.23
529.58	37811.35
529.75	38010.30
529.92	37359.63
530.09	38103.92
530.26	38321.59
530.43	38328.61
530.60	37811.35
530.77	37844.12
530.94	38541.60
531.11	38017.32
531.28	38209.25
531.46	38321.59
531.63	38443.30
531.80	38529.90
531.97	38459.68
532.14	38834.17
532.31	38651.61
532.48	39000.35
532.65	39227.38
532.82	39058.86
532.99	39072.90
533.16	38986.30
533.33	39056.52
533.50	39643.99
533.67	39335.04
533.84	38735.87
534.01	39342.06
534.18	39409.94
534.35	39665.06
534.52	39438.03
534.69	39929.54
534.86	39613.57
535.03	39332.70
535.20	39826.56
535.37	40098.06
535.54	39906.13
535.71	39721.23
535.88	40264.24
536.05	39878.05
536.22	40116.78
536.38	40135.51
536.55	40095.72
536.72	39824.22
536.89	39826.56
537.06	39985.71
537.23	40336.79
537.40	40177.64
537.57	40191.68
537.74	40325.09
537.91	40678.51
538.08	40825.96
538.25	40067.63
538.42	40893.84
538.59	40371.90
538.75	40746.39
538.92	40657.45
539.09	41268.33
539.26	40865.75
539.43	41055.34
539.60	40814.26
539.77	41303.43
539.94	41184.07
540.11	41045.97
540.28	41563.23
540.44	41006.19
540.61	41177.04
540.78	41099.81
540.95	40954.69
541.12	41565.57
541.29	41298.75
541.46	41523.44
541.62	41483.66
541.79	41507.06
541.96	41638.13
542.13	41668.56
542.30	41872.18
542.47	42073.47
542.63	41621.75
542.80	42057.09
542.97	42167.09
543.14	42003.25
543.31	41890.91
543.48	41689.62
543.64	42682.01
543.81	42700.73
543.98	42174.11
544.15	42476.04
544.32	42417.53
544.48	42997.98
544.65	42462.00
544.82	42738.18
544.99	42572.00
545.16	42459.66
545.32	42403.49
545.49	43189.91
545.66	42953.51
545.83	42941.81
546.00	42965.21
546.16	43072.88
546.33	43026.07
546.50	42841.17
546.67	43070.54
546.83	42703.07
547.00	42925.42
547.17	42930.11
547.34	43021.39
547.50	43405.23
547.67	43601.84
547.84	43557.37
548.00	43510.56
548.17	43833.55
548.34	43676.74
548.51	44278.25
548.67	43660.35
548.84	43533.96
549.01	43412.26
549.18	43835.89
549.34	43861.64
549.51	43400.55
549.68	43941.22
549.84	43838.23
550.01	44252.51
550.18	43496.52
550.34	43849.94
550.51	43803.13
550.68	44020.80
550.84	43763.34
551.01	44362.51
551.18	44144.84
551.34	44278.25
551.51	44304.00
551.68	44266.55
551.84	43922.49
552.01	44236.12
552.18	44397.62
552.34	44779.13
552.51	44318.04
552.68	44713.59
552.84	44535.71
553.01	44619.97
553.18	44811.90
553.34	44697.21
553.51	44315.70
553.67	44666.78
553.84	44882.11
554.01	44744.02
554.17	44926.58
554.34	44933.60
554.51	45202.77
554.67	45432.14
554.84	45212.13
555.00	44945.31
555.17	44847.00
555.33	45336.18
555.50	45296.39
555.67	45022.54
555.83	45567.89
556.00	44865.73
556.16	45762.15
556.33	45221.49
556.50	45352.56
556.66	45511.72
556.83	44971.05
556.99	45333.84
557.16	45848.75
557.32	45621.72
557.49	45673.21
557.65	45460.23
557.82	45324.47
557.98	45785.56
558.15	45322.13
558.32	45909.61
558.48	45516.40
558.65	45748.11
558.81	45748.11
558.98	45801.94
559.14	45717.68
559.31	45694.28
559.47	45825.35
559.64	45214.47
559.80	45738.75
559.97	45645.13
560.13	45762.15
560.30	45909.61
560.46	46375.37
560.63	46169.41
560.79	46218.56
560.96	46408.14
561.12	46508.79
561.29	46248.99
561.45	46192.81
561.61	46066.42
561.78	45808.96
561.94	46148.34
562.11	46515.81
562.27	46026.63
562.44	46122.60
562.60	46323.88
562.77	46429.21
562.93	46188.13
563.10	46429.21
563.26	46377.72
563.42	46941.78
563.59	46347.29
563.75	46274.73
563.92	46555.60
564.08	46202.18
564.24	46464.32
564.41	46284.09
564.57	46728.80
564.74	46574.32
564.90	46684.33
565.07	46473.68
565.23	46452.61
565.39	46614.11
565.56	46600.07
565.72	46473.68
565.88	46618.79
566.05	46703.05
566.21	46511.13
566.38	46885.61
566.54	46831.78
566.70	46724.11
566.87	46642.20
567.03	46721.77
567.19	46801.35
567.36	46887.95
567.52	46796.67
567.68	47370.10
567.85	46951.15
568.01	47435.64
568.17	46387.08
568.34	47243.71
568.50	46969.87
568.66	46857.52
568.83	46843.48
568.99	46883.27
569.15	46806.03
569.32	46567.30
569.48	46838.80
569.64	46955.83
569.81	47035.41
569.97	46951.15
570.13	46862.21
570.30	46646.88
570.46	47215.63
570.62	46969.87
570.78	46843.48
570.95	47086.90
571.11	47433.30
571.27	47021.36
571.43	46993.28
571.60	47107.96
571.76	47047.11
571.92	47220.31
572.09	47194.56
572.25	47058.81
572.41	47143.07
572.57	47234.35
572.74	47524.58
572.90	47393.51
573.06	47543.30
573.22	47138.39
573.38	47391.17
573.55	47063.49
573.71	47433.30
573.87	47358.40
574.03	47236.69
574.20	47178.18
574.36	47339.68
574.52	47201.58
574.68	47463.72
574.84	47622.88
575.01	47597.13
575.17	47775.02
575.33	47927.15
575.49	47065.83
575.65	47379.46
575.82	47629.90
575.98	47592.45
576.14	47569.05
576.30	47517.56
576.46	47180.52
576.62	47119.66
576.79	47517.56
576.95	47360.74
577.11	47423.93
577.27	47559.69
577.43	47351.38
577.59	47365.42
577.75	47695.44
577.92	47138.39
578.08	47325.63
578.24	47114.98
578.40	47484.79
578.56	47618.20
578.72	47555.00
578.88	47803.10
579.04	47878.00
579.21	47552.66
579.37	47325.63
579.53	47557.35
579.69	47459.04
579.85	47730.54
580.01	47374.78
580.17	47161.79
580.33	47657.99
580.49	47824.17
580.65	47515.22
580.82	47435.64
580.98	47585.43
581.14	47180.52
581.30	47819.49
581.46	47742.25
581.62	47674.37
581.78	47615.86
581.94	47983.32
582.10	47669.69
582.26	47997.37
582.42	47760.97
582.58	47887.36
582.74	47494.15
582.90	47964.60
583.06	47739.91
583.22	47543.30
583.38	47578.41
583.54	47959.92
583.70	47763.31
583.86	48002.05
584.02	47672.03
584.18	48215.04
584.34	47845.23
584.50	48058.22
584.66	47828.85
584.82	47660.33
584.98	48030.13
585.14	47821.83
585.30	47430.96
585.46	48062.90
585.62	47765.65
585.78	47690.76
585.94	47367.76
586.10	47421.59
586.26	47672.03
586.42	47775.02
586.58	47955.24
586.74	47578.41
586.90	47543.30
587.06	47627.56
587.22	48032.47
587.38	47540.96
587.54	47969.28
587.70	48065.24
587.86	48055.88
588.02	48149.50
588.18	47564.37
588.34	47990.34
588.49	47814.80
588.65	47566.71
588.81	47817.14
588.97	48182.27
589.13	47941.19
589.29	48030.13
589.45	48739.32
589.61	47917.79
589.77	48142.48
589.93	48147.16
590.08	48519.31
590.24	47964.60
590.40	48303.98
590.56	48451.43
590.72	48402.28
590.88	47934.17
591.04	48095.67
591.20	48385.89
591.35	48395.26
591.51	48521.65
591.67	48470.15
591.83	48533.35
591.99	48247.80
592.15	48325.04
592.31	48196.31
592.46	48247.80
592.62	48156.52
592.78	48395.26
592.94	48533.35
593.10	48491.22
593.26	48608.25
593.41	48619.95
593.57	48238.44
593.73	48786.13
593.89	48935.92
594.05	48624.63
594.20	48240.78
594.36	49193.38
594.52	48732.29
594.68	48507.60
594.84	48217.38
594.99	48746.34
595.15	48446.75
595.31	48641.01
595.47	48502.92
595.62	48676.12
595.78	48313.34
595.94	48301.64
596.10	48921.88
596.25	48772.08
596.41	48931.24
596.57	48751.02
596.73	48914.86
596.88	48776.76
597.04	48479.52
597.20	48308.66
597.36	48556.75
597.51	48662.08
597.67	48617.61
597.83	48488.88
597.99	48547.39
598.14	48655.06
598.30	48554.41
598.46	48603.56
598.61	49132.53
598.77	48711.23
598.93	48753.36
599.09	48690.16
599.24	48765.06
599.40	48837.62
599.56	48992.09
599.71	49104.44
599.87	49331.47
600.03	49296.36
600.18	48741.66
600.34	48664.42
600.50	48645.69
600.65	48624.63
600.81	48956.99
600.97	48605.91
601.12	48746.34
601.28	48758.04
601.44	48697.19
601.59	48755.70
601.75	48856.34
601.91	48870.39
602.06	48694.85
602.22	48896.13
602.37	48432.71
602.53	48624.63
602.69	48821.23
602.84	48477.18
603.00	48619.95
603.16	48779.10
603.31	48617.61
603.47	49029.54
603.62	48725.27
603.78	48561.44
603.94	48699.53
604.09	48996.77
604.25	48704.21
604.40	48624.63
604.56	48861.02
604.71	48989.75
604.87	48589.52
605.03	48858.68
605.18	48390.58
605.34	48570.80
605.49	48559.09
605.65	48603.56
605.80	48334.40
605.96	48437.39
606.12	48584.84
606.27	48486.54
606.43	48411.64
606.58	48751.02
606.74	48793.15
606.89	48430.36
607.05	48542.71
607.20	48633.99
607.36	48720.59
607.51	48823.58
607.67	48708.89
607.82	48369.51
607.98	48502.92
608.13	48472.49
608.29	48332.06
608.44	48669.10
608.60	48575.48
608.75	48451.43
608.91	48830.60
609.06	48329.72
609.22	48421.00
609.37	48236.10
609.53	49160.61
609.68	48676.12
609.84	48318.02
609.99	48488.88
610.15	48343.77
610.30	48512.28
610.46	48346.11
610.61	48643.35
610.76	48699.53
610.92	47770.33
611.07	48189.29
611.23	48311.00
611.38	48245.46
611.54	48336.74
611.69	48357.81
611.84	48278.23
612.00	48229.08
612.15	48119.07
612.31	48060.56
612.46	48065.24
612.62	48233.76
612.77	48137.80
612.92	48814.21
613.08	48105.03
613.23	48369.51
613.39	48119.07
613.54	47915.45
613.69	48439.73
613.85	47878.00
614.00	48083.97
614.15	48105.03
614.31	47990.34
614.46	48002.05
614.62	48252.48
614.77	47503.51
614.92	48133.12
615.08	47880.34
615.23	48112.05
615.38	48112.05
615.54	48011.41
615.69	48498.24
615.84	48573.14
616.00	48306.32
616.15	48048.86
616.30	48172.91
616.46	47777.36
616.61	47838.21
616.76	48044.18
616.92	47463.72
617.07	47964.60
617.22	47690.76
617.37	47227.33
617.53	47779.70
617.68	47723.52
617.83	47943.53
617.99	48114.39
618.14	47868.64
618.29	47686.07
618.45	47482.45
618.60	47468.40
618.75	47229.67
618.90	47395.85
619.06	47473.09
619.21	47473.09
619.36	47756.29
619.51	47669.69
619.67	47086.90
619.82	47529.26
619.97	47866.30
620.12	47171.16
620.28	47576.07
620.43	47751.61
620.58	47475.43
620.73	47505.85
620.89	47473.09
621.04	47845.23
621.19	47220.31
621.34	47381.80
621.49	47196.90
621.65	47274.14
621.80	46902.00
621.95	47220.31
622.10	47217.97
622.25	47550.32
622.41	47072.85
622.56	47089.24
622.71	47140.73
622.86	47133.71
623.01	47143.07
623.16	47072.85
623.32	47332.65
623.47	47154.77
623.62	46763.90
623.77	46717.09
623.92	46993.28
624.07	46815.40
624.23	47505.85
624.38	47461.38
624.53	46284.09
624.68	46466.66
624.83	46543.89
624.98	47250.74
625.13	46476.02
625.29	46604.75
625.44	47105.62
625.59	46534.53
625.74	47103.28
625.89	46445.59
626.04	46941.78
626.19	46948.81
626.34	46930.08
626.49	46417.50
626.65	46358.99
626.80	46593.04
626.95	46068.76
627.10	46167.07
627.25	46707.73
627.40	46375.37
627.55	46195.15
627.70	46380.06
627.85	46885.61
628.00	46356.65
628.15	46314.52
628.30	46330.90
628.45	46054.72
628.60	45425.12
628.76	45689.60
628.91	45940.04
629.06	45848.75
629.21	45588.95
629.36	46059.40
629.51	45914.29
629.66	46447.93
629.81	46073.45
629.96	46106.21
630.11	45954.08
630.26	45518.74
630.41	46248.99
630.56	45595.98
630.71	46253.67
630.86	45588.95
631.01	45638.11
631.16	45619.38
631.31	45834.71
631.46	45691.94
631.61	45684.92
631.76	45984.51
631.91	45261.28
632.06	45911.95
632.21	45879.18
632.36	46120.26
632.51	45422.78
632.66	45844.07
632.81	45230.85
632.96	45647.47
633.10	45565.55
633.25	45521.08
633.40	45883.86
633.55	45813.65
633.70	45750.45
633.85	45289.37
634.00	45247.24
634.15	45144.25
634.30	45095.10
634.45	45212.13
634.60	45088.08
634.75	45350.22
634.90	45207.45
635.05	45469.59
635.19	44985.10
635.34	45001.48
635.49	44835.30
635.64	45160.64
635.79	45303.41
635.94	45071.70
636.09	45500.01
636.24	45209.79
636.39	44910.20
636.53	45013.18
636.68	44849.35
636.83	44676.15
636.98	44772.11
637.13	44847.00
637.28	44252.51
637.43	44942.97
637.57	44793.17
637.72	44596.57
637.87	44619.97
638.02	45170.00
638.17	44811.90
638.32	44795.51
638.46	44442.09
638.61	44533.37
638.76	44793.17
638.91	44601.25
639.06	44081.65
639.20	43772.70
639.35	44428.05
639.50	44168.25
639.65	44589.55
639.80	44619.97
639.94	44603.59
640.09	44289.96
640.24	44304.00
640.39	43941.22
640.54	43697.80
640.68	44011.43
640.83	44285.28
640.98	44514.65
641.13	43737.59
641.27	44402.30
641.42	44233.78
641.57	44116.76
641.72	44112.08
641.86	44186.97
642.01	44006.75
642.16	43592.48
642.31	43714.19
642.45	44009.09
642.60	43782.06
642.75	44201.02
642.90	44016.11
643.04	43950.58
643.19	43604.18
643.34	43824.19
643.48	43498.86
643.63	43676.74
643.78	43697.80
643.93	43716.53
644.07	43695.46
644.22	43517.58
644.37	43573.75
644.51	43386.51
644.66	43632.27
644.81	43374.81
644.95	43681.42
645.10	43580.78
645.25	43075.22
645.39	43564.39
645.54	43859.30
645.69	42899.68
645.83	42979.26
645.98	42878.61
646.13	43260.12
646.27	43222.67
646.42	43084.58
646.57	43206.29
646.71	43473.11
646.86	43454.39
647.00	43484.81
647.15	43028.41
647.30	43400.55
647.44	43199.27
647.59	43063.52
647.74	42770.95
647.88	43164.16
648.03	43122.03
648.17	42981.60
648.32	43117.35
648.47	43098.62
648.61	42939.47
648.76	42976.92
648.90	43203.95
649.05	42789.67
649.20	42883.30
649.34	42520.51
649.49	42911.38
649.63	43044.79
649.78	43452.05
649.92	43049.47
650.07	43526.94
650.21	43131.39
650.36	42784.99
650.51	42628.18
650.65	42405.83
650.80	43002.66
650.94	42724.14
651.09	42501.79
651.23	42525.19
651.38	42490.09
651.52	42279.44
651.67	43129.05
651.81	42309.86
651.96	42637.54
652.10	42174.11
652.25	42005.59
652.39	42185.82
652.54	42279.44
652.68	42335.61
652.83	42122.62
652.97	42401.14
653.12	42260.71
653.26	42209.22
653.41	42188.16
653.55	42094.53
653.70	42038.36
653.84	42124.96
653.99	42347.31
654.13	42033.68
654.27	41656.85
654.42	42312.20
654.56	42162.41
654.71	42197.52
654.85	41902.61
655.00	42553.28
655.14	42382.42
655.29	42190.50
655.43	42674.99
655.57	41848.78
655.72	41455.57
655.86	41631.11
656.01	41268.33
656.15	41504.72
656.30	41460.25
656.44	41813.67
656.58	41867.50
656.73	42087.51
656.87	40961.72
657.01	41453.23
657.16	41743.45
657.30	41680.26
657.45	41497.70
657.59	40847.03
657.73	40966.40
657.88	41984.53
658.02	41352.58
658.16	41687.28
658.31	41291.73
658.45	41134.92
658.60	40765.11
658.74	40786.18
658.88	41308.11
659.03	41315.14
659.17	41001.50
659.31	40519.35
659.46	40786.18
659.60	40704.26
659.74	40566.16
659.89	40355.52
660.03	40868.09
660.17	41106.83
660.32	40282.96
660.46	40467.86
660.60	40039.54
660.74	40428.07
660.89	40617.66
661.03	40224.45
661.17	40133.17
661.32	39871.03
661.46	40364.88
661.60	40177.64
661.74	40130.83
661.89	39955.29
662.03	40341.47
662.17	39632.29
662.31	39842.94
662.46	39674.42
662.60	39821.87
662.74	39618.25
662.88	39484.84
663.03	39077.58
663.17	39459.09
663.31	39405.26
663.45	39814.85
663.60	39611.23
663.74	39531.65
663.88	39515.26
664.02	38820.13
664.17	39688.46
664.31	39063.54
664.45	39065.88
664.59	39236.74
664.73	38937.15
664.88	39215.68
665.02	39122.05
665.16	39065.88
665.30	38892.68
665.44	38969.92
665.59	38759.27
665.73	38595.43
665.87	38309.89
666.01	38223.29
666.15	38443.30
666.29	38068.81
666.44	38665.65
666.58	39112.69
666.72	38181.16
666.86	38590.75
667.00	38211.59
667.14	37881.57
667.28	37937.74
667.43	37928.38
667.57	38005.62
667.71	38155.41
667.85	37937.74
667.99	37790.29
668.13	37677.94
668.27	37167.71
668.41	37429.85
668.56	37151.32
668.70	37467.30
668.84	37165.37
668.98	36957.06
669.12	37495.38
669.26	37177.07
669.40	37322.18
669.54	37294.10
669.68	37132.60
669.82	36659.81
669.96	36814.29
670.10	36500.65
670.25	36613.00
670.39	36392.99
670.53	36692.58
670.67	36919.61
670.81	36854.08
670.95	36900.89
671.09	36278.30
671.23	36229.15
671.37	36367.24
671.51	35847.64
671.65	36615.34
671.79	35852.33
671.93	36400.01
672.07	36224.47
672.21	35838.28
672.35	35534.01
672.49	35810.20
672.63	35882.75
672.77	35665.08
672.91	35147.82
673.05	35321.02
673.19	35346.77
673.33	35189.95
673.47	35311.66
673.61	35232.08
673.75	35002.71
673.89	34897.39
674.03	34841.21
674.17	34668.02
674.31	34668.02
674.45	34078.20
674.59	34326.30
674.73	34588.44
674.87	34153.10
675.01	34078.20
675.15	34050.11
675.29	33872.23
675.43	33816.06
675.56	34171.82
675.70	33663.93
675.84	33706.05
675.98	32875.16
676.12	33233.27
676.26	33605.41
676.40	33310.50
676.54	33139.65
676.68	33181.77
676.82	32772.18
676.96	33181.77
677.10	33085.81
677.23	32671.54
677.37	32868.14
677.51	32549.83
677.65	32734.73
677.79	32804.95
677.93	32404.72
678.07	32481.95
678.21	32381.31
678.34	32229.18
678.48	31740.00
678.62	31931.93
678.76	32147.26
678.90	31311.69
679.04	31807.88
679.18	31681.49
679.31	31047.21
679.45	31557.44
679.59	30906.77
679.73	30986.35
679.87	30707.83
680.00	30899.75
680.14	31150.19
680.28	31019.12
680.42	30707.83
680.56	30541.65
680.70	30405.90
680.83	30094.61
680.97	30235.04
681.11	29937.79
681.25	29675.65
681.39	30162.48
681.52	30052.48
681.66	29600.76
681.80	29392.45
681.94	29134.99
682.07	29153.71
682.21	29172.44
682.35	29139.67
682.49	28877.53
682.62	29006.26
682.76	28931.36
682.90	28631.77
683.04	29013.28
683.17	28816.68
683.31	28334.53
683.45	28980.51
683.59	27957.70
683.72	28130.90
683.86	27658.11
684.00	27957.70
684.13	28238.56
684.27	27749.39
684.41	27763.43
684.55	27725.99
684.68	27976.42
684.82	27405.33
684.96	27356.18
685.09	27410.01
685.23	27098.72
685.37	27325.75
685.50	27388.95
685.64	26857.65
685.78	26632.96
685.91	26450.39
686.05	26171.87
686.19	26054.84
686.32	26499.55
686.46	25902.71
686.60	25841.85
686.73	26270.17
686.87	26036.12
687.01	25984.63
687.14	25914.41
687.28	25979.95
687.42	25855.90
687.55	25465.03
687.69	25624.18
687.82	25034.37
687.96	25380.77
688.10	25322.26
688.23	25532.90
688.37	25476.73
688.50	25355.02
688.64	25081.18
688.78	25144.38
688.91	24603.71
689.05	24231.57
689.18	24198.80
689.32	23983.47
689.46	24046.66
689.59	23988.15
689.73	24264.33
689.86	24402.43
690.00	24196.46
690.13	23922.62
690.27	23543.45
690.41	23578.56
690.54	23571.54
690.68	23335.14
690.81	23187.69
690.95	23143.22
691.08	22967.68
691.22	22658.73
691.35	22607.23
691.49	23143.22
691.62	23087.04
691.76	22251.47
691.89	22602.55
692.03	22024.44
692.16	22118.06
692.30	22008.06
692.43	22108.70
692.57	21886.35
692.70	22155.51
692.84	22391.91
692.97	21776.34
693.11	21619.53
693.24	21577.40
693.38	21369.09
693.51	21120.99
693.65	21441.65
693.78	21336.32
693.92	20926.73
694.05	21113.97
694.19	20821.41
694.32	20814.38
694.45	20606.08
694.59	20947.79
694.72	20753.53
694.86	20505.43
694.99	20484.37
695.13	20250.32
695.26	19934.34
695.39	19873.49
695.53	19850.08
695.66	20126.27
695.80	20142.65
695.93	19988.18
696.07	19747.10
696.20	19438.15
696.33	18993.45
696.47	19236.86
696.60	18977.06
696.73	19187.71
696.87	18991.11
697.00	19180.69
697.14	19087.07
697.27	18696.20
697.40	18714.92
697.54	18834.29
697.67	18628.32
697.80	18541.72
697.94	18373.21
698.07	18335.76
698.21	18146.17
698.34	18286.61
698.47	17987.02
698.61	17329.33
698.74	17348.05
698.87	17813.82
699.01	17750.62
699.14	17659.34
699.27	17717.86
699.40	17689.77
699.54	17406.56
699.67	17701.47
699.80	17500.19
699.94	17057.82
700.07	17324.65
700.20	16783.98
700.34	16910.37
700.47	16819.09
700.60	17348.05
700.73	16966.54
700.87	16659.93
701.00	16610.78
701.13	16332.26
701.26	16442.26
701.40	16704.40
701.53	16032.67
701.66	16233.96
701.79	16374.39
701.93	15854.79
702.06	15800.96
702.19	15810.32
702.32	15946.07
702.46	15885.22
702.59	15599.67
702.72	15728.40
702.85	15641.80
702.99	15506.05
703.12	15428.81
703.25	15136.24
703.38	15578.61
703.51	15323.49
703.65	14691.54
703.78	14902.19
703.91	14600.26
704.04	14949.00
704.17	14839.00
704.31	14679.84
704.44	14693.88
704.57	14410.68
704.70	14516.00
704.83	14581.54
704.96	14359.19
705.10	14200.03
705.23	14237.48
>>>>>End Processed Spectral Data<<<<<
