SpectraSuite Data File
++++++++++++++++++++++++++++++++++++
Date: Fri Oct 25 10:44:23 EDT 2013
User: price-jones
Dark Spectrum Present: No
Reference Spectrum Present: No
Number of Sampled Component Spectra: 1
Spectrometers: USB2+H05261
Integration Time (usec): 100000 (USB2+H05261)
Spectra Averaged: 1 (USB2+H05261)
Boxcar Smoothing: 0 (USB2+H05261)
Correct for Electrical Dark: No (USB2+H05261)
Strobe/Lamp Enabled: No (USB2+H05261)
Correct for Detector Non-linearity: No (USB2+H05261)
Correct for Stray Light: No (USB2+H05261)
Number of Pixels in Processed Spectrum: 2048
>>>>>Begin Processed Spectral Data<<<<<
365.73	180.22
365.92	180.22
366.12	180.22
366.32	0.00
366.52	21.06
366.72	0.00
366.91	70.22
367.11	0.00
367.31	44.47
367.51	0.00
367.70	4.68
367.90	98.30
368.10	11.70
368.30	70.22
368.49	32.77
368.69	70.22
368.89	58.51
369.09	42.13
369.28	39.79
369.48	72.56
369.68	60.85
369.87	56.17
370.07	105.32
370.27	177.88
370.47	212.99
370.66	404.91
370.86	400.23
371.06	477.47
371.25	428.32
371.45	514.92
371.65	458.74
371.84	479.81
372.04	465.77
372.24	557.05
372.44	554.71
372.63	557.05
372.83	573.43
373.03	503.22
373.22	489.17
373.42	500.87
373.62	510.24
373.81	531.30
374.01	510.24
374.21	568.75
374.40	603.86
374.60	592.16
374.79	545.34
374.99	608.54
375.19	596.84
375.38	557.05
375.58	543.00
375.78	580.45
375.97	606.20
376.17	638.97
376.37	510.24
376.56	566.41
376.76	613.22
376.95	667.05
377.15	587.47
377.35	648.33
377.54	685.78
377.74	610.88
377.93	634.29
378.13	634.29
378.33	667.05
378.52	674.07
378.72	723.23
378.91	732.59
379.11	697.48
379.31	674.07
379.50	662.37
379.70	636.63
379.89	730.25
380.09	674.07
380.28	760.67
380.48	699.82
380.68	716.20
380.87	660.03
381.07	786.42
381.26	758.33
381.46	716.20
381.65	795.78
381.85	681.10
382.04	800.46
382.24	741.95
382.43	671.73
382.63	669.39
382.83	746.63
383.02	751.31
383.22	699.82
383.41	702.16
383.61	744.29
383.80	856.64
384.00	798.12
384.19	856.64
384.39	896.43
384.58	830.89
384.78	842.59
384.97	784.08
385.17	760.67
385.36	858.98
385.56	863.66
385.75	854.30
385.95	912.81
386.14	882.38
386.34	875.36
386.53	840.25
386.72	812.17
386.92	823.87
387.11	833.23
387.31	837.91
387.50	826.21
387.70	854.30
387.89	917.49
388.09	994.73
388.28	873.02
388.48	882.38
388.67	866.00
388.86	936.21
389.06	940.90
389.25	985.37
389.45	1057.92
389.64	952.60
389.84	1018.13
390.03	978.34
390.22	1067.28
390.42	1018.13
390.61	1025.15
390.81	1081.33
391.00	1081.33
391.19	1020.47
391.39	1139.84
391.58	1104.73
391.78	1125.80
391.97	1083.67
392.16	1078.99
392.36	1069.62
392.55	1081.33
392.75	1041.54
392.94	1041.54
393.13	1034.52
393.33	978.34
393.52	1048.56
393.71	1198.35
393.91	1181.97
394.10	1095.37
394.29	1212.40
394.49	1200.69
394.68	1167.93
394.88	1149.20
395.07	1238.14
395.26	1303.68
395.46	1261.55
395.65	1345.81
395.84	1336.45
396.04	1313.04
396.23	1289.64
396.42	1165.59
396.62	1231.12
396.81	1149.20
397.00	1167.93
397.19	1352.83
397.39	1385.60
397.58	1455.81
397.77	1500.28
397.97	1369.21
398.16	1476.88
398.35	1474.54
398.55	1383.26
398.74	1575.18
398.93	1589.22
399.12	1467.52
399.32	1549.43
399.51	1563.48
399.70	1624.33
399.90	1607.95
400.09	1636.03
400.28	1636.03
400.47	1659.44
400.67	1703.91
400.86	1673.48
401.05	1724.97
401.24	1692.21
401.44	1729.66
401.63	1790.51
401.82	1919.24
402.01	1799.87
402.21	1834.98
402.40	1895.83
402.59	1856.04
402.78	1799.87
402.97	1874.77
403.17	1820.94
403.36	1853.70
403.55	1839.66
403.74	1879.45
403.93	1954.35
404.13	1926.26
404.32	1872.43
404.51	1947.33
404.70	2008.18
404.89	1933.28
405.09	2047.97
405.28	2003.50
405.47	1963.71
405.66	1998.82
405.85	2092.44
406.05	2019.88
406.24	2094.78
406.43	2045.63
406.62	2186.06
406.81	2218.83
407.00	2099.46
407.20	2064.35
407.39	2097.12
407.58	2127.55
407.77	2207.13
407.96	2275.00
408.15	2263.30
408.34	2324.15
408.54	2385.01
408.73	2331.17
408.92	2385.01
409.11	2347.56
409.30	2417.77
409.49	2389.69
409.68	2359.26
409.87	2321.81
410.07	2373.30
410.26	2457.56
410.45	2539.48
410.64	2476.29
410.83	2537.14
411.02	2663.53
411.21	2719.70
411.40	2581.61
411.59	2745.45
411.78	2675.23
411.98	2712.68
412.17	2698.64
412.36	2843.75
412.55	2869.50
412.74	2810.98
412.93	2822.69
413.12	2860.13
413.31	3063.76
413.50	2930.35
413.69	2979.50
413.88	2972.48
414.07	3035.67
414.26	2960.78
414.45	2883.54
414.64	3105.89
414.83	3232.28
415.02	3070.78
415.22	3220.58
415.41	3176.11
415.60	3215.90
415.79	3330.58
415.98	3379.73
416.17	3272.07
416.36	3391.44
416.55	3269.73
416.74	3414.84
416.93	3272.07
417.12	3365.69
417.31	3506.12
417.50	3492.08
417.69	3604.42
417.88	3552.93
418.07	3555.27
418.26	3445.27
418.45	3538.89
418.64	3653.58
418.83	3679.32
419.02	3700.39
419.21	3648.90
419.39	3648.90
419.58	3681.66
419.77	3637.19
419.96	3922.74
420.15	3784.65
420.34	3744.86
420.53	3754.22
420.72	4002.32
420.91	3892.31
421.10	3889.97
421.29	3948.48
421.48	3932.10
421.67	4077.21
421.86	4011.68
422.05	3962.53
422.24	3882.95
422.43	3873.59
422.61	4053.81
422.80	3992.95
422.99	3983.59
423.18	4032.74
423.37	4014.02
423.56	4044.45
423.75	4035.08
423.94	4063.17
424.13	3758.90
424.32	3950.82
424.50	4086.58
424.69	4114.66
424.88	4081.89
425.07	3967.21
425.26	3995.29
425.45	4145.09
425.64	4030.40
425.83	4149.77
426.01	4126.36
426.20	4168.49
426.39	4187.22
426.58	4142.75
426.77	4170.83
426.96	4128.70
427.15	4016.36
427.33	4145.09
427.52	4156.79
427.71	4248.07
427.90	4224.67
428.09	4320.63
428.28	4337.01
428.46	4215.30
428.65	4334.67
428.84	4423.61
429.03	4486.81
429.22	4119.34
429.40	4266.80
429.59	4386.16
429.78	4070.19
429.97	4023.38
430.16	4124.02
430.34	4318.29
430.53	4393.19
430.72	4322.97
430.91	4355.74
431.10	4390.84
431.28	4526.60
431.47	4723.20
431.66	4760.65
431.85	4669.37
432.03	4676.39
432.22	4880.02
432.41	4777.03
432.60	4873.00
432.79	4753.63
432.97	4676.39
433.16	4922.15
433.35	4655.33
433.54	4713.84
433.72	4830.87
433.91	4781.71
434.10	4933.85
434.28	4980.66
434.47	4973.64
434.66	5109.39
434.85	5184.29
435.03	5144.50
435.22	4975.98
435.41	5217.05
435.59	5139.82
435.78	5338.76
435.97	5329.40
436.16	5268.55
436.34	5387.91
436.53	5441.75
436.72	5350.46
436.90	5284.93
437.09	5526.00
437.28	5301.31
437.46	5170.24
437.65	5380.89
437.84	5439.40
438.02	5327.06
438.21	5317.70
438.40	5338.76
438.58	5411.32
438.77	5561.11
438.96	5598.56
439.14	5748.36
439.33	5865.38
439.52	5914.53
439.70	5788.14
439.89	5809.21
440.08	6040.92
440.26	5746.02
440.45	5802.19
440.63	5893.47
440.82	6073.69
441.01	6061.99
441.19	6253.91
441.38	6368.60
441.57	6324.13
441.75	6284.34
441.94	6307.74
442.12	6448.18
442.31	6590.95
442.50	6595.63
442.68	6530.09
442.87	6377.96
443.05	6560.52
443.24	6913.94
443.43	6588.61
443.61	6658.82
443.80	6700.95
443.98	6635.42
444.17	6464.56
444.35	6693.93
444.54	6853.09
444.73	6843.73
444.91	6785.21
445.10	6544.14
445.28	6576.91
445.47	6551.16
445.65	6649.46
445.84	6796.92
446.02	6822.66
446.21	6759.47
446.39	6860.11
446.58	6640.10
446.77	6937.35
446.95	6817.98
447.14	7108.21
447.32	7052.03
447.51	6857.77
447.69	6656.48
447.88	6862.45
448.06	6939.69
448.25	6979.48
448.43	7021.61
448.62	7101.19
448.80	7033.31
448.99	7089.48
449.17	6970.12
449.36	7096.50
449.54	7222.89
449.73	7311.83
449.91	7208.85
450.10	7302.47
450.28	7449.93
450.46	7506.10
450.65	7548.23
450.83	7337.58
451.02	7515.46
451.20	7550.57
451.39	7625.47
451.57	7424.18
451.76	7424.18
451.94	7630.15
452.13	7609.08
452.31	7445.24
452.49	7449.93
452.68	7461.63
452.86	7428.86
453.05	7449.93
453.23	7691.00
453.42	7536.52
453.60	7583.34
453.78	7674.62
453.97	7447.58
454.15	7463.97
454.34	7478.01
454.52	7847.82
454.70	7775.26
454.89	7566.95
455.07	7719.09
455.26	7763.56
455.44	7997.61
455.62	7822.07
455.81	7932.08
455.99	8109.96
456.17	8023.36
456.36	8285.50
456.54	8252.73
456.73	8161.45
456.91	8236.35
457.09	8322.94
457.28	8580.40
457.46	8269.11
457.64	8456.36
457.83	8262.09
458.01	8091.23
458.19	8348.69
458.38	8430.61
458.56	8538.27
458.74	8517.21
458.93	8489.12
459.11	8458.70
459.29	8540.61
459.48	8624.87
459.66	8538.27
459.84	8760.63
460.03	8819.14
460.21	8650.62
460.39	8718.50
460.57	8772.33
460.76	8826.16
460.94	8868.29
461.12	8896.38
461.31	8901.06
461.49	8987.66
461.67	8744.24
461.85	9193.62
462.04	9008.72
462.22	9233.41
462.40	9310.65
462.59	9092.98
462.77	9128.09
462.95	9336.40
463.13	9177.24
463.32	9130.43
463.50	9252.14
463.68	9338.74
463.86	9266.18
464.05	9214.69
464.23	8999.36
464.41	9371.50
464.59	9130.43
464.78	9437.04
464.96	9577.47
465.14	9212.35
465.32	9563.43
465.50	9516.62
465.69	9413.63
465.87	9462.79
466.05	9605.56
466.23	9514.28
466.41	9598.54
466.60	9703.86
466.78	9373.85
466.96	9364.48
467.14	9418.32
467.32	9832.59
467.51	9717.90
467.69	9650.03
467.87	9771.74
468.05	9741.31
468.23	9504.92
468.41	9694.50
468.60	9783.44
468.78	9944.94
468.96	9851.31
469.14	10012.81
469.32	9991.75
469.50	9809.19
469.69	9853.66
469.87	10115.80
470.05	10150.90
470.23	10214.10
470.41	10019.83
470.59	10139.20
470.77	10118.14
470.95	10370.91
471.14	10354.53
471.32	10258.57
471.50	10691.57
471.68	10602.63
471.86	10527.73
472.04	10775.83
472.22	10878.81
472.40	10700.93
472.58	10808.59
472.77	10672.84
472.95	10565.18
473.13	11377.34
473.31	10953.71
473.49	10745.40
473.67	10707.95
473.85	11009.88
474.03	11042.65
474.21	11311.81
474.39	11372.66
474.57	11178.40
474.75	11309.47
474.93	11459.26
475.12	11644.17
475.30	11564.59
475.48	11382.03
475.66	11695.66
475.84	11805.66
476.02	11875.88
476.20	11672.25
476.38	11726.08
476.56	12114.61
476.74	12147.38
476.92	12147.38
477.10	12339.30
477.28	12475.06
477.46	12507.82
477.64	12652.94
477.82	12526.55
478.00	12910.40
478.18	12788.69
478.36	12875.29
478.54	13057.85
478.72	13013.38
478.90	13238.07
479.08	13540.00
479.26	13378.50
479.44	13345.73
479.62	13598.51
479.80	13659.37
479.98	13881.72
480.16	14157.90
480.34	14031.51
480.52	14120.45
480.70	14396.64
480.88	14185.99
481.06	14455.15
481.24	14497.28
481.41	14696.22
481.59	14941.98
481.77	14775.80
481.95	15042.62
482.13	14944.32
482.31	14965.39
482.49	15384.34
482.67	15307.10
482.85	15417.11
483.03	15697.97
483.21	15599.67
483.39	16016.29
483.57	15728.40
483.74	15976.50
483.92	15824.36
484.10	16325.24
484.28	16381.41
484.46	16847.18
484.64	16954.84
484.82	16304.17
485.00	16620.14
485.18	16886.97
485.35	16858.88
485.53	16585.04
485.71	16381.41
485.89	16844.84
486.07	16870.58
486.25	17106.98
486.43	17451.03
486.61	17284.86
486.78	17811.48
486.96	17940.21
487.14	18253.84
487.32	18113.41
487.50	18342.78
487.68	18602.58
487.85	18766.42
488.03	18869.40
488.21	18991.11
488.39	19241.54
488.57	19012.17
488.75	19264.95
488.92	19789.23
489.10	19955.41
489.28	20088.82
489.46	20161.37
489.64	19990.52
489.81	20805.02
489.99	20395.43
490.17	20868.22
490.35	21006.31
490.53	20755.87
490.70	20936.09
490.88	21060.14
491.06	21565.70
491.24	21151.42
491.41	21497.82
491.59	21343.35
491.77	21390.16
491.95	21549.31
492.13	22094.66
492.30	22265.52
492.48	22527.66
492.66	22354.46
492.84	22539.36
493.01	22522.98
493.19	22611.92
493.37	23058.96
493.54	23049.60
493.72	23152.58
493.90	23452.17
494.08	23419.40
494.25	23587.92
494.43	23981.13
494.61	24280.72
494.79	24191.78
494.96	24144.97
495.14	24060.71
495.32	24121.56
495.49	24353.27
495.67	24442.21
495.85	24563.92
496.02	24943.09
496.20	24786.27
496.38	25263.74
496.55	25144.38
496.73	25348.00
496.91	25869.94
497.09	25661.63
497.26	25694.40
497.44	25722.49
497.62	25738.87
497.79	26103.99
497.97	25916.75
498.14	25511.84
498.32	26242.09
498.50	26246.77
498.67	26747.64
498.85	26532.31
499.03	26906.80
499.20	27269.58
499.38	27072.98
499.56	27129.15
499.73	27014.46
499.91	27218.09
500.08	27112.77
500.26	26977.01
500.44	27386.61
500.61	27491.93
500.79	27550.45
500.97	27725.99
501.14	28081.75
501.32	27861.74
501.49	27824.29
501.67	27934.29
501.84	28020.89
502.02	28013.87
502.20	28435.17
502.37	28533.47
502.55	28748.80
502.72	28919.66
502.90	28570.92
503.07	28741.78
503.25	28769.86
503.43	28833.06
503.60	28746.46
503.78	28907.96
503.95	28816.68
504.13	29181.80
504.30	29331.59
504.48	28952.43
504.65	29364.36
504.83	29722.46
505.01	29792.68
505.18	30075.88
505.36	30361.43
505.53	30167.16
505.71	30251.42
505.88	30597.82
506.06	30115.67
506.23	30773.36
506.41	30450.37
506.58	30405.90
506.76	30668.04
506.93	30906.77
507.11	30312.28
507.28	30726.55
507.46	30775.70
507.63	30998.06
507.81	30951.24
507.98	30993.37
508.16	31330.41
508.33	31419.35
508.50	31452.12
508.68	31613.62
508.85	31821.92
509.03	31922.57
509.20	31824.26
509.38	31782.13
509.55	32009.17
509.73	32259.60
509.90	32283.01
510.08	31852.35
510.25	32119.17
510.42	32376.63
510.60	32404.72
510.77	32280.67
510.95	33055.39
511.12	32854.10
511.30	32830.69
511.47	33184.12
511.64	33001.55
511.82	33350.29
511.99	32910.27
512.17	33371.36
512.34	32788.56
512.51	33275.40
512.69	33483.70
512.86	33755.21
513.04	33841.81
513.21	33699.03
513.38	33486.04
513.56	33736.48
513.73	33488.38
513.90	33692.01
514.08	33504.77
514.25	34015.01
514.43	34134.37
514.60	33893.30
514.77	33895.64
514.95	34490.13
515.12	34527.58
515.29	34485.45
515.47	34843.56
515.64	35009.73
515.81	34382.47
515.99	34508.86
516.16	34497.16
516.33	34256.08
516.51	34628.23
516.68	33537.54
516.85	33905.00
517.03	34270.12
517.20	34370.77
517.37	34822.49
517.54	35386.56
517.72	34789.72
517.89	35023.78
518.06	34604.82
518.24	34448.00
518.41	35208.68
518.58	35426.35
518.75	35459.12
518.93	35924.88
519.10	35346.77
519.27	35793.81
519.45	35721.26
519.62	36058.29
519.79	36552.15
519.96	36037.23
520.14	36252.56
520.31	36128.51
520.48	36407.03
520.65	36170.64
520.83	36835.35
521.00	36723.01
521.17	36608.32
521.34	36861.10
521.52	37043.66
521.69	37207.50
521.86	36879.82
522.03	37429.85
522.20	37062.38
522.38	37116.22
522.55	36851.73
522.72	37200.47
522.89	37385.38
523.07	37521.13
523.24	37647.52
523.41	38026.68
523.58	37642.84
523.75	38225.63
523.92	38300.53
524.10	38162.43
524.27	38319.25
524.44	38515.86
524.61	38216.27
524.78	38202.22
524.96	38433.94
525.13	38532.24
525.30	38286.48
525.47	39122.05
525.64	38639.90
525.81	38735.87
525.98	38272.44
526.16	38473.73
526.33	37935.40
526.50	38054.77
526.67	37853.48
526.84	38337.98
527.01	38567.35
527.18	38457.34
527.36	38925.45
527.53	38871.62
527.70	39049.50
527.87	39470.79
528.04	39360.79
528.21	39395.90
528.38	39590.16
528.55	39756.34
528.72	39702.51
528.89	39847.62
529.07	39484.84
529.24	39674.42
529.41	39871.03
529.58	39704.85
529.75	39770.38
529.92	39789.11
530.09	40201.04
530.26	40271.26
530.43	40100.40
530.60	40205.72
530.77	39878.05
530.94	40245.51
531.11	40730.00
531.28	40533.40
531.46	40762.77
531.63	40442.12
531.80	40402.33
531.97	40224.45
532.14	40229.13
532.31	39672.08
532.48	40435.10
532.65	40517.01
532.82	40472.54
532.99	40737.02
533.16	40467.86
533.33	40690.21
533.50	41022.57
533.67	40734.68
533.84	40755.75
534.01	40804.90
534.18	40891.50
534.35	41324.50
534.52	40828.30
534.69	41441.53
534.86	41432.16
535.03	41132.57
535.20	41663.88
535.37	41603.02
535.54	41848.78
535.71	41708.35
535.88	41523.44
536.05	41411.10
536.22	41769.20
536.38	41748.14
536.55	41163.00
536.72	41373.65
536.89	41684.94
537.06	42117.94
537.23	42000.91
537.40	41523.44
537.57	42298.16
537.74	41954.10
537.91	42316.89
538.08	41823.03
538.25	41748.14
538.42	42492.43
538.59	42323.91
538.75	41876.86
538.92	41970.49
539.09	42263.05
539.26	42302.84
539.43	42447.96
539.60	42241.99
539.77	42169.43
539.94	42459.66
540.11	42307.52
540.28	42504.13
540.44	42335.61
540.61	42366.04
540.78	42150.71
540.95	42319.23
541.12	42424.55
541.29	42555.62
541.46	42281.78
541.62	42777.97
541.79	43260.12
541.96	42527.53
542.13	42803.72
542.30	42841.17
542.47	42817.76
542.63	42759.25
542.80	43070.54
542.97	43519.92
543.14	43594.82
543.31	43250.76
543.48	43749.29
543.64	43964.62
543.81	43779.72
543.98	43564.39
544.15	43470.77
544.32	43915.47
544.48	43716.53
544.65	43655.67
544.82	43913.13
544.99	43122.03
545.16	43704.82
545.32	43676.74
545.49	44425.71
545.66	44196.34
545.83	44182.29
546.00	43999.73
546.16	44161.23
546.33	43934.20
546.50	43810.15
546.67	43992.71
546.83	43838.23
547.00	43789.08
547.17	44175.27
547.34	44133.14
547.50	44390.60
547.67	44215.06
547.84	44446.77
548.00	44547.42
548.17	44390.60
548.34	44619.97
548.51	44912.54
548.67	44215.06
548.84	44624.65
549.01	44371.88
549.18	44573.16
549.34	44706.57
549.51	44638.70
549.68	44783.81
549.84	44500.61
550.01	44818.92
550.18	44383.58
550.34	44385.92
550.51	45003.82
550.68	44849.35
550.84	44975.73
551.01	44919.56
551.18	45062.33
551.34	44772.11
551.51	45177.02
551.68	44905.52
551.84	45305.75
552.01	44858.71
552.18	45228.51
552.34	44416.35
552.51	44751.04
552.68	45104.46
552.84	45670.87
553.01	45453.20
553.18	45071.70
553.34	45022.54
553.51	45174.68
553.67	45249.58
553.84	45654.49
554.01	45010.84
554.17	45584.27
554.34	45937.69
554.51	45268.30
554.67	45698.96
554.84	45441.50
555.00	45844.07
555.17	45621.72
555.33	45387.67
555.50	45511.72
555.67	45933.01
555.83	45050.63
556.00	45525.76
556.16	46054.72
556.33	45698.96
556.50	45390.01
556.66	45909.61
556.83	45490.65
556.99	45925.99
557.16	46239.62
557.32	45853.44
557.49	46305.16
557.65	45865.14
557.82	46012.59
557.98	45956.42
558.15	45869.82
558.32	46026.63
558.48	45570.23
558.65	46260.69
558.81	45558.53
558.98	45909.61
559.14	45450.86
559.31	46073.45
559.47	46206.86
559.64	46054.72
559.80	46195.15
559.97	46087.49
560.13	46129.62
560.30	45869.82
560.46	45846.41
560.63	46199.83
560.79	46288.77
560.96	46508.79
561.12	46450.27
561.29	46045.36
561.45	46129.62
561.61	46061.74
561.78	46342.61
561.94	45696.62
562.11	46246.65
562.27	46349.63
562.44	46164.73
562.60	46295.80
562.77	46644.54
562.93	46256.01
563.10	46696.03
563.26	45977.48
563.42	46356.65
563.59	46124.94
563.75	46513.47
563.92	46429.21
564.08	46265.37
564.24	46735.82
564.41	46696.03
564.57	46234.94
564.74	46476.02
564.90	46185.79
565.07	46382.40
565.23	46831.78
565.39	46052.38
565.56	46696.03
565.72	46412.82
565.88	46340.27
566.05	46064.08
566.21	46665.60
566.38	46405.80
566.54	46433.89
566.70	46707.73
566.87	47269.46
567.03	46724.11
567.19	47122.01
567.36	46827.10
567.52	46597.73
567.68	46609.43
567.85	46719.43
568.01	46429.21
568.17	46473.68
568.34	46251.33
568.50	46457.29
568.66	47002.64
568.83	46419.84
568.99	46146.00
569.15	46265.37
569.32	46667.94
569.48	46529.85
569.64	46408.14
569.81	46937.10
569.97	46794.33
570.13	46660.92
570.30	46492.40
570.46	46227.92
570.62	46831.78
570.78	46136.64
570.95	46534.53
571.11	46473.68
571.27	46487.72
571.43	46529.85
571.60	46333.24
571.76	46562.62
571.92	46988.60
572.09	46581.34
572.25	46801.35
572.41	46492.40
572.57	46967.53
572.74	47304.57
572.90	46843.48
573.06	47285.84
573.22	47014.34
573.38	46628.15
573.55	46749.86
573.71	47302.23
573.87	46979.23
574.03	46527.51
574.20	46838.80
574.36	47019.02
574.52	46883.27
574.68	46691.35
574.84	46782.63
575.01	46672.62
575.17	46705.39
575.33	46721.77
575.49	46731.14
575.65	46773.27
575.82	46817.74
575.98	46586.02
576.14	46454.95
576.30	47009.66
576.46	46806.03
576.62	46431.55
576.79	46806.03
576.95	46658.58
577.11	46770.93
577.27	47070.51
577.43	47002.64
577.59	46852.84
577.75	46492.40
577.92	46054.72
578.08	46590.70
578.24	46457.29
578.40	46775.61
578.56	47072.85
578.72	47030.72
578.88	46780.29
579.04	46869.23
579.21	47077.54
579.37	46864.55
579.53	46834.12
579.69	46485.38
579.85	47040.09
580.01	47232.01
580.17	47030.72
580.33	47227.33
580.49	46824.76
580.65	47138.39
580.82	47072.85
580.98	46635.17
581.14	47077.54
581.30	47054.13
581.46	47110.30
581.62	47004.98
581.78	46897.31
581.94	47241.37
582.10	46766.24
582.26	47049.45
582.42	46927.74
582.58	47112.64
582.74	46822.42
582.90	47468.40
583.06	47332.65
583.22	47334.99
583.38	47175.84
583.54	47033.07
583.70	47068.17
583.86	46986.25
584.02	46696.03
584.18	46902.00
584.34	47028.38
584.50	46766.24
584.66	46693.69
584.82	46469.00
584.98	47423.93
585.14	47124.35
585.30	46852.84
585.46	46707.73
585.62	46892.63
585.78	46600.07
585.94	46567.30
586.10	46920.72
586.26	47014.34
586.42	47178.18
586.58	47239.03
586.74	46878.59
586.90	46646.88
587.06	47145.41
587.22	47126.69
587.38	46515.81
587.54	47014.34
587.70	47000.30
587.86	47217.97
588.02	47103.28
588.18	47281.16
588.34	46974.55
588.49	46349.63
588.65	45895.56
588.81	46263.03
588.97	46216.22
589.13	46183.45
589.29	46326.22
589.45	46946.47
589.61	46459.63
589.77	47255.42
589.93	46845.82
590.08	46934.76
590.24	47178.18
590.40	47264.78
590.56	47618.20
590.72	46887.95
590.88	46749.86
591.04	46967.53
591.20	47407.55
591.35	47002.64
591.51	47590.11
591.67	47416.91
591.83	47414.57
591.99	46902.00
592.15	46927.74
592.31	47159.45
592.46	47047.11
592.62	46822.42
592.78	47580.75
592.94	47393.51
593.10	47550.32
593.26	47004.98
593.41	47210.95
593.57	46885.61
593.73	46976.89
593.89	47035.41
594.05	47196.90
594.20	46782.63
594.36	47529.26
594.52	46899.65
594.68	46686.67
594.84	46710.07
594.99	47426.28
595.15	47222.65
595.31	47253.08
595.47	47019.02
595.62	47007.32
595.78	47138.39
595.94	47026.04
596.10	47117.32
596.25	47555.00
596.41	47395.85
596.57	47114.98
596.73	47412.23
596.88	46890.29
597.04	46714.75
597.20	47199.24
597.36	47143.07
597.51	47512.88
597.67	47559.69
597.83	47318.61
597.99	47110.30
598.14	47227.33
598.30	46995.62
598.46	46967.53
598.61	46653.90
598.77	46749.86
598.93	46689.01
599.09	47070.51
599.24	47564.37
599.40	47629.90
599.56	47168.82
599.71	47449.68
599.87	47391.17
600.03	47248.39
600.18	47402.87
600.34	47381.80
600.50	47119.66
600.65	47070.51
600.81	47356.06
600.97	47400.53
601.12	47124.35
601.28	47044.77
601.44	47129.03
601.59	46768.58
601.75	46876.25
601.91	46983.91
602.06	46679.64
602.22	47079.88
602.37	46866.89
602.53	47084.56
602.69	47182.86
602.84	47026.04
603.00	47112.64
603.16	47007.32
603.31	46829.44
603.47	46918.38
603.62	47154.77
603.78	47105.62
603.94	46817.74
604.09	47150.09
604.25	47065.83
604.40	47304.57
604.56	46693.69
604.71	47072.85
604.87	46930.08
605.03	47070.51
605.18	46735.82
605.34	46965.19
605.49	46958.17
605.65	46953.49
605.80	46782.63
605.96	47360.74
606.12	46920.72
606.27	47423.93
606.43	47089.24
606.58	46834.12
606.74	46768.58
606.89	47264.78
607.05	47000.30
607.20	46962.85
607.36	46579.00
607.51	46780.29
607.67	47044.77
607.82	46759.22
607.98	46646.88
608.13	46635.17
608.29	46604.75
608.44	46398.78
608.60	46735.82
608.75	46644.54
608.91	46452.61
609.06	46335.59
609.22	46504.10
609.37	46492.40
609.53	46590.70
609.68	46780.29
609.84	46611.77
609.99	46782.63
610.15	46452.61
610.30	46148.34
610.46	46316.86
610.61	46148.34
610.76	46541.55
610.92	46103.87
611.07	46274.73
611.23	46492.40
611.38	46473.68
611.54	45993.87
611.69	46251.33
611.84	46138.98
612.00	46153.02
612.15	46122.60
612.31	46401.12
612.46	46251.33
612.62	46155.36
612.77	46476.02
612.92	46494.74
613.08	45815.99
613.23	46218.56
613.39	46291.12
613.54	45750.45
613.69	46216.22
613.85	46000.89
614.00	46277.07
614.15	46092.17
614.31	45968.12
614.46	46066.42
614.62	46176.43
614.77	46248.99
614.92	45947.06
615.08	46115.58
615.23	45385.33
615.38	45570.23
615.54	45350.22
615.69	45925.99
615.84	45530.44
616.00	45858.12
616.15	45909.61
616.30	45722.37
616.46	45514.06
616.61	45148.93
616.76	45603.00
616.92	45198.09
617.07	45237.87
617.22	45563.21
617.37	45095.10
617.53	45298.73
617.68	45390.01
617.83	45518.74
617.99	45413.41
618.14	45338.52
618.29	45860.46
618.45	45546.82
618.60	45287.03
618.75	45565.55
618.90	45162.98
619.06	45600.66
619.21	44928.92
619.36	45439.16
619.51	45394.69
619.67	44669.12
619.82	45371.28
619.97	44898.50
620.12	44886.79
620.28	44942.97
620.43	44584.86
620.58	44818.92
620.73	45144.25
620.89	44825.94
621.04	44872.75
621.19	44917.22
621.34	44825.94
621.49	44641.04
621.65	44910.20
621.80	44484.22
621.95	44535.71
622.10	45120.85
622.25	44247.83
622.41	44385.92
622.56	44397.62
622.71	44414.01
622.86	44130.80
623.01	44713.59
623.16	44851.69
623.32	44397.62
623.47	44795.51
623.62	44287.62
623.77	44294.64
623.92	44289.96
624.07	44149.53
624.23	44194.00
624.38	44062.93
624.53	43929.51
624.68	44428.05
624.83	44055.90
624.98	44023.14
625.13	43856.96
625.29	44383.58
625.44	43751.63
625.59	43835.89
625.74	43494.18
625.89	43660.35
626.04	43957.60
626.19	43753.97
626.34	43896.75
626.49	43723.55
626.65	44168.25
626.80	44048.88
626.95	43445.02
627.10	43608.86
627.25	43704.82
627.40	43274.16
627.55	42775.63
627.70	42759.25
627.85	43126.71
628.00	43143.09
628.15	43487.15
628.30	43154.80
628.45	43540.99
628.60	43133.73
628.76	43508.22
628.91	43533.96
629.06	43189.91
629.21	42700.73
629.36	43239.06
629.51	42824.78
629.66	43196.93
629.81	42885.64
629.96	42923.08
630.11	42564.98
630.26	43276.51
630.41	43559.71
630.56	43405.23
630.71	43019.05
630.86	42866.91
631.01	42775.63
631.16	42941.81
631.31	42876.27
631.46	42492.43
631.61	42754.57
631.76	42717.12
631.91	42862.23
632.06	42866.91
632.21	42677.33
632.36	43096.28
632.51	42714.78
632.66	42391.78
632.81	42256.03
632.96	42218.58
633.10	42349.65
633.25	42305.18
633.40	42742.86
633.55	42525.19
633.70	42239.65
633.85	42169.43
634.00	42380.08
634.15	42288.80
634.30	42295.82
634.45	42335.61
634.60	42253.69
634.75	42234.97
634.90	42188.16
635.05	42302.84
635.19	42160.07
635.34	42131.98
635.49	41989.21
635.64	41830.05
635.79	41942.40
635.94	41998.57
636.09	41617.07
636.24	42000.91
636.39	41722.39
636.53	41874.52
636.68	41787.92
636.83	41890.91
636.98	42061.77
637.13	41326.84
637.28	41867.50
637.43	41991.55
637.57	42295.82
637.72	41790.27
637.87	41303.43
638.02	41970.49
638.17	41965.81
638.32	41886.23
638.46	41275.35
638.61	41375.99
638.76	41944.74
638.91	41502.38
639.06	41467.27
639.20	41663.88
639.35	42260.71
639.50	41256.62
639.65	41886.23
639.80	41783.24
639.94	41551.53
640.09	41261.30
640.24	41268.33
640.39	40982.78
640.54	40879.80
640.68	40877.46
640.83	41240.24
640.98	40907.88
641.13	40825.96
641.27	41474.29
641.42	41064.70
641.57	40863.41
641.72	41261.30
641.86	40732.34
642.01	40477.22
642.16	40821.28
642.31	40444.46
642.45	41249.60
642.60	40542.76
642.75	40699.58
642.90	40697.24
643.04	40596.59
643.19	40388.28
643.34	40517.01
643.48	40687.87
643.63	40739.36
643.78	40404.67
643.93	39927.20
644.07	40449.14
644.22	40311.05
644.37	40201.04
644.51	40418.71
644.66	40568.51
644.81	40676.17
644.95	40797.88
645.10	40655.11
645.25	40767.45
645.39	39754.00
645.54	40502.97
645.69	40002.10
645.83	39943.58
645.98	39988.05
646.13	40514.67
646.27	40179.98
646.42	40006.78
646.57	40313.39
646.71	39849.96
646.86	40315.73
647.00	40020.82
647.15	40299.34
647.30	39959.97
647.44	40030.18
647.59	40107.42
647.74	39929.54
647.88	39583.14
648.03	40058.27
648.17	40025.50
648.32	39756.34
648.47	40060.61
648.61	39810.17
648.76	39697.83
648.90	39618.25
649.05	39952.94
649.20	39873.37
649.34	39482.50
649.49	39051.84
649.63	39243.76
649.78	38969.92
649.92	39585.48
650.07	39835.92
650.21	39091.63
650.36	39456.75
650.51	39157.16
650.65	39908.47
650.80	39746.98
650.94	39522.29
651.09	39702.51
651.23	39227.38
651.38	39494.20
651.52	39070.56
651.67	38831.83
651.81	39072.90
651.96	39335.04
652.10	39061.20
652.25	38770.97
652.39	39159.50
652.54	39189.93
652.68	39072.90
652.83	38969.92
652.97	39393.56
653.12	39054.18
653.26	38553.30
653.41	38738.21
653.55	38733.53
653.70	38789.70
653.84	38885.66
653.99	38869.28
654.13	38471.39
654.27	38675.01
654.42	38763.95
654.56	38536.92
654.71	38597.77
654.85	38518.20
655.00	38735.87
655.14	38707.78
655.29	38281.80
655.43	38534.58
655.57	38120.31
655.72	37694.33
655.86	37986.89
656.01	37773.91
656.15	38005.62
656.30	37827.74
656.44	37661.56
656.58	37801.99
656.73	37876.89
656.87	38092.22
657.01	38117.96
657.16	38127.33
657.30	38061.79
657.45	37591.34
657.59	38220.95
657.73	37944.76
657.88	38089.88
658.02	38129.67
658.16	38349.68
658.31	38459.68
658.45	37579.64
658.60	38029.02
658.74	37130.26
658.88	37488.36
659.03	37937.74
659.17	37420.48
659.31	37544.53
659.46	37378.36
659.60	38157.75
659.74	37240.26
659.89	37167.71
660.03	37329.20
660.17	37364.31
660.32	37144.30
660.46	37481.34
660.60	37188.77
660.74	37031.96
660.89	37436.87
661.03	36797.90
661.17	36767.48
661.32	36804.92
661.46	36708.96
661.60	37006.21
661.74	36811.95
661.89	36779.18
662.03	36905.57
662.17	36336.82
662.31	36641.09
662.46	36847.05
662.60	36671.51
662.74	36444.48
662.88	36753.43
663.03	36070.00
663.17	36397.67
663.31	35875.73
663.45	36453.84
663.60	36210.43
663.74	35948.29
663.88	35943.61
664.02	36119.15
664.17	35728.28
664.31	35697.85
664.45	35789.13
664.59	35756.36
664.73	35660.40
664.88	35777.43
665.02	35704.87
665.16	35634.66
665.30	35782.11
665.44	35538.69
665.59	35735.30
665.73	35526.99
665.87	35325.71
666.01	35330.39
666.15	35126.76
666.29	35257.83
666.44	35356.13
666.58	34998.03
666.72	34862.28
666.86	35438.05
667.00	34897.39
667.14	34646.95
667.28	34550.99
667.43	34686.74
667.57	34969.94
667.71	34462.05
667.85	34881.00
667.99	34377.79
668.13	34546.31
668.27	34859.94
668.41	34937.18
668.56	34101.61
668.70	34693.76
668.84	34213.95
668.98	33897.98
669.12	33933.09
669.26	34143.74
669.40	33640.52
669.54	33570.30
669.68	34092.24
669.82	33912.02
669.96	33551.58
670.10	33415.83
670.25	33827.76
670.39	33996.28
670.53	33596.05
670.67	33432.21
670.81	33677.97
670.95	33633.50
671.09	33247.31
671.23	33273.06
671.37	33544.56
671.51	33357.32
671.65	33102.20
671.79	32701.96
671.93	32725.37
672.07	32868.14
672.21	33039.00
672.35	32720.69
672.49	32549.83
672.63	32797.93
672.77	32393.01
672.91	32671.54
673.05	32706.65
673.19	32107.47
673.33	32465.57
673.47	32137.90
673.61	31906.18
673.75	31983.42
673.89	32084.06
674.03	31894.48
674.17	31777.45
674.31	31618.30
674.45	31711.92
674.59	31693.19
674.73	31604.25
674.87	31573.83
675.01	31299.98
675.15	31681.49
675.29	31400.63
675.43	31159.55
675.56	31084.65
675.70	31461.48
675.84	31159.55
675.98	30136.74
676.12	30960.61
676.26	30937.20
676.40	30712.51
676.54	30850.60
676.68	30876.35
676.82	30384.83
676.96	30253.76
677.10	30380.15
677.23	30412.92
677.37	30436.33
677.51	29993.97
677.65	29912.05
677.79	29619.48
677.93	30066.52
678.07	29376.06
678.21	29376.06
678.34	29329.25
678.48	29233.29
678.62	29223.93
678.76	29067.11
678.90	28570.92
679.04	28865.83
679.18	28835.40
679.31	28493.68
679.45	28582.62
679.59	28060.68
679.73	28496.02
679.87	28568.58
680.00	28322.82
680.14	28432.83
680.28	28135.58
680.42	28259.63
680.56	28388.36
680.70	28290.06
680.83	27988.13
680.97	28313.46
681.11	27896.85
681.25	27564.49
681.39	27398.31
681.52	27768.12
681.66	27477.89
681.80	27391.29
681.94	27452.14
682.07	27431.08
682.21	27267.24
682.35	27101.06
682.49	27019.14
682.62	26892.76
682.76	26869.35
682.90	27089.36
683.04	26508.91
683.17	26544.02
683.31	26036.12
683.45	26387.20
683.59	26211.66
683.72	26125.06
683.86	26171.87
684.00	25589.08
684.13	26307.62
684.27	25853.56
684.41	25612.48
684.55	25373.75
684.68	25771.64
684.82	25364.39
684.96	25273.10
685.09	25450.99
685.23	25441.62
685.37	25275.45
685.50	24975.86
685.64	25167.78
685.78	24170.71
685.91	24311.14
686.05	24629.46
686.19	24496.05
686.32	24332.21
686.46	23718.99
686.60	23936.66
686.73	23798.57
686.87	24020.92
687.01	23529.41
687.14	23482.59
687.28	23379.61
687.42	23470.89
687.55	23288.33
687.69	23686.22
687.82	23351.52
687.96	23463.87
688.10	23744.73
688.23	23215.77
688.37	22995.76
688.50	22878.74
688.64	22518.29
688.78	22923.21
688.91	22466.80
689.05	23136.20
689.18	22684.47
689.32	22195.30
689.46	22520.63
689.59	22452.76
689.73	22544.04
689.86	22059.55
690.00	22075.93
690.13	22036.14
690.27	22183.60
690.41	22080.61
690.54	21865.28
690.68	21535.27
690.81	21570.38
690.95	21462.71
691.08	21490.80
691.22	21493.14
691.35	21621.87
691.49	21598.46
691.62	21451.01
691.76	21048.44
691.89	20936.09
692.03	20856.51
692.16	20828.43
692.30	20730.12
692.43	20680.97
692.57	20229.25
692.70	20257.34
692.84	20360.32
692.97	20357.98
693.11	20039.67
693.24	20107.54
693.38	19857.10
693.51	19847.74
693.65	20262.02
693.78	20238.61
693.92	20027.96
694.05	19534.11
694.19	19946.05
694.32	19599.65
694.45	19264.95
694.59	19218.14
694.72	19241.54
694.86	18853.02
694.99	18963.02
695.13	19220.48
695.26	18892.80
695.39	19005.15
695.53	18953.66
695.66	18672.79
695.80	18984.09
695.93	18682.16
696.07	18403.63
696.20	18649.39
696.33	18525.34
696.47	17994.04
696.60	18253.84
696.73	18253.84
696.87	17951.91
697.00	18127.45
697.14	18256.18
697.27	18075.96
697.40	17905.10
697.54	17710.83
697.67	17568.06
697.80	17657.00
697.94	17418.27
698.07	17350.39
698.21	17170.17
698.34	17296.56
698.47	17034.42
698.61	16858.88
698.74	17046.12
698.87	16695.04
699.01	16641.21
699.14	16641.21
699.27	16631.85
699.40	16695.04
699.54	16685.68
699.67	16423.54
699.80	16489.07
699.94	16638.87
700.07	16114.59
700.20	16079.48
700.34	16128.63
700.47	16100.55
700.60	16255.02
700.73	16386.09
700.87	16018.63
701.00	15932.03
701.13	16025.65
701.26	15541.16
701.40	15307.10
701.53	15410.09
701.66	15740.10
701.79	15393.70
701.93	15307.10
702.06	15339.87
702.19	15019.22
702.32	15147.95
702.46	15035.60
702.59	15047.30
702.72	14698.56
702.85	14647.07
702.99	15101.14
703.12	14721.97
703.25	14483.24
703.38	14733.67
703.51	14719.63
703.65	14544.09
703.78	14761.76
703.91	14534.73
704.04	14375.57
704.17	14270.25
704.31	14441.11
704.44	14265.57
704.57	14050.24
704.70	13956.61
704.83	13994.06
704.96	13968.32
705.10	13975.34
705.23	13963.64
>>>>>End Processed Spectral Data<<<<<
