SpectraSuite Data File
++++++++++++++++++++++++++++++++++++
Date: Fri Oct 25 11:33:21 EDT 2013
User: price-jones
Dark Spectrum Present: No
Reference Spectrum Present: No
Number of Sampled Component Spectra: 1
Spectrometers: USB2+H05261
Integration Time (usec): 100000 (USB2+H05261)
Spectra Averaged: 1 (USB2+H05261)
Boxcar Smoothing: 0 (USB2+H05261)
Correct for Electrical Dark: No (USB2+H05261)
Strobe/Lamp Enabled: No (USB2+H05261)
Correct for Detector Non-linearity: No (USB2+H05261)
Correct for Stray Light: No (USB2+H05261)
Number of Pixels in Processed Spectrum: 2048
>>>>>Begin Processed Spectral Data<<<<<
365.73	259.80
365.92	259.80
366.12	259.80
366.32	243.42
366.52	138.09
366.72	241.08
366.91	149.79
367.11	98.30
367.31	182.56
367.51	220.01
367.70	159.16
367.90	301.93
368.10	163.84
368.30	140.43
368.49	210.65
368.69	189.58
368.89	152.13
369.09	212.99
369.28	187.24
369.48	170.86
369.68	201.29
369.87	217.67
370.07	318.31
370.27	306.61
370.47	301.93
370.66	465.77
370.86	580.45
371.06	550.03
371.25	507.90
371.45	521.94
371.65	564.07
371.84	585.13
372.04	535.98
372.24	575.77
372.44	582.79
372.63	592.16
372.83	578.11
373.03	622.58
373.22	645.99
373.42	617.90
373.62	629.60
373.81	552.37
374.01	702.16
374.21	599.18
374.40	603.86
374.60	716.20
374.79	681.10
374.99	561.73
375.19	592.16
375.38	688.12
375.58	716.20
375.78	671.73
375.97	617.90
376.17	709.18
376.37	606.20
376.56	653.01
376.76	585.13
376.95	645.99
377.15	699.82
377.35	751.31
377.54	697.48
377.74	664.71
377.93	643.65
378.13	657.69
378.33	739.61
378.52	788.76
378.72	709.18
378.91	744.29
379.11	772.38
379.31	601.52
379.50	648.33
379.70	727.91
379.89	723.23
380.09	660.03
380.28	702.16
380.48	718.54
380.68	669.39
380.87	739.61
381.07	786.42
381.26	739.61
381.46	826.21
381.65	746.63
381.85	779.40
382.04	763.01
382.24	770.04
382.43	690.46
382.63	779.40
382.83	767.70
383.02	800.46
383.22	833.23
383.41	697.48
383.61	788.76
383.80	809.83
384.00	866.00
384.19	819.19
384.39	912.81
384.58	830.89
384.78	856.64
384.97	793.44
385.17	765.36
385.36	784.08
385.56	807.48
385.75	884.72
385.95	847.27
386.14	854.30
386.34	809.83
386.53	873.02
386.72	915.15
386.92	929.19
387.11	875.36
387.31	894.08
387.50	816.85
387.70	851.96
387.89	898.77
388.09	978.34
388.28	933.87
388.48	868.34
388.67	933.87
388.86	851.96
389.06	861.32
389.25	983.02
389.45	903.45
389.64	931.53
389.84	1043.88
390.03	1008.77
390.22	1015.79
390.42	999.41
390.61	1034.52
390.81	950.26
391.00	931.53
391.19	990.05
391.39	938.55
391.58	997.07
391.78	983.02
391.97	1057.92
392.16	1086.01
392.36	1034.52
392.55	1043.88
392.75	1067.28
392.94	1128.14
393.13	1046.22
393.33	1043.88
393.52	992.39
393.71	1029.84
393.91	1090.69
394.10	1123.46
394.29	1088.35
394.49	1116.44
394.68	1196.01
394.88	1207.72
395.07	1090.69
395.26	1146.86
395.46	1132.82
395.65	1214.74
395.84	1212.40
396.04	1270.91
396.23	1217.08
396.42	1210.06
396.62	1205.38
396.81	1254.53
397.00	1207.72
397.19	1282.61
397.39	1191.33
397.58	1224.10
397.77	1231.12
397.97	1203.04
398.16	1294.32
398.35	1240.48
398.55	1240.48
398.74	1263.89
398.93	1252.19
399.12	1331.76
399.32	1313.04
399.51	1270.91
399.70	1343.47
399.90	1334.11
400.09	1380.92
400.28	1434.75
400.47	1378.58
400.67	1434.75
400.86	1406.66
401.05	1427.73
401.24	1401.98
401.44	1411.34
401.63	1446.45
401.82	1528.37
402.01	1507.30
402.21	1369.21
402.40	1430.07
402.59	1528.37
402.78	1523.69
402.97	1511.99
403.17	1596.25
403.36	1530.71
403.55	1673.48
403.74	1596.25
403.93	1600.93
404.13	1668.80
404.32	1600.93
404.51	1624.33
404.70	1528.37
404.89	1661.78
405.09	1710.93
405.28	1729.66
405.47	1647.74
405.66	1739.02
405.85	1788.17
406.05	1720.29
406.24	1633.69
406.43	1666.46
406.62	1806.89
406.81	1933.28
407.00	1863.07
407.20	1696.89
407.39	1713.27
407.58	1909.88
407.77	1909.88
407.96	1863.07
408.15	1762.42
408.34	1860.73
408.54	1947.33
408.73	1963.71
408.92	2036.27
409.11	1935.62
409.30	2026.90
409.49	1975.41
409.68	2001.16
409.87	1982.43
410.07	2059.67
410.26	2080.74
410.45	2099.46
410.64	2181.38
410.83	2160.31
411.02	2176.70
411.21	2050.31
411.40	2197.76
411.59	2183.72
411.78	2239.89
411.98	2169.68
412.17	2275.00
412.36	2303.09
412.55	2272.66
412.74	2431.82
412.93	2293.72
413.12	2380.32
413.31	2534.80
413.50	2373.30
413.69	2363.94
413.88	2518.42
414.07	2509.05
414.26	2427.14
414.45	2544.16
414.64	2623.74
414.83	2539.48
415.02	2614.38
415.22	2658.85
415.41	2647.15
415.60	2651.83
415.79	2696.30
415.98	2703.32
416.17	2738.43
416.36	2654.17
416.55	2726.72
416.74	2827.37
416.93	2825.03
417.12	2780.56
417.31	2825.03
417.50	2888.22
417.69	2853.11
417.88	2897.58
418.07	3000.57
418.26	2895.24
418.45	3016.95
418.64	3089.51
418.83	2944.39
419.02	3133.98
419.21	3192.49
419.39	3005.25
419.58	3155.04
419.77	3026.31
419.96	3164.40
420.15	3176.11
420.34	3047.38
420.53	3208.87
420.72	3155.04
420.91	3190.15
421.10	3403.14
421.29	3344.63
421.48	3166.74
421.67	3358.67
421.86	3215.90
422.05	3304.84
422.24	3318.88
422.43	3368.03
422.61	3391.44
422.80	3379.73
422.99	3353.99
423.18	3438.25
423.37	3684.00
423.56	3351.65
423.75	3365.69
423.94	3318.88
424.13	3148.02
424.32	3213.56
424.50	3456.97
424.69	3590.38
424.88	3382.07
425.07	3386.76
425.26	3611.45
425.45	3489.74
425.64	3468.67
425.83	3391.44
426.01	3524.85
426.20	3475.70
426.39	3510.80
426.58	3339.94
426.77	3520.17
426.96	3562.30
427.15	3534.21
427.33	3466.33
427.52	3669.96
427.71	3625.49
427.90	3758.90
428.09	3665.28
428.28	3906.35
428.46	3768.26
428.65	3735.50
428.84	3730.81
429.03	3833.80
429.22	3660.60
429.40	3730.81
429.59	3723.79
429.78	3625.49
429.97	3569.32
430.16	3779.97
430.34	3831.46
430.53	3831.46
430.72	3929.76
430.91	3955.51
431.10	3927.42
431.28	3948.48
431.47	3904.01
431.66	4124.02
431.85	3962.53
432.03	4243.39
432.22	4203.60
432.41	4107.64
432.60	3915.72
432.79	4044.45
432.97	4229.35
433.16	4212.96
433.35	4004.66
433.54	4198.92
433.72	4138.07
433.91	4273.82
434.10	4161.47
434.28	4353.40
434.47	4222.33
434.66	4329.99
434.85	4383.82
435.03	4362.76
435.22	4388.50
435.41	4472.76
435.59	4329.99
435.78	4372.12
435.97	4414.25
436.16	4482.13
436.34	4442.34
436.53	4432.97
436.72	4606.17
436.90	4533.62
437.09	4524.26
437.28	4432.97
437.46	4430.63
437.65	4550.00
437.84	4629.58
438.02	4524.26
438.21	4753.63
438.40	4589.79
438.58	4795.76
438.77	4884.70
438.96	4746.61
439.14	4795.76
439.33	4816.82
439.52	4891.72
439.70	4973.64
439.89	5146.84
440.08	5179.61
440.26	4980.66
440.45	5153.86
440.63	5142.16
440.82	5301.31
441.01	5135.14
441.19	5146.84
441.38	5256.84
441.57	5153.86
441.75	5383.23
441.94	5453.45
442.12	5451.11
442.31	5383.23
442.50	5554.09
442.68	5317.70
442.87	5387.91
443.05	5682.82
443.24	5640.69
443.43	5671.12
443.61	5568.13
443.80	5760.06
443.98	5516.64
444.17	5432.38
444.35	5523.66
444.54	5668.78
444.73	5738.99
444.91	5792.83
445.10	5694.52
445.28	5743.67
445.47	5600.90
445.65	5537.71
445.84	5675.80
446.02	5633.67
446.21	5692.18
446.39	5811.55
446.58	5830.27
446.77	5806.87
446.95	5837.30
447.14	5673.46
447.32	5872.40
447.51	5806.87
447.69	5685.16
447.88	5811.55
448.06	5827.93
448.25	5933.26
448.43	5928.58
448.62	5785.80
448.80	5877.09
448.99	5933.26
449.17	5926.24
449.36	5668.78
449.54	6043.26
449.73	6179.01
449.91	6319.45
450.10	5977.73
450.28	6195.40
450.46	6314.77
450.65	6321.79
450.83	6115.82
451.02	6141.57
451.20	6370.94
451.39	6293.70
451.57	6209.44
451.76	6127.52
451.94	6328.81
452.13	6354.55
452.31	6310.08
452.49	6253.91
452.68	6410.73
452.86	6277.32
453.05	6464.56
453.23	6511.37
453.42	6319.45
453.60	6410.73
453.78	6649.46
453.97	6406.05
454.15	6658.82
454.34	6434.13
454.52	6700.95
454.70	6689.25
454.89	6654.14
455.07	6651.80
455.26	6569.88
455.44	6853.09
455.62	6740.74
455.81	6761.81
455.99	6663.51
456.17	6733.72
456.36	6794.58
456.54	6820.32
456.73	6942.03
456.91	6867.13
457.09	7267.36
457.28	7140.97
457.46	7014.59
457.64	7061.40
457.83	6984.16
458.01	7077.78
458.19	7152.68
458.38	6972.46
458.56	7190.13
458.74	7101.19
458.93	7258.00
459.11	7236.94
459.29	7396.09
459.48	7232.26
459.66	7344.60
459.84	7550.57
460.03	7557.59
460.21	7440.56
460.39	7480.35
460.57	7384.39
460.76	7452.27
460.94	7370.35
461.12	7431.20
461.31	7634.83
461.49	7550.57
461.67	7620.78
461.85	7639.51
462.04	7740.15
462.22	8116.98
462.40	7756.54
462.59	7822.07
462.77	7866.54
462.95	7950.80
463.13	7700.36
463.32	7824.41
463.50	7915.69
463.68	7918.03
463.86	7962.50
464.05	7962.50
464.23	7892.29
464.41	7955.48
464.59	7936.76
464.78	8070.17
464.96	8095.91
465.14	7913.35
465.32	8212.94
465.50	8250.39
465.69	8072.51
465.87	8285.50
466.05	8236.35
466.23	8374.44
466.41	8177.83
466.60	8346.35
466.78	8285.50
466.96	8290.18
467.14	8334.65
467.32	8320.60
467.51	8493.80
467.69	8255.07
467.87	8329.97
468.05	8479.76
468.23	8360.39
468.41	8290.18
468.60	8505.51
468.78	8484.44
468.96	8690.41
469.14	8559.34
469.32	8788.71
469.50	8369.76
469.69	8922.12
469.87	8786.37
470.05	8908.08
470.23	8730.20
470.41	8840.20
470.59	8905.74
470.77	8966.59
470.95	9011.06
471.14	9146.81
471.32	8807.44
471.50	9114.05
471.68	9092.98
471.86	9125.75
472.04	9207.67
472.22	9334.06
472.40	9132.77
472.58	9467.47
472.77	9275.54
472.95	9525.98
473.13	9785.78
473.31	9708.54
473.49	9235.75
473.67	9378.53
473.85	9458.10
474.03	9673.43
474.21	9710.88
474.39	9813.87
474.57	9764.72
474.75	9909.83
474.93	10141.54
475.12	9790.46
475.30	10043.24
475.48	10052.60
475.66	10134.52
475.84	10038.56
476.02	10307.72
476.20	10319.42
476.38	10649.44
476.56	10902.22
476.74	10518.37
476.92	10518.37
477.10	10714.97
477.28	10623.69
477.46	10984.13
477.64	11002.86
477.82	11014.56
478.00	11499.05
478.18	11215.85
478.36	11295.43
478.54	11527.14
478.72	11527.14
478.90	11564.59
479.08	11669.91
479.26	11789.28
479.44	11789.28
479.62	11885.24
479.80	12189.51
479.98	12191.85
480.16	12329.94
480.34	12243.34
480.52	12032.69
480.70	12215.26
480.88	12238.66
481.06	12678.68
481.24	12704.43
481.41	12416.54
481.59	12910.40
481.77	13004.02
481.95	13039.12
482.13	13074.23
482.31	13004.02
482.49	13422.97
482.67	13523.62
482.85	13575.11
483.03	13652.34
483.21	13631.28
483.39	14101.73
483.57	13841.93
483.74	13823.20
483.92	14401.32
484.10	14190.67
484.28	14487.92
484.46	14768.78
484.64	14902.19
484.82	14541.75
485.00	14853.04
485.18	14906.87
485.35	15171.35
485.53	15028.58
485.71	15283.70
485.89	15676.91
486.07	15571.58
486.25	15529.45
486.43	15569.24
486.61	15756.49
486.78	16128.63
486.96	15932.03
487.14	16116.93
487.32	16313.53
487.50	16152.04
487.68	16681.00
487.85	17132.72
488.03	16835.47
488.21	16999.31
488.39	17036.76
488.57	17181.87
488.75	17011.01
488.92	17572.74
489.10	17827.86
489.28	17790.41
489.46	17783.39
489.64	17972.97
489.81	18097.02
489.99	18345.12
490.17	18302.99
490.35	18548.75
490.53	18710.24
490.70	18881.10
490.88	19026.21
491.06	19005.15
491.24	18881.10
491.41	19103.45
491.59	19461.55
491.77	19379.64
491.95	19613.69
492.13	19679.22
492.30	19697.95
492.48	19634.75
492.66	19784.55
492.84	19878.17
493.01	20320.53
493.19	20070.09
493.37	20411.81
493.54	20407.13
493.72	20666.93
493.90	20964.18
494.08	20819.07
494.25	21514.20
494.43	21076.52
494.61	21420.58
494.79	21380.79
494.96	21060.14
495.14	21514.20
495.32	21799.75
495.49	21872.31
495.67	22115.72
495.85	22225.73
496.02	22403.61
496.20	22852.99
496.38	22771.07
496.55	22235.09
496.73	22991.08
496.91	22724.26
497.09	22988.74
497.26	22974.70
497.44	23246.20
497.62	23452.17
497.79	23548.13
497.97	23653.45
498.14	23718.99
498.32	23843.04
498.50	23901.55
498.67	23992.83
498.85	23976.45
499.03	24030.28
499.20	24257.31
499.38	24243.27
499.56	24594.35
499.73	24592.01
499.91	25160.76
500.08	24992.24
500.26	24748.82
500.44	25179.48
500.61	25027.35
500.79	24978.20
500.97	25170.12
501.14	25446.30
501.32	25551.63
501.49	25443.96
501.67	25607.80
501.84	25671.00
502.02	26038.46
502.20	26022.08
502.37	25642.91
502.55	25635.89
502.72	26361.45
502.90	26061.87
503.07	26045.48
503.25	26522.95
503.43	26328.69
503.60	26742.96
503.78	26654.02
503.95	26689.13
504.13	26663.38
504.30	27035.53
504.48	27075.32
504.65	26977.01
504.83	27351.50
505.01	27328.10
505.18	27475.55
505.36	27503.64
505.53	27012.12
505.71	27524.70
505.88	28119.20
506.06	27508.32
506.23	27828.97
506.41	27782.16
506.58	28273.67
506.76	27978.76
506.93	28229.20
507.11	28360.27
507.28	28212.82
507.46	28610.71
507.63	28556.88
507.81	28498.36
507.98	28526.45
508.16	28507.72
508.33	28732.42
508.50	29130.31
508.68	28907.96
508.85	29291.80
509.03	29221.59
509.20	29441.60
509.38	29511.81
509.55	29469.69
509.73	29682.67
509.90	29743.53
510.08	29715.44
510.25	29614.80
510.42	29851.19
510.60	30015.03
510.77	30174.19
510.95	30352.07
511.12	29881.62
511.30	30342.70
511.47	30543.99
511.64	30382.49
511.82	30693.79
511.99	30536.97
512.17	30707.83
512.34	30916.14
512.51	30871.67
512.69	30986.35
512.86	31180.62
513.04	31206.36
513.21	31281.26
513.38	31388.92
513.56	31225.09
513.73	31344.45
513.90	31615.96
514.08	31627.66
514.25	31955.33
514.43	31597.23
514.60	31943.63
514.77	31754.05
514.95	32144.92
515.12	32247.90
515.29	32238.54
515.47	32275.99
515.64	32760.48
515.81	32465.57
515.99	32662.18
516.16	32769.84
516.33	32980.49
516.51	32886.87
516.68	32725.37
516.85	32472.59
517.03	33036.66
517.20	33172.41
517.37	32872.82
517.54	32854.10
517.72	33247.31
517.89	33263.69
518.06	33535.20
518.24	33359.66
518.41	33160.71
518.58	33446.26
518.75	33462.64
518.93	33750.52
519.10	33661.58
519.27	33818.40
519.45	33886.28
519.62	34033.73
519.79	34150.76
519.96	34373.11
520.14	33872.23
520.31	34101.61
520.48	34225.65
520.65	34609.50
520.83	34698.44
521.00	34810.79
521.17	34782.70
521.34	34656.31
521.52	35182.93
521.69	35079.95
521.86	34752.27
522.03	34920.79
522.20	35290.60
522.38	35264.85
522.55	35164.21
522.72	35672.10
522.89	34981.65
523.07	35646.36
523.24	35665.08
523.41	35709.55
523.58	35615.93
523.75	35686.15
523.92	35548.06
524.10	36091.06
524.27	35826.58
524.44	35754.02
524.61	35824.24
524.78	36456.18
524.96	35997.44
525.13	36226.81
525.30	36680.88
525.47	36715.98
525.64	36521.72
525.81	36535.76
525.98	36542.78
526.16	36776.84
526.33	36299.37
526.50	36994.51
526.67	36825.99
526.84	36954.72
527.01	36935.99
527.18	37240.26
527.36	37195.79
527.53	37233.24
527.70	37294.10
527.87	37722.41
528.04	37186.43
528.21	37413.46
528.38	37654.54
528.55	37481.34
528.72	37308.14
528.89	37654.54
529.07	37778.59
529.24	37200.47
529.41	37961.15
529.58	37528.15
529.75	37799.65
529.92	37663.90
530.09	37792.63
530.26	37752.84
530.43	37975.19
530.60	38127.33
530.77	37951.79
530.94	38019.66
531.11	38134.35
531.28	38220.95
531.46	38160.09
531.63	38506.49
531.80	38602.46
531.97	38909.07
532.14	39253.12
532.31	38380.10
532.48	39159.50
532.65	39295.25
532.82	38735.87
532.99	38815.44
533.16	38955.88
533.33	38836.51
533.50	38897.36
533.67	38717.14
533.84	39019.07
534.01	39264.83
534.18	39058.86
534.35	39550.37
534.52	39414.62
534.69	39814.85
534.86	39899.11
535.03	39826.56
535.20	39629.95
535.37	39421.64
535.54	39849.96
535.71	39784.43
535.88	40236.15
536.05	39784.43
536.22	39889.75
536.38	39611.23
536.55	39981.03
536.72	40198.70
536.89	40252.53
537.06	39988.05
537.23	40758.09
537.40	40383.60
537.57	39791.45
537.74	40411.69
537.91	40722.98
538.08	40477.22
538.25	40315.73
538.42	40573.19
538.59	40861.07
538.75	40594.25
538.92	40832.99
539.09	40868.09
539.26	40884.48
539.43	40577.87
539.60	40884.48
539.77	40987.46
539.94	41579.62
540.11	40912.56
540.28	40931.29
540.44	41443.87
540.61	40664.47
540.78	41078.74
540.95	41375.99
541.12	41446.21
541.29	41137.26
541.46	41076.40
541.62	41282.37
541.79	41652.17
541.96	41226.20
542.13	41242.58
542.30	41511.74
542.47	41844.10
542.63	42279.44
542.80	41806.65
542.97	42316.89
543.14	42195.18
543.31	42253.69
543.48	41755.16
543.64	42766.27
543.81	42251.35
543.98	42665.63
544.15	42373.06
544.32	42515.83
544.48	42918.40
544.65	42534.56
544.82	42256.03
544.99	41998.57
545.16	43035.43
545.32	42457.32
545.49	43299.91
545.66	43098.62
545.83	42639.88
546.00	43012.02
546.16	43248.42
546.33	42946.49
546.50	42588.39
546.67	43049.47
546.83	42815.42
547.00	42710.10
547.17	42564.98
547.34	43171.18
547.50	43419.28
547.67	43452.05
547.84	43192.25
548.00	43707.16
548.17	43732.91
548.34	43526.94
548.51	43461.41
548.67	43585.46
548.84	43826.53
549.01	43227.35
549.18	43973.98
549.34	43620.56
549.51	43849.94
549.68	43580.78
549.84	43625.25
550.01	44098.03
550.18	43318.64
550.34	43962.28
550.51	44023.14
550.68	44414.01
550.84	43805.47
551.01	44320.38
551.18	43826.53
551.34	43997.39
551.51	44397.62
551.68	44034.84
551.84	44076.97
552.01	43845.26
552.18	44612.95
552.34	43973.98
552.51	44465.50
552.68	44268.89
552.84	44493.58
553.01	44774.45
553.18	44123.78
553.34	44898.50
553.51	44507.63
553.67	44889.13
553.84	44535.71
554.01	44933.60
554.17	44292.30
554.34	44711.25
554.51	44659.76
554.67	45177.02
554.84	45008.50
555.00	44708.91
555.17	45050.63
555.33	44975.73
555.50	44739.34
555.67	45102.12
555.83	44811.90
556.00	45123.19
556.16	45787.90
556.33	45401.71
556.50	44727.64
556.66	45308.09
556.83	44868.07
556.99	45233.19
557.16	45881.52
557.32	45317.45
557.49	45820.67
557.65	45280.00
557.82	45504.70
557.98	45301.07
558.15	45490.65
558.32	45624.06
558.48	45291.71
558.65	45366.60
558.81	45516.40
558.98	45705.98
559.14	45406.39
559.31	45720.02
559.47	45647.47
559.64	46057.06
559.80	45668.53
559.97	45846.41
560.13	45750.45
560.30	45841.73
560.46	45923.65
560.63	45937.69
560.79	46258.35
560.96	46358.99
561.12	46131.96
561.29	46127.28
561.45	46141.32
561.61	46057.06
561.78	46010.25
561.94	45815.99
562.11	46045.36
562.27	45830.03
562.44	46110.89
562.60	46382.40
562.77	46363.67
562.93	45392.35
563.10	46312.18
563.26	46188.13
563.42	46642.20
563.59	46244.30
563.75	46417.50
563.92	46440.91
564.08	46054.72
564.24	46642.20
564.41	46461.97
564.57	46237.28
564.74	46492.40
564.90	46225.58
565.07	46178.77
565.23	46415.16
565.39	46326.22
565.56	46674.96
565.72	46583.68
565.88	46787.31
566.05	46483.04
566.21	46485.38
566.38	46398.78
566.54	46941.78
566.70	46440.91
566.87	46780.29
567.03	46464.32
567.19	46602.41
567.36	46562.62
567.52	46904.34
567.68	46813.05
567.85	46782.63
568.01	46927.74
568.17	46480.70
568.34	47105.62
568.50	46894.97
568.66	46745.18
568.83	47147.75
568.99	47129.03
569.15	47023.70
569.32	46436.23
569.48	46330.90
569.64	46909.02
569.81	47206.26
569.97	46890.29
570.13	47145.41
570.30	46625.81
570.46	47421.59
570.62	46831.78
570.78	46871.57
570.95	46958.17
571.11	47285.84
571.27	46843.48
571.43	46780.29
571.60	46644.54
571.76	46887.95
571.92	47100.94
572.09	47119.66
572.25	47278.82
572.41	47079.88
572.57	47374.78
572.74	47236.69
572.90	47026.04
573.06	47435.64
573.22	47065.83
573.38	47400.53
573.55	47180.52
573.71	47569.05
573.87	47643.94
574.03	47110.30
574.20	47751.61
574.36	47075.19
574.52	47547.98
574.68	47171.16
574.84	47433.30
575.01	47374.78
575.17	46997.96
575.33	47325.63
575.49	46948.81
575.65	47482.45
575.82	47498.83
575.98	47222.65
576.14	47690.76
576.30	47346.70
576.46	47501.17
576.62	47098.60
576.79	47297.55
576.95	47477.77
577.11	47140.73
577.27	47103.28
577.43	47337.33
577.59	47243.71
577.75	46918.38
577.92	47367.76
578.08	47407.55
578.24	47391.17
578.40	47461.38
578.56	47789.06
578.72	47606.50
578.88	47337.33
579.04	47676.71
579.21	47395.85
579.37	47765.65
579.53	47580.75
579.69	47224.99
579.85	47154.77
580.01	47454.36
580.17	47203.92
580.33	47428.62
580.49	47505.85
580.65	47447.34
580.82	47559.69
580.98	47051.79
581.14	47353.72
581.30	47070.51
581.46	47370.10
581.62	47714.16
581.78	47173.50
581.94	47475.43
582.10	47592.45
582.26	47522.24
582.42	48095.67
582.58	47814.80
582.74	47585.43
582.90	47704.80
583.06	47569.05
583.22	47622.88
583.38	47585.43
583.54	47686.07
583.70	47646.29
583.86	47725.86
584.02	47779.70
584.18	47885.02
584.34	48093.33
584.50	47852.25
584.66	47681.39
584.82	47695.44
584.98	48182.27
585.14	48163.54
585.30	47351.38
585.46	47875.66
585.62	47526.92
585.78	47796.08
585.94	47161.79
586.10	48072.26
586.26	47622.88
586.42	47365.42
586.58	47983.32
586.74	47620.54
586.90	47730.54
587.06	47686.07
587.22	48168.22
587.38	47480.11
587.54	47995.03
587.70	48336.74
587.86	47704.80
588.02	47562.03
588.18	47491.81
588.34	47824.17
588.49	48058.22
588.65	47606.50
588.81	47842.89
588.97	47948.21
589.13	47735.23
589.29	48006.73
589.45	47964.60
589.61	47749.27
589.77	47901.40
589.93	48360.15
590.08	48161.20
590.24	48135.46
590.40	47995.03
590.56	48151.84
590.72	48023.11
590.88	48301.64
591.04	47840.55
591.20	48339.08
591.35	48397.60
591.51	48821.23
591.67	48074.60
591.83	48275.89
591.99	48488.88
592.15	48217.38
592.31	48329.72
592.46	48268.87
592.62	47950.56
592.78	48818.89
592.94	48610.59
593.10	48315.68
593.26	48437.39
593.41	48224.40
593.57	48428.02
593.73	48453.77
593.89	48385.89
594.05	48629.31
594.20	48582.50
594.36	48952.30
594.52	48669.10
594.68	48278.23
594.84	48505.26
594.99	48516.96
595.15	48521.65
595.31	48278.23
595.47	48076.94
595.62	48687.82
595.78	48589.52
595.94	48224.40
596.10	48362.49
596.25	48720.59
596.41	48699.53
596.57	48339.08
596.73	48762.72
596.88	48582.50
597.04	48226.74
597.20	48641.01
597.36	48711.23
597.51	48931.24
597.67	48720.59
597.83	48538.03
597.99	48479.52
598.14	48708.89
598.30	48861.02
598.46	48442.07
598.61	49013.16
598.77	48975.71
598.93	48910.17
599.09	48381.21
599.24	48676.12
599.40	48521.65
599.56	48732.29
599.71	48889.11
599.87	48804.85
600.03	48758.04
600.18	48626.97
600.34	48519.31
600.50	48832.94
600.65	48655.06
600.81	48645.69
600.97	48875.07
601.12	48690.16
601.28	48797.83
601.44	48788.47
601.59	48692.50
601.75	48428.02
601.91	48898.47
602.06	48704.21
602.22	49127.84
602.37	48514.62
602.53	48748.68
602.69	48807.19
602.84	48488.88
603.00	48580.16
603.16	48573.14
603.31	48690.16
603.47	48732.29
603.62	48655.06
603.78	49162.95
603.94	48704.21
604.09	48369.51
604.25	48626.97
604.40	48442.07
604.56	48662.08
604.71	48994.43
604.87	48545.05
605.03	48442.07
605.18	48526.33
605.34	48636.33
605.49	48268.87
605.65	48793.15
605.80	48701.87
605.96	48540.37
606.12	48889.11
606.27	48758.04
606.43	48179.93
606.58	48949.96
606.74	48121.41
606.89	48811.87
607.05	48629.31
607.20	48736.98
607.36	48783.79
607.51	48697.19
607.67	48610.59
607.82	48528.67
607.98	48296.95
608.13	48217.38
608.29	48610.59
608.44	48423.34
608.60	48435.05
608.75	48528.67
608.91	48303.98
609.06	48179.93
609.22	48577.82
609.37	48039.50
609.53	48533.35
609.68	48559.09
609.84	48177.59
609.99	48531.01
610.15	48545.05
610.30	48591.86
610.46	48858.68
610.61	48413.98
610.76	48360.15
610.92	48210.35
611.07	48193.97
611.23	48109.71
611.38	48327.38
611.54	47653.31
611.69	48751.02
611.84	48191.63
612.00	48055.88
612.15	48236.10
612.31	48301.64
612.46	48016.09
612.62	48098.01
612.77	48261.85
612.92	48491.22
613.08	48013.75
613.23	48254.82
613.39	48252.48
613.54	47758.63
613.69	48465.47
613.85	48170.57
614.00	48346.11
614.15	48381.21
614.31	47590.11
614.46	48280.57
614.62	47899.06
614.77	47962.26
614.92	48200.99
615.08	47875.66
615.23	47639.26
615.38	47796.08
615.54	47803.10
615.69	47971.62
615.84	47620.54
616.00	47714.16
616.15	47992.68
616.30	47842.89
616.46	47587.77
616.61	47695.44
616.76	48121.41
616.92	47845.23
617.07	47763.31
617.22	47938.85
617.37	47234.35
617.53	47665.01
617.68	47367.76
617.83	47765.65
617.99	48395.26
618.14	47931.83
618.29	47344.36
618.45	47538.62
618.60	46932.42
618.75	47093.92
618.90	47295.21
619.06	47487.13
619.21	47440.32
619.36	47835.87
619.51	47086.90
619.67	47337.33
619.82	47295.21
619.97	47767.99
620.12	47356.06
620.28	47491.81
620.43	47629.90
620.58	47454.36
620.73	47402.87
620.89	47760.97
621.04	47515.22
621.19	47536.28
621.34	47304.57
621.49	47196.90
621.65	47185.20
621.80	47107.96
621.95	47313.93
622.10	47220.31
622.25	47061.15
622.41	47145.41
622.56	47168.82
622.71	47093.92
622.86	46965.19
623.01	47236.69
623.16	47161.79
623.32	47363.08
623.47	46902.00
623.62	47014.34
623.77	46752.20
623.92	47026.04
624.07	46852.84
624.23	46483.04
624.38	47248.39
624.53	46932.42
624.68	46897.31
624.83	46649.22
624.98	46590.70
625.13	46511.13
625.29	46607.09
625.44	46773.27
625.59	46529.85
625.74	46373.03
625.89	46354.31
626.04	46136.64
626.19	46361.33
626.34	46607.09
626.49	46581.34
626.65	46115.58
626.80	46408.14
626.95	46459.63
627.10	46101.53
627.25	46363.67
627.40	46387.08
627.55	46714.75
627.70	46295.80
627.85	46588.36
628.00	46445.59
628.15	46305.16
628.30	45951.74
628.45	45918.97
628.60	45776.20
628.76	46075.79
628.91	46064.08
629.06	46026.63
629.21	45600.66
629.36	45780.88
629.51	45858.12
629.66	46241.96
629.81	45918.97
629.96	45951.74
630.11	45830.03
630.26	45705.98
630.41	46099.19
630.56	45694.28
630.71	45743.43
630.86	45705.98
631.01	45745.77
631.16	45446.18
631.31	45656.83
631.46	45925.99
631.61	45736.41
631.76	45649.81
631.91	45495.33
632.06	46377.72
632.21	45645.13
632.36	46005.57
632.51	45322.13
632.66	45542.14
632.81	45408.73
632.96	45340.86
633.10	45329.16
633.25	45581.93
633.40	45085.74
633.55	46017.27
633.70	45567.89
633.85	45240.21
634.00	45029.57
634.15	44940.63
634.30	45177.02
634.45	44947.65
634.60	45041.27
634.75	45581.93
634.90	44673.81
635.05	45237.87
635.19	45558.53
635.34	45333.84
635.49	44987.44
635.64	44900.84
635.79	45083.40
635.94	44964.03
636.09	45338.52
636.24	45251.92
636.39	45085.74
636.53	45205.11
636.68	44507.63
636.83	44273.57
636.98	44949.99
637.13	44769.77
637.28	44645.72
637.43	44692.53
637.57	44837.64
637.72	44638.70
637.87	44715.93
638.02	45015.52
638.17	44533.37
638.32	44376.56
638.46	44121.44
638.61	44259.53
638.76	44430.39
638.91	44507.63
639.06	44215.06
639.20	43744.61
639.35	44051.22
639.50	44051.22
639.65	44477.20
639.80	44528.69
639.94	44144.84
640.09	44472.52
640.24	44444.43
640.39	43995.05
640.54	43807.81
640.68	43835.89
640.83	44580.18
640.98	44074.63
641.13	43838.23
641.27	44271.23
641.42	43863.98
641.57	44582.52
641.72	44009.09
641.86	44032.50
642.01	43356.08
642.16	43695.46
642.31	43484.81
642.45	44196.34
642.60	43299.91
642.75	44041.86
642.90	43615.88
643.04	43913.13
643.19	43426.30
643.34	43604.18
643.48	43704.82
643.63	43550.35
643.78	43952.92
643.93	44086.33
644.07	43683.76
644.22	43791.42
644.37	43119.69
644.51	43583.12
644.66	44013.77
644.81	43676.74
644.95	43571.41
645.10	43562.05
645.25	43154.80
645.39	42944.15
645.54	43435.66
645.69	43131.39
645.83	43313.95
645.98	42902.02
646.13	43065.86
646.27	43255.44
646.42	42440.93
646.57	43463.75
646.71	43313.95
646.86	43309.27
647.00	43377.15
647.15	43636.95
647.30	43288.21
647.44	43199.27
647.59	43217.99
647.74	43075.22
647.88	42822.44
648.03	43409.92
648.17	43157.14
648.32	43173.52
648.47	43119.69
648.61	42586.05
648.76	42733.50
648.90	42546.26
649.05	42469.02
649.20	42789.67
649.34	42784.99
649.49	42841.17
649.63	43335.02
649.78	42639.88
649.92	43070.54
650.07	43168.84
650.21	42817.76
650.36	42677.33
650.51	42916.06
650.65	42895.00
650.80	42770.95
650.94	42616.47
651.09	42618.81
651.23	41881.55
651.38	42029.00
651.52	41996.23
651.67	42431.57
651.81	42131.98
651.96	42295.82
652.10	42354.33
652.25	41830.05
652.39	42646.90
652.54	42305.18
652.68	42155.39
652.83	42213.90
652.97	42492.43
653.12	42171.77
653.26	42124.96
653.41	41956.44
653.55	42195.18
653.70	42377.74
653.84	42225.60
653.99	42497.11
654.13	41968.15
654.27	41862.82
654.42	41942.40
654.56	41776.22
654.71	41750.48
654.85	41930.70
655.00	42167.09
655.14	41813.67
655.29	41291.73
655.43	41790.27
655.57	41727.07
655.72	41291.73
655.86	41525.78
656.01	41706.01
656.15	41539.83
656.30	41226.20
656.44	41507.06
656.58	41284.71
656.73	41202.79
656.87	41038.95
657.01	41361.95
657.16	41560.89
657.30	41476.63
657.45	41198.11
657.59	40744.05
657.73	41184.07
657.88	41532.81
658.02	41273.01
658.16	41631.11
658.31	41240.24
658.45	41127.89
658.60	41053.00
658.74	41165.34
658.88	40861.07
659.03	41233.22
659.17	41036.61
659.31	40545.10
659.46	40884.48
659.60	41148.96
659.74	40442.12
659.89	40392.97
660.03	39849.96
660.17	40533.40
660.32	40222.11
660.46	40531.06
660.60	40079.33
660.74	40407.01
660.89	40664.47
661.03	40058.27
661.17	39964.65
661.32	40091.04
661.46	40088.70
661.60	39948.26
661.74	39943.58
661.89	39566.76
662.03	40205.72
662.17	39845.28
662.31	39714.21
662.46	39978.69
662.60	39796.13
662.74	39557.39
662.88	39063.54
663.03	38939.49
663.17	39393.56
663.31	39021.41
663.45	39613.57
663.60	39992.73
663.74	39201.63
663.88	39798.47
664.02	39241.42
664.17	39599.52
664.31	39082.27
664.45	39180.57
664.59	39201.63
664.73	38913.75
664.88	39061.20
665.02	38649.27
665.16	38824.81
665.30	38546.28
665.44	38782.68
665.59	38719.48
665.73	38572.03
665.87	38249.03
666.01	38651.61
666.15	38569.69
666.29	38239.67
666.44	38604.80
666.58	38092.22
666.72	38202.22
666.86	37818.38
667.00	37956.47
667.14	38178.82
667.28	38078.18
667.43	38099.24
667.57	37954.13
667.71	37589.00
667.85	38377.76
667.99	37677.94
668.13	37453.25
668.27	37240.26
668.41	37319.84
668.56	37053.02
668.70	36973.44
668.84	37338.57
668.98	37366.65
669.12	36891.52
669.26	37266.01
669.40	37340.91
669.54	37053.02
669.68	36954.72
669.82	36828.33
669.96	36573.21
670.10	36390.65
670.25	36704.28
670.39	36446.82
670.53	36987.49
670.67	36465.55
670.81	36666.83
670.95	36559.17
671.09	36299.37
671.23	36261.92
671.37	36341.50
671.51	36395.33
671.65	36198.73
671.79	36123.83
671.93	36290.01
672.07	36133.19
672.21	35934.24
672.35	35821.90
672.49	35730.62
672.63	35405.28
672.77	35409.96
672.91	35353.79
673.05	35498.91
673.19	35269.53
673.33	34712.49
673.47	35058.88
673.61	34721.85
673.75	34944.20
673.89	35058.88
674.03	34913.77
674.17	34321.62
674.31	34216.29
674.45	33975.22
674.59	34726.53
674.73	34209.27
674.87	34022.03
675.01	33481.36
675.15	33944.79
675.29	33862.87
675.43	33764.57
675.56	34117.99
675.70	33832.44
675.84	33769.25
675.98	32552.17
676.12	33291.78
676.26	33825.42
676.40	33481.36
676.54	32964.10
676.68	33031.98
676.82	32496.00
676.96	32804.95
677.10	32893.89
677.23	32638.77
677.37	32844.74
677.51	33029.64
677.65	32617.71
677.79	32378.97
677.93	32451.53
678.07	32039.59
678.21	32016.19
678.34	31779.79
678.48	31454.46
678.62	31669.79
678.76	31812.56
678.90	31459.14
679.04	31587.87
679.18	31667.45
679.31	31349.14
679.45	31192.32
679.59	30969.97
679.73	31438.08
679.87	30691.44
680.00	30998.06
680.14	31075.29
680.28	30955.93
680.42	30703.15
680.56	30506.54
680.70	30047.80
680.83	30323.98
680.97	30066.52
681.11	29776.30
681.25	30043.12
681.39	29448.62
681.52	29720.12
681.66	29373.72
681.80	29097.54
681.94	28666.88
682.07	29116.26
682.21	28877.53
682.35	28922.00
682.49	29001.58
682.62	29301.17
682.76	28985.19
682.90	28879.87
683.04	28704.33
683.17	28528.79
683.31	28456.23
683.45	28379.00
683.59	28364.95
683.72	28016.21
683.86	28053.66
684.00	28266.65
684.13	27679.18
684.27	27754.07
684.41	27630.02
684.55	27653.43
684.68	27838.33
684.82	27138.51
684.96	27285.97
685.09	27175.96
685.23	27330.44
685.37	27288.31
685.50	27108.08
685.64	27218.09
685.78	26946.59
685.91	26796.79
686.05	26190.59
686.19	26202.30
686.32	26136.76
686.46	25832.49
686.60	26040.80
686.73	26096.97
686.87	25848.88
687.01	25837.17
687.14	26080.59
687.28	25741.21
687.42	25504.82
687.55	25687.38
687.69	25572.69
687.82	25010.96
687.96	24978.20
688.10	25252.04
688.23	25202.89
688.37	25240.34
688.50	25230.98
688.64	24863.51
688.78	24774.57
688.91	24929.05
689.05	24236.25
689.18	24390.72
689.32	23915.59
689.46	24254.97
689.59	23983.47
689.73	24364.98
689.86	24208.16
690.00	24128.58
690.13	23623.03
690.27	23992.83
690.41	23859.42
690.54	23307.05
690.68	23571.54
690.81	23300.03
690.95	22820.22
691.08	23204.07
691.22	22829.59
691.35	22885.76
691.49	23211.09
691.62	22995.76
691.76	22089.98
691.89	22494.89
692.03	22033.80
692.16	22211.68
692.30	22223.39
692.43	22094.66
692.57	21820.81
692.70	21631.23
692.84	21900.39
692.97	21397.18
693.11	21509.52
693.24	21149.08
693.38	21539.95
693.51	21336.32
693.65	21315.26
693.78	21149.08
693.92	20910.35
694.05	20893.96
694.19	21118.65
694.32	20805.02
694.45	21163.12
694.59	20929.07
694.72	20863.54
694.86	20517.14
694.99	20329.89
695.13	20489.05
695.26	19852.42
695.39	20053.71
695.53	20112.22
695.66	20077.12
695.80	19960.09
695.93	19473.26
696.07	19784.55
696.20	19180.69
696.33	19384.32
696.47	19218.14
696.60	19396.02
696.73	19309.42
696.87	19122.18
697.00	18963.02
697.14	18946.64
697.27	18523.00
697.40	18993.45
697.54	18600.24
697.67	18515.98
697.80	18813.23
697.94	18352.14
698.07	18452.78
698.21	18143.83
698.34	18059.57
698.47	18143.83
698.61	17685.09
698.74	17645.30
698.87	17881.69
699.01	17785.73
699.14	17710.83
699.27	17600.83
699.40	17502.53
699.54	17701.47
699.67	17366.78
699.80	17240.39
699.94	17104.64
700.07	17326.99
700.20	16718.45
700.34	16540.57
700.47	16903.35
700.60	17041.44
700.73	16870.58
700.87	16638.87
701.00	16168.42
701.13	16472.69
701.26	16262.04
701.40	16327.58
701.53	16269.06
701.66	16088.84
701.79	16053.73
701.93	16030.33
702.06	15981.18
702.19	15639.46
702.32	15805.64
702.46	15669.89
702.59	16126.29
702.72	15721.38
702.85	15536.48
702.99	15438.17
703.12	15246.25
703.25	15311.78
703.38	15161.99
703.51	15204.12
703.65	15192.42
703.78	14771.12
703.91	14745.38
704.04	14485.58
704.17	14677.50
704.31	14567.49
704.44	14775.80
704.57	14469.19
704.70	14562.81
704.83	14146.20
704.96	14310.04
705.10	14157.90
705.23	14099.39
>>>>>End Processed Spectral Data<<<<<
