SpectraSuite Data File
++++++++++++++++++++++++++++++++++++
Date: Fri Oct 25 10:44:03 EDT 2013
User: price-jones
Dark Spectrum Present: No
Reference Spectrum Present: No
Number of Sampled Component Spectra: 1
Spectrometers: USB2+H05261
Integration Time (usec): 100000 (USB2+H05261)
Spectra Averaged: 1 (USB2+H05261)
Boxcar Smoothing: 0 (USB2+H05261)
Correct for Electrical Dark: No (USB2+H05261)
Strobe/Lamp Enabled: No (USB2+H05261)
Correct for Detector Non-linearity: No (USB2+H05261)
Correct for Stray Light: No (USB2+H05261)
Number of Pixels in Processed Spectrum: 2048
>>>>>Begin Processed Spectral Data<<<<<
365.73	168.52
365.92	168.52
366.12	168.52
366.32	0.00
366.52	0.00
366.72	51.49
366.91	14.04
367.11	0.00
367.31	0.00
367.51	93.62
367.70	0.00
367.90	0.00
368.10	44.47
368.30	2.34
368.49	0.00
368.69	4.68
368.89	14.04
369.09	63.19
369.28	84.26
369.48	63.19
369.68	102.98
369.87	88.94
370.07	84.26
370.27	128.73
370.47	255.12
370.66	376.83
370.86	435.34
371.06	491.51
371.25	498.53
371.45	491.51
371.65	489.17
371.84	409.59
372.04	475.13
372.24	482.15
372.44	414.27
372.63	608.54
372.83	575.77
373.03	451.72
373.22	418.96
373.42	575.77
373.62	554.71
373.81	580.45
374.01	559.39
374.21	592.16
374.40	547.69
374.60	596.84
374.79	571.09
374.99	676.41
375.19	657.69
375.38	657.69
375.58	650.67
375.78	624.92
375.97	606.20
376.17	669.39
376.37	674.07
376.56	645.99
376.76	603.86
376.95	634.29
377.15	622.58
377.35	664.71
377.54	657.69
377.74	683.44
377.93	667.05
378.13	739.61
378.33	709.18
378.52	650.67
378.72	720.88
378.91	674.07
379.11	627.26
379.31	629.60
379.50	657.69
379.70	699.82
379.89	695.14
380.09	772.38
380.28	711.52
380.48	699.82
380.68	667.05
380.87	807.48
381.07	737.27
381.26	791.10
381.46	741.95
381.65	802.80
381.85	786.42
382.04	678.76
382.24	814.51
382.43	739.61
382.63	690.46
382.83	720.88
383.02	667.05
383.22	732.59
383.41	763.01
383.61	774.72
383.80	784.08
384.00	840.25
384.19	821.53
384.39	821.53
384.58	837.91
384.78	863.66
384.97	910.47
385.17	795.78
385.36	870.68
385.56	912.81
385.75	791.10
385.95	833.23
386.14	863.66
386.34	814.51
386.53	891.74
386.72	908.13
386.92	973.66
387.11	809.83
387.31	880.04
387.50	891.74
387.70	978.34
387.89	877.70
388.09	922.17
388.28	924.51
388.48	922.17
388.67	1025.15
388.86	945.58
389.06	1006.43
389.25	992.39
389.45	1027.50
389.64	1032.18
389.84	976.00
390.03	1025.15
390.22	1032.18
390.42	971.32
390.61	1083.67
390.81	1050.90
391.00	1200.69
391.19	1107.07
391.39	1025.15
391.58	1184.31
391.78	1022.81
391.97	1071.97
392.16	1062.60
392.36	1128.14
392.55	1130.48
392.75	1032.18
392.94	1055.58
393.13	1008.77
393.33	1025.15
393.52	1062.60
393.71	1158.57
393.91	1107.07
394.10	1167.93
394.29	1242.82
394.49	1193.67
394.68	1296.66
394.88	1284.95
395.07	1242.82
395.26	1320.06
395.46	1252.19
395.65	1397.30
395.84	1261.55
396.04	1343.47
396.23	1203.04
396.42	1156.22
396.62	1170.27
396.81	1221.76
397.00	1296.66
397.19	1296.66
397.39	1399.64
397.58	1385.60
397.77	1448.79
397.97	1474.54
398.16	1460.49
398.35	1600.93
398.55	1476.88
398.74	1519.01
398.93	1577.52
399.12	1607.95
399.32	1629.01
399.51	1631.35
399.70	1757.74
399.90	1757.74
400.09	1696.89
400.28	1682.85
400.47	1771.79
400.67	1682.85
400.86	1720.29
401.05	1689.87
401.24	1703.91
401.44	1760.08
401.63	1792.85
401.82	1853.70
402.01	1886.47
402.21	1797.53
402.40	1865.41
402.59	1760.08
402.78	1832.64
402.97	1832.64
403.17	1902.86
403.36	1867.75
403.55	1954.35
403.74	1975.41
403.93	1961.37
404.13	1900.52
404.32	1877.11
404.51	2015.20
404.70	2157.97
404.89	1994.14
405.09	2078.40
405.28	2040.95
405.47	2073.71
405.66	2143.93
405.85	2050.31
406.05	1994.14
406.24	2045.63
406.43	2097.12
406.62	2190.74
406.81	2267.98
407.00	2172.02
407.20	2085.42
407.39	2256.28
407.58	2246.91
407.77	2359.26
407.96	2298.41
408.15	2277.34
408.34	2298.41
408.54	2427.14
408.73	2452.88
408.92	2441.18
409.11	2464.58
409.30	2406.07
409.49	2539.48
409.68	2427.14
409.87	2462.24
410.07	2490.33
410.26	2438.84
410.45	2448.20
410.64	2588.63
410.83	2677.57
411.02	2621.40
411.21	2785.24
411.40	2612.04
411.59	2740.77
411.78	2792.26
411.98	2661.19
412.17	2801.62
412.36	2738.43
412.55	2850.77
412.74	2916.31
412.93	2782.90
413.12	2818.00
413.31	3080.14
413.50	2942.05
413.69	3045.04
413.88	3204.19
414.07	2995.89
414.26	3112.91
414.45	3166.74
414.64	3101.21
414.83	3197.17
415.02	3171.43
415.22	3169.09
415.41	3316.54
415.60	3283.77
415.79	3346.97
415.98	3363.35
416.17	3489.74
416.36	3375.05
416.55	3515.48
416.74	3445.27
416.93	3361.01
417.12	3489.74
417.31	3538.89
417.50	3480.38
417.69	3660.60
417.88	3634.85
418.07	3503.78
418.26	3468.67
418.45	3641.87
418.64	3857.20
418.83	3854.86
419.02	3637.19
419.21	3791.67
419.39	3660.60
419.58	3609.11
419.77	3625.49
419.96	3676.98
420.15	3695.71
420.34	3882.95
420.53	3899.33
420.72	4035.08
420.91	4030.40
421.10	3941.46
421.29	4245.73
421.48	4032.74
421.67	4032.74
421.86	4007.00
422.05	4044.45
422.24	3918.06
422.43	3981.25
422.61	4007.00
422.80	4145.09
422.99	4117.00
423.18	4102.96
423.37	4168.49
423.56	4119.34
423.75	4161.47
423.94	4011.68
424.13	3786.99
424.32	3920.40
424.50	4161.47
424.69	4257.43
424.88	4070.19
425.07	4060.83
425.26	4217.65
425.45	4081.89
425.64	4131.05
425.83	4161.47
426.01	4266.80
426.20	4348.72
426.39	4163.81
426.58	4182.54
426.77	4219.99
426.96	4177.86
427.15	4173.18
427.33	4215.30
427.52	4278.50
427.71	4346.37
427.90	4306.59
428.09	4294.88
428.28	4315.95
428.46	4301.90
428.65	4379.14
428.84	4475.10
429.03	4519.57
429.22	4292.54
429.40	4212.96
429.59	4234.03
429.78	4049.13
429.97	4126.36
430.16	4117.00
430.34	4231.69
430.53	4372.12
430.72	4369.78
430.91	4320.63
431.10	4557.02
431.28	4615.54
431.47	4805.12
431.66	4851.93
431.85	4674.05
432.03	4828.53
432.22	4961.94
432.41	4734.90
432.60	4870.65
432.79	4975.98
432.97	4952.57
433.16	5057.90
433.35	4961.94
433.54	4844.91
433.72	4875.34
433.91	4877.68
434.10	4870.65
434.28	4938.53
434.47	5085.98
434.66	5238.12
434.85	5130.45
435.03	5195.99
435.22	5057.90
435.41	5317.70
435.59	5280.25
435.78	5486.22
435.97	5444.09
436.16	5383.23
436.34	5320.04
436.53	5486.22
436.72	5420.68
436.90	5446.43
437.09	5458.13
437.28	5303.65
437.46	5434.72
437.65	5380.89
437.84	5423.02
438.02	5406.64
438.21	5399.62
438.40	5416.00
438.58	5521.32
438.77	5540.05
438.96	5624.31
439.14	5837.30
439.33	5717.93
439.52	5874.74
439.70	5823.25
439.89	6001.13
440.08	6015.18
440.26	5891.13
440.45	5954.32
440.63	6162.63
440.82	6296.04
441.01	6188.38
441.19	6223.48
441.38	6525.41
441.57	6356.90
441.75	6473.92
441.94	6525.41
442.12	6459.88
442.31	6654.14
442.50	6637.76
442.68	6682.23
442.87	6754.79
443.05	6647.12
443.24	6761.81
443.43	6927.99
443.61	6803.94
443.80	6920.96
443.98	6801.60
444.17	6532.44
444.35	6663.51
444.54	6965.43
444.73	6780.53
444.91	6841.39
445.10	6759.47
445.28	6904.58
445.47	6764.15
445.65	6722.02
445.84	6651.80
446.02	6974.80
446.21	6965.43
446.39	6979.48
446.58	7035.65
446.77	7002.88
446.95	7047.35
447.14	7150.34
447.32	7110.55
447.51	7089.48
447.69	6750.10
447.88	7033.31
448.06	7070.76
448.25	7068.42
448.43	7035.65
448.62	7005.22
448.80	7194.81
448.99	7295.45
449.17	7133.95
449.36	7035.65
449.54	7290.77
449.73	7339.92
449.91	7456.95
450.10	7669.94
450.28	7552.91
450.46	7644.19
450.65	7545.89
450.83	7651.21
451.02	7485.03
451.20	7658.23
451.39	7747.17
451.57	7611.42
451.76	7571.63
451.94	7501.42
452.13	7618.44
452.31	7691.00
452.49	7344.60
452.68	7548.23
452.86	7569.29
453.05	7714.41
453.23	7618.44
453.42	7606.74
453.60	7660.57
453.78	7817.39
453.97	7599.72
454.15	7733.13
454.34	7655.89
454.52	7803.35
454.70	7976.55
454.89	7857.18
455.07	7854.84
455.26	7988.25
455.44	8023.36
455.62	8121.66
455.81	7999.95
455.99	8105.28
456.17	8259.75
456.36	8166.13
456.54	8142.72
456.73	8477.42
456.91	8430.61
457.09	8669.34
457.28	8599.13
457.46	8278.47
457.64	8578.06
457.83	8631.90
458.01	8276.13
458.19	8390.82
458.38	8571.04
458.56	8617.85
458.74	8610.83
458.93	8571.04
459.11	8924.46
459.29	8709.13
459.48	8540.61
459.66	8631.90
459.84	8645.94
460.03	8917.44
460.21	9053.19
460.39	8760.63
460.57	8898.72
460.76	8978.30
460.94	9156.18
461.12	9125.75
461.31	8973.61
461.49	8990.00
461.67	9100.00
461.85	9240.44
462.04	9242.78
462.22	9753.01
462.40	9322.35
462.59	9362.14
462.77	9343.42
462.95	9371.50
463.13	9537.68
463.32	9294.27
463.50	9535.34
463.68	9479.17
463.86	9331.72
464.05	9378.53
464.23	9327.03
464.41	9558.75
464.59	9357.46
464.78	9579.81
464.96	9717.90
465.14	9423.00
465.32	9542.36
465.50	9760.03
465.69	9645.35
465.87	9626.62
466.05	9699.18
466.23	9462.79
466.41	9540.02
466.60	9884.08
466.78	9554.07
466.96	9638.33
467.14	9703.86
467.32	9785.78
467.51	9853.66
467.69	9668.75
467.87	9944.94
468.05	9982.38
468.23	9568.11
468.41	9769.40
468.60	9951.96
468.78	9935.57
468.96	10078.35
469.14	10061.96
469.32	10221.12
469.50	10057.28
469.69	10127.50
469.87	9994.09
470.05	10047.92
470.23	10211.76
470.41	10431.77
470.59	10106.43
470.77	10207.08
470.95	10239.84
471.14	10417.72
471.32	10338.15
471.50	10778.17
471.68	10789.87
471.86	10867.11
472.04	10806.25
472.22	10988.82
472.40	10733.70
472.58	10925.62
472.77	10979.45
472.95	10839.02
473.13	11426.50
473.31	10925.62
473.49	10991.16
473.67	11140.95
473.85	11169.04
474.03	11414.79
474.21	11440.54
474.39	11599.70
474.57	11545.86
474.75	11700.34
474.93	11700.34
475.12	11808.00
475.30	11899.28
475.48	11690.98
475.66	11875.88
475.84	11918.01
476.02	12025.67
476.20	11765.87
476.38	11892.26
476.56	12355.69
476.74	12351.01
476.92	12414.20
477.10	12336.96
477.28	12620.17
477.46	12493.78
477.64	12681.02
477.82	12872.95
478.00	13039.12
478.18	12877.63
478.36	13032.10
478.54	13078.91
478.72	13259.13
478.90	13614.90
479.08	13741.29
479.26	13593.83
479.44	13624.26
479.62	13722.56
479.80	13916.83
479.98	14047.90
480.16	14122.79
480.34	13907.46
480.52	14370.89
480.70	14391.95
480.88	14239.82
481.06	14616.65
481.24	14471.53
481.41	14988.79
481.59	15033.26
481.77	15082.41
481.95	15169.01
482.13	14991.13
482.31	15204.12
482.49	15681.59
482.67	15332.85
482.85	15630.10
483.03	15765.85
483.21	15946.07
483.39	15751.81
483.57	16137.99
483.74	16060.76
483.92	16308.85
484.10	16020.97
484.28	16585.04
484.46	16734.83
484.64	17186.55
484.82	16924.41
485.00	16924.41
485.18	17095.27
485.35	17083.57
485.53	16765.26
485.71	16526.52
485.89	16821.43
486.07	17055.48
486.25	17476.78
486.43	17563.38
486.61	17504.87
486.78	17879.35
486.96	18515.98
487.14	18401.29
487.32	18677.48
487.50	18820.25
487.68	18937.27
487.85	19068.34
488.03	19056.64
488.21	19438.15
488.39	19529.43
488.57	19300.06
488.75	19751.78
488.92	20126.27
489.10	19939.02
489.28	20079.46
489.46	20388.41
489.64	20585.01
489.81	21198.23
489.99	21116.31
490.17	21170.15
490.35	21486.12
490.53	21132.70
490.70	21366.75
490.88	21298.88
491.06	21687.40
491.24	21556.33
491.41	21467.39
491.59	21605.49
491.77	21490.80
491.95	22001.04
492.13	22471.48
492.30	22295.94
492.48	22436.38
492.66	22548.72
492.84	22785.12
493.01	22918.53
493.19	23012.15
493.37	23065.98
493.54	23255.56
493.72	23112.79
493.90	23889.85
494.08	23992.83
494.25	24016.24
494.43	23908.57
494.61	24243.27
494.79	24570.94
494.96	24311.14
495.14	24760.53
495.32	24809.68
495.49	24922.02
495.67	24648.18
495.85	24931.39
496.02	25088.20
496.20	25156.08
496.38	25495.46
496.55	25514.18
496.73	26092.29
496.91	25750.57
497.09	26068.89
497.26	25989.31
497.44	25832.49
497.62	26043.14
497.79	26082.93
497.97	26223.36
498.14	26349.75
498.32	26773.39
498.50	27105.74
498.67	27220.43
498.85	27087.02
499.03	27363.20
499.20	27740.03
499.38	27503.64
499.56	27466.19
499.73	27421.72
499.91	27955.36
500.08	27819.61
500.26	27381.93
500.44	27847.69
500.61	27831.31
500.79	27431.08
500.97	27754.07
501.14	27864.08
501.32	28130.90
501.49	28053.66
501.67	28360.27
501.84	28533.47
502.02	28718.37
502.20	28533.47
502.37	29149.03
502.55	28765.18
502.72	29144.35
502.90	29130.31
503.07	28837.74
503.25	29057.75
503.43	28842.42
503.60	28858.81
503.78	29125.63
503.95	29294.14
504.13	29553.94
504.30	29544.58
504.48	29919.07
504.65	30129.72
504.83	30125.04
505.01	30321.64
505.18	30445.69
505.36	30562.72
505.53	30291.21
505.71	30955.93
505.88	30492.50
506.06	30569.74
506.23	30913.80
506.41	30504.20
506.58	31110.40
506.76	31115.08
506.93	31150.19
507.11	31339.77
507.28	31395.95
507.46	30850.60
507.63	30892.73
507.81	31110.40
507.98	31236.79
508.16	31580.85
508.33	31257.85
508.50	32037.25
508.68	31896.82
508.85	32343.86
509.03	32404.72
509.20	32215.13
509.38	31913.20
509.55	32063.00
509.73	32217.47
509.90	32783.88
510.08	32526.42
510.25	32493.66
510.42	32357.91
510.60	33216.88
510.77	32531.11
510.95	33282.42
511.12	33209.86
511.30	33638.18
511.47	33039.00
511.64	33759.89
511.82	33535.20
511.99	33553.92
512.17	33399.44
512.34	33544.56
512.51	33837.12
512.69	33778.61
512.86	33715.42
513.04	34333.32
513.21	33703.71
513.38	33708.40
513.56	34136.71
513.73	34033.73
513.90	34174.16
514.08	34412.90
514.25	34185.86
514.43	34204.59
514.60	34295.87
514.77	34607.16
514.95	34272.46
515.12	34387.15
515.29	34930.16
515.47	35363.15
515.64	35229.74
515.81	35058.88
515.99	35140.80
516.16	35105.70
516.33	34756.96
516.51	35079.95
516.68	34312.25
516.85	34328.64
517.03	34646.95
517.20	35250.81
517.37	35363.15
517.54	35400.60
517.72	35129.10
517.89	35002.71
518.06	34976.97
518.24	35283.58
518.41	35606.57
518.58	35274.21
518.75	35573.80
518.93	35833.60
519.10	35803.17
519.27	35981.06
519.45	36271.28
519.62	36357.88
519.79	36388.31
519.96	36870.46
520.14	36872.80
520.31	36697.26
520.48	36407.03
520.65	36893.86
520.83	37266.01
521.00	36699.60
521.17	37322.18
521.34	37535.17
521.52	37177.07
521.69	37493.04
521.86	37256.65
522.03	37649.86
522.20	37333.89
522.38	37146.64
522.55	37610.07
522.72	37427.51
522.89	37422.83
523.07	37862.85
523.24	37560.92
523.41	38045.41
523.58	37986.89
523.75	38377.76
523.92	38410.53
524.10	38649.27
524.27	38548.62
524.44	38422.23
524.61	38408.19
524.78	38960.56
524.96	38787.36
525.13	38682.03
525.30	39407.60
525.47	39014.39
525.64	38883.32
525.81	39042.48
525.98	38738.21
526.16	38560.33
526.33	38085.20
526.50	38438.62
526.67	38415.21
526.84	38363.72
527.01	38663.31
527.18	38775.66
527.36	39070.56
527.53	39821.87
527.70	39831.24
527.87	39892.09
528.04	39220.36
528.21	39725.91
528.38	39861.66
528.55	39922.52
528.72	39927.20
528.89	40453.82
529.07	40247.85
529.24	39702.51
529.41	40053.59
529.58	39421.64
529.75	39927.20
529.92	40311.05
530.09	40156.57
530.26	40664.47
530.43	40767.45
530.60	40470.20
530.77	40250.19
530.94	41022.57
531.11	40823.62
531.28	41006.19
531.46	40961.72
531.63	40701.92
531.80	40814.26
531.97	40727.66
532.14	40830.65
532.31	39807.83
532.48	40561.48
532.65	40896.18
532.82	40837.67
532.99	41207.47
533.16	40732.34
533.33	41165.34
533.50	41092.79
533.67	41172.36
533.84	41209.81
534.01	41207.47
534.18	40804.90
534.35	41347.90
534.52	41911.97
534.69	41287.05
534.86	42071.13
535.03	41553.87
535.20	42038.36
535.37	41933.04
535.54	42036.02
535.71	41523.44
535.88	41860.48
536.05	41717.71
536.22	42085.17
536.38	42117.94
536.55	41895.59
536.72	41916.65
536.89	41918.99
537.06	41895.59
537.23	42274.76
537.40	42171.77
537.57	42323.91
537.74	42267.73
537.91	42728.82
538.08	42494.77
538.25	41825.37
538.42	42548.60
538.59	42576.69
538.75	42520.51
538.92	42579.03
539.09	42789.67
539.26	42834.14
539.43	42609.45
539.60	42733.50
539.77	42377.74
539.94	42630.52
540.11	42429.23
540.28	42700.73
540.44	42815.42
540.61	42660.94
540.78	42953.51
540.95	42473.70
541.12	42932.45
541.29	42960.53
541.46	42834.14
541.62	43159.48
541.79	43632.27
541.96	42784.99
542.13	43042.45
542.30	43026.07
542.47	43161.82
542.63	43728.23
542.80	43604.18
542.97	43550.35
543.14	43826.53
543.31	43695.46
543.48	44023.14
543.64	44411.67
543.81	44088.67
543.98	44252.51
544.15	43915.47
544.32	44189.31
544.48	44189.31
544.65	44465.50
544.82	44357.83
544.99	43941.22
545.16	44222.08
545.32	44271.23
545.49	44879.77
545.66	44889.13
545.83	44479.54
546.00	44598.91
546.16	44011.43
546.33	44341.45
546.50	43697.80
546.67	44247.83
546.83	44142.50
547.00	44456.14
547.17	44465.50
547.34	44626.99
547.50	44069.95
547.67	44957.01
547.84	44690.19
548.00	45146.59
548.17	45244.90
548.34	44849.35
548.51	45134.89
548.67	44884.45
548.84	44912.54
549.01	45020.20
549.18	45258.94
549.34	45048.29
549.51	45429.80
549.68	45495.33
549.84	45219.15
550.01	45610.02
550.18	45088.08
550.34	45521.08
550.51	45125.53
550.68	45104.46
550.84	45240.21
551.01	45111.49
551.18	45329.16
551.34	45193.40
551.51	45724.71
551.68	45251.92
551.84	45350.22
552.01	45663.85
552.18	45490.65
552.34	45432.14
552.51	45464.91
552.68	45415.76
552.84	45443.84
553.01	45855.78
553.18	45427.46
553.34	46134.30
553.51	45366.60
553.67	45481.29
553.84	46115.58
554.01	46028.98
554.17	45841.73
554.34	46003.23
554.51	45537.46
554.67	46124.94
554.84	45820.67
555.00	45935.35
555.17	45876.84
555.33	46150.68
555.50	45516.40
555.67	45787.90
555.83	45851.09
556.00	46148.34
556.16	46492.40
556.33	46211.54
556.50	45886.20
556.66	46162.39
556.83	45682.58
556.99	45867.48
557.16	46223.24
557.32	46270.05
557.49	46277.07
557.65	46129.62
557.82	46089.83
557.98	46153.02
558.15	46153.02
558.32	46164.73
558.48	46272.39
558.65	45773.86
558.81	45972.80
558.98	46555.60
559.14	45815.99
559.31	46138.98
559.47	46536.87
559.64	46387.08
559.80	46445.59
559.97	46724.11
560.13	46064.08
560.30	46356.65
560.46	46143.66
560.63	46630.49
560.79	46651.56
560.96	46770.93
561.12	46511.13
561.29	46305.16
561.45	46223.24
561.61	45998.55
561.78	46571.98
561.94	46164.73
562.11	46099.19
562.27	46153.02
562.44	46625.81
562.60	46768.58
562.77	47082.22
562.93	46663.26
563.10	46749.86
563.26	46459.63
563.42	46990.94
563.59	46373.03
563.75	46485.38
563.92	46611.77
564.08	46894.97
564.24	46820.08
564.41	46658.58
564.57	46937.10
564.74	46894.97
564.90	46665.60
565.07	46513.47
565.23	47023.70
565.39	46923.06
565.56	46469.00
565.72	46813.05
565.88	46522.83
566.05	46370.69
566.21	46953.49
566.38	46398.78
566.54	46997.96
566.70	46759.22
566.87	46815.40
567.03	46883.27
567.19	47093.92
567.36	46850.50
567.52	46529.85
567.68	46894.97
567.85	46986.25
568.01	46925.40
568.17	46890.29
568.34	46932.42
568.50	46951.15
568.66	47072.85
568.83	47213.29
568.99	46461.97
569.15	46859.87
569.32	46696.03
569.48	46478.36
569.64	47019.02
569.81	46756.88
569.97	46904.34
570.13	46838.80
570.30	46742.84
570.46	46855.18
570.62	46780.29
570.78	46691.35
570.95	46958.17
571.11	46906.68
571.27	46768.58
571.43	46810.71
571.60	46883.27
571.76	46656.24
571.92	47037.75
572.09	47196.90
572.25	47012.00
572.41	47339.68
572.57	47136.05
572.74	47372.44
572.90	46862.21
573.06	46923.06
573.22	47138.39
573.38	47161.79
573.55	47187.54
573.71	47264.78
573.87	47175.84
574.03	46934.76
574.20	47147.75
574.36	46930.08
574.52	47119.66
574.68	47325.63
574.84	47267.12
575.01	46941.78
575.17	46960.51
575.33	46878.59
575.49	46815.40
575.65	47040.09
575.82	47040.09
575.98	47098.60
576.14	47016.68
576.30	47110.30
576.46	46918.38
576.62	46857.52
576.79	47042.43
576.95	46946.47
577.11	47168.82
577.27	46976.89
577.43	47454.36
577.59	47452.02
577.75	46693.69
577.92	46576.66
578.08	46677.30
578.24	47002.64
578.40	46909.02
578.56	47086.90
578.72	47365.42
578.88	47260.10
579.04	47217.97
579.21	47161.79
579.37	46930.08
579.53	47248.39
579.69	47210.95
579.85	46939.44
580.01	47473.09
580.17	46969.87
580.33	46995.62
580.49	47203.92
580.65	47356.06
580.82	47232.01
580.98	47302.23
581.14	47107.96
581.30	47358.40
581.46	47119.66
581.62	47126.69
581.78	46913.70
581.94	47636.92
582.10	47353.72
582.26	47304.57
582.42	47107.96
582.58	47283.50
582.74	47077.54
582.90	46965.19
583.06	47494.15
583.22	47358.40
583.38	47744.59
583.54	47393.51
583.70	47449.68
583.86	47524.58
584.02	46988.60
584.18	47625.22
584.34	47257.76
584.50	47288.18
584.66	47243.71
584.82	47086.90
584.98	46981.57
585.14	47257.76
585.30	47161.79
585.46	47407.55
585.62	46836.46
585.78	46761.56
585.94	46677.30
586.10	46735.82
586.26	47131.37
586.42	47304.57
586.58	47325.63
586.74	47145.41
586.90	46813.05
587.06	47117.32
587.22	47302.23
587.38	47072.85
587.54	47016.68
587.70	47208.61
587.86	47105.62
588.02	47037.75
588.18	47578.41
588.34	47278.82
588.49	46906.68
588.65	46138.98
588.81	46401.12
588.97	46422.19
589.13	46632.83
589.29	46784.97
589.45	47112.64
589.61	47168.82
589.77	47290.52
589.93	46831.78
590.08	47555.00
590.24	47859.27
590.40	47152.43
590.56	47480.11
590.72	47278.82
590.88	47079.88
591.04	47414.57
591.20	47463.72
591.35	47374.78
591.51	47402.87
591.67	47480.11
591.83	47145.41
591.99	47281.16
592.15	47452.02
592.31	47590.11
592.46	47414.57
592.62	47220.31
592.78	47140.73
592.94	47786.72
593.10	47295.21
593.26	47552.66
593.41	46843.48
593.57	46930.08
593.73	47363.08
593.89	47824.17
594.05	47283.50
594.20	47089.24
594.36	47388.83
594.52	46990.94
594.68	46754.54
594.84	47580.75
594.99	47306.91
595.15	47409.89
595.31	47297.55
595.47	47285.84
595.62	47278.82
595.78	47082.22
595.94	47491.81
596.10	47842.89
596.25	47339.68
596.41	47704.80
596.57	47236.69
596.73	47166.48
596.88	47122.01
597.04	47552.66
597.20	47278.82
597.36	47433.30
597.51	47786.72
597.67	47526.92
597.83	47035.41
597.99	47313.93
598.14	47234.35
598.30	47660.33
598.46	47447.34
598.61	47000.30
598.77	46913.70
598.93	47377.12
599.09	47880.34
599.24	47517.56
599.40	47374.78
599.56	47760.97
599.71	47409.89
599.87	47164.14
600.03	47311.59
600.18	47012.00
600.34	46951.15
600.50	47217.97
600.65	47021.36
600.81	47227.33
600.97	47318.61
601.12	47522.24
601.28	46857.52
601.44	47758.63
601.59	47063.49
601.75	46806.03
601.91	46960.51
602.06	47297.55
602.22	47419.25
602.37	47276.48
602.53	47124.35
602.69	47461.38
602.84	47510.53
603.00	46667.94
603.16	47356.06
603.31	46960.51
603.47	47435.64
603.62	47304.57
603.78	47189.88
603.94	47421.59
604.09	47749.27
604.25	47447.34
604.40	47182.86
604.56	47276.48
604.71	47463.72
604.87	47365.42
605.03	47224.99
605.18	47229.67
605.34	47234.35
605.49	47084.56
605.65	47285.84
605.80	46930.08
605.96	47334.99
606.12	47107.96
606.27	47388.83
606.43	46934.76
606.58	46827.10
606.74	46768.58
606.89	47131.37
607.05	47187.54
607.20	47430.96
607.36	47178.18
607.51	47037.75
607.67	47290.52
607.82	46721.77
607.98	46810.71
608.13	46813.05
608.29	46815.40
608.44	46504.10
608.60	46679.64
608.75	47021.36
608.91	46913.70
609.06	46639.86
609.22	46909.02
609.37	46974.55
609.53	46520.49
609.68	47056.47
609.84	46930.08
609.99	46817.74
610.15	46370.69
610.30	46349.63
610.46	46366.01
610.61	46398.78
610.76	46534.53
610.92	46738.16
611.07	47208.61
611.23	46609.43
611.38	46518.15
611.54	46490.06
611.69	46700.71
611.84	46284.09
612.00	46342.61
612.15	46082.81
612.31	46452.61
612.46	46834.12
612.62	46679.64
612.77	46394.10
612.92	46525.17
613.08	45759.81
613.23	46136.64
613.39	46906.68
613.54	46330.90
613.69	45998.55
613.85	45874.50
614.00	46316.86
614.15	46476.02
614.31	46162.39
614.46	46567.30
614.62	46279.41
614.77	46202.18
614.92	46248.99
615.08	46176.43
615.23	46028.98
615.38	45867.48
615.54	45928.33
615.69	46066.42
615.84	46227.92
616.00	45830.03
616.15	45741.09
616.30	45804.28
616.46	45167.66
616.61	45408.73
616.76	45944.72
616.92	45287.03
617.07	45626.40
617.22	45588.95
617.37	45460.23
617.53	46066.42
617.68	45631.08
617.83	46038.34
617.99	45860.46
618.14	45397.03
618.29	45017.86
618.45	45291.71
618.60	45228.51
618.75	45076.38
618.90	45235.53
619.06	45170.00
619.21	45500.01
619.36	45902.59
619.51	45434.48
619.67	45184.04
619.82	45354.90
619.97	45572.57
620.12	44886.79
620.28	44760.40
620.43	45251.92
620.58	45111.49
620.73	45113.83
620.89	45097.44
621.04	45394.69
621.19	45088.08
621.34	45174.68
621.49	44863.39
621.65	44935.95
621.80	44868.07
621.95	44636.36
622.10	44751.04
622.25	44334.43
622.41	44732.32
622.56	44673.81
622.71	44811.90
622.86	44889.13
623.01	44706.57
623.16	44715.93
623.32	44631.68
623.47	44814.24
623.62	44470.18
623.77	44582.52
623.92	45027.23
624.07	44694.87
624.23	44282.94
624.38	44615.29
624.53	44294.64
624.68	44336.77
624.83	44215.06
624.98	44617.63
625.13	43796.10
625.29	44027.82
625.44	43899.09
625.59	43753.97
625.74	44437.41
625.89	43817.17
626.04	44222.08
626.19	43950.58
626.34	44086.33
626.49	44584.86
626.65	44163.57
626.80	44474.86
626.95	43498.86
627.10	43634.61
627.25	43540.99
627.40	43594.82
627.55	43267.14
627.70	43210.97
627.85	43089.26
628.00	43145.44
628.15	43374.81
628.30	43569.07
628.45	43519.92
628.60	43964.62
628.76	43201.61
628.91	43817.17
629.06	43384.17
629.21	43328.00
629.36	43629.93
629.51	42813.08
629.66	43222.67
629.81	42787.33
629.96	43456.73
630.11	43814.83
630.26	43402.89
630.41	43147.78
630.56	43316.29
630.71	43044.79
630.86	42904.36
631.01	42735.84
631.16	43222.67
631.31	43246.08
631.46	42394.12
631.61	43079.90
631.76	43000.32
631.91	42691.37
632.06	43236.72
632.21	43061.18
632.36	43075.22
632.51	42539.24
632.66	42813.08
632.81	42604.77
632.96	42759.25
633.10	42621.16
633.25	42742.86
633.40	42878.61
633.55	42389.44
633.70	42543.92
633.85	42274.76
634.00	42621.16
634.15	42742.86
634.30	42141.35
634.45	42218.58
634.60	42506.47
634.75	42347.31
634.90	42302.84
635.05	42204.54
635.19	42501.79
635.34	42419.87
635.49	42265.39
635.64	42075.81
635.79	42033.68
635.94	41904.95
636.09	42302.84
636.24	41778.56
636.39	41890.91
636.53	42267.73
636.68	42014.96
636.83	42050.06
636.98	41900.27
637.13	41521.10
637.28	42363.70
637.43	42157.73
637.57	42129.64
637.72	41890.91
637.87	41879.21
638.02	42192.84
638.17	41947.08
638.32	41706.01
638.46	41670.90
638.61	42115.60
638.76	41291.73
638.91	41965.81
639.06	41965.81
639.20	42150.71
639.35	42139.00
639.50	41359.61
639.65	41523.44
639.80	41750.48
639.94	41368.97
640.09	41350.24
640.24	41418.12
640.39	41146.62
640.54	41130.23
640.68	41057.68
640.83	41219.17
640.98	41151.30
641.13	41179.39
641.27	41523.44
641.42	40781.49
641.57	40942.99
641.72	41055.34
641.86	40989.80
642.01	40830.65
642.16	40842.35
642.31	40720.64
642.45	40903.20
642.60	40568.51
642.75	41106.83
642.90	41078.74
643.04	40823.62
643.19	40961.72
643.34	41221.52
643.48	40329.77
643.63	40601.27
643.78	40566.16
643.93	40634.04
644.07	40711.28
644.22	40465.52
644.37	40304.02
644.51	40634.04
644.66	40378.92
644.81	40746.39
644.95	40804.90
645.10	40746.39
645.25	40374.24
645.39	40760.43
645.54	40493.61
645.69	40449.14
645.83	40250.19
645.98	40273.60
646.13	39711.87
646.27	40350.84
646.42	39929.54
646.57	39938.90
646.71	40081.67
646.86	40311.05
647.00	40231.47
647.15	40109.76
647.30	39758.68
647.44	39730.59
647.59	40034.86
647.74	40168.27
647.88	39442.71
648.03	40098.06
648.17	40079.33
648.32	39976.35
648.47	40112.10
648.61	39461.43
648.76	40079.33
648.90	40023.16
649.05	39667.40
649.20	39381.85
649.34	39611.23
649.49	39957.63
649.63	39157.16
649.78	39606.55
649.92	39384.19
650.07	40025.50
650.21	39372.49
650.36	39646.33
650.51	40121.46
650.65	40135.51
650.80	40519.35
650.94	39821.87
651.09	39660.38
651.23	39590.16
651.38	39643.99
651.52	39122.05
651.67	39192.27
651.81	39407.60
651.96	39400.58
652.10	39175.89
652.25	39323.34
652.39	39232.06
652.54	39243.76
652.68	39234.40
652.83	38960.56
652.97	39086.95
653.12	39271.85
653.26	38682.03
653.41	38974.60
653.55	38602.46
653.70	39033.11
653.84	38480.75
653.99	38808.42
654.13	38976.94
654.27	38569.69
654.42	38705.44
654.56	38888.00
654.71	39353.77
654.85	38883.32
655.00	38803.74
655.14	38803.74
655.29	38199.88
655.43	38438.62
655.57	37954.13
655.72	38064.13
655.86	37703.69
656.01	38263.08
656.15	37975.19
656.30	38167.12
656.44	37720.07
656.58	37631.13
656.73	37956.47
656.87	38216.27
657.01	38096.90
657.16	37916.68
657.30	37820.72
657.45	37745.82
657.59	38094.56
657.73	37661.56
657.88	38265.42
658.02	38433.94
658.16	38932.47
658.31	38218.61
658.45	38508.83
658.60	37874.55
658.74	38202.22
658.88	37949.45
659.03	37593.68
659.17	38059.45
659.31	37443.89
659.46	37780.93
659.60	37961.15
659.74	37420.48
659.89	37048.34
660.03	37282.39
660.17	37741.14
660.32	37724.75
660.46	37797.31
660.60	37340.91
660.74	37617.09
660.89	37607.73
661.03	37090.47
661.17	37273.03
661.32	37069.40
661.46	37022.59
661.60	37048.34
661.74	37092.81
661.89	37029.62
662.03	36793.22
662.17	36900.89
662.31	36582.57
662.46	36943.02
662.60	36889.18
662.74	36507.68
662.88	36524.06
663.03	36147.23
663.17	36477.25
663.31	36280.64
663.45	36364.90
663.60	36067.66
663.74	36671.51
663.88	36161.28
664.02	35969.35
664.17	35983.40
664.31	35981.06
664.45	36243.20
664.59	35793.81
664.73	36065.31
664.88	35777.43
665.02	35700.19
665.16	35714.23
665.30	35431.03
665.44	35246.13
665.59	35543.38
665.73	35681.47
665.87	35140.80
666.01	35433.37
666.15	35196.98
666.29	35599.55
666.44	35370.18
666.58	35108.04
666.72	35353.79
666.86	35161.87
667.00	35145.48
667.14	34675.04
667.28	34471.41
667.43	34785.04
667.57	35023.78
667.71	34590.78
667.85	34771.00
667.99	34848.24
668.13	34944.20
668.27	34672.70
668.41	34614.18
668.56	33912.02
668.70	34642.27
668.84	34249.06
668.98	34188.21
669.12	33827.76
669.26	34085.22
669.40	33816.06
669.54	34321.62
669.68	33895.64
669.82	33567.96
669.96	33905.00
670.10	33811.38
670.25	34085.22
670.39	33474.34
670.53	33591.37
670.67	33415.83
670.81	33509.45
670.95	33762.23
671.09	33401.79
671.23	33354.97
671.37	33291.78
671.51	33237.95
671.65	33242.63
671.79	33078.79
671.93	32877.51
672.07	32992.19
672.21	32804.95
672.35	33046.02
672.49	32589.62
672.63	32765.16
672.77	32821.33
672.91	32821.33
673.05	32905.59
673.19	32479.61
673.33	32084.06
673.47	32098.11
673.61	31789.16
673.75	32030.23
673.89	31426.37
674.03	31742.35
674.17	31981.08
674.31	32151.94
674.45	32067.68
674.59	32079.38
674.73	32341.52
674.87	31882.78
675.01	31522.34
675.15	31562.12
675.29	31370.20
675.43	31466.16
675.56	31353.82
675.70	31005.08
675.84	30916.14
675.98	30312.28
676.12	30981.67
676.26	31239.13
676.40	31527.02
676.54	30925.50
676.68	31152.53
676.82	30305.26
676.96	30871.67
677.10	30466.75
677.23	30483.14
677.37	30022.05
677.51	30459.73
677.65	30005.67
677.79	29734.17
677.93	29844.17
678.07	29820.77
678.21	29434.58
678.34	29411.17
678.48	29413.51
678.62	29085.84
678.76	29069.45
678.90	28739.44
679.04	28968.81
679.18	28947.75
679.31	28723.05
679.45	28769.86
679.59	28315.80
679.73	28659.86
679.87	28390.70
680.00	28336.87
680.14	28285.37
680.28	28322.82
680.42	28109.83
680.56	28353.25
680.70	28322.82
680.83	28334.53
680.97	27953.02
681.11	27873.44
681.25	27538.74
681.39	27660.45
681.52	27496.61
681.66	27386.61
681.80	27662.79
681.94	27234.47
682.07	27330.44
682.21	26918.50
682.35	26785.09
682.49	26948.93
682.62	26792.11
682.76	26817.86
682.90	26478.48
683.04	26548.70
683.17	26258.47
683.31	26448.05
683.45	26597.85
683.59	26167.19
683.72	26204.64
683.86	26057.18
684.00	26445.71
684.13	26209.32
684.27	25898.03
684.41	25769.30
684.55	25626.53
684.68	25818.45
684.82	25434.60
684.96	25289.49
685.09	25179.48
685.23	25200.55
685.37	25490.77
685.50	24966.49
685.64	25078.84
685.78	25029.69
685.91	24624.78
686.05	24547.54
686.19	24397.74
686.32	24297.10
686.46	24187.10
686.60	23695.58
686.73	23452.17
686.87	23506.00
687.01	23545.79
687.14	23515.36
687.28	23501.32
687.42	23332.80
687.55	23503.66
687.69	23805.59
687.82	23482.59
687.96	23594.94
688.10	23211.09
688.23	23035.55
688.37	22717.24
688.50	22764.05
688.64	22932.57
688.78	22892.78
688.91	22834.27
689.05	22782.77
689.18	22614.26
689.32	22258.49
689.46	22092.32
689.59	22436.38
689.73	22265.52
689.86	22143.81
690.00	22029.12
690.13	22125.08
690.27	22291.26
690.41	21624.21
690.54	21682.72
690.68	21729.53
690.81	21717.83
690.95	22003.38
691.08	21666.34
691.22	21523.57
691.35	21598.46
691.49	21518.89
691.62	21261.43
691.76	21453.35
691.89	21717.83
692.03	21291.85
692.16	20779.28
692.30	20547.56
692.43	20940.77
692.57	20580.33
692.70	20374.36
692.84	20540.54
692.97	20027.96
693.11	20126.27
693.24	20156.69
693.38	20032.65
693.51	20114.56
693.65	20133.29
693.78	19969.45
693.92	19854.76
694.05	19700.29
694.19	19690.93
694.32	19433.47
694.45	19494.32
694.59	19131.54
694.72	19140.90
694.86	19400.70
694.99	19236.86
695.13	19344.53
695.26	18967.70
695.39	18628.32
695.53	19136.22
695.66	19283.67
695.80	18925.57
695.93	18728.97
696.07	18853.02
696.20	18431.72
696.33	18728.97
696.47	18302.99
696.60	17977.65
696.73	18148.51
696.87	18300.65
697.00	18270.22
697.14	17909.78
697.27	17958.93
697.40	18017.44
697.54	17706.15
697.67	17820.84
697.80	17596.15
697.94	17446.35
698.07	17289.54
698.21	17172.51
698.34	17202.94
698.47	17027.40
698.61	17003.99
698.74	16624.83
698.87	16798.02
699.01	17011.01
699.14	16671.64
699.27	16610.78
699.40	16439.92
699.54	16563.97
699.67	16271.40
699.80	16320.56
699.94	16290.13
700.07	16456.31
700.20	16350.98
700.34	16173.10
700.47	16156.72
700.60	16545.25
700.73	16025.65
700.87	15730.74
701.00	16056.08
701.13	15775.21
701.26	15419.45
701.40	15887.56
701.53	15403.07
701.66	15431.15
701.79	15208.80
701.93	15302.42
702.06	15227.53
702.19	15197.10
702.32	14876.44
702.46	15330.51
702.59	15262.63
702.72	14941.98
702.85	15089.43
702.99	15002.83
703.12	15014.54
703.25	14860.06
703.38	14504.30
703.51	14651.75
703.65	14750.06
703.78	14586.22
703.91	14223.44
704.04	14452.81
704.17	14494.94
704.31	14178.97
704.44	14342.80
704.57	14291.31
704.70	13790.44
704.83	13830.23
704.96	13984.70
705.10	13813.84
705.23	13846.61
>>>>>End Processed Spectral Data<<<<<
