SpectraSuite Data File
++++++++++++++++++++++++++++++++++++
Date: Fri Oct 25 10:43:22 EDT 2013
User: price-jones
Dark Spectrum Present: No
Reference Spectrum Present: No
Number of Sampled Component Spectra: 1
Spectrometers: USB2+H05261
Integration Time (usec): 100000 (USB2+H05261)
Spectra Averaged: 1 (USB2+H05261)
Boxcar Smoothing: 0 (USB2+H05261)
Correct for Electrical Dark: No (USB2+H05261)
Strobe/Lamp Enabled: No (USB2+H05261)
Correct for Detector Non-linearity: No (USB2+H05261)
Correct for Stray Light: No (USB2+H05261)
Number of Pixels in Processed Spectrum: 2048
>>>>>Begin Processed Spectral Data<<<<<
365.73	133.41
365.92	133.41
366.12	133.41
366.32	7.02
366.52	18.72
366.72	107.66
366.91	28.09
367.11	46.81
367.31	0.00
367.51	21.06
367.70	0.00
367.90	46.81
368.10	0.00
368.30	102.98
368.49	42.13
368.69	42.13
368.89	161.50
369.09	0.00
369.28	86.60
369.48	56.17
369.68	105.32
369.87	88.94
370.07	119.37
370.27	159.16
370.47	152.13
370.66	383.85
370.86	433.00
371.06	458.74
371.25	507.90
371.45	402.57
371.65	421.30
371.84	416.62
372.04	491.51
372.24	538.32
372.44	489.17
372.63	500.87
372.83	545.34
373.03	514.92
373.22	585.13
373.42	533.64
373.62	543.00
373.81	463.43
374.01	592.16
374.21	519.60
374.40	512.58
374.60	578.11
374.79	617.90
374.99	552.37
375.19	573.43
375.38	557.05
375.58	505.56
375.78	578.11
375.97	547.69
376.17	634.29
376.37	601.52
376.56	627.26
376.76	643.65
376.95	592.16
377.15	650.67
377.35	613.22
377.54	580.45
377.74	615.56
377.93	664.71
378.13	734.93
378.33	739.61
378.52	697.48
378.72	634.29
378.91	662.37
379.11	634.29
379.31	660.03
379.50	571.09
379.70	638.97
379.89	688.12
380.09	699.82
380.28	624.92
380.48	655.35
380.68	648.33
380.87	631.94
381.07	720.88
381.26	723.23
381.46	702.16
381.65	709.18
381.85	753.65
382.04	744.29
382.24	692.80
382.43	774.72
382.63	697.48
382.83	746.63
383.02	795.78
383.22	690.46
383.41	667.05
383.61	774.72
383.80	795.78
384.00	784.08
384.19	816.85
384.39	781.74
384.58	741.95
384.78	784.08
384.97	800.46
385.17	765.36
385.36	755.99
385.56	828.55
385.75	812.17
385.95	910.47
386.14	800.46
386.34	870.68
386.53	898.77
386.72	835.57
386.92	854.30
387.11	830.89
387.31	828.55
387.50	819.19
387.70	830.89
387.89	908.13
388.09	835.57
388.28	833.23
388.48	875.36
388.67	919.83
388.86	994.73
389.06	863.66
389.25	1008.77
389.45	959.62
389.64	985.37
389.84	997.07
390.03	1046.22
390.22	1062.60
390.42	968.98
390.61	1022.81
390.81	1015.79
391.00	1076.65
391.19	1001.75
391.39	1102.39
391.58	1034.52
391.78	1020.47
391.97	1053.24
392.16	1015.79
392.36	1071.97
392.55	1055.58
392.75	1027.50
392.94	964.30
393.13	950.26
393.33	1036.86
393.52	1018.13
393.71	1081.33
393.91	1060.26
394.10	1046.22
394.29	1109.41
394.49	1184.31
394.68	1270.91
394.88	1132.82
395.07	1268.57
395.26	1273.25
395.46	1299.00
395.65	1280.27
395.84	1270.91
396.04	1235.80
396.23	1198.35
396.42	1160.91
396.62	1156.22
396.81	1247.51
397.00	1252.19
397.19	1181.97
397.39	1331.76
397.58	1406.66
397.77	1369.21
397.97	1317.72
398.16	1486.24
398.35	1432.41
398.55	1481.56
398.74	1526.03
398.93	1542.41
399.12	1425.39
399.32	1469.86
399.51	1504.96
399.70	1558.80
399.90	1565.82
400.09	1673.48
400.28	1661.78
400.47	1668.80
400.67	1675.82
400.86	1621.99
401.05	1652.42
401.24	1722.63
401.44	1767.10
401.63	1666.46
401.82	1713.27
402.01	1685.19
402.21	1734.34
402.40	1701.57
402.59	1795.19
402.78	1865.41
402.97	1703.91
403.17	1827.96
403.36	1839.66
403.55	1858.39
403.74	1858.39
403.93	1806.89
404.13	1879.45
404.32	1874.77
404.51	1937.96
404.70	1919.24
404.89	1895.83
405.09	2003.50
405.28	1893.49
405.47	1980.09
405.66	1935.62
405.85	2003.50
406.05	2040.95
406.24	1994.14
406.43	2045.63
406.62	2200.10
406.81	2064.35
407.00	2057.33
407.20	2087.76
407.39	2059.67
407.58	2195.42
407.77	2150.95
407.96	2253.94
408.15	2251.60
408.34	2263.30
408.54	2340.54
408.73	2260.96
408.92	2342.88
409.11	2380.32
409.30	2282.02
409.49	2267.98
409.68	2307.77
409.87	2389.69
410.07	2244.57
410.26	2377.98
410.45	2401.39
410.64	2546.50
410.83	2497.35
411.02	2614.38
411.21	2530.12
411.40	2574.59
411.59	2651.83
411.78	2565.23
411.98	2647.15
412.17	2633.10
412.36	2621.40
412.55	2761.83
412.74	2689.28
412.93	2850.77
413.12	2684.59
413.31	2836.73
413.50	2825.03
413.69	2899.92
413.88	2892.90
414.07	2867.16
414.26	3068.44
414.45	2923.33
414.64	2953.76
414.83	3133.98
415.02	3119.93
415.22	3019.29
415.41	3187.81
415.60	3199.51
415.79	3267.39
415.98	3183.13
416.17	3215.90
416.36	3286.11
416.55	3222.92
416.74	3351.65
416.93	3321.22
417.12	3290.79
417.31	3295.47
417.50	3382.07
417.69	3592.72
417.88	3508.46
418.07	3398.46
418.26	3527.19
418.45	3517.83
418.64	3578.68
418.83	3552.93
419.02	3686.34
419.21	3604.42
419.39	3590.38
419.58	3550.59
419.77	3492.08
419.96	3639.53
420.15	3712.09
420.34	3623.15
420.53	3702.73
420.72	3782.31
420.91	3786.99
421.10	3925.08
421.29	3950.82
421.48	3826.78
421.67	3854.86
421.86	3904.01
422.05	3803.37
422.24	3723.79
422.43	3824.44
422.61	3920.40
422.80	3918.06
422.99	3822.09
423.18	3843.16
423.37	4119.34
423.56	3894.65
423.75	4011.68
423.94	3948.48
424.13	3768.26
424.32	3831.46
424.50	4053.81
424.69	4149.77
424.88	4117.00
425.07	3789.33
425.26	4023.38
425.45	4002.32
425.64	4098.28
425.83	3934.44
426.01	3988.27
426.20	3920.40
426.39	4086.58
426.58	4091.26
426.77	4018.70
426.96	4007.00
427.15	4004.66
427.33	4126.36
427.52	4086.58
427.71	4163.81
427.90	4191.90
428.09	4271.48
428.28	4238.71
428.46	4142.75
428.65	4154.45
428.84	4245.73
429.03	4203.60
429.22	4039.76
429.40	4212.96
429.59	4138.07
429.78	3978.91
429.97	4042.11
430.16	4229.35
430.34	4131.05
430.53	4133.39
430.72	4257.43
430.91	4248.07
431.10	4329.99
431.28	4521.92
431.47	4517.23
431.66	4791.08
431.85	4545.32
432.03	4610.86
432.22	4711.50
432.41	4657.67
432.60	4664.69
432.79	4648.30
432.97	4816.82
433.16	4933.85
433.35	4699.80
433.54	4884.70
433.72	4741.93
433.91	4823.84
434.10	4781.71
434.28	4718.52
434.47	4844.91
434.66	4943.21
434.85	4915.12
435.03	5022.79
435.22	4835.55
435.41	5205.35
435.59	5118.75
435.78	5193.65
435.97	5151.52
436.16	5217.05
436.34	5198.33
436.53	5200.67
436.72	5303.65
436.90	5214.71
437.09	5210.03
437.28	5118.75
437.46	5139.82
437.65	5254.50
437.84	5165.56
438.02	5203.01
438.21	5313.02
438.40	5078.96
438.58	5376.21
438.77	5385.57
438.96	5362.17
439.14	5511.96
439.33	5682.82
439.52	5640.69
439.70	5598.56
439.89	5774.10
440.08	5687.50
440.26	5577.50
440.45	5774.10
440.63	5834.96
440.82	6010.50
441.01	5966.03
441.19	5912.19
441.38	6167.31
441.57	6160.29
441.75	6134.54
441.94	6366.26
442.12	6289.02
442.31	6272.64
442.50	6324.13
442.68	6459.88
442.87	6333.49
443.05	6392.00
443.24	6312.42
443.43	6387.32
443.61	6490.31
443.80	6689.25
443.98	6417.75
444.17	6181.35
444.35	6560.52
444.54	6626.06
444.73	6565.20
444.91	6487.96
445.10	6441.15
445.28	6420.09
445.47	6429.45
445.65	6410.73
445.84	6469.24
446.02	6555.84
446.21	6588.61
446.39	6672.87
446.58	6607.33
446.77	6801.60
446.95	6717.34
447.14	6675.21
447.32	6803.94
447.51	6668.19
447.69	6658.82
447.88	6808.62
448.06	6722.02
448.25	6707.98
448.43	6806.28
448.62	6867.13
448.80	6534.78
448.99	6850.75
449.17	6939.69
449.36	6768.83
449.54	7021.61
449.73	7138.63
449.91	7262.68
450.10	7077.78
450.28	7288.43
450.46	7152.68
450.65	7274.38
450.83	7094.16
451.02	7138.63
451.20	7302.47
451.39	7267.36
451.57	7248.64
451.76	7117.57
451.94	7316.51
452.13	7379.71
452.31	7187.79
452.49	7140.97
452.68	7248.64
452.86	7300.13
453.05	7344.60
453.23	7260.34
453.42	7335.24
453.60	7447.58
453.78	7482.69
453.97	7391.41
454.15	7337.58
454.34	7335.24
454.52	7360.98
454.70	7496.74
454.89	7503.76
455.07	7681.64
455.26	7723.77
455.44	7742.49
455.62	7627.81
455.81	7637.17
455.99	7826.75
456.17	7857.18
456.36	7765.90
456.54	8072.51
456.73	8079.53
456.91	8379.12
457.09	8100.59
457.28	8512.53
457.46	8030.38
457.64	8255.07
457.83	8016.33
458.01	7941.44
458.19	8358.05
458.38	8081.87
458.56	8327.63
458.74	8241.03
458.93	8126.34
459.11	8461.04
459.29	8224.64
459.48	8414.23
459.66	8524.23
459.84	8367.42
460.03	8486.78
460.21	8594.45
460.39	8711.47
460.57	8678.71
460.76	8486.78
460.94	8559.34
461.12	8636.58
461.31	8699.77
461.49	8802.75
461.67	8578.06
461.85	9130.43
462.04	8849.57
462.22	9324.69
462.40	9231.07
462.59	8975.95
462.77	8828.50
462.95	8854.25
463.13	8854.25
463.32	8968.93
463.50	9050.85
463.68	9102.34
463.86	9186.60
464.05	8997.02
464.23	8936.17
464.41	9085.96
464.59	9001.70
464.78	9142.13
464.96	9144.47
465.14	9160.86
465.32	9441.72
465.50	9249.80
465.69	9376.19
465.87	9212.35
466.05	9207.67
466.23	9092.98
466.41	9291.93
466.60	9298.95
466.78	9329.38
466.96	9195.96
467.14	9357.46
467.32	9252.14
467.51	9521.30
467.69	9214.69
467.87	9533.00
468.05	9554.07
468.23	9413.63
468.41	9371.50
468.60	9633.64
468.78	9584.49
468.96	9619.60
469.14	9668.75
469.32	9914.51
469.50	9469.81
469.69	9792.80
469.87	9635.99
470.05	10008.13
470.23	9767.06
470.41	9834.93
470.59	9846.63
470.77	9991.75
470.95	9888.76
471.14	10127.50
471.32	9935.57
471.50	10413.04
471.68	10497.30
471.86	10328.78
472.04	10317.08
472.22	10693.91
472.40	10277.29
472.58	10366.23
472.77	10377.94
472.95	10527.73
473.13	10949.03
473.31	10604.97
473.49	10530.07
473.67	10773.49
473.85	10862.43
474.03	10916.26
474.21	10953.71
474.39	11246.27
474.57	11152.65
474.75	10977.11
474.93	11138.61
475.12	11101.16
475.30	11421.81
475.48	11211.17
475.66	11449.90
475.84	11222.87
476.02	11515.44
476.20	11524.80
476.38	11709.70
476.56	12081.85
476.74	11751.83
476.92	11887.58
477.10	11463.94
477.28	12138.02
477.46	12248.02
477.64	12100.57
477.82	12245.68
478.00	12603.78
478.18	12547.61
478.36	12664.64
478.54	12671.66
478.72	12805.07
478.90	13121.04
479.08	13186.58
479.26	13231.05
479.44	13209.98
479.62	13345.73
479.80	13289.56
479.98	13582.13
480.16	13593.83
480.34	13600.85
480.52	13933.21
480.70	13951.93
480.88	13668.73
481.06	14155.56
481.24	13973.00
481.41	14183.65
481.59	14593.24
481.77	14487.92
481.95	14431.74
482.13	14609.62
482.31	14710.27
482.49	14773.46
482.67	15267.31
482.85	15012.20
483.03	15239.23
483.21	15529.45
483.39	15279.02
483.57	15548.18
483.74	15644.14
483.92	15644.14
484.10	15779.89
484.28	15805.64
484.46	16032.67
484.64	16407.16
484.82	16079.48
485.00	16201.19
485.18	16507.80
485.35	16482.05
485.53	16280.77
485.71	16013.95
485.89	16688.02
486.07	16631.85
486.25	16765.26
486.43	17083.57
486.61	17153.79
486.78	17296.56
486.96	17493.16
487.14	17530.61
487.32	17556.36
487.50	17804.46
487.68	18246.82
487.85	18370.86
488.03	18499.59
488.21	18757.05
488.39	18658.75
488.57	18752.37
488.75	19098.77
488.92	19204.10
489.10	19466.24
489.28	19248.57
489.46	19878.17
489.64	19686.25
489.81	20184.78
489.99	20074.77
490.17	20081.80
490.35	20402.45
490.53	20318.19
490.70	20711.40
490.88	20657.57
491.06	20917.37
491.24	20659.91
491.41	20435.22
491.59	20388.41
491.77	20720.76
491.95	20807.36
492.13	21343.35
492.30	21198.23
492.48	21729.53
492.66	21769.32
492.84	22146.15
493.01	22202.32
493.19	22150.83
493.37	22373.18
493.54	22719.58
493.72	22583.83
493.90	22602.55
494.08	22691.49
494.25	23143.22
494.43	23302.37
494.61	23475.57
494.79	23674.52
494.96	23370.25
495.14	23257.90
495.32	23810.27
495.49	23660.48
495.67	23763.46
495.85	24095.82
496.02	24027.94
496.20	24442.21
496.38	24367.32
496.55	24629.46
496.73	24959.47
496.91	24837.76
497.09	25130.33
497.26	25572.69
497.44	25193.53
497.62	25460.35
497.79	25268.42
497.97	25088.20
498.14	25668.66
498.32	25575.03
498.50	25853.56
498.67	26125.06
498.85	26092.29
499.03	26155.49
499.20	26389.54
499.38	26396.56
499.56	26721.90
499.73	26504.23
499.91	26361.45
500.08	26719.56
500.26	26281.88
500.44	26485.50
500.61	26843.60
500.79	26661.04
500.97	27147.87
501.14	27080.00
501.32	26998.08
501.49	26981.70
501.67	27213.41
501.84	26962.97
502.02	27847.69
502.20	27824.29
502.37	27866.42
502.55	27700.24
502.72	28006.85
502.90	28034.94
503.07	27620.66
503.25	28254.95
503.43	28119.20
503.60	28439.85
503.78	28023.23
503.95	27995.15
504.13	28758.16
504.30	28821.36
504.48	28521.77
504.65	29008.60
504.83	29088.18
505.01	29120.95
505.18	29062.43
505.36	29741.19
505.53	29223.93
505.71	29530.54
505.88	29460.32
506.06	29729.48
506.23	29617.14
506.41	29734.17
506.58	29881.62
506.76	30312.28
506.93	30258.45
507.11	29818.42
507.28	29923.75
507.46	30228.02
507.63	29834.81
507.81	30101.63
507.98	29900.34
508.16	30490.16
508.33	30567.40
508.50	30644.63
508.68	30731.23
508.85	30972.31
509.03	30686.76
509.20	31192.32
509.38	31615.96
509.55	30998.06
509.73	31154.87
509.90	31171.25
510.08	31641.70
510.25	31379.56
510.42	31569.15
510.60	31730.64
510.77	31782.13
510.95	32268.97
511.12	32116.83
511.30	32205.77
511.47	32198.75
511.64	32512.38
511.82	32652.81
511.99	32414.08
512.17	32336.84
512.34	32257.26
512.51	32629.41
512.69	32833.04
512.86	32617.71
513.04	33055.39
513.21	32868.14
513.38	32570.90
513.56	32964.10
513.73	32446.85
513.90	33064.75
514.08	33015.60
514.25	33060.07
514.43	33298.80
514.60	33371.36
514.77	33354.97
514.95	33872.23
515.12	33106.88
515.29	33736.48
515.47	34164.80
515.64	34127.35
515.81	33436.89
515.99	33345.61
516.16	33998.62
516.33	33659.24
516.51	33619.46
516.68	33291.78
516.85	33268.37
517.03	33516.47
517.20	34143.74
517.37	34464.39
517.54	34555.67
517.72	34391.83
517.89	33792.65
518.06	34178.84
518.24	33780.95
518.41	34501.84
518.58	34314.59
518.75	34316.93
518.93	34689.08
519.10	34483.11
519.27	35077.61
519.45	35023.78
519.62	35253.15
519.79	35686.15
519.96	35456.78
520.14	35414.65
520.31	35042.50
520.48	35386.56
520.65	35466.14
520.83	35803.17
521.00	35765.73
521.17	35747.00
521.34	36533.42
521.52	36084.04
521.69	36119.15
521.86	36016.16
522.03	36123.83
522.20	36392.99
522.38	36023.19
522.55	36257.24
522.72	36240.86
522.89	35957.65
523.07	36844.71
523.24	36290.01
523.41	36823.65
523.58	36643.43
523.75	37467.30
523.92	37130.26
524.10	37303.46
524.27	37078.77
524.44	37029.62
524.61	37689.65
524.78	37773.91
524.96	37535.17
525.13	37436.87
525.30	37935.40
525.47	37811.35
525.64	37909.66
525.81	37832.42
525.98	37647.52
526.16	37649.86
526.33	37361.97
526.50	37766.88
526.67	37083.45
526.84	37392.40
527.01	37083.45
527.18	38064.13
527.36	37816.04
527.53	38167.12
527.70	37940.08
527.87	38452.66
528.04	38337.98
528.21	38246.69
528.38	38653.95
528.55	38457.34
528.72	38628.20
528.89	39005.03
529.07	39042.48
529.24	38218.61
529.41	38623.52
529.58	38373.08
529.75	38548.62
529.92	39388.88
530.09	39225.04
530.26	39620.59
530.43	39321.00
530.60	38913.75
530.77	39234.40
530.94	39445.05
531.11	39222.70
531.28	39414.62
531.46	39421.64
531.63	39402.92
531.80	39194.61
531.97	39491.86
532.14	39409.94
532.31	39000.35
532.48	39779.74
532.65	39669.74
532.82	39381.85
532.99	39332.70
533.16	39669.74
533.33	39571.44
533.50	40006.78
533.67	39473.13
533.84	40137.85
534.01	40418.71
534.18	40203.38
534.35	40514.67
534.52	40135.51
534.69	40311.05
534.86	40509.99
535.03	40790.86
535.20	40634.04
535.37	40627.02
535.54	41104.49
535.71	40692.55
535.88	41160.66
536.05	40402.33
536.22	41118.53
536.38	40708.94
536.55	41209.81
536.72	40439.78
536.89	40498.29
537.06	40889.16
537.23	40971.08
537.40	40968.74
537.57	40924.27
537.74	41329.18
537.91	41036.61
538.08	41242.58
538.25	41120.87
538.42	41106.83
538.59	41153.64
538.75	41003.85
538.92	41305.77
539.09	41715.37
539.26	41031.93
539.43	41343.22
539.60	41525.78
539.77	40734.68
539.94	41031.93
540.11	41624.09
540.28	41586.64
540.44	41273.01
540.61	41230.88
540.78	41294.07
540.95	41895.59
541.12	41801.97
541.29	41675.58
541.46	42007.94
541.62	42162.41
541.79	41846.44
541.96	41532.81
542.13	41888.57
542.30	42061.77
542.47	42141.35
542.63	41727.07
542.80	42120.28
542.97	42429.23
543.14	42789.67
543.31	42206.88
543.48	42347.31
543.64	42766.27
543.81	42930.11
543.98	42728.82
544.15	42780.31
544.32	42527.53
544.48	43119.69
544.65	42403.49
544.82	43213.31
544.99	42871.59
545.16	42986.28
545.32	42696.05
545.49	43026.07
545.66	43653.33
545.83	42731.16
546.00	43550.35
546.16	43552.69
546.33	42904.36
546.50	43133.73
546.67	43398.21
546.83	42792.01
547.00	42887.98
547.17	43370.13
547.34	43290.55
547.50	43302.25
547.67	43435.66
547.84	43473.11
548.00	43910.79
548.17	43648.65
548.34	43601.84
548.51	43924.83
548.67	43777.38
548.84	44009.09
549.01	43728.23
549.18	43695.46
549.34	43793.76
549.51	43339.70
549.68	43711.84
549.84	43927.17
550.01	43952.92
550.18	43782.06
550.34	43487.15
550.51	43927.17
550.68	43718.87
550.84	43585.46
551.01	44076.97
551.18	44432.73
551.34	43838.23
551.51	43765.68
551.68	43833.55
551.84	44076.97
552.01	44011.43
552.18	44119.10
552.34	43988.03
552.51	44243.15
552.68	43819.51
552.84	44320.38
553.01	44687.85
553.18	44065.27
553.34	44725.30
553.51	44371.88
553.67	44449.11
553.84	44959.35
554.01	44673.81
554.17	44273.57
554.34	44807.22
554.51	44701.89
554.67	44900.84
554.84	44219.74
555.00	44339.11
555.17	44477.20
555.33	44737.00
555.50	44861.05
555.67	45361.92
555.83	44589.55
556.00	45235.53
556.16	45069.36
556.33	44835.30
556.50	44795.51
556.66	44580.18
556.83	44250.17
556.99	44910.20
557.16	44528.69
557.32	44425.71
557.49	45085.74
557.65	44856.37
557.82	44559.12
557.98	44964.03
558.15	45153.62
558.32	45270.64
558.48	44828.28
558.65	45172.34
558.81	44900.84
558.98	44849.35
559.14	45099.78
559.31	45059.99
559.47	45120.85
559.64	45500.01
559.80	44999.14
559.97	45099.78
560.13	44896.16
560.30	44959.35
560.46	45258.94
560.63	45315.11
560.79	45588.95
560.96	45387.67
561.12	45177.02
561.29	45043.61
561.45	45242.56
561.61	45109.14
561.78	45020.20
561.94	45247.24
562.11	45155.96
562.27	44975.73
562.44	45485.97
562.60	45404.05
562.77	45591.30
562.93	45682.58
563.10	45792.58
563.26	45141.91
563.42	45539.80
563.59	45607.68
563.75	45497.67
563.92	45752.79
564.08	45750.45
564.24	45717.68
564.41	45525.76
564.57	46057.06
564.74	45687.26
564.90	45352.56
565.07	45460.23
565.23	45579.59
565.39	45368.94
565.56	45212.13
565.72	45083.40
565.88	45518.74
566.05	45558.53
566.21	45689.60
566.38	45130.21
566.54	45820.67
566.70	45680.24
566.87	45982.16
567.03	45801.94
567.19	46431.55
567.36	45776.20
567.52	45759.81
567.68	45713.00
567.85	45579.59
568.01	45993.87
568.17	45457.88
568.34	45649.81
568.50	45556.19
568.66	45617.04
568.83	45904.93
568.99	45057.65
569.15	45811.31
569.32	45495.33
569.48	46148.34
569.64	45848.75
569.81	45827.69
569.97	45862.80
570.13	45762.15
570.30	45666.19
570.46	45640.45
570.62	45350.22
570.78	45382.99
570.95	45378.31
571.11	45869.82
571.27	45595.98
571.43	45675.55
571.60	45532.78
571.76	45474.27
571.92	45584.27
572.09	45965.78
572.25	46003.23
572.41	46340.27
572.57	46188.13
572.74	46457.29
572.90	46012.59
573.06	46188.13
573.22	45785.56
573.38	46122.60
573.55	45862.80
573.71	45837.05
573.87	45900.25
574.03	45511.72
574.20	45855.78
574.36	45687.26
574.52	46115.58
574.68	46174.09
574.84	45893.22
575.01	45518.74
575.17	45780.88
575.33	46106.21
575.49	45584.27
575.65	46007.91
575.82	46143.66
575.98	45972.80
576.14	46410.48
576.30	46167.07
576.46	45481.29
576.62	45546.82
576.79	45804.28
576.95	45764.49
577.11	45991.53
577.27	45935.35
577.43	45574.91
577.59	45495.33
577.75	45729.39
577.92	45556.19
578.08	45717.68
578.24	45488.31
578.40	45916.63
578.56	45778.54
578.72	45785.56
578.88	46202.18
579.04	46143.66
579.21	45823.01
579.37	45752.79
579.53	45933.01
579.69	46059.40
579.85	45815.99
580.01	45769.18
580.17	45771.52
580.33	45769.18
580.49	46256.01
580.65	45958.76
580.82	46085.15
580.98	45764.49
581.14	45263.62
581.30	46178.77
581.46	45881.52
581.62	45855.78
581.78	45757.47
581.94	46426.87
582.10	46057.06
582.26	46590.70
582.42	45930.67
582.58	46256.01
582.74	45862.80
582.90	45921.31
583.06	46419.84
583.22	46344.95
583.38	46005.57
583.54	46007.91
583.70	46354.31
583.86	45680.24
584.02	45888.54
584.18	46438.57
584.34	45853.44
584.50	45989.19
584.66	45844.07
584.82	45965.78
584.98	46131.96
585.14	46064.08
585.30	45841.73
585.46	45759.81
585.62	45375.97
585.78	45872.16
585.94	45289.37
586.10	45834.71
586.26	45918.97
586.42	46096.85
586.58	46003.23
586.74	46309.84
586.90	46349.63
587.06	46115.58
587.22	45923.65
587.38	45904.93
587.54	45682.58
587.70	46309.84
587.86	45956.42
588.02	45956.42
588.18	46323.88
588.34	45668.53
588.49	45610.02
588.65	45626.40
588.81	45778.54
588.97	45815.99
589.13	45460.23
589.29	45338.52
589.45	45633.42
589.61	46010.25
589.77	46094.51
589.93	45977.48
590.08	46291.12
590.24	46068.76
590.40	46335.59
590.56	46948.81
590.72	46305.16
590.88	46160.05
591.04	46087.49
591.20	46567.30
591.35	46305.16
591.51	46354.31
591.67	46014.93
591.83	46209.20
591.99	46057.06
592.15	46052.38
592.31	46110.89
592.46	46260.69
592.62	45968.12
592.78	46700.71
592.94	46178.77
593.10	46855.18
593.26	46532.19
593.41	46431.55
593.57	45970.46
593.73	46080.47
593.89	46284.09
594.05	46169.41
594.20	46033.66
594.36	46497.08
594.52	46124.94
594.68	46113.23
594.84	45577.25
594.99	46394.10
595.15	46330.90
595.31	46302.82
595.47	46478.36
595.62	46066.42
595.78	45933.01
595.94	46546.23
596.10	46426.87
596.25	46267.71
596.41	46028.98
596.57	45677.90
596.73	46504.10
596.88	46075.79
597.04	45895.56
597.20	46274.73
597.36	45989.19
597.51	46827.10
597.67	46326.22
597.83	45883.86
597.99	46314.52
598.14	46066.42
598.30	46277.07
598.46	46117.92
598.61	46286.43
598.77	46209.20
598.93	45750.45
599.09	46160.05
599.24	46330.90
599.40	46543.89
599.56	46614.11
599.71	46700.71
599.87	46260.69
600.03	46401.12
600.18	45916.63
600.34	46174.09
600.50	46698.37
600.65	46150.68
600.81	46312.18
600.97	46562.62
601.12	46710.07
601.28	46351.97
601.44	46190.47
601.59	46174.09
601.75	46347.29
601.91	46314.52
602.06	45766.84
602.22	46284.09
602.37	46101.53
602.53	46431.55
602.69	46543.89
602.84	46021.95
603.00	45942.38
603.16	46274.73
603.31	46267.71
603.47	45951.74
603.62	45801.94
603.78	45984.51
603.94	46267.71
604.09	46579.00
604.25	46064.08
604.40	46138.98
604.56	45748.11
604.71	46382.40
604.87	46511.13
605.03	45865.14
605.18	45808.96
605.34	45879.18
605.49	45940.04
605.65	46494.74
605.80	45867.48
605.96	46127.28
606.12	46153.02
606.27	45897.91
606.43	46064.08
606.58	46101.53
606.74	46263.03
606.89	45986.85
607.05	45776.20
607.20	46068.76
607.36	46131.96
607.51	46527.51
607.67	45984.51
607.82	45820.67
607.98	46045.36
608.13	45984.51
608.29	45689.60
608.44	45287.03
608.60	45448.52
608.75	45933.01
608.91	45684.92
609.06	45797.26
609.22	46127.28
609.37	45858.12
609.53	45553.85
609.68	45998.55
609.84	45963.44
609.99	45539.80
610.15	45488.31
610.30	45532.78
610.46	45565.55
610.61	45762.15
610.76	45965.78
610.92	46007.91
611.07	45755.13
611.23	45790.24
611.38	45794.92
611.54	45401.71
611.69	45036.59
611.84	45413.41
612.00	45413.41
612.15	44966.37
612.31	45368.94
612.46	45528.10
612.62	45567.89
612.77	45375.97
612.92	45008.50
613.08	44942.97
613.23	45095.10
613.39	44877.43
613.54	44802.53
613.69	44919.56
613.85	44882.11
614.00	45439.16
614.15	44987.44
614.31	45116.17
614.46	45027.23
614.62	45392.35
614.77	45069.36
614.92	45057.65
615.08	45113.83
615.23	44882.11
615.38	44837.64
615.54	44296.98
615.69	44573.16
615.84	44556.78
616.00	44643.38
616.15	44767.43
616.30	45010.84
616.46	44540.39
616.61	44481.88
616.76	44617.63
616.92	44411.67
617.07	44774.45
617.22	44519.33
617.37	44512.31
617.53	45010.84
617.68	44996.80
617.83	44879.77
617.99	44655.08
618.14	44507.63
618.29	45020.20
618.45	44514.65
618.60	44479.54
618.75	44011.43
618.90	43798.44
619.06	44100.37
619.21	44357.83
619.36	44224.42
619.51	43896.75
619.67	44168.25
619.82	43765.68
619.97	44306.34
620.12	43901.43
620.28	43693.12
620.43	44048.88
620.58	43896.75
620.73	44114.42
620.89	44142.50
621.04	44105.06
621.19	44069.95
621.34	43985.69
621.49	43676.74
621.65	44079.31
621.80	44105.06
621.95	43920.15
622.10	43686.10
622.25	43693.12
622.41	43770.36
622.56	43391.19
622.71	44093.35
622.86	43810.15
623.01	43716.53
623.16	43510.56
623.32	43330.34
623.47	43622.90
623.62	43768.02
623.77	43473.11
623.92	43409.92
624.07	43459.07
624.23	43023.73
624.38	43515.24
624.53	43349.06
624.68	43592.48
624.83	43276.51
624.98	43042.45
625.13	43246.08
625.29	43042.45
625.44	42911.38
625.59	42960.53
625.74	42696.05
625.89	43302.25
626.04	42895.00
626.19	43192.25
626.34	43012.02
626.49	43105.65
626.65	43049.47
626.80	42567.32
626.95	42705.41
627.10	42595.41
627.25	42857.55
627.40	42871.59
627.55	42541.58
627.70	42665.63
627.85	42623.50
628.00	42422.21
628.15	42817.76
628.30	42665.63
628.45	42607.11
628.60	42445.62
628.76	42895.00
628.91	42801.38
629.06	42265.39
629.21	42155.39
629.36	42447.96
629.51	42452.64
629.66	42707.76
629.81	42195.18
629.96	42230.29
630.11	41841.76
630.26	42471.36
630.41	42520.51
630.56	42031.34
630.71	41839.42
630.86	41879.21
631.01	42066.45
631.16	41975.17
631.31	42021.98
631.46	42064.11
631.61	42504.13
631.76	41741.11
631.91	42382.42
632.06	42787.33
632.21	41879.21
632.36	42298.16
632.51	41378.33
632.66	42209.22
632.81	41275.35
632.96	41708.35
633.10	41813.67
633.25	41839.42
633.40	42110.92
633.55	41930.70
633.70	41200.45
633.85	41724.73
634.00	41558.55
634.15	41968.15
634.30	41366.63
634.45	41523.44
634.60	41443.87
634.75	41577.28
634.90	41399.40
635.05	41811.33
635.19	41600.68
635.34	41368.97
635.49	41137.26
635.64	41132.57
635.79	41106.83
635.94	41467.27
636.09	41223.86
636.24	41134.92
636.39	40758.09
636.53	41029.59
636.68	40907.88
636.83	41053.00
636.98	40840.01
637.13	40832.99
637.28	41532.81
637.43	41219.17
637.57	41120.87
637.72	40919.59
637.87	40966.40
638.02	41013.21
638.17	41113.85
638.32	41020.23
638.46	40591.91
638.61	40444.46
638.76	40896.18
638.91	40832.99
639.06	40727.66
639.20	40797.88
639.35	40673.83
639.50	40947.67
639.65	40928.95
639.80	40615.32
639.94	40598.93
640.09	40161.25
640.24	40580.21
640.39	40514.67
640.54	40910.22
640.68	40444.46
640.83	40222.11
640.98	39887.41
641.13	40151.89
641.27	40381.26
641.42	40573.19
641.57	40109.76
641.72	40257.21
641.86	40364.88
642.01	40128.48
642.16	39927.20
642.31	40098.06
642.45	40421.05
642.60	39681.44
642.75	40079.33
642.90	40011.46
643.04	40217.43
643.19	39878.05
643.34	39784.43
643.48	40016.14
643.63	39746.98
643.78	40076.99
643.93	39866.34
644.07	39468.45
644.22	39363.13
644.37	39253.12
644.51	39489.52
644.66	39842.94
644.81	39723.57
644.95	39749.32
645.10	39522.29
645.25	39084.61
645.39	39653.36
645.54	39842.94
645.69	39248.44
645.83	39056.52
645.98	39229.72
646.13	39189.93
646.27	39442.71
646.42	39175.89
646.57	39290.57
646.71	39213.34
646.86	39512.92
647.00	39168.87
647.15	39035.45
647.30	39115.03
647.44	39147.80
647.59	39091.63
647.74	38813.10
647.88	39035.45
648.03	39040.14
648.17	38930.13
648.32	38983.96
648.47	38433.94
648.61	38705.44
648.76	39178.23
648.90	38995.67
649.05	38934.81
649.20	38806.08
649.34	38635.22
649.49	38604.80
649.63	38642.24
649.78	38663.31
649.92	38787.36
650.07	39264.83
650.21	38651.61
650.36	38731.18
650.51	38593.09
650.65	38555.64
650.80	38815.44
650.94	38756.93
651.09	38813.10
651.23	38246.69
651.38	37904.98
651.52	38211.59
651.67	38597.77
651.81	38234.99
651.96	38305.21
652.10	37998.60
652.25	38122.65
652.39	38211.59
652.54	38047.75
652.68	37888.59
652.83	38169.46
652.97	38749.91
653.12	38452.66
653.26	37797.31
653.41	38036.05
653.55	38394.15
653.70	37879.23
653.84	38326.27
653.99	37970.51
654.13	37909.66
654.27	38087.54
654.42	38003.28
654.56	38157.75
654.71	38162.43
654.85	37837.10
655.00	38143.71
655.14	37900.29
655.29	37500.06
655.43	37207.50
655.57	37371.33
655.72	37099.83
655.86	37284.73
656.01	36968.76
656.15	36488.95
656.30	36938.33
656.44	37156.00
656.58	37434.53
656.73	37163.03
656.87	37383.04
657.01	37191.11
657.16	37258.99
657.30	37041.32
657.45	37097.49
657.59	37256.65
657.73	36982.80
657.88	37448.57
658.02	37322.18
658.16	36706.62
658.31	37085.79
658.45	37088.13
658.60	37254.31
658.74	37235.58
658.88	37008.55
659.03	36458.52
659.17	37013.23
659.31	36322.77
659.46	36540.44
659.60	36779.18
659.74	36573.21
659.89	36701.94
660.03	36622.36
660.17	36362.56
660.32	36629.38
660.46	36486.61
660.60	36573.21
660.74	36257.24
660.89	36374.27
661.03	36456.18
661.17	36301.71
661.32	35903.82
661.46	35969.35
661.60	35686.15
661.74	35723.60
661.89	35873.39
662.03	36217.45
662.17	35887.43
662.31	36016.16
662.46	36072.34
662.60	35901.48
662.74	35447.41
662.88	35637.00
663.03	35442.73
663.17	35824.24
663.31	35573.80
663.45	35847.64
663.60	35438.05
663.74	35388.90
663.88	35431.03
664.02	35346.77
664.17	35531.67
664.31	34873.98
664.45	34962.92
664.59	34946.54
664.73	34630.57
664.88	34962.92
665.02	34642.27
665.16	34487.79
665.30	34871.64
665.44	34632.91
665.59	34316.93
665.73	34820.15
665.87	34398.85
666.01	34653.97
666.15	34363.75
666.29	34649.29
666.44	34490.13
666.58	34066.50
666.72	34352.04
666.86	34527.58
667.00	34225.65
667.14	34330.98
667.28	33923.72
667.43	33834.78
667.57	34356.72
667.71	33867.55
667.85	34122.67
667.99	34277.15
668.13	34412.90
668.27	33977.56
668.41	33729.46
668.56	33778.61
668.70	33654.56
668.84	33394.76
668.98	33467.32
669.12	33214.54
669.26	33720.10
669.40	33078.79
669.54	33340.93
669.68	32964.10
669.82	32673.88
669.96	32872.82
670.10	32982.83
670.25	32914.95
670.39	32669.20
670.53	32847.08
670.67	32788.56
670.81	32725.37
670.95	32362.59
671.09	32606.00
671.23	32774.52
671.37	32701.96
671.51	32556.85
671.65	32128.53
671.79	32182.37
671.93	31981.08
672.07	32102.79
672.21	31882.78
672.35	32091.09
672.49	31828.95
672.63	31725.96
672.77	31974.06
672.91	32102.79
673.05	31796.18
673.19	31402.97
673.33	31538.72
673.47	31175.94
673.61	31180.62
673.75	31349.14
673.89	31021.46
674.03	31168.91
674.17	31124.44
674.31	31250.83
674.45	31454.46
674.59	31005.08
674.73	31089.34
674.87	31655.75
675.01	31037.84
675.15	30969.97
675.29	31133.81
675.43	30775.70
675.56	30597.82
675.70	30565.06
675.84	30499.52
675.98	29486.07
676.12	30459.73
676.26	30089.93
676.40	30361.43
676.54	30340.36
676.68	29883.96
676.82	29373.72
676.96	29675.65
677.10	29560.97
677.23	29291.80
677.37	29509.47
677.51	29675.65
677.65	29326.91
677.79	28929.02
677.93	28737.10
678.07	28648.16
678.21	28528.79
678.34	28776.89
678.48	28339.21
678.62	28606.03
678.76	28177.71
678.90	28266.65
679.04	28402.40
679.18	28219.84
679.31	28156.64
679.45	28018.55
679.59	27992.81
679.73	27997.49
679.87	27594.92
680.00	27360.86
680.14	27410.01
680.28	27618.32
680.42	27400.65
680.56	27611.30
680.70	27248.52
680.83	27124.47
680.97	27126.81
681.11	27089.36
681.25	27094.04
681.39	26834.24
681.52	27283.62
681.66	26689.13
681.80	27016.80
681.94	26396.56
682.07	26572.10
682.21	26618.91
682.35	26295.92
682.49	26295.92
682.62	26398.90
682.76	26019.74
682.90	26221.02
683.04	25776.32
683.17	25635.89
683.31	25745.89
683.45	25947.18
683.59	25806.75
683.72	25223.95
683.86	25568.01
684.00	25256.72
684.13	25149.06
684.27	24718.40
684.41	24931.39
684.55	25205.23
684.68	25142.03
684.82	24898.62
684.96	24711.38
685.09	24917.34
685.23	24563.92
685.37	24287.74
685.50	24276.04
685.64	24402.43
685.78	24191.78
685.91	24180.07
686.05	24095.82
686.19	23948.36
686.32	24032.62
686.46	23468.55
686.60	23339.82
686.73	23094.07
686.87	23131.51
687.01	23524.72
687.14	22965.34
687.28	22932.57
687.42	22621.28
687.55	22883.42
687.69	22918.53
687.82	22897.46
687.96	22937.25
688.10	22602.55
688.23	22424.67
688.37	22391.91
688.50	22593.19
688.64	22508.93
688.78	22185.94
688.91	22403.61
689.05	22106.36
689.18	22071.25
689.32	21680.38
689.46	21820.81
689.59	22405.95
689.73	22146.15
689.86	21439.31
690.00	21591.44
690.13	21947.20
690.27	21666.34
690.41	21378.45
690.54	21177.17
690.68	21490.80
690.81	21233.34
690.95	21235.68
691.08	20973.54
691.22	20882.26
691.35	21160.78
691.49	20900.98
691.62	20781.62
691.76	20559.27
691.89	20905.66
692.03	20617.78
692.16	20711.40
692.30	20381.38
692.43	20369.68
692.57	20285.42
692.70	19896.89
692.84	19878.17
692.97	19681.56
693.11	19747.10
693.24	19730.72
693.38	19559.86
693.51	19538.79
693.65	19662.84
693.78	19468.58
693.92	19367.93
694.05	19295.38
694.19	18995.79
694.32	19012.17
694.45	19129.20
694.59	19192.39
694.72	18956.00
694.86	19021.53
694.99	18661.09
695.13	18443.42
695.26	18696.20
695.39	18590.88
695.53	18485.55
695.66	18647.05
695.80	18324.05
695.93	18345.12
696.07	18132.13
696.20	18146.17
696.33	18008.08
696.47	18015.10
696.60	17855.95
696.73	17701.47
696.87	17776.37
697.00	17689.77
697.14	17383.16
697.27	17303.58
697.40	17125.70
697.54	17205.28
697.67	17209.96
697.80	17394.86
697.94	16732.49
698.07	16891.65
698.21	17001.65
698.34	17198.26
698.47	16945.48
698.61	16561.63
698.74	16807.39
698.87	16959.52
699.01	16376.73
699.14	16269.06
699.27	16128.63
699.40	16114.59
699.54	16091.18
699.67	16313.53
699.80	15899.26
699.94	15742.44
700.07	16283.11
700.20	16224.59
700.34	15807.98
700.47	15878.19
700.60	16002.24
700.73	15756.49
700.87	15421.79
701.00	15489.67
701.13	15239.23
701.26	15367.96
701.40	15253.27
701.53	15220.50
701.66	14848.36
701.79	14888.15
701.93	14951.34
702.06	15005.17
702.19	15077.73
702.32	15091.77
702.46	14635.37
702.59	14663.46
702.72	14586.22
702.85	14728.99
702.99	14689.20
703.12	14516.00
703.25	14162.58
703.38	14436.42
703.51	14455.15
703.65	14064.28
703.78	14001.08
703.91	13970.66
704.04	13987.04
704.17	14202.37
704.31	13713.20
704.44	13633.62
704.57	13671.07
704.70	13813.84
704.83	13579.79
704.96	13678.09
705.10	13509.57
705.23	13308.29
>>>>>End Processed Spectral Data<<<<<
