SpectraSuite Data File
++++++++++++++++++++++++++++++++++++
Date: Fri Oct 25 11:33:19 EDT 2013
User: price-jones
Dark Spectrum Present: No
Reference Spectrum Present: No
Number of Sampled Component Spectra: 1
Spectrometers: USB2+H05261
Integration Time (usec): 100000 (USB2+H05261)
Spectra Averaged: 1 (USB2+H05261)
Boxcar Smoothing: 0 (USB2+H05261)
Correct for Electrical Dark: No (USB2+H05261)
Strobe/Lamp Enabled: No (USB2+H05261)
Correct for Detector Non-linearity: No (USB2+H05261)
Correct for Stray Light: No (USB2+H05261)
Number of Pixels in Processed Spectrum: 2048
>>>>>Begin Processed Spectral Data<<<<<
365.73	269.16
365.92	269.16
366.12	269.16
366.32	159.16
366.52	191.92
366.72	133.41
366.91	138.09
367.11	159.16
367.31	110.01
367.51	203.63
367.70	163.84
367.90	163.84
368.10	117.03
368.30	189.58
368.49	145.11
368.69	203.63
368.89	220.01
369.09	236.39
369.28	262.14
369.48	184.90
369.68	205.97
369.87	234.05
370.07	280.86
370.27	229.37
370.47	285.55
370.66	458.74
370.86	571.09
371.06	521.94
371.25	601.52
371.45	559.39
371.65	540.66
371.84	578.11
372.04	526.62
372.24	561.73
372.44	594.50
372.63	603.86
372.83	613.22
373.03	568.75
373.22	566.41
373.42	648.33
373.62	624.92
373.81	592.16
374.01	758.33
374.21	664.71
374.40	624.92
374.60	685.78
374.79	737.27
374.99	655.35
375.19	727.91
375.38	573.43
375.58	744.29
375.78	709.18
375.97	627.26
376.17	613.22
376.37	739.61
376.56	711.52
376.76	620.24
376.95	709.18
377.15	688.12
377.35	643.65
377.54	744.29
377.74	655.35
377.93	662.37
378.13	758.33
378.33	704.50
378.52	734.93
378.72	723.23
378.91	711.52
379.11	664.71
379.31	734.93
379.50	713.86
379.70	709.18
379.89	784.08
380.09	734.93
380.28	667.05
380.48	842.59
380.68	669.39
380.87	730.25
381.07	802.80
381.26	826.21
381.46	870.68
381.65	753.65
381.85	760.67
382.04	800.46
382.24	781.74
382.43	772.38
382.63	751.31
382.83	798.12
383.02	763.01
383.22	821.53
383.41	807.48
383.61	819.19
383.80	774.72
384.00	765.36
384.19	779.40
384.39	748.97
384.58	819.19
384.78	760.67
384.97	847.27
385.17	849.61
385.36	837.91
385.56	866.00
385.75	887.06
385.95	821.53
386.14	842.59
386.34	929.19
386.53	947.92
386.72	903.45
386.92	933.87
387.11	858.98
387.31	950.26
387.50	854.30
387.70	849.61
387.89	880.04
388.09	894.08
388.28	840.25
388.48	903.45
388.67	901.11
388.86	882.38
389.06	870.68
389.25	891.74
389.45	954.94
389.64	950.26
389.84	964.30
390.03	1020.47
390.22	959.62
390.42	912.81
390.61	924.51
390.81	940.90
391.00	973.66
391.19	1008.77
391.39	1069.62
391.58	1008.77
391.78	999.41
391.97	1025.15
392.16	1039.20
392.36	1083.67
392.55	1149.20
392.75	1137.50
392.94	1107.07
393.13	1090.69
393.33	1125.80
393.52	1015.79
393.71	1067.28
393.91	1046.22
394.10	1083.67
394.29	1050.90
394.49	1074.31
394.68	1156.22
394.88	1191.33
395.07	1188.99
395.26	1160.91
395.46	1111.75
395.65	1217.08
395.84	1191.33
396.04	1186.65
396.23	1198.35
396.42	1203.04
396.62	1158.57
396.81	1212.40
397.00	1200.69
397.19	1231.12
397.39	1212.40
397.58	1196.01
397.77	1200.69
397.97	1224.10
398.16	1291.98
398.35	1317.72
398.55	1352.83
398.74	1329.42
398.93	1343.47
399.12	1348.15
399.32	1282.61
399.51	1263.89
399.70	1282.61
399.90	1369.21
400.09	1373.89
400.28	1355.17
400.47	1453.47
400.67	1486.24
400.86	1327.08
401.05	1399.64
401.24	1502.62
401.44	1430.07
401.63	1526.03
401.82	1476.88
402.01	1446.45
402.21	1509.65
402.40	1591.56
402.59	1418.36
402.78	1526.03
402.97	1514.33
403.17	1455.81
403.36	1549.43
403.55	1556.46
403.74	1565.82
403.93	1554.12
404.13	1617.31
404.32	1607.95
404.51	1638.38
404.70	1589.22
404.89	1636.03
405.09	1703.91
405.28	1650.08
405.47	1675.82
405.66	1717.95
405.85	1729.66
406.05	1760.08
406.24	1710.93
406.43	1722.63
406.62	1741.36
406.81	1877.11
407.00	1764.76
407.20	1774.13
407.39	1748.38
407.58	1891.15
407.77	1799.87
407.96	1834.98
408.15	1956.69
408.34	1928.60
408.54	1863.07
408.73	1949.67
408.92	2022.22
409.11	1963.71
409.30	2101.80
409.49	1930.94
409.68	2010.52
409.87	1966.05
410.07	2047.97
410.26	2015.20
410.45	2038.61
410.64	2125.21
410.83	2132.23
411.02	2108.82
411.21	2094.78
411.40	2148.61
411.59	2197.76
411.78	2225.85
411.98	2143.93
412.17	2349.90
412.36	2303.09
412.55	2272.66
412.74	2321.81
412.93	2335.85
413.12	2249.25
413.31	2312.45
413.50	2354.58
413.69	2434.16
413.88	2551.18
414.07	2450.54
414.26	2558.21
414.45	2581.61
414.64	2459.90
414.83	2551.18
415.02	2600.34
415.22	2616.72
415.41	2778.22
415.60	2698.64
415.79	2677.57
415.98	2740.77
416.17	2766.51
416.36	2691.62
416.55	2691.62
416.74	2883.54
416.93	2813.32
417.12	2855.45
417.31	2834.39
417.50	2834.39
417.69	2988.86
417.88	2930.35
418.07	2937.37
418.26	2920.99
418.45	3026.31
418.64	3222.92
418.83	3019.29
419.02	3059.08
419.21	3040.36
419.39	3171.43
419.58	3059.08
419.77	3091.85
419.96	3052.06
420.15	3190.15
420.34	3215.90
420.53	3108.23
420.72	3159.72
420.91	3272.07
421.10	3274.41
421.29	3412.50
421.48	3094.19
421.67	3351.65
421.86	3351.65
422.05	3262.71
422.24	3337.60
422.43	3297.81
422.61	3438.25
422.80	3375.05
422.99	3431.23
423.18	3412.50
423.37	3468.67
423.56	3332.92
423.75	3389.10
423.94	3433.57
424.13	3234.62
424.32	3267.39
424.50	3494.42
424.69	3454.63
424.88	3620.81
425.07	3389.10
425.26	3363.35
425.45	3527.19
425.64	3447.61
425.83	3522.51
426.01	3501.44
426.20	3557.61
426.39	3506.12
426.58	3421.86
426.77	3599.74
426.96	3595.06
427.15	3581.02
427.33	3604.42
427.52	3508.46
427.71	3646.55
427.90	3496.76
428.09	3604.42
428.28	3812.73
428.46	3744.86
428.65	3676.98
428.84	3861.88
429.03	3803.37
429.22	3747.20
429.40	3915.72
429.59	3840.82
429.78	3824.44
429.97	3679.32
430.16	3829.12
430.34	3840.82
430.53	3964.87
430.72	3911.04
430.91	3791.67
431.10	3955.51
431.28	3950.82
431.47	4135.73
431.66	4049.13
431.85	4025.72
432.03	4030.40
432.22	4063.17
432.41	4196.58
432.60	4039.76
432.79	4170.83
432.97	4201.26
433.16	4095.94
433.35	4196.58
433.54	4203.60
433.72	4315.95
433.91	4327.65
434.10	4273.82
434.28	4189.56
434.47	4325.31
434.66	4257.43
434.85	4351.06
435.03	4557.02
435.22	4440.00
435.41	4465.74
435.59	4329.99
435.78	4397.87
435.97	4596.81
436.16	4435.32
436.34	4397.87
436.53	4514.89
436.72	4622.56
436.90	4491.49
437.09	4510.21
437.28	4416.59
437.46	4564.04
437.65	4685.75
437.84	4599.15
438.02	4739.58
438.21	4844.91
438.40	4552.34
438.58	4868.31
438.77	4833.21
438.96	4800.44
439.14	4901.08
439.33	4997.04
439.52	4884.70
439.70	4954.91
439.89	5018.11
440.08	5107.05
440.26	5050.88
440.45	5135.14
440.63	5242.80
440.82	5097.69
441.01	5109.39
441.19	5228.76
441.38	5418.34
441.57	5418.34
441.75	5371.53
441.94	5577.50
442.12	5474.51
442.31	5504.94
442.50	5451.11
442.68	5310.68
442.87	5430.04
443.05	5399.62
443.24	5668.78
443.43	5530.69
443.61	5682.82
443.80	5781.12
443.98	5558.77
444.17	5533.03
444.35	5533.03
444.54	5767.08
444.73	5638.35
444.91	5631.33
445.10	5748.36
445.28	5713.25
445.47	5607.92
445.65	5729.63
445.84	5659.42
446.02	5734.31
446.21	5806.87
446.39	5888.79
446.58	5774.10
446.77	5701.54
446.95	5717.93
447.14	5755.38
447.32	5781.12
447.51	5764.74
447.69	5734.31
447.88	5626.65
448.06	5813.89
448.25	5755.38
448.43	5961.34
448.62	5802.19
448.80	5900.49
448.99	6017.52
449.17	5879.43
449.36	5921.56
449.54	5973.05
449.73	6108.80
449.91	6012.84
450.10	6010.50
450.28	6113.48
450.46	6038.58
450.65	6251.57
450.83	6043.26
451.02	6106.46
451.20	6256.25
451.39	6148.59
451.57	6153.27
451.76	6111.14
451.94	6258.59
452.13	6307.74
452.31	6366.26
452.49	6326.47
452.68	6352.21
452.86	6314.77
453.05	6504.35
453.23	6443.49
453.42	6305.40
453.60	6389.66
453.78	6459.88
453.97	6469.24
454.15	6621.38
454.34	6452.86
454.52	6633.08
454.70	6509.03
454.89	6623.72
455.07	6565.20
455.26	6602.65
455.44	6925.65
455.62	6691.59
455.81	6801.60
455.99	6771.17
456.17	6836.70
456.36	6822.66
456.54	6972.46
456.73	6981.82
456.91	7089.48
457.09	7108.21
457.28	7316.51
457.46	6967.77
457.64	6986.50
457.83	7049.69
458.01	7087.14
458.19	7236.94
458.38	7066.08
458.56	7466.31
458.74	7269.70
458.93	7014.59
459.11	7405.46
459.29	7339.92
459.48	7375.03
459.66	7447.58
459.84	7466.31
460.03	7557.59
460.21	7454.61
460.39	7417.16
460.57	7480.35
460.76	7503.76
460.94	7353.96
461.12	7625.47
461.31	7693.34
461.49	7501.42
461.67	7503.76
461.85	7669.94
462.04	7634.83
462.22	8128.68
462.40	7887.61
462.59	7536.52
462.77	7868.88
462.95	7793.98
463.13	7791.64
463.32	7843.14
463.50	7892.29
463.68	8044.42
463.86	7981.23
464.05	7925.05
464.23	7995.27
464.41	8067.83
464.59	7686.32
464.78	8266.77
464.96	8121.66
465.14	7754.19
465.32	8074.85
465.50	8161.45
465.69	8217.62
465.87	8304.22
466.05	7981.23
466.23	8037.40
466.41	8039.74
466.60	8458.70
466.78	8194.22
466.96	8105.28
467.14	8238.69
467.32	8400.18
467.51	8444.65
467.69	8205.92
467.87	8301.88
468.05	8376.78
468.23	8435.29
468.41	8512.53
468.60	8458.70
468.78	8624.87
468.96	8540.61
469.14	8723.18
469.32	8484.44
469.50	8578.06
469.69	8727.86
469.87	8706.79
470.05	8950.21
470.23	8826.16
470.41	8896.38
470.59	8823.82
470.77	8945.53
470.95	9029.79
471.14	8997.02
471.32	8793.39
471.50	8992.34
471.68	8985.32
471.86	9041.49
472.04	9280.22
472.22	9301.29
472.40	9207.67
472.58	9240.44
472.77	9371.50
472.95	9516.62
473.13	9954.30
473.31	9540.02
473.49	9694.50
473.67	9682.80
473.85	9455.76
474.03	9823.23
474.21	9717.90
474.39	9923.87
474.57	9748.33
474.75	9984.73
474.93	9823.23
475.12	10122.82
475.30	9998.77
475.48	9898.13
475.66	10167.29
475.84	9905.15
476.02	10401.34
476.20	10373.25
476.38	10314.74
476.56	10520.71
476.74	10654.12
476.92	10427.09
477.10	10415.38
477.28	10867.11
477.46	10729.02
477.64	11059.03
477.82	10930.30
478.00	11330.53
478.18	11257.98
478.36	11122.23
478.54	11609.06
478.72	11424.15
478.90	11735.45
479.08	11503.73
479.26	11953.12
479.44	11676.93
479.62	11857.15
479.80	12152.06
479.98	12042.06
480.16	12446.97
480.34	12140.36
480.52	12379.09
480.70	12423.56
480.88	11922.69
481.06	12505.48
481.24	12470.37
481.41	12662.30
481.59	12786.35
481.77	13186.58
481.95	12901.03
482.13	13095.30
482.31	13160.83
482.49	13420.63
482.67	13427.65
482.85	13596.17
483.03	13745.97
483.21	13949.59
483.39	13673.41
483.57	13603.19
483.74	14073.64
483.92	14375.57
484.10	14104.07
484.28	14679.84
484.46	14544.09
484.64	14707.93
484.82	14583.88
485.00	14827.29
485.18	15000.49
485.35	15243.91
485.53	15435.83
485.71	15243.91
485.89	15674.57
486.07	15477.96
486.25	15442.85
486.43	15686.27
486.61	15838.41
486.78	15985.86
486.96	15854.79
487.14	15955.43
487.32	16421.20
487.50	16538.23
487.68	16695.04
487.85	16730.15
488.03	16718.45
488.21	17048.46
488.39	17137.40
488.57	17451.03
488.75	17422.95
488.92	17638.28
489.10	17720.20
489.28	17649.98
489.46	18064.25
489.64	17628.92
489.81	18267.88
489.99	18274.90
490.17	18298.31
490.35	18633.00
490.53	18607.26
490.70	18972.38
490.88	18726.63
491.06	18925.57
491.24	19180.69
491.41	19037.92
491.59	19513.05
491.77	19290.70
491.95	19482.62
492.13	19566.88
492.30	19580.92
492.48	19922.64
492.66	19922.64
492.84	19737.74
493.01	20386.07
493.19	20493.73
493.37	20884.60
493.54	20395.43
493.72	20779.28
493.90	20582.67
494.08	20968.86
494.25	21163.12
494.43	21231.00
494.61	21523.57
494.79	21364.41
494.96	21364.41
495.14	21628.89
495.32	21869.97
495.49	21841.88
495.67	22001.04
495.85	22270.20
496.02	22230.41
496.20	22583.83
496.38	22534.68
496.55	22412.97
496.73	23285.99
496.91	23061.30
497.09	23173.64
497.26	23126.83
497.44	23028.53
497.62	23358.55
497.79	23571.54
497.97	23534.09
498.14	23693.24
498.32	23936.66
498.50	24159.01
498.67	24243.27
498.85	23915.59
499.03	24194.12
499.20	24381.36
499.38	24306.46
499.56	24655.20
499.73	24346.25
499.91	24702.01
500.08	25191.19
500.26	24739.46
500.44	25036.71
500.61	25078.84
500.79	24947.77
500.97	25212.25
501.14	25263.74
501.32	25338.64
501.49	25539.93
501.67	25692.06
501.84	25699.08
502.02	25830.15
502.20	25699.08
502.37	26094.63
502.55	25757.60
502.72	26010.37
502.90	26225.70
503.07	25759.94
503.25	26574.44
503.43	26132.08
503.60	26663.38
503.78	26939.57
503.95	26852.97
504.13	26607.21
504.30	26864.67
504.48	27117.45
504.65	27119.79
504.83	27456.82
505.01	27513.00
505.18	27510.66
505.36	27536.40
505.53	27246.18
505.71	27667.47
505.88	27763.43
506.06	27311.71
506.23	27901.53
506.41	27599.60
506.58	27707.26
506.76	28208.14
506.93	28283.03
507.11	28348.57
507.28	28283.03
507.46	28339.21
507.63	28692.63
507.81	28973.49
507.98	28493.68
508.16	28606.03
508.33	29015.62
508.50	29057.75
508.68	28971.15
508.85	29116.26
509.03	29048.39
509.20	29057.75
509.38	29680.33
509.55	29642.88
509.73	29593.73
509.90	29645.23
510.08	29462.66
510.25	29947.15
510.42	29247.33
510.60	29745.87
510.77	30431.65
510.95	30316.96
511.12	29816.08
511.30	30316.96
511.47	30382.49
511.64	30646.97
511.82	30522.93
511.99	30431.65
512.17	30778.04
512.34	30639.95
512.51	30918.48
512.69	31098.70
512.86	31225.09
513.04	31117.42
513.21	31101.04
513.38	31367.86
513.56	31445.10
513.73	31634.68
513.90	31859.37
514.08	31519.99
514.25	31971.72
514.43	31800.86
514.60	31889.80
514.77	32039.59
514.95	31882.78
515.12	31763.41
515.29	31814.90
515.47	32009.17
515.64	32013.85
515.81	32332.16
515.99	32648.13
516.16	32692.60
516.33	32577.92
516.51	32664.52
516.68	32498.34
516.85	32701.96
517.03	33439.23
517.20	32865.80
517.37	32751.12
517.54	33177.09
517.72	32957.08
517.89	33195.82
518.06	33579.67
518.24	33132.62
518.41	33415.83
518.58	33329.23
518.75	33404.13
518.93	33549.24
519.10	33890.96
519.27	33736.48
519.45	33979.90
519.62	34082.88
519.79	33879.25
519.96	33944.79
520.14	34061.82
520.31	33944.79
520.48	34330.98
520.65	34253.74
520.83	34859.94
521.00	34913.77
521.17	34333.32
521.34	34623.54
521.52	34625.89
521.69	35035.48
521.86	35070.59
522.03	34581.42
522.20	34995.69
522.38	35339.75
522.55	35704.87
522.72	35110.38
522.89	35433.37
523.07	35601.89
523.24	35447.41
523.41	35587.85
523.58	35903.82
523.75	35637.00
523.92	35335.07
524.10	35629.98
524.27	35796.15
524.44	35772.75
524.61	35955.31
524.78	36039.57
524.96	36121.49
525.13	36500.65
525.30	36907.91
525.47	36493.63
525.64	36280.64
525.81	36671.51
525.98	36655.13
526.16	36353.20
526.33	36519.38
526.50	36842.37
526.67	36222.13
526.84	36994.51
527.01	36577.89
527.18	37078.77
527.36	36996.85
527.53	37170.05
527.70	37102.17
527.87	37675.60
528.04	37242.60
528.21	37481.34
528.38	37354.95
528.55	37322.18
528.72	37237.92
528.89	37869.87
529.07	37483.68
529.24	37642.84
529.41	37773.91
529.58	38082.86
529.75	37642.84
529.92	37790.29
530.09	38122.65
530.26	37904.98
530.43	38183.50
530.60	37912.00
530.77	38108.60
530.94	38419.89
531.11	38045.41
531.28	38181.16
531.46	38459.68
531.63	38323.93
531.80	38583.73
531.97	38731.18
532.14	38569.69
532.31	38710.12
532.48	38541.60
532.65	38799.06
532.82	38810.76
532.99	39246.10
533.16	38941.83
533.33	39133.76
533.50	39391.22
533.67	38831.83
533.84	39037.80
534.01	39058.86
534.18	39096.31
534.35	39730.59
534.52	39847.62
534.69	39498.88
534.86	39866.34
535.03	39559.73
535.20	39723.57
535.37	39662.72
535.54	40142.53
535.71	39732.93
535.88	40245.51
536.05	39892.09
536.22	39892.09
536.38	40325.09
536.55	39681.44
536.72	40046.57
536.89	40425.73
537.06	40119.12
537.23	40938.31
537.40	40467.86
537.57	40168.27
537.74	40432.75
537.91	40699.58
538.08	40093.38
538.25	40210.40
538.42	40215.08
538.59	41041.29
538.75	40584.89
538.92	41205.13
539.09	40725.32
539.26	40762.77
539.43	40851.71
539.60	40935.97
539.77	40912.56
539.94	41137.26
540.11	41209.81
540.28	41198.11
540.44	41013.21
540.61	41233.22
540.78	40889.16
540.95	41268.33
541.12	41053.00
541.29	40950.01
541.46	41165.34
541.62	41525.78
541.79	42017.30
541.96	41450.89
542.13	41125.55
542.30	41631.11
542.47	41581.96
542.63	42059.43
542.80	42092.19
542.97	42061.77
543.14	42684.35
543.31	42164.75
543.48	42136.66
543.64	42663.28
543.81	42466.68
543.98	42466.68
544.15	42513.49
544.32	42363.70
544.48	42794.36
544.65	42447.96
544.82	42841.17
544.99	42328.59
545.16	42504.13
545.32	42890.32
545.49	42969.90
545.66	43164.16
545.83	42630.52
546.00	43217.99
546.16	42913.72
546.33	42780.31
546.50	42581.37
546.67	43185.22
546.83	42195.18
547.00	43325.66
547.17	43215.65
547.34	43007.34
547.50	43510.56
547.67	43452.05
547.84	43405.23
548.00	43302.25
548.17	43693.12
548.34	43533.96
548.51	43564.39
548.67	43768.02
548.84	43753.97
549.01	43667.37
549.18	43332.68
549.34	43594.82
549.51	43770.36
549.68	43655.67
549.84	43662.69
550.01	43777.38
550.18	44046.54
550.34	43873.34
550.51	43819.51
550.68	44418.69
550.84	43599.50
551.01	44252.51
551.18	43789.08
551.34	44266.55
551.51	44245.49
551.68	44130.80
551.84	44013.77
552.01	44112.08
552.18	44612.95
552.34	44048.88
552.51	44739.34
552.68	44222.08
552.84	44598.91
553.01	44507.63
553.18	44147.18
553.34	44406.98
553.51	44657.42
553.67	44655.08
553.84	44549.76
554.01	45277.66
554.17	44636.36
554.34	44671.46
554.51	44886.79
554.67	45081.06
554.84	44947.65
555.00	44533.37
555.17	44744.02
555.33	45179.36
555.50	44835.30
555.67	44746.36
555.83	44933.60
556.00	45331.50
556.16	45418.10
556.33	45214.47
556.50	45251.92
556.66	45022.54
556.83	44825.94
556.99	45581.93
557.16	45839.39
557.32	45287.03
557.49	45411.07
557.65	45104.46
557.82	45581.93
557.98	45460.23
558.15	45200.43
558.32	45272.98
558.48	45303.41
558.65	45666.19
558.81	45624.06
558.98	45588.95
559.14	45354.90
559.31	46043.02
559.47	45785.56
559.64	45979.82
559.80	45879.18
559.97	45666.19
560.13	45427.46
560.30	45790.24
560.46	46136.64
560.63	46050.04
560.79	45722.37
560.96	46375.37
561.12	46206.86
561.29	46176.43
561.45	46234.94
561.61	45694.28
561.78	45954.08
561.94	46204.52
562.11	45961.10
562.27	46295.80
562.44	45925.99
562.60	45888.54
562.77	45949.40
562.93	45984.51
563.10	46192.81
563.26	46094.51
563.42	46550.91
563.59	46153.02
563.75	45930.67
563.92	46536.87
564.08	46138.98
564.24	46600.07
564.41	46422.19
564.57	46344.95
564.74	46314.52
564.90	46206.86
565.07	46234.94
565.23	46483.04
565.39	46426.87
565.56	46864.55
565.72	46461.97
565.88	46293.46
566.05	46396.44
566.21	46892.63
566.38	46630.49
566.54	46883.27
566.70	46937.10
566.87	46969.87
567.03	46583.68
567.19	46724.11
567.36	46953.49
567.52	46309.84
567.68	46869.23
567.85	46820.08
568.01	47012.00
568.17	46660.92
568.34	47136.05
568.50	46843.48
568.66	46583.68
568.83	46644.54
568.99	46714.75
569.15	46883.27
569.32	46820.08
569.48	46457.29
569.64	47194.56
569.81	46789.65
569.97	46885.61
570.13	46911.36
570.30	46546.23
570.46	47210.95
570.62	47126.69
570.78	47276.48
570.95	46852.84
571.11	46761.56
571.27	46539.21
571.43	47129.03
571.60	46855.18
571.76	46894.97
571.92	46784.97
572.09	46698.37
572.25	46894.97
572.41	47000.30
572.57	47082.22
572.74	47325.63
572.90	46630.49
573.06	47164.14
573.22	47199.24
573.38	47515.22
573.55	46962.85
573.71	47693.10
573.87	47302.23
574.03	46782.63
574.20	47765.65
574.36	47419.25
574.52	47320.95
574.68	47306.91
574.84	47374.78
575.01	47325.63
575.17	46904.34
575.33	47159.45
575.49	47353.72
575.65	47311.59
575.82	47604.16
575.98	47505.85
576.14	47526.92
576.30	47669.69
576.46	47360.74
576.62	47290.52
576.79	47309.25
576.95	47112.64
577.11	47342.02
577.27	47573.73
577.43	47316.27
577.59	47068.17
577.75	47278.82
577.92	46707.73
578.08	47349.04
578.24	47489.47
578.40	47552.66
578.56	47721.18
578.72	47114.98
578.88	47248.39
579.04	47503.51
579.21	47531.60
579.37	47257.76
579.53	47620.54
579.69	47269.46
579.85	47285.84
580.01	47463.72
580.17	47049.45
580.33	48055.88
580.49	47777.36
580.65	47992.68
580.82	47550.32
580.98	47571.39
581.14	47377.12
581.30	47594.79
581.46	47449.68
581.62	47393.51
581.78	47466.06
581.94	47875.66
582.10	47285.84
582.26	47288.18
582.42	47496.49
582.58	47964.60
582.74	47772.67
582.90	47517.56
583.06	47995.03
583.22	47110.30
583.38	47742.25
583.54	47903.74
583.70	47814.80
583.86	47885.02
584.02	47505.85
584.18	47643.94
584.34	47529.26
584.50	47756.29
584.66	47962.26
584.82	47775.02
584.98	47922.47
585.14	47557.35
585.30	47948.21
585.46	47634.58
585.62	47379.46
585.78	47688.42
585.94	47655.65
586.10	47522.24
586.26	47122.01
586.42	47679.05
586.58	47878.00
586.74	47667.35
586.90	47650.97
587.06	47363.08
587.22	47578.41
587.38	47667.35
587.54	47852.25
587.70	48098.01
587.86	47763.31
588.02	47758.63
588.18	47723.52
588.34	47711.82
588.49	47686.07
588.65	47484.79
588.81	47817.14
588.97	47775.02
589.13	47826.51
589.29	47882.68
589.45	47892.04
589.61	47995.03
589.77	48053.54
589.93	48011.41
590.08	48315.68
590.24	48250.14
590.40	48463.13
590.56	48437.39
590.72	48311.00
590.88	47700.12
591.04	48222.06
591.20	48208.01
591.35	48570.80
591.51	48516.96
591.67	48069.92
591.83	48208.01
591.99	48615.27
592.15	47906.08
592.31	48079.28
592.46	47922.47
592.62	48165.88
592.78	48212.70
592.94	48760.38
593.10	48460.79
593.26	48580.16
593.41	48353.13
593.57	48388.24
593.73	48601.22
593.89	49052.95
594.05	48257.17
594.20	48294.61
594.36	48736.98
594.52	48596.54
594.68	48126.10
594.84	47950.56
594.99	48477.18
595.15	48367.17
595.31	48608.25
595.47	48495.90
595.62	48676.12
595.78	48554.41
595.94	48523.99
596.10	48474.84
596.25	48718.25
596.41	48580.16
596.57	48355.47
596.73	48739.32
596.88	48687.82
597.04	48844.64
597.20	48678.46
597.36	48765.06
597.51	48774.42
597.67	48399.94
597.83	48381.21
597.99	48741.66
598.14	48350.79
598.30	47992.68
598.46	48617.61
598.61	48512.28
598.77	48713.57
598.93	48631.65
599.09	48397.60
599.24	49139.55
599.40	48837.62
599.56	48371.85
599.71	48926.56
599.87	49144.23
600.03	48917.20
600.18	48701.87
600.34	48982.73
600.50	48629.31
600.65	48884.43
600.81	48692.50
600.97	48762.72
601.12	48615.27
601.28	48846.98
601.44	48657.40
601.59	48877.41
601.75	48285.25
601.91	48825.92
602.06	48465.47
602.22	48643.35
602.37	48425.68
602.53	48924.22
602.69	48624.63
602.84	48596.54
603.00	48779.10
603.16	48861.02
603.31	48706.55
603.47	49113.80
603.62	48680.80
603.78	48802.51
603.94	48605.91
604.09	48542.71
604.25	48657.40
604.40	48463.13
604.56	48938.26
604.71	48753.36
604.87	48385.89
605.03	48128.44
605.18	48568.46
605.34	48573.14
605.49	48540.37
605.65	48477.18
605.80	48559.09
605.96	48175.25
606.12	48584.84
606.27	48779.10
606.43	48477.18
606.58	48596.54
606.74	48769.74
606.89	48617.61
607.05	48954.64
607.20	48446.75
607.36	48318.02
607.51	48514.62
607.67	48481.86
607.82	48739.32
607.98	48397.60
608.13	48402.28
608.29	48165.88
608.44	48554.41
608.60	48303.98
608.75	48470.15
608.91	48676.12
609.06	47896.72
609.22	48875.07
609.37	48303.98
609.53	48458.45
609.68	48612.93
609.84	48275.89
609.99	48435.05
610.15	48669.10
610.30	48339.08
610.46	48701.87
610.61	48402.28
610.76	48231.42
610.92	47934.17
611.07	48273.55
611.23	48285.25
611.38	48392.92
611.54	48243.12
611.69	48734.63
611.84	48357.81
612.00	47845.23
612.15	48172.91
612.31	48360.15
612.46	47756.29
612.62	48184.61
612.77	48140.14
612.92	48222.06
613.08	48226.74
613.23	48229.08
613.39	47980.98
613.54	47924.81
613.69	48364.83
613.85	48030.13
614.00	47885.02
614.15	48088.65
614.31	47821.83
614.46	47714.16
614.62	47906.08
614.77	47728.20
614.92	47814.80
615.08	48072.26
615.23	48102.69
615.38	48144.82
615.54	48266.53
615.69	48027.79
615.84	47632.24
616.00	48285.25
616.15	48055.88
616.30	47990.34
616.46	48254.82
616.61	47828.85
616.76	47445.00
616.92	47517.56
617.07	47676.71
617.22	47599.47
617.37	47257.76
617.53	47650.97
617.68	47370.10
617.83	47744.59
617.99	48053.54
618.14	47648.63
618.29	47398.19
618.45	47365.42
618.60	47201.58
618.75	47636.92
618.90	47391.17
619.06	47590.11
619.21	47606.50
619.36	47826.51
619.51	47372.44
619.67	47122.01
619.82	47187.54
619.97	47833.53
620.12	47150.09
620.28	47196.90
620.43	47707.14
620.58	47332.65
620.73	47377.12
620.89	47463.72
621.04	47992.68
621.19	47370.10
621.34	47351.38
621.49	47351.38
621.65	46932.42
621.80	47274.14
621.95	47217.97
622.10	47220.31
622.25	47189.88
622.41	46962.85
622.56	46997.96
622.71	47201.58
622.86	46714.75
623.01	47466.06
623.16	46930.08
623.32	46810.71
623.47	46979.23
623.62	46714.75
623.77	46719.43
623.92	47161.79
624.07	46726.46
624.23	47086.90
624.38	47267.12
624.53	46665.60
624.68	46827.10
624.83	46469.00
624.98	46672.62
625.13	46817.74
625.29	46237.28
625.44	46593.04
625.59	46387.08
625.74	46724.11
625.89	46094.51
626.04	46440.91
626.19	46494.74
626.34	46293.46
626.49	46321.54
626.65	45989.19
626.80	46487.72
626.95	46031.32
627.10	46213.88
627.25	46237.28
627.40	46380.06
627.55	46330.90
627.70	45851.09
627.85	46658.58
628.00	46705.39
628.15	46377.72
628.30	45874.50
628.45	46096.85
628.60	45624.06
628.76	45944.72
628.91	46171.75
629.06	45581.93
629.21	45844.07
629.36	45673.21
629.51	46014.93
629.66	46122.60
629.81	45874.50
629.96	45942.38
630.11	45745.77
630.26	45743.43
630.41	45633.42
630.56	45757.47
630.71	45404.05
630.86	45612.36
631.01	45635.77
631.16	45705.98
631.31	45792.58
631.46	45504.70
631.61	46351.97
631.76	45848.75
631.91	45815.99
632.06	46078.13
632.21	45443.84
632.36	45827.69
632.51	45338.52
632.66	45443.84
632.81	45551.51
632.96	45975.14
633.10	45221.49
633.25	46096.85
633.40	45144.25
633.55	45481.29
633.70	45275.32
633.85	45312.77
634.00	44968.71
634.15	44982.76
634.30	45071.70
634.45	44996.80
634.60	45347.88
634.75	44624.65
634.90	44975.73
635.05	45277.66
635.19	45104.46
635.34	45251.92
635.49	44865.73
635.64	45158.30
635.79	45146.59
635.94	45029.57
636.09	45212.13
636.24	44809.56
636.39	44783.81
636.53	44814.24
636.68	44818.92
636.83	44748.70
636.98	44863.39
637.13	44479.54
637.28	44594.23
637.43	44484.22
637.57	44683.17
637.72	44720.62
637.87	44591.89
638.02	44825.94
638.17	44320.38
638.32	44399.96
638.46	44304.00
638.61	44399.96
638.76	44170.59
638.91	44334.43
639.06	43969.30
639.20	43789.08
639.35	43931.86
639.50	44114.42
639.65	44367.20
639.80	44439.75
639.94	44425.71
640.09	44872.75
640.24	44790.83
640.39	44259.53
640.54	43873.34
640.68	44257.19
640.83	44348.47
640.98	43810.15
641.13	43826.53
641.27	44626.99
641.42	43810.15
641.57	43704.82
641.72	44006.75
641.86	43761.00
642.01	43744.61
642.16	43938.88
642.31	43524.60
642.45	43721.21
642.60	43147.78
642.75	43751.63
642.90	44074.63
643.04	43646.31
643.19	43803.13
643.34	43693.12
643.48	43517.58
643.63	43430.98
643.78	44119.10
643.93	43526.94
644.07	43447.36
644.22	43707.16
644.37	43505.88
644.51	43590.14
644.66	43482.47
644.81	43395.87
644.95	43440.34
645.10	43402.89
645.25	43023.73
645.39	43299.91
645.54	43260.12
645.69	43035.43
645.83	42845.85
645.98	43005.00
646.13	43072.88
646.27	43477.79
646.42	42841.17
646.57	43496.52
646.71	43344.38
646.86	43672.06
647.00	43203.95
647.15	43229.69
647.30	43107.99
647.44	43012.02
647.59	42864.57
647.74	42852.87
647.88	42937.13
648.03	43232.04
648.17	43248.42
648.32	43129.05
648.47	42925.42
648.61	42848.19
648.76	42667.97
648.90	42513.49
649.05	42660.94
649.20	42330.93
649.34	42939.47
649.49	42780.31
649.63	43054.15
649.78	42843.51
649.92	42213.90
650.07	43400.55
650.21	42990.96
650.36	42653.92
650.51	42426.89
650.65	42923.08
650.80	43009.68
650.94	43012.02
651.09	42656.26
651.23	42005.59
651.38	42457.32
651.52	41897.93
651.67	42602.43
651.81	42581.37
651.96	42089.85
652.10	42124.96
652.25	41727.07
652.39	42263.05
652.54	42068.79
652.68	42043.04
652.83	42129.64
652.97	42291.14
653.12	41769.20
653.26	42148.37
653.41	42178.79
653.55	42155.39
653.70	42195.18
653.84	42246.67
653.99	42550.94
654.13	41727.07
654.27	41642.81
654.42	42190.50
654.56	41855.80
654.71	41963.46
654.85	41780.90
655.00	41825.37
655.14	42117.94
655.29	41778.56
655.43	41860.48
655.57	41958.78
655.72	41523.44
655.86	41134.92
656.01	40947.67
656.15	41436.84
656.30	41471.95
656.44	41530.47
656.58	41441.53
656.73	41397.06
656.87	41528.13
657.01	41603.02
657.16	41148.96
657.30	41366.63
657.45	41315.14
657.59	41240.24
657.73	41045.97
657.88	41015.55
658.02	41387.69
658.16	41165.34
658.31	40847.03
658.45	41319.82
658.60	41230.88
658.74	41317.48
658.88	41006.19
659.03	41202.79
659.17	40847.03
659.31	40540.42
659.46	40278.28
659.60	41158.32
659.74	40840.01
659.89	40350.84
660.03	40177.64
660.17	40701.92
660.32	40678.51
660.46	40292.32
660.60	39913.16
660.74	39894.43
660.89	40425.73
661.03	40252.53
661.17	39922.52
661.32	39580.80
661.46	40598.93
661.60	40084.01
661.74	39913.16
661.89	39931.88
662.03	39620.59
662.17	39543.35
662.31	39730.59
662.46	39798.47
662.60	39618.25
662.74	39569.10
662.88	39452.07
663.03	39178.23
663.17	39501.22
663.31	39154.82
663.45	39108.01
663.60	39622.93
663.74	39580.80
663.88	39175.89
664.02	39491.86
664.17	39276.53
664.31	38948.85
664.45	38829.49
664.59	38834.17
664.73	38946.51
664.88	38682.03
665.02	38438.62
665.16	38785.02
665.30	38850.55
665.44	39175.89
665.59	38314.57
665.73	38616.50
665.87	38087.54
666.01	38352.02
666.15	38466.70
666.29	38197.54
666.44	38761.61
666.58	38602.46
666.72	37773.91
666.86	37738.80
667.00	37457.93
667.14	38054.77
667.28	37771.57
667.43	37670.92
667.57	37940.08
667.71	38178.82
667.85	37830.08
667.99	37937.74
668.13	37844.12
668.27	37102.17
668.41	37350.27
668.56	36982.80
668.70	36884.50
668.84	36762.79
668.98	37317.50
669.12	37738.80
669.26	37378.36
669.40	37074.09
669.54	37071.75
669.68	37132.60
669.82	36943.02
669.96	36692.58
670.10	36437.46
670.25	36282.98
670.39	36594.28
670.53	36664.49
670.67	36589.59
670.81	36765.14
670.95	36584.91
671.09	36739.39
671.23	36048.93
671.37	36659.81
671.51	35990.42
671.65	35725.94
671.79	35798.49
671.93	35831.26
672.07	35957.65
672.21	36006.80
672.35	35688.49
672.49	35426.35
672.63	35810.20
672.77	35559.76
672.91	35372.52
673.05	35353.79
673.19	34920.79
673.33	34986.33
673.47	35487.20
673.61	34733.55
673.75	34768.66
673.89	34618.86
674.03	34513.54
674.17	34660.99
674.31	34323.96
674.45	34660.99
674.59	34328.64
674.73	34206.93
674.87	34139.05
675.01	34057.14
675.15	33780.95
675.29	33755.21
675.43	34010.32
675.56	34213.95
675.70	33560.94
675.84	33558.60
675.98	32524.08
676.12	33481.36
676.26	33905.00
676.40	33202.84
676.54	33296.46
676.68	33177.09
676.82	32561.53
676.96	32753.46
677.10	33282.42
677.23	32603.66
677.37	32692.60
677.51	32779.20
677.65	32563.87
677.79	32343.86
677.93	32409.40
678.07	31723.62
678.21	32488.98
678.34	31742.35
678.48	31786.82
678.62	31761.07
678.76	31618.30
678.90	31515.31
679.04	31498.93
679.18	31721.28
679.31	31143.17
679.45	31117.42
679.59	31161.89
679.73	31227.43
679.87	30675.06
680.00	31061.25
680.14	30756.98
680.28	30717.19
680.42	30796.77
680.56	30541.65
680.70	30216.32
680.83	30052.48
680.97	30478.46
681.11	30237.38
681.25	29893.32
681.39	30134.40
681.52	29790.34
681.66	29425.22
681.80	29179.46
681.94	29497.77
682.07	29081.16
682.21	29228.61
682.35	28844.76
682.49	29001.58
682.62	29067.11
682.76	28884.55
682.90	28767.52
683.04	28657.52
683.17	28713.69
683.31	28362.61
683.45	28079.41
683.59	28006.85
683.72	27934.29
683.86	27796.20
684.00	27938.97
684.13	28067.70
684.27	27768.12
684.41	27522.36
684.55	27688.54
684.68	27211.07
684.82	27620.66
684.96	27410.01
685.09	27147.87
685.23	27262.56
685.37	27814.93
685.50	27271.92
685.64	27110.43
685.78	26859.99
685.91	26761.69
686.05	26284.22
686.19	26019.74
686.32	26225.70
686.46	26263.15
686.60	25663.97
686.73	25979.95
686.87	26087.61
687.01	26085.27
687.14	25811.43
687.28	25577.37
687.42	25715.47
687.55	25458.01
687.69	25420.56
687.82	25172.46
687.96	25242.68
688.10	25184.16
688.23	24978.20
688.37	25392.47
688.50	25163.10
688.64	24676.27
688.78	24809.68
688.91	24395.40
689.05	24713.72
689.18	24357.96
689.32	23892.19
689.46	24119.22
689.59	23821.97
689.73	24081.77
689.86	24329.87
690.00	24287.74
690.13	23957.72
690.27	23700.26
690.41	23634.73
690.54	23442.81
690.68	23248.54
690.81	23232.16
690.95	23239.18
691.08	22895.12
691.22	22951.29
691.35	22852.99
691.49	23047.26
691.62	22946.61
691.76	22462.12
691.89	22022.10
692.03	22302.96
692.16	22211.68
692.30	22171.89
692.43	21994.01
692.57	21757.62
692.70	22054.87
692.84	21834.86
692.97	21820.81
693.11	21624.21
693.24	21624.21
693.38	21326.96
693.51	21156.10
693.65	21116.31
693.78	20814.38
693.92	20884.60
694.05	20734.81
694.19	20816.72
694.32	20821.41
694.45	21137.38
694.59	20957.16
694.72	20753.53
694.86	20341.60
694.99	20201.16
695.13	20210.53
695.26	20147.33
695.39	19836.04
695.53	19887.53
695.66	19871.15
695.80	19761.14
695.93	19831.36
696.07	19496.66
696.20	19377.30
696.33	19241.54
696.47	18958.34
696.60	19524.75
696.73	19206.44
696.87	19328.14
697.00	19185.37
697.14	18845.99
697.27	18799.18
697.40	18675.13
697.54	18923.23
697.67	18684.50
697.80	18602.58
697.94	18506.62
698.07	18143.83
698.21	18225.75
698.34	18218.73
698.47	17795.09
698.61	17886.37
698.74	17867.65
698.87	17865.31
699.01	17635.94
699.14	17385.50
699.27	17465.08
699.40	17692.11
699.54	17436.99
699.67	17764.67
699.80	17268.47
699.94	17142.08
700.07	17057.82
700.20	17102.29
700.34	16882.28
700.47	16891.65
700.60	17050.80
700.73	16830.79
700.87	16673.98
701.00	16491.41
701.13	16496.10
701.26	16201.19
701.40	16245.66
701.53	16280.77
701.66	16240.98
701.79	16189.49
701.93	15857.13
702.06	15929.69
702.19	15545.84
702.32	15599.67
702.46	15726.06
702.59	15714.36
702.72	15592.65
702.85	15412.43
702.99	15225.18
703.12	15456.90
703.25	15358.60
703.38	15133.90
703.51	15154.97
703.65	15061.35
703.78	15056.67
703.91	14537.07
704.04	14635.37
704.17	14593.24
704.31	14633.03
704.44	14586.22
704.57	14424.72
704.70	14441.11
704.83	14583.88
704.96	14326.42
705.10	14012.79
705.23	13973.00
>>>>>End Processed Spectral Data<<<<<
