SpectraSuite Data File
++++++++++++++++++++++++++++++++++++
Date: Fri Oct 25 11:34:33 EDT 2013
User: price-jones
Dark Spectrum Present: No
Reference Spectrum Present: No
Number of Sampled Component Spectra: 1
Spectrometers: USB2+H05261
Integration Time (usec): 100000 (USB2+H05261)
Spectra Averaged: 1 (USB2+H05261)
Boxcar Smoothing: 0 (USB2+H05261)
Correct for Electrical Dark: No (USB2+H05261)
Strobe/Lamp Enabled: No (USB2+H05261)
Correct for Detector Non-linearity: No (USB2+H05261)
Correct for Stray Light: No (USB2+H05261)
Number of Pixels in Processed Spectrum: 2048
>>>>>Begin Processed Spectral Data<<<<<
365.73	299.59
365.92	299.59
366.12	299.59
366.32	152.13
366.52	126.39
366.72	114.69
366.91	112.35
367.11	124.05
367.31	102.98
367.51	142.77
367.70	189.58
367.90	168.52
368.10	201.29
368.30	255.12
368.49	133.41
368.69	229.37
368.89	227.03
369.09	205.97
369.28	245.76
369.48	250.44
369.68	266.82
369.87	252.78
370.07	271.50
370.27	227.03
370.47	273.84
370.66	409.59
370.86	461.09
371.06	458.74
371.25	533.64
371.45	526.62
371.65	486.83
371.84	629.60
372.04	533.64
372.24	550.03
372.44	575.77
372.63	599.18
372.83	634.29
373.03	622.58
373.22	566.41
373.42	638.97
373.62	592.16
373.81	638.97
374.01	599.18
374.21	657.69
374.40	667.05
374.60	688.12
374.79	678.76
374.99	573.43
375.19	603.86
375.38	638.97
375.58	561.73
375.78	711.52
375.97	657.69
376.17	662.37
376.37	589.82
376.56	634.29
376.76	641.31
376.95	627.26
377.15	683.44
377.35	662.37
377.54	671.73
377.74	575.77
377.93	648.33
378.13	648.33
378.33	664.71
378.52	636.63
378.72	702.16
378.91	746.63
379.11	692.80
379.31	631.94
379.50	741.95
379.70	683.44
379.89	699.82
380.09	697.48
380.28	634.29
380.48	641.31
380.68	709.18
380.87	683.44
381.07	781.74
381.26	793.44
381.46	753.65
381.65	716.20
381.85	765.36
382.04	741.95
382.24	784.08
382.43	814.51
382.63	767.70
382.83	791.10
383.02	758.33
383.22	753.65
383.41	770.04
383.61	798.12
383.80	779.40
384.00	802.80
384.19	760.67
384.39	702.16
384.58	746.63
384.78	889.40
384.97	837.91
385.17	847.27
385.36	795.78
385.56	767.70
385.75	816.85
385.95	840.25
386.14	863.66
386.34	858.98
386.53	884.72
386.72	870.68
386.92	819.19
387.11	770.04
387.31	915.15
387.50	840.25
387.70	809.83
387.89	915.15
388.09	952.60
388.28	861.32
388.48	950.26
388.67	929.19
388.86	884.72
389.06	973.66
389.25	910.47
389.45	945.58
389.64	961.96
389.84	1032.18
390.03	1008.77
390.22	947.92
390.42	945.58
390.61	959.62
390.81	931.53
391.00	889.40
391.19	994.73
391.39	1067.28
391.58	997.07
391.78	1025.15
391.97	1025.15
392.16	978.34
392.36	1086.01
392.55	1001.75
392.75	1001.75
392.94	1013.45
393.13	1048.56
393.33	992.39
393.52	1050.90
393.71	1078.99
393.91	1067.28
394.10	1027.50
394.29	1123.46
394.49	1088.35
394.68	1146.86
394.88	1107.07
395.07	1071.97
395.26	1118.78
395.46	1118.78
395.65	1146.86
395.84	1123.46
396.04	1153.88
396.23	1153.88
396.42	1086.01
396.62	1200.69
396.81	1170.27
397.00	1224.10
397.19	1144.52
397.39	1116.44
397.58	1231.12
397.77	1247.51
397.97	1095.37
398.16	1277.93
398.35	1336.45
398.55	1277.93
398.74	1268.57
398.93	1233.46
399.12	1238.14
399.32	1226.44
399.51	1214.74
399.70	1362.19
399.90	1364.53
400.09	1322.40
400.28	1364.53
400.47	1331.76
400.67	1453.47
400.86	1306.02
401.05	1387.94
401.24	1317.72
401.44	1462.83
401.63	1460.49
401.82	1411.34
402.01	1409.00
402.21	1425.39
402.40	1406.66
402.59	1472.20
402.78	1437.09
402.97	1479.22
403.17	1439.43
403.36	1526.03
403.55	1448.79
403.74	1535.39
403.93	1486.24
404.13	1582.20
404.32	1497.94
404.51	1561.14
404.70	1540.07
404.89	1519.01
405.09	1561.14
405.28	1650.08
405.47	1591.56
405.66	1614.97
405.85	1734.34
406.05	1577.52
406.24	1633.69
406.43	1668.80
406.62	1706.25
406.81	1788.17
407.00	1722.63
407.20	1724.97
407.39	1764.76
407.58	1811.57
407.77	1813.92
407.96	1886.47
408.15	1818.60
408.34	1771.79
408.54	1811.57
408.73	1905.20
408.92	1802.21
409.11	1888.81
409.30	1935.62
409.49	1902.86
409.68	1909.88
409.87	1959.03
410.07	1975.41
410.26	1982.43
410.45	1996.48
410.64	2118.18
410.83	2005.84
411.02	2094.78
411.21	2083.08
411.40	2092.44
411.59	2071.37
411.78	2033.93
411.98	2064.35
412.17	2115.84
412.36	2101.80
412.55	2207.13
412.74	2181.38
412.93	2317.13
413.12	2216.49
413.31	2361.60
413.50	2354.58
413.69	2279.68
413.88	2366.28
414.07	2338.20
414.26	2401.39
414.45	2485.65
414.64	2450.54
414.83	2331.17
415.02	2410.75
415.22	2506.71
415.41	2555.86
415.60	2560.55
415.79	2595.65
415.98	2574.59
416.17	2534.80
416.36	2525.44
416.55	2705.66
416.74	2651.83
416.93	2745.45
417.12	2864.82
417.31	2740.77
417.50	2750.13
417.69	2867.16
417.88	2932.69
418.07	2843.75
418.26	2862.48
418.45	2857.79
418.64	2841.41
418.83	2862.48
419.02	2888.22
419.21	2963.12
419.39	2925.67
419.58	3007.59
419.77	2977.16
419.96	2895.24
420.15	3061.42
420.34	3066.10
420.53	3070.78
420.72	3084.83
420.91	3192.49
421.10	3089.51
421.29	3145.68
421.48	3148.02
421.67	3187.81
421.86	3082.49
422.05	3204.19
422.24	3370.37
422.43	3073.12
422.61	3150.36
422.80	3148.02
422.99	3215.90
423.18	3260.37
423.37	3272.07
423.56	3159.72
423.75	3246.32
423.94	3112.91
424.13	3108.23
424.32	3166.74
424.50	3393.78
424.69	3283.77
424.88	3337.60
425.07	3290.79
425.26	3358.67
425.45	3314.20
425.64	3339.94
425.83	3276.75
426.01	3302.50
426.20	3337.60
426.39	3372.71
426.58	3211.22
426.77	3279.09
426.96	3363.35
427.15	3337.60
427.33	3328.24
427.52	3389.10
427.71	3424.20
427.90	3524.85
428.09	3454.63
428.28	3485.06
428.46	3501.44
428.65	3597.40
428.84	3421.86
429.03	3641.87
429.22	3564.64
429.40	3597.40
429.59	3550.59
429.78	3424.20
429.97	3454.63
430.16	3716.77
430.34	3602.08
430.53	3604.42
430.72	3721.45
430.91	3620.81
431.10	3695.71
431.28	3896.99
431.47	3906.35
431.66	3824.44
431.85	3885.29
432.03	3768.26
432.22	3988.27
432.41	3936.78
432.60	3929.76
432.79	3894.65
432.97	3981.25
433.16	3955.51
433.35	4028.06
433.54	3957.85
433.72	4039.76
433.91	4011.68
434.10	4079.55
434.28	4039.76
434.47	3969.55
434.66	4077.21
434.85	4025.72
435.03	4259.78
435.22	4112.32
435.41	4257.43
435.59	4217.65
435.78	4154.45
435.97	4348.72
436.16	4259.78
436.34	4182.54
436.53	4311.27
436.72	4334.67
436.90	4234.03
437.09	4318.29
437.28	4212.96
437.46	4383.82
437.65	4554.68
437.84	4322.97
438.02	4365.10
438.21	4514.89
438.40	4395.53
438.58	4475.10
438.77	4566.39
438.96	4456.38
439.14	4678.73
439.33	4737.24
439.52	4767.67
439.70	4791.08
439.89	4786.40
440.08	4681.07
440.26	4926.83
440.45	4725.54
440.63	4758.31
440.82	4901.08
441.01	4807.46
441.19	4936.19
441.38	5011.09
441.57	4903.42
441.75	5043.85
441.94	5254.50
442.12	5114.07
442.31	5266.21
442.50	5139.82
442.68	5128.11
442.87	5107.05
443.05	5242.80
443.24	5291.95
443.43	5418.34
443.61	5371.53
443.80	5317.70
443.98	5268.55
444.17	5088.32
444.35	5291.95
444.54	5268.55
444.73	5313.02
444.91	5434.72
445.10	5448.77
445.28	5341.10
445.47	5383.23
445.65	5502.60
445.84	5472.17
446.02	5366.85
446.21	5526.00
446.39	5509.62
446.58	5465.15
446.77	5507.28
446.95	5313.02
447.14	5467.49
447.32	5394.93
447.51	5490.90
447.69	5327.06
447.88	5467.49
448.06	5528.35
448.25	5547.07
448.43	5509.62
448.62	5640.69
448.80	5481.53
448.99	5486.22
449.17	5547.07
449.36	5661.76
449.54	5680.48
449.73	5746.02
449.91	5764.74
450.10	5633.67
450.28	5694.52
450.46	5879.43
450.65	5884.11
450.83	5790.49
451.02	5841.98
451.20	5809.21
451.39	5860.70
451.57	6069.01
451.76	5713.25
451.94	5881.77
452.13	5912.19
452.31	5921.56
452.49	5900.49
452.68	5963.68
452.86	5980.07
453.05	6003.47
453.23	6094.76
453.42	5928.58
453.60	6005.81
453.78	6237.53
453.97	6057.31
454.15	6129.86
454.34	6019.86
454.52	6183.70
454.70	6417.75
454.89	6321.79
455.07	6272.64
455.26	6274.98
455.44	6347.53
455.62	6406.05
455.81	6354.55
455.99	6319.45
456.17	6590.95
456.36	6494.99
456.54	6710.32
456.73	6544.14
456.91	6651.80
457.09	6656.48
457.28	6656.48
457.46	6726.70
457.64	6836.70
457.83	6689.25
458.01	6820.32
458.19	6829.68
458.38	6715.00
458.56	6988.84
458.74	6881.18
458.93	6855.43
459.11	6946.71
459.29	6787.55
459.48	6939.69
459.66	6937.35
459.84	7021.61
460.03	7157.36
460.21	7148.00
460.39	7124.59
460.57	7082.46
460.76	7070.76
460.94	7227.57
461.12	7126.93
461.31	6984.16
461.49	7162.04
461.67	7180.76
461.85	7318.86
462.04	7117.57
462.22	7611.42
462.40	7501.42
462.59	7517.80
462.77	7321.20
462.95	7405.46
463.13	7421.84
463.32	7344.60
463.50	7576.31
463.68	7482.69
463.86	7529.50
464.05	7461.63
464.23	7534.18
464.41	7492.05
464.59	7368.01
464.78	7770.58
464.96	7627.81
465.14	7548.23
465.32	7756.54
465.50	7447.58
465.69	7665.25
465.87	7733.13
466.05	7747.17
466.23	7744.83
466.41	7784.62
466.60	7920.37
466.78	7676.96
466.96	7854.84
467.14	7911.01
467.32	7864.20
467.51	7978.89
467.69	7779.94
467.87	7913.35
468.05	8037.40
468.23	7854.84
468.41	7932.08
468.60	7791.64
468.78	8079.53
468.96	7983.57
469.14	8152.09
469.32	8219.96
469.50	8046.76
469.69	8332.31
469.87	8236.35
470.05	8437.63
470.23	8425.93
470.41	8432.95
470.59	8344.01
470.77	8383.80
470.95	8346.35
471.14	8533.59
471.32	8472.74
471.50	8732.54
471.68	8390.82
471.86	8652.96
472.04	8695.09
472.22	8997.02
472.40	8622.53
472.58	8669.34
472.77	8903.40
472.95	8912.76
473.13	9022.77
473.31	9114.05
473.49	8877.65
473.67	8959.57
473.85	8933.82
474.03	9280.22
474.21	9254.48
474.39	9404.27
474.57	9177.24
474.75	9462.79
474.93	9401.93
475.12	9399.59
475.30	9778.76
475.48	9600.88
475.66	9591.52
475.84	9633.64
476.02	9722.59
476.20	9858.34
476.38	9790.46
476.56	10087.71
476.74	9977.70
476.92	9989.41
477.10	10076.01
477.28	9961.32
477.46	10094.73
477.64	10345.17
477.82	10518.37
478.00	10761.78
478.18	10523.05
478.36	10649.44
478.54	10937.32
478.72	10619.01
478.90	10712.63
479.08	11164.36
479.26	11082.44
479.44	11061.37
479.62	11234.57
479.80	11255.64
479.98	11445.22
480.16	11620.76
480.34	11459.26
480.52	11662.89
480.70	11698.00
480.88	11393.73
481.06	11833.75
481.24	11880.56
481.41	11805.66
481.59	12198.87
481.77	12388.46
481.95	12168.45
482.13	12308.88
482.31	12500.80
482.49	12671.66
482.67	12760.60
482.85	12699.75
483.03	12912.74
483.21	12908.05
483.39	13071.89
483.57	13053.17
483.74	13275.52
483.92	13408.93
484.10	13373.82
484.28	13359.78
484.46	13610.22
484.64	14335.78
484.82	13729.58
485.00	13858.31
485.18	14008.11
485.35	14174.28
485.53	14295.99
485.71	14394.29
485.89	14434.08
486.07	14546.43
486.25	14820.27
486.43	14867.08
486.61	15012.20
486.78	15037.94
486.96	15225.18
487.14	15316.47
487.32	15253.27
487.50	15475.62
487.68	15393.70
487.85	15623.08
488.03	15838.41
488.21	15854.79
488.39	16098.20
488.57	16374.39
488.75	16341.62
488.92	16358.00
489.10	16655.25
489.28	16734.83
489.46	16961.86
489.64	16872.92
489.81	17172.51
489.99	17090.59
490.17	17362.09
490.35	17366.78
490.53	17755.30
490.70	18001.06
490.88	17392.52
491.06	18005.74
491.24	17912.12
491.41	17914.46
491.59	18087.66
491.77	18307.67
491.95	18377.89
492.13	18689.18
492.30	18508.96
492.48	18480.87
492.66	18511.30
492.84	19166.65
493.01	19154.94
493.19	19304.74
493.37	19243.88
493.54	19438.15
493.72	19880.51
493.90	19690.93
494.08	19726.04
494.25	19674.54
494.43	19936.68
494.61	20334.57
494.79	20238.61
494.96	20332.23
495.14	20470.33
495.32	20783.96
495.49	20514.80
495.67	20744.17
495.85	20980.56
496.02	21069.50
496.20	21172.49
496.38	21432.29
496.55	21605.49
496.73	21656.98
496.91	21441.65
497.09	21523.57
497.26	21579.74
497.44	21645.27
497.62	22190.62
497.79	22064.23
497.97	21879.33
498.14	22295.94
498.32	22202.32
498.50	22178.92
498.67	22710.22
498.85	22487.87
499.03	22869.37
499.20	23070.66
499.38	23007.47
499.56	22953.63
499.73	23302.37
499.91	23424.08
500.08	23772.82
500.26	23321.10
500.44	23503.66
500.61	23847.72
500.79	23667.50
500.97	23697.92
501.14	24521.79
501.32	24091.13
501.49	24273.70
501.67	23826.65
501.84	24563.92
502.02	24664.57
502.20	24205.82
502.37	24322.85
502.55	24877.55
502.72	24577.97
502.90	24547.54
503.07	24807.34
503.25	24872.87
503.43	24549.88
503.60	24889.26
503.78	25062.46
503.95	25418.22
504.13	25181.82
504.30	25556.31
504.48	25326.94
504.65	25062.46
504.83	25764.62
505.01	25593.76
505.18	25951.86
505.36	25755.26
505.53	25827.81
505.71	25993.99
505.88	26075.91
506.06	25970.58
506.23	26022.08
506.41	25900.37
506.58	26242.09
506.76	26508.91
506.93	26810.84
507.11	26838.92
507.28	26719.56
507.46	26277.19
507.63	26801.47
507.81	26560.40
507.98	26792.11
508.16	27119.79
508.33	27260.22
508.50	27358.52
508.68	26995.74
508.85	27604.28
509.03	27442.78
509.20	27463.85
509.38	27606.62
509.55	28128.56
509.73	28114.52
509.90	27922.59
510.08	27840.67
510.25	27700.24
510.42	28418.78
510.60	28407.08
510.77	28472.62
510.95	28811.99
511.12	28538.15
511.30	28477.30
511.47	28266.65
511.64	28723.05
511.82	28781.57
511.99	28706.67
512.17	28847.10
512.34	28776.89
512.51	29233.29
512.69	29223.93
512.86	29069.45
513.04	29495.43
513.21	29642.88
513.38	29486.07
513.56	29881.62
513.73	29186.48
513.90	29975.24
514.08	29635.86
514.25	29965.88
514.43	30136.74
514.60	29528.20
514.77	30122.69
514.95	30017.37
515.12	30225.68
515.29	30260.79
515.47	30288.87
515.64	30333.34
515.81	30197.59
515.99	30375.47
516.16	31065.93
516.33	30768.68
516.51	30637.61
516.68	30962.95
516.85	30459.73
517.03	31573.83
517.20	30874.01
517.37	30740.60
517.54	31028.48
517.72	31248.49
517.89	30845.92
518.06	31290.62
518.24	31407.65
518.41	31409.99
518.58	31515.31
518.75	31620.64
518.93	31283.60
519.10	31328.07
519.27	31475.52
519.45	31875.76
519.62	31875.76
519.79	32163.64
519.96	32238.54
520.14	32194.07
520.31	31894.48
520.48	32627.07
520.65	32208.11
520.83	32563.87
521.00	32268.97
521.17	32428.12
521.34	33027.30
521.52	32816.65
521.69	32929.00
521.86	32854.10
522.03	32884.53
522.20	33088.15
522.38	33511.79
522.55	33319.87
522.72	33120.92
522.89	33326.89
523.07	33310.50
523.24	33734.14
523.41	33474.34
523.58	33088.15
523.75	33680.31
523.92	33654.56
524.10	33944.79
524.27	33874.57
524.44	34106.29
524.61	34045.43
524.78	33806.70
524.96	34078.20
525.13	34230.33
525.30	33963.51
525.47	34061.82
525.64	34333.32
525.81	34375.45
525.98	34801.43
526.16	34103.95
526.33	34349.70
526.50	34841.21
526.67	34513.54
526.84	34740.57
527.01	35014.41
527.18	34976.97
527.36	34969.94
527.53	34714.83
527.70	35405.28
527.87	35445.07
528.04	34803.77
528.21	35117.40
528.38	34637.59
528.55	35243.79
528.72	35543.38
528.89	35353.79
529.07	35482.52
529.24	35489.54
529.41	35929.56
529.58	35501.25
529.75	35136.12
529.92	35803.17
530.09	36161.28
530.26	35629.98
530.43	36116.81
530.60	35662.74
530.77	36041.91
530.94	36037.23
531.11	36156.60
531.28	36147.23
531.46	36507.68
531.63	36350.86
531.80	36182.34
531.97	36123.83
532.14	36388.31
532.31	36243.20
532.48	36652.79
532.65	36865.78
532.82	36531.08
532.99	36343.84
533.16	36524.06
533.33	37113.87
533.50	36573.21
533.67	36945.36
533.84	36945.36
534.01	36910.25
534.18	37226.22
534.35	37476.66
534.52	37233.24
534.69	37642.84
534.86	37448.57
535.03	37315.16
535.20	37837.10
535.37	37411.12
535.54	37750.50
535.71	37476.66
535.88	37757.52
536.05	37446.23
536.22	38101.58
536.38	37628.79
536.55	37448.57
536.72	37549.21
536.89	37624.11
537.06	37436.87
537.23	38239.67
537.40	37338.57
537.57	37867.53
537.74	38157.75
537.91	38113.28
538.08	38082.86
538.25	38225.63
538.42	38700.76
538.59	38850.55
538.75	38359.04
538.92	38316.91
539.09	38672.67
539.26	38822.47
539.43	38497.13
539.60	38609.48
539.77	38419.89
539.94	38899.70
540.11	38930.13
540.28	38555.64
540.44	38862.26
540.61	38518.20
540.78	39122.05
540.95	38883.32
541.12	38733.53
541.29	38824.81
541.46	39189.93
541.62	39386.54
541.79	39541.01
541.96	38946.51
542.13	39210.99
542.30	38906.73
542.47	38705.44
542.63	39133.76
542.80	39496.54
542.97	40112.10
543.14	39974.01
543.31	39988.05
543.48	39573.78
543.64	40163.59
543.81	39800.81
543.98	39948.26
544.15	39959.97
544.32	39800.81
544.48	40327.43
544.65	39627.61
544.82	40385.94
544.99	39665.06
545.16	40238.49
545.32	40240.83
545.49	40360.20
545.66	40795.54
545.83	40741.71
546.00	40498.29
546.16	40680.85
546.33	40610.64
546.50	40360.20
546.67	40760.43
546.83	40156.57
547.00	40666.81
547.17	40868.09
547.34	40481.91
547.50	41017.89
547.67	41174.70
547.84	40528.72
548.00	40631.70
548.17	41127.89
548.34	40910.22
548.51	41668.56
548.67	41092.79
548.84	41448.55
549.01	41158.32
549.18	41174.70
549.34	41137.26
549.51	41167.68
549.68	41116.19
549.84	41469.61
550.01	41647.49
550.18	41013.21
550.34	41209.81
550.51	41584.30
550.68	41497.70
550.84	41242.58
551.01	41654.51
551.18	41530.47
551.34	41528.13
551.51	41523.44
551.68	41387.69
551.84	41516.42
552.01	41621.75
552.18	41750.48
552.34	41823.03
552.51	41757.50
552.68	41570.25
552.84	41633.45
553.01	42078.15
553.18	41792.61
553.34	42101.56
553.51	41755.16
553.67	42665.63
553.84	42780.31
554.01	42017.30
554.17	42302.84
554.34	42593.07
554.51	42359.02
554.67	42471.36
554.84	42412.85
555.00	42181.13
555.17	41961.12
555.33	42773.29
555.50	42405.83
555.67	42375.40
555.83	42857.55
556.00	42506.47
556.16	43110.33
556.33	42944.15
556.50	42871.59
556.66	42990.96
556.83	42415.19
556.99	42813.08
557.16	42827.12
557.32	43248.42
557.49	43140.75
557.65	42735.84
557.82	42873.93
557.98	42965.21
558.15	43129.05
558.32	43278.85
558.48	42756.91
558.65	43426.30
558.81	42717.12
558.98	42836.48
559.14	42871.59
559.31	43192.25
559.47	43346.72
559.64	43028.41
559.80	43288.21
559.97	43185.22
560.13	42923.08
560.30	43604.18
560.46	43526.94
560.63	43433.32
560.79	43606.52
560.96	43585.46
561.12	43475.45
561.29	43447.36
561.45	43061.18
561.61	43606.52
561.78	42979.26
561.94	43019.05
562.11	43587.80
562.27	43751.63
562.44	43711.84
562.60	43643.97
562.77	43878.02
562.93	43737.59
563.10	43793.76
563.26	43718.87
563.42	44177.61
563.59	44100.37
563.75	43426.30
563.92	44023.14
564.08	43695.46
564.24	43913.13
564.41	43622.90
564.57	43372.47
564.74	44116.76
564.90	43910.79
565.07	44196.34
565.23	43732.91
565.39	43952.92
565.56	43779.72
565.72	43803.13
565.88	43899.09
566.05	44257.19
566.21	43826.53
566.38	44067.61
566.54	44140.16
566.70	44191.65
566.87	44037.18
567.03	44320.38
567.19	44105.06
567.36	43962.28
567.52	44301.66
567.68	44385.92
567.85	44446.77
568.01	44460.82
568.17	43966.96
568.34	44505.29
568.50	44423.37
568.66	44191.65
568.83	44395.28
568.99	43981.01
569.15	44514.65
569.32	43943.56
569.48	44540.39
569.64	44617.63
569.81	44559.12
569.97	44575.50
570.13	44570.82
570.30	44404.64
570.46	44135.48
570.62	44568.48
570.78	44428.05
570.95	44397.62
571.11	44655.08
571.27	44566.14
571.43	44418.69
571.60	44484.22
571.76	44378.90
571.92	44486.56
572.09	44287.62
572.25	44215.06
572.41	44142.50
572.57	44334.43
572.74	45160.64
572.90	44563.80
573.06	44926.58
573.22	44189.31
573.38	44851.69
573.55	44477.20
573.71	44912.54
573.87	44505.29
574.03	45097.44
574.20	44807.22
574.36	44964.03
574.52	45008.50
574.68	44718.28
574.84	44879.77
575.01	44744.02
575.17	45144.25
575.33	44928.92
575.49	44992.12
575.65	45125.53
575.82	44877.43
575.98	44364.85
576.14	44835.30
576.30	45067.02
576.46	44947.65
576.62	44741.68
576.79	44566.14
576.95	44711.25
577.11	44615.29
577.27	44945.31
577.43	45038.93
577.59	44849.35
577.75	44435.07
577.92	44446.77
578.08	44760.40
578.24	44898.50
578.40	45099.78
578.56	45137.23
578.72	44772.11
578.88	44870.41
579.04	45130.21
579.21	44725.30
579.37	45170.00
579.53	45097.44
579.69	45031.91
579.85	44802.53
580.01	45069.36
580.17	44942.97
580.33	45071.70
580.49	45181.70
580.65	44903.18
580.82	45469.59
580.98	44685.51
581.14	44769.77
581.30	45116.17
581.46	44952.33
581.62	45207.45
581.78	45055.31
581.94	44547.42
582.10	44966.37
582.26	45361.92
582.42	44985.10
582.58	45127.87
582.74	44971.05
582.90	45111.49
583.06	45202.77
583.22	44722.96
583.38	45230.85
583.54	44938.29
583.70	45326.81
583.86	45099.78
584.02	45195.74
584.18	45226.17
584.34	45027.23
584.50	45364.26
584.66	45628.74
584.82	45181.70
584.98	45736.41
585.14	44994.46
585.30	44811.90
585.46	44477.20
585.62	45017.86
585.78	45212.13
585.94	45003.82
586.10	45191.06
586.26	44938.29
586.42	45020.20
586.58	45617.04
586.74	45202.77
586.90	45478.95
587.06	45221.49
587.22	45495.33
587.38	45481.29
587.54	45184.04
587.70	45385.33
587.86	45441.50
588.02	45467.25
588.18	44992.12
588.34	45153.62
588.49	45350.22
588.65	45141.91
588.81	45408.73
588.97	45275.32
589.13	45289.37
589.29	45251.92
589.45	45397.03
589.61	45464.91
589.77	45645.13
589.93	45322.13
590.08	45497.67
590.24	45399.37
590.40	45790.24
590.56	45766.84
590.72	45713.00
590.88	45624.06
591.04	45340.86
591.20	45645.13
591.35	45933.01
591.51	45911.95
591.67	45748.11
591.83	45823.01
591.99	45425.12
592.15	45729.39
592.31	45853.44
592.46	45731.73
592.62	45265.96
592.78	45677.90
592.94	45944.72
593.10	46394.10
593.26	46305.16
593.41	46096.85
593.57	46265.37
593.73	45743.43
593.89	45942.38
594.05	45984.51
594.20	45947.06
594.36	46241.96
594.52	45673.21
594.68	46391.76
594.84	45738.75
594.99	46197.49
595.15	45748.11
595.31	45968.12
595.47	45694.28
595.62	45879.18
595.78	45911.95
595.94	45951.74
596.10	45584.27
596.25	45853.44
596.41	46078.13
596.57	45743.43
596.73	45778.54
596.88	45911.95
597.04	46272.39
597.20	45865.14
597.36	45949.40
597.51	45872.16
597.67	45698.96
597.83	45815.99
597.99	46178.77
598.14	46333.24
598.30	46017.27
598.46	45918.97
598.61	46225.58
598.77	46174.09
598.93	46473.68
599.09	46227.92
599.24	46562.62
599.40	46267.71
599.56	46064.08
599.71	46183.45
599.87	46653.90
600.03	46218.56
600.18	46300.48
600.34	46101.53
600.50	46604.75
600.65	45991.53
600.81	46377.72
600.97	46136.64
601.12	46234.94
601.28	46288.77
601.44	45949.40
601.59	45928.33
601.75	45879.18
601.91	46108.55
602.06	45893.22
602.22	46330.90
602.37	45670.87
602.53	45968.12
602.69	46087.49
602.84	46361.33
603.00	46014.93
603.16	46251.33
603.31	46478.36
603.47	46094.51
603.62	46218.56
603.78	46417.50
603.94	46134.30
604.09	45979.82
604.25	45942.38
604.40	45970.46
604.56	46230.26
604.71	46131.96
604.87	46064.08
605.03	46380.06
605.18	46190.47
605.34	46251.33
605.49	46045.36
605.65	45738.75
605.80	45991.53
605.96	45916.63
606.12	45773.86
606.27	46047.70
606.43	45600.66
606.58	46014.93
606.74	45918.97
606.89	46129.62
607.05	45900.25
607.20	46014.93
607.36	46195.15
607.51	46096.85
607.67	45954.08
607.82	45804.28
607.98	46440.91
608.13	46050.04
608.29	45759.81
608.44	45687.26
608.60	45610.02
608.75	45881.52
608.91	45736.41
609.06	45254.26
609.22	45626.40
609.37	45553.85
609.53	45890.88
609.68	45893.22
609.84	45696.62
609.99	45900.25
610.15	45794.92
610.30	45675.55
610.46	45759.81
610.61	45776.20
610.76	46000.89
610.92	45256.60
611.07	45572.57
611.23	45595.98
611.38	45757.47
611.54	45425.12
611.69	46040.68
611.84	45848.75
612.00	45450.86
612.15	45483.63
612.31	45989.19
612.46	45287.03
612.62	45605.34
612.77	45357.24
612.92	45851.09
613.08	45647.47
613.23	45666.19
613.39	45600.66
613.54	45287.03
613.69	45514.06
613.85	45684.92
614.00	45382.99
614.15	45825.35
614.31	45057.65
614.46	44968.71
614.62	45186.38
614.77	45153.62
614.92	45322.13
615.08	45385.33
615.23	45918.97
615.38	45834.71
615.54	45076.38
615.69	45474.27
615.84	45371.28
616.00	45069.36
616.15	45572.57
616.30	45392.35
616.46	44893.82
616.61	45289.37
616.76	45666.19
616.92	44444.43
617.07	45628.74
617.22	45385.33
617.37	44971.05
617.53	44964.03
617.68	45200.43
617.83	45038.93
617.99	45610.02
618.14	45029.57
618.29	45001.48
618.45	45024.89
618.60	44844.66
618.75	44907.86
618.90	44823.60
619.06	44804.88
619.21	44839.98
619.36	45251.92
619.51	45059.99
619.67	44371.88
619.82	44563.80
619.97	45055.31
620.12	44760.40
620.28	44648.06
620.43	44839.98
620.58	44790.83
620.73	44643.38
620.89	44439.75
621.04	44631.68
621.19	44844.66
621.34	44327.41
621.49	44322.72
621.65	44355.49
621.80	44795.51
621.95	44762.75
622.10	44725.30
622.25	44629.34
622.41	44652.74
622.56	44425.71
622.71	44706.57
622.86	44783.81
623.01	44062.93
623.16	44177.61
623.32	44645.72
623.47	44446.77
623.62	43746.95
623.77	44470.18
623.92	44144.84
624.07	44179.95
624.23	44257.19
624.38	44362.51
624.53	44341.45
624.68	43896.75
624.83	43910.79
624.98	44128.46
625.13	44201.02
625.29	43737.59
625.44	44336.77
625.59	44058.24
625.74	44069.95
625.89	43742.27
626.04	43725.89
626.19	44091.01
626.34	43583.12
626.49	43934.20
626.65	43468.43
626.80	43828.87
626.95	43744.61
627.10	43477.79
627.25	43454.39
627.40	43697.80
627.55	43599.50
627.70	43395.87
627.85	43611.20
628.00	43952.92
628.15	43599.50
628.30	43552.69
628.45	43232.04
628.60	43065.86
628.76	43398.21
628.91	43161.82
629.06	43086.92
629.21	42974.58
629.36	42892.66
629.51	43330.34
629.66	43470.77
629.81	43505.88
629.96	43599.50
630.11	43030.75
630.26	43370.13
630.41	43185.22
630.56	43203.95
630.71	43058.84
630.86	43194.59
631.01	42918.40
631.16	42972.24
631.31	42831.80
631.46	42869.25
631.61	43503.54
631.76	43274.16
631.91	43210.97
632.06	43320.98
632.21	43143.09
632.36	43206.29
632.51	42728.82
632.66	42824.78
632.81	42370.72
632.96	42899.68
633.10	42869.25
633.25	42909.04
633.40	42885.64
633.55	42775.63
633.70	42483.06
633.85	42356.67
634.00	42499.45
634.15	42658.60
634.30	42424.55
634.45	42759.25
634.60	42403.49
634.75	42857.55
634.90	42234.97
635.05	42536.90
635.19	42597.75
635.34	42394.12
635.49	42223.26
635.64	42492.43
635.79	42330.93
635.94	42291.14
636.09	42436.25
636.24	42611.79
636.39	42377.74
636.53	42351.99
636.68	41773.88
636.83	42106.24
636.98	42019.64
637.13	41701.32
637.28	41600.68
637.43	42391.78
637.57	42012.62
637.72	41865.16
637.87	41979.85
638.02	42305.18
638.17	41848.78
638.32	42024.32
638.46	41986.87
638.61	41383.01
638.76	41904.95
638.91	42085.17
639.06	41544.51
639.20	41455.57
639.35	41614.72
639.50	41212.15
639.65	41537.49
639.80	41928.36
639.94	41806.65
640.09	41794.95
640.24	41713.03
640.39	41221.52
640.54	41146.62
640.68	42033.68
640.83	41848.78
640.98	41448.55
641.13	41364.29
641.27	41591.32
641.42	41312.80
641.57	41345.56
641.72	41490.68
641.86	41251.94
642.01	41092.79
642.16	41076.40
642.31	40903.20
642.45	41268.33
642.60	40779.15
642.75	41659.20
642.90	41088.10
643.04	41392.37
643.19	41228.54
643.34	41120.87
643.48	40776.81
643.63	40893.84
643.78	41205.13
643.93	41123.21
644.07	41191.09
644.22	41280.03
644.37	40884.48
644.51	40935.97
644.66	41106.83
644.81	40533.40
644.95	40631.70
645.10	41216.83
645.25	40758.09
645.39	40392.97
645.54	40491.27
645.69	40018.48
645.83	40311.05
645.98	40596.59
646.13	40832.99
646.27	40423.39
646.42	40229.13
646.57	40191.68
646.71	40837.67
646.86	40793.20
647.00	40751.07
647.15	40893.84
647.30	40402.33
647.44	40172.96
647.59	40156.57
647.74	40388.28
647.88	40708.94
648.03	40643.40
648.17	40481.91
648.32	40327.43
648.47	40680.85
648.61	40187.00
648.76	40470.20
648.90	40105.08
649.05	40509.99
649.20	40081.67
649.34	39885.07
649.49	40130.83
649.63	40617.66
649.78	40016.14
649.92	39910.82
650.07	40414.03
650.21	39894.43
650.36	40407.01
650.51	39999.76
650.65	40091.04
650.80	40402.33
650.94	39770.38
651.09	39779.74
651.23	39702.51
651.38	39606.55
651.52	39728.25
651.67	39541.01
651.81	39700.17
651.96	39627.61
652.10	39290.57
652.25	39566.76
652.39	39838.26
652.54	39508.24
652.68	39402.92
652.83	39585.48
652.97	39756.34
653.12	39594.84
653.26	39714.21
653.41	39615.91
653.55	39730.59
653.70	39758.68
653.84	39723.57
653.99	39477.82
654.13	39524.63
654.27	39084.61
654.42	39306.96
654.56	39110.35
654.71	39512.92
654.85	39786.77
655.00	39201.63
655.14	39613.57
655.29	39718.89
655.43	39674.42
655.57	39145.46
655.72	39000.35
655.86	39463.77
656.01	38731.18
656.15	38780.34
656.30	39215.68
656.44	38993.32
656.58	38986.30
656.73	38801.40
656.87	38698.42
657.01	38185.84
657.16	38656.29
657.30	38281.80
657.45	38485.43
657.59	38548.62
657.73	38265.42
657.88	38792.04
658.02	38939.49
658.16	38700.76
658.31	38815.44
658.45	38768.63
658.60	38431.60
658.74	38604.80
658.88	38401.17
659.03	38270.10
659.17	38003.28
659.31	38291.16
659.46	38122.65
659.60	38403.51
659.74	38132.01
659.89	37528.15
660.03	37895.61
660.17	38251.38
660.32	37860.51
660.46	38094.56
660.60	37617.09
660.74	37865.19
660.89	37883.91
661.03	37462.61
661.17	37457.93
661.32	37490.70
661.46	37951.79
661.60	37858.17
661.74	37626.45
661.89	37479.00
662.03	37757.52
662.17	37331.54
662.31	37228.56
662.46	37523.47
662.60	37024.93
662.74	36863.44
662.88	36975.78
663.03	36825.99
663.17	37015.57
663.31	36526.40
663.45	37106.85
663.60	37535.17
663.74	37113.87
663.88	36961.74
664.02	36627.04
664.17	37134.94
664.31	36519.38
664.45	36282.98
664.59	36816.63
664.73	36341.50
664.88	36589.59
665.02	35840.62
665.16	36416.40
665.30	36816.63
665.44	36292.35
665.59	36400.01
665.73	36266.60
665.87	35601.89
666.01	36194.04
666.15	36025.53
666.29	36198.73
666.44	35871.05
666.58	36327.45
666.72	35805.52
666.86	35885.09
667.00	35674.45
667.14	35625.29
667.28	35943.61
667.43	35304.64
667.57	35859.35
667.71	35468.48
667.85	35835.94
667.99	35697.85
668.13	35314.00
668.27	34845.90
668.41	34888.03
668.56	34834.19
668.70	34726.53
668.84	34520.56
668.98	34763.98
669.12	35255.49
669.26	34895.05
669.40	34855.26
669.54	34550.99
669.68	35215.70
669.82	34822.49
669.96	34263.10
670.10	34195.23
670.25	34586.10
670.39	34211.61
670.53	34433.96
670.67	33886.28
670.81	34567.37
670.95	34305.23
671.09	34125.01
671.23	33839.47
671.37	34141.39
671.51	33771.59
671.65	33369.02
671.79	33565.62
671.93	33551.58
672.07	33881.60
672.21	33645.20
672.35	33083.47
672.49	33212.20
672.63	33539.88
672.77	33195.82
672.91	33118.58
673.05	32690.26
673.19	32924.32
673.33	32753.46
673.47	32769.84
673.61	32636.43
673.75	32975.81
673.89	32950.06
674.03	32268.97
674.17	32109.81
674.31	32254.92
674.45	32320.46
674.59	32360.25
674.73	31910.86
674.87	32126.19
675.01	31651.06
675.15	31559.78
675.29	31679.15
675.43	31459.14
675.56	31503.61
675.70	31475.52
675.84	31749.37
675.98	30525.27
676.12	31274.24
676.26	31257.85
676.40	30965.29
676.54	31234.45
676.68	30988.69
676.82	30487.82
676.96	30768.68
677.10	30916.14
677.23	30373.13
677.37	30368.45
677.51	30539.31
677.65	30412.92
677.79	30167.16
677.93	30319.30
678.07	30015.03
678.21	29954.18
678.34	29626.50
678.48	29743.53
678.62	29509.47
678.76	29305.85
678.90	29441.60
679.04	29567.99
679.18	29673.31
679.31	29483.73
679.45	28912.64
679.59	29062.43
679.73	29284.78
679.87	28652.84
680.00	28830.72
680.14	28643.48
680.28	29165.42
680.42	28493.68
680.56	28252.61
680.70	28135.58
680.83	27997.49
680.97	28196.43
681.11	28285.37
681.25	27772.80
681.39	27754.07
681.52	27866.42
681.66	27674.49
681.80	27435.76
681.94	27248.52
682.07	27257.88
682.21	27077.66
682.35	27199.37
682.49	27103.40
682.62	27161.92
682.76	27122.13
682.90	26965.31
683.04	26754.66
683.17	26574.44
683.31	26480.82
683.45	26752.32
683.59	26118.04
683.72	26321.66
683.86	26295.92
684.00	26277.19
684.13	25869.94
684.27	25830.15
684.41	25912.07
684.55	25778.66
684.68	25671.00
684.82	25432.26
684.96	25525.88
685.09	25226.29
685.23	25254.38
685.37	25317.57
685.50	25366.73
685.64	25528.22
685.78	24950.11
685.91	24889.26
686.05	24498.39
686.19	24187.10
686.32	24460.94
686.46	24098.16
686.60	24006.87
686.73	24254.97
686.87	24367.32
687.01	24418.81
687.14	24203.48
687.28	23889.85
687.42	24084.11
687.55	23608.98
687.69	23758.78
687.82	23522.38
687.96	23445.15
688.10	23672.18
688.23	23726.01
688.37	23517.70
688.50	23363.23
688.64	23129.17
688.78	22946.61
688.91	23098.75
689.05	22937.25
689.18	22958.31
689.32	22279.56
689.46	22398.93
689.59	22483.19
689.73	22658.73
689.86	22862.35
690.00	22464.46
690.13	22242.11
690.27	22113.38
690.41	22480.85
690.54	21692.08
690.68	21788.05
690.81	21816.13
690.95	21736.56
691.08	21434.63
691.22	21535.27
691.35	21263.77
691.49	21053.12
691.62	21362.07
691.76	21060.14
691.89	20751.19
692.03	20589.69
692.16	20662.25
692.30	20790.98
692.43	20662.25
692.57	20383.73
692.70	20301.81
692.84	20451.60
692.97	20372.02
693.11	20182.44
693.24	19974.13
693.38	20189.46
693.51	19578.58
693.65	19688.59
693.78	19882.85
693.92	19344.53
694.05	19559.86
694.19	19454.53
694.32	19826.68
694.45	19302.40
694.59	19580.92
694.72	19506.02
694.86	19204.10
694.99	19042.60
695.13	18757.05
695.26	18733.65
695.39	18450.44
695.53	18602.58
695.66	18672.79
695.80	18558.11
695.93	18429.38
696.07	18291.29
696.20	18202.35
696.33	17980.00
696.47	17759.98
696.60	18005.74
696.73	18155.54
696.87	18169.58
697.00	17769.35
697.14	17479.12
697.27	17710.83
697.40	17500.19
697.54	17406.56
697.67	17369.12
697.80	17596.15
697.94	17298.90
698.07	17296.56
698.21	17200.60
698.34	17303.58
698.47	16896.33
698.61	16453.97
698.74	16594.40
698.87	16589.72
699.01	16301.83
699.14	16479.71
699.27	16353.32
699.40	16538.23
699.54	16306.51
699.67	16154.38
699.80	16058.42
699.94	15948.41
700.07	16056.08
700.20	15716.70
700.34	15747.12
700.47	15803.30
700.60	15800.96
700.73	15899.26
700.87	15585.63
701.00	15452.22
701.13	15290.72
701.26	15077.73
701.40	15033.26
701.53	15087.09
701.66	15183.06
701.79	15101.14
701.93	14864.74
702.06	14553.45
702.19	14581.54
702.32	14705.59
702.46	14803.89
702.59	14537.07
702.72	14860.06
702.85	14546.43
702.99	14511.32
703.12	14312.38
703.25	14181.31
703.38	14288.97
703.51	14321.74
703.65	13977.68
703.78	13940.23
703.91	13760.01
704.04	13912.14
704.17	13795.12
704.31	13738.94
704.44	13561.06
704.57	13479.15
704.70	13521.27
704.83	13640.64
704.96	13345.73
705.10	13130.41
705.23	12968.91
>>>>>End Processed Spectral Data<<<<<
