SpectraSuite Data File
++++++++++++++++++++++++++++++++++++
Date: Fri Oct 25 10:47:40 EDT 2013
User: price-jones
Dark Spectrum Present: No
Reference Spectrum Present: No
Number of Sampled Component Spectra: 1
Spectrometers: USB2+H05261
Integration Time (usec): 100000 (USB2+H05261)
Spectra Averaged: 1 (USB2+H05261)
Boxcar Smoothing: 0 (USB2+H05261)
Correct for Electrical Dark: No (USB2+H05261)
Strobe/Lamp Enabled: No (USB2+H05261)
Correct for Detector Non-linearity: No (USB2+H05261)
Correct for Stray Light: No (USB2+H05261)
Number of Pixels in Processed Spectrum: 2048
>>>>>Begin Processed Spectral Data<<<<<
365.73	196.60
365.92	196.60
366.12	196.60
366.32	35.11
366.52	0.00
366.72	58.51
366.91	0.00
367.11	30.43
367.31	37.45
367.51	98.30
367.70	49.15
367.90	86.60
368.10	23.41
368.30	46.81
368.49	67.88
368.69	67.88
368.89	58.51
369.09	56.17
369.28	72.56
369.48	79.58
369.68	44.47
369.87	37.45
370.07	88.94
370.27	110.01
370.47	252.78
370.66	376.83
370.86	358.10
371.06	458.74
371.25	575.77
371.45	449.38
371.65	442.36
371.84	409.59
372.04	451.72
372.24	540.66
372.44	573.43
372.63	533.64
372.83	557.05
373.03	526.62
373.22	437.68
373.42	557.05
373.62	566.41
373.81	463.43
374.01	491.51
374.21	615.56
374.40	514.92
374.60	587.47
374.79	573.43
374.99	622.58
375.19	552.37
375.38	538.32
375.58	603.86
375.78	711.52
375.97	552.37
376.17	582.79
376.37	617.90
376.56	568.75
376.76	585.13
376.95	589.82
377.15	688.12
377.35	702.16
377.54	624.92
377.74	638.97
377.93	645.99
378.13	606.20
378.33	671.73
378.52	528.96
378.72	582.79
378.91	610.88
379.11	688.12
379.31	657.69
379.50	624.92
379.70	734.93
379.89	624.92
380.09	631.94
380.28	615.56
380.48	720.88
380.68	669.39
380.87	650.67
381.07	685.78
381.26	683.44
381.46	655.35
381.65	676.41
381.85	683.44
382.04	688.12
382.24	727.91
382.43	744.29
382.63	629.60
382.83	702.16
383.02	720.88
383.22	730.25
383.41	685.78
383.61	667.05
383.80	704.50
384.00	751.31
384.19	695.14
384.39	816.85
384.58	781.74
384.78	807.48
384.97	748.97
385.17	791.10
385.36	688.12
385.56	802.80
385.75	730.25
385.95	795.78
386.14	877.70
386.34	699.82
386.53	844.93
386.72	823.87
386.92	847.27
387.11	849.61
387.31	763.01
387.50	809.83
387.70	861.32
387.89	751.31
388.09	826.21
388.28	917.49
388.48	868.34
388.67	966.64
388.86	964.30
389.06	870.68
389.25	922.17
389.45	873.02
389.64	936.21
389.84	901.11
390.03	889.40
390.22	910.47
390.42	983.02
390.61	964.30
390.81	922.17
391.00	957.28
391.19	1067.28
391.39	912.81
391.58	903.45
391.78	950.26
391.97	987.71
392.16	1018.13
392.36	971.32
392.55	929.19
392.75	1011.11
392.94	978.34
393.13	931.53
393.33	997.07
393.52	1008.77
393.71	1109.41
393.91	1034.52
394.10	1100.05
394.29	1064.94
394.49	1050.90
394.68	1008.77
394.88	1102.39
395.07	1102.39
395.26	1097.71
395.46	1214.74
395.65	1067.28
395.84	1114.10
396.04	1144.52
396.23	1132.82
396.42	1163.25
396.62	1095.37
396.81	1135.16
397.00	1174.95
397.19	1114.10
397.39	1263.89
397.58	1174.95
397.77	1259.21
397.97	1287.29
398.16	1282.61
398.35	1254.53
398.55	1235.80
398.74	1275.59
398.93	1324.74
399.12	1336.45
399.32	1214.74
399.51	1425.39
399.70	1483.90
399.90	1401.98
400.09	1376.24
400.28	1502.62
400.47	1465.18
400.67	1481.56
400.86	1486.24
401.05	1521.35
401.24	1533.05
401.44	1582.20
401.63	1563.48
401.82	1453.47
402.01	1544.75
402.21	1549.43
402.40	1465.18
402.59	1472.20
402.78	1514.33
402.97	1497.94
403.17	1687.53
403.36	1640.72
403.55	1659.44
403.74	1586.88
403.93	1664.12
404.13	1626.67
404.32	1600.93
404.51	1685.19
404.70	1685.19
404.89	1652.42
405.09	1783.49
405.28	1659.44
405.47	1706.25
405.66	1799.87
405.85	1792.85
406.05	1753.06
406.24	1776.47
406.43	1830.30
406.62	1891.15
406.81	1909.88
407.00	1872.43
407.20	1858.39
407.39	1914.56
407.58	1933.28
407.77	1982.43
407.96	1909.88
408.15	1998.82
408.34	1944.99
408.54	1961.37
408.73	1926.26
408.92	2064.35
409.11	2101.80
409.30	1987.11
409.49	2087.76
409.68	2094.78
409.87	2012.86
410.07	2047.97
410.26	2186.06
410.45	2150.95
410.64	2209.47
410.83	2143.93
411.02	2239.89
411.21	2228.19
411.40	2265.64
411.59	2242.23
411.78	2380.32
411.98	2370.96
412.17	2342.88
412.36	2452.88
412.55	2385.01
412.74	2401.39
412.93	2537.14
413.12	2443.52
413.31	2527.78
413.50	2588.63
413.69	2523.10
413.88	2555.86
414.07	2630.76
414.26	2768.85
414.45	2679.91
414.64	2710.34
414.83	2693.96
415.02	2829.71
415.22	2778.22
415.41	2764.17
415.60	2736.09
415.79	2754.81
415.98	2878.86
416.17	2825.03
416.36	2874.18
416.55	2822.69
416.74	2871.84
416.93	2841.41
417.12	2967.80
417.31	2967.80
417.50	2984.18
417.69	3096.53
417.88	3019.29
418.07	3141.00
418.26	3016.95
418.45	3040.36
418.64	3185.47
418.83	3215.90
419.02	3215.90
419.21	3314.20
419.39	3417.18
419.58	3274.41
419.77	3288.45
419.96	3243.98
420.15	3325.90
420.34	3316.54
420.53	3428.88
420.72	3386.76
420.91	3475.70
421.10	3442.93
421.29	3517.83
421.48	3400.80
421.67	3478.04
421.86	3492.08
422.05	3389.10
422.24	3433.57
422.43	3529.53
422.61	3496.76
422.80	3578.68
422.99	3557.61
423.18	3487.40
423.37	3585.70
423.56	3517.83
423.75	3527.19
423.94	3574.00
424.13	3300.16
424.32	3410.16
424.50	3461.65
424.69	3571.66
424.88	3665.28
425.07	3639.53
425.26	3536.55
425.45	3602.08
425.64	3641.87
425.83	3494.42
426.01	3604.42
426.20	3772.94
426.39	3632.51
426.58	3641.87
426.77	3517.83
426.96	3604.42
427.15	3693.37
427.33	3653.58
427.52	3691.02
427.71	3749.54
427.90	3763.58
428.09	3770.60
428.28	3892.31
428.46	3819.75
428.65	3836.14
428.84	3808.05
429.03	3868.91
429.22	3698.05
429.40	3758.90
429.59	3934.44
429.78	3705.07
429.97	3637.19
430.16	3730.81
430.34	3789.33
430.53	3854.86
430.72	3939.12
430.91	3896.99
431.10	3882.95
431.28	4107.64
431.47	4243.39
431.66	3992.95
431.85	4037.42
432.03	4180.20
432.22	4329.99
432.41	4147.43
432.60	4243.39
432.79	4306.59
432.97	4315.95
433.16	4325.31
433.35	4273.82
433.54	4241.05
433.72	4358.08
433.91	4355.74
434.10	4397.87
434.28	4278.50
434.47	4346.37
434.66	4416.59
434.85	4386.16
435.03	4468.08
435.22	4498.51
435.41	4660.01
435.59	4702.14
435.78	4674.05
435.97	4718.52
436.16	4725.54
436.34	4601.49
436.53	4587.45
436.72	4816.82
436.90	4545.32
437.09	4734.90
437.28	4582.77
437.46	4482.13
437.65	4627.24
437.84	4678.73
438.02	4641.28
438.21	4716.18
438.40	4751.29
438.58	4842.57
438.77	4905.76
438.96	4812.14
439.14	4910.44
439.33	5153.86
439.52	5137.48
439.70	5130.45
439.89	5172.58
440.08	5135.14
440.26	5284.93
440.45	5100.03
440.63	5322.38
440.82	5376.21
441.01	5315.36
441.19	5362.17
441.38	5472.17
441.57	5575.16
441.75	5631.33
441.94	5631.33
442.12	5717.93
442.31	5666.44
442.50	5713.25
442.68	5863.04
442.87	5827.93
443.05	5675.80
443.24	5844.32
443.43	5788.14
443.61	5790.49
443.80	5991.77
443.98	5790.49
444.17	5685.16
444.35	5973.05
444.54	6129.86
444.73	5771.76
444.91	5863.04
445.10	5982.41
445.28	5858.36
445.47	5858.36
445.65	5874.74
445.84	5806.87
446.02	5893.47
446.21	5837.30
446.39	5909.85
446.58	5984.75
446.77	5977.73
446.95	5884.11
447.14	6040.92
447.32	6040.92
447.51	5968.37
447.69	5996.45
447.88	5895.81
448.06	6111.14
448.25	6054.97
448.43	6118.16
448.62	6129.86
448.80	6146.25
448.99	6064.33
449.17	6239.87
449.36	5975.39
449.54	6291.36
449.73	6195.40
449.91	6441.15
450.10	6427.11
450.28	6354.55
450.46	6590.95
450.65	6560.52
450.83	6480.94
451.02	6492.65
451.20	6452.86
451.39	6523.07
451.57	6420.09
451.76	6377.96
451.94	6729.04
452.13	6548.82
452.31	6597.97
452.49	6525.41
452.68	6544.14
452.86	6569.88
453.05	6567.54
453.23	6616.69
453.42	6506.69
453.60	6600.31
453.78	6892.88
453.97	6682.23
454.15	6534.78
454.34	6642.44
454.52	6782.87
454.70	6853.09
454.89	6932.67
455.07	6942.03
455.26	6923.30
455.44	7014.59
455.62	7045.01
455.81	6965.43
455.99	6991.18
456.17	7140.97
456.36	6874.15
456.54	7037.99
456.73	7281.41
456.91	7389.07
457.09	7250.98
457.28	7360.98
457.46	7122.25
457.64	7393.75
457.83	7269.70
458.01	7307.15
458.19	7353.96
458.38	7321.20
458.56	7417.16
458.74	7426.52
458.93	7459.29
459.11	7424.18
459.29	7686.32
459.48	7552.91
459.66	7604.40
459.84	7686.32
460.03	7712.07
460.21	7836.11
460.39	7728.45
460.57	7543.55
460.76	7805.69
460.94	7878.24
461.12	7604.40
461.31	7815.05
461.49	7812.71
461.67	7702.70
461.85	8056.12
462.04	7941.44
462.22	8334.65
462.40	8161.45
462.59	8114.64
462.77	8006.97
462.95	8006.97
463.13	8002.29
463.32	8028.04
463.50	8180.17
463.68	8016.33
463.86	8154.43
464.05	8060.80
464.23	8116.98
464.41	8461.04
464.59	8189.53
464.78	8430.61
464.96	8119.32
465.14	8140.38
465.32	8308.90
465.50	8376.78
465.69	8428.27
465.87	8437.63
466.05	8283.16
466.23	8336.99
466.41	8650.62
466.60	8681.05
466.78	8477.42
466.96	8388.48
467.14	8596.79
467.32	8667.00
467.51	8496.14
467.69	8381.46
467.87	8486.78
468.05	8725.52
468.23	8650.62
468.41	8482.10
468.60	8652.96
468.78	8624.87
468.96	8882.33
469.14	8802.75
469.32	9071.92
469.50	8739.56
469.69	8947.87
469.87	8833.18
470.05	8959.57
470.23	9041.49
470.41	9032.13
470.59	9069.58
470.77	8992.34
470.95	9043.83
471.14	9146.81
471.32	9060.21
471.50	9329.38
471.68	9193.62
471.86	9521.30
472.04	9570.45
472.22	9509.60
472.40	9338.74
472.58	9525.98
472.77	9657.05
472.95	9514.28
473.13	10012.81
473.31	9762.37
473.49	9617.26
473.67	9619.60
473.85	9605.56
474.03	9921.53
474.21	9792.80
474.39	10054.94
474.57	9905.15
474.75	10202.40
474.93	10260.91
475.12	10157.92
475.30	10387.30
475.48	10284.31
475.66	10298.36
475.84	10270.27
476.02	10366.23
476.20	10335.81
476.38	10607.31
476.56	10850.72
476.74	10965.41
476.92	10829.66
477.10	10670.50
477.28	11023.92
477.46	11023.92
477.64	11014.56
477.82	11035.63
478.00	11447.56
478.18	11339.90
478.36	11482.67
478.54	11681.61
478.72	11538.84
478.90	11695.66
479.08	11819.71
479.26	12133.34
479.44	12020.99
479.62	12276.11
479.80	12297.17
479.98	12238.66
480.16	12566.34
480.34	12535.91
480.52	12573.36
480.70	12439.95
480.88	12425.90
481.06	12571.02
481.24	12791.03
481.41	13092.96
481.59	13144.45
481.77	13064.87
481.95	13275.52
482.13	13481.49
482.31	13500.21
482.49	13577.45
482.67	13500.21
482.85	13769.37
483.03	13844.27
483.21	14204.71
483.39	14167.26
483.57	14139.18
483.74	14539.41
483.92	14270.25
484.10	14146.20
484.28	14445.79
484.46	14656.43
484.64	15033.26
484.82	14745.38
485.00	14920.92
485.18	14956.02
485.35	15339.87
485.53	15002.83
485.71	15094.11
485.89	15484.98
486.07	15377.32
486.25	15492.01
486.43	15515.41
486.61	15751.81
486.78	15843.09
486.96	16226.93
487.14	16229.27
487.32	16596.74
487.50	16528.86
487.68	16706.74
487.85	17085.91
488.03	17090.59
488.21	17261.45
488.39	17109.32
488.57	17287.20
488.75	17326.99
488.92	17277.83
489.10	17745.94
489.28	17902.76
489.46	18132.13
489.64	18059.57
489.81	18642.37
489.99	18504.28
490.17	18759.39
490.35	18951.32
490.53	18892.80
490.70	19194.73
490.88	18913.87
491.06	19204.10
491.24	19262.61
491.41	19374.95
491.59	19068.34
491.77	19307.08
491.95	19337.51
492.13	19779.87
492.30	19749.44
492.48	19824.34
492.66	20063.07
492.84	20098.18
493.01	20414.15
493.19	20243.29
493.37	20739.49
493.54	20893.96
493.72	20985.24
493.90	20957.16
494.08	21287.17
494.25	21315.26
494.43	21298.88
494.61	21579.74
494.79	21745.92
494.96	21593.78
495.14	21762.30
495.32	22080.61
495.49	21841.88
495.67	22288.92
495.85	22134.45
496.02	22429.35
496.20	22551.06
496.38	22279.56
496.55	22649.36
496.73	23381.95
496.91	23063.64
497.09	22693.83
497.26	23456.85
497.44	23335.14
497.62	23316.42
497.79	23513.02
497.97	23161.94
498.14	23641.75
498.32	23821.97
498.50	23819.63
498.67	24313.48
498.85	23953.04
499.03	24191.78
499.20	24297.10
499.38	24645.84
499.56	24606.05
499.73	24692.65
499.91	24608.39
500.08	24847.13
500.26	24474.98
500.44	24891.60
500.61	24610.73
500.79	25055.43
500.97	25261.40
501.14	25270.76
501.32	25333.96
501.49	25261.40
501.67	25530.56
501.84	25542.27
502.02	25479.07
502.20	25841.85
502.37	25914.41
502.55	25703.76
502.72	25820.79
502.90	25813.77
503.07	26050.16
503.25	26403.58
503.43	26302.94
503.60	26291.24
503.78	26675.09
503.95	26190.59
504.13	26347.41
504.30	26829.56
504.48	26625.93
504.65	26862.33
504.83	27040.21
505.01	27349.16
505.18	26757.00
505.36	27274.26
505.53	27222.77
505.71	27770.46
505.88	27786.84
506.06	27445.12
506.23	27625.34
506.41	27555.13
506.58	27559.81
506.76	27988.13
506.93	28170.69
507.11	28027.92
507.28	28615.39
507.46	28156.64
507.63	28297.08
507.81	27999.83
507.98	28058.34
508.16	28453.89
508.33	28379.00
508.50	28786.25
508.68	29013.28
508.85	29490.75
509.03	29060.09
509.20	28940.72
509.38	29273.08
509.55	29186.48
509.73	29270.74
509.90	29081.16
510.08	29235.63
510.25	29605.44
510.42	29516.50
510.60	29862.90
510.77	29692.04
510.95	29628.84
511.12	29855.87
511.30	29748.21
511.47	30206.95
511.64	30237.38
511.82	30127.38
511.99	30305.26
512.17	30174.19
512.34	30263.13
512.51	30497.18
512.69	30579.10
512.86	30625.91
513.04	31285.94
513.21	30686.76
513.38	30941.88
513.56	30590.80
513.73	30813.15
513.90	31103.38
514.08	30874.01
514.25	31213.38
514.43	31419.35
514.60	31145.51
514.77	31250.83
514.95	31723.62
515.12	31035.50
515.29	31512.97
515.47	31695.53
515.64	31747.03
515.81	31775.11
515.99	31931.93
516.16	31534.04
516.33	31775.11
516.51	31599.57
516.68	31751.71
516.85	31557.44
517.03	32226.84
517.20	32428.12
517.37	32409.40
517.54	32568.55
517.72	32397.70
517.89	32093.43
518.06	32446.85
518.24	32617.71
518.41	32407.06
518.58	32121.51
518.75	32774.52
518.93	33017.94
519.10	32830.69
519.27	33139.65
519.45	32774.52
519.62	33064.75
519.79	33354.97
519.96	33469.66
520.14	33846.49
520.31	33343.27
520.48	33645.20
520.65	33778.61
520.83	33411.15
521.00	33839.47
521.17	33530.51
521.34	34113.31
521.52	33982.24
521.69	33921.38
521.86	34108.63
522.03	34497.16
522.20	33851.17
522.38	34494.82
522.55	34525.24
522.72	34525.24
522.89	34462.05
523.07	34576.73
523.24	34717.17
523.41	34459.71
523.58	34852.92
523.75	35054.20
523.92	34824.83
524.10	34953.56
524.27	34948.88
524.44	35351.45
524.61	35381.88
524.78	35534.01
524.96	35531.67
525.13	35562.10
525.30	35615.93
525.47	35875.73
525.64	35861.69
525.81	35531.67
525.98	35814.88
526.16	35416.99
526.33	35756.36
526.50	36077.02
526.67	35388.90
526.84	35793.81
527.01	35707.21
527.18	36116.81
527.36	35845.30
527.53	36161.28
527.70	36727.69
527.87	36444.48
528.04	36065.31
528.21	36400.01
528.38	36123.83
528.55	36474.91
528.72	36421.08
528.89	36884.50
529.07	36774.50
529.24	36594.28
529.41	37125.58
529.58	36870.46
529.75	36966.42
529.92	36926.63
530.09	37074.09
530.26	36924.29
530.43	36938.33
530.60	36816.63
530.77	37083.45
530.94	37645.18
531.11	37226.22
531.28	37703.69
531.46	37495.38
531.63	37633.47
531.80	37343.25
531.97	37408.78
532.14	37013.23
532.31	36961.74
532.48	37324.52
532.65	37919.02
532.82	37979.87
532.99	38117.96
533.16	37799.65
533.33	37954.13
533.50	38225.63
533.67	38256.06
533.84	37909.66
534.01	38188.18
534.18	37876.89
534.35	38354.36
534.52	37883.91
534.69	38153.07
534.86	38782.68
535.03	38787.36
535.20	38520.54
535.37	38995.67
535.54	38974.60
535.71	38471.39
535.88	38588.41
536.05	38710.12
536.22	38794.38
536.38	39096.31
536.55	38756.93
536.72	38473.73
536.89	38721.82
537.06	38885.66
537.23	39079.92
537.40	38642.24
537.57	39082.27
537.74	38976.94
537.91	39833.58
538.08	39505.90
538.25	38951.20
538.42	39267.17
538.59	39164.18
538.75	38916.09
538.92	38768.63
539.09	39416.96
539.26	39431.01
539.43	39330.36
539.60	39395.90
539.77	39814.85
539.94	39414.62
540.11	39821.87
540.28	39522.29
540.44	39660.38
540.61	39739.96
540.78	39625.27
540.95	39948.26
541.12	39824.22
541.29	39697.83
541.46	39945.92
541.62	39772.72
541.79	39742.30
541.96	40034.86
542.13	39913.16
542.30	39700.17
542.47	40313.39
542.63	40098.06
542.80	40500.63
542.97	40407.01
543.14	40996.82
543.31	40760.43
543.48	40439.78
543.64	41167.68
543.81	41188.75
543.98	40807.24
544.15	40818.94
544.32	40914.90
544.48	41209.81
544.65	40811.92
544.82	41282.37
544.99	40549.78
545.16	40999.16
545.32	40891.50
545.49	41684.94
545.66	41198.11
545.83	41111.51
546.00	41340.88
546.16	41083.42
546.33	41120.87
546.50	40870.43
546.67	41383.01
546.83	41198.11
547.00	41062.36
547.17	41228.54
547.34	41673.24
547.50	41474.29
547.67	42080.49
547.84	41888.57
548.00	42124.96
548.17	41794.95
548.34	41673.24
548.51	41893.25
548.67	42031.34
548.84	41759.84
549.01	41949.42
549.18	41631.11
549.34	41642.81
549.51	41687.28
549.68	42080.49
549.84	41977.51
550.01	42082.83
550.18	42249.01
550.34	41785.58
550.51	42351.99
550.68	41935.38
550.84	41652.17
551.01	42480.72
551.18	42213.90
551.34	42309.86
551.51	42246.67
551.68	42340.29
551.84	42389.44
552.01	41989.21
552.18	42302.84
552.34	42532.22
552.51	42466.68
552.68	42639.88
552.84	42443.27
553.01	42820.10
553.18	42717.12
553.34	42597.75
553.51	42377.74
553.67	42597.75
553.84	42967.55
554.01	42932.45
554.17	43082.24
554.34	43351.40
554.51	42841.17
554.67	42895.00
554.84	42679.67
555.00	43302.25
555.17	42789.67
555.33	42976.92
555.50	43189.91
555.67	42871.59
555.83	42691.37
556.00	42794.36
556.16	43470.77
556.33	43323.32
556.50	43512.90
556.66	43047.13
556.83	43063.52
556.99	43248.42
557.16	43920.15
557.32	43288.21
557.49	43297.57
557.65	43044.79
557.82	43215.65
557.98	43271.82
558.15	43173.52
558.32	43285.87
558.48	43356.08
558.65	43672.06
558.81	43693.12
558.98	43564.39
559.14	43243.74
559.31	43768.02
559.47	43852.28
559.64	43423.96
559.80	43728.23
559.97	43763.34
560.13	43634.61
560.30	43723.55
560.46	43620.56
560.63	43615.88
560.79	43910.79
560.96	44032.50
561.12	43945.90
561.29	44243.15
561.45	43849.94
561.61	43854.62
561.78	44027.82
561.94	43400.55
562.11	43594.82
562.27	43978.67
562.44	43770.36
562.60	44119.10
562.77	43786.74
562.93	43819.51
563.10	44194.00
563.26	43887.39
563.42	43772.70
563.59	44044.20
563.75	44247.83
563.92	44048.88
564.08	44327.41
564.24	44060.58
564.41	44474.86
564.57	44257.19
564.74	44224.42
564.90	44509.97
565.07	44360.17
565.23	43938.88
565.39	44067.61
565.56	44123.78
565.72	44397.62
565.88	44245.49
566.05	43573.75
566.21	44156.55
566.38	43878.02
566.54	44425.71
566.70	44184.63
566.87	44477.20
567.03	44322.72
567.19	44720.62
567.36	43922.49
567.52	43990.37
567.68	44474.86
567.85	44304.00
568.01	44524.01
568.17	44079.31
568.34	44428.05
568.50	43882.70
568.66	44385.92
568.83	44126.12
568.99	44605.93
569.15	44081.65
569.32	44144.84
569.48	44009.09
569.64	44671.46
569.81	44098.03
569.97	44156.55
570.13	44219.74
570.30	44271.23
570.46	44186.97
570.62	44238.47
570.78	44149.53
570.95	44378.90
571.11	44655.08
571.27	44465.50
571.43	44545.08
571.60	44119.10
571.76	44741.68
571.92	44535.71
572.09	44439.75
572.25	44240.81
572.41	44737.00
572.57	44701.89
572.74	45165.32
572.90	44732.32
573.06	44538.05
573.22	44704.23
573.38	44697.21
573.55	44203.36
573.71	44755.72
573.87	44526.35
574.03	43978.67
574.20	44406.98
574.36	44538.05
574.52	44715.93
574.68	44877.43
574.84	44921.90
575.01	44421.03
575.17	44540.39
575.33	44774.45
575.49	44545.08
575.65	44516.99
575.82	44938.29
575.98	44966.37
576.14	44945.31
576.30	44758.06
576.46	44542.74
576.62	44816.58
576.79	44580.18
576.95	44023.14
577.11	44357.83
577.27	44524.01
577.43	44832.96
577.59	44591.89
577.75	44725.30
577.92	44491.24
578.08	44619.97
578.24	43999.73
578.40	44294.64
578.56	44987.44
578.72	44580.18
578.88	44765.09
579.04	44671.46
579.21	44734.66
579.37	44732.32
579.53	44713.59
579.69	44423.37
579.85	44655.08
580.01	44521.67
580.17	44814.24
580.33	44992.12
580.49	44952.33
580.65	44872.75
580.82	44947.65
580.98	44687.85
581.14	44563.80
581.30	45125.53
581.46	44549.76
581.62	44641.04
581.78	44535.71
581.94	45226.17
582.10	44662.10
582.26	44488.90
582.42	44788.49
582.58	44734.66
582.74	44889.13
582.90	45242.56
583.06	44973.39
583.22	44999.14
583.38	45017.86
583.54	44706.57
583.70	44428.05
583.86	44584.86
584.02	44615.29
584.18	45137.23
584.34	44690.19
584.50	45029.57
584.66	44910.20
584.82	44687.85
584.98	44877.43
585.14	45165.32
585.30	44839.98
585.46	44650.40
585.62	44500.61
585.78	44968.71
585.94	44329.75
586.10	44945.31
586.26	44989.78
586.42	45244.90
586.58	45125.53
586.74	45085.74
586.90	44533.37
587.06	44774.45
587.22	44919.56
587.38	44589.55
587.54	45247.24
587.70	45200.43
587.86	44793.17
588.02	45123.19
588.18	44907.86
588.34	44587.21
588.49	44495.92
588.65	44809.56
588.81	44488.90
588.97	44980.42
589.13	44978.07
589.29	44835.30
589.45	44844.66
589.61	45034.25
589.77	45137.23
589.93	44875.09
590.08	45170.00
590.24	44957.01
590.40	45074.04
590.56	45097.44
590.72	45244.90
590.88	45221.49
591.04	45308.09
591.20	45516.40
591.35	45277.66
591.51	45455.54
591.67	45338.52
591.83	45422.78
591.99	45041.27
592.15	44863.39
592.31	44961.69
592.46	44879.77
592.62	45326.81
592.78	45020.20
592.94	45652.15
593.10	45134.89
593.26	45727.05
593.41	45151.27
593.57	45244.90
593.73	45074.04
593.89	45160.64
594.05	44854.03
594.20	45008.50
594.36	45638.11
594.52	45495.33
594.68	45399.37
594.84	45310.43
594.99	45724.71
595.15	45558.53
595.31	45619.38
595.47	45399.37
595.62	45593.64
595.78	44858.71
595.94	45633.42
596.10	45130.21
596.25	45263.62
596.41	45338.52
596.57	45312.77
596.73	45422.78
596.88	45057.65
597.04	45172.34
597.20	45029.57
597.36	45205.11
597.51	45434.48
597.67	45530.44
597.83	45177.02
597.99	45284.68
598.14	45361.92
598.30	44875.09
598.46	45347.88
598.61	44978.07
598.77	45116.17
598.93	45205.11
599.09	45155.96
599.24	45865.14
599.40	45764.49
599.56	45242.56
599.71	45450.86
599.87	45649.81
600.03	45294.05
600.18	45172.34
600.34	45710.66
600.50	45406.39
600.65	45038.93
600.81	45408.73
600.97	45577.25
601.12	46237.28
601.28	45539.80
601.44	44975.73
601.59	45275.32
601.75	45226.17
601.91	45546.82
602.06	44680.83
602.22	45361.92
602.37	45132.55
602.53	45097.44
602.69	45219.15
602.84	44940.63
603.00	45588.95
603.16	45310.43
603.31	45256.60
603.47	45041.27
603.62	45179.36
603.78	45773.86
603.94	45574.91
604.09	45773.86
604.25	45382.99
604.40	45200.43
604.56	45366.60
604.71	45387.67
604.87	45518.74
605.03	45305.75
605.18	45198.09
605.34	45181.70
605.49	45422.78
605.65	45186.38
605.80	45205.11
605.96	45270.64
606.12	45104.46
606.27	45088.08
606.43	44713.59
606.58	45258.94
606.74	45308.09
606.89	44704.23
607.05	44676.15
607.20	45408.73
607.36	45249.58
607.51	45193.40
607.67	45144.25
607.82	45141.91
607.98	45048.29
608.13	44807.22
608.29	44587.21
608.44	44949.99
608.60	44163.57
608.75	44807.22
608.91	44919.56
609.06	44596.57
609.22	45064.67
609.37	44748.70
609.53	44577.84
609.68	44952.33
609.84	44957.01
609.99	44999.14
610.15	44975.73
610.30	44772.11
610.46	44296.98
610.61	44720.62
610.76	44477.20
610.92	44638.70
611.07	44617.63
611.23	44381.24
611.38	44570.82
611.54	44816.58
611.69	44554.44
611.84	44357.83
612.00	44669.12
612.15	44191.65
612.31	44172.93
612.46	44540.39
612.62	44725.30
612.77	44076.97
612.92	44678.49
613.08	43901.43
613.23	44268.89
613.39	44486.56
613.54	44453.79
613.69	44264.21
613.85	44294.64
614.00	44364.85
614.15	44332.09
614.31	44414.01
614.46	44905.52
614.62	44318.04
614.77	44257.19
614.92	44374.22
615.08	44540.39
615.23	44172.93
615.38	44453.79
615.54	43962.28
615.69	43976.33
615.84	44194.00
616.00	44137.82
616.15	44280.60
616.30	44032.50
616.46	43927.17
616.61	43704.82
616.76	43995.05
616.92	43533.96
617.07	43372.47
617.22	43971.64
617.37	43772.70
617.53	43952.92
617.68	43812.49
617.83	44203.36
617.99	43931.86
618.14	43746.95
618.29	43349.06
618.45	43873.34
618.60	43924.83
618.75	43842.92
618.90	44205.70
619.06	44179.95
619.21	43744.61
619.36	43763.34
619.51	43323.32
619.67	43594.82
619.82	43978.67
619.97	43910.79
620.12	43491.83
620.28	42852.87
620.43	43402.89
620.58	43494.18
620.73	43487.15
620.89	43133.73
621.04	43215.65
621.19	43552.69
621.34	43005.00
621.49	43264.80
621.65	43463.75
621.80	43129.05
621.95	43131.39
622.10	43318.64
622.25	42923.08
622.41	42792.01
622.56	42899.68
622.71	42958.19
622.86	43143.09
623.01	43342.04
623.16	43182.88
623.32	43611.20
623.47	43370.13
623.62	43489.49
623.77	43054.15
623.92	42899.68
624.07	42569.66
624.23	42740.52
624.38	42969.90
624.53	42738.18
624.68	43379.49
624.83	42932.45
624.98	42890.32
625.13	42686.69
625.29	43042.45
625.44	42775.63
625.59	42494.77
625.74	42129.64
625.89	42225.60
626.04	42272.42
626.19	42237.31
626.34	42305.18
626.49	42602.43
626.65	42588.39
626.80	42646.90
626.95	42150.71
627.10	42387.10
627.25	42272.42
627.40	42241.99
627.55	41858.14
627.70	41680.26
627.85	41986.87
628.00	41904.95
628.15	42541.58
628.30	41930.70
628.45	42415.19
628.60	42141.35
628.76	42478.38
628.91	42026.66
629.06	42129.64
629.21	41944.74
629.36	42122.62
629.51	41652.17
629.66	41500.04
629.81	41748.14
629.96	41677.92
630.11	41794.95
630.26	41825.37
630.41	41860.48
630.56	41883.89
630.71	41698.98
630.86	41773.88
631.01	41792.61
631.16	41338.54
631.31	41319.82
631.46	41179.39
631.61	41443.87
631.76	41132.57
631.91	41284.71
632.06	41399.40
632.21	41462.59
632.36	41865.16
632.51	41413.44
632.66	41706.01
632.81	41099.81
632.96	41268.33
633.10	40893.84
633.25	41467.27
633.40	41209.81
633.55	41361.95
633.70	40893.84
633.85	41385.35
634.00	40950.01
634.15	41027.25
634.30	40828.30
634.45	40816.60
634.60	40947.67
634.75	40982.78
634.90	41275.35
635.05	40882.14
635.19	40924.27
635.34	41308.11
635.49	40589.57
635.64	40732.34
635.79	40940.65
635.94	40584.89
636.09	40744.05
636.24	40840.01
636.39	40533.40
636.53	40673.83
636.68	40229.13
636.83	40332.11
636.98	40474.88
637.13	40025.50
637.28	40748.73
637.43	40680.85
637.57	40582.55
637.72	40362.54
637.87	40687.87
638.02	40301.68
638.17	40076.99
638.32	40465.52
638.46	40088.70
638.61	40088.70
638.76	40004.44
638.91	40362.54
639.06	40236.15
639.20	40100.40
639.35	40325.09
639.50	40226.79
639.65	40231.47
639.80	40385.94
639.94	40252.53
640.09	39845.28
640.24	39768.04
640.39	39742.30
640.54	39751.66
640.68	39665.06
640.83	39915.50
640.98	40313.39
641.13	39861.66
641.27	40067.63
641.42	39791.45
641.57	39943.58
641.72	40011.46
641.86	39580.80
642.01	39592.50
642.16	39730.59
642.31	39651.02
642.45	39566.76
642.60	39381.85
642.75	39281.21
642.90	39363.13
643.04	39351.43
643.19	39667.40
643.34	39498.88
643.48	39606.55
643.63	39585.48
643.78	39304.62
643.93	39136.10
644.07	38742.89
644.22	39175.89
644.37	39100.99
644.51	38906.73
644.66	39161.84
644.81	39232.06
644.95	39550.37
645.10	39440.37
645.25	39400.58
645.39	39218.02
645.54	39370.15
645.69	39416.96
645.83	38983.96
645.98	39129.08
646.13	39187.59
646.27	39140.78
646.42	39164.18
646.57	39058.86
646.71	38888.00
646.86	38951.20
647.00	39203.97
647.15	39386.54
647.30	39051.84
647.44	39250.78
647.59	38972.26
647.74	38595.43
647.88	38452.66
648.03	38557.99
648.17	38749.91
648.32	38742.89
648.47	38803.74
648.61	38232.65
648.76	38787.36
648.90	38852.89
649.05	38794.38
649.20	38565.01
649.34	38508.83
649.49	38511.17
649.63	38656.29
649.78	38384.79
649.92	38614.16
650.07	38490.11
650.21	38281.80
650.36	38581.39
650.51	38462.02
650.65	38565.01
650.80	38848.21
650.94	38251.38
651.09	38672.67
651.23	38260.74
651.38	38244.35
651.52	38153.07
651.67	38253.72
651.81	37933.06
651.96	37797.31
652.10	37907.32
652.25	37654.54
652.39	37759.86
652.54	38024.34
652.68	37872.21
652.83	38073.49
652.97	38101.58
653.12	37682.62
653.26	37699.01
653.41	37914.34
653.55	37471.98
653.70	37734.12
653.84	37820.72
653.99	37830.08
654.13	37919.02
654.27	37387.72
654.42	37509.43
654.56	38085.20
654.71	38085.20
654.85	37851.14
655.00	37326.86
655.14	37633.47
655.29	36900.89
655.43	37228.56
655.57	37415.80
655.72	36973.44
655.86	37120.90
656.01	37425.17
656.15	36914.93
656.30	37331.54
656.44	37174.73
656.58	37053.02
656.73	36657.47
656.87	37102.17
657.01	36498.31
657.16	37441.55
657.30	36477.25
657.45	36863.44
657.59	36652.79
657.73	36706.62
657.88	36999.19
658.02	36521.72
658.16	36905.57
658.31	36732.37
658.45	37273.03
658.60	36552.15
658.74	36786.20
658.88	36687.90
659.03	36659.81
659.17	36369.58
659.31	36912.59
659.46	36224.47
659.60	36715.98
659.74	36421.08
659.89	36631.72
660.03	36381.29
660.17	36254.90
660.32	35917.86
660.46	36596.62
660.60	36339.16
660.74	36524.06
660.89	36247.88
661.03	35908.50
661.17	36194.04
661.32	35796.15
661.46	35484.86
661.60	35599.55
661.74	35543.38
661.89	35885.09
662.03	35974.03
662.17	35512.95
662.31	35707.21
662.46	35552.74
662.60	35896.80
662.74	35899.14
662.88	35798.49
663.03	35601.89
663.17	35592.53
663.31	35208.68
663.45	35529.33
663.60	35292.94
663.74	34902.07
663.88	35363.15
664.02	35351.45
664.17	35332.73
664.31	34614.18
664.45	34852.92
664.59	34808.45
664.73	35381.88
664.88	34953.56
665.02	34333.32
665.16	34480.77
665.30	34412.90
665.44	35044.84
665.59	34073.52
665.73	34429.28
665.87	34504.18
666.01	34125.01
666.15	34422.26
666.29	34618.86
666.44	34335.66
666.58	34649.29
666.72	34637.59
666.86	34424.60
667.00	34167.14
667.14	34085.22
667.28	34057.14
667.43	33954.15
667.57	33596.05
667.71	33563.28
667.85	33729.46
667.99	33893.30
668.13	33635.84
668.27	33296.46
668.41	33738.82
668.56	33186.46
668.70	33490.73
668.84	33411.15
668.98	33397.10
669.12	33219.22
669.26	33462.64
669.40	32884.53
669.54	33247.31
669.68	33165.39
669.82	33247.31
669.96	32732.39
670.10	32936.02
670.25	32952.40
670.39	32947.72
670.53	32788.56
670.67	32329.82
670.81	32615.37
670.95	32556.85
671.09	32503.02
671.23	32833.04
671.37	32669.20
671.51	32994.53
671.65	32238.54
671.79	32208.11
671.93	32191.73
672.07	32512.38
672.21	31943.63
672.35	31943.63
672.49	31700.22
672.63	32128.53
672.77	32016.19
672.91	31842.99
673.05	31775.11
673.19	31536.38
673.33	31487.23
673.47	31424.03
673.61	31103.38
673.75	31365.52
673.89	31171.25
674.03	30955.93
674.17	30483.14
674.31	31452.12
674.45	30892.73
674.59	30831.88
674.73	30984.01
674.87	31295.30
675.01	30845.92
675.15	31351.48
675.29	31061.25
675.43	30808.47
675.56	30689.10
675.70	30382.49
675.84	30672.72
675.98	29645.23
676.12	29893.32
676.26	29947.15
676.40	29895.66
676.54	29792.68
676.68	29886.30
676.82	29228.61
676.96	29179.46
677.10	29549.26
677.23	29172.44
677.37	29352.66
677.51	29331.59
677.65	29282.44
677.79	28793.27
677.93	29013.28
678.07	29329.25
678.21	28797.95
678.34	28999.24
678.48	28526.45
678.62	28273.67
678.76	28439.85
678.90	28325.16
679.04	28273.67
679.18	28357.93
679.31	28060.68
679.45	28198.77
679.59	27943.66
679.73	28060.68
679.87	27557.47
680.00	27651.09
680.14	27630.02
680.28	27527.04
680.42	27466.19
680.56	27377.25
680.70	27452.14
680.83	27236.81
680.97	27426.40
681.11	27161.92
681.25	27070.64
681.39	26909.14
681.52	27234.47
681.66	26939.57
681.80	26256.13
681.94	26368.48
682.07	26541.68
682.21	26466.78
682.35	26665.72
682.49	26298.26
682.62	26426.99
682.76	25982.29
682.90	26068.89
683.04	26167.19
683.17	26036.12
683.31	25806.75
683.45	25879.30
683.59	25600.78
683.72	25745.89
683.86	25441.62
684.00	25348.00
684.13	25280.13
684.27	25511.84
684.41	25291.83
684.55	24917.34
684.68	24896.28
684.82	24755.85
684.96	25013.31
685.09	25053.09
685.23	24638.82
685.37	24442.21
685.50	24456.26
685.64	24369.66
685.78	24271.36
685.91	24334.55
686.05	24070.07
686.19	23693.24
686.32	24159.01
686.46	24027.94
686.60	23873.46
686.73	23756.44
686.87	23538.77
687.01	23346.84
687.14	23360.89
687.28	23185.35
687.42	23218.11
687.55	22911.50
687.69	23016.83
687.82	22867.03
687.96	22932.57
688.10	22754.69
688.23	22932.57
688.37	22375.52
688.50	22574.47
688.64	22387.22
688.78	22146.15
688.91	22209.34
689.05	22113.38
689.18	22143.81
689.32	21797.41
689.46	21846.56
689.59	22059.55
689.73	22108.70
689.86	22085.30
690.00	21823.16
690.13	21802.09
690.27	21556.33
690.41	21326.96
690.54	21195.89
690.68	21223.98
690.81	20973.54
690.95	21209.93
691.08	20861.19
691.22	21172.49
691.35	20758.21
691.49	20950.14
691.62	20882.26
691.76	20755.87
691.89	20790.98
692.03	20692.68
692.16	20695.02
692.30	20369.68
692.43	20467.98
692.57	20226.91
692.70	20123.93
692.84	20037.33
692.97	20011.58
693.11	19695.61
693.24	19634.75
693.38	19826.68
693.51	19669.86
693.65	19501.34
693.78	19461.55
693.92	19583.26
694.05	19410.06
694.19	19520.07
694.32	19190.05
694.45	19246.23
694.59	19236.86
694.72	19091.75
694.86	18939.62
694.99	18845.99
695.13	18616.62
695.26	18853.02
695.39	18106.38
695.53	18497.25
695.66	18558.11
695.80	18188.30
695.93	18391.93
696.07	18352.14
696.20	18106.38
696.33	18574.49
696.47	18085.32
696.60	18167.24
696.73	17980.00
696.87	17694.45
697.00	17926.16
697.14	17598.49
697.27	17532.95
697.40	17556.36
697.54	17434.65
697.67	17343.37
697.80	17317.62
697.94	17434.65
698.07	17144.42
698.21	17116.34
698.34	16854.20
698.47	16985.27
698.61	16711.42
698.74	16751.21
698.87	16575.67
699.01	16453.97
699.14	16531.20
699.27	16180.12
699.40	16409.50
699.54	16175.44
699.67	16273.74
699.80	16009.26
699.94	16283.11
700.07	16042.03
700.20	15763.51
700.34	15880.53
700.47	15957.77
700.60	16130.97
700.73	15817.34
700.87	15894.58
701.00	15550.52
701.13	15449.88
701.26	15431.15
701.40	15473.28
701.53	15520.09
701.66	15225.18
701.79	15318.81
701.93	15087.09
702.06	14778.14
702.19	14944.32
702.32	15051.99
702.46	14986.45
702.59	14738.35
702.72	14801.55
702.85	14703.25
702.99	14963.04
703.12	14862.40
703.25	14607.28
703.38	14609.62
703.51	14560.47
703.65	14506.64
703.78	13956.61
703.91	14101.73
704.04	14118.11
704.17	13975.34
704.31	13858.31
704.44	13544.68
704.57	13755.33
704.70	13486.17
704.83	13558.72
704.96	13540.00
705.10	13827.88
705.23	13804.48
>>>>>End Processed Spectral Data<<<<<
