SpectraSuite Data File
++++++++++++++++++++++++++++++++++++
Date: Fri Oct 25 10:47:56 EDT 2013
User: price-jones
Dark Spectrum Present: No
Reference Spectrum Present: No
Number of Sampled Component Spectra: 1
Spectrometers: USB2+H05261
Integration Time (usec): 100000 (USB2+H05261)
Spectra Averaged: 1 (USB2+H05261)
Boxcar Smoothing: 0 (USB2+H05261)
Correct for Electrical Dark: No (USB2+H05261)
Strobe/Lamp Enabled: No (USB2+H05261)
Correct for Detector Non-linearity: No (USB2+H05261)
Correct for Stray Light: No (USB2+H05261)
Number of Pixels in Processed Spectrum: 2048
>>>>>Begin Processed Spectral Data<<<<<
365.73	147.45
365.92	147.45
366.12	147.45
366.32	98.30
366.52	98.30
366.72	39.79
366.91	49.15
367.11	105.32
367.31	56.17
367.51	37.45
367.70	25.75
367.90	51.49
368.10	98.30
368.30	0.00
368.49	65.54
368.69	70.22
368.89	23.41
369.09	86.60
369.28	4.68
369.48	32.77
369.68	93.62
369.87	142.77
370.07	67.88
370.27	147.45
370.47	147.45
370.66	425.98
370.86	397.89
371.06	451.72
371.25	503.22
371.45	348.74
371.65	458.74
371.84	468.11
372.04	503.22
372.24	458.74
372.44	528.96
372.63	465.77
372.83	526.62
373.03	475.13
373.22	472.79
373.42	489.17
373.62	489.17
373.81	512.58
374.01	554.71
374.21	498.53
374.40	484.49
374.60	578.11
374.79	543.00
374.99	550.03
375.19	547.69
375.38	500.87
375.58	486.83
375.78	528.96
375.97	578.11
376.17	575.77
376.37	528.96
376.56	613.22
376.76	601.52
376.95	641.31
377.15	585.13
377.35	636.63
377.54	650.67
377.74	606.20
377.93	543.00
378.13	709.18
378.33	622.58
378.52	610.88
378.72	601.52
378.91	610.88
379.11	580.45
379.31	608.54
379.50	587.47
379.70	617.90
379.89	704.50
380.09	683.44
380.28	704.50
380.48	636.63
380.68	606.20
380.87	610.88
381.07	760.67
381.26	732.59
381.46	718.54
381.65	667.05
381.85	681.10
382.04	636.63
382.24	596.84
382.43	643.65
382.63	585.13
382.83	648.33
383.02	699.82
383.22	741.95
383.41	704.50
383.61	645.99
383.80	713.86
384.00	753.65
384.19	730.25
384.39	791.10
384.58	760.67
384.78	739.61
384.97	751.31
385.17	770.04
385.36	856.64
385.56	770.04
385.75	758.33
385.95	800.46
386.14	819.19
386.34	826.21
386.53	760.67
386.72	826.21
386.92	903.45
387.11	877.70
387.31	844.93
387.50	908.13
387.70	812.17
387.89	830.89
388.09	805.14
388.28	866.00
388.48	903.45
388.67	896.43
388.86	807.48
389.06	833.23
389.25	875.36
389.45	875.36
389.64	849.61
389.84	903.45
390.03	858.98
390.22	835.57
390.42	884.72
390.61	940.90
390.81	945.58
391.00	910.47
391.19	877.70
391.39	976.00
391.58	1118.78
391.78	1018.13
391.97	959.62
392.16	905.79
392.36	952.60
392.55	947.92
392.75	966.64
392.94	1004.09
393.13	1013.45
393.33	933.87
393.52	971.32
393.71	1053.24
393.91	1015.79
394.10	1008.77
394.29	1050.90
394.49	1032.18
394.68	1151.54
394.88	1107.07
395.07	1086.01
395.26	1050.90
395.46	1128.14
395.65	1219.42
395.84	1167.93
396.04	1130.48
396.23	1109.41
396.42	1006.43
396.62	1128.14
396.81	1142.18
397.00	1181.97
397.19	1193.67
397.39	1212.40
397.58	1219.42
397.77	1254.53
397.97	1317.72
398.16	1294.32
398.35	1259.21
398.55	1261.55
398.74	1329.42
398.93	1352.83
399.12	1299.00
399.32	1320.06
399.51	1371.55
399.70	1462.83
399.90	1430.07
400.09	1439.43
400.28	1460.49
400.47	1287.29
400.67	1490.92
400.86	1509.65
401.05	1479.22
401.24	1364.53
401.44	1460.49
401.63	1537.73
401.82	1598.59
402.01	1465.18
402.21	1493.26
402.40	1526.03
402.59	1500.28
402.78	1600.93
402.97	1699.23
403.17	1582.20
403.36	1561.14
403.55	1720.29
403.74	1724.97
403.93	1598.59
404.13	1600.93
404.32	1680.50
404.51	1591.56
404.70	1689.87
404.89	1661.78
405.09	1717.95
405.28	1629.01
405.47	1636.03
405.66	1708.59
405.85	1774.13
406.05	1842.00
406.24	1806.89
406.43	1811.57
406.62	1902.86
406.81	1963.71
407.00	1895.83
407.20	1884.13
407.39	1858.39
407.58	1928.60
407.77	1914.56
407.96	1926.26
408.15	1942.64
408.34	1961.37
408.54	2029.24
408.73	1982.43
408.92	1980.09
409.11	1998.82
409.30	2054.99
409.49	2040.95
409.68	2064.35
409.87	2026.90
410.07	2235.21
410.26	2094.78
410.45	2012.86
410.64	2101.80
410.83	2218.83
411.02	2246.91
411.21	2157.97
411.40	2183.72
411.59	2279.68
411.78	2214.15
411.98	2139.25
412.17	2235.21
412.36	2368.62
412.55	2370.96
412.74	2354.58
412.93	2380.32
413.12	2431.82
413.31	2483.31
413.50	2541.82
413.69	2530.12
413.88	2525.44
414.07	2588.63
414.26	2544.16
414.45	2691.62
414.64	2555.86
414.83	2649.49
415.02	2750.13
415.22	2700.98
415.41	2747.79
415.60	2661.19
415.79	2820.35
415.98	2937.37
416.17	2920.99
416.36	2888.22
416.55	2906.95
416.74	2918.65
416.93	2899.92
417.12	3005.25
417.31	2923.33
417.50	3045.04
417.69	2967.80
417.88	2986.52
418.07	3056.74
418.26	2949.08
418.45	3028.65
418.64	3117.59
418.83	3241.64
419.02	3157.38
419.21	3171.43
419.39	3293.13
419.58	3274.41
419.77	3204.19
419.96	3251.00
420.15	3222.92
420.34	3129.30
420.53	3358.67
420.72	3382.07
420.91	3400.80
421.10	3421.86
421.29	3400.80
421.48	3262.71
421.67	3229.94
421.86	3433.57
422.05	3368.03
422.24	3375.05
422.43	3363.35
422.61	3515.48
422.80	3531.87
422.99	3471.01
423.18	3515.48
423.37	3482.72
423.56	3606.77
423.75	3442.93
423.94	3487.40
424.13	3265.05
424.32	3410.16
424.50	3522.51
424.69	3616.13
424.88	3552.93
425.07	3576.34
425.26	3576.34
425.45	3496.76
425.64	3456.97
425.83	3499.10
426.01	3634.85
426.20	3616.13
426.39	3623.15
426.58	3552.93
426.77	3618.47
426.96	3578.68
427.15	3655.92
427.33	3714.43
427.52	3676.98
427.71	3691.02
427.90	3686.34
428.09	3714.43
428.28	3686.34
428.46	3829.12
428.65	3637.19
428.84	3819.75
429.03	3786.99
429.22	3803.37
429.40	3674.64
429.59	3808.05
429.78	3534.21
429.97	3648.90
430.16	3709.75
430.34	3840.82
430.53	3955.51
430.72	3899.33
430.91	3889.97
431.10	3957.85
431.28	3997.64
431.47	4236.37
431.66	4105.30
431.85	3974.23
432.03	4194.24
432.22	4238.71
432.41	4182.54
432.60	4222.33
432.79	4187.22
432.97	4229.35
433.16	4390.84
433.35	4180.20
433.54	4205.94
433.72	4386.16
433.91	4290.20
434.10	4414.25
434.28	4301.90
434.47	4496.17
434.66	4407.23
434.85	4512.55
435.03	4479.79
435.22	4278.50
435.41	4617.88
435.59	4372.12
435.78	4596.81
435.97	4503.19
436.16	4645.96
436.34	4554.68
436.53	4517.23
436.72	4732.56
436.90	4643.62
437.09	4617.88
437.28	4571.07
437.46	4662.35
437.65	4753.63
437.84	4762.99
438.02	4643.62
438.21	4613.20
438.40	4805.12
438.58	4971.30
438.77	4814.48
438.96	4908.10
439.14	4973.64
439.33	5036.83
439.52	5095.35
439.70	5114.07
439.89	5018.11
440.08	5210.03
440.26	5114.07
440.45	5275.57
440.63	5392.59
440.82	5434.72
441.01	5249.82
441.19	5317.70
441.38	5387.91
441.57	5509.62
441.75	5638.35
441.94	5504.94
442.12	5570.48
442.31	5626.65
442.50	5640.69
442.68	5488.56
442.87	5600.90
443.05	5757.72
443.24	5692.18
443.43	5762.40
443.61	5764.74
443.80	5928.58
443.98	5678.14
444.17	5593.88
444.35	5682.82
444.54	5973.05
444.73	5736.65
444.91	5832.62
445.10	5738.99
445.28	5867.72
445.47	5748.36
445.65	5771.76
445.84	5710.91
446.02	5907.51
446.21	5799.85
446.39	5921.56
446.58	5912.19
446.77	5877.09
446.95	5736.65
447.14	5797.51
447.32	6019.86
447.51	5825.59
447.69	6090.07
447.88	5989.43
448.06	6052.63
448.25	5998.79
448.43	6061.99
448.62	6094.76
448.80	5951.98
448.99	6012.84
449.17	6207.10
449.36	6204.76
449.54	6263.27
449.73	6396.68
449.91	6310.08
450.10	6359.24
450.28	6209.44
450.46	6331.15
450.65	6457.54
450.83	6305.40
451.02	6289.02
451.20	6431.79
451.39	6595.63
451.57	6422.43
451.76	6387.32
451.94	6431.79
452.13	6504.35
452.31	6569.88
452.49	6408.39
452.68	6389.66
452.86	6396.68
453.05	6780.53
453.23	6715.00
453.42	6527.75
453.60	6534.78
453.78	6834.36
453.97	6534.78
454.15	6642.44
454.34	6483.28
454.52	6782.87
454.70	6743.08
454.89	6782.87
455.07	6832.02
455.26	6827.34
455.44	6738.40
455.62	6958.41
455.81	6862.45
455.99	6958.41
456.17	6932.67
456.36	6885.86
456.54	7115.23
456.73	7124.59
456.91	7342.26
457.09	7087.14
457.28	7180.76
457.46	7332.90
457.64	7112.89
457.83	7412.48
458.01	7265.02
458.19	7393.75
458.38	7398.43
458.56	7398.43
458.74	7435.88
458.93	7522.48
459.11	7339.92
459.29	7442.90
459.48	7517.80
459.66	7562.27
459.84	7520.14
460.03	7735.47
460.21	7744.83
460.39	7489.71
460.57	7536.52
460.76	7726.11
460.94	7599.72
461.12	7836.11
461.31	7723.77
461.49	7770.58
461.67	7683.98
461.85	7962.50
462.04	7978.89
462.22	8402.52
462.40	7868.88
462.59	8009.31
462.77	8088.89
462.95	8255.07
463.13	8072.51
463.32	8180.17
463.50	8098.25
463.68	8231.66
463.86	8109.96
464.05	7983.57
464.23	8131.02
464.41	8336.99
464.59	8126.34
464.78	8121.66
464.96	8161.45
465.14	8056.12
465.32	8285.50
465.50	8280.82
465.69	8292.52
465.87	8280.82
466.05	8290.18
466.23	8299.54
466.41	8449.33
466.60	8575.72
466.78	8290.18
466.96	8322.94
467.14	8486.78
467.32	8573.38
467.51	8725.52
467.69	8299.54
467.87	8463.38
468.05	8533.59
468.23	8496.14
468.41	8519.55
468.60	8557.00
468.78	8594.45
468.96	8524.23
469.14	8870.63
469.32	8877.65
469.50	8617.85
469.69	8762.97
469.87	8973.61
470.05	8964.25
470.23	8884.67
470.41	8807.44
470.59	8966.59
470.77	9013.40
470.95	9029.79
471.14	9200.65
471.32	9100.00
471.50	9371.50
471.68	9214.69
471.86	9378.53
472.04	9291.93
472.22	9706.20
472.40	9324.69
472.58	9273.20
472.77	9322.35
472.95	9511.94
473.13	9837.27
473.31	9547.05
473.49	9423.00
473.67	9680.46
473.85	9563.43
474.03	9743.65
474.21	10174.31
474.39	9788.12
474.57	10038.56
474.75	10141.54
474.93	10001.11
475.12	9984.73
475.30	10380.28
475.48	10190.69
475.66	10314.74
475.84	10143.88
476.02	10328.78
476.20	10445.81
476.38	10658.80
476.56	10801.57
476.74	10567.52
476.92	10562.84
477.10	10721.99
477.28	10949.03
477.46	10743.06
477.64	10953.71
477.82	11171.38
478.00	11421.81
478.18	11126.91
478.36	11318.83
478.54	11595.01
478.72	11564.59
478.90	11913.33
479.08	11868.86
479.26	11885.24
479.44	11997.59
479.62	12063.12
479.80	11999.93
479.98	12114.61
480.16	12526.55
480.34	12470.37
480.52	12540.59
480.70	12592.08
480.88	12416.54
481.06	12659.96
481.24	12659.96
481.41	12697.41
481.59	12828.48
481.77	12929.12
481.95	13102.32
482.13	13055.51
482.31	13359.78
482.49	13439.36
482.67	13624.26
482.85	13549.36
483.03	13678.09
483.21	13715.54
483.39	13778.73
483.57	14017.47
483.74	14324.08
483.92	14181.31
484.10	14113.43
484.28	14441.11
484.46	14738.35
484.64	14506.64
484.82	14469.19
485.00	14888.15
485.18	14682.18
485.35	14855.38
485.53	15105.82
485.71	14829.63
485.89	15477.96
486.07	15035.60
486.25	15477.96
486.43	15477.96
486.61	15428.81
486.78	15707.34
486.96	15751.81
487.14	16203.53
487.32	16149.70
487.50	16503.12
487.68	16816.75
487.85	16678.66
488.03	16947.82
488.21	16924.41
488.39	16980.59
488.57	17270.81
488.75	17308.26
488.92	17420.61
489.10	17987.02
489.28	17790.41
489.46	18218.73
489.64	17926.16
489.81	18539.38
489.99	18511.30
490.17	18511.30
490.35	18822.59
490.53	18616.62
490.70	19000.47
490.88	18642.37
491.06	18918.55
491.24	18970.04
491.41	18984.09
491.59	19159.63
491.77	19309.42
491.95	19328.14
492.13	19557.52
492.30	19819.66
492.48	20074.77
492.66	20149.67
492.84	19775.19
493.01	20231.59
493.19	20121.59
493.37	20510.11
493.54	20416.49
493.72	20713.74
493.90	20306.49
494.08	20851.83
494.25	21254.40
494.43	21214.62
494.61	21582.08
494.79	21483.78
494.96	21383.13
495.14	21729.53
495.32	21486.12
495.49	21685.06
495.67	21790.39
495.85	22073.59
496.02	22197.64
496.20	22497.23
496.38	22335.73
496.55	22611.92
496.73	22810.86
496.91	22714.90
497.09	22958.31
497.26	22979.38
497.44	22977.04
497.62	23091.73
497.79	23131.51
497.97	22869.37
498.14	23381.95
498.32	23812.61
498.50	23887.51
498.67	24041.98
498.85	23651.11
499.03	24273.70
499.20	24397.74
499.38	23985.81
499.56	24493.71
499.73	24102.84
499.91	24229.23
500.08	24353.27
500.26	24372.00
500.44	24540.52
500.61	24486.68
500.79	24460.94
500.97	24720.74
501.14	25071.82
501.32	25273.10
501.49	25146.72
501.67	25113.95
501.84	25668.66
502.02	25266.08
502.20	25502.48
502.37	25839.51
502.55	25795.04
502.72	25696.74
502.90	25745.89
503.07	26176.55
503.25	25818.45
503.43	26022.08
503.60	26436.35
503.78	26143.78
503.95	26270.17
504.13	26192.94
504.30	26597.85
504.48	26651.68
504.65	26511.25
504.83	27019.14
505.01	26993.40
505.18	26696.15
505.36	27269.58
505.53	27051.91
505.71	27522.36
505.88	27370.22
506.06	27243.84
506.23	27482.57
506.41	27374.91
506.58	27618.32
506.76	27447.46
506.93	28046.64
507.11	27669.81
507.28	28034.94
507.46	28208.14
507.63	27880.46
507.81	28166.01
507.98	28018.55
508.16	28400.06
508.33	28325.16
508.50	28332.18
508.68	28692.63
508.85	28730.08
509.03	28542.83
509.20	28730.08
509.38	29268.40
509.55	28992.22
509.73	29270.74
509.90	29097.54
510.08	29390.11
510.25	29266.06
510.42	29481.39
510.60	29472.03
510.77	29579.69
510.95	29338.62
511.12	29366.70
511.30	29654.59
511.47	29865.24
511.64	30417.60
511.82	30031.41
511.99	29710.76
512.17	30239.72
512.34	29905.02
512.51	30551.01
512.69	30457.39
512.86	30321.64
513.04	30380.15
513.21	30363.77
513.38	30464.41
513.56	30525.27
513.73	30668.04
513.90	30691.44
514.08	30904.43
514.25	30927.84
514.43	30981.67
514.60	30888.05
514.77	31222.75
514.95	31405.31
515.12	30665.70
515.29	31419.35
515.47	31536.38
515.64	31667.45
515.81	31283.60
515.99	31522.34
516.16	31152.53
516.33	31468.50
516.51	31683.83
516.68	31512.97
516.85	31358.50
517.03	31693.19
517.20	31819.58
517.37	32070.02
517.54	31943.63
517.72	31955.33
517.89	31819.58
518.06	32109.81
518.24	32292.37
518.41	32224.50
518.58	32297.05
518.75	32175.34
518.93	32624.73
519.10	32641.11
519.27	33027.30
519.45	32610.68
519.62	33139.65
519.79	32858.78
519.96	32985.17
520.14	33560.94
520.31	33069.43
520.48	33450.94
520.65	33425.19
520.83	33607.75
521.00	33961.17
521.17	33579.67
521.34	33635.84
521.52	33649.88
521.69	33851.17
521.86	34157.78
522.03	34176.50
522.20	34073.52
522.38	34188.21
522.55	34347.36
522.72	34188.21
522.89	34101.61
523.07	34106.29
523.24	33963.51
523.41	34672.70
523.58	34178.84
523.75	34876.32
523.92	34712.49
524.10	34600.14
524.27	34902.07
524.44	34953.56
524.61	35393.58
524.78	35091.65
524.96	35164.21
525.13	35346.77
525.30	35330.39
525.47	35482.52
525.64	35424.01
525.81	35199.32
525.98	35503.59
526.16	35133.78
526.33	35295.28
526.50	35882.75
526.67	35175.91
526.84	35620.61
527.01	35512.95
527.18	35707.21
527.36	35739.98
527.53	36020.84
527.70	36212.77
527.87	35842.96
528.04	36252.56
528.21	36210.43
528.38	36418.74
528.55	36704.28
528.72	36573.21
528.89	36589.59
529.07	36266.60
529.24	36615.34
529.41	36126.17
529.58	36313.41
529.75	36608.32
529.92	36638.75
530.09	36704.28
530.26	36833.01
530.43	36928.97
530.60	36481.93
530.77	36353.20
530.94	37516.45
531.11	37347.93
531.28	37127.92
531.46	37376.01
531.63	37453.25
531.80	37207.50
531.97	37060.04
532.14	36889.18
532.31	37249.63
532.48	37048.34
532.65	37858.17
532.82	37483.68
532.99	37418.14
533.16	37090.47
533.33	37689.65
533.50	37895.61
533.67	38036.05
533.84	37942.42
534.01	37972.85
534.18	37839.44
534.35	38328.61
534.52	37996.26
534.69	38059.45
534.86	38029.02
535.03	37883.91
535.20	38333.29
535.37	38464.36
535.54	38728.84
535.71	38335.63
535.88	38600.12
536.05	38178.82
536.22	38726.50
536.38	38473.73
536.55	39047.16
536.72	38494.79
536.89	38345.00
537.06	38440.96
537.23	38787.36
537.40	39173.55
537.57	38958.22
537.74	38799.06
537.91	39023.75
538.08	38934.81
538.25	38815.44
538.42	38644.59
538.59	39414.62
538.75	39262.49
538.92	39283.55
539.09	39042.48
539.26	39285.89
539.43	39278.87
539.60	39189.93
539.77	39175.89
539.94	39501.22
540.11	39281.21
540.28	39086.95
540.44	39445.05
540.61	39508.24
540.78	39456.75
540.95	39112.69
541.12	39306.96
541.29	39643.99
541.46	39768.04
541.62	39351.43
541.79	40069.97
541.96	39541.01
542.13	39496.54
542.30	39573.78
542.47	39873.37
542.63	40039.54
542.80	40095.72
542.97	40257.21
543.14	40816.60
543.31	40289.98
543.48	40746.39
543.64	40870.43
543.81	40835.33
543.98	40636.38
544.15	40435.10
544.32	40830.65
544.48	40982.78
544.65	41280.03
544.82	40854.05
544.99	40388.28
545.16	40828.30
545.32	40643.40
545.49	40463.18
545.66	41607.70
545.83	41017.89
546.00	41265.99
546.16	41373.65
546.33	40989.80
546.50	40680.85
546.67	40999.16
546.83	40472.54
547.00	41202.79
547.17	41163.00
547.34	40973.42
547.50	41476.63
547.67	41535.15
547.84	41539.83
548.00	41792.61
548.17	41628.77
548.34	41717.71
548.51	41928.36
548.67	41631.11
548.84	41844.10
549.01	41588.98
549.18	41811.33
549.34	41572.60
549.51	41787.92
549.68	41914.31
549.84	41624.09
550.01	42089.85
550.18	42019.64
550.34	41928.36
550.51	41427.48
550.68	41879.21
550.84	41556.21
551.01	42422.21
551.18	41837.08
551.34	41918.99
551.51	42216.24
551.68	42382.42
551.84	42653.92
552.01	42146.03
552.18	42134.32
552.34	42490.09
552.51	42462.00
552.68	42588.39
552.84	42354.33
553.01	42792.01
553.18	42286.46
553.34	42581.37
553.51	41902.61
553.67	42614.13
553.84	42740.52
554.01	42682.01
554.17	43019.05
554.34	43093.94
554.51	42291.14
554.67	42944.15
554.84	42665.63
555.00	42485.40
555.17	42859.89
555.33	42841.17
555.50	42604.77
555.67	42628.18
555.83	43262.46
556.00	42747.54
556.16	43519.92
556.33	43065.86
556.50	43150.12
556.66	43065.86
556.83	42632.86
556.99	43208.63
557.16	43320.98
557.32	43082.24
557.49	43164.16
557.65	42965.21
557.82	42979.26
557.98	43199.27
558.15	42869.25
558.32	43136.07
558.48	43051.81
558.65	43503.54
558.81	43550.35
558.98	43377.15
559.14	43290.55
559.31	43070.54
559.47	43438.00
559.64	43955.26
559.80	43543.33
559.97	43199.27
560.13	43721.21
560.30	43491.83
560.46	43323.32
560.63	43800.79
560.79	43981.01
560.96	44282.94
561.12	43641.63
561.29	43697.80
561.45	43381.83
561.61	43732.91
561.78	43433.32
561.94	43550.35
562.11	43400.55
562.27	43718.87
562.44	43590.14
562.60	43335.02
562.77	44252.51
562.93	43976.33
563.10	43618.22
563.26	43597.16
563.42	44013.77
563.59	43470.77
563.75	44275.91
563.92	44163.57
564.08	43978.67
564.24	43784.40
564.41	44098.03
564.57	43749.29
564.74	44144.84
564.90	44006.75
565.07	44135.48
565.23	44112.08
565.39	43976.33
565.56	44175.27
565.72	44294.64
565.88	43756.32
566.05	43707.16
566.21	43751.63
566.38	43295.23
566.54	44091.01
566.70	44425.71
566.87	44594.23
567.03	43882.70
567.19	44294.64
567.36	44540.39
567.52	44273.57
567.68	43999.73
567.85	43859.30
568.01	43983.35
568.17	43838.23
568.34	44516.99
568.50	44142.50
568.66	44287.62
568.83	44238.47
568.99	43854.62
569.15	44172.93
569.32	43770.36
569.48	44311.02
569.64	44409.32
569.81	44465.50
569.97	44315.70
570.13	44486.56
570.30	43784.40
570.46	44219.74
570.62	44280.60
570.78	44549.76
570.95	44442.09
571.11	44648.06
571.27	43908.45
571.43	44198.68
571.60	44348.47
571.76	43950.58
571.92	44240.81
572.09	44245.49
572.25	44486.56
572.41	44273.57
572.57	44292.30
572.74	44837.64
572.90	44687.85
573.06	44336.77
573.22	44512.31
573.38	44194.00
573.55	44552.10
573.71	44545.08
573.87	44538.05
574.03	44545.08
574.20	44577.84
574.36	44680.83
574.52	44481.88
574.68	44444.43
574.84	44641.04
575.01	44580.18
575.17	44669.12
575.33	44568.48
575.49	44329.75
575.65	44556.78
575.82	44964.03
575.98	44641.04
576.14	44584.86
576.30	44594.23
576.46	44435.07
576.62	44299.32
576.79	44563.80
576.95	44184.63
577.11	44692.53
577.27	44879.77
577.43	44474.86
577.59	44186.97
577.75	44800.19
577.92	44516.99
578.08	44404.64
578.24	43789.08
578.40	44442.09
578.56	44444.43
578.72	44278.25
578.88	44498.26
579.04	44659.76
579.21	44645.72
579.37	44580.18
579.53	44378.90
579.69	44406.98
579.85	44484.22
580.01	44900.84
580.17	44549.76
580.33	45088.08
580.49	44353.15
580.65	44325.07
580.82	44858.71
580.98	44327.41
581.14	44664.44
581.30	44854.03
581.46	44662.10
581.62	44664.44
581.78	44467.84
581.94	44765.09
582.10	44821.26
582.26	44673.81
582.42	44849.35
582.58	44830.62
582.74	44568.48
582.90	44706.57
583.06	44905.52
583.22	44999.14
583.38	44975.73
583.54	45221.49
583.70	44406.98
583.86	44783.81
584.02	44519.33
584.18	44725.30
584.34	44952.33
584.50	44741.68
584.66	44587.21
584.82	44734.66
584.98	45038.93
585.14	44875.09
585.30	44554.44
585.46	44814.24
585.62	44486.56
585.78	44556.78
585.94	43821.85
586.10	44453.79
586.26	44858.71
586.42	45258.94
586.58	45001.48
586.74	44800.19
586.90	44722.96
587.06	44758.06
587.22	44680.83
587.38	44114.42
587.54	45404.05
587.70	45001.48
587.86	44687.85
588.02	44685.51
588.18	44942.97
588.34	45092.76
588.49	44222.08
588.65	44236.12
588.81	44397.62
588.97	44608.27
589.13	44414.01
589.29	44790.83
589.45	45071.70
589.61	44959.35
589.77	44933.60
589.93	44919.56
590.08	44898.50
590.24	44811.90
590.40	45006.16
590.56	45078.72
590.72	44619.97
590.88	44942.97
591.04	45228.51
591.20	45546.82
591.35	45191.06
591.51	45504.70
591.67	45165.32
591.83	44776.79
591.99	44687.85
592.15	44814.24
592.31	44638.70
592.46	44968.71
592.62	44910.20
592.78	45017.86
592.94	45200.43
593.10	44921.90
593.26	45326.81
593.41	45024.89
593.57	44622.31
593.73	45085.74
593.89	45092.76
594.05	44713.59
594.20	45081.06
594.36	45045.95
594.52	44795.51
594.68	44786.15
594.84	44945.31
594.99	45572.57
595.15	45043.61
595.31	45523.42
595.47	44912.54
595.62	45036.59
595.78	45500.01
595.94	44982.76
596.10	45153.62
596.25	45146.59
596.41	45434.48
596.57	45453.20
596.73	45429.80
596.88	45069.36
597.04	45359.58
597.20	45008.50
597.36	45113.83
597.51	45120.85
597.67	45024.89
597.83	44928.92
597.99	45291.71
598.14	45244.90
598.30	45287.03
598.46	44818.92
598.61	44823.60
598.77	44830.62
598.93	45200.43
599.09	44924.24
599.24	45897.91
599.40	45228.51
599.56	45656.83
599.71	45193.40
599.87	45170.00
600.03	45425.12
600.18	44788.49
600.34	45439.16
600.50	45141.91
600.65	45144.25
600.81	45427.46
600.97	45666.19
601.12	45467.25
601.28	45130.21
601.44	44994.46
601.59	45027.23
601.75	44987.44
601.91	45081.06
602.06	45324.47
602.22	45127.87
602.37	45371.28
602.53	45397.03
602.69	45399.37
602.84	45345.54
603.00	44971.05
603.16	44905.52
603.31	45368.94
603.47	45261.28
603.62	45160.64
603.78	45240.21
603.94	45125.53
604.09	45525.76
604.25	45717.68
604.40	44746.36
604.56	45118.51
604.71	45261.28
604.87	45155.96
605.03	45378.31
605.18	45233.19
605.34	45214.47
605.49	44854.03
605.65	44821.26
605.80	45333.84
605.96	45127.87
606.12	45270.64
606.27	45153.62
606.43	44648.06
606.58	45434.48
606.74	45368.94
606.89	44823.60
607.05	45120.85
607.20	44650.40
607.36	45277.66
607.51	45340.86
607.67	45427.46
607.82	45284.68
607.98	44863.39
608.13	44863.39
608.29	44870.41
608.44	44549.76
608.60	44311.02
608.75	44540.39
608.91	44502.95
609.06	44964.03
609.22	45076.38
609.37	44348.47
609.53	44900.84
609.68	45029.57
609.84	44900.84
609.99	44615.29
610.15	44753.38
610.30	44409.32
610.46	44254.85
610.61	44659.76
610.76	44516.99
610.92	44685.51
611.07	44896.16
611.23	44744.02
611.38	44601.25
611.54	44734.66
611.69	44268.89
611.84	44367.20
612.00	44226.76
612.15	44116.76
612.31	44182.29
612.46	44327.41
612.62	44514.65
612.77	44470.18
612.92	44318.04
613.08	44189.31
613.23	44411.67
613.39	44268.89
613.54	44023.14
613.69	44357.83
613.85	44149.53
614.00	44418.69
614.15	44308.68
614.31	44093.35
614.46	44376.56
614.62	44355.49
614.77	44081.65
614.92	44332.09
615.08	44350.81
615.23	44041.86
615.38	44025.48
615.54	43791.42
615.69	44327.41
615.84	43819.51
616.00	43744.61
616.15	43922.49
616.30	43964.62
616.46	43906.11
616.61	43585.46
616.76	43601.84
616.92	43615.88
617.07	43452.05
617.22	43798.44
617.37	43728.23
617.53	44130.80
617.68	43964.62
617.83	43384.17
617.99	44018.46
618.14	43892.07
618.29	43594.82
618.45	43295.23
618.60	43777.38
618.75	44037.18
618.90	44011.43
619.06	43849.94
619.21	43496.52
619.36	43482.47
619.51	43564.39
619.67	43648.65
619.82	43805.47
619.97	44044.20
620.12	43246.08
620.28	43077.56
620.43	43416.94
620.58	43407.58
620.73	43679.08
620.89	43178.20
621.04	43227.35
621.19	43442.68
621.34	43512.90
621.49	43000.32
621.65	42913.72
621.80	43374.81
621.95	42890.32
622.10	42883.30
622.25	42770.95
622.41	42756.91
622.56	43351.40
622.71	42927.77
622.86	42976.92
623.01	42923.08
623.16	43295.23
623.32	42564.98
623.47	43129.05
623.62	43292.89
623.77	43023.73
623.92	42740.52
624.07	42279.44
624.23	42422.21
624.38	42408.17
624.53	42775.63
624.68	43089.26
624.83	42955.85
624.98	42934.79
625.13	42279.44
625.29	42967.55
625.44	42630.52
625.59	42487.74
625.74	42337.95
625.89	42494.77
626.04	41982.19
626.19	42466.68
626.34	42424.55
626.49	42227.95
626.65	42241.99
626.80	42298.16
626.95	42438.59
627.10	42316.89
627.25	42328.59
627.40	41867.50
627.55	41834.74
627.70	41556.21
627.85	41626.43
628.00	41832.39
628.15	42536.90
628.30	42113.26
628.45	42064.11
628.60	41834.74
628.76	41797.29
628.91	42019.64
629.06	41993.89
629.21	41235.56
629.36	41816.01
629.51	41357.27
629.66	41490.68
629.81	41652.17
629.96	41549.19
630.11	41776.22
630.26	41846.44
630.41	41806.65
630.56	41394.71
630.71	41827.71
630.86	41544.51
631.01	41244.92
631.16	41469.61
631.31	41621.75
631.46	41050.66
631.61	41137.26
631.76	41359.61
631.91	41219.17
632.06	41368.97
632.21	41387.69
632.36	41551.53
632.51	41230.88
632.66	41146.62
632.81	41326.84
632.96	41265.99
633.10	41120.87
633.25	41048.32
633.40	40921.93
633.55	41450.89
633.70	40851.71
633.85	40928.95
634.00	41191.09
634.15	40809.58
634.30	41090.44
634.45	41483.66
634.60	40893.84
634.75	40762.77
634.90	41003.85
635.05	40879.80
635.19	40835.33
635.34	41226.20
635.49	40921.93
635.64	40648.08
635.79	40877.46
635.94	40641.06
636.09	41083.42
636.24	40725.32
636.39	40627.02
636.53	40187.00
636.68	40446.80
636.83	40425.73
636.98	40467.86
637.13	40210.40
637.28	40612.98
637.43	40882.14
637.57	40514.67
637.72	40512.33
637.87	40582.55
638.02	40217.43
638.17	40636.38
638.32	40294.66
638.46	39966.99
638.61	40016.14
638.76	39585.48
638.91	40168.27
639.06	39805.49
639.20	39894.43
639.35	40030.18
639.50	39873.37
639.65	39894.43
639.80	40081.67
639.94	39690.80
640.09	39952.94
640.24	40231.47
640.39	40032.52
640.54	39948.26
640.68	39445.05
640.83	40140.19
640.98	39763.36
641.13	39222.70
641.27	39889.75
641.42	39983.37
641.57	39945.92
641.72	39798.47
641.86	39669.74
642.01	39639.31
642.16	39515.26
642.31	39044.82
642.45	39510.58
642.60	39335.04
642.75	39297.59
642.90	39344.41
643.04	39566.76
643.19	39498.88
643.34	39515.26
643.48	39299.94
643.63	39552.71
643.78	39459.09
643.93	38897.36
644.07	38763.95
644.22	39187.59
644.37	38829.49
644.51	38866.94
644.66	39234.40
644.81	38974.60
644.95	39166.52
645.10	39250.78
645.25	39452.07
645.39	39147.80
645.54	39463.77
645.69	39117.37
645.83	38937.15
645.98	38679.69
646.13	39054.18
646.27	38962.90
646.42	38724.16
646.57	39299.94
646.71	38892.68
646.86	38827.15
647.00	38656.29
647.15	38635.22
647.30	38770.97
647.44	39164.18
647.59	38925.45
647.74	38616.50
647.88	38469.04
648.03	38899.70
648.17	38878.64
648.32	37956.47
648.47	38637.56
648.61	38520.54
648.76	38754.59
648.90	38181.16
649.05	38450.32
649.20	38515.86
649.34	38546.28
649.49	37816.04
649.63	38939.49
649.78	38316.91
649.92	38478.41
650.07	39178.23
650.21	37961.15
650.36	38352.02
650.51	38059.45
650.65	38731.18
650.80	38373.08
650.94	38801.40
651.09	38422.23
651.23	38127.33
651.38	37816.04
651.52	38103.92
651.67	38176.48
651.81	37979.87
651.96	38029.02
652.10	38014.98
652.25	37500.06
652.39	37640.50
652.54	38040.73
652.68	38293.50
652.83	38141.37
652.97	38000.94
653.12	37743.48
653.26	37853.48
653.41	37975.19
653.55	37235.58
653.70	37614.75
653.84	37507.08
653.99	37689.65
654.13	37902.64
654.27	37652.20
654.42	37855.82
654.56	37071.75
654.71	37507.08
654.85	37427.51
655.00	37661.56
655.14	37256.65
655.29	37137.28
655.43	37493.04
655.57	37048.34
655.72	37200.47
655.86	37008.55
656.01	37170.05
656.15	36875.14
656.30	37057.70
656.44	37228.56
656.58	36669.17
656.73	36954.72
656.87	36837.69
657.01	36701.94
657.16	36950.04
657.30	36465.55
657.45	36643.43
657.59	36807.26
657.73	36467.89
657.88	37177.07
658.02	36809.61
658.16	36882.16
658.31	37177.07
658.45	37022.59
658.60	36744.07
658.74	36591.94
658.88	36903.23
659.03	36467.89
659.17	36350.86
659.31	36570.87
659.46	36334.48
659.60	36545.12
659.74	36257.24
659.89	35749.34
660.03	36219.79
660.17	36254.90
660.32	36114.47
660.46	36385.97
660.60	36477.25
660.74	36636.41
660.89	36072.34
661.03	36201.07
661.17	35604.23
661.32	35580.82
661.46	35873.39
661.60	35632.32
661.74	35555.08
661.89	35229.74
662.03	35566.78
662.17	35447.41
662.31	35512.95
662.46	35693.17
662.60	35917.86
662.74	35297.62
662.88	35644.02
663.03	35538.69
663.17	35435.71
663.31	35150.17
663.45	35599.55
663.60	35697.85
663.74	34930.16
663.88	34745.25
664.02	34991.01
664.17	34726.53
664.31	34590.78
664.45	35016.75
664.59	35021.44
664.73	34869.30
664.88	34876.32
665.02	34672.70
665.16	34548.65
665.30	34883.34
665.44	34728.87
665.59	34366.09
665.73	34588.44
665.87	34246.72
666.01	34038.41
666.15	34155.44
666.29	34209.27
666.44	34616.52
666.58	34560.35
666.72	34218.63
666.86	34916.11
667.00	34286.51
667.14	33940.11
667.28	33811.38
667.43	33883.94
667.57	33516.47
667.71	33645.20
667.85	33771.59
667.99	33979.90
668.13	33631.16
668.27	33642.86
668.41	33713.08
668.56	33216.88
668.70	33544.56
668.84	33354.97
668.98	33017.94
669.12	33530.51
669.26	33310.50
669.40	33230.93
669.54	33319.87
669.68	32854.10
669.82	33031.98
669.96	32631.75
670.10	32395.35
670.25	32893.89
670.39	33223.90
670.53	32510.04
670.67	32222.16
670.81	33064.75
670.95	32985.17
671.09	32554.51
671.23	32929.00
671.37	32395.35
671.51	32189.39
671.65	32547.49
671.79	32196.41
671.93	32304.07
672.07	32107.47
672.21	32168.32
672.35	31807.88
672.49	32077.04
672.63	32100.45
672.77	31934.27
672.91	31508.29
673.05	31667.45
673.19	31227.43
673.33	31435.74
673.47	31318.71
673.61	31318.71
673.75	31037.84
673.89	31220.41
674.03	30979.33
674.17	30906.77
674.31	31014.44
674.45	30806.13
674.59	31051.89
674.73	31108.06
674.87	30941.88
675.01	31611.28
675.15	31211.04
675.29	30668.04
675.43	30508.88
675.56	30031.41
675.70	30602.50
675.84	30003.33
675.98	29694.38
676.12	29998.65
676.26	29912.05
676.40	29909.71
676.54	29780.98
676.68	29677.99
676.82	29521.18
676.96	29457.98
677.10	29181.80
677.23	29450.96
677.37	29333.93
677.51	29298.83
677.65	29355.00
677.79	29076.48
677.93	29027.32
678.07	28676.24
678.21	28879.87
678.34	28833.06
678.48	28484.32
678.62	28833.06
678.76	28503.04
678.90	28182.39
679.04	28474.96
679.18	28514.75
679.31	28306.44
679.45	27992.81
679.59	27695.56
679.73	27784.50
679.87	28126.22
680.00	27847.69
680.14	27634.71
680.28	27513.00
680.42	27374.91
680.56	27285.97
680.70	27550.45
680.83	27138.51
680.97	27168.94
681.11	26775.73
681.25	26995.74
681.39	26848.29
681.52	26787.43
681.66	26759.34
681.80	26597.85
681.94	26558.06
682.07	26611.89
682.21	26506.57
682.35	26321.66
682.49	26089.95
682.62	26192.94
682.76	25830.15
682.90	26031.44
683.04	26122.72
683.17	26134.42
683.31	25965.90
683.45	25876.96
683.59	25408.86
683.72	25565.67
683.86	25261.40
684.00	25436.94
684.13	25591.42
684.27	25373.75
684.41	24828.40
684.55	24915.00
684.68	25046.07
684.82	24922.02
684.96	24608.39
685.09	24603.71
685.23	24669.25
685.37	24280.72
685.50	24388.38
685.64	24409.45
685.78	24191.78
685.91	24313.48
686.05	24023.26
686.19	23826.65
686.32	23871.12
686.46	23590.26
686.60	23463.87
686.73	23377.27
686.87	23171.30
687.01	23456.85
687.14	23047.26
687.28	23300.03
687.42	23199.39
687.55	22867.03
687.69	22991.08
687.82	22785.12
687.96	22979.38
688.10	22888.10
688.23	22707.88
688.37	22295.94
688.50	22204.66
688.64	22377.86
688.78	22314.67
688.91	22132.11
689.05	22260.84
689.18	22192.96
689.32	21762.30
689.46	22155.51
689.59	22251.47
689.73	22115.72
689.86	21874.65
690.00	21912.10
690.13	21558.67
690.27	22052.53
690.41	21572.72
690.54	21212.28
690.68	21301.22
690.81	20966.52
690.95	20847.15
691.08	21111.63
691.22	21172.49
691.35	21032.05
691.49	20837.79
691.62	20950.14
691.76	20893.96
691.89	20596.71
692.03	20442.24
692.16	20339.26
692.30	20479.69
692.43	20135.63
692.57	19992.86
692.70	20006.90
692.84	20137.97
692.97	19833.70
693.11	19894.55
693.24	19836.04
693.38	19826.68
693.51	19325.80
693.65	19494.32
693.78	19501.34
693.92	19496.66
694.05	19477.94
694.19	19239.20
694.32	19379.64
694.45	19063.66
694.59	18890.46
694.72	18794.50
694.86	18637.69
694.99	18560.45
695.13	18321.71
695.26	18569.81
695.39	18523.00
695.53	18370.86
695.66	18398.95
695.80	18162.56
695.93	17991.70
696.07	18005.74
696.20	18286.61
696.33	18068.94
696.47	17944.89
696.60	17914.46
696.73	17671.04
696.87	17956.59
697.00	17586.79
697.14	17612.53
697.27	17071.87
697.40	17483.80
697.54	17551.68
697.67	17364.43
697.80	17247.41
697.94	17130.38
698.07	17055.48
698.21	16657.59
698.34	16968.88
698.47	16727.81
698.61	16521.84
698.74	16542.91
698.87	16482.05
699.01	16702.06
699.14	16348.64
699.27	16376.73
699.40	16285.45
699.54	15943.73
699.67	15854.79
699.80	16100.55
699.94	16266.72
700.07	16236.30
700.20	16009.26
700.34	15744.78
700.47	15770.53
700.60	16084.16
700.73	15800.96
700.87	15798.62
701.00	15721.38
701.13	15777.55
701.26	15447.54
701.40	15438.17
701.53	15197.10
701.66	15496.69
701.79	15154.97
701.93	15257.95
702.06	15169.01
702.19	14867.08
702.32	15232.21
702.46	14597.92
702.59	14700.90
702.72	14794.53
702.85	14841.34
702.99	14721.97
703.12	14979.43
703.25	14588.56
703.38	14642.39
703.51	14396.64
703.65	14319.40
703.78	14363.87
703.91	14068.96
704.04	14242.16
704.17	14235.14
704.31	13954.27
704.44	13724.90
704.57	13827.88
704.70	13678.09
704.83	13797.46
704.96	13650.00
705.10	13736.60
705.23	13706.18
>>>>>End Processed Spectral Data<<<<<
