SpectraSuite Data File
++++++++++++++++++++++++++++++++++++
Date: Fri Oct 25 11:34:30 EDT 2013
User: price-jones
Dark Spectrum Present: No
Reference Spectrum Present: No
Number of Sampled Component Spectra: 1
Spectrometers: USB2+H05261
Integration Time (usec): 100000 (USB2+H05261)
Spectra Averaged: 1 (USB2+H05261)
Boxcar Smoothing: 0 (USB2+H05261)
Correct for Electrical Dark: No (USB2+H05261)
Strobe/Lamp Enabled: No (USB2+H05261)
Correct for Detector Non-linearity: No (USB2+H05261)
Correct for Stray Light: No (USB2+H05261)
Number of Pixels in Processed Spectrum: 2048
>>>>>Begin Processed Spectral Data<<<<<
365.73	252.78
365.92	252.78
366.12	252.78
366.32	220.01
366.52	180.22
366.72	175.54
366.91	184.90
367.11	191.92
367.31	187.24
367.51	205.97
367.70	119.37
367.90	252.78
368.10	140.43
368.30	184.90
368.49	220.01
368.69	203.63
368.89	222.35
369.09	121.71
369.28	180.22
369.48	208.31
369.68	220.01
369.87	276.18
370.07	191.92
370.27	285.55
370.47	297.25
370.66	418.96
370.86	528.96
371.06	543.00
371.25	552.37
371.45	486.83
371.65	603.86
371.84	566.41
372.04	603.86
372.24	571.09
372.44	568.75
372.63	580.45
372.83	648.33
373.03	610.88
373.22	543.00
373.42	610.88
373.62	643.65
373.81	606.20
374.01	580.45
374.21	699.82
374.40	624.92
374.60	641.31
374.79	491.51
374.99	624.92
375.19	653.01
375.38	636.63
375.58	613.22
375.78	709.18
375.97	606.20
376.17	711.52
376.37	727.91
376.56	709.18
376.76	683.44
376.95	704.50
377.15	702.16
377.35	718.54
377.54	788.76
377.74	657.69
377.93	655.35
378.13	655.35
378.33	678.76
378.52	664.71
378.72	648.33
378.91	662.37
379.11	622.58
379.31	699.82
379.50	720.88
379.70	772.38
379.89	763.01
380.09	685.78
380.28	711.52
380.48	765.36
380.68	695.14
380.87	662.37
381.07	779.40
381.26	685.78
381.46	800.46
381.65	631.94
381.85	744.29
382.04	746.63
382.24	748.97
382.43	730.25
382.63	786.42
382.83	774.72
383.02	835.57
383.22	760.67
383.41	744.29
383.61	760.67
383.80	786.42
384.00	805.14
384.19	798.12
384.39	863.66
384.58	699.82
384.78	861.32
384.97	786.42
385.17	765.36
385.36	812.17
385.56	866.00
385.75	833.23
385.95	856.64
386.14	755.99
386.34	814.51
386.53	896.43
386.72	901.11
386.92	870.68
387.11	875.36
387.31	926.85
387.50	784.08
387.70	823.87
387.89	936.21
388.09	910.47
388.28	919.83
388.48	915.15
388.67	880.04
388.86	854.30
389.06	887.06
389.25	922.17
389.45	950.26
389.64	919.83
389.84	1050.90
390.03	903.45
390.22	976.00
390.42	971.32
390.61	968.98
390.81	887.06
391.00	950.26
391.19	957.28
391.39	1004.09
391.58	1004.09
391.78	983.02
391.97	1069.62
392.16	954.94
392.36	964.30
392.55	992.39
392.75	1011.11
392.94	1001.75
393.13	1046.22
393.33	990.05
393.52	1060.26
393.71	1048.56
393.91	1036.86
394.10	1050.90
394.29	1107.07
394.49	992.39
394.68	1076.65
394.88	1069.62
395.07	1111.75
395.26	1125.80
395.46	1165.59
395.65	1156.22
395.84	1046.22
396.04	1172.61
396.23	1198.35
396.42	1184.31
396.62	1165.59
396.81	1165.59
397.00	1170.27
397.19	1188.99
397.39	1240.48
397.58	1198.35
397.77	1081.33
397.97	1277.93
398.16	1188.99
398.35	1294.32
398.55	1179.63
398.74	1313.04
398.93	1188.99
399.12	1275.59
399.32	1282.61
399.51	1245.16
399.70	1315.38
399.90	1275.59
400.09	1345.81
400.28	1315.38
400.47	1327.08
400.67	1320.06
400.86	1483.90
401.05	1413.68
401.24	1392.62
401.44	1385.60
401.63	1441.77
401.82	1369.21
402.01	1392.62
402.21	1418.36
402.40	1451.13
402.59	1380.92
402.78	1420.71
402.97	1514.33
403.17	1460.49
403.36	1434.75
403.55	1544.75
403.74	1565.82
403.93	1469.86
404.13	1509.65
404.32	1584.54
404.51	1551.78
404.70	1643.06
404.89	1507.30
405.09	1579.86
405.28	1572.84
405.47	1633.69
405.66	1650.08
405.85	1664.12
406.05	1603.27
406.24	1614.97
406.43	1621.99
406.62	1732.00
406.81	1755.40
407.00	1710.93
407.20	1638.38
407.39	1708.59
407.58	1743.70
407.77	1788.17
407.96	1849.02
408.15	1764.76
408.34	1739.02
408.54	1937.96
408.73	1825.62
408.92	1872.43
409.11	1919.24
409.30	1877.11
409.49	1809.23
409.68	1916.90
409.87	1916.90
410.07	1970.73
410.26	1991.80
410.45	1961.37
410.64	2019.88
410.83	2050.31
411.02	2005.84
411.21	2050.31
411.40	2026.90
411.59	2230.53
411.78	2111.16
411.98	2118.18
412.17	2127.55
412.36	2071.37
412.55	2146.27
412.74	2277.34
412.93	2260.96
413.12	2356.92
413.31	2392.03
413.50	2270.32
413.69	2338.20
413.88	2361.60
414.07	2321.81
414.26	2375.64
414.45	2424.80
414.64	2403.73
414.83	2380.32
415.02	2464.58
415.22	2612.04
415.41	2593.31
415.60	2497.35
415.79	2495.01
415.98	2567.57
416.17	2597.99
416.36	2544.16
416.55	2672.89
416.74	2607.36
416.93	2743.11
417.12	2782.90
417.31	2708.00
417.50	2691.62
417.69	2920.99
417.88	2832.05
418.07	2675.23
418.26	2850.77
418.45	2825.03
418.64	2862.48
418.83	3002.91
419.02	2832.05
419.21	2958.44
419.39	3208.87
419.58	2988.86
419.77	3045.04
419.96	3063.76
420.15	2967.80
420.34	3016.95
420.53	2965.46
420.72	3105.89
420.91	3136.32
421.10	3178.45
421.29	3082.49
421.48	3077.80
421.67	3206.53
421.86	3126.96
422.05	3038.02
422.24	3208.87
422.43	3204.19
422.61	3204.19
422.80	3379.73
422.99	3068.44
423.18	3276.75
423.37	3330.58
423.56	3325.90
423.75	3178.45
423.94	3180.79
424.13	3049.72
424.32	3236.96
424.50	3370.37
424.69	3382.07
424.88	3286.11
425.07	3337.60
425.26	3276.75
425.45	3258.03
425.64	3274.41
425.83	3187.81
426.01	3379.73
426.20	3321.22
426.39	3372.71
426.58	3321.22
426.77	3311.86
426.96	3438.25
427.15	3471.01
427.33	3424.20
427.52	3412.50
427.71	3407.82
427.90	3468.67
428.09	3536.55
428.28	3499.10
428.46	3377.39
428.65	3543.57
428.84	3665.28
429.03	3648.90
429.22	3620.81
429.40	3604.42
429.59	3660.60
429.78	3590.38
429.97	3473.36
430.16	3616.13
430.34	3735.50
430.53	3798.69
430.72	3691.02
430.91	3707.41
431.10	3756.56
431.28	3782.31
431.47	3857.20
431.66	3950.82
431.85	3812.73
432.03	3936.78
432.22	4004.66
432.41	3915.72
432.60	4051.47
432.79	3889.97
432.97	3953.16
433.16	3943.80
433.35	4028.06
433.54	3992.95
433.72	3981.25
433.91	4014.02
434.10	4028.06
434.28	3946.14
434.47	4016.36
434.66	4119.34
434.85	4208.28
435.03	4133.39
435.22	4070.19
435.41	4348.72
435.59	4236.37
435.78	4234.03
435.97	4227.01
436.16	4231.69
436.34	4170.83
436.53	4173.18
436.72	4278.50
436.90	4156.79
437.09	4386.16
437.28	4393.19
437.46	4236.37
437.65	4388.50
437.84	4528.94
438.02	4397.87
438.21	4526.60
438.40	4372.12
438.58	4599.15
438.77	4631.92
438.96	4660.01
439.14	4575.75
439.33	4652.98
439.52	4882.36
439.70	4814.48
439.89	4837.89
440.08	4814.48
440.26	4861.29
440.45	4865.97
440.63	4919.81
440.82	5039.17
441.01	4961.94
441.19	4863.63
441.38	4940.87
441.57	5022.79
441.75	4980.66
441.94	5135.14
442.12	5263.86
442.31	5195.99
442.50	5170.24
442.68	5301.31
442.87	5032.15
443.05	5317.70
443.24	5364.51
443.43	5308.34
443.61	5254.50
443.80	5474.51
443.98	5303.65
444.17	5188.97
444.35	5397.28
444.54	5483.88
444.73	5373.87
444.91	5298.97
445.10	5528.35
445.28	5439.40
445.47	5516.64
445.65	5511.96
445.84	5502.60
446.02	5502.60
446.21	5416.00
446.39	5568.13
446.58	5624.31
446.77	5460.47
446.95	5296.63
447.14	5455.79
447.32	5526.00
447.51	5345.78
447.69	5334.08
447.88	5617.29
448.06	5526.00
448.25	5528.35
448.43	5474.51
448.62	5497.92
448.80	5490.90
448.99	5565.79
449.17	5596.22
449.36	5734.31
449.54	5643.03
449.73	5764.74
449.91	5851.34
450.10	5884.11
450.28	5909.85
450.46	5912.19
450.65	5731.97
450.83	5830.27
451.02	5940.28
451.20	6047.94
451.39	5973.05
451.57	5909.85
451.76	5851.34
451.94	5919.21
452.13	6073.69
452.31	5928.58
452.49	5959.00
452.68	6071.35
452.86	6047.94
453.05	6179.01
453.23	6026.88
453.42	6101.78
453.60	6017.52
453.78	6148.59
453.97	6005.81
454.15	6076.03
454.34	6094.76
454.52	6228.17
454.70	6307.74
454.89	6413.07
455.07	6342.85
455.26	6274.98
455.44	6567.54
455.62	6406.05
455.81	6431.79
455.99	6593.29
456.17	6539.46
456.36	6396.68
456.54	6462.22
456.73	6607.33
456.91	6757.13
457.09	6705.63
457.28	6668.19
457.46	6752.45
457.64	6771.17
457.83	6780.53
458.01	6843.73
458.19	7042.67
458.38	6885.86
458.56	6993.52
458.74	6977.14
458.93	6745.42
459.11	6757.13
459.29	6686.91
459.48	7023.95
459.66	6984.16
459.84	7026.29
460.03	7222.89
460.21	7112.89
460.39	7204.17
460.57	7084.80
460.76	7197.15
460.94	7258.00
461.12	7222.89
461.31	7293.11
461.49	7279.07
461.67	7201.83
461.85	7276.73
462.04	7206.51
462.22	7576.31
462.40	7543.55
462.59	7353.96
462.77	7475.67
462.95	7466.31
463.13	7297.79
463.32	7508.44
463.50	7468.65
463.68	7508.44
463.86	7576.31
464.05	7321.20
464.23	7405.46
464.41	7735.47
464.59	7543.55
464.78	7740.15
464.96	7644.19
465.14	7529.50
465.32	7749.51
465.50	7747.17
465.69	7817.39
465.87	7775.26
466.05	7573.97
466.23	7824.41
466.41	7754.19
466.60	8065.49
466.78	7761.22
466.96	7749.51
467.14	7810.37
467.32	7850.16
467.51	8079.53
467.69	7899.31
467.87	8035.06
468.05	7908.67
468.23	7960.16
468.41	7660.57
468.60	7779.94
468.78	8098.25
468.96	8116.98
469.14	8189.53
469.32	8262.09
469.50	7990.59
469.69	8231.66
469.87	8299.54
470.05	8395.50
470.23	8404.86
470.41	8526.57
470.59	8458.70
470.77	8259.75
470.95	8496.14
471.14	8821.48
471.32	8222.30
471.50	8816.80
471.68	8580.40
471.86	8727.86
472.04	8868.29
472.22	8887.01
472.40	8767.65
472.58	8671.68
472.77	8809.78
472.95	8964.25
473.13	9188.94
473.31	8980.64
473.49	8849.57
473.67	8847.22
473.85	8968.93
474.03	9242.78
474.21	9441.72
474.39	9256.82
474.57	9408.95
474.75	9533.00
474.93	9551.73
475.12	9465.13
475.30	9486.19
475.48	9556.41
475.66	9514.28
475.84	9643.01
476.02	9769.40
476.20	9696.84
476.38	10061.96
476.56	10038.56
476.74	10047.92
476.92	9912.17
477.10	9818.55
477.28	10242.18
477.46	10216.44
477.64	10328.78
477.82	10434.11
478.00	10834.34
478.18	10658.80
478.36	10953.71
478.54	10693.91
478.72	10878.81
478.90	10883.49
479.08	10927.96
479.26	11012.22
479.44	11232.23
479.62	11173.72
479.80	11454.58
479.98	11353.94
480.16	11592.67
480.34	11569.27
480.52	11688.64
480.70	11742.47
480.88	11660.55
481.06	11599.70
481.24	11868.86
481.41	11969.50
481.59	12191.85
481.77	12233.98
481.95	12315.90
482.13	12463.35
482.31	12325.26
482.49	12709.11
482.67	12381.43
482.85	12891.67
483.03	13064.87
483.21	13069.55
483.39	13114.02
483.57	12879.97
483.74	13287.22
483.92	13500.21
484.10	13551.70
484.28	13657.03
484.46	13724.90
484.64	14024.49
484.82	13577.45
485.00	13827.88
485.18	14087.68
485.35	14193.01
485.53	14321.74
485.71	14396.64
485.89	14733.67
486.07	14665.80
486.25	14719.63
486.43	14581.54
486.61	15112.84
486.78	15213.48
486.96	15386.68
487.14	15185.40
487.32	15370.30
487.50	15424.13
487.68	15707.34
487.85	15810.32
488.03	15819.68
488.21	16081.82
488.39	16039.69
488.57	16374.39
488.75	16301.83
488.92	16444.60
489.10	16702.06
489.28	16610.78
489.46	17149.11
489.64	17039.10
489.81	17298.90
489.99	17261.45
490.17	17184.21
490.35	17415.93
490.53	17743.60
490.70	17788.07
490.88	17853.61
491.06	17626.57
491.24	17947.23
491.41	18225.75
491.59	18249.16
491.77	18302.99
491.95	18382.57
492.13	18572.15
492.30	18843.65
492.48	18881.10
492.66	18810.89
492.84	18848.33
493.01	19126.86
493.19	19218.14
493.37	19557.52
493.54	19403.04
493.72	19796.25
493.90	19470.92
494.08	19896.89
494.25	20058.39
494.43	19992.86
494.61	19988.18
494.79	20219.89
494.96	20304.15
495.14	20177.76
495.32	20922.05
495.49	20638.84
495.67	20659.91
495.85	20819.07
496.02	21029.71
496.20	21589.10
496.38	21504.84
496.55	21209.93
496.73	21804.43
496.91	21401.86
497.09	21523.57
497.26	21830.18
497.44	21589.10
497.62	21979.97
497.79	22136.79
497.97	21975.29
498.14	22455.10
498.32	22656.39
498.50	22513.61
498.67	23166.62
498.85	22658.73
499.03	22860.01
499.20	23147.90
499.38	23009.81
499.56	23194.71
499.73	23218.11
499.91	23414.72
500.08	23503.66
500.26	23557.49
500.44	23747.08
500.61	23372.59
500.79	23344.50
500.97	23948.36
501.14	23943.68
501.32	24079.43
501.49	24044.32
501.67	23988.15
501.84	24313.48
502.02	24137.94
502.20	24573.28
502.37	24622.44
502.55	24341.57
502.72	24341.57
502.90	24732.44
503.07	24484.34
503.25	24891.60
503.43	24940.75
503.60	25399.49
503.78	24954.79
503.95	25039.05
504.13	25298.85
504.30	25352.68
504.48	25443.96
504.65	25565.67
504.83	25970.58
505.01	25626.53
505.18	25743.55
505.36	25874.62
505.53	25628.87
505.71	26293.58
505.88	26075.91
506.06	26214.00
506.23	26525.29
506.41	26185.91
506.58	26246.77
506.76	26321.66
506.93	26780.41
507.11	26562.74
507.28	26733.60
507.46	26895.10
507.63	26871.69
507.81	27337.46
507.98	26539.33
508.16	27194.68
508.33	27260.22
508.50	27229.79
508.68	27292.99
508.85	27417.04
509.03	27337.46
509.20	27569.17
509.38	28044.30
509.55	27927.27
509.73	27899.19
509.90	28100.47
510.08	27793.86
510.25	28088.77
510.42	27901.53
510.60	28489.00
510.77	28142.60
510.95	28730.08
511.12	28872.85
511.30	28477.30
511.47	28699.65
511.64	28692.63
511.82	29170.10
511.99	29034.35
512.17	29303.51
512.34	29090.52
512.51	29383.09
512.69	29523.52
512.86	28861.15
513.04	29544.58
513.21	29259.04
513.38	29631.18
513.56	29930.77
513.73	29523.52
513.90	29780.98
514.08	30057.16
514.25	29848.85
514.43	30211.64
514.60	30066.52
514.77	29741.19
514.95	30110.99
515.12	30244.40
515.29	30508.88
515.47	30403.56
515.64	30515.90
515.81	30237.38
515.99	30162.48
516.16	30843.58
516.33	30602.50
516.51	30906.77
516.68	30761.66
516.85	30834.22
517.03	31051.89
517.20	31180.62
517.37	31122.10
517.54	31033.16
517.72	31377.22
517.89	31269.56
518.06	31580.85
518.24	31625.32
518.41	31435.74
518.58	31866.39
518.75	31356.16
518.93	32032.57
519.10	31850.01
519.27	31819.58
519.45	32135.56
519.62	32341.52
519.79	32063.00
519.96	31903.84
520.14	31976.40
520.31	31910.86
520.48	32107.47
520.65	32484.30
520.83	32720.69
521.00	32711.33
521.17	32945.38
521.34	32954.74
521.52	33017.94
521.69	33207.52
521.86	33064.75
522.03	33385.40
522.20	33336.25
522.38	33282.42
522.55	33364.34
522.72	33263.69
522.89	33420.51
523.07	33624.14
523.24	33254.33
523.41	33544.56
523.58	32898.57
523.75	33680.31
523.92	33614.77
524.10	34188.21
524.27	33989.26
524.44	33961.17
524.61	34422.26
524.78	34185.86
524.96	34576.73
525.13	34272.46
525.30	34485.45
525.47	34211.61
525.64	34227.99
525.81	34941.86
525.98	34249.06
526.16	34555.67
526.33	34462.05
526.50	35196.98
526.67	34440.98
526.84	34679.72
527.01	34361.40
527.18	34817.81
527.36	35264.85
527.53	35143.14
527.70	35416.99
527.87	35548.06
528.04	35536.35
528.21	35117.40
528.38	35260.17
528.55	35562.10
528.72	35262.51
528.89	35590.19
529.07	35526.99
529.24	35618.27
529.41	35875.73
529.58	35435.71
529.75	35688.49
529.92	35763.39
530.09	35611.25
530.26	35943.61
530.43	36219.79
530.60	35957.65
530.77	35562.10
530.94	36030.21
531.11	36224.47
531.28	36037.23
531.46	36137.87
531.63	36238.51
531.80	36671.51
531.97	36627.04
532.14	36388.31
532.31	36577.89
532.48	36727.69
532.65	36638.75
532.82	36383.63
532.99	36905.57
533.16	36673.85
533.33	36748.75
533.50	36999.19
533.67	36943.02
533.84	36814.29
534.01	36851.73
534.18	36910.25
534.35	37376.01
534.52	37167.71
534.69	37371.33
534.86	37935.40
535.03	37228.56
535.20	37603.05
535.37	37558.58
535.54	37886.25
535.71	37172.39
535.88	37521.13
536.05	37729.44
536.22	37865.19
536.38	37748.16
536.55	38115.62
536.72	37734.12
536.89	37572.62
537.06	38050.09
537.23	38576.71
537.40	38017.32
537.57	37890.93
537.74	38068.81
537.91	38342.66
538.08	38375.42
538.25	37972.85
538.42	38129.67
538.59	38745.23
538.75	38536.92
538.92	39051.84
539.09	38916.09
539.26	38403.51
539.43	38728.84
539.60	38335.63
539.77	38820.13
539.94	38993.32
540.11	38721.82
540.28	38490.11
540.44	38859.91
540.61	38663.31
540.78	38649.27
540.95	39199.29
541.12	39023.75
541.29	39047.16
541.46	38953.54
541.62	39028.43
541.79	39313.98
541.96	38876.30
542.13	38946.51
542.30	39468.45
542.47	39454.41
542.63	39421.64
542.80	39770.38
542.97	39814.85
543.14	40011.46
543.31	39828.90
543.48	40009.12
543.64	40332.11
543.81	39943.58
543.98	40271.26
544.15	40212.74
544.32	40355.52
544.48	40514.67
544.65	40313.39
544.82	40252.53
544.99	40215.08
545.16	40170.61
545.32	40268.92
545.49	40589.57
545.66	40612.98
545.83	40645.74
546.00	40582.55
546.16	40402.33
546.33	40388.28
546.50	40133.17
546.67	41003.85
546.83	40341.47
547.00	40856.39
547.17	40683.19
547.34	40458.50
547.50	40856.39
547.67	41240.24
547.84	41141.94
548.00	41067.04
548.17	41305.77
548.34	40942.99
548.51	41324.50
548.67	41160.66
548.84	40933.63
549.01	41490.68
549.18	41024.91
549.34	41303.43
549.51	41481.31
549.68	41734.09
549.84	41270.67
550.01	41799.63
550.18	41390.03
550.34	41153.64
550.51	41537.49
550.68	41703.67
550.84	41380.67
551.01	41801.97
551.18	41645.15
551.34	41521.10
551.51	41816.01
551.68	41663.88
551.84	41855.80
552.01	41804.31
552.18	41968.15
552.34	41977.51
552.51	41879.21
552.68	41832.39
552.84	42153.05
553.01	42059.43
553.18	41860.48
553.34	42253.69
553.51	41930.70
553.67	42366.04
553.84	42408.17
554.01	42244.33
554.17	42286.46
554.34	42693.71
554.51	42272.42
554.67	42485.40
554.84	43026.07
555.00	42506.47
555.17	42445.62
555.33	42576.69
555.50	42590.73
555.67	42532.22
555.83	42756.91
556.00	42686.69
556.16	43276.51
556.33	42990.96
556.50	42859.89
556.66	43332.68
556.83	42637.54
556.99	42925.42
557.16	42986.28
557.32	43332.68
557.49	43620.56
557.65	42644.56
557.82	42801.38
557.98	43119.69
558.15	42686.69
558.32	43122.03
558.48	43002.66
558.65	43283.53
558.81	43255.44
558.98	43229.69
559.14	43461.41
559.31	42869.25
559.47	42822.44
559.64	43775.04
559.80	43339.70
559.97	43709.50
560.13	43129.05
560.30	43260.12
560.46	43407.58
560.63	43716.53
560.79	44149.53
560.96	43885.04
561.12	43810.15
561.29	43590.14
561.45	43681.42
561.61	43524.60
561.78	43374.81
561.94	43985.69
562.11	43505.88
562.27	43648.65
562.44	43248.42
562.60	44046.54
562.77	44004.41
562.93	43672.06
563.10	43868.66
563.26	43248.42
563.42	44074.63
563.59	43597.16
563.75	43487.15
563.92	44147.18
564.08	43681.42
564.24	43597.16
564.41	43899.09
564.57	43981.01
564.74	44575.50
564.90	43915.47
565.07	43723.55
565.23	43758.66
565.39	44327.41
565.56	44287.62
565.72	43831.21
565.88	44257.19
566.05	44095.69
566.21	43981.01
566.38	44245.49
566.54	44236.12
566.70	44795.51
566.87	44357.83
567.03	43959.94
567.19	44470.18
567.36	44088.67
567.52	44327.41
567.68	44683.17
567.85	44498.26
568.01	44399.96
568.17	44020.80
568.34	44673.81
568.50	44076.97
568.66	44233.78
568.83	44598.91
568.99	44720.62
569.15	44226.76
569.32	44800.19
569.48	44219.74
569.64	44678.49
569.81	44626.99
569.97	44776.79
570.13	44505.29
570.30	44280.60
570.46	44264.21
570.62	44554.44
570.78	44849.35
570.95	44135.48
571.11	44949.99
571.27	44079.31
571.43	44769.77
571.60	44414.01
571.76	44236.12
571.92	44669.12
572.09	44914.88
572.25	44470.18
572.41	44446.77
572.57	44540.39
572.74	45375.97
572.90	44671.46
573.06	44849.35
573.22	44854.03
573.38	45062.33
573.55	45202.77
573.71	44776.79
573.87	44692.53
574.03	44634.02
574.20	45462.57
574.36	44931.26
574.52	45481.29
574.68	44673.81
574.84	44926.58
575.01	45219.15
575.17	45216.81
575.33	44903.18
575.49	44765.09
575.65	44959.35
575.82	45193.40
575.98	45050.63
576.14	44966.37
576.30	45148.93
576.46	45329.16
576.62	44645.72
576.79	44957.01
576.95	44423.37
577.11	44893.82
577.27	44839.98
577.43	44964.03
577.59	44849.35
577.75	44554.44
577.92	44729.98
578.08	44851.69
578.24	45179.36
578.40	45338.52
578.56	45202.77
578.72	44737.00
578.88	44996.80
579.04	44942.97
579.21	45177.02
579.37	45017.86
579.53	45481.29
579.69	44582.52
579.85	44797.85
580.01	44978.07
580.17	45090.42
580.33	45198.09
580.49	45207.45
580.65	44928.92
580.82	45181.70
580.98	45116.17
581.14	44893.82
581.30	45287.03
581.46	45333.84
581.62	44741.68
581.78	45017.86
581.94	45010.84
582.10	45308.09
582.26	44786.15
582.42	45179.36
582.58	45649.81
582.74	45017.86
582.90	45104.46
583.06	45708.32
583.22	45191.06
583.38	45464.91
583.54	45270.64
583.70	45265.96
583.86	45436.82
584.02	45214.47
584.18	45261.28
584.34	45560.87
584.50	45621.72
584.66	45647.47
584.82	45500.01
584.98	45361.92
585.14	45455.54
585.30	45230.85
585.46	45474.27
585.62	44987.44
585.78	45488.31
585.94	45083.40
586.10	45085.74
586.26	45067.02
586.42	45294.05
586.58	45516.40
586.74	45261.28
586.90	45027.23
587.06	45382.99
587.22	45478.95
587.38	45177.02
587.54	45731.73
587.70	45642.79
587.86	45378.31
588.02	45326.81
588.18	45748.11
588.34	45558.53
588.49	45230.85
588.65	45242.56
588.81	45668.53
588.97	45408.73
589.13	45261.28
589.29	45567.89
589.45	45799.60
589.61	45689.60
589.77	45504.70
589.93	45619.38
590.08	45813.65
590.24	45652.15
590.40	45703.64
590.56	45617.04
590.72	45647.47
590.88	45549.17
591.04	45869.82
591.20	45935.35
591.35	45776.20
591.51	46281.75
591.67	45635.77
591.83	46040.68
591.99	45853.44
592.15	45766.84
592.31	45832.37
592.46	45280.00
592.62	45745.77
592.78	45776.20
592.94	46007.91
593.10	45972.80
593.26	46190.47
593.41	46309.84
593.57	46293.46
593.73	45963.44
593.89	46525.17
594.05	46272.39
594.20	45968.12
594.36	46309.84
594.52	45556.19
594.68	46263.03
594.84	46078.13
594.99	46197.49
595.15	46457.29
595.31	46204.52
595.47	45724.71
595.62	45944.72
595.78	45659.17
595.94	46326.22
596.10	45949.40
596.25	46094.51
596.41	46075.79
596.57	45935.35
596.73	46433.89
596.88	46146.00
597.04	45893.22
597.20	46167.07
597.36	45865.14
597.51	46096.85
597.67	45830.03
597.83	45930.67
597.99	46478.36
598.14	45881.52
598.30	45937.69
598.46	46293.46
598.61	46253.67
598.77	46087.49
598.93	46394.10
599.09	46043.02
599.24	46703.05
599.40	46302.82
599.56	46239.62
599.71	46553.26
599.87	46761.56
600.03	46307.50
600.18	46244.30
600.34	46515.81
600.50	46312.18
600.65	45811.31
600.81	46527.51
600.97	46307.50
601.12	46328.56
601.28	46078.13
601.44	45862.80
601.59	46305.16
601.75	45918.97
601.91	46576.66
602.06	45614.70
602.22	46314.52
602.37	45935.35
602.53	45965.78
602.69	46216.22
602.84	46075.79
603.00	46124.94
603.16	46335.59
603.31	45804.28
603.47	46480.70
603.62	46234.94
603.78	46550.91
603.94	45717.68
604.09	46518.15
604.25	45705.98
604.40	46085.15
604.56	46073.45
604.71	46302.82
604.87	46038.34
605.03	45874.50
605.18	46499.42
605.34	46169.41
605.49	45977.48
605.65	46288.77
605.80	46148.34
605.96	45668.53
606.12	46167.07
606.27	46223.24
606.43	45579.59
606.58	46642.20
606.74	45872.16
606.89	46368.35
607.05	46117.92
607.20	46206.86
607.36	45560.87
607.51	46438.57
607.67	45947.06
607.82	45698.96
607.98	45937.69
608.13	45724.71
608.29	45965.78
608.44	46082.81
608.60	45876.84
608.75	46370.69
608.91	46014.93
609.06	45757.47
609.22	45862.80
609.37	45909.61
609.53	45560.87
609.68	46028.98
609.84	46000.89
609.99	46096.85
610.15	46171.75
610.30	46082.81
610.46	45453.20
610.61	45640.45
610.76	45911.95
610.92	45900.25
611.07	45652.15
611.23	45305.75
611.38	45523.42
611.54	45769.18
611.69	45382.99
611.84	45844.07
612.00	45928.33
612.15	45553.85
612.31	45968.12
612.46	45209.79
612.62	45584.27
612.77	45116.17
612.92	45745.77
613.08	45563.21
613.23	45792.58
613.39	45928.33
613.54	45418.10
613.69	45656.83
613.85	45497.67
614.00	45673.21
614.15	45696.62
614.31	45588.95
614.46	45446.18
614.62	45050.63
614.77	45481.29
614.92	45446.18
615.08	45591.30
615.23	45380.65
615.38	45663.85
615.54	45347.88
615.69	45689.60
615.84	45214.47
616.00	45457.88
616.15	45216.81
616.30	45551.51
616.46	45469.59
616.61	45202.77
616.76	45457.88
616.92	45155.96
617.07	45368.94
617.22	45265.96
617.37	45010.84
617.53	45249.58
617.68	44928.92
617.83	45090.42
617.99	45481.29
618.14	45558.53
618.29	44767.43
618.45	44767.43
618.60	45202.77
618.75	44844.66
618.90	45237.87
619.06	45017.86
619.21	44769.77
619.36	45432.14
619.51	44783.81
619.67	45340.86
619.82	44978.07
619.97	45062.33
620.12	44872.75
620.28	44872.75
620.43	44985.10
620.58	44938.29
620.73	45308.09
620.89	44807.22
621.04	44886.79
621.19	44589.55
621.34	44545.08
621.49	44657.42
621.65	44561.46
621.80	44713.59
621.95	44849.35
622.10	44837.64
622.25	44645.72
622.41	44444.43
622.56	44369.54
622.71	44491.24
622.86	44797.85
623.01	44570.82
623.16	44435.07
623.32	44603.59
623.47	44444.43
623.62	44650.40
623.77	44018.46
623.92	44378.90
624.07	44514.65
624.23	44872.75
624.38	44418.69
624.53	44502.95
624.68	44086.33
624.83	44142.50
624.98	44062.93
625.13	43842.92
625.29	44053.56
625.44	44126.12
625.59	44236.12
625.74	44072.29
625.89	44098.03
626.04	43964.62
626.19	43924.83
626.34	43964.62
626.49	43807.81
626.65	44006.75
626.80	43896.75
626.95	43620.56
627.10	43707.16
627.25	43885.04
627.40	43892.07
627.55	43878.02
627.70	43793.76
627.85	43854.62
628.00	43894.41
628.15	44055.90
628.30	42990.96
628.45	43161.82
628.60	43239.06
628.76	43576.09
628.91	43562.05
629.06	43344.38
629.21	43730.57
629.36	43166.50
629.51	43625.25
629.66	43653.33
629.81	43192.25
629.96	43367.79
630.11	43014.37
630.26	43306.93
630.41	43299.91
630.56	43398.21
630.71	43241.40
630.86	43468.43
631.01	43103.31
631.16	42871.59
631.31	43037.77
631.46	42859.89
631.61	43466.09
631.76	42916.06
631.91	43044.79
632.06	43445.02
632.21	43070.54
632.36	43440.34
632.51	42665.63
632.66	42780.31
632.81	42684.35
632.96	42981.60
633.10	42651.58
633.25	42721.80
633.40	43103.31
633.55	43276.51
633.70	43136.07
633.85	42663.28
634.00	42206.88
634.15	43051.81
634.30	42534.56
634.45	42649.24
634.60	42794.36
634.75	42768.61
634.90	42487.74
635.05	43187.56
635.19	42663.28
635.34	42653.92
635.49	42817.76
635.64	42609.45
635.79	42969.90
635.94	42466.68
636.09	42349.65
636.24	42583.71
636.39	42351.99
636.53	42199.86
636.68	42188.16
636.83	42099.22
636.98	42197.52
637.13	42010.28
637.28	41933.04
637.43	41914.31
637.57	42148.37
637.72	41996.23
637.87	42209.22
638.02	42693.71
638.17	41837.08
638.32	41921.34
638.46	41935.38
638.61	41773.88
638.76	41888.57
638.91	41546.85
639.06	41982.19
639.20	41528.13
639.35	41577.28
639.50	41467.27
639.65	42124.96
639.80	41928.36
639.94	42164.75
640.09	41811.33
640.24	41907.29
640.39	41450.89
640.54	41375.99
640.68	41610.04
640.83	41944.74
640.98	41509.40
641.13	41404.08
641.27	41689.62
641.42	41490.68
641.57	41523.44
641.72	41696.64
641.86	41495.36
642.01	41076.40
642.16	41483.66
642.31	40685.53
642.45	41294.07
642.60	40924.27
642.75	41275.35
642.90	41371.31
643.04	41155.98
643.19	41251.94
643.34	41404.08
643.48	40720.64
643.63	41085.76
643.78	41329.18
643.93	41450.89
644.07	41090.44
644.22	40947.67
644.37	40903.20
644.51	41359.61
644.66	41254.28
644.81	41130.23
644.95	40786.18
645.10	41113.85
645.25	40577.87
645.39	40556.80
645.54	40680.85
645.69	40175.30
645.83	40484.25
645.98	40921.93
646.13	40465.52
646.27	40456.16
646.42	40891.50
646.57	41036.61
646.71	40772.13
646.86	40854.05
647.00	40973.42
647.15	40727.66
647.30	40781.49
647.44	40418.71
647.59	40458.50
647.74	40322.75
647.88	40746.39
648.03	41181.73
648.17	40741.71
648.32	40435.10
648.47	40708.94
648.61	40624.68
648.76	40554.46
648.90	40018.48
649.05	40334.45
649.20	40465.52
649.34	40257.21
649.49	40514.67
649.63	40629.36
649.78	40170.61
649.92	40191.68
650.07	40481.91
650.21	40563.82
650.36	40500.63
650.51	40528.72
650.65	40531.06
650.80	40147.21
650.94	40350.84
651.09	39878.05
651.23	39552.71
651.38	40053.59
651.52	39648.68
651.67	39854.64
651.81	40076.99
651.96	39761.02
652.10	39899.11
652.25	39711.87
652.39	39849.96
652.54	39674.42
652.68	39901.45
652.83	39564.42
652.97	39924.86
653.12	39353.77
653.26	39672.08
653.41	39674.42
653.55	39388.88
653.70	40002.10
653.84	39529.31
653.99	39936.56
654.13	39821.87
654.27	39431.01
654.42	39643.99
654.56	39482.50
654.71	39395.90
654.85	39398.24
655.00	39281.21
655.14	39594.84
655.29	39475.48
655.43	39590.16
655.57	39210.99
655.72	39058.86
655.86	39189.93
656.01	39232.06
656.15	38965.24
656.30	38925.45
656.44	38951.20
656.58	39206.31
656.73	39318.66
656.87	38707.78
657.01	38689.06
657.16	39290.57
657.30	38990.98
657.45	38841.19
657.59	38864.60
657.73	38714.80
657.88	38714.80
658.02	39019.07
658.16	39292.91
658.31	38768.63
658.45	38569.69
658.60	38731.18
658.74	38447.98
658.88	38796.72
659.03	38714.80
659.17	38396.49
659.31	38295.85
659.46	38204.56
659.60	38366.06
659.74	38113.28
659.89	38174.14
660.03	37853.48
660.17	38632.88
660.32	38113.28
660.46	38014.98
660.60	37738.80
660.74	38183.50
660.89	38192.86
661.03	37275.37
661.17	37809.01
661.32	37277.71
661.46	37640.50
661.60	37649.86
661.74	37752.84
661.89	37586.66
662.03	37706.03
662.17	37624.11
662.31	37141.96
662.46	37535.17
662.60	37483.68
662.74	36821.31
662.88	36964.08
663.03	36800.24
663.17	36844.71
663.31	36825.99
663.45	37111.53
663.60	37294.10
663.74	37053.02
663.88	37137.28
664.02	36952.38
664.17	37235.58
664.31	36868.12
664.45	36528.74
664.59	36795.56
664.73	36573.21
664.88	36704.28
665.02	36332.14
665.16	36636.41
665.30	36100.42
665.44	36570.87
665.59	35962.33
665.73	36210.43
665.87	35913.18
666.01	36018.50
666.15	36196.38
666.29	36046.59
666.44	36673.85
666.58	36002.12
666.72	35910.84
666.86	35669.76
667.00	35997.44
667.14	35571.46
667.28	35388.90
667.43	35491.88
667.57	35749.34
667.71	35854.67
667.85	35971.69
667.99	35402.94
668.13	35585.50
668.27	35140.80
668.41	35491.88
668.56	34574.39
668.70	34834.19
668.84	34895.05
668.98	34637.59
669.12	34995.69
669.26	34803.77
669.40	34731.21
669.54	35023.78
669.68	35264.85
669.82	34534.60
669.96	34281.83
670.10	33745.84
670.25	34237.36
670.39	34405.88
670.53	34256.08
670.67	34284.17
670.81	34614.18
670.95	34478.43
671.09	34120.33
671.23	34206.93
671.37	34497.16
671.51	33972.88
671.65	33645.20
671.79	33333.91
671.93	33865.21
672.07	33909.68
672.21	33476.68
672.35	33759.89
672.49	33294.12
672.63	33380.72
672.77	33085.81
672.91	33085.81
673.05	33266.03
673.19	32765.16
673.33	32811.97
673.47	32893.89
673.61	33191.14
673.75	32533.45
673.89	32931.34
674.03	32617.71
674.17	32617.71
674.31	32381.31
674.45	31920.23
674.59	32350.88
674.73	32231.52
674.87	32072.36
675.01	32013.85
675.15	31922.57
675.29	31630.00
675.43	31707.24
675.56	31592.55
675.70	31903.84
675.84	31620.64
675.98	30314.62
676.12	31388.92
676.26	31662.77
676.40	30780.39
676.54	31087.00
676.68	31129.12
676.82	30377.81
676.96	31349.14
677.10	31016.78
677.23	30998.06
677.37	30974.65
677.51	30789.75
677.65	30279.51
677.79	30188.23
677.93	30504.20
678.07	30328.66
678.21	30574.42
678.34	29858.21
678.48	29860.55
678.62	29493.09
678.76	29961.20
678.90	29556.28
679.04	29542.24
679.18	29724.80
679.31	28938.38
679.45	29308.19
679.59	28847.10
679.73	29394.79
679.87	28816.68
680.00	29039.03
680.14	29127.97
680.28	29071.79
680.42	28650.50
680.56	28271.33
680.70	28360.27
680.83	28304.10
680.97	28416.44
681.11	28615.39
681.25	27805.56
681.39	27758.75
681.52	27913.23
681.66	27597.26
681.80	27370.22
681.94	27194.68
682.07	27335.12
682.21	27330.44
682.35	27545.76
682.49	27351.50
682.62	27089.36
682.76	27199.37
682.90	26974.67
683.04	26745.30
683.17	27119.79
683.31	26838.92
683.45	26314.64
683.59	26363.79
683.72	26246.77
683.86	26174.21
684.00	26188.25
684.13	25834.83
684.27	26113.36
684.41	25340.98
684.55	26026.76
684.68	25862.92
684.82	25401.83
684.96	25394.81
685.09	25673.34
685.23	25399.49
685.37	25766.96
685.50	25502.48
685.64	25462.69
685.78	25303.53
685.91	24933.73
686.05	24552.22
686.19	24095.82
686.32	24608.39
686.46	24156.67
686.60	24098.16
686.73	24109.86
686.87	24367.32
687.01	24484.34
687.14	24168.37
687.28	23992.83
687.42	24041.98
687.55	23798.57
687.69	24140.29
687.82	23536.43
687.96	23817.29
688.10	23676.86
688.23	23988.15
688.37	23405.36
688.50	23754.10
688.64	23250.88
688.78	23318.76
688.91	23005.13
689.05	22967.68
689.18	22862.35
689.32	22244.45
689.46	22583.83
689.59	22307.65
689.73	22569.79
689.86	22567.45
690.00	22263.18
690.13	22377.86
690.27	22181.26
690.41	22298.28
690.54	21827.84
690.68	21682.72
690.81	21490.80
690.95	21776.34
691.08	21722.51
691.22	21160.78
691.35	21563.36
691.49	21366.75
691.62	21462.71
691.76	20713.74
691.89	20933.75
692.03	20886.94
692.16	20563.95
692.30	20552.24
692.43	20786.30
692.57	20608.42
692.70	20659.91
692.84	20376.70
692.97	20121.59
693.11	20154.35
693.24	19985.83
693.38	19798.59
693.51	19939.02
693.65	19623.05
693.78	19555.18
693.92	19976.47
694.05	19541.13
694.19	19644.12
694.32	19309.42
694.45	19908.60
694.59	19711.99
694.72	19590.28
694.86	19199.41
694.99	19321.12
695.13	18649.39
695.26	18757.05
695.39	18731.31
695.53	18869.40
695.66	18450.44
695.80	18403.63
695.93	18625.98
696.07	18654.07
696.20	18174.26
696.33	18363.84
696.47	18291.29
696.60	18047.87
696.73	17933.18
696.87	17947.23
697.00	18106.38
697.14	17621.89
697.27	17582.10
697.40	17633.60
697.54	17647.64
697.67	17750.62
697.80	17523.59
697.94	17448.69
698.07	17102.29
698.21	17116.34
698.34	17233.36
698.47	16924.41
698.61	16599.08
698.74	16561.63
698.87	16570.99
699.01	16255.02
699.14	16592.06
699.27	16248.00
699.40	16533.54
699.54	16407.16
699.67	16257.36
699.80	16130.97
699.94	16091.18
700.07	16219.91
700.20	16046.71
700.34	15880.53
700.47	15903.94
700.60	15843.09
700.73	15772.87
700.87	15393.70
701.00	15587.97
701.13	15190.08
701.26	15283.70
701.40	15428.81
701.53	15192.42
701.66	14979.43
701.79	15059.01
701.93	15016.88
702.06	14881.13
702.19	14946.66
702.32	14721.97
702.46	14663.46
702.59	14728.99
702.72	14637.71
702.85	14525.36
702.99	14644.73
703.12	14443.45
703.25	14375.57
703.38	14155.56
703.51	14038.53
703.65	13937.89
703.78	13949.59
703.91	14099.39
704.04	13682.77
704.17	13872.36
704.31	13858.31
704.44	13916.83
704.57	13862.99
704.70	13460.42
704.83	13497.87
704.96	13434.68
705.10	13458.08
705.23	13205.30
>>>>>End Processed Spectral Data<<<<<
