SpectraSuite Data File
++++++++++++++++++++++++++++++++++++
Date: Fri Oct 25 10:48:27 EDT 2013
User: price-jones
Dark Spectrum Present: No
Reference Spectrum Present: No
Number of Sampled Component Spectra: 1
Spectrometers: USB2+H05261
Integration Time (usec): 100000 (USB2+H05261)
Spectra Averaged: 1 (USB2+H05261)
Boxcar Smoothing: 0 (USB2+H05261)
Correct for Electrical Dark: No (USB2+H05261)
Strobe/Lamp Enabled: No (USB2+H05261)
Correct for Detector Non-linearity: No (USB2+H05261)
Correct for Stray Light: No (USB2+H05261)
Number of Pixels in Processed Spectrum: 2048
>>>>>Begin Processed Spectral Data<<<<<
365.73	86.60
365.92	86.60
366.12	86.60
366.32	105.32
366.52	39.79
366.72	60.85
366.91	44.47
367.11	65.54
367.31	7.02
367.51	9.36
367.70	0.00
367.90	46.81
368.10	81.92
368.30	91.28
368.49	0.00
368.69	42.13
368.89	77.24
369.09	42.13
369.28	23.41
369.48	51.49
369.68	60.85
369.87	173.20
370.07	110.01
370.27	105.32
370.47	187.24
370.66	402.57
370.86	383.85
371.06	463.43
371.25	547.69
371.45	491.51
371.65	454.06
371.84	510.24
372.04	468.11
372.24	496.19
372.44	552.37
372.63	472.79
372.83	521.94
373.03	458.74
373.22	528.96
373.42	547.69
373.62	568.75
373.81	578.11
374.01	582.79
374.21	629.60
374.40	554.71
374.60	571.09
374.79	554.71
374.99	613.22
375.19	643.65
375.38	575.77
375.58	540.66
375.78	552.37
375.97	571.09
376.17	585.13
376.37	613.22
376.56	629.60
376.76	657.69
376.95	674.07
377.15	678.76
377.35	664.71
377.54	638.97
377.74	610.88
377.93	617.90
378.13	615.56
378.33	669.39
378.52	669.39
378.72	711.52
378.91	676.41
379.11	709.18
379.31	746.63
379.50	711.52
379.70	688.12
379.89	730.25
380.09	737.27
380.28	653.01
380.48	674.07
380.68	692.80
380.87	662.37
381.07	737.27
381.26	669.39
381.46	732.59
381.65	704.50
381.85	709.18
382.04	711.52
382.24	737.27
382.43	685.78
382.63	702.16
382.83	734.93
383.02	833.23
383.22	734.93
383.41	739.61
383.61	727.91
383.80	711.52
384.00	844.93
384.19	826.21
384.39	870.68
384.58	809.83
384.78	828.55
384.97	880.04
385.17	866.00
385.36	830.89
385.56	767.70
385.75	788.76
385.95	884.72
386.14	840.25
386.34	861.32
386.53	873.02
386.72	851.96
386.92	940.90
387.11	858.98
387.31	889.40
387.50	917.49
387.70	821.53
387.89	940.90
388.09	842.59
388.28	840.25
388.48	1001.75
388.67	936.21
388.86	992.39
389.06	1018.13
389.25	961.96
389.45	1004.09
389.64	964.30
389.84	931.53
390.03	1004.09
390.22	961.96
390.42	980.68
390.61	1118.78
390.81	950.26
391.00	943.24
391.19	1083.67
391.39	1050.90
391.58	1041.54
391.78	1102.39
391.97	1137.50
392.16	999.41
392.36	1039.20
392.55	1034.52
392.75	924.51
392.94	1013.45
393.13	1071.97
393.33	1034.52
393.52	1004.09
393.71	1130.48
393.91	1097.71
394.10	1022.81
394.29	1100.05
394.49	1090.69
394.68	1193.67
394.88	1083.67
395.07	1263.89
395.26	1205.38
395.46	1184.31
395.65	1263.89
395.84	1259.21
396.04	1329.42
396.23	1188.99
396.42	1179.63
396.62	1181.97
396.81	1158.57
397.00	1280.27
397.19	1301.34
397.39	1287.29
397.58	1296.66
397.77	1313.04
397.97	1411.34
398.16	1310.70
398.35	1467.52
398.55	1397.30
398.74	1476.88
398.93	1504.96
399.12	1448.79
399.32	1467.52
399.51	1493.26
399.70	1533.05
399.90	1451.13
400.09	1579.86
400.28	1610.29
400.47	1486.24
400.67	1556.46
400.86	1544.75
401.05	1600.93
401.24	1724.97
401.44	1645.40
401.63	1743.70
401.82	1739.02
402.01	1652.42
402.21	1610.29
402.40	1614.97
402.59	1715.61
402.78	1682.85
402.97	1778.81
403.17	1687.53
403.36	1729.66
403.55	1879.45
403.74	1832.64
403.93	1830.30
404.13	1919.24
404.32	1839.66
404.51	1846.68
404.70	1844.34
404.89	1783.49
405.09	1947.33
405.28	1851.36
405.47	1933.28
405.66	1996.48
405.85	1865.41
406.05	1914.56
406.24	2059.67
406.43	2005.84
406.62	1944.99
406.81	2148.61
407.00	1973.07
407.20	1961.37
407.39	2022.22
407.58	2085.42
407.77	2106.48
407.96	2097.12
408.15	2122.87
408.34	2155.63
408.54	2129.89
408.73	2113.50
408.92	2239.89
409.11	2232.87
409.30	2260.96
409.49	2195.42
409.68	2200.10
409.87	2253.94
410.07	2328.83
410.26	2326.49
410.45	2282.02
410.64	2324.15
410.83	2492.67
411.02	2429.48
411.21	2455.22
411.40	2338.20
411.59	2340.54
411.78	2586.29
411.98	2607.36
412.17	2532.46
412.36	2668.21
412.55	2677.57
412.74	2555.86
412.93	2626.08
413.12	2619.06
413.31	2841.41
413.50	2663.53
413.69	2708.00
413.88	2867.16
414.07	2785.24
414.26	2787.58
414.45	2909.29
414.64	2902.26
414.83	2953.76
415.02	3054.40
415.22	2974.82
415.41	3042.70
415.60	3089.51
415.79	3152.70
415.98	3129.30
416.17	3122.27
416.36	3101.21
416.55	3150.36
416.74	3206.53
416.93	3180.79
417.12	3229.94
417.31	3332.92
417.50	3222.92
417.69	3391.44
417.88	3433.57
418.07	3293.13
418.26	3417.18
418.45	3440.59
418.64	3569.32
418.83	3574.00
419.02	3342.28
419.21	3478.04
419.39	3442.93
419.58	3433.57
419.77	3445.27
419.96	3630.17
420.15	3557.61
420.34	3590.38
420.53	3770.60
420.72	3784.65
420.91	3686.34
421.10	3716.77
421.29	3779.97
421.48	3672.30
421.67	3812.73
421.86	3653.58
422.05	3716.77
422.24	3735.50
422.43	3812.73
422.61	3737.84
422.80	3843.16
422.99	3810.39
423.18	3981.25
423.37	3950.82
423.56	3887.63
423.75	3836.14
423.94	3733.15
424.13	3721.45
424.32	3747.20
424.50	3819.75
424.69	3929.76
424.88	3833.80
425.07	3735.50
425.26	3784.65
425.45	3794.01
425.64	3901.67
425.83	3896.99
426.01	4004.66
426.20	3901.67
426.39	4007.00
426.58	3836.14
426.77	3878.27
426.96	3861.88
427.15	3791.67
427.33	3852.52
427.52	4049.13
427.71	4121.68
427.90	4058.49
428.09	4173.18
428.28	4124.02
428.46	4187.22
428.65	4100.62
428.84	4222.33
429.03	4147.43
429.22	3939.12
429.40	4189.56
429.59	4100.62
429.78	3990.61
429.97	3794.01
430.16	3908.69
430.34	4105.30
430.53	4208.28
430.72	4152.11
430.91	4194.24
431.10	4149.77
431.28	4348.72
431.47	4365.10
431.66	4655.33
431.85	4507.87
432.03	4390.84
432.22	4512.55
432.41	4535.96
432.60	4594.47
432.79	4606.17
432.97	4737.24
433.16	4535.96
433.35	4440.00
433.54	4622.56
433.72	4432.97
433.91	4615.54
434.10	4706.82
434.28	4674.05
434.47	4662.35
434.66	4788.74
434.85	4770.01
435.03	4947.89
435.22	4812.14
435.41	5004.07
435.59	4992.36
435.78	4999.38
435.97	5039.17
436.16	5022.79
436.34	4915.12
436.53	5064.92
436.72	5093.01
436.90	5015.77
437.09	4952.57
437.28	4894.06
437.46	5015.77
437.65	5036.83
437.84	5132.79
438.02	5238.12
438.21	5083.64
438.40	5078.96
438.58	5287.27
438.77	5338.76
438.96	5249.82
439.14	5416.00
439.33	5621.97
439.52	5516.64
439.70	5446.43
439.89	5411.32
440.08	5575.16
440.26	5542.39
440.45	5565.79
440.63	5668.78
440.82	5820.91
441.01	5743.67
441.19	5806.87
441.38	5970.71
441.57	5867.72
441.75	5954.32
441.94	6195.40
442.12	6129.86
442.31	6256.25
442.50	6183.70
442.68	6183.70
442.87	6160.29
443.05	6214.12
443.24	6270.30
443.43	6246.89
443.61	6270.30
443.80	6597.97
443.98	6200.08
444.17	6073.69
444.35	6267.95
444.54	6548.82
444.73	6345.19
444.91	6356.90
445.10	6305.40
445.28	6200.08
445.47	5987.09
445.65	6363.92
445.84	6314.77
446.02	6427.11
446.21	6352.21
446.39	6445.84
446.58	6541.80
446.77	6441.15
446.95	6473.92
447.14	6483.28
447.32	6555.84
447.51	6394.34
447.69	6408.39
447.88	6574.56
448.06	6431.79
448.25	6509.03
448.43	6590.95
448.62	6520.73
448.80	6539.46
448.99	6541.80
449.17	6689.25
449.36	6574.56
449.54	6939.69
449.73	7068.42
449.91	6960.75
450.10	6949.05
450.28	7171.40
450.46	7028.63
450.65	7145.66
450.83	7047.35
451.02	7091.82
451.20	6904.58
451.39	6942.03
451.57	6998.20
451.76	7016.93
451.94	6965.43
452.13	7040.33
452.31	7101.19
452.49	7012.24
452.68	7080.12
452.86	7089.48
453.05	6977.14
453.23	6995.86
453.42	7063.74
453.60	7042.67
453.78	7377.37
453.97	7126.93
454.15	7152.68
454.34	7358.64
454.52	7349.28
454.70	7417.16
454.89	7356.30
455.07	7377.37
455.26	7531.84
455.44	7681.64
455.62	7463.97
455.81	7524.82
455.99	7742.49
456.17	7342.26
456.36	7686.32
456.54	7688.66
456.73	7698.02
456.91	8023.36
457.09	7822.07
457.28	8100.59
457.46	7873.56
457.64	7761.22
457.83	7868.88
458.01	7936.76
458.19	7971.86
458.38	8032.72
458.56	8210.60
458.74	8084.21
458.93	8006.97
459.11	8339.33
459.29	8084.21
459.48	8058.46
459.66	8126.34
459.84	8109.96
460.03	8308.90
460.21	8477.42
460.39	8362.73
460.57	8439.97
460.76	8353.37
460.94	8564.02
461.12	8306.56
461.31	8329.97
461.49	8540.61
461.67	8425.93
461.85	8786.37
462.04	8582.74
462.22	9043.83
462.40	8755.94
462.59	8575.72
462.77	8741.90
462.95	8711.47
463.13	8678.71
463.32	8744.24
463.50	8706.79
463.68	8802.75
463.86	8826.16
464.05	8603.81
464.23	8638.92
464.41	8734.88
464.59	8561.68
464.78	8947.87
464.96	8791.05
465.14	8734.88
465.32	8901.06
465.50	9146.81
465.69	8884.67
465.87	9078.94
466.05	9123.41
466.23	9081.28
466.41	8952.55
466.60	9104.68
466.78	9050.85
466.96	9193.62
467.14	9137.45
467.32	9125.75
467.51	9523.64
467.69	8997.02
467.87	9294.27
468.05	9312.99
468.23	9160.86
468.41	9277.88
468.60	9174.90
468.78	9474.49
468.96	9437.04
469.14	9633.64
469.32	9741.31
469.50	9198.31
469.69	9554.07
469.87	9561.09
470.05	9418.32
470.23	9490.87
470.41	9570.45
470.59	9638.33
470.77	9729.61
470.95	9830.25
471.14	10029.20
471.32	9888.76
471.50	10146.22
471.68	10087.71
471.86	10171.97
472.04	10375.59
472.22	10431.77
472.40	10080.69
472.58	10427.09
472.77	10197.71
472.95	10312.40
473.13	10525.39
473.31	10150.90
473.49	10380.28
473.67	10476.24
473.85	10499.64
474.03	10984.13
474.21	10675.18
474.39	10771.15
474.57	10892.85
474.75	10771.15
474.93	10970.09
475.12	11000.52
475.30	10981.79
475.48	10979.45
475.66	11314.15
475.84	11033.29
476.02	11049.67
476.20	11052.01
476.38	11382.03
476.56	11456.92
476.74	11461.60
476.92	11466.28
477.10	11688.64
477.28	11595.01
477.46	11555.22
477.64	11957.80
477.82	11822.05
478.00	12184.83
478.18	12451.65
478.36	12264.41
478.54	12402.50
478.72	12554.63
478.90	12416.54
479.08	12968.91
479.26	12868.27
479.44	13062.53
479.62	13092.96
479.80	13205.30
479.98	13088.28
480.16	13439.36
480.34	13280.20
480.52	13200.62
480.70	13497.87
480.88	13614.90
481.06	13540.00
481.24	13549.36
481.41	13879.38
481.59	14150.88
481.77	14251.52
481.95	14291.31
482.13	14193.01
482.31	14235.14
482.49	14707.93
482.67	14307.69
482.85	14672.82
483.03	15192.42
483.21	14885.81
483.39	15122.20
483.57	15173.69
483.74	15300.08
483.92	15328.17
484.10	15382.00
484.28	15742.44
484.46	15925.00
484.64	16070.12
484.82	15868.83
485.00	16191.83
485.18	16140.33
485.35	16121.61
485.53	15910.96
485.71	15967.13
485.89	16070.12
486.07	16175.44
486.25	16507.80
486.43	16631.85
486.61	16730.15
486.78	16929.09
486.96	16830.79
487.14	17523.59
487.32	17820.84
487.50	17507.21
487.68	17792.75
487.85	17949.57
488.03	18129.79
488.21	18251.50
488.39	18333.42
488.57	18590.88
488.75	18368.52
488.92	18534.70
489.10	18977.06
489.28	19154.94
489.46	19213.46
489.64	19449.85
489.81	19672.20
489.99	19990.52
490.17	19791.57
490.35	19934.34
490.53	19910.94
490.70	20009.24
490.88	19871.15
491.06	20680.97
491.24	20233.93
491.41	20418.83
491.59	20526.50
491.77	20332.23
491.95	20755.87
492.13	20940.77
492.30	21085.89
492.48	21610.17
492.66	21502.50
492.84	21729.53
493.01	21486.12
493.19	21710.81
493.37	21813.79
493.54	21982.31
493.72	22214.02
493.90	22054.87
494.08	22485.53
494.25	22724.26
494.43	22888.10
494.61	22991.08
494.79	23087.04
494.96	23447.49
495.14	23192.37
495.32	23513.02
495.49	23356.21
495.67	23428.76
495.85	23449.83
496.02	23981.13
496.20	23892.19
496.38	24184.76
496.55	23817.29
496.73	24498.39
496.91	24353.27
497.09	24577.97
497.26	25006.28
497.44	24517.11
497.62	24671.59
497.79	25062.46
497.97	24474.98
498.14	24992.24
498.32	25514.18
498.50	25628.87
498.67	25628.87
498.85	25591.42
499.03	25984.63
499.20	26003.35
499.38	25802.07
499.56	26094.63
499.73	25923.77
499.91	26356.77
500.08	26422.31
500.26	25968.24
500.44	26342.73
500.61	26190.59
500.79	26302.94
500.97	26700.83
501.14	26635.30
501.32	26518.27
501.49	26813.18
501.67	27007.44
501.84	27061.27
502.02	27030.85
502.20	27843.01
502.37	27454.48
502.55	27550.45
502.72	27686.20
502.90	27868.76
503.07	27625.34
503.25	27826.63
503.43	27845.35
503.60	27800.88
503.78	27740.03
503.95	27960.04
504.13	28217.50
504.30	28212.82
504.48	28446.87
504.65	28659.86
504.83	28320.48
505.01	28514.75
505.18	28636.45
505.36	28961.79
505.53	29001.58
505.71	29055.41
505.88	29226.27
506.06	29071.79
506.23	29252.02
506.41	28875.19
506.58	29544.58
506.76	29408.83
506.93	29270.74
507.11	29329.25
507.28	29834.81
507.46	29675.65
507.63	29582.03
507.81	29923.75
507.98	29661.61
508.16	30279.51
508.33	29986.94
508.50	29944.81
508.68	30424.62
508.85	30546.33
509.03	30492.50
509.20	30876.35
509.38	30665.70
509.55	30998.06
509.73	31082.31
509.90	30759.32
510.08	30923.16
510.25	31192.32
510.42	31295.30
510.60	31365.52
510.77	31353.82
510.95	31473.18
511.12	31534.04
511.30	31906.18
511.47	31910.86
511.64	31878.10
511.82	32091.09
511.99	32313.44
512.17	31941.29
512.34	31866.39
512.51	32098.11
512.69	32339.18
512.86	32079.38
513.04	32835.38
513.21	32538.13
513.38	32500.68
513.56	32271.31
513.73	32559.19
513.90	32711.33
514.08	32601.32
514.25	33001.55
514.43	32940.70
514.60	32563.87
514.77	32666.86
514.95	33429.87
515.12	33394.76
515.29	33158.37
515.47	33752.87
515.64	33670.95
515.81	33795.00
515.99	33259.01
516.16	33455.62
516.33	33336.25
516.51	33731.80
516.68	32987.51
516.85	32816.65
517.03	33422.85
517.20	33717.76
517.37	34141.39
517.54	34015.01
517.72	34066.50
517.89	34216.29
518.06	33928.41
518.24	34150.76
518.41	34075.86
518.58	34438.64
518.75	34183.52
518.93	35215.70
519.10	34553.33
519.27	34583.76
519.45	34920.79
519.62	35124.42
519.79	35288.26
519.96	35557.42
520.14	35297.62
520.31	34852.92
520.48	35194.64
520.65	35384.22
520.83	35658.06
521.00	35524.65
521.17	35775.09
521.34	35721.26
521.52	35477.84
521.69	35924.88
521.86	36133.19
522.03	35667.42
522.20	36100.42
522.38	36261.92
522.55	36222.13
522.72	35950.63
522.89	36432.78
523.07	36311.07
523.24	36217.45
523.41	36725.35
523.58	36652.79
523.75	37053.02
523.92	37106.85
524.10	36844.71
524.27	36666.83
524.44	36893.86
524.61	37029.62
524.78	37020.25
524.96	37209.84
525.13	37041.32
525.30	37769.22
525.47	38019.66
525.64	37170.05
525.81	37198.13
525.98	37392.40
526.16	37343.25
526.33	37022.59
526.50	37483.68
526.67	37315.16
526.84	37233.24
527.01	37413.46
527.18	37673.26
527.36	38036.05
527.53	38155.41
527.70	38696.08
527.87	38258.40
528.04	37963.49
528.21	38260.74
528.38	38279.46
528.55	38686.71
528.72	38270.10
528.89	38873.96
529.07	38312.23
529.24	38064.13
529.41	38876.30
529.58	38106.26
529.75	38595.43
529.92	38298.19
530.09	38447.98
530.26	39288.23
530.43	39295.25
530.60	38785.02
530.77	38333.29
530.94	39082.27
531.11	39316.32
531.28	38621.18
531.46	39232.06
531.63	39494.20
531.80	39175.89
531.97	39206.31
532.14	39227.38
532.31	38813.10
532.48	39175.89
532.65	39571.44
532.82	39536.33
532.99	39854.64
533.16	39321.00
533.33	39814.85
533.50	40327.43
533.67	39335.04
533.84	39763.36
534.01	39978.69
534.18	40044.23
534.35	40140.19
534.52	40018.48
534.69	40350.84
534.86	40252.53
535.03	40151.89
535.20	40156.57
535.37	40701.92
535.54	40528.72
535.71	40362.54
535.88	40402.33
536.05	39981.03
536.22	40900.86
536.38	40465.52
536.55	40631.70
536.72	40526.38
536.89	40046.57
537.06	40741.71
537.23	40912.56
537.40	40856.39
537.57	40722.98
537.74	40505.31
537.91	40919.59
538.08	41509.40
538.25	40769.79
538.42	40793.20
538.59	41469.61
538.75	40538.08
538.92	41083.42
539.09	41212.15
539.26	41060.02
539.43	41179.39
539.60	41069.38
539.77	41312.80
539.94	41530.47
540.11	41160.66
540.28	41123.21
540.44	41366.63
540.61	41677.92
540.78	41443.87
540.95	41443.87
541.12	41366.63
541.29	41610.04
541.46	41752.82
541.62	41359.61
541.79	42073.47
541.96	41478.97
542.13	41537.49
542.30	42136.66
542.47	42113.26
542.63	42021.98
542.80	42021.98
542.97	42562.64
543.14	42642.22
543.31	42373.06
543.48	42419.87
543.64	43072.88
543.81	42459.66
543.98	42380.08
544.15	42609.45
544.32	42473.70
544.48	42885.64
544.65	42974.58
544.82	43042.45
544.99	42691.37
545.16	42960.53
545.32	42302.84
545.49	42993.30
545.66	43330.34
545.83	43290.55
546.00	43201.61
546.16	43044.79
546.33	42981.60
546.50	42335.61
546.67	42696.05
546.83	42913.72
547.00	43093.94
547.17	43194.59
547.34	43157.14
547.50	43110.33
547.67	43452.05
547.84	43161.82
548.00	43892.07
548.17	43725.89
548.34	43594.82
548.51	43608.86
548.67	43648.65
548.84	43959.94
549.01	43328.00
549.18	43695.46
549.34	43838.23
549.51	43885.04
549.68	43990.37
549.84	43966.96
550.01	44016.11
550.18	43447.36
550.34	43264.80
550.51	43702.48
550.68	43941.22
550.84	43381.83
551.01	43791.42
551.18	43887.39
551.34	43957.60
551.51	43959.94
551.68	43807.81
551.84	44390.60
552.01	43990.37
552.18	44147.18
552.34	44362.51
552.51	44481.88
552.68	43882.70
552.84	44526.35
553.01	44645.72
553.18	44533.37
553.34	44381.24
553.51	44388.26
553.67	44570.82
553.84	44744.02
554.01	44612.95
554.17	45132.55
554.34	44601.25
554.51	44694.87
554.67	44711.25
554.84	44746.36
555.00	44528.69
555.17	44741.68
555.33	45165.32
555.50	44734.66
555.67	44502.95
555.83	44624.65
556.00	44926.58
556.16	45088.08
556.33	45198.09
556.50	44648.06
556.66	44907.86
556.83	44781.47
556.99	45139.57
557.16	45097.44
557.32	45048.29
557.49	45326.81
557.65	44762.75
557.82	44765.09
557.98	45027.23
558.15	45123.19
558.32	45495.33
558.48	44882.11
558.65	44982.76
558.81	45043.61
558.98	44865.73
559.14	45048.29
559.31	44889.13
559.47	45102.12
559.64	45434.48
559.80	45797.26
559.97	45748.11
560.13	45153.62
560.30	45305.75
560.46	45766.84
560.63	45258.94
560.79	45485.97
560.96	45682.58
561.12	45787.90
561.29	45251.92
561.45	45179.36
561.61	45593.64
561.78	45556.19
561.94	45443.84
562.11	45535.12
562.27	45380.65
562.44	45471.93
562.60	45675.55
562.77	45577.25
562.93	45331.50
563.10	45378.31
563.26	45195.74
563.42	45326.81
563.59	45010.84
563.75	45701.30
563.92	45804.28
564.08	45984.51
564.24	45975.14
564.41	45986.85
564.57	45485.97
564.74	45893.22
564.90	45661.51
565.07	46106.21
565.23	45645.13
565.39	45567.89
565.56	45415.76
565.72	45621.72
565.88	45607.68
566.05	45907.27
566.21	45638.11
566.38	45312.77
566.54	45485.97
566.70	46293.46
566.87	46099.19
567.03	45757.47
567.19	46153.02
567.36	46031.32
567.52	46012.59
567.68	45804.28
567.85	45710.66
568.01	46045.36
568.17	45858.12
568.34	45591.30
568.50	46089.83
568.66	45769.18
568.83	46078.13
568.99	45785.56
569.15	45785.56
569.32	45443.84
569.48	45284.68
569.64	45911.95
569.81	46047.70
569.97	45855.78
570.13	45982.16
570.30	45619.38
570.46	45820.67
570.62	45713.00
570.78	45598.32
570.95	45633.42
571.11	45998.55
571.27	45991.53
571.43	45731.73
571.60	46251.33
571.76	45617.04
571.92	46019.61
572.09	45961.10
572.25	46225.58
572.41	46515.81
572.57	45677.90
572.74	46431.55
572.90	46064.08
573.06	46415.16
573.22	46424.53
573.38	46567.30
573.55	46380.06
573.71	46700.71
573.87	45979.82
574.03	45745.77
574.20	46155.36
574.36	45659.17
574.52	46143.66
574.68	45869.82
574.84	46136.64
575.01	45928.33
575.17	45897.91
575.33	45642.79
575.49	45584.27
575.65	46150.68
575.82	46373.03
575.98	46265.37
576.14	46419.84
576.30	46611.77
576.46	46169.41
576.62	46129.62
576.79	45918.97
576.95	45827.69
577.11	46167.07
577.27	46307.50
577.43	46209.20
577.59	45937.69
577.75	46220.90
577.92	45624.06
578.08	45764.49
578.24	45525.76
578.40	46197.49
578.56	46415.16
578.72	46153.02
578.88	46260.69
579.04	46000.89
579.21	46241.96
579.37	46080.47
579.53	46202.18
579.69	45801.94
579.85	46330.90
580.01	46555.60
580.17	46061.74
580.33	46569.64
580.49	46202.18
580.65	45895.56
580.82	46506.44
580.98	46141.32
581.14	45748.11
581.30	46555.60
581.46	46281.75
581.62	46017.27
581.78	45776.20
581.94	47215.63
582.10	46162.39
582.26	46429.21
582.42	46167.07
582.58	46136.64
582.74	45876.84
582.90	46291.12
583.06	46419.84
583.22	46487.72
583.38	46082.81
583.54	46251.33
583.70	46026.63
583.86	46073.45
584.02	45858.12
584.18	46459.63
584.34	46288.77
584.50	46197.49
584.66	46309.84
584.82	46181.11
584.98	46405.80
585.14	46113.23
585.30	46103.87
585.46	46087.49
585.62	46251.33
585.78	45914.29
585.94	46192.81
586.10	46202.18
586.26	46279.41
586.42	46749.86
586.58	46408.14
586.74	46644.54
586.90	46361.33
587.06	46028.98
587.22	46197.49
587.38	46136.64
587.54	46717.09
587.70	46199.83
587.86	46398.78
588.02	46593.04
588.18	46419.84
588.34	46377.72
588.49	45893.22
588.65	45853.44
588.81	45853.44
588.97	45895.56
589.13	45713.00
589.29	46157.70
589.45	46241.96
589.61	46057.06
589.77	46497.08
589.93	46225.58
590.08	46511.13
590.24	46150.68
590.40	46440.91
590.56	46763.90
590.72	46129.62
590.88	46045.36
591.04	46576.66
591.20	46684.33
591.35	46630.49
591.51	46679.64
591.67	46237.28
591.83	46419.84
591.99	46450.27
592.15	46445.59
592.31	46588.36
592.46	46443.25
592.62	46204.52
592.78	46667.94
592.94	46508.79
593.10	46377.72
593.26	46576.66
593.41	46054.72
593.57	46782.63
593.73	46543.89
593.89	46272.39
594.05	46497.08
594.20	46611.77
594.36	46873.91
594.52	46241.96
594.68	46562.62
594.84	46749.86
594.99	47000.30
595.15	46412.82
595.31	46883.27
595.47	46054.72
595.62	46251.33
595.78	46946.47
595.94	46941.78
596.10	46670.28
596.25	46667.94
596.41	46759.22
596.57	46623.47
596.73	46768.58
596.88	46024.29
597.04	46576.66
597.20	46993.28
597.36	46829.44
597.51	46665.60
597.67	46569.64
597.83	46883.27
597.99	46934.76
598.14	46461.97
598.30	46649.22
598.46	46405.80
598.61	46630.49
598.77	46206.86
598.93	46703.05
599.09	46487.72
599.24	47065.83
599.40	46632.83
599.56	46946.47
599.71	46836.46
599.87	46803.69
600.03	46885.61
600.18	46473.68
600.34	46953.49
600.50	46270.05
600.65	46614.11
600.81	46803.69
600.97	46693.69
601.12	46997.96
601.28	46873.91
601.44	46658.58
601.59	46553.26
601.75	46267.71
601.91	46307.50
602.06	46417.50
602.22	46635.17
602.37	46298.14
602.53	46897.31
602.69	47021.36
602.84	46913.70
603.00	46761.56
603.16	46571.98
603.31	46333.24
603.47	46532.19
603.62	46302.82
603.78	46454.95
603.94	46621.13
604.09	46827.10
604.25	47075.19
604.40	46649.22
604.56	46604.75
604.71	46845.82
604.87	46183.45
605.03	46550.91
605.18	46382.40
605.34	46724.11
605.49	46382.40
605.65	46307.50
605.80	46579.00
605.96	46272.39
606.12	46796.67
606.27	46609.43
606.43	46335.59
606.58	46885.61
606.74	46342.61
606.89	46000.89
607.05	46497.08
607.20	46485.38
607.36	46401.12
607.51	46543.89
607.67	46394.10
607.82	46363.67
607.98	46419.84
608.13	46202.18
608.29	45872.16
608.44	45897.91
608.60	45727.05
608.75	45890.88
608.91	46131.96
609.06	45937.69
609.22	46450.27
609.37	45968.12
609.53	46244.30
609.68	46206.86
609.84	46106.21
609.99	46218.56
610.15	45961.10
610.30	46391.76
610.46	45691.94
610.61	46265.37
610.76	46120.26
610.92	46211.54
611.07	45785.56
611.23	46216.22
611.38	45970.46
611.54	45701.30
611.69	45226.17
611.84	45694.28
612.00	45947.06
612.15	45745.77
612.31	45759.81
612.46	45797.26
612.62	46087.49
612.77	45862.80
612.92	46073.45
613.08	45703.64
613.23	45757.47
613.39	45371.28
613.54	45757.47
613.69	45361.92
613.85	45710.66
614.00	45923.65
614.15	45464.91
614.31	46003.23
614.46	45867.48
614.62	45439.16
614.77	45357.24
614.92	45460.23
615.08	45642.79
615.23	45464.91
615.38	45588.95
615.54	45104.46
615.69	45385.33
615.84	44818.92
616.00	45184.04
616.15	45074.04
616.30	45558.53
616.46	44947.65
616.61	44790.83
616.76	45186.38
616.92	45006.16
617.07	44715.93
617.22	44870.41
617.37	44919.56
617.53	45123.19
617.68	45258.94
617.83	45680.24
617.99	44973.39
618.14	45139.57
618.29	45177.02
618.45	44954.67
618.60	44978.07
618.75	44898.50
618.90	44601.25
619.06	45120.85
619.21	44968.71
619.36	44982.76
619.51	44952.33
619.67	45134.89
619.82	45013.18
619.97	45177.02
620.12	44514.65
620.28	44315.70
620.43	44474.86
620.58	44594.23
620.73	44807.22
620.89	44622.31
621.04	44421.03
621.19	44584.86
621.34	44423.37
621.49	44486.56
621.65	44346.13
621.80	44725.30
621.95	44287.62
622.10	44481.88
622.25	44648.06
622.41	43901.43
622.56	44100.37
622.71	44659.76
622.86	44414.01
623.01	44219.74
623.16	44821.26
623.32	44404.64
623.47	44514.65
623.62	44531.03
623.77	44163.57
623.92	44292.30
624.07	43948.24
624.23	43831.21
624.38	44032.50
624.53	43948.24
624.68	44292.30
624.83	44233.78
624.98	44128.46
625.13	43676.74
625.29	43618.22
625.44	43704.82
625.59	43920.15
625.74	43288.21
625.89	43349.06
626.04	42895.00
626.19	43536.30
626.34	43744.61
626.49	43014.37
626.65	43697.80
626.80	43800.79
626.95	43335.02
627.10	43571.41
627.25	43009.68
627.40	43009.68
627.55	42773.29
627.70	42398.80
627.85	43019.05
628.00	43522.26
628.15	42960.53
628.30	42616.47
628.45	43536.30
628.60	43112.67
628.76	43426.30
628.91	43182.88
629.06	43215.65
629.21	42890.32
629.36	42780.31
629.51	42937.13
629.66	43131.39
629.81	42307.52
629.96	42951.17
630.11	42590.73
630.26	43643.97
630.41	42855.21
630.56	42836.48
630.71	42518.17
630.86	42536.90
631.01	41780.90
631.16	42684.35
631.31	42520.51
631.46	42295.82
631.61	42724.14
631.76	42382.42
631.91	42710.10
632.06	42492.43
632.21	42525.19
632.36	42682.01
632.51	42450.30
632.66	42784.99
632.81	42178.79
632.96	42438.59
633.10	41619.41
633.25	41961.12
633.40	42403.49
633.55	42284.12
633.70	42394.12
633.85	42319.23
634.00	42078.15
634.15	41797.29
634.30	42073.47
634.45	42197.52
634.60	42131.98
634.75	41673.24
634.90	42284.12
635.05	42075.81
635.19	41804.31
635.34	42433.91
635.49	41624.09
635.64	41930.70
635.79	41549.19
635.94	41970.49
636.09	41930.70
636.24	41736.43
636.39	41366.63
636.53	41954.10
636.68	41940.06
636.83	41544.51
636.98	41579.62
637.13	41588.98
637.28	41668.56
637.43	41816.01
637.57	41958.78
637.72	41881.55
637.87	41247.26
638.02	41368.97
638.17	41766.86
638.32	41390.03
638.46	41404.08
638.61	41277.69
638.76	41303.43
638.91	41696.64
639.06	41195.77
639.20	41420.46
639.35	41406.42
639.50	41057.68
639.65	41813.67
639.80	41701.32
639.94	41200.45
640.09	41001.50
640.24	41053.00
640.39	40980.44
640.54	40935.97
640.68	40517.01
640.83	40818.94
640.98	40587.23
641.13	40786.18
641.27	40982.78
641.42	40648.08
641.57	41027.25
641.72	40587.23
641.86	40498.29
642.01	40622.34
642.16	40547.44
642.31	39791.45
642.45	40858.73
642.60	40079.33
642.75	40282.96
642.90	40383.60
643.04	40215.08
643.19	40692.55
643.34	40453.82
643.48	40608.29
643.63	40666.81
643.78	39861.66
643.93	40250.19
644.07	39885.07
644.22	40226.79
644.37	40069.97
644.51	40266.58
644.66	40308.71
644.81	40343.81
644.95	40409.35
645.10	40238.49
645.25	40428.07
645.39	40182.32
645.54	40456.16
645.69	40360.20
645.83	40187.00
645.98	40119.12
646.13	40105.08
646.27	39587.82
646.42	39449.73
646.57	40142.53
646.71	39962.31
646.86	39906.13
647.00	39927.20
647.15	39917.84
647.30	39908.47
647.44	39849.96
647.59	39997.41
647.74	39653.36
647.88	39562.08
648.03	39323.34
648.17	39866.34
648.32	39290.57
648.47	39192.27
648.61	39480.16
648.76	39875.71
648.90	39384.19
649.05	39828.90
649.20	39576.12
649.34	39779.74
649.49	39454.41
649.63	39412.28
649.78	39566.76
649.92	39292.91
650.07	39510.58
650.21	39222.70
650.36	39283.55
650.51	38934.81
650.65	39739.96
650.80	39138.44
650.94	39571.44
651.09	39440.37
651.23	39433.35
651.38	38965.24
651.52	38796.72
651.67	39299.94
651.81	38721.82
651.96	39023.75
652.10	38698.42
652.25	38511.17
652.39	39061.20
652.54	39332.70
652.68	39040.14
652.83	39210.99
652.97	39089.29
653.12	38944.17
653.26	38885.66
653.41	39105.67
653.55	38644.59
653.70	38433.94
653.84	38494.79
653.99	38789.70
654.13	38417.55
654.27	38504.15
654.42	38590.75
654.56	38174.14
654.71	38808.42
654.85	38803.74
655.00	37912.00
655.14	38335.63
655.29	37874.55
655.43	37841.78
655.57	38068.81
655.72	37558.58
655.86	38033.71
656.01	37708.37
656.15	37610.07
656.30	37699.01
656.44	38230.31
656.58	37628.79
656.73	37542.19
656.87	37689.65
657.01	37743.48
657.16	37773.91
657.30	37453.25
657.45	37097.49
657.59	37539.85
657.73	37420.48
657.88	37890.93
658.02	37734.12
658.16	37368.99
658.31	38010.30
658.45	37979.87
658.60	37846.46
658.74	37659.22
658.88	37586.66
659.03	37455.59
659.17	37167.71
659.31	37467.30
659.46	37144.30
659.60	37652.20
659.74	37881.57
659.89	36769.82
660.03	37102.17
660.17	37483.68
660.32	37062.38
660.46	37137.28
660.60	37390.06
660.74	37361.97
660.89	37191.11
661.03	36605.98
661.17	36559.17
661.32	36257.24
661.46	36800.24
661.60	36617.68
661.74	36629.38
661.89	36498.31
662.03	36924.29
662.17	36493.63
662.31	36715.98
662.46	36514.70
662.60	36573.21
662.74	36486.61
662.88	36451.50
663.03	36449.16
663.17	36257.24
663.31	36332.14
663.45	36364.90
663.60	36154.26
663.74	35842.96
663.88	36070.00
664.02	35632.32
664.17	35983.40
664.31	35510.61
664.45	35739.98
664.59	36182.34
664.73	35449.75
664.88	36123.83
665.02	35873.39
665.16	35934.24
665.30	35519.97
665.44	35332.73
665.59	35199.32
665.73	35414.65
665.87	35374.86
666.01	35255.49
666.15	34920.79
666.29	35138.46
666.44	35402.94
666.58	34724.19
666.72	35206.34
666.86	35613.59
667.00	35372.52
667.14	34792.06
667.28	34220.97
667.43	34375.45
667.57	34696.10
667.71	34649.29
667.85	35166.55
667.99	34225.65
668.13	33963.51
668.27	34117.99
668.41	34490.13
668.56	33675.63
668.70	34487.79
668.84	34022.03
668.98	34115.65
669.12	34382.47
669.26	34340.34
669.40	33507.11
669.54	34199.91
669.68	34181.18
669.82	33645.20
669.96	33647.54
670.10	33621.80
670.25	33965.85
670.39	33708.40
670.53	33502.43
670.67	33603.07
670.81	33680.31
670.95	33387.74
671.09	33582.01
671.23	33638.18
671.37	33434.55
671.51	33102.20
671.65	32978.15
671.79	33029.64
671.93	32921.98
672.07	32844.74
672.21	32634.09
672.35	32769.84
672.49	32779.20
672.63	32744.09
672.77	32783.88
672.91	32594.30
673.05	32116.83
673.19	32219.81
673.33	32643.45
673.47	32114.49
673.61	32444.51
673.75	31620.64
673.89	32142.58
674.03	31583.19
674.17	31707.24
674.31	31611.28
674.45	31779.79
674.59	31674.47
674.73	32283.01
674.87	31693.19
675.01	31517.65
675.15	31723.62
675.29	32063.00
675.43	31431.05
675.56	31409.99
675.70	31225.09
675.84	31035.50
675.98	30239.72
676.12	30679.74
676.26	30721.87
676.40	30607.19
676.54	30824.86
676.68	30569.74
676.82	30181.21
676.96	30228.02
677.10	30424.62
677.23	30005.67
677.37	30256.11
677.51	29708.42
677.65	30059.50
677.79	29750.55
677.93	29603.10
678.07	29708.42
678.21	29294.14
678.34	29544.58
678.48	29308.19
678.62	29326.91
678.76	28807.31
678.90	29083.50
679.04	29123.29
679.18	28987.53
679.31	29001.58
679.45	28713.69
679.59	28762.84
679.73	28364.95
679.87	28496.02
680.00	28575.60
680.14	28149.62
680.28	28105.15
680.42	28460.91
680.56	28023.23
680.70	28060.68
680.83	28114.52
680.97	27688.54
681.11	27716.62
681.25	27697.90
681.39	27358.52
681.52	27721.30
681.66	27611.30
681.80	27489.59
681.94	27601.94
682.07	27281.28
682.21	27061.27
682.35	26913.82
682.49	26960.63
682.62	26799.13
682.76	26663.38
682.90	26302.94
683.04	26735.94
683.17	26661.04
683.31	26377.84
683.45	26410.60
683.59	26258.47
683.72	25970.58
683.86	25893.35
684.00	25647.59
684.13	26335.71
684.27	26171.87
684.41	25706.10
684.55	25413.54
684.68	25523.54
684.82	25057.78
684.96	25193.53
685.09	25078.84
685.23	25455.67
685.37	24540.52
685.50	25462.69
685.64	24805.00
685.78	24662.22
685.91	25017.99
686.05	24805.00
686.19	24341.57
686.32	24713.72
686.46	24041.98
686.60	23920.28
686.73	24107.52
686.87	23592.60
687.01	23660.48
687.14	23424.08
687.28	23601.96
687.42	23583.24
687.55	23513.02
687.69	23580.90
687.82	23295.35
687.96	23171.30
688.10	23047.26
688.23	22988.74
688.37	23171.30
688.50	22810.86
688.64	22686.81
688.78	22625.96
688.91	22349.78
689.05	22635.32
689.18	22590.85
689.32	22092.32
689.46	22136.79
689.59	22539.36
689.73	22635.32
689.86	22455.10
690.00	22277.22
690.13	22279.56
690.27	22029.12
690.41	21785.71
690.54	21504.84
690.68	21720.17
690.81	21357.39
690.95	21476.76
691.08	21589.10
691.22	21355.05
691.35	21465.05
691.49	21425.26
691.62	21443.99
691.76	21542.29
691.89	21413.56
692.03	21275.47
692.16	20793.32
692.30	20568.63
692.43	20772.25
692.57	20589.69
692.70	20683.31
692.84	20451.60
692.97	20479.69
693.11	20568.63
693.24	19948.39
693.38	20201.16
693.51	20107.54
693.65	20070.09
693.78	19791.57
693.92	19833.70
694.05	19803.27
694.19	19599.65
694.32	19585.60
694.45	20006.90
694.59	19531.77
694.72	19028.56
694.86	19335.17
694.99	18981.74
695.13	18860.04
695.26	19026.21
695.39	18796.84
695.53	18838.97
695.66	18656.41
695.80	18827.27
695.93	18675.13
696.07	18764.07
696.20	18401.29
696.33	18743.01
696.47	18214.05
696.60	18366.18
696.73	18391.93
696.87	18279.58
697.00	17998.72
697.14	18129.79
697.27	17841.90
697.40	17830.20
697.54	17682.75
697.67	17769.35
697.80	17446.35
697.94	17631.26
698.07	17429.97
698.21	17322.30
698.34	17481.46
698.47	17315.28
698.61	17027.40
698.74	17025.06
698.87	17228.68
699.01	16465.67
699.14	16603.76
699.27	16938.46
699.40	16922.07
699.54	16379.07
699.67	16496.10
699.80	16519.50
699.94	16390.77
700.07	16521.84
700.20	16395.45
700.34	16088.84
700.47	15995.22
700.60	16126.29
700.73	16570.99
700.87	16156.72
701.00	16084.16
701.13	15719.04
701.26	15836.06
701.40	15740.10
701.53	15683.93
701.66	15307.10
701.79	15344.55
701.93	15325.83
702.06	15482.64
702.19	15328.17
702.32	15119.86
702.46	14918.57
702.59	14876.44
702.72	15119.86
702.85	15026.24
702.99	15096.46
703.12	15279.02
703.25	15019.22
703.38	14679.84
703.51	14532.39
703.65	14736.01
703.78	14640.05
703.91	14569.83
704.04	14539.41
704.17	14553.45
704.31	14431.74
704.44	14092.37
704.57	14087.68
704.70	14176.62
704.83	13886.40
704.96	13980.02
705.10	14153.22
705.23	13862.99
>>>>>End Processed Spectral Data<<<<<
