SpectraSuite Data File
++++++++++++++++++++++++++++++++++++
Date: Fri Oct 25 10:43:17 EDT 2013
User: price-jones
Dark Spectrum Present: No
Reference Spectrum Present: No
Number of Sampled Component Spectra: 1
Spectrometers: USB2+H05261
Integration Time (usec): 100000 (USB2+H05261)
Spectra Averaged: 1 (USB2+H05261)
Boxcar Smoothing: 0 (USB2+H05261)
Correct for Electrical Dark: No (USB2+H05261)
Strobe/Lamp Enabled: No (USB2+H05261)
Correct for Detector Non-linearity: No (USB2+H05261)
Correct for Stray Light: No (USB2+H05261)
Number of Pixels in Processed Spectrum: 2048
>>>>>Begin Processed Spectral Data<<<<<
365.73	194.26
365.92	194.26
366.12	194.26
366.32	65.54
366.52	9.36
366.72	16.38
366.91	0.00
367.11	74.90
367.31	67.88
367.51	16.38
367.70	11.70
367.90	117.03
368.10	0.00
368.30	0.00
368.49	0.00
368.69	37.45
368.89	14.04
369.09	9.36
369.28	102.98
369.48	65.54
369.68	18.72
369.87	23.41
370.07	30.43
370.27	70.22
370.47	135.75
370.66	393.21
370.86	337.04
371.06	514.92
371.25	470.45
371.45	402.57
371.65	465.77
371.84	393.21
372.04	503.22
372.24	510.24
372.44	484.49
372.63	547.69
372.83	510.24
373.03	430.66
373.22	449.38
373.42	475.13
373.62	552.37
373.81	592.16
374.01	603.86
374.21	589.82
374.40	510.24
374.60	594.50
374.79	482.15
374.99	596.84
375.19	559.39
375.38	608.54
375.58	517.26
375.78	615.56
375.97	631.94
376.17	671.73
376.37	627.26
376.56	559.39
376.76	631.94
376.95	606.20
377.15	636.63
377.35	641.31
377.54	695.14
377.74	643.65
377.93	617.90
378.13	660.03
378.33	695.14
378.52	671.73
378.72	638.97
378.91	692.80
379.11	557.05
379.31	657.69
379.50	650.67
379.70	690.46
379.89	688.12
380.09	653.01
380.28	589.82
380.48	695.14
380.68	692.80
380.87	755.99
381.07	678.76
381.26	669.39
381.46	664.71
381.65	767.70
381.85	702.16
382.04	660.03
382.24	805.14
382.43	671.73
382.63	706.84
382.83	716.20
383.02	753.65
383.22	709.18
383.41	697.48
383.61	770.04
383.80	791.10
384.00	723.23
384.19	744.29
384.39	744.29
384.58	737.27
384.78	870.68
384.97	795.78
385.17	763.01
385.36	770.04
385.56	781.74
385.75	748.97
385.95	877.70
386.14	842.59
386.34	849.61
386.53	854.30
386.72	868.34
386.92	844.93
387.11	835.57
387.31	812.17
387.50	880.04
387.70	814.51
387.89	863.66
388.09	833.23
388.28	854.30
388.48	873.02
388.67	891.74
388.86	929.19
389.06	1029.84
389.25	1050.90
389.45	896.43
389.64	1001.75
389.84	968.98
390.03	973.66
390.22	1015.79
390.42	1060.26
390.61	999.41
390.81	999.41
391.00	1006.43
391.19	1139.84
391.39	1100.05
391.58	1055.58
391.78	978.34
391.97	1100.05
392.16	1067.28
392.36	1104.73
392.55	978.34
392.75	990.05
392.94	915.15
393.13	938.55
393.33	1083.67
393.52	1036.86
393.71	1097.71
393.91	1078.99
394.10	1083.67
394.29	1252.19
394.49	1221.76
394.68	1205.38
394.88	1200.69
395.07	1294.32
395.26	1198.35
395.46	1221.76
395.65	1165.59
395.84	1247.51
396.04	1315.38
396.23	1221.76
396.42	1156.22
396.62	1163.25
396.81	1172.61
397.00	1238.14
397.19	1376.24
397.39	1317.72
397.58	1383.26
397.77	1357.51
397.97	1315.38
398.16	1418.36
398.35	1554.12
398.55	1434.75
398.74	1476.88
398.93	1556.46
399.12	1483.90
399.32	1479.22
399.51	1469.86
399.70	1591.56
399.90	1537.73
400.09	1612.63
400.28	1617.31
400.47	1607.95
400.67	1713.27
400.86	1643.06
401.05	1537.73
401.24	1654.76
401.44	1582.20
401.63	1598.59
401.82	1720.29
402.01	1713.27
402.21	1708.59
402.40	1708.59
402.59	1734.34
402.78	1696.89
402.97	1605.61
403.17	1750.72
403.36	1858.39
403.55	1797.53
403.74	1818.60
403.93	1867.75
404.13	1884.13
404.32	1834.98
404.51	1816.26
404.70	1970.73
404.89	1893.49
405.09	1987.11
405.28	1947.33
405.47	1994.14
405.66	1881.79
405.85	2054.99
406.05	1933.28
406.24	1954.35
406.43	2010.52
406.62	1987.11
406.81	2071.37
407.00	2043.29
407.20	2019.88
407.39	2064.35
407.58	2111.16
407.77	2143.93
407.96	2113.50
408.15	2160.31
408.34	2265.64
408.54	2169.68
408.73	2307.77
408.92	2277.34
409.11	2209.47
409.30	2310.11
409.49	2300.75
409.68	2256.28
409.87	2298.41
410.07	2361.60
410.26	2331.17
410.45	2368.62
410.64	2385.01
410.83	2502.03
411.02	2448.20
411.21	2640.12
411.40	2525.44
411.59	2548.84
411.78	2593.31
411.98	2532.46
412.17	2637.78
412.36	2569.91
412.55	2612.04
412.74	2675.23
412.93	2754.81
413.12	2747.79
413.31	2874.18
413.50	2822.69
413.69	2939.71
413.88	2867.16
414.07	2846.09
414.26	2930.35
414.45	3030.99
414.64	2939.71
414.83	2942.05
415.02	3007.59
415.22	2958.44
415.41	2956.10
415.60	2979.50
415.79	3082.49
415.98	3176.11
416.17	3241.64
416.36	3272.07
416.55	3218.24
416.74	3251.00
416.93	3243.98
417.12	3293.13
417.31	3311.86
417.50	3295.47
417.69	3389.10
417.88	3389.10
418.07	3356.33
418.26	3396.12
418.45	3265.05
418.64	3384.41
418.83	3485.06
419.02	3616.13
419.21	3503.78
419.39	3559.95
419.58	3632.51
419.77	3501.44
419.96	3574.00
420.15	3660.60
420.34	3702.73
420.53	3709.75
420.72	3728.47
420.91	3693.37
421.10	3660.60
421.29	3852.52
421.48	3854.86
421.67	3929.76
421.86	3791.67
422.05	3838.48
422.24	3723.79
422.43	3887.63
422.61	3810.39
422.80	3859.54
422.99	3810.39
423.18	3950.82
423.37	3969.55
423.56	3999.98
423.75	3911.04
423.94	3789.33
424.13	3712.09
424.32	3805.71
424.50	3889.97
424.69	3990.61
424.88	4049.13
425.07	3953.16
425.26	3871.25
425.45	3901.67
425.64	3885.29
425.83	4056.15
426.01	4030.40
426.20	4011.68
426.39	3817.41
426.58	3969.55
426.77	3838.48
426.96	3997.64
427.15	3990.61
427.33	3946.14
427.52	3904.01
427.71	4098.28
427.90	4100.62
428.09	3997.64
428.28	4210.62
428.46	4084.23
428.65	4152.11
428.84	4259.78
429.03	4227.01
429.22	4063.17
429.40	4191.90
429.59	4114.66
429.78	3925.08
429.97	3871.25
430.16	3925.08
430.34	3969.55
430.53	4170.83
430.72	4016.36
430.91	4208.28
431.10	4238.71
431.28	4493.83
431.47	4599.15
431.66	4514.89
431.85	4592.13
432.03	4507.87
432.22	4739.58
432.41	4542.98
432.60	4847.25
432.79	4739.58
432.97	4880.02
433.16	4795.76
433.35	4535.96
433.54	4538.30
433.72	4510.21
433.91	4650.64
434.10	4648.30
434.28	4676.39
434.47	4868.31
434.66	4889.38
434.85	4849.59
435.03	4891.72
435.22	4795.76
435.41	5039.17
435.59	4905.76
435.78	5118.75
435.97	5128.11
436.16	5139.82
436.34	5071.94
436.53	5104.71
436.72	5268.55
436.90	4992.36
437.09	5151.52
437.28	5151.52
437.46	5266.21
437.65	5055.56
437.84	5167.90
438.02	5118.75
438.21	5205.35
438.40	5076.62
438.58	5277.91
438.77	5350.46
438.96	5298.97
439.14	5685.16
439.33	5523.66
439.52	5596.22
439.70	5708.57
439.89	5664.10
440.08	5535.37
440.26	5738.99
440.45	5589.20
440.63	5769.42
440.82	5956.66
441.01	5891.13
441.19	6010.50
441.38	6031.56
441.57	5991.77
441.75	6148.59
441.94	6218.80
442.12	6083.05
442.31	6274.98
442.50	6326.47
442.68	6181.35
442.87	6197.74
443.05	6282.00
443.24	6319.45
443.43	6506.69
443.61	6567.54
443.80	6532.44
443.98	6368.60
444.17	6244.55
444.35	6356.90
444.54	6670.53
444.73	6506.69
444.91	6375.62
445.10	6384.98
445.28	6427.11
445.47	6406.05
445.65	6251.57
445.84	6366.26
446.02	6604.99
446.21	6597.97
446.39	6579.25
446.58	6609.67
446.77	6497.33
446.95	6473.92
447.14	6595.63
447.32	6623.72
447.51	6729.04
447.69	6635.42
447.88	6640.10
448.06	6656.48
448.25	6647.12
448.43	6679.89
448.62	6698.61
448.80	6675.21
448.99	6867.13
449.17	6813.30
449.36	6726.70
449.54	7035.65
449.73	7056.72
449.91	7077.78
450.10	7335.24
450.28	7241.62
450.46	7260.34
450.65	7300.13
450.83	7049.69
451.02	7143.32
451.20	7171.40
451.39	7344.60
451.57	7178.42
451.76	7204.17
451.94	7232.26
452.13	7133.95
452.31	7155.02
452.49	7148.00
452.68	7166.72
452.86	7194.81
453.05	7145.66
453.23	7297.79
453.42	7222.89
453.60	7281.41
453.78	7335.24
453.97	7283.75
454.15	7293.11
454.34	7363.33
454.52	7454.61
454.70	7360.98
454.89	7442.90
455.07	7295.45
455.26	7590.36
455.44	7779.94
455.62	7672.28
455.81	7644.19
455.99	7772.92
456.17	7864.20
456.36	7899.31
456.54	7840.79
456.73	7943.78
456.91	8105.28
457.09	8013.99
457.28	8086.55
457.46	8025.70
457.64	7927.39
457.83	8058.46
458.01	8077.19
458.19	8187.19
458.38	8049.10
458.56	8109.96
458.74	8070.17
458.93	8215.28
459.11	8269.11
459.29	8388.48
459.48	7964.84
459.66	8332.31
459.84	8393.16
460.03	8606.15
460.21	8341.67
460.39	8542.96
460.57	8250.39
460.76	8674.03
460.94	8617.85
461.12	8549.98
461.31	8484.44
461.49	8585.08
461.67	8610.83
461.85	8685.73
462.04	8676.37
462.22	9338.74
462.40	8926.80
462.59	8980.64
462.77	8709.13
462.95	8968.93
463.13	8739.56
463.32	8870.63
463.50	8849.57
463.68	8945.53
463.86	8952.55
464.05	8872.97
464.23	9036.81
464.41	8835.52
464.59	8884.67
464.78	9144.47
464.96	9102.34
465.14	8915.10
465.32	9198.31
465.50	9207.67
465.69	9486.19
465.87	9226.39
466.05	9090.64
466.23	8856.59
466.41	9217.03
466.60	9287.25
466.78	9235.75
466.96	9135.11
467.14	9287.25
467.32	9233.41
467.51	9315.33
467.69	8957.23
467.87	9437.04
468.05	9530.66
468.23	9298.95
468.41	9282.56
468.60	9415.98
468.78	9441.72
468.96	9322.35
469.14	9652.37
469.32	9703.86
469.50	9554.07
469.69	9575.13
469.87	9708.54
470.05	9717.90
470.23	9687.48
470.41	9727.27
470.59	9984.73
470.77	9703.86
470.95	9951.96
471.14	10061.96
471.32	9853.66
471.50	10169.63
471.68	10235.16
471.86	10106.43
472.04	10244.52
472.22	10604.97
472.40	10099.41
472.58	10443.47
472.77	10548.79
472.95	10712.63
473.13	10684.55
473.31	10242.18
473.49	10527.73
473.67	10494.96
473.85	10485.60
474.03	10761.78
474.21	10850.72
474.39	10899.87
474.57	10902.22
474.75	11047.33
474.93	11103.50
475.12	11014.56
475.30	11124.57
475.48	11054.35
475.66	11178.40
475.84	11257.98
476.02	11351.60
476.20	11344.58
476.38	11424.15
476.56	11913.33
476.74	11763.53
476.92	11723.74
477.10	11634.80
477.28	11831.41
477.46	12006.95
477.64	11985.88
477.82	12400.16
478.00	12407.18
478.18	12559.31
478.36	12599.10
478.54	12645.91
478.72	12606.13
478.90	12793.37
479.08	13064.87
479.26	12950.18
479.44	12769.96
479.62	13076.57
479.80	13221.69
479.98	13504.89
480.16	13638.30
480.34	13486.17
480.52	13514.25
480.70	13507.23
480.88	13642.98
481.06	13795.12
481.24	13844.27
481.41	13879.38
481.59	14150.88
481.77	14244.50
481.95	14434.08
482.13	14501.96
482.31	14490.26
482.49	14878.79
482.67	14892.83
482.85	14839.00
483.03	14881.13
483.21	15147.95
483.39	15267.31
483.57	15115.18
483.74	15269.66
483.92	15587.97
484.10	15171.35
484.28	15894.58
484.46	15957.77
484.64	16339.28
484.82	16035.01
485.00	16173.10
485.18	16283.11
485.35	16226.93
485.53	16166.08
485.71	16240.98
485.89	16556.95
486.07	16290.13
486.25	16545.25
486.43	16868.24
486.61	16816.75
486.78	17050.80
486.96	17207.62
487.14	17745.94
487.32	17231.02
487.50	17860.63
487.68	17759.98
487.85	18218.73
488.03	18263.20
488.21	18298.31
488.39	18279.58
488.57	18621.30
488.75	18441.08
488.92	19161.97
489.10	19098.77
489.28	19353.89
489.46	19559.86
489.64	19431.13
489.81	20147.33
489.99	19864.13
490.17	20070.09
490.35	20493.73
490.53	20182.44
490.70	20252.66
490.88	20133.29
491.06	20844.81
491.24	20407.13
491.41	20664.59
491.59	20545.22
491.77	20734.81
491.95	20908.01
492.13	21010.99
492.30	21216.96
492.48	21671.02
492.66	21514.20
492.84	21617.19
493.01	22080.61
493.19	21724.85
493.37	22047.85
493.54	22260.84
493.72	22515.95
493.90	22157.85
494.08	22640.00
494.25	23220.45
494.43	23054.28
494.61	23339.82
494.79	23115.13
494.96	23381.95
495.14	23246.20
495.32	23740.05
495.49	23262.58
495.67	23723.67
495.85	23817.29
496.02	24130.92
496.20	24119.22
496.38	24259.65
496.55	24355.61
496.73	24961.81
496.91	24823.72
497.09	24762.87
497.26	24830.74
497.44	24900.96
497.62	25219.27
497.79	25008.62
497.97	24931.39
498.14	25727.17
498.32	25434.60
498.50	25511.84
498.67	25919.09
498.85	26022.08
499.03	25846.54
499.20	25736.53
499.38	26288.90
499.56	26204.64
499.73	26043.14
499.91	26256.13
500.08	26391.88
500.26	26342.73
500.44	26766.37
500.61	26764.03
500.79	26274.85
500.97	26670.40
501.14	26871.69
501.32	27091.70
501.49	26874.03
501.67	27278.94
501.84	27072.98
502.02	27229.79
502.20	27428.74
502.37	27601.94
502.55	27777.48
502.72	27861.74
502.90	27772.80
503.07	27903.87
503.25	27976.42
503.43	27924.93
503.60	28088.77
503.78	27798.54
503.95	28034.94
504.13	28486.66
504.30	28411.76
504.48	28329.84
504.65	28830.72
504.83	28882.21
505.01	28758.16
505.18	28950.09
505.36	29446.28
505.53	29359.68
505.71	29741.19
505.88	29387.77
506.06	29582.03
506.23	29509.47
506.41	28978.17
506.58	29476.71
506.76	29694.38
506.93	29813.74
507.11	29696.72
507.28	29848.85
507.46	29380.74
507.63	29797.36
507.81	30015.03
507.98	29766.93
508.16	29949.50
508.33	30000.99
508.50	30361.43
508.68	30323.98
508.85	30796.77
509.03	30710.17
509.20	30955.93
509.38	30639.95
509.55	31194.66
509.73	31117.42
509.90	30808.47
510.08	30962.95
510.25	31185.30
510.42	31267.22
510.60	31765.75
510.77	32030.23
510.95	31782.13
511.12	31529.36
511.30	32072.36
511.47	32147.26
511.64	32189.39
511.82	32184.71
511.99	32123.85
512.17	32477.27
512.34	32044.27
512.51	32320.46
512.69	32690.26
512.86	32842.40
513.04	32371.95
513.21	32472.59
513.38	32739.41
513.56	32708.99
513.73	32500.68
513.90	32828.35
514.08	32648.13
514.25	32884.53
514.43	32903.25
514.60	33254.33
514.77	33118.58
514.95	33397.10
515.12	33415.83
515.29	33174.75
515.47	33792.65
515.64	33507.11
515.81	33860.53
515.99	33612.43
516.16	33455.62
516.33	33469.66
516.51	33455.62
516.68	33256.67
516.85	33310.50
517.03	33500.09
517.20	33839.47
517.37	34389.49
517.54	34394.17
517.72	34197.57
517.89	33806.70
518.06	33855.85
518.24	33612.43
518.41	34391.83
518.58	34377.79
518.75	34508.86
518.93	34256.08
519.10	34106.29
519.27	34848.24
519.45	34672.70
519.62	35122.08
519.79	35199.32
519.96	35386.56
520.14	35126.76
520.31	34443.32
520.48	35414.65
520.65	35194.64
520.83	35147.82
521.00	35292.94
521.17	35225.06
521.34	35723.60
521.52	35854.67
521.69	36037.23
521.86	36163.62
522.03	36177.66
522.20	36140.21
522.38	35964.67
522.55	35992.76
522.72	36250.22
522.89	36140.21
523.07	36598.96
523.24	36453.84
523.41	36561.51
523.58	36327.45
523.75	36804.92
523.92	36652.79
524.10	36844.71
524.27	36863.44
524.44	37507.08
524.61	37240.26
524.78	37251.97
524.96	37275.37
525.13	37062.38
525.30	37490.70
525.47	37958.81
525.64	37673.26
525.81	36975.78
525.98	37226.22
526.16	36978.12
526.33	37095.15
526.50	36971.10
526.67	37305.80
526.84	36985.15
527.01	37034.30
527.18	37560.92
527.36	37631.13
527.53	37663.90
527.70	38286.48
527.87	38260.74
528.04	37858.17
528.21	38506.49
528.38	38054.77
528.55	38543.94
528.72	38738.21
528.89	38941.83
529.07	38653.95
529.24	37912.00
529.41	38806.08
529.58	38242.01
529.75	38721.82
529.92	38745.23
530.09	38906.73
530.26	39416.96
530.43	39206.31
530.60	38658.63
530.77	38787.36
530.94	39302.28
531.11	38937.15
531.28	39108.01
531.46	39225.04
531.63	39201.63
531.80	39126.74
531.97	39117.37
532.14	38974.60
532.31	38808.42
532.48	38930.13
532.65	39122.05
532.82	39779.74
532.99	39683.78
533.16	39229.72
533.33	39786.77
533.50	39529.31
533.67	39746.98
533.84	39508.24
534.01	39643.99
534.18	39241.42
534.35	40100.40
534.52	39782.09
534.69	40081.67
534.86	39833.58
535.03	39981.03
535.20	40226.79
535.37	40507.65
535.54	40804.90
535.71	40004.44
535.88	40430.41
536.05	40278.28
536.22	40545.10
536.38	40325.09
536.55	40931.29
536.72	40505.31
536.89	39988.05
537.06	40392.97
537.23	41123.21
537.40	40404.67
537.57	40589.57
537.74	40875.12
537.91	41104.49
538.08	41060.02
538.25	41106.83
538.42	41165.34
538.59	41612.38
538.75	40999.16
538.92	41020.23
539.09	41486.00
539.26	41247.26
539.43	40744.05
539.60	41375.99
539.77	40758.09
539.94	41167.68
540.11	41230.88
540.28	40987.46
540.44	41476.63
540.61	41294.07
540.78	40898.52
540.95	41116.19
541.12	41265.99
541.29	41031.93
541.46	41588.98
541.62	41507.06
541.79	41596.00
541.96	41102.15
542.13	41446.21
542.30	41467.27
542.47	41764.52
542.63	41710.69
542.80	41989.21
542.97	42277.10
543.14	42366.04
543.31	42120.28
543.48	42265.39
543.64	42651.58
543.81	42766.27
543.98	42265.39
544.15	42307.52
544.32	42363.70
544.48	43084.58
544.65	42735.84
544.82	42724.14
544.99	42274.76
545.16	42401.14
545.32	42127.30
545.49	42850.53
545.66	42941.81
545.83	42696.05
546.00	43044.79
546.16	42656.26
546.33	42674.99
546.50	42480.72
546.67	42838.83
546.83	42726.48
547.00	42792.01
547.17	43203.95
547.34	42550.94
547.50	43042.45
547.67	43164.16
547.84	43363.11
548.00	43107.99
548.17	43105.65
548.34	43540.99
548.51	43772.70
548.67	43629.93
548.84	43487.15
549.01	43304.59
549.18	43353.74
549.34	43384.17
549.51	43388.85
549.68	43423.96
549.84	43571.41
550.01	43688.44
550.18	42878.61
550.34	43592.48
550.51	43604.18
550.68	43681.42
550.84	43756.32
551.01	43887.39
551.18	43917.81
551.34	43484.81
551.51	44004.41
551.68	43934.20
551.84	43936.54
552.01	44198.68
552.18	43962.28
552.34	43328.00
552.51	44109.74
552.68	43845.26
552.84	43957.60
553.01	44074.63
553.18	43955.26
553.34	43627.59
553.51	44282.94
553.67	44088.67
553.84	44603.59
554.01	44353.15
554.17	44521.67
554.34	44444.43
554.51	44870.41
554.67	44634.02
554.84	44229.10
555.00	44364.85
555.17	44091.01
555.33	44608.27
555.50	44547.42
555.67	44259.53
555.83	44615.29
556.00	44385.92
556.16	44760.40
556.33	44718.28
556.50	44133.14
556.66	44573.16
556.83	44385.92
556.99	44645.72
557.16	44758.06
557.32	44568.48
557.49	44889.13
557.65	44294.64
557.82	44875.09
557.98	44509.97
558.15	44769.77
558.32	45228.51
558.48	44390.60
558.65	44547.42
558.81	44673.81
558.98	44409.32
559.14	44577.84
559.31	45118.51
559.47	44720.62
559.64	44938.29
559.80	44804.88
559.97	45031.91
560.13	44428.05
560.30	45338.52
560.46	44893.82
560.63	45294.05
560.79	45041.27
560.96	45471.93
561.12	45141.91
561.29	45212.13
561.45	45226.17
561.61	44830.62
561.78	44898.50
561.94	45036.59
562.11	44797.85
562.27	44816.58
562.44	45364.26
562.60	45357.24
562.77	45078.72
562.93	45415.76
563.10	45841.73
563.26	44947.65
563.42	45212.13
563.59	45116.17
563.75	45483.63
563.92	45631.08
564.08	45684.92
564.24	45422.78
564.41	45315.11
564.57	45427.46
564.74	45364.26
564.90	45254.26
565.07	45432.14
565.23	45860.46
565.39	45207.45
565.56	45546.82
565.72	45198.09
565.88	44989.78
566.05	45319.79
566.21	45064.67
566.38	45125.53
566.54	45216.81
566.70	45645.13
566.87	45553.85
567.03	46181.11
567.19	45984.51
567.36	45827.69
567.52	45240.21
567.68	45439.16
567.85	44783.81
568.01	45731.73
568.17	45347.88
568.34	46033.66
568.50	45200.43
568.66	45443.84
568.83	45432.14
568.99	45425.12
569.15	45764.49
569.32	45689.60
569.48	45326.81
569.64	45918.97
569.81	45649.81
569.97	45308.09
570.13	45727.05
570.30	45394.69
570.46	44596.57
570.62	45184.04
570.78	45268.30
570.95	45216.81
571.11	45406.39
571.27	45296.39
571.43	45467.25
571.60	45689.60
571.76	45731.73
571.92	45549.17
572.09	45710.66
572.25	46075.79
572.41	46183.45
572.57	45844.07
572.74	45961.10
572.90	45935.35
573.06	45813.65
573.22	45916.63
573.38	45855.78
573.55	45507.04
573.71	45710.66
573.87	45708.32
574.03	45684.92
574.20	45661.51
574.36	45401.71
574.52	45574.91
574.68	45670.87
574.84	45675.55
575.01	45666.19
575.17	45748.11
575.33	45591.30
575.49	45523.42
575.65	45588.95
575.82	45815.99
575.98	45315.11
576.14	46014.93
576.30	45858.12
576.46	45619.38
576.62	45724.71
576.79	45567.89
576.95	45282.34
577.11	45549.17
577.27	45797.26
577.43	45624.06
577.59	45521.08
577.75	45518.74
577.92	45521.08
578.08	45265.96
578.24	45799.60
578.40	45111.49
578.56	45663.85
578.72	45670.87
578.88	46103.87
579.04	45614.70
579.21	45455.54
579.37	45937.69
579.53	45645.13
579.69	45294.05
579.85	45565.55
580.01	45851.09
580.17	45731.73
580.33	46010.25
580.49	45902.59
580.65	46302.82
580.82	45574.91
580.98	45432.14
581.14	45521.08
581.30	45918.97
581.46	45984.51
581.62	45535.12
581.78	45867.48
581.94	46389.42
582.10	46176.43
582.26	46206.86
582.42	45666.19
582.58	45537.46
582.74	45963.44
582.90	45785.56
583.06	46092.17
583.22	45832.37
583.38	46192.81
583.54	45844.07
583.70	45935.35
583.86	46012.59
584.02	45301.07
584.18	45476.61
584.34	45951.74
584.50	45635.77
584.66	46005.57
584.82	45441.50
584.98	46295.80
585.14	45745.77
585.30	45652.15
585.46	45794.92
585.62	45361.92
585.78	45886.20
585.94	45036.59
586.10	45755.13
586.26	45724.71
586.42	45951.74
586.58	45696.62
586.74	45825.35
586.90	45429.80
587.06	45687.26
587.22	45801.94
587.38	45621.72
587.54	45649.81
587.70	45942.38
587.86	45570.23
588.02	45823.01
588.18	45886.20
588.34	45408.73
588.49	45085.74
588.65	45076.38
588.81	44928.92
588.97	45378.31
589.13	45352.56
589.29	45862.80
589.45	45188.72
589.61	45799.60
589.77	46227.92
589.93	45876.84
590.08	45801.94
590.24	45815.99
590.40	46038.34
590.56	46405.80
590.72	45855.78
590.88	45647.47
591.04	45755.13
591.20	46061.74
591.35	46321.54
591.51	46272.39
591.67	45996.21
591.83	46078.13
591.99	45923.65
592.15	46190.47
592.31	45947.06
592.46	45586.61
592.62	46422.19
592.78	45879.18
592.94	46108.55
593.10	46431.55
593.26	46164.73
593.41	45982.16
593.57	45872.16
593.73	45579.59
593.89	45815.99
594.05	45940.04
594.20	46251.33
594.36	45766.84
594.52	46134.30
594.68	46466.66
594.84	45722.37
594.99	46010.25
595.15	46141.32
595.31	46256.01
595.47	45848.75
595.62	46052.38
595.78	46263.03
595.94	46136.64
596.10	46176.43
596.25	45867.48
596.41	46080.47
596.57	45766.84
596.73	46138.98
596.88	45736.41
597.04	45893.22
597.20	46096.85
597.36	45738.75
597.51	46293.46
597.67	45841.73
597.83	45947.06
597.99	46625.81
598.14	46295.80
598.30	46248.99
598.46	46162.39
598.61	46064.08
598.77	45900.25
598.93	45839.39
599.09	45865.14
599.24	46618.79
599.40	46211.54
599.56	46108.55
599.71	46162.39
599.87	46497.08
600.03	46138.98
600.18	46138.98
600.34	45975.14
600.50	45813.65
600.65	45858.12
600.81	45820.67
600.97	46241.96
601.12	46403.46
601.28	46028.98
601.44	45600.66
601.59	45872.16
601.75	45404.05
601.91	45598.32
602.06	46316.86
602.22	46115.58
602.37	46106.21
602.53	46480.70
602.69	46136.64
602.84	45553.85
603.00	45970.46
603.16	45738.75
603.31	45996.21
603.47	45902.59
603.62	45633.42
603.78	46218.56
603.94	46265.37
604.09	46225.58
604.25	45879.18
604.40	45607.68
604.56	45949.40
604.71	46087.49
604.87	45872.16
605.03	46038.34
605.18	45951.74
605.34	45792.58
605.49	45312.77
605.65	45734.07
605.80	45244.90
605.96	45977.48
606.12	45963.44
606.27	45923.65
606.43	45628.74
606.58	45628.74
606.74	46014.93
606.89	45724.71
607.05	45518.74
607.20	45963.44
607.36	45951.74
607.51	46160.05
607.67	45750.45
607.82	45647.47
607.98	45530.44
608.13	46284.09
608.29	45382.99
608.44	45202.77
608.60	45546.82
608.75	45411.07
608.91	45638.11
609.06	45263.62
609.22	46288.77
609.37	45532.78
609.53	45556.19
609.68	45500.01
609.84	45333.84
609.99	45668.53
610.15	45301.07
610.30	44872.75
610.46	45078.72
610.61	45127.87
610.76	45443.84
610.92	45736.41
611.07	45485.97
611.23	46017.27
611.38	45345.54
611.54	45565.55
611.69	45350.22
611.84	45230.85
612.00	45062.33
612.15	44893.82
612.31	45282.34
612.46	45015.52
612.62	45146.59
612.77	45148.93
612.92	45148.93
613.08	45394.69
613.23	45326.81
613.39	44830.62
613.54	44713.59
613.69	44669.12
613.85	44921.90
614.00	45254.26
614.15	45261.28
614.31	45240.21
614.46	44980.42
614.62	44942.97
614.77	44519.33
614.92	44708.91
615.08	44521.67
615.23	44713.59
615.38	44837.64
615.54	44629.34
615.69	44559.12
615.84	44690.19
616.00	44608.27
616.15	44561.46
616.30	44830.62
616.46	44484.22
616.61	44451.45
616.76	44680.83
616.92	44032.50
617.07	44013.77
617.22	44098.03
617.37	44250.17
617.53	44479.54
617.68	44830.62
617.83	44336.77
617.99	44154.21
618.14	44091.01
618.29	44170.59
618.45	44243.15
618.60	43983.35
618.75	44093.35
618.90	43971.64
619.06	44350.81
619.21	43784.40
619.36	44027.82
619.51	44020.80
619.67	44275.91
619.82	43636.95
619.97	44095.69
620.12	43817.17
620.28	43569.07
620.43	43515.24
620.58	43952.92
620.73	43917.81
620.89	43164.16
621.04	44561.46
621.19	44182.29
621.34	44116.76
621.49	43442.68
621.65	43615.88
621.80	43983.35
621.95	43587.80
622.10	43784.40
622.25	43482.47
622.41	43599.50
622.56	43388.85
622.71	43599.50
622.86	43498.86
623.01	43236.72
623.16	43475.45
623.32	43318.64
623.47	43606.52
623.62	42930.11
623.77	43484.81
623.92	43332.68
624.07	43157.14
624.23	42600.09
624.38	42895.00
624.53	43131.39
624.68	42960.53
624.83	43154.80
624.98	42855.21
625.13	42913.72
625.29	42864.57
625.44	42993.30
625.59	42822.44
625.74	42857.55
625.89	42557.96
626.04	42726.48
626.19	42579.03
626.34	43096.28
626.49	43056.50
626.65	42738.18
626.80	43260.12
626.95	42508.81
627.10	42614.13
627.25	42862.23
627.40	42440.93
627.55	42389.44
627.70	41862.82
627.85	42497.11
628.00	42213.90
628.15	42689.03
628.30	42293.48
628.45	42515.83
628.60	42288.80
628.76	42342.63
628.91	42447.96
629.06	42359.02
629.21	41947.08
629.36	42096.88
629.51	41771.54
629.66	41977.51
629.81	41954.10
629.96	42106.24
630.11	42082.83
630.26	41771.54
630.41	41963.46
630.56	42017.30
630.71	42019.64
630.86	42012.62
631.01	41518.76
631.16	41673.24
631.31	41619.41
631.46	41130.23
631.61	41804.31
631.76	41787.92
631.91	41935.38
632.06	41921.34
632.21	41762.18
632.36	41418.12
632.51	41493.02
632.66	41773.88
632.81	41223.86
632.96	41706.01
633.10	41427.48
633.25	41710.69
633.40	41298.75
633.55	41755.16
633.70	41806.65
633.85	41338.54
634.00	41750.48
634.15	41441.53
634.30	40797.88
634.45	41184.07
634.60	41502.38
634.75	41053.00
634.90	41099.81
635.05	41099.81
635.19	41146.62
635.34	41518.76
635.49	40912.56
635.64	41146.62
635.79	40987.46
635.94	40727.66
636.09	41024.91
636.24	41081.08
636.39	40722.98
636.53	40622.34
636.68	40509.99
636.83	40907.88
636.98	40907.88
637.13	40734.68
637.28	41064.70
637.43	40737.02
637.57	40774.47
637.72	40650.42
637.87	40926.61
638.02	40987.46
638.17	40877.46
638.32	40238.49
638.46	40252.53
638.61	40327.43
638.76	40620.00
638.91	40594.25
639.06	40793.20
639.20	40996.82
639.35	40877.46
639.50	40381.26
639.65	40177.64
639.80	40252.53
639.94	40081.67
640.09	40502.97
640.24	39709.53
640.39	39842.94
640.54	40437.44
640.68	39864.00
640.83	40304.02
640.98	39629.95
641.13	39737.62
641.27	40114.44
641.42	39999.76
641.57	39840.60
641.72	39789.11
641.86	39959.97
642.01	39438.03
642.16	39620.59
642.31	40051.25
642.45	39873.37
642.60	39564.42
642.75	39583.14
642.90	40088.70
643.04	39475.48
643.19	39302.28
643.34	39892.09
643.48	39887.41
643.63	39498.88
643.78	39550.37
643.93	39800.81
644.07	39384.19
644.22	39356.11
644.37	39407.60
644.51	39339.72
644.66	39772.72
644.81	39466.11
644.95	39426.32
645.10	39292.91
645.25	39257.81
645.39	39187.59
645.54	39533.99
645.69	39264.83
645.83	39131.42
645.98	38792.04
646.13	39154.82
646.27	39398.24
646.42	38686.71
646.57	39115.03
646.71	39009.71
646.86	38838.85
647.00	39122.05
647.15	39122.05
647.30	39065.88
647.44	39086.95
647.59	38520.54
647.74	38352.02
647.88	38665.65
648.03	38909.07
648.17	38747.57
648.32	38691.40
648.47	38766.29
648.61	38742.89
648.76	38754.59
648.90	38766.29
649.05	38616.50
649.20	38445.64
649.34	38574.37
649.49	38305.21
649.63	38698.42
649.78	38759.27
649.92	38150.73
650.07	38698.42
650.21	38625.86
650.36	38646.93
650.51	39105.67
650.65	38988.64
650.80	39218.02
650.94	38555.64
651.09	38646.93
651.23	37806.67
651.38	38176.48
651.52	38387.13
651.67	37970.51
651.81	37890.93
651.96	38227.97
652.10	38377.76
652.25	38188.18
652.39	38143.71
652.54	38691.40
652.68	38183.50
652.83	38321.59
652.97	38667.99
653.12	37677.94
653.26	38026.68
653.41	38258.40
653.55	37991.58
653.70	38122.65
653.84	37577.30
653.99	37818.38
654.13	37673.26
654.27	37748.16
654.42	37748.16
654.56	37584.32
654.71	37488.36
654.85	37425.17
655.00	37715.39
655.14	37479.00
655.29	37219.20
655.43	36919.61
655.57	36875.14
655.72	36875.14
655.86	36947.70
656.01	36882.16
656.15	36472.57
656.30	36905.57
656.44	37010.89
656.58	37394.74
656.73	37118.56
656.87	36903.23
657.01	37036.64
657.16	36889.18
657.30	36886.84
657.45	36680.88
657.59	36945.36
657.73	37015.57
657.88	37078.77
658.02	36961.74
658.16	37017.91
658.31	36837.69
658.45	37298.78
658.60	37364.31
658.74	36917.27
658.88	36921.95
659.03	36659.81
659.17	36833.01
659.31	36292.35
659.46	36297.03
659.60	36603.64
659.74	36474.91
659.89	36175.32
660.03	36364.90
660.17	36858.76
660.32	36451.50
660.46	36212.77
660.60	36231.49
660.74	36144.89
660.89	36278.30
661.03	36077.02
661.17	35793.81
661.32	36144.89
661.46	35936.59
661.60	35873.39
661.74	35747.00
661.89	36062.97
662.03	35929.56
662.17	35646.36
662.31	35934.24
662.46	35906.16
662.60	35601.89
662.74	36030.21
662.88	35168.89
663.03	35592.53
663.17	35564.44
663.31	35283.58
663.45	35566.78
663.60	35597.21
663.74	35721.26
663.88	35447.41
664.02	34588.44
664.17	35187.61
664.31	35082.29
664.45	35051.86
664.59	35145.48
664.73	34515.88
664.88	34913.77
665.02	34572.05
665.16	34534.60
665.30	34307.57
665.44	34438.64
665.59	34087.56
665.73	34494.82
665.87	34527.58
666.01	34927.81
666.15	34569.71
666.29	34569.71
666.44	34225.65
666.58	34211.61
666.72	34632.91
666.86	34040.75
667.00	34426.94
667.14	34012.66
667.28	33916.70
667.43	33572.64
667.57	34167.14
667.71	33668.61
667.85	33935.43
667.99	34380.13
668.13	33741.16
668.27	33968.19
668.41	33593.71
668.56	33523.49
668.70	33591.37
668.84	33310.50
668.98	33186.46
669.12	33443.91
669.26	33127.94
669.40	32498.34
669.54	32765.16
669.68	32818.99
669.82	32669.20
669.96	32620.05
670.10	32610.68
670.25	32797.93
670.39	32481.95
670.53	32858.78
670.67	32367.27
670.81	32451.53
670.95	32397.70
671.09	32240.88
671.23	32299.39
671.37	32456.21
671.51	32126.19
671.65	32369.61
671.79	32079.38
671.93	31793.84
672.07	32004.49
672.21	31833.63
672.35	31737.66
672.49	31590.21
672.63	32037.25
672.77	31779.79
672.91	31807.88
673.05	32079.38
673.19	31826.60
673.33	31379.56
673.47	31178.28
673.61	31297.64
673.75	31000.40
673.89	30991.03
674.03	31508.29
674.17	31063.59
674.31	31372.54
674.45	31054.23
674.59	30852.94
674.73	31131.47
674.87	30590.80
675.01	30845.92
675.15	30391.86
675.29	30831.88
675.43	30445.69
675.56	30857.62
675.70	30888.05
675.84	30480.80
675.98	29380.74
676.12	30024.39
676.26	30113.33
676.40	30118.01
676.54	30246.74
676.68	29935.45
676.82	29315.21
676.96	29923.75
677.10	29670.97
677.23	29738.85
677.37	29207.55
677.51	29308.19
677.65	29357.34
677.79	28872.85
677.93	28732.42
678.07	28973.49
678.21	28432.83
678.34	28753.48
678.48	28439.85
678.62	28498.36
678.76	27828.97
678.90	27976.42
679.04	28297.08
679.18	28465.60
679.31	28002.17
679.45	27875.78
679.59	27473.21
679.73	28149.62
679.87	27660.45
680.00	27901.53
680.14	27704.92
680.28	27388.95
680.42	27421.72
680.56	27150.21
680.70	27498.95
680.83	27168.94
680.97	27157.24
681.11	27356.18
681.25	26995.74
681.39	27138.51
681.52	27154.90
681.66	26700.83
681.80	26707.85
681.94	26609.55
682.07	26349.75
682.21	26291.24
682.35	26239.75
682.49	25764.62
682.62	25996.33
682.76	25813.77
682.90	25813.77
683.04	25701.42
683.17	25883.98
683.31	25582.06
683.45	25500.14
683.59	25727.17
683.72	25617.16
683.86	25446.30
684.00	24961.81
684.13	25282.47
684.27	24833.08
684.41	24741.80
684.55	24870.53
684.68	24725.42
684.82	24657.54
684.96	24950.11
685.09	24601.37
685.23	24554.56
685.37	24552.22
685.50	24582.65
685.64	24269.01
685.78	24144.97
685.91	24023.26
686.05	23915.59
686.19	23990.49
686.32	23414.72
686.46	23529.41
686.60	23026.19
686.73	23316.42
686.87	23297.69
687.01	23035.55
687.14	22869.37
687.28	22848.31
687.42	22647.02
687.55	22555.74
687.69	23023.85
687.82	22913.84
687.96	22883.42
688.10	22380.20
688.23	22537.02
688.37	22340.41
688.50	22120.40
688.64	22391.91
688.78	22235.09
688.91	22183.60
689.05	21783.37
689.18	22008.06
689.32	21399.52
689.46	21607.83
689.59	21659.32
689.73	21968.27
689.86	21415.90
690.00	21315.26
690.13	21291.85
690.27	21411.22
690.41	21025.03
690.54	20980.56
690.68	21263.77
690.81	21013.33
690.95	21254.40
691.08	20849.49
691.22	21076.52
691.35	20786.30
691.49	20723.10
691.62	20863.54
691.76	20790.98
691.89	20467.98
692.03	20528.84
692.16	20290.10
692.30	20636.50
692.43	20191.80
692.57	19946.05
692.70	19812.63
692.84	19733.06
692.97	19824.34
693.11	19791.57
693.24	19669.86
693.38	19557.52
693.51	19449.85
693.65	19445.17
693.78	19447.51
693.92	19543.47
694.05	19264.95
694.19	19229.84
694.32	19030.90
694.45	19267.29
694.59	18719.60
694.72	18768.76
694.86	18834.29
694.99	18649.39
695.13	18679.82
695.26	18490.23
695.39	18321.71
695.53	18410.65
695.66	18340.44
695.80	18345.12
695.93	18518.32
696.07	17975.31
696.20	18092.34
696.33	17902.76
696.47	17827.86
696.60	18094.68
696.73	17579.76
696.87	17640.62
697.00	17525.93
697.14	17451.03
697.27	17322.30
697.40	17432.31
697.54	17226.34
697.67	17350.39
697.80	17200.60
697.94	17029.74
698.07	17022.72
698.21	17043.78
698.34	17174.85
698.47	16851.86
698.61	16468.01
698.74	16631.85
698.87	16566.31
699.01	16386.09
699.14	16205.87
699.27	16152.04
699.40	16395.45
699.54	16297.15
699.67	16170.76
699.80	15908.62
699.94	16126.29
700.07	16203.53
700.20	15875.85
700.34	15761.17
700.47	15999.90
700.60	15728.40
700.73	15735.42
700.87	15688.61
701.00	15587.97
701.13	15637.12
701.26	15344.55
701.40	15033.26
701.53	15080.07
701.66	15080.07
701.79	14977.09
701.93	14785.16
702.06	14761.76
702.19	14553.45
702.32	14848.36
702.46	14633.03
702.59	14780.48
702.72	14782.82
702.85	14689.20
702.99	14581.54
703.12	14408.34
703.25	14445.79
703.38	14162.58
703.51	14406.00
703.65	14164.92
703.78	13858.31
703.91	13907.46
704.04	14052.58
704.17	14022.15
704.31	13806.82
704.44	13909.80
704.57	13523.62
704.70	13621.92
704.83	13694.47
704.96	13530.64
705.10	13334.03
705.23	13165.51
>>>>>End Processed Spectral Data<<<<<
