SpectraSuite Data File
++++++++++++++++++++++++++++++++++++
Date: Fri Oct 25 10:44:35 EDT 2013
User: price-jones
Dark Spectrum Present: No
Reference Spectrum Present: No
Number of Sampled Component Spectra: 1
Spectrometers: USB2+H05261
Integration Time (usec): 100000 (USB2+H05261)
Spectra Averaged: 1 (USB2+H05261)
Boxcar Smoothing: 0 (USB2+H05261)
Correct for Electrical Dark: No (USB2+H05261)
Strobe/Lamp Enabled: No (USB2+H05261)
Correct for Detector Non-linearity: No (USB2+H05261)
Correct for Stray Light: No (USB2+H05261)
Number of Pixels in Processed Spectrum: 2048
>>>>>Begin Processed Spectral Data<<<<<
365.73	184.90
365.92	184.90
366.12	184.90
366.32	35.11
366.52	56.17
366.72	72.56
366.91	4.68
367.11	0.00
367.31	0.00
367.51	0.00
367.70	0.00
367.90	0.00
368.10	58.51
368.30	53.83
368.49	51.49
368.69	58.51
368.89	21.06
369.09	53.83
369.28	44.47
369.48	84.26
369.68	98.30
369.87	100.64
370.07	133.41
370.27	138.09
370.47	166.18
370.66	376.83
370.86	397.89
371.06	491.51
371.25	533.64
371.45	433.00
371.65	447.04
371.84	341.72
372.04	411.93
372.24	517.26
372.44	449.38
372.63	442.36
372.83	472.79
373.03	482.15
373.22	489.17
373.42	404.91
373.62	479.81
373.81	557.05
374.01	552.37
374.21	524.28
374.40	550.03
374.60	589.82
374.79	456.40
374.99	557.05
375.19	524.28
375.38	554.71
375.58	538.32
375.78	629.60
375.97	559.39
376.17	634.29
376.37	615.56
376.56	458.74
376.76	543.00
376.95	561.73
377.15	627.26
377.35	557.05
377.54	554.71
377.74	657.69
377.93	573.43
378.13	564.07
378.33	603.86
378.52	638.97
378.72	580.45
378.91	589.82
379.11	622.58
379.31	664.71
379.50	617.90
379.70	695.14
379.89	596.84
380.09	594.50
380.28	655.35
380.48	634.29
380.68	641.31
380.87	627.26
381.07	716.20
381.26	657.69
381.46	681.10
381.65	664.71
381.85	624.92
382.04	645.99
382.24	723.23
382.43	660.03
382.63	683.44
382.83	683.44
383.02	746.63
383.22	760.67
383.41	737.27
383.61	823.87
383.80	744.29
384.00	725.57
384.19	727.91
384.39	704.50
384.58	716.20
384.78	741.95
384.97	807.48
385.17	688.12
385.36	753.65
385.56	709.18
385.75	774.72
385.95	791.10
386.14	828.55
386.34	744.29
386.53	830.89
386.72	720.88
386.92	814.51
387.11	854.30
387.31	877.70
387.50	758.33
387.70	833.23
387.89	805.14
388.09	770.04
388.28	851.96
388.48	854.30
388.67	847.27
388.86	922.17
389.06	933.87
389.25	903.45
389.45	903.45
389.64	854.30
389.84	952.60
390.03	919.83
390.22	903.45
390.42	973.66
390.61	842.59
390.81	985.37
391.00	896.43
391.19	1050.90
391.39	863.66
391.58	950.26
391.78	959.62
391.97	961.96
392.16	987.71
392.36	973.66
392.55	945.58
392.75	1013.45
392.94	947.92
393.13	954.94
393.33	947.92
393.52	926.85
393.71	1048.56
393.91	1083.67
394.10	1055.58
394.29	997.07
394.49	1102.39
394.68	1076.65
394.88	1177.29
395.07	1167.93
395.26	1086.01
395.46	1018.13
395.65	1149.20
395.84	1107.07
396.04	1135.16
396.23	1048.56
396.42	1081.33
396.62	1142.18
396.81	1111.75
397.00	1186.65
397.19	1090.69
397.39	1205.38
397.58	1224.10
397.77	1196.01
397.97	1357.51
398.16	1242.82
398.35	1334.11
398.55	1336.45
398.74	1317.72
398.93	1373.89
399.12	1439.43
399.32	1334.11
399.51	1289.64
399.70	1441.77
399.90	1327.08
400.09	1376.24
400.28	1416.02
400.47	1406.66
400.67	1507.30
400.86	1350.49
401.05	1469.86
401.24	1533.05
401.44	1563.48
401.63	1474.54
401.82	1568.16
402.01	1437.09
402.21	1577.52
402.40	1577.52
402.59	1511.99
402.78	1551.78
402.97	1584.54
403.17	1631.35
403.36	1570.50
403.55	1577.52
403.74	1724.97
403.93	1722.63
404.13	1785.83
404.32	1732.00
404.51	1764.76
404.70	1715.61
404.89	1750.72
405.09	1760.08
405.28	1753.06
405.47	1699.23
405.66	1844.34
405.85	1755.40
406.05	1778.81
406.24	1832.64
406.43	1856.04
406.62	1851.36
406.81	1907.54
407.00	1790.51
407.20	1884.13
407.39	1874.77
407.58	1930.94
407.77	1891.15
407.96	1914.56
408.15	1905.20
408.34	1966.05
408.54	2085.42
408.73	1944.99
408.92	2008.18
409.11	2085.42
409.30	2031.58
409.49	2076.06
409.68	2012.86
409.87	2097.12
410.07	2113.50
410.26	2106.48
410.45	2221.17
410.64	2202.44
410.83	2260.96
411.02	2303.09
411.21	2385.01
411.40	2392.03
411.59	2345.22
411.78	2223.51
411.98	2338.20
412.17	2370.96
412.36	2370.96
412.55	2434.16
412.74	2558.21
412.93	2502.03
413.12	2415.43
413.31	2619.06
413.50	2480.97
413.69	2595.65
413.88	2626.08
414.07	2579.27
414.26	2614.38
414.45	2710.34
414.64	2644.81
414.83	2747.79
415.02	2626.08
415.22	2841.41
415.41	2684.59
415.60	2832.05
415.79	2846.09
415.98	2829.71
416.17	2944.39
416.36	2796.94
416.55	2911.63
416.74	2932.69
416.93	3190.15
417.12	3133.98
417.31	2937.37
417.50	3082.49
417.69	3122.27
417.88	3211.22
418.07	3101.21
418.26	3136.32
418.45	3126.96
418.64	3351.65
418.83	3211.22
419.02	3206.53
419.21	3234.62
419.39	3311.86
419.58	3213.56
419.77	3183.13
419.96	3274.41
420.15	3449.95
420.34	3283.77
420.53	3353.99
420.72	3503.78
420.91	3398.46
421.10	3569.32
421.29	3487.40
421.48	3398.46
421.67	3510.80
421.86	3370.37
422.05	3433.57
422.24	3492.08
422.43	3651.24
422.61	3382.07
422.80	3566.98
422.99	3550.59
423.18	3695.71
423.37	3576.34
423.56	3588.04
423.75	3452.29
423.94	3583.36
424.13	3393.78
424.32	3428.88
424.50	3623.15
424.69	3723.79
424.88	3693.37
425.07	3616.13
425.26	3627.83
425.45	3695.71
425.64	3737.84
425.83	3632.51
426.01	3742.52
426.20	3742.52
426.39	3574.00
426.58	3681.66
426.77	3684.00
426.96	3658.26
427.15	3765.92
427.33	3712.09
427.52	3740.18
427.71	3644.21
427.90	3810.39
428.09	3676.98
428.28	3798.69
428.46	3737.84
428.65	3810.39
428.84	3939.12
429.03	3808.05
429.22	3754.22
429.40	3936.78
429.59	3819.75
429.78	3585.70
429.97	3686.34
430.16	3826.78
430.34	3843.16
430.53	3826.78
430.72	3819.75
430.91	3889.97
431.10	4072.53
431.28	4114.66
431.47	4131.05
431.66	4297.22
431.85	4135.73
432.03	4210.62
432.22	4437.66
432.41	4315.95
432.60	4292.54
432.79	4219.99
432.97	4386.16
433.16	4301.90
433.35	4315.95
433.54	4428.29
433.72	4362.76
433.91	4215.30
434.10	4468.08
434.28	4461.06
434.47	4404.89
434.66	4372.12
434.85	4519.57
435.03	4407.23
435.22	4477.44
435.41	4566.39
435.59	4608.51
435.78	4681.07
435.97	4617.88
436.16	4613.20
436.34	4660.01
436.53	4578.09
436.72	4807.46
436.90	4641.28
437.09	4734.90
437.28	4755.97
437.46	4669.37
437.65	4664.69
437.84	4760.65
438.02	4791.08
438.21	4704.48
438.40	4662.35
438.58	4929.17
438.77	5004.07
438.96	4908.10
439.14	5125.77
439.33	5053.22
439.52	5153.86
439.70	5142.16
439.89	5163.22
440.08	5191.31
440.26	5224.08
440.45	5261.52
440.63	5259.18
440.82	5362.17
441.01	5390.25
441.19	5394.93
441.38	5554.09
441.57	5680.48
441.75	5476.85
441.94	5832.62
442.12	5813.89
442.31	5774.10
442.50	5661.76
442.68	5757.72
442.87	5666.44
443.05	5657.07
443.24	5863.04
443.43	5771.76
443.61	6061.99
443.80	6066.67
443.98	5818.57
444.17	5729.63
444.35	5928.58
444.54	6064.33
444.73	5959.00
444.91	5926.24
445.10	5841.98
445.28	5998.79
445.47	5944.96
445.65	5905.17
445.84	5830.27
446.02	5982.41
446.21	5809.21
446.39	5947.30
446.58	5989.43
446.77	6099.44
446.95	5928.58
447.14	6064.33
447.32	6326.47
447.51	6153.27
447.69	5895.81
447.88	5954.32
448.06	6328.81
448.25	5994.11
448.43	6047.94
448.62	6069.01
448.80	5996.45
448.99	6207.10
449.17	6200.08
449.36	6195.40
449.54	6370.94
449.73	6593.29
449.91	6260.93
450.10	6438.81
450.28	6478.60
450.46	6455.20
450.65	6443.49
450.83	6558.18
451.02	6572.22
451.20	6623.72
451.39	6581.59
451.57	6445.84
451.76	6656.48
451.94	6525.41
452.13	6792.23
452.31	6530.09
452.49	6555.84
452.68	6689.25
452.86	6621.38
453.05	6651.80
453.23	6658.82
453.42	6565.20
453.60	6696.27
453.78	6771.17
453.97	6635.42
454.15	6670.53
454.34	6672.87
454.52	7023.95
454.70	6780.53
454.89	6949.05
455.07	6885.86
455.26	6913.94
455.44	7173.74
455.62	7098.84
455.81	6970.12
455.99	7178.42
456.17	7094.16
456.36	7225.23
456.54	7183.10
456.73	7372.69
456.91	7573.97
457.09	7318.86
457.28	7323.54
457.46	7232.26
457.64	7258.00
457.83	7339.92
458.01	7220.55
458.19	7609.08
458.38	7545.89
458.56	7749.51
458.74	7630.15
458.93	7508.44
459.11	7494.40
459.29	7375.03
459.48	7702.70
459.66	7747.17
459.84	7662.91
460.03	7763.56
460.21	7763.56
460.39	7798.66
460.57	7899.31
460.76	7859.52
460.94	7918.03
461.12	7992.93
461.31	7836.11
461.49	7943.78
461.67	7859.52
461.85	8002.29
462.04	7903.99
462.22	8145.06
462.40	8168.47
462.59	8138.04
462.77	8360.39
462.95	8259.75
463.13	8238.69
463.32	8035.06
463.50	8381.46
463.68	8131.02
463.86	8028.04
464.05	8311.24
464.23	8266.77
464.41	8425.93
464.59	8077.19
464.78	8409.54
464.96	8325.29
465.14	8205.92
465.32	8407.20
465.50	8250.39
465.69	8554.66
465.87	8421.25
466.05	8353.37
466.23	8421.25
466.41	8542.96
466.60	8624.87
466.78	8372.10
466.96	8510.19
467.14	8439.97
467.32	8547.64
467.51	8760.63
467.69	8360.39
467.87	8870.63
468.05	8786.37
468.23	8737.22
468.41	8676.37
468.60	8641.26
468.78	8975.95
468.96	8755.94
469.14	9034.47
469.32	8980.64
469.50	8837.86
469.69	8917.44
469.87	9128.09
470.05	9092.98
470.23	9233.41
470.41	9055.53
470.59	9055.53
470.77	9177.24
470.95	9109.36
471.14	9364.48
471.32	8856.59
471.50	9547.05
471.68	9282.56
471.86	9352.78
472.04	9404.27
472.22	9738.97
472.40	9413.63
472.58	9593.86
472.77	9764.72
472.95	9743.65
473.13	10001.11
473.31	9783.44
473.49	9537.68
473.67	9717.90
473.85	9710.88
474.03	10195.37
474.21	10019.83
474.39	10281.97
474.57	10139.20
474.75	10256.23
474.93	10284.31
475.12	10293.68
475.30	10391.98
475.48	10146.22
475.66	10525.39
475.84	10387.30
476.02	10520.71
476.20	10436.45
476.38	10817.96
476.56	11082.44
476.74	11040.31
476.92	10937.32
477.10	10773.49
477.28	11063.71
477.46	11098.82
477.64	11494.37
477.82	11442.88
478.00	11885.24
478.18	11363.30
478.36	11744.81
478.54	11648.85
478.72	11791.62
478.90	11800.98
479.08	11840.77
479.26	12325.26
479.44	12248.02
479.62	12367.39
479.80	12336.96
479.98	12248.02
480.16	12446.97
480.34	12585.06
480.52	12718.47
480.70	12793.37
480.88	12458.67
481.06	12709.11
481.24	12683.36
481.41	12872.95
481.59	13177.22
481.77	13359.78
481.95	13294.24
482.13	13523.62
482.31	13483.83
482.49	13642.98
482.67	13795.12
482.85	13804.48
483.03	13862.99
483.21	13956.61
483.39	14216.41
483.57	14312.38
483.74	14520.68
483.92	14508.98
484.10	14295.99
484.28	14672.82
484.46	14817.93
484.64	15138.58
484.82	14916.23
485.00	15021.56
485.18	15248.59
485.35	15597.33
485.53	14963.04
485.71	15206.46
485.89	15288.38
486.07	15571.58
486.25	15489.67
486.43	15580.95
486.61	16020.97
486.78	15950.75
486.96	16161.40
487.14	16121.61
487.32	16472.69
487.50	16559.29
487.68	16538.23
487.85	17041.44
488.03	17125.70
488.21	17104.64
488.39	17474.44
488.57	17055.48
488.75	17586.79
488.92	17860.63
489.10	17958.93
489.28	18082.98
489.46	18361.50
489.64	18169.58
489.81	18478.53
489.99	18515.98
490.17	18642.37
490.35	18745.35
490.53	18719.60
490.70	18974.72
490.88	19061.32
491.06	19295.38
491.24	19580.92
491.41	19318.78
491.59	19405.38
491.77	19325.80
491.95	19606.67
492.13	19482.62
492.30	20042.01
492.48	20121.59
492.66	20126.27
492.84	20116.90
493.01	20217.55
493.19	20835.45
493.37	20975.88
493.54	20926.73
493.72	20868.22
493.90	20783.96
494.08	21214.62
494.25	21181.85
494.43	21198.23
494.61	21671.02
494.79	21539.95
494.96	21731.87
495.14	21806.77
495.32	21806.77
495.49	21965.93
495.67	22300.62
495.85	22181.26
496.02	22735.96
496.20	22766.39
496.38	22937.25
496.55	22754.69
496.73	23271.95
496.91	23253.22
497.09	23370.25
497.26	23311.74
497.44	23363.23
497.62	23173.64
497.79	24046.66
497.97	23793.89
498.14	23828.99
498.32	23859.42
498.50	24109.86
498.67	24322.85
498.85	23957.72
499.03	24294.76
499.20	24327.53
499.38	24685.63
499.56	24601.37
499.73	25013.31
499.91	24954.79
500.08	24978.20
500.26	24840.11
500.44	24889.26
500.61	24900.96
500.79	24898.62
500.97	25090.54
501.14	25483.75
501.32	25287.15
501.49	25661.63
501.67	25263.74
501.84	25776.32
502.02	25942.50
502.20	25663.97
502.37	25923.77
502.55	25951.86
502.72	26455.08
502.90	26050.16
503.07	26328.69
503.25	26724.24
503.43	26061.87
503.60	26302.94
503.78	26096.97
503.95	26604.87
504.13	26881.05
504.30	26810.84
504.48	26859.99
504.65	27222.77
504.83	27370.22
505.01	27536.40
505.18	26768.71
505.36	27885.14
505.53	27379.59
505.71	27812.59
505.88	27445.12
506.06	27601.94
506.23	27920.25
506.41	27683.86
506.58	28041.96
506.76	27861.74
506.93	28081.75
507.11	28056.00
507.28	28173.03
507.46	28034.94
507.63	28320.48
507.81	28388.36
507.98	28297.08
508.16	28573.26
508.33	28631.77
508.50	28414.10
508.68	28603.69
508.85	29261.38
509.03	29039.03
509.20	29289.46
509.38	29624.16
509.55	29364.36
509.73	29469.69
509.90	29249.67
510.08	29586.71
510.25	29591.39
510.42	29628.84
510.60	29631.18
510.77	29713.10
510.95	30087.59
511.12	29926.09
511.30	30176.53
511.47	30209.29
511.64	30480.80
511.82	30492.50
511.99	30125.04
512.17	30382.49
512.34	29993.97
512.51	30424.62
512.69	30785.07
512.86	30778.04
513.04	30892.73
513.21	31129.12
513.38	30841.24
513.56	31189.98
513.73	30773.36
513.90	30920.82
514.08	31159.55
514.25	31332.75
514.43	31126.78
514.60	31353.82
514.77	31545.74
514.95	31915.54
515.12	31501.27
515.29	31374.88
515.47	31969.38
515.64	32175.34
515.81	31924.91
515.99	32294.71
516.16	32039.59
516.33	32009.17
516.51	31842.99
516.68	31564.46
516.85	32072.36
517.03	31693.19
517.20	31728.30
517.37	32142.58
517.54	32816.65
517.72	32479.61
517.89	32369.61
518.06	32598.98
518.24	32491.32
518.41	32589.62
518.58	32863.46
518.75	32919.63
518.93	32900.91
519.10	33446.26
519.27	33460.30
519.45	32767.50
519.62	33277.74
519.79	33532.86
519.96	33544.56
520.14	33359.66
520.31	33235.61
520.48	33647.54
520.65	33315.19
520.83	33879.25
521.00	33654.56
521.17	34082.88
521.34	34143.74
521.52	34127.35
521.69	34134.37
521.86	34281.83
522.03	34522.90
522.20	34033.73
522.38	34391.83
522.55	34644.61
522.72	34473.75
522.89	34579.07
523.07	34515.88
523.24	34855.26
523.41	34686.74
523.58	34911.43
523.75	35302.30
523.92	35332.73
524.10	35253.15
524.27	35222.72
524.44	35412.31
524.61	34951.22
524.78	35440.39
524.96	36006.80
525.13	35119.74
525.30	35744.66
525.47	35681.47
525.64	35384.22
525.81	35683.81
525.98	36133.19
526.16	35735.30
526.33	35510.61
526.50	35770.41
526.67	35615.93
526.84	35690.83
527.01	35644.02
527.18	35955.31
527.36	35988.08
527.53	36098.08
527.70	36531.08
527.87	36210.43
528.04	36205.75
528.21	36685.56
528.38	36060.63
528.55	36769.82
528.72	36503.00
528.89	36692.58
529.07	36861.10
529.24	36538.10
529.41	37046.00
529.58	36795.56
529.75	36669.17
529.92	36856.42
530.09	37319.84
530.26	37294.10
530.43	37523.47
530.60	36935.99
530.77	36900.89
530.94	37359.63
531.11	37294.10
531.28	37471.98
531.46	37432.19
531.63	37500.06
531.80	37654.54
531.97	37429.85
532.14	37514.11
532.31	37610.07
532.48	37806.67
532.65	37876.89
532.82	37514.11
532.99	38124.99
533.16	37631.13
533.33	38136.69
533.50	38445.64
533.67	38127.33
533.84	37778.59
534.01	38433.94
534.18	38024.34
534.35	38635.22
534.52	38389.47
534.69	38171.80
534.86	38775.66
535.03	37982.21
535.20	38841.19
535.37	38838.85
535.54	39143.12
535.71	38377.76
535.88	38555.64
536.05	38539.26
536.22	39054.18
536.38	38639.90
536.55	38476.07
536.72	38852.89
536.89	38810.76
537.06	38850.55
537.23	38895.02
537.40	39077.58
537.57	39091.63
537.74	38806.08
537.91	39419.30
538.08	39330.36
538.25	39159.50
538.42	39342.06
538.59	40041.88
538.75	39119.71
538.92	39452.07
539.09	39145.46
539.26	39344.41
539.43	39510.58
539.60	39709.53
539.77	39330.36
539.94	39688.46
540.11	39419.30
540.28	40009.12
540.44	40215.08
540.61	39592.50
540.78	39423.98
540.95	39276.53
541.12	39480.16
541.29	39974.01
541.46	39983.37
541.62	40341.47
541.79	40179.98
541.96	40105.08
542.13	40119.12
542.30	39810.17
542.47	40313.39
542.63	39821.87
542.80	40357.86
542.97	40804.90
543.14	40334.45
543.31	41081.08
543.48	40720.64
543.64	41277.69
543.81	40884.48
543.98	41027.25
544.15	40765.11
544.32	41062.36
544.48	41481.31
544.65	40837.67
544.82	41106.83
544.99	41022.57
545.16	41212.15
545.32	40898.52
545.49	41577.28
545.66	41525.78
545.83	41443.87
546.00	41476.63
546.16	41467.27
546.33	40856.39
546.50	41151.30
546.67	41434.50
546.83	40992.14
547.00	41413.44
547.17	41474.29
547.34	41652.17
547.50	41694.30
547.67	41867.50
547.84	41724.73
548.00	41865.16
548.17	42073.47
548.34	41722.39
548.51	41951.76
548.67	42286.46
548.84	42209.22
549.01	41591.32
549.18	41867.50
549.34	41834.74
549.51	42375.40
549.68	41830.05
549.84	42628.18
550.01	41947.08
550.18	42462.00
550.34	42249.01
550.51	41759.84
550.68	42340.29
550.84	42089.85
551.01	42089.85
551.18	42211.56
551.34	42253.69
551.51	42485.40
551.68	42576.69
551.84	42031.34
552.01	42309.86
552.18	42555.62
552.34	42403.49
552.51	42941.81
552.68	42529.87
552.84	42445.62
553.01	42784.99
553.18	42499.45
553.34	42656.26
553.51	42520.51
553.67	42773.29
553.84	42960.53
554.01	42644.56
554.17	42775.63
554.34	42866.91
554.51	43075.22
554.67	43143.09
554.84	42944.15
555.00	42979.26
555.17	43320.98
555.33	43234.38
555.50	43098.62
555.67	42890.32
555.83	43147.78
556.00	43107.99
556.16	43332.68
556.33	43360.76
556.50	42981.60
556.66	43117.35
556.83	42981.60
556.99	43578.43
557.16	43648.65
557.32	43620.56
557.49	43686.10
557.65	43346.72
557.82	43468.43
557.98	43496.52
558.15	43414.60
558.32	43243.74
558.48	43648.65
558.65	43302.25
558.81	43140.75
558.98	43042.45
559.14	43339.70
559.31	43292.89
559.47	43330.34
559.64	43885.04
559.80	43594.82
559.97	43618.22
560.13	43054.15
560.30	43548.01
560.46	44046.54
560.63	43990.37
560.79	43775.04
560.96	43515.24
561.12	43880.36
561.29	43658.01
561.45	43927.17
561.61	43863.98
561.78	43756.32
561.94	43669.72
562.11	43812.49
562.27	43873.34
562.44	43704.82
562.60	44315.70
562.77	44112.08
562.93	44037.18
563.10	44259.53
563.26	43531.62
563.42	44149.53
563.59	43501.20
563.75	43768.02
563.92	43580.78
564.08	44004.41
564.24	44509.97
564.41	43945.90
564.57	44217.40
564.74	43936.54
564.90	43882.70
565.07	44123.78
565.23	44198.68
565.39	44196.34
565.56	44259.53
565.72	43852.28
565.88	43934.20
566.05	44423.37
566.21	44074.63
566.38	44074.63
566.54	44011.43
566.70	44648.06
566.87	44638.70
567.03	44215.06
567.19	44856.37
567.36	44210.38
567.52	43908.45
567.68	44287.62
567.85	44105.06
568.01	44603.59
568.17	44828.28
568.34	44074.63
568.50	43866.32
568.66	44095.69
568.83	44325.07
568.99	43924.83
569.15	44346.13
569.32	44243.15
569.48	43861.64
569.64	44381.24
569.81	44165.91
569.97	44568.48
570.13	44325.07
570.30	43707.16
570.46	44156.55
570.62	44133.14
570.78	44268.89
570.95	43903.77
571.11	44282.94
571.27	44514.65
571.43	44287.62
571.60	44306.34
571.76	44418.69
571.92	44161.23
572.09	44683.17
572.25	44341.45
572.41	44362.51
572.57	44516.99
572.74	44704.23
572.90	44341.45
573.06	44790.83
573.22	44397.62
573.38	44320.38
573.55	44322.72
573.71	44676.15
573.87	44591.89
574.03	44442.09
574.20	44524.01
574.36	44098.03
574.52	44538.05
574.68	44435.07
574.84	44535.71
575.01	44725.30
575.17	44364.85
575.33	44404.64
575.49	44348.47
575.65	44304.00
575.82	44795.51
575.98	44481.88
576.14	44701.89
576.30	44760.40
576.46	44545.08
576.62	44453.79
576.79	44336.77
576.95	44041.86
577.11	44414.01
577.27	44762.75
577.43	44318.04
577.59	44729.98
577.75	44500.61
577.92	43845.26
578.08	44172.93
578.24	44531.03
578.40	44830.62
578.56	44554.44
578.72	45003.82
578.88	44767.43
579.04	44769.77
579.21	44823.60
579.37	44889.13
579.53	44048.88
579.69	44266.55
579.85	44378.90
580.01	44484.22
580.17	44575.50
580.33	44261.87
580.49	45247.24
580.65	44907.86
580.82	44800.19
580.98	44886.79
581.14	44325.07
581.30	44783.81
581.46	44914.88
581.62	44526.35
581.78	44692.53
581.94	45099.78
582.10	44484.22
582.26	44975.73
582.42	44903.18
582.58	44673.81
582.74	44509.97
582.90	44395.28
583.06	44507.63
583.22	45205.11
583.38	45123.19
583.54	45109.14
583.70	44809.56
583.86	44732.32
584.02	44425.71
584.18	44814.24
584.34	44598.91
584.50	44732.32
584.66	44556.78
584.82	43889.73
584.98	45148.93
585.14	44996.80
585.30	44779.13
585.46	44718.28
585.62	44729.98
585.78	44467.84
585.94	44397.62
586.10	44626.99
586.26	44814.24
586.42	44762.75
586.58	45059.99
586.74	44842.32
586.90	44847.00
587.06	44692.53
587.22	44634.02
587.38	44210.38
587.54	45031.91
587.70	45205.11
587.86	44720.62
588.02	44467.84
588.18	44821.26
588.34	44563.80
588.49	44573.16
588.65	44364.85
588.81	44381.24
588.97	44648.06
589.13	44645.72
589.29	44526.35
589.45	44329.75
589.61	44643.38
589.77	44516.99
589.93	44842.32
590.08	45120.85
590.24	44769.77
590.40	45469.59
590.56	44896.16
590.72	45352.56
590.88	45043.61
591.04	45001.48
591.20	45507.04
591.35	45418.10
591.51	45614.70
591.67	45272.98
591.83	45031.91
591.99	44968.71
592.15	45354.90
592.31	45214.47
592.46	44957.01
592.62	44903.18
592.78	45165.32
592.94	45315.11
593.10	45212.13
593.26	45251.92
593.41	45153.62
593.57	44617.63
593.73	44748.70
593.89	45375.97
594.05	45155.96
594.20	44973.39
594.36	45401.71
594.52	44935.95
594.68	45001.48
594.84	44753.38
594.99	45586.61
595.15	45219.15
595.31	45488.31
595.47	44854.03
595.62	45111.49
595.78	45247.24
595.94	45193.40
596.10	45490.65
596.25	45333.84
596.41	45134.89
596.57	45085.74
596.73	45619.38
596.88	44772.11
597.04	45102.12
597.20	45368.94
597.36	45319.79
597.51	45170.00
597.67	45612.36
597.83	45027.23
597.99	45638.11
598.14	45598.32
598.30	45111.49
598.46	45228.51
598.61	44842.32
598.77	45170.00
598.93	45071.70
599.09	45029.57
599.24	45780.88
599.40	45373.63
599.56	45399.37
599.71	45453.20
599.87	45572.57
600.03	45036.59
600.18	44935.95
600.34	45162.98
600.50	45127.87
600.65	45052.97
600.81	44978.07
600.97	45418.10
601.12	45148.93
601.28	45462.57
601.44	45130.21
601.59	44818.92
601.75	44938.29
601.91	44811.90
602.06	44694.87
602.22	44849.35
602.37	44919.56
602.53	45071.70
602.69	45720.02
602.84	45584.27
603.00	44800.19
603.16	44870.41
603.31	44949.99
603.47	45031.91
603.62	45202.77
603.78	45242.56
603.94	45265.96
604.09	45141.91
604.25	45408.73
604.40	45418.10
604.56	44985.10
604.71	44828.28
604.87	44893.82
605.03	44875.09
605.18	45085.74
605.34	45043.61
605.49	45062.33
605.65	44849.35
605.80	44683.17
605.96	45392.35
606.12	45382.99
606.27	45074.04
606.43	44828.28
606.58	45010.84
606.74	45198.09
606.89	44987.44
607.05	45059.99
607.20	45240.21
607.36	44643.38
607.51	45020.20
607.67	45003.82
607.82	44832.96
607.98	44975.73
608.13	44673.81
608.29	44662.10
608.44	44615.29
608.60	44863.39
608.75	44762.75
608.91	44648.06
609.06	44282.94
609.22	44390.60
609.37	44659.76
609.53	44336.77
609.68	44676.15
609.84	44378.90
609.99	44694.87
610.15	44680.83
610.30	44573.16
610.46	44018.46
610.61	44392.94
610.76	44910.20
610.92	44605.93
611.07	44584.86
611.23	44341.45
611.38	44856.37
611.54	44678.49
611.69	44395.28
611.84	44514.65
612.00	44378.90
612.15	44430.39
612.31	44718.28
612.46	44294.64
612.62	44184.63
612.77	44318.04
612.92	44982.76
613.08	43812.49
613.23	44673.81
613.39	44233.78
613.54	43880.36
613.69	43885.04
613.85	44399.96
614.00	44053.56
614.15	44711.25
614.31	44088.67
614.46	44526.35
614.62	44802.53
614.77	43992.71
614.92	44041.86
615.08	43611.20
615.23	43873.34
615.38	44257.19
615.54	43662.69
615.69	44065.27
615.84	44076.97
616.00	44135.48
616.15	44032.50
616.30	44231.44
616.46	43447.36
616.61	43550.35
616.76	43910.79
616.92	43690.78
617.07	43316.29
617.22	43522.26
617.37	43196.93
617.53	43632.27
617.68	43791.42
617.83	43737.59
617.99	43639.29
618.14	43559.71
618.29	43229.69
618.45	43349.06
618.60	43449.70
618.75	43496.52
618.90	43412.26
619.06	43449.70
619.21	43323.32
619.36	43847.60
619.51	43526.94
619.67	43276.51
619.82	43393.53
619.97	43555.03
620.12	43379.49
620.28	42906.70
620.43	43370.13
620.58	42953.51
620.73	43370.13
620.89	43079.90
621.04	43330.34
621.19	43065.86
621.34	42880.95
621.49	42864.57
621.65	43140.75
621.80	42880.95
621.95	42710.10
622.10	42518.17
622.25	42672.65
622.41	42356.67
622.56	42880.95
622.71	42995.64
622.86	42735.84
623.01	42878.61
623.16	42976.92
623.32	42436.25
623.47	42529.87
623.62	42885.64
623.77	42457.32
623.92	43016.71
624.07	42251.35
624.23	42462.00
624.38	42366.04
624.53	42220.92
624.68	42157.73
624.83	42405.83
624.98	42543.92
625.13	42532.22
625.29	42085.17
625.44	42249.01
625.59	42417.53
625.74	41930.70
625.89	42223.26
626.04	42169.43
626.19	41830.05
626.34	42698.39
626.49	42202.20
626.65	42218.58
626.80	42380.08
626.95	42190.50
627.10	42197.52
627.25	42110.92
627.40	41862.82
627.55	41935.38
627.70	41696.64
627.85	41493.02
628.00	42005.59
628.15	41411.10
628.30	41914.31
628.45	41855.80
628.60	42078.15
628.76	41844.10
628.91	42078.15
629.06	41621.75
629.21	41598.34
629.36	41567.91
629.51	41848.78
629.66	41481.31
629.81	40893.84
629.96	41858.14
630.11	41614.72
630.26	41605.36
630.41	41659.20
630.56	41291.73
630.71	41635.79
630.86	41275.35
631.01	41546.85
631.16	41469.61
631.31	40954.69
631.46	40985.12
631.61	41256.62
631.76	41045.97
631.91	41572.60
632.06	41844.10
632.21	41523.44
632.36	41160.66
632.51	41193.43
632.66	40830.65
632.81	40650.42
632.96	40746.39
633.10	41315.14
633.25	41104.49
633.40	40889.16
633.55	41081.08
633.70	41345.56
633.85	40924.27
634.00	40935.97
634.15	41031.93
634.30	40786.18
634.45	40851.71
634.60	40802.56
634.75	41074.06
634.90	41010.87
635.05	40245.51
635.19	40442.12
635.34	40472.54
635.49	40446.80
635.64	40355.52
635.79	40435.10
635.94	40390.62
636.09	40390.62
636.24	40442.12
636.39	39810.17
636.53	40023.16
636.68	40318.07
636.83	40306.37
636.98	40055.93
637.13	40058.27
637.28	40053.59
637.43	40421.05
637.57	40715.96
637.72	40154.23
637.87	39901.45
638.02	40378.92
638.17	40271.26
638.32	40168.27
638.46	40023.16
638.61	40067.63
638.76	39744.64
638.91	40287.64
639.06	40098.06
639.20	40105.08
639.35	39864.00
639.50	40051.25
639.65	39945.92
639.80	39821.87
639.94	39515.26
640.09	39737.62
640.24	39613.57
640.39	39742.30
640.54	39608.89
640.68	39440.37
640.83	39807.83
640.98	39786.77
641.13	39803.15
641.27	40105.08
641.42	39262.49
641.57	39714.21
641.72	39321.00
641.86	39192.27
642.01	39182.91
642.16	39449.73
642.31	38993.32
642.45	39400.58
642.60	38873.96
642.75	39351.43
642.90	39400.58
643.04	38883.32
643.19	39292.91
643.34	39248.44
643.48	38995.67
643.63	38918.43
643.78	38600.12
643.93	38803.74
644.07	38731.18
644.22	39339.72
644.37	38698.42
644.51	39028.43
644.66	39192.27
644.81	39005.03
644.95	38785.02
645.10	39262.49
645.25	39309.30
645.39	38911.41
645.54	38932.47
645.69	38822.47
645.83	38581.39
645.98	38904.38
646.13	39194.61
646.27	38930.13
646.42	38899.70
646.57	38525.22
646.71	38775.66
646.86	38539.26
647.00	38618.84
647.15	38787.36
647.30	38759.27
647.44	38473.73
647.59	38656.29
647.74	38440.96
647.88	38656.29
648.03	38906.73
648.17	38429.26
648.32	38391.81
648.47	38263.08
648.61	38050.09
648.76	38466.70
648.90	38761.61
649.05	38593.09
649.20	38653.95
649.34	38190.52
649.49	37921.36
649.63	38230.31
649.78	37872.21
649.92	38026.68
650.07	38188.18
650.21	38124.99
650.36	37958.81
650.51	37759.86
650.65	38492.45
650.80	38670.33
650.94	38279.46
651.09	38195.20
651.23	37998.60
651.38	38029.02
651.52	37825.40
651.67	37750.50
651.81	37460.27
651.96	37350.27
652.10	37708.37
652.25	37741.14
652.39	37902.64
652.54	37853.48
652.68	37991.58
652.83	37881.57
652.97	37895.61
653.12	37675.60
653.26	37605.39
653.41	37867.53
653.55	37446.23
653.70	37397.08
653.84	37684.97
653.99	37518.79
654.13	37570.28
654.27	37212.18
654.42	37570.28
654.56	37216.86
654.71	37600.71
654.85	37223.88
655.00	37399.42
655.14	37118.56
655.29	36921.95
655.43	36959.40
655.57	37106.85
655.72	36943.02
655.86	36634.06
656.01	36886.84
656.15	37017.91
656.30	36711.30
656.44	37214.52
656.58	36793.22
656.73	36589.59
656.87	36765.14
657.01	36437.46
657.16	36891.52
657.30	36645.77
657.45	36961.74
657.59	36680.88
657.73	36072.34
657.88	37017.91
658.02	37336.23
658.16	36348.52
658.31	36994.51
658.45	36732.37
658.60	36430.44
658.74	36580.23
658.88	36664.49
659.03	36245.54
659.17	36470.23
659.31	36264.26
659.46	36290.01
659.60	36418.74
659.74	36355.54
659.89	36128.51
660.03	36163.62
660.17	36123.83
660.32	35857.01
660.46	35910.84
660.60	35990.42
660.74	36039.57
660.89	36018.50
661.03	35847.64
661.17	35756.36
661.32	35306.98
661.46	35737.64
661.60	35463.80
661.74	35529.33
661.89	35491.88
662.03	35601.89
662.17	35295.28
662.31	35206.34
662.46	35508.27
662.60	35491.88
662.74	35302.30
662.88	35342.09
663.03	34810.79
663.17	35257.83
663.31	34965.26
663.45	34864.62
663.60	35220.38
663.74	35161.87
663.88	34852.92
664.02	34707.80
664.17	34895.05
664.31	34862.28
664.45	34691.42
664.59	34801.43
664.73	34925.47
664.88	34499.50
665.02	34665.67
665.16	34010.32
665.30	34487.79
665.44	34448.00
665.59	34239.70
665.73	33947.13
665.87	33912.02
666.01	34143.74
666.15	33883.94
666.29	34143.74
666.44	34005.64
666.58	34022.03
666.72	33542.22
666.86	33977.56
667.00	33968.19
667.14	33380.72
667.28	33514.13
667.43	33263.69
667.57	33677.97
667.71	33923.72
667.85	33502.43
667.99	33509.45
668.13	33600.73
668.27	33528.17
668.41	33214.54
668.56	33062.41
668.70	33570.30
668.84	33738.82
668.98	32933.68
669.12	32816.65
669.26	32875.16
669.40	32411.74
669.54	32606.00
669.68	32669.20
669.82	32751.12
669.96	33020.28
670.10	32418.76
670.25	32882.19
670.39	32746.44
670.53	32615.37
670.67	32140.24
670.81	32498.34
670.95	32432.80
671.09	32095.77
671.23	32226.84
671.37	32341.52
671.51	32362.59
671.65	32177.68
671.79	31995.12
671.93	31798.52
672.07	31569.15
672.21	32156.62
672.35	31819.58
672.49	31718.94
672.63	31913.20
672.77	31524.68
672.91	31866.39
673.05	31356.16
673.19	31639.36
673.33	31222.75
673.47	31140.83
673.61	30937.20
673.75	31040.18
673.89	30848.26
674.03	31007.42
674.17	30525.27
674.31	30616.55
674.45	30876.35
674.59	31192.32
674.73	30808.47
674.87	30199.93
675.01	30593.14
675.15	30614.21
675.29	30328.66
675.43	30223.34
675.56	30426.96
675.70	30174.19
675.84	29869.92
675.98	28919.66
676.12	30272.49
676.26	30017.37
676.40	29743.53
676.54	30038.44
676.68	29701.40
676.82	29469.69
676.96	29652.25
677.10	29401.81
677.23	29584.37
677.37	29095.20
677.51	29055.41
677.65	29233.29
677.79	28514.75
677.93	28685.61
678.07	28964.13
678.21	28716.03
678.34	28257.29
678.48	28276.01
678.62	28407.08
678.76	28067.70
678.90	27943.66
679.04	27812.59
679.18	28208.14
679.31	27728.33
679.45	27681.52
679.59	27033.19
679.73	27459.16
679.87	27414.69
680.00	27641.73
680.14	27112.77
680.28	27372.57
680.42	27084.68
680.56	27417.04
680.70	27421.72
680.83	27557.47
680.97	26951.27
681.11	27091.70
681.25	26920.84
681.39	27028.51
681.52	26876.37
681.66	26326.35
681.80	26611.89
681.94	26431.67
682.07	26232.72
682.21	26316.98
682.35	26059.52
682.49	25956.54
682.62	25998.67
682.76	25923.77
682.90	26047.82
683.04	25713.13
683.17	25373.75
683.31	25558.65
683.45	25497.80
683.59	25544.61
683.72	25448.64
683.86	25078.84
684.00	24982.88
684.13	25467.37
684.27	24924.36
684.41	24755.85
684.55	24503.07
684.68	24877.55
684.82	24641.16
684.96	24465.62
685.09	24629.46
685.23	24498.39
685.37	24339.23
685.50	24713.72
685.64	24360.30
685.78	24121.56
685.91	23903.89
686.05	23632.39
686.19	23704.95
686.32	23592.60
686.46	23363.23
686.60	23197.05
686.73	23365.57
686.87	23360.89
687.01	22696.17
687.14	23023.85
687.28	22951.29
687.42	23419.40
687.55	22895.12
687.69	23185.35
687.82	22965.34
687.96	23014.49
688.10	22834.27
688.23	22534.68
688.37	22305.31
688.50	21912.10
688.64	22239.77
688.78	22188.28
688.91	22436.38
689.05	22328.71
689.18	22087.64
689.32	21750.60
689.46	21907.41
689.59	21891.03
689.73	22008.06
689.86	21741.24
690.00	21579.74
690.13	21511.86
690.27	21289.51
690.41	21343.35
690.54	20814.38
690.68	20865.88
690.81	20872.90
690.95	20905.66
691.08	20718.42
691.22	20723.10
691.35	20900.98
691.49	20690.34
691.62	21146.74
691.76	20671.61
691.89	20641.18
692.03	20318.19
692.16	20159.03
692.30	20297.13
692.43	19719.01
692.57	19948.39
692.70	19873.49
692.84	19903.92
692.97	19777.53
693.11	19555.18
693.24	19323.46
693.38	19426.45
693.51	19531.77
693.65	19838.38
693.78	19590.28
693.92	19555.18
694.05	19330.48
694.19	19344.53
694.32	19007.49
694.45	18560.45
694.59	19028.56
694.72	18654.07
694.86	18906.85
694.99	18635.35
695.13	18523.00
695.26	18485.55
695.39	18586.19
695.53	18317.03
695.66	18490.23
695.80	18490.23
695.93	18139.15
696.07	18235.11
696.20	18274.90
696.33	18087.66
696.47	17738.92
696.60	17884.03
696.73	17898.08
696.87	17495.50
697.00	17736.58
697.14	17605.51
697.27	17429.97
697.40	17490.82
697.54	17303.58
697.67	17200.60
697.80	17106.98
697.94	16666.95
698.07	16863.56
698.21	16489.07
698.34	16655.25
698.47	16793.34
698.61	16402.47
698.74	16585.04
698.87	16388.43
699.01	15892.24
699.14	16149.70
699.27	16210.55
699.40	16322.90
699.54	16081.82
699.67	15910.96
699.80	15903.94
699.94	15796.28
700.07	15957.77
700.20	15620.74
700.34	15730.74
700.47	15807.98
700.60	15796.28
700.73	16098.20
700.87	15700.31
701.00	15466.26
701.13	15658.18
701.26	15419.45
701.40	15302.42
701.53	15250.93
701.66	15063.69
701.79	14934.96
701.93	14974.75
702.06	15026.24
702.19	14759.42
702.32	14808.57
702.46	14436.42
702.59	14417.70
702.72	14588.56
702.85	14398.98
702.99	14483.24
703.12	14588.56
703.25	14340.46
703.38	14260.88
703.51	14244.50
703.65	14057.26
703.78	14066.62
703.91	14085.34
704.04	13994.06
704.17	14087.68
704.31	13982.36
704.44	13650.00
704.57	13760.01
704.70	13745.97
704.83	13474.46
704.96	13628.94
705.10	13635.96
705.23	13500.21
>>>>>End Processed Spectral Data<<<<<
