SpectraSuite Data File
++++++++++++++++++++++++++++++++++++
Date: Fri Oct 25 10:44:28 EDT 2013
User: price-jones
Dark Spectrum Present: No
Reference Spectrum Present: No
Number of Sampled Component Spectra: 1
Spectrometers: USB2+H05261
Integration Time (usec): 100000 (USB2+H05261)
Spectra Averaged: 1 (USB2+H05261)
Boxcar Smoothing: 0 (USB2+H05261)
Correct for Electrical Dark: No (USB2+H05261)
Strobe/Lamp Enabled: No (USB2+H05261)
Correct for Detector Non-linearity: No (USB2+H05261)
Correct for Stray Light: No (USB2+H05261)
Number of Pixels in Processed Spectrum: 2048
>>>>>Begin Processed Spectral Data<<<<<
365.73	166.18
365.92	166.18
366.12	166.18
366.32	53.83
366.52	4.68
366.72	35.11
366.91	32.77
367.11	9.36
367.31	21.06
367.51	37.45
367.70	11.70
367.90	39.79
368.10	7.02
368.30	39.79
368.49	32.77
368.69	112.35
368.89	42.13
369.09	0.00
369.28	86.60
369.48	79.58
369.68	32.77
369.87	86.60
370.07	161.50
370.27	161.50
370.47	159.16
370.66	435.34
370.86	491.51
371.06	519.60
371.25	435.34
371.45	449.38
371.65	475.13
371.84	425.98
372.04	491.51
372.24	538.32
372.44	479.81
372.63	498.53
372.83	531.30
373.03	435.34
373.22	517.26
373.42	519.60
373.62	564.07
373.81	634.29
374.01	578.11
374.21	517.26
374.40	543.00
374.60	561.73
374.79	573.43
374.99	592.16
375.19	543.00
375.38	493.85
375.58	603.86
375.78	641.31
375.97	631.94
376.17	641.31
376.37	564.07
376.56	725.57
376.76	739.61
376.95	690.46
377.15	599.18
377.35	641.31
377.54	695.14
377.74	615.56
377.93	631.94
378.13	657.69
378.33	706.84
378.52	641.31
378.72	629.60
378.91	671.73
379.11	674.07
379.31	603.86
379.50	613.22
379.70	709.18
379.89	667.05
380.09	664.71
380.28	634.29
380.48	739.61
380.68	704.50
380.87	753.65
381.07	702.16
381.26	751.31
381.46	711.52
381.65	706.84
381.85	725.57
382.04	704.50
382.24	641.31
382.43	645.99
382.63	727.91
382.83	760.67
383.02	748.97
383.22	767.70
383.41	739.61
383.61	812.17
383.80	807.48
384.00	720.88
384.19	793.44
384.39	744.29
384.58	816.85
384.78	887.06
384.97	765.36
385.17	819.19
385.36	786.42
385.56	837.91
385.75	798.12
385.95	800.46
386.14	854.30
386.34	924.51
386.53	917.49
386.72	828.55
386.92	891.74
387.11	798.12
387.31	884.72
387.50	856.64
387.70	870.68
387.89	856.64
388.09	873.02
388.28	861.32
388.48	837.91
388.67	919.83
388.86	968.98
389.06	961.96
389.25	961.96
389.45	936.21
389.64	952.60
389.84	1046.22
390.03	1116.44
390.22	1104.73
390.42	992.39
390.61	1025.15
390.81	1069.62
391.00	959.62
391.19	971.32
391.39	1029.84
391.58	983.02
391.78	1029.84
391.97	1029.84
392.16	983.02
392.36	1018.13
392.55	950.26
392.75	1062.60
392.94	1036.86
393.13	1004.09
393.33	973.66
393.52	1032.18
393.71	1125.80
393.91	1086.01
394.10	1149.20
394.29	1156.22
394.49	1207.72
394.68	1219.42
394.88	1266.23
395.07	1294.32
395.26	1245.16
395.46	1158.57
395.65	1252.19
395.84	1198.35
396.04	1284.95
396.23	1207.72
396.42	1156.22
396.62	1137.50
396.81	1287.29
397.00	1214.74
397.19	1252.19
397.39	1231.12
397.58	1444.11
397.77	1362.19
397.97	1472.20
398.16	1376.24
398.35	1432.41
398.55	1458.15
398.74	1441.77
398.93	1509.65
399.12	1490.92
399.32	1540.07
399.51	1490.92
399.70	1533.05
399.90	1493.26
400.09	1619.65
400.28	1661.78
400.47	1645.40
400.67	1586.88
400.86	1657.10
401.05	1598.59
401.24	1760.08
401.44	1631.35
401.63	1739.02
401.82	1650.08
402.01	1666.46
402.21	1757.74
402.40	1804.55
402.59	1717.95
402.78	1827.96
402.97	1736.68
403.17	1867.75
403.36	1856.04
403.55	1806.89
403.74	1839.66
403.93	1881.79
404.13	1809.23
404.32	1898.17
404.51	1930.94
404.70	2031.58
404.89	1809.23
405.09	1975.41
405.28	1954.35
405.47	1879.45
405.66	1989.46
405.85	1991.80
406.05	1933.28
406.24	1982.43
406.43	2008.18
406.62	2033.93
406.81	2242.23
407.00	1982.43
407.20	2085.42
407.39	2054.99
407.58	2150.95
407.77	2249.25
407.96	2167.34
408.15	2279.68
408.34	2216.49
408.54	2218.83
408.73	2338.20
408.92	2349.90
409.11	2429.48
409.30	2239.89
409.49	2249.25
409.68	2197.76
409.87	2349.90
410.07	2399.05
410.26	2420.11
410.45	2328.83
410.64	2382.67
410.83	2429.48
411.02	2523.10
411.21	2565.23
411.40	2527.78
411.59	2619.06
411.78	2710.34
411.98	2572.25
412.17	2663.53
412.36	2654.17
412.55	2722.04
412.74	2766.51
412.93	2796.94
413.12	2705.66
413.31	2846.09
413.50	2703.32
413.69	2764.17
413.88	2953.76
414.07	2871.84
414.26	2944.39
414.45	2977.16
414.64	2841.41
414.83	3124.62
415.02	2935.03
415.22	3087.17
415.41	3021.63
415.60	3131.64
415.79	3302.50
415.98	3227.60
416.17	3328.24
416.36	3283.77
416.55	3262.71
416.74	3410.16
416.93	3201.85
417.12	3215.90
417.31	3393.78
417.50	3382.07
417.69	3590.38
417.88	3407.82
418.07	3442.93
418.26	3356.33
418.45	3482.72
418.64	3763.58
418.83	3641.87
419.02	3552.93
419.21	3606.77
419.39	3609.11
419.58	3595.06
419.77	3611.45
419.96	3660.60
420.15	3709.75
420.34	3620.81
420.53	3770.60
420.72	3871.25
420.91	3864.22
421.10	3831.46
421.29	3939.12
421.48	3861.88
421.67	3981.25
421.86	3712.09
422.05	3705.07
422.24	3838.48
422.43	3840.82
422.61	3854.86
422.80	3911.04
422.99	3791.67
423.18	3777.62
423.37	4002.32
423.56	4016.36
423.75	4023.38
423.94	3880.61
424.13	3576.34
424.32	3733.15
424.50	3969.55
424.69	4053.81
424.88	4098.28
425.07	3967.21
425.26	3908.69
425.45	4086.58
425.64	3852.52
425.83	3927.42
426.01	4039.76
426.20	4070.19
426.39	4049.13
426.58	4081.89
426.77	3868.91
426.96	3847.84
427.15	3913.38
427.33	3997.64
427.52	4135.73
427.71	4121.68
427.90	4173.18
428.09	4283.18
428.28	4128.70
428.46	4063.17
428.65	4243.39
428.84	4358.08
429.03	4332.33
429.22	4175.52
429.40	4112.32
429.59	4149.77
429.78	3990.61
429.97	3964.87
430.16	4021.04
430.34	4168.49
430.53	4060.83
430.72	4140.41
430.91	4306.59
431.10	4372.12
431.28	4620.22
431.47	4664.69
431.66	4692.77
431.85	4634.26
432.03	4786.40
432.22	4587.45
432.41	4638.94
432.60	4652.98
432.79	4737.24
432.97	4711.50
433.16	4887.04
433.35	4709.16
433.54	4641.28
433.72	4720.86
433.91	4603.83
434.10	4711.50
434.28	4791.08
434.47	4758.31
434.66	4777.03
434.85	4975.98
435.03	5060.24
435.22	4943.21
435.41	5352.81
435.59	4940.87
435.78	5107.05
435.97	5039.17
436.16	5118.75
436.34	5137.48
436.53	5093.01
436.72	5259.18
436.90	5018.11
437.09	5149.18
437.28	5095.35
437.46	5207.69
437.65	5128.11
437.84	5210.03
438.02	5249.82
438.21	5102.37
438.40	5156.20
438.58	5364.51
438.77	5411.32
438.96	5352.81
439.14	5671.12
439.33	5605.58
439.52	5760.06
439.70	5657.07
439.89	5638.35
440.08	5816.23
440.26	5710.91
440.45	5832.62
440.63	5771.76
440.82	5928.58
441.01	5846.66
441.19	6099.44
441.38	6118.16
441.57	6230.51
441.75	6284.34
441.94	6265.61
442.12	6333.49
442.31	6420.09
442.50	6401.37
442.68	6338.17
442.87	6373.28
443.05	6366.26
443.24	6551.16
443.43	6555.84
443.61	6396.68
443.80	6698.61
443.98	6377.96
444.17	6087.73
444.35	6476.26
444.54	6518.39
444.73	6712.66
444.91	6469.24
445.10	6525.41
445.28	6471.58
445.47	6434.13
445.65	6333.49
445.84	6722.02
446.02	6502.01
446.21	6576.91
446.39	6703.29
446.58	6743.08
446.77	6834.36
446.95	6644.78
447.14	6796.92
447.32	6867.13
447.51	6764.15
447.69	6635.42
447.88	6782.87
448.06	6705.63
448.25	6738.40
448.43	6738.40
448.62	6696.27
448.80	6747.76
448.99	6836.70
449.17	6935.01
449.36	6883.52
449.54	7056.72
449.73	6979.48
449.91	7040.33
450.10	7342.26
450.28	7166.72
450.46	7183.10
450.65	7213.53
450.83	7325.88
451.02	7229.91
451.20	7190.13
451.39	7211.19
451.57	7133.95
451.76	7000.54
451.94	7368.01
452.13	7316.51
452.31	7300.13
452.49	7349.28
452.68	7234.60
452.86	7349.28
453.05	7239.28
453.23	7321.20
453.42	7344.60
453.60	7330.56
453.78	7496.74
453.97	7431.20
454.15	7269.70
454.34	7391.41
454.52	7463.97
454.70	7573.97
454.89	7613.76
455.07	7463.97
455.26	7569.29
455.44	7747.17
455.62	7737.81
455.81	7742.49
455.99	7681.64
456.17	7843.14
456.36	7840.79
456.54	7840.79
456.73	7955.48
456.91	8301.88
457.09	8173.15
457.28	8358.05
457.46	7976.55
457.64	8231.66
457.83	7913.35
458.01	8006.97
458.19	8362.73
458.38	8217.62
458.56	8266.77
458.74	8351.03
458.93	8351.03
459.11	8400.18
459.29	8393.16
459.48	8215.28
459.66	8430.61
459.84	8461.04
460.03	8622.53
460.21	8664.66
460.39	8444.65
460.57	8564.02
460.76	8468.06
460.94	8681.05
461.12	8727.86
461.31	8564.02
461.49	8762.97
461.67	8748.92
461.85	8894.04
462.04	8964.25
462.22	8922.12
462.40	8975.95
462.59	8933.82
462.77	8884.67
462.95	8990.00
463.13	9006.38
463.32	8800.41
463.50	9135.11
463.68	8926.80
463.86	8922.12
464.05	8884.67
464.23	9081.28
464.41	9139.79
464.59	8716.16
464.78	9338.74
464.96	9172.56
465.14	9219.37
465.32	9205.33
465.50	9289.59
465.69	9448.74
465.87	9149.15
466.05	9329.38
466.23	9298.95
466.41	9401.93
466.60	9308.31
466.78	9432.36
466.96	9139.79
467.14	9329.38
467.32	9453.42
467.51	9472.15
467.69	9336.40
467.87	9600.88
468.05	9430.02
468.23	9448.74
468.41	9329.38
468.60	9633.64
468.78	9685.14
468.96	9678.12
469.14	9689.82
469.32	9884.08
469.50	9455.76
469.69	9664.07
469.87	9820.89
470.05	10078.35
470.23	9851.31
470.41	9956.64
470.59	10073.67
470.77	10010.47
470.95	10019.83
471.14	10246.87
471.32	10090.05
471.50	10176.65
471.68	10228.14
471.86	10279.63
472.04	10347.51
472.22	10672.84
472.40	10305.38
472.58	10286.65
472.77	10457.51
472.95	10693.91
473.13	10902.22
473.31	10651.78
473.49	10850.72
473.67	10532.41
473.85	10534.75
474.03	10815.62
474.21	11040.31
474.39	11201.80
474.57	11049.67
474.75	11197.12
474.93	11463.94
475.12	11084.78
475.30	11311.81
475.48	11279.04
475.66	11466.28
475.84	11328.19
476.02	11426.50
476.20	11414.79
476.38	11702.68
476.56	11770.55
476.74	11831.41
476.92	12013.97
477.10	11833.75
477.28	12299.52
477.46	12219.94
477.64	12444.63
477.82	12435.27
478.00	12730.17
478.18	12641.23
478.36	12681.02
478.54	12784.01
478.72	12877.63
478.90	12947.84
479.08	13034.44
479.26	13200.62
479.44	13041.46
479.62	13371.48
479.80	13364.46
479.98	13572.77
480.16	13827.88
480.34	13472.12
480.52	13902.78
480.70	13715.54
480.88	13736.60
481.06	14223.44
481.24	14029.17
481.41	14104.07
481.59	14516.00
481.77	14431.74
481.95	14406.00
482.13	14747.72
482.31	14651.75
482.49	14656.43
482.67	14836.66
482.85	14876.44
483.03	15185.40
483.21	15274.34
483.39	15225.18
483.57	15379.66
483.74	15552.86
483.92	15887.56
484.10	15791.59
484.28	15899.26
484.46	16053.73
484.64	16521.84
484.82	16006.92
485.00	16327.58
485.18	16500.78
485.35	16732.49
485.53	16020.97
485.71	16498.44
485.89	16358.00
486.07	16369.71
486.25	17123.36
486.43	17050.80
486.61	16996.97
486.78	17254.43
486.96	17664.02
487.14	17722.54
487.32	17795.09
487.50	17991.70
487.68	18192.98
487.85	18609.60
488.03	18738.33
488.21	18649.39
488.39	18616.62
488.57	18548.75
488.75	18906.85
488.92	19288.35
489.10	19143.24
489.28	19414.74
489.46	19704.97
489.64	20023.28
489.81	20365.00
489.99	19936.68
490.17	20568.63
490.35	20456.28
490.53	20283.08
490.70	20695.02
490.88	20819.07
491.06	21048.44
491.24	20910.35
491.41	20891.62
491.59	21062.48
491.77	20723.10
491.95	21099.93
492.13	21507.18
492.30	21666.34
492.48	21687.40
492.66	21872.31
492.84	22050.19
493.01	22059.55
493.19	22125.08
493.37	22274.88
493.54	22504.25
493.72	22799.16
493.90	22724.26
494.08	22794.48
494.25	23178.33
494.43	23480.25
494.61	23459.19
494.79	23510.68
494.96	23517.70
495.14	23555.15
495.32	23917.93
495.49	23672.18
495.67	23798.57
495.85	24006.87
496.02	24390.72
496.20	24606.05
496.38	24816.70
496.55	24851.81
496.73	24954.79
496.91	25001.60
497.09	25025.01
497.26	25233.32
497.44	25238.00
497.62	25064.80
497.79	25326.94
497.97	25240.34
498.14	25422.90
498.32	25759.94
498.50	25886.32
498.67	25869.94
498.85	26111.02
499.03	26333.37
499.20	26536.99
499.38	26426.99
499.56	26808.50
499.73	26567.42
499.91	26555.72
500.08	26663.38
500.26	26518.27
500.44	26852.97
500.61	26754.66
500.79	26946.59
500.97	27058.93
501.14	27037.87
501.32	27281.28
501.49	27040.21
501.67	27243.84
501.84	27695.56
502.02	27864.08
502.20	27826.63
502.37	27756.41
502.55	27798.54
502.72	28510.07
502.90	28568.58
503.07	28304.10
503.25	28341.55
503.43	28210.48
503.60	27908.55
503.78	28367.29
503.95	28170.69
504.13	28577.94
504.30	28947.75
504.48	28678.58
504.65	29078.82
504.83	29053.07
505.01	29366.70
505.18	29296.49
505.36	29853.53
505.53	29605.44
505.71	29970.56
505.88	30012.69
506.06	29694.38
506.23	29895.66
506.41	29631.18
506.58	29694.38
506.76	30101.63
506.93	30129.72
507.11	30209.29
507.28	30426.96
507.46	30057.16
507.63	30551.01
507.81	30249.08
507.98	30190.57
508.16	30356.75
508.33	30492.50
508.50	30661.02
508.68	30607.19
508.85	31283.60
509.03	31140.83
509.20	31351.48
509.38	31735.32
509.55	31323.39
509.73	31328.07
509.90	31934.27
510.08	31285.94
510.25	31655.75
510.42	31374.88
510.60	32023.21
510.77	31735.32
510.95	32442.17
511.12	32278.33
511.30	32306.41
511.47	32554.51
511.64	32332.16
511.82	32669.20
511.99	32121.51
512.17	32872.82
512.34	32329.82
512.51	32865.80
512.69	32884.53
512.86	32802.61
513.04	32933.68
513.21	33266.03
513.38	33123.26
513.56	32606.00
513.73	33024.96
513.90	32940.70
514.08	33333.91
514.25	32896.23
514.43	33663.93
514.60	33448.60
514.77	33565.62
514.95	34125.01
515.12	33750.52
515.29	33825.42
515.47	34178.84
515.64	33993.94
515.81	33881.60
515.99	34026.71
516.16	34258.42
516.33	33795.00
516.51	34068.84
516.68	33818.40
516.85	33530.51
517.03	33687.33
517.20	33439.23
517.37	34384.81
517.54	34204.59
517.72	34389.49
517.89	34043.09
518.06	34281.83
518.24	34256.08
518.41	34548.65
518.58	34738.23
518.75	34742.91
518.93	35578.48
519.10	34787.38
519.27	34590.78
519.45	35232.08
519.62	35285.92
519.79	35491.88
519.96	35505.93
520.14	35936.59
520.31	35463.80
520.48	35777.43
520.65	35295.28
520.83	36121.49
521.00	36411.71
521.17	36079.36
521.34	36556.83
521.52	36531.08
521.69	36004.46
521.86	36486.61
522.03	36790.88
522.20	36807.26
522.38	36392.99
522.55	36470.23
522.72	36985.15
522.89	36374.27
523.07	36907.91
523.24	36790.88
523.41	37284.73
523.58	36968.76
523.75	37591.34
523.92	37291.76
524.10	37677.94
524.27	37549.21
524.44	37549.21
524.61	37694.33
524.78	37914.34
524.96	38314.57
525.13	37752.84
525.30	38244.35
525.47	38185.84
525.64	37989.24
525.81	37450.91
525.98	37785.61
526.16	37926.04
526.33	37553.90
526.50	37755.18
526.67	37509.43
526.84	37556.24
527.01	37425.17
527.18	37804.33
527.36	38197.54
527.53	38190.52
527.70	39096.31
527.87	38597.77
528.04	38731.18
528.21	39012.05
528.38	38885.66
528.55	39049.50
528.72	39143.12
528.89	39285.89
529.07	38747.57
529.24	38796.72
529.41	38869.28
529.58	38824.81
529.75	39005.03
529.92	39173.55
530.09	39494.20
530.26	39510.58
530.43	39182.91
530.60	39885.07
530.77	39332.70
530.94	39847.62
531.11	39461.43
531.28	39833.58
531.46	39702.51
531.63	40020.82
531.80	39580.80
531.97	39356.11
532.14	39571.44
532.31	39571.44
532.48	39887.41
532.65	39988.05
532.82	39732.93
532.99	40147.21
533.16	40172.96
533.33	40076.99
533.50	40470.20
533.67	40500.63
533.84	40041.88
534.01	40268.92
534.18	40460.84
534.35	40479.57
534.52	40390.62
534.69	40573.19
534.86	40371.90
535.03	40671.49
535.20	40942.99
535.37	41160.66
535.54	41041.29
535.71	41029.59
535.88	40889.16
536.05	40659.79
536.22	41069.38
536.38	40999.16
536.55	40875.12
536.72	40910.22
536.89	40928.95
537.06	41247.26
537.23	41469.61
537.40	41118.53
537.57	41340.88
537.74	41347.90
537.91	41731.75
538.08	41329.18
538.25	41523.44
538.42	41226.20
538.59	41801.97
538.75	41471.95
538.92	41593.66
539.09	41605.36
539.26	41619.41
539.43	41525.78
539.60	41593.66
539.77	41528.13
539.94	41516.42
540.11	41652.17
540.28	41776.22
540.44	41752.82
540.61	41647.49
540.78	41862.82
540.95	41567.91
541.12	41532.81
541.29	42162.41
541.46	42005.59
541.62	42466.68
541.79	42277.10
541.96	41869.84
542.13	42270.08
542.30	42108.58
542.47	42227.95
542.63	42337.95
542.80	42600.09
542.97	43100.97
543.14	43332.68
543.31	42824.78
543.48	42892.66
543.64	43241.40
543.81	43274.16
543.98	43215.65
544.15	43047.13
544.32	43117.35
544.48	43702.48
544.65	43335.02
544.82	43519.92
544.99	43009.68
545.16	43157.14
545.32	43227.35
545.49	43512.90
545.66	43679.08
545.83	43562.05
546.00	43264.80
546.16	43199.27
546.33	43262.46
546.50	43124.37
546.67	43445.02
546.83	43351.40
547.00	43510.56
547.17	43239.06
547.34	43753.97
547.50	43449.70
547.67	43618.22
547.84	44266.55
548.00	43920.15
548.17	44048.88
548.34	43908.45
548.51	43831.21
548.67	44278.25
548.84	44142.50
549.01	44023.14
549.18	43746.95
549.34	44081.65
549.51	44250.17
549.68	44437.41
549.84	44383.58
550.01	44147.18
550.18	43931.86
550.34	44100.37
550.51	44732.32
550.68	44414.01
550.84	43763.34
551.01	44296.98
551.18	44540.39
551.34	43950.58
551.51	44287.62
551.68	44671.46
551.84	44926.58
552.01	44474.86
552.18	44402.30
552.34	44229.10
552.51	44484.22
552.68	44814.24
552.84	44896.16
553.01	44975.73
553.18	44449.11
553.34	44619.97
553.51	44418.69
553.67	44561.46
553.84	44877.43
554.01	44659.76
554.17	45282.34
554.34	45059.99
554.51	45198.09
554.67	45027.23
554.84	45303.41
555.00	44910.20
555.17	45151.27
555.33	44914.88
555.50	44942.97
555.67	45104.46
555.83	45191.06
556.00	45448.52
556.16	45799.60
556.33	45298.73
556.50	45146.59
556.66	44910.20
556.83	44617.63
556.99	45074.04
557.16	45495.33
557.32	45045.95
557.49	45382.99
557.65	44821.26
557.82	45638.11
557.98	45525.76
558.15	45397.03
558.32	45471.93
558.48	45265.96
558.65	44961.69
558.81	44982.76
558.98	45155.96
559.14	45177.02
559.31	45254.26
559.47	45537.46
559.64	45638.11
559.80	45862.80
559.97	45485.97
560.13	45333.84
560.30	45326.81
560.46	45773.86
560.63	45366.60
560.79	45869.82
560.96	46003.23
561.12	45823.01
561.29	45600.66
561.45	45572.57
561.61	45839.39
561.78	45790.24
561.94	45832.37
562.11	45947.06
562.27	45799.60
562.44	45942.38
562.60	45619.38
562.77	45855.78
562.93	46117.92
563.10	45925.99
563.26	45820.67
563.42	45825.35
563.59	45677.90
563.75	45628.74
563.92	46007.91
564.08	45886.20
564.24	45975.14
564.41	45975.14
564.57	46274.73
564.74	45937.69
564.90	45834.71
565.07	45867.48
565.23	46101.53
565.39	45832.37
565.56	46038.34
565.72	45738.75
565.88	46061.74
566.05	45876.84
566.21	46050.04
566.38	46321.54
566.54	45853.44
566.70	46361.33
566.87	46555.60
567.03	46248.99
567.19	46288.77
567.36	46564.96
567.52	45790.24
567.68	46209.20
567.85	45902.59
568.01	46043.02
568.17	45881.52
568.34	46227.92
568.50	46192.81
568.66	46052.38
568.83	45958.76
568.99	45956.42
569.15	45603.00
569.32	45979.82
569.48	46265.37
569.64	46614.11
569.81	46185.79
569.97	45727.05
570.13	46120.26
570.30	45872.16
570.46	46183.45
570.62	45907.27
570.78	46036.00
570.95	45984.51
571.11	46188.13
571.27	46003.23
571.43	45837.05
571.60	46089.83
571.76	45947.06
571.92	46162.39
572.09	46593.04
572.25	45792.58
572.41	46216.22
572.57	46330.90
572.74	46740.50
572.90	46230.26
573.06	46635.17
573.22	46300.48
573.38	46370.69
573.55	46291.12
573.71	46522.83
573.87	46361.33
574.03	46192.81
574.20	46263.03
574.36	46443.25
574.52	46354.31
574.68	46703.05
574.84	46288.77
575.01	46162.39
575.17	46082.81
575.33	46010.25
575.49	45818.33
575.65	46579.00
575.82	46581.34
575.98	46038.34
576.14	46358.99
576.30	46403.46
576.46	46234.94
576.62	46274.73
576.79	46443.25
576.95	46115.58
577.11	46628.15
577.27	46522.83
577.43	46380.06
577.59	46508.79
577.75	46347.29
577.92	45909.61
578.08	45879.18
578.24	45935.35
578.40	45848.75
578.56	46312.18
578.72	45956.42
578.88	46815.40
579.04	46440.91
579.21	46555.60
579.37	46581.34
579.53	46515.81
579.69	46326.22
579.85	46422.19
580.01	46443.25
580.17	46546.23
580.33	46876.25
580.49	46803.69
580.65	46958.17
580.82	46749.86
580.98	46232.60
581.14	46197.49
581.30	46955.83
581.46	46396.44
581.62	46405.80
581.78	46464.32
581.94	46625.81
582.10	46270.05
582.26	46660.92
582.42	46476.02
582.58	46251.33
582.74	46656.24
582.90	46883.27
583.06	46703.05
583.22	46803.69
583.38	46576.66
583.54	46719.43
583.70	46567.30
583.86	46768.58
584.02	46410.48
584.18	46541.55
584.34	46174.09
584.50	46712.41
584.66	46410.48
584.82	46490.06
584.98	46913.70
585.14	46590.70
585.30	46389.42
585.46	46691.35
585.62	46340.27
585.78	46337.93
585.94	46155.36
586.10	46679.64
586.26	46679.64
586.42	46667.94
586.58	46454.95
586.74	46164.73
586.90	46033.66
587.06	46099.19
587.22	46576.66
587.38	46314.52
587.54	46536.87
587.70	46527.51
587.86	46078.13
588.02	46511.13
588.18	46436.23
588.34	46281.75
588.49	45876.84
588.65	46057.06
588.81	45893.22
588.97	46216.22
589.13	46192.81
589.29	46169.41
589.45	45918.97
589.61	46216.22
589.77	46632.83
589.93	46600.07
590.08	46550.91
590.24	46829.44
590.40	47009.66
590.56	47026.04
590.72	46637.51
590.88	46410.48
591.04	46848.16
591.20	46946.47
591.35	46920.72
591.51	46955.83
591.67	46607.09
591.83	46911.36
591.99	46576.66
592.15	46810.71
592.31	46972.21
592.46	46557.94
592.62	46747.52
592.78	46724.11
592.94	46632.83
593.10	46520.49
593.26	46941.78
593.41	46410.48
593.57	46361.33
593.73	46747.52
593.89	46625.81
594.05	46841.14
594.20	46232.60
594.36	46890.29
594.52	46391.76
594.68	46454.95
594.84	46581.34
594.99	46925.40
595.15	46614.11
595.31	46920.72
595.47	46686.67
595.62	46857.52
595.78	46834.12
595.94	47107.96
596.10	47107.96
596.25	47180.52
596.41	47077.54
596.57	46815.40
596.73	47143.07
596.88	46497.08
597.04	47040.09
597.20	46766.24
597.36	46703.05
597.51	47110.30
597.67	46974.55
597.83	47002.64
597.99	46927.74
598.14	47012.00
598.30	47023.70
598.46	46876.25
598.61	46281.75
598.77	46499.42
598.93	46312.18
599.09	46506.44
599.24	46939.44
599.40	47126.69
599.56	47138.39
599.71	46859.87
599.87	46904.34
600.03	46604.75
600.18	46733.48
600.34	46749.86
600.50	46721.77
600.65	46927.74
600.81	46834.12
600.97	46953.49
601.12	46791.99
601.28	46693.69
601.44	46354.31
601.59	46986.25
601.75	46354.31
601.91	46941.78
602.06	46344.95
602.22	47119.66
602.37	46136.64
602.53	46780.29
602.69	46939.44
602.84	46520.49
603.00	46508.79
603.16	46588.36
603.31	46787.31
603.47	46457.29
603.62	46742.84
603.78	46478.36
603.94	46852.84
604.09	46988.60
604.25	46883.27
604.40	46784.97
604.56	46335.59
604.71	46646.88
604.87	46490.06
605.03	46761.56
605.18	46124.94
605.34	46363.67
605.49	46487.72
605.65	46920.72
605.80	46656.24
605.96	46567.30
606.12	46822.42
606.27	46857.52
606.43	46469.00
606.58	46396.44
606.74	46436.23
606.89	46450.27
607.05	46719.43
607.20	46588.36
607.36	46188.13
607.51	46541.55
607.67	46703.05
607.82	46450.27
607.98	46527.51
608.13	46195.15
608.29	46178.77
608.44	45963.44
608.60	45808.96
608.75	45904.93
608.91	46281.75
609.06	46019.61
609.22	46192.81
609.37	45998.55
609.53	46038.34
609.68	46110.89
609.84	46333.24
609.99	46141.32
610.15	46019.61
610.30	45970.46
610.46	45745.77
610.61	45933.01
610.76	45982.16
610.92	46183.45
611.07	46115.58
611.23	46085.15
611.38	45935.35
611.54	45923.65
611.69	45762.15
611.84	45523.42
612.00	45715.34
612.15	45804.28
612.31	45745.77
612.46	45624.06
612.62	46288.77
612.77	45748.11
612.92	46101.53
613.08	45647.47
613.23	46007.91
613.39	45897.91
613.54	45446.18
613.69	45858.12
613.85	45408.73
614.00	45778.54
614.15	46230.26
614.31	45940.04
614.46	45542.14
614.62	45219.15
614.77	45659.17
614.92	45455.54
615.08	45450.86
615.23	45551.51
615.38	45635.77
615.54	45216.81
615.69	45298.73
615.84	45392.35
616.00	45186.38
616.15	45310.43
616.30	45715.34
616.46	44926.58
616.61	45242.56
616.76	44949.99
616.92	44563.80
617.07	44502.95
617.22	44524.01
617.37	44839.98
617.53	45244.90
617.68	45249.58
617.83	45237.87
617.99	44940.63
618.14	45354.90
618.29	44952.33
618.45	44652.74
618.60	44355.49
618.75	45006.16
618.90	44732.32
619.06	45233.19
619.21	45006.16
619.36	44891.48
619.51	44610.61
619.67	45059.99
619.82	45177.02
619.97	44751.04
620.12	44568.48
620.28	44629.34
620.43	44678.49
620.58	44512.31
620.73	44521.67
620.89	44296.98
621.04	44362.51
621.19	44626.99
621.34	44229.10
621.49	44357.83
621.65	44245.49
621.80	44622.31
621.95	44254.85
622.10	44545.08
622.25	44067.61
622.41	44170.59
622.56	44116.76
622.71	43985.69
622.86	44039.52
623.01	44013.77
623.16	44100.37
623.32	43992.71
623.47	44114.42
623.62	44294.64
623.77	44079.31
623.92	44112.08
624.07	43908.45
624.23	43697.80
624.38	44067.61
624.53	43608.86
624.68	43405.23
624.83	44027.82
624.98	44119.10
625.13	43484.81
625.29	44184.63
625.44	43739.93
625.59	43405.23
625.74	43318.64
625.89	43152.46
626.04	43140.75
626.19	43227.35
626.34	43395.87
626.49	43634.61
626.65	43526.94
626.80	44004.41
626.95	43402.89
627.10	43328.00
627.25	43203.95
627.40	43189.91
627.55	42843.51
627.70	42855.21
627.85	43005.00
628.00	43159.48
628.15	42967.55
628.30	42873.93
628.45	43318.64
628.60	42920.74
628.76	43283.53
628.91	42990.96
629.06	42892.66
629.21	43030.75
629.36	42813.08
629.51	42670.31
629.66	42476.04
629.81	42506.47
629.96	42871.59
630.11	42286.46
630.26	42794.36
630.41	42890.32
630.56	42721.80
630.71	42759.25
630.86	42356.67
631.01	42344.97
631.16	42506.47
631.31	42181.13
631.46	41846.44
631.61	42749.88
631.76	42513.49
631.91	42478.38
632.06	42609.45
632.21	42883.30
632.36	42595.41
632.51	42326.25
632.66	42293.48
632.81	41841.76
632.96	42417.53
633.10	42225.60
633.25	41762.18
633.40	42209.22
633.55	42405.83
633.70	42209.22
633.85	41816.01
634.00	41808.99
634.15	41486.00
634.30	42321.57
634.45	41626.43
634.60	41982.19
634.75	42106.24
634.90	41879.21
635.05	41654.51
635.19	41979.85
635.34	42291.14
635.49	41656.85
635.64	41654.51
635.79	41652.17
635.94	41886.23
636.09	41605.36
636.24	41799.63
636.39	41546.85
636.53	41488.34
636.68	41605.36
636.83	41804.31
636.98	41743.45
637.13	41504.72
637.28	41495.36
637.43	41720.05
637.57	41916.65
637.72	41537.49
637.87	41710.69
638.02	41467.27
638.17	41022.57
638.32	41191.09
638.46	41375.99
638.61	40966.40
638.76	41282.37
638.91	41347.90
639.06	41053.00
639.20	41233.22
639.35	41462.59
639.50	41155.98
639.65	41373.65
639.80	41684.94
639.94	41240.24
640.09	41186.41
640.24	41338.54
640.39	40477.22
640.54	40802.56
640.68	40643.40
640.83	40781.49
640.98	40573.19
641.13	40336.79
641.27	40952.35
641.42	40727.66
641.57	40442.12
641.72	40435.10
641.86	40872.78
642.01	40357.86
642.16	40500.63
642.31	40318.07
642.45	40758.09
642.60	40542.76
642.75	40926.61
642.90	40643.40
643.04	40479.57
643.19	40163.59
643.34	40563.82
643.48	40128.48
643.63	40285.30
643.78	40449.14
643.93	39983.37
644.07	39871.03
644.22	40158.91
644.37	40088.70
644.51	40278.28
644.66	40444.46
644.81	40318.07
644.95	40388.28
645.10	40313.39
645.25	40304.02
645.39	40065.29
645.54	39988.05
645.69	40053.59
645.83	39964.65
645.98	39927.20
646.13	40041.88
646.27	39894.43
646.42	39641.65
646.57	39913.16
646.71	39880.39
646.86	39880.39
647.00	40041.88
647.15	40371.90
647.30	39452.07
647.44	39545.69
647.59	39620.59
647.74	39711.87
647.88	39709.53
648.03	39651.02
648.17	39749.32
648.32	39538.67
648.47	39800.81
648.61	39246.10
648.76	39381.85
648.90	39426.32
649.05	39325.68
649.20	39576.12
649.34	39374.83
649.49	39159.50
649.63	38705.44
649.78	39433.35
649.92	39185.25
650.07	39400.58
650.21	38934.81
650.36	39255.46
650.51	39206.31
650.65	39716.55
650.80	39470.79
650.94	39248.44
651.09	38895.02
651.23	38995.67
651.38	38909.07
651.52	38667.99
651.67	38766.29
651.81	38848.21
651.96	38614.16
652.10	38829.49
652.25	38572.03
652.39	38927.79
652.54	38983.96
652.68	39129.08
652.83	38616.50
652.97	38843.53
653.12	38888.00
653.26	38719.48
653.41	38291.16
653.55	38391.81
653.70	38513.52
653.84	38579.05
653.99	38579.05
654.13	38192.86
654.27	38277.12
654.42	38265.42
654.56	38253.72
654.71	38658.63
654.85	37691.99
655.00	38639.90
655.14	38445.64
655.29	38190.52
655.43	37933.06
655.57	37968.17
655.72	37968.17
655.86	37797.31
656.01	37322.18
656.15	37464.96
656.30	37521.13
656.44	37446.23
656.58	37226.22
656.73	37308.14
656.87	38022.00
657.01	37401.76
657.16	37799.65
657.30	37701.35
657.45	37570.28
657.59	37869.87
657.73	37661.56
657.88	38258.40
658.02	37907.32
658.16	38050.09
658.31	37778.59
658.45	37830.08
658.60	37336.23
658.74	37284.73
658.88	37474.32
659.03	37256.65
659.17	37329.20
659.31	37240.26
659.46	36847.05
659.60	37401.76
659.74	37638.15
659.89	37057.70
660.03	37111.53
660.17	36842.37
660.32	36959.40
660.46	37022.59
660.60	36985.15
660.74	36889.18
660.89	37457.93
661.03	36811.95
661.17	36910.25
661.32	36163.62
661.46	36598.96
661.60	36739.39
661.74	36683.22
661.89	36514.70
662.03	36371.92
662.17	36451.50
662.31	36243.20
662.46	36594.28
662.60	36903.23
662.74	36149.57
662.88	36376.61
663.03	35899.14
663.17	36254.90
663.31	35803.17
663.45	35910.84
663.60	35732.96
663.74	36121.49
663.88	35714.23
664.02	35721.26
664.17	35997.44
664.31	35629.98
664.45	35739.98
664.59	35908.50
664.73	35473.16
664.88	35756.36
665.02	35133.78
665.16	35473.16
665.30	35187.61
665.44	34979.31
665.59	35033.14
665.73	35316.34
665.87	35023.78
666.01	34724.19
666.15	34831.85
666.29	35143.14
666.44	35225.06
666.58	34462.05
666.72	34859.94
666.86	35367.84
667.00	34768.66
667.14	34363.75
667.28	34410.56
667.43	34389.49
667.57	34288.85
667.71	34019.69
667.85	34148.42
667.99	34387.15
668.13	34202.25
668.27	34284.17
668.41	34576.73
668.56	34169.48
668.70	34314.59
668.84	34054.79
668.98	33865.21
669.12	33734.14
669.26	33706.05
669.40	33734.14
669.54	33722.44
669.68	33874.57
669.82	33600.73
669.96	33422.85
670.10	33523.49
670.25	33574.98
670.39	33694.35
670.53	32994.53
670.67	33130.28
670.81	33237.95
670.95	33661.58
671.09	33024.96
671.23	33359.66
671.37	33069.43
671.51	33153.69
671.65	32844.74
671.79	32659.84
671.93	32467.91
672.07	32701.96
672.21	33233.27
672.35	32460.89
672.49	32606.00
672.63	32591.96
672.77	32521.74
672.91	32753.46
673.05	32170.66
673.19	32266.63
673.33	31988.10
673.47	31976.40
673.61	31955.33
673.75	31775.11
673.89	31562.12
674.03	31742.35
674.17	31519.99
674.31	31793.84
674.45	31915.54
674.59	31360.84
674.73	31704.90
674.87	31592.55
675.01	31002.74
675.15	31281.26
675.29	31234.45
675.43	31440.42
675.56	31110.40
675.70	30773.36
675.84	30941.88
675.98	29858.21
676.12	30925.50
676.26	30824.86
676.40	30656.34
676.54	30693.79
676.68	30536.97
676.82	30099.29
676.96	30347.39
677.10	30504.20
677.23	29860.55
677.37	29809.06
677.51	29958.86
677.65	29551.60
677.79	29221.59
677.93	29469.69
678.07	29542.24
678.21	29104.56
678.34	29310.53
678.48	29158.39
678.62	29329.25
678.76	29024.98
678.90	28561.56
679.04	28521.77
679.18	28758.16
679.31	28734.76
679.45	28304.10
679.59	28276.01
679.73	28547.51
679.87	28121.54
680.00	28273.67
680.14	28056.00
680.28	28023.23
680.42	27899.19
680.56	28285.37
680.70	27873.44
680.83	28067.70
680.97	27941.32
681.11	27627.68
681.25	27346.82
681.39	27580.87
681.52	27473.21
681.66	27358.52
681.80	26958.29
681.94	27096.38
682.07	27253.20
682.21	27077.66
682.35	27040.21
682.49	27040.21
682.62	26749.98
682.76	26778.07
682.90	26600.19
683.04	26363.79
683.17	26246.77
683.31	25993.99
683.45	26008.03
683.59	25965.90
683.72	25818.45
683.86	25633.55
684.00	25289.49
684.13	25408.86
684.27	25282.47
684.41	25708.44
684.55	25226.29
684.68	25303.53
684.82	25071.82
684.96	25296.51
685.09	25469.71
685.23	25359.70
685.37	24774.57
685.50	24875.21
685.64	24847.13
685.78	24706.70
685.91	24514.77
686.05	24638.82
686.19	24217.52
686.32	24423.49
686.46	23852.40
686.60	23576.22
686.73	23531.75
686.87	23459.19
687.01	23290.67
687.14	23377.27
687.28	23641.75
687.42	23480.25
687.55	23264.92
687.69	23377.27
687.82	23159.60
687.96	23267.27
688.10	23377.27
688.23	23250.88
688.37	22560.42
688.50	22623.62
688.64	22780.43
688.78	22621.28
688.91	22740.64
689.05	22675.11
689.18	22263.18
689.32	22134.45
689.46	22171.89
689.59	22239.77
689.73	22127.42
689.86	22085.30
690.00	21989.33
690.13	22111.04
690.27	22106.36
690.41	21631.23
690.54	21523.57
690.68	21247.38
690.81	21205.25
690.95	21399.52
691.08	21219.30
691.22	21497.82
691.35	21523.57
691.49	21298.88
691.62	21495.48
691.76	21308.24
691.89	20954.82
692.03	20662.25
692.16	20898.64
692.30	20563.95
692.43	20552.24
692.57	20205.84
692.70	20362.66
692.84	20149.67
692.97	20063.07
693.11	20315.85
693.24	20067.75
693.38	19999.88
693.51	19819.66
693.65	19946.05
693.78	19807.95
693.92	19915.62
694.05	19609.01
694.19	19585.60
694.32	19531.77
694.45	19220.48
694.59	19042.60
694.72	18707.90
694.86	19339.85
694.99	19096.43
695.13	19051.96
695.26	18862.38
695.39	18649.39
695.53	18967.70
695.66	18738.33
695.80	18902.17
695.93	18518.32
696.07	18382.57
696.20	18590.88
696.33	18403.63
696.47	18178.94
696.60	18284.26
696.73	18071.28
696.87	18045.53
697.00	18134.47
697.14	18017.44
697.27	17844.24
697.40	18047.87
697.54	17762.33
697.67	17420.61
697.80	17383.16
697.94	17429.97
698.07	17305.92
698.21	17156.13
698.34	17202.94
698.47	17135.06
698.61	16816.75
698.74	16999.31
698.87	16613.12
699.01	16425.88
699.14	16517.16
699.27	16496.10
699.40	16484.39
699.54	16514.82
699.67	16182.46
699.80	16236.30
699.94	16336.94
700.07	16056.08
700.20	16105.23
700.34	16079.48
700.47	16182.46
700.60	16290.13
700.73	16170.76
700.87	15955.43
701.00	15920.32
701.13	15740.10
701.26	15522.43
701.40	15667.55
701.53	15279.02
701.66	15756.49
701.79	15761.17
701.93	15393.70
702.06	14993.47
702.19	15236.89
702.32	15307.10
702.46	14785.16
702.59	14885.81
702.72	15028.58
702.85	15112.84
702.99	14628.35
703.12	14747.72
703.25	14588.56
703.38	14494.94
703.51	14490.26
703.65	14223.44
703.78	14260.88
703.91	14469.19
704.04	14441.11
704.17	14012.79
704.31	14312.38
704.44	14125.13
704.57	13970.66
704.70	14087.68
704.83	13881.72
704.96	13867.67
705.10	14040.87
705.23	13839.59
>>>>>End Processed Spectral Data<<<<<
