SpectraSuite Data File
++++++++++++++++++++++++++++++++++++
Date: Fri Oct 25 11:33:12 EDT 2013
User: price-jones
Dark Spectrum Present: No
Reference Spectrum Present: No
Number of Sampled Component Spectra: 1
Spectrometers: USB2+H05261
Integration Time (usec): 100000 (USB2+H05261)
Spectra Averaged: 1 (USB2+H05261)
Boxcar Smoothing: 0 (USB2+H05261)
Correct for Electrical Dark: No (USB2+H05261)
Strobe/Lamp Enabled: No (USB2+H05261)
Correct for Detector Non-linearity: No (USB2+H05261)
Correct for Stray Light: No (USB2+H05261)
Number of Pixels in Processed Spectrum: 2048
>>>>>Begin Processed Spectral Data<<<<<
365.73	320.65
365.92	320.65
366.12	320.65
366.32	166.18
366.52	145.11
366.72	205.97
366.91	112.35
367.11	159.16
367.31	135.75
367.51	196.60
367.70	159.16
367.90	194.26
368.10	184.90
368.30	227.03
368.49	180.22
368.69	196.60
368.89	154.48
369.09	163.84
369.28	212.99
369.48	177.88
369.68	182.56
369.87	252.78
370.07	210.65
370.27	278.52
370.47	264.48
370.66	491.51
370.86	496.19
371.06	557.05
371.25	603.86
371.45	596.84
371.65	578.11
371.84	554.71
372.04	510.24
372.24	578.11
372.44	564.07
372.63	620.24
372.83	613.22
373.03	531.30
373.22	498.53
373.42	634.29
373.62	585.13
373.81	692.80
374.01	692.80
374.21	671.73
374.40	636.63
374.60	641.31
374.79	678.76
374.99	634.29
375.19	629.60
375.38	692.80
375.58	636.63
375.78	678.76
375.97	690.46
376.17	772.38
376.37	674.07
376.56	727.91
376.76	650.67
376.95	664.71
377.15	695.14
377.35	690.46
377.54	641.31
377.74	692.80
377.93	741.95
378.13	681.10
378.33	704.50
378.52	730.25
378.72	734.93
378.91	709.18
379.11	748.97
379.31	755.99
379.50	727.91
379.70	676.41
379.89	671.73
380.09	674.07
380.28	699.82
380.48	636.63
380.68	748.97
380.87	755.99
381.07	706.84
381.26	807.48
381.46	779.40
381.65	674.07
381.85	807.48
382.04	753.65
382.24	732.59
382.43	748.97
382.63	744.29
382.83	805.14
383.02	791.10
383.22	856.64
383.41	873.02
383.61	763.01
383.80	856.64
384.00	767.70
384.19	858.98
384.39	837.91
384.58	835.57
384.78	898.77
384.97	908.13
385.17	903.45
385.36	849.61
385.56	945.58
385.75	812.17
385.95	854.30
386.14	858.98
386.34	887.06
386.53	802.80
386.72	833.23
386.92	858.98
387.11	926.85
387.31	901.11
387.50	884.72
387.70	837.91
387.89	945.58
388.09	973.66
388.28	912.81
388.48	866.00
388.67	898.77
388.86	992.39
389.06	985.37
389.25	945.58
389.45	922.17
389.64	905.79
389.84	1039.20
390.03	1057.92
390.22	880.04
390.42	1018.13
390.61	929.19
390.81	994.73
391.00	1011.11
391.19	938.55
391.39	968.98
391.58	978.34
391.78	999.41
391.97	1055.58
392.16	1013.45
392.36	1050.90
392.55	1053.24
392.75	1078.99
392.94	1022.81
393.13	1128.14
393.33	1053.24
393.52	1043.88
393.71	1118.78
393.91	1200.69
394.10	1121.12
394.29	1111.75
394.49	1088.35
394.68	1039.20
394.88	999.41
395.07	1067.28
395.26	1224.10
395.46	1107.07
395.65	1224.10
395.84	1179.63
396.04	1224.10
396.23	1191.33
396.42	1107.07
396.62	1280.27
396.81	1221.76
397.00	1217.08
397.19	1331.76
397.39	1303.68
397.58	1266.23
397.77	1277.93
397.97	1226.44
398.16	1235.80
398.35	1369.21
398.55	1238.14
398.74	1270.91
398.93	1329.42
399.12	1282.61
399.32	1270.91
399.51	1331.76
399.70	1364.53
399.90	1362.19
400.09	1343.47
400.28	1383.26
400.47	1350.49
400.67	1376.24
400.86	1371.55
401.05	1364.53
401.24	1439.43
401.44	1469.86
401.63	1420.71
401.82	1427.73
402.01	1472.20
402.21	1378.58
402.40	1399.64
402.59	1516.67
402.78	1540.07
402.97	1598.59
403.17	1500.28
403.36	1598.59
403.55	1540.07
403.74	1668.80
403.93	1589.22
404.13	1650.08
404.32	1584.54
404.51	1710.93
404.70	1687.53
404.89	1685.19
405.09	1732.00
405.28	1661.78
405.47	1610.29
405.66	1636.03
405.85	1629.01
406.05	1732.00
406.24	1739.02
406.43	1795.19
406.62	1771.79
406.81	1902.86
407.00	1893.49
407.20	1762.42
407.39	1687.53
407.58	1806.89
407.77	1877.11
407.96	1940.30
408.15	1914.56
408.34	1886.47
408.54	1952.01
408.73	1923.92
408.92	1919.24
409.11	1989.46
409.30	1975.41
409.49	2069.03
409.68	1923.92
409.87	1996.48
410.07	2052.65
410.26	2085.42
410.45	2017.54
410.64	2139.25
410.83	2045.63
411.02	2132.23
411.21	2218.83
411.40	2195.42
411.59	2249.25
411.78	2174.36
411.98	2256.28
412.17	2286.70
412.36	2289.04
412.55	2363.94
412.74	2333.51
412.93	2253.94
413.12	2225.85
413.31	2441.18
413.50	2448.20
413.69	2511.39
413.88	2420.11
414.07	2429.48
414.26	2410.75
414.45	2516.08
414.64	2576.93
414.83	2602.68
415.02	2544.16
415.22	2679.91
415.41	2626.08
415.60	2644.81
415.79	2686.94
415.98	2789.92
416.17	2808.64
416.36	2883.54
416.55	2778.22
416.74	2885.88
416.93	2820.35
417.12	2911.63
417.31	2808.64
417.50	2899.92
417.69	2935.03
417.88	3087.17
418.07	2939.71
418.26	2911.63
418.45	3082.49
418.64	3084.83
418.83	3124.62
419.02	3087.17
419.21	3094.19
419.39	3070.78
419.58	3143.34
419.77	3089.51
419.96	3133.98
420.15	3225.26
420.34	3206.53
420.53	3171.43
420.72	3293.13
420.91	3194.83
421.10	3260.37
421.29	3243.98
421.48	3220.58
421.67	3201.85
421.86	3375.05
422.05	3335.26
422.24	3258.03
422.43	3361.01
422.61	3414.84
422.80	3517.83
422.99	3433.57
423.18	3588.04
423.37	3466.33
423.56	3475.70
423.75	3442.93
423.94	3288.45
424.13	3272.07
424.32	3293.13
424.50	3492.08
424.69	3585.70
424.88	3602.08
425.07	3431.23
425.26	3424.20
425.45	3417.18
425.64	3501.44
425.83	3419.52
426.01	3501.44
426.20	3655.92
426.39	3543.57
426.58	3482.72
426.77	3545.91
426.96	3592.72
427.15	3620.81
427.33	3695.71
427.52	3576.34
427.71	3646.55
427.90	3672.30
428.09	3726.13
428.28	3850.18
428.46	3721.45
428.65	3777.62
428.84	3758.90
429.03	3852.52
429.22	3779.97
429.40	3819.75
429.59	3665.28
429.78	3698.05
429.97	3716.77
430.16	3798.69
430.34	3868.91
430.53	3782.31
430.72	3889.97
430.91	3908.69
431.10	3946.14
431.28	3971.89
431.47	3978.91
431.66	4060.83
431.85	4032.74
432.03	4072.53
432.22	4105.30
432.41	4196.58
432.60	4112.32
432.79	4032.74
432.97	4177.86
433.16	4191.90
433.35	4191.90
433.54	4208.28
433.72	4252.75
433.91	4290.20
434.10	4397.87
434.28	4180.20
434.47	4304.25
434.66	4222.33
434.85	4465.74
435.03	4386.16
435.22	4222.33
435.41	4498.51
435.59	4519.57
435.78	4414.25
435.97	4552.34
436.16	4414.25
436.34	4470.42
436.53	4411.91
436.72	4521.92
436.90	4477.44
437.09	4643.62
437.28	4554.68
437.46	4578.09
437.65	4430.63
437.84	4770.01
438.02	4662.35
438.21	4765.33
438.40	4571.07
438.58	4662.35
438.77	4814.48
438.96	4692.77
439.14	4809.80
439.33	4957.25
439.52	4938.53
439.70	4922.15
439.89	5104.71
440.08	4994.70
440.26	5048.54
440.45	5036.83
440.63	5163.22
440.82	5259.18
441.01	5144.50
441.19	5249.82
441.38	5376.21
441.57	5221.74
441.75	5289.61
441.94	5645.37
442.12	5369.19
442.31	5483.88
442.50	5572.82
442.68	5448.77
442.87	5399.62
443.05	5462.81
443.24	5453.45
443.43	5631.33
443.61	5600.90
443.80	5753.04
443.98	5614.95
444.17	5540.05
444.35	5650.05
444.54	5511.96
444.73	5692.18
444.91	5731.97
445.10	5598.56
445.28	5738.99
445.47	5563.45
445.65	5600.90
445.84	5774.10
446.02	5846.66
446.21	5753.04
446.39	5703.89
446.58	5963.68
446.77	5753.04
446.95	5628.99
447.14	5689.84
447.32	5902.83
447.51	5820.91
447.69	5647.71
447.88	5755.38
448.06	5935.60
448.25	5746.02
448.43	5944.96
448.62	5916.87
448.80	5781.12
448.99	5977.73
449.17	5968.37
449.36	5888.79
449.54	5891.13
449.73	5954.32
449.91	6101.78
450.10	6017.52
450.28	6237.53
450.46	6052.63
450.65	6181.35
450.83	6090.07
451.02	6143.91
451.20	6230.51
451.39	6239.87
451.57	6200.08
451.76	6183.70
451.94	6305.40
452.13	6375.62
452.31	6340.51
452.49	6209.44
452.68	6417.75
452.86	6399.02
453.05	6424.77
453.23	6593.29
453.42	6497.33
453.60	6471.58
453.78	6480.94
453.97	6366.26
454.15	6282.00
454.34	6476.26
454.52	6527.75
454.70	6612.01
454.89	6560.52
455.07	6619.04
455.26	6766.49
455.44	6839.05
455.62	6738.40
455.81	6745.42
455.99	6792.23
456.17	6960.75
456.36	6846.07
456.54	6850.75
456.73	6944.37
456.91	7150.34
457.09	7119.91
457.28	7007.56
457.46	6979.48
457.64	7012.24
457.83	7094.16
458.01	7136.29
458.19	7389.07
458.38	7122.25
458.56	7368.01
458.74	7274.38
458.93	7400.77
459.11	7241.62
459.29	7225.23
459.48	7274.38
459.66	7438.22
459.84	7339.92
460.03	7403.11
460.21	7365.67
460.39	7424.18
460.57	7620.78
460.76	7524.82
460.94	7618.44
461.12	7482.69
461.31	7548.23
461.49	7297.79
461.67	7679.30
461.85	7885.26
462.04	7824.41
462.22	8234.00
462.40	7981.23
462.59	7896.97
462.77	7819.73
462.95	7955.48
463.13	7801.01
463.32	7927.39
463.50	8098.25
463.68	7941.44
463.86	8217.62
464.05	7925.05
464.23	7833.77
464.41	8121.66
464.59	8070.17
464.78	8243.37
464.96	8053.78
465.14	7946.12
465.32	8196.56
465.50	8203.58
465.69	8243.37
465.87	8196.56
466.05	8156.77
466.23	8102.93
466.41	8369.76
466.60	8360.39
466.78	8315.92
466.96	8297.20
467.14	8294.86
467.32	8271.45
467.51	8557.00
467.69	8182.51
467.87	8306.56
468.05	8648.28
468.23	8362.73
468.41	8486.78
468.60	8360.39
468.78	8477.42
468.96	8503.17
469.14	8681.05
469.32	8657.64
469.50	8463.38
469.69	8802.75
469.87	8671.68
470.05	8718.50
470.23	8795.73
470.41	8774.67
470.59	8791.05
470.77	9048.51
470.95	9022.77
471.14	9191.28
471.32	8849.57
471.50	9078.94
471.68	9172.56
471.86	9280.22
472.04	9298.95
472.22	9378.53
472.40	9399.59
472.58	9270.86
472.77	9582.15
472.95	9528.32
473.13	9813.87
473.31	9483.85
473.49	9731.95
473.67	9420.66
473.85	9671.09
474.03	9764.72
474.21	9888.76
474.39	9961.32
474.57	10008.13
474.75	9942.60
474.93	10202.40
475.12	9963.66
475.30	10153.24
475.48	9949.62
475.66	10394.32
475.84	10162.61
476.02	10122.82
476.20	10193.03
476.38	10682.20
476.56	10700.93
476.74	10824.98
476.92	10490.28
477.10	10583.90
477.28	10862.43
477.46	10759.44
477.64	10867.11
477.82	11190.10
478.00	11489.69
478.18	11026.26
478.36	11176.06
478.54	11433.52
478.72	11468.62
478.90	11421.81
479.08	11646.51
479.26	11655.87
479.44	11754.17
479.62	12004.61
479.80	11906.31
479.98	12121.63
480.16	12109.93
480.34	12074.82
480.52	12327.60
480.70	12060.78
480.88	12283.13
481.06	12599.10
481.24	12580.38
481.41	12545.27
481.59	12727.83
481.77	12908.05
481.95	12950.18
482.13	13355.10
482.31	13214.66
482.49	13650.00
482.67	13469.78
482.85	13736.60
483.03	13647.66
483.21	13860.65
483.39	14087.68
483.57	13987.04
483.74	14097.05
483.92	14265.57
484.10	14125.13
484.28	14424.72
484.46	14616.65
484.64	15000.49
484.82	14483.24
485.00	14747.72
485.18	15173.69
485.35	15398.38
485.53	15124.54
485.71	15379.66
485.89	15412.43
486.07	15527.11
486.25	15726.06
486.43	15318.81
486.61	15721.38
486.78	16322.90
486.96	16350.98
487.14	16077.14
487.32	16327.58
487.50	16496.10
487.68	16767.60
487.85	16741.85
488.03	16812.07
488.21	17137.40
488.39	17224.00
488.57	17130.38
488.75	17390.18
488.92	17624.23
489.10	17596.15
489.28	17600.83
489.46	17839.56
489.64	18017.44
489.81	18389.59
489.99	18150.85
490.17	18286.61
490.35	18843.65
490.53	18717.26
490.70	18953.66
490.88	18817.91
491.06	19030.90
491.24	19126.86
491.41	19185.37
491.59	19108.13
491.77	19611.35
491.95	19726.04
492.13	19438.15
492.30	19796.25
492.48	19913.28
492.66	20168.40
492.84	20189.46
493.01	20313.51
493.19	20304.15
493.37	20629.48
493.54	20540.54
493.72	20994.61
493.90	21167.80
494.08	20992.26
494.25	20936.09
494.43	21113.97
494.61	21277.81
494.79	21247.38
494.96	21324.62
495.14	21605.49
495.32	21865.28
495.49	21898.05
495.67	21722.51
495.85	22331.05
496.02	22349.78
496.20	22352.12
496.38	22640.00
496.55	22995.76
496.73	22843.63
496.91	23009.81
497.09	23115.13
497.26	23150.24
497.44	23077.68
497.62	23309.40
497.79	23473.23
497.97	23639.41
498.14	24058.37
498.32	24149.65
498.50	23854.74
498.67	24121.56
498.85	23721.33
499.03	24517.11
499.20	24355.61
499.38	24538.18
499.56	24584.99
499.73	24812.02
499.91	25245.02
500.08	24915.00
500.26	24713.72
500.44	25156.08
500.61	25010.96
500.79	24842.45
500.97	25184.16
501.14	25848.88
501.32	25458.01
501.49	25626.53
501.67	25666.31
501.84	26139.10
502.02	25790.36
502.20	26113.36
502.37	26141.44
502.55	25790.36
502.72	25984.63
502.90	26281.88
503.07	26314.64
503.25	26831.90
503.43	26237.41
503.60	26471.46
503.78	26551.04
503.95	26733.60
504.13	27009.78
504.30	26988.72
504.48	26897.44
504.65	27374.91
504.83	27482.57
505.01	27580.87
505.18	27370.22
505.36	27517.68
505.53	27470.87
505.71	27700.24
505.88	27964.72
506.06	27730.67
506.23	27800.88
506.41	27536.40
506.58	28135.58
506.76	27866.42
506.93	28290.06
507.11	28430.49
507.28	28613.05
507.46	28325.16
507.63	28767.52
507.81	29153.71
507.98	28489.00
508.16	28865.83
508.33	28868.17
508.50	29076.48
508.68	29017.96
508.85	29289.46
509.03	29123.29
509.20	29329.25
509.38	29467.34
509.55	29509.47
509.73	29869.92
509.90	29647.57
510.08	29589.05
510.25	29647.57
510.42	29954.18
510.60	30066.52
510.77	30078.22
510.95	30424.62
511.12	30579.10
511.30	30485.48
511.47	30410.58
511.64	30501.86
511.82	30637.61
511.99	30548.67
512.17	30838.90
512.34	31061.25
512.51	31321.05
512.69	31524.68
512.86	30866.98
513.04	31489.57
513.21	31349.14
513.38	31798.52
513.56	31463.82
513.73	31674.47
513.90	31381.90
514.08	31463.82
514.25	31854.69
514.43	31819.58
514.60	31917.89
514.77	31751.71
514.95	32182.37
515.12	31784.48
515.29	31800.86
515.47	32222.16
515.64	32470.25
515.81	32011.51
515.99	32432.80
516.16	32449.19
516.33	32683.24
516.51	32903.25
516.68	32847.08
516.85	32634.09
517.03	33139.65
517.20	33244.97
517.37	32795.59
517.54	33357.32
517.72	33394.76
517.89	33427.53
518.06	33443.91
518.24	33137.30
518.41	33219.22
518.58	33219.22
518.75	33319.87
518.93	33940.11
519.10	33605.41
519.27	33986.92
519.45	34040.75
519.62	34059.48
519.79	33949.47
519.96	34206.93
520.14	34071.18
520.31	34047.77
520.48	34579.07
520.65	34312.25
520.83	34494.82
521.00	35225.06
521.17	34602.48
521.34	34792.06
521.52	34668.02
521.69	34855.26
521.86	35232.08
522.03	34897.39
522.20	35232.08
522.38	35576.14
522.55	35587.85
522.72	35742.32
522.89	35503.59
523.07	36133.19
523.24	35599.55
523.41	35758.70
523.58	35489.54
523.75	35842.96
523.92	36100.42
524.10	36322.77
524.27	35604.23
524.44	35938.93
524.61	36343.84
524.78	36704.28
524.96	36582.57
525.13	36657.47
525.30	36472.57
525.47	36556.83
525.64	36493.63
525.81	36875.14
525.98	36664.49
526.16	36727.69
526.33	36837.69
526.50	37193.45
526.67	36650.45
526.84	36542.78
527.01	37062.38
527.18	37174.73
527.36	37275.37
527.53	37027.28
527.70	37537.51
527.87	37647.52
528.04	37490.70
528.21	37684.97
528.38	37230.90
528.55	37525.81
528.72	37523.47
528.89	37900.29
529.07	37270.69
529.24	37823.06
529.41	37975.19
529.58	37687.31
529.75	37940.08
529.92	38047.75
530.09	37404.10
530.26	38445.64
530.43	37947.11
530.60	37804.33
530.77	38164.78
530.94	38565.01
531.11	38298.19
531.28	38143.71
531.46	38590.75
531.63	38543.94
531.80	38520.54
531.97	38684.37
532.14	39136.10
532.31	38574.37
532.48	38983.96
532.65	39063.54
532.82	38714.80
532.99	38993.32
533.16	38965.24
533.33	38796.72
533.50	39613.57
533.67	38799.06
533.84	38824.81
534.01	39248.44
534.18	39564.42
534.35	39709.53
534.52	39583.14
534.69	39849.96
534.86	40004.44
535.03	39426.32
535.20	39922.52
535.37	39688.46
535.54	39889.75
535.71	40062.95
535.88	40116.78
536.05	39749.32
536.22	40423.39
536.38	39798.47
536.55	40182.32
536.72	40266.58
536.89	40374.24
537.06	39828.90
537.23	40224.45
537.40	40072.31
537.57	40261.90
537.74	40341.47
537.91	40835.33
538.08	40692.55
538.25	40133.17
538.42	40219.77
538.59	41284.71
538.75	40683.19
538.92	40804.90
539.09	40945.33
539.26	40697.24
539.43	40748.73
539.60	41549.19
539.77	40830.65
539.94	41212.15
540.11	40737.02
540.28	41111.51
540.44	41057.68
540.61	41385.35
540.78	41132.57
540.95	41373.65
541.12	41380.67
541.29	41291.73
541.46	41617.07
541.62	41687.28
541.79	41895.59
541.96	41076.40
542.13	41478.97
542.30	41691.96
542.47	41757.50
542.63	41804.31
542.80	42026.66
542.97	42040.70
543.14	42534.56
543.31	42454.98
543.48	41914.31
543.64	42452.64
543.81	42417.53
543.98	42401.14
544.15	42525.19
544.32	42337.95
544.48	43180.54
544.65	42644.56
544.82	43089.26
544.99	42443.27
545.16	42770.95
545.32	42480.72
545.49	42880.95
545.66	43353.74
545.83	42890.32
546.00	43009.68
546.16	42981.60
546.33	42864.57
546.50	42712.44
546.67	43072.88
546.83	42827.12
547.00	42848.19
547.17	43159.48
547.34	43318.64
547.50	43400.55
547.67	43737.59
547.84	43290.55
548.00	43461.41
548.17	43875.68
548.34	43463.75
548.51	43531.62
548.67	43606.52
548.84	43749.29
549.01	43693.12
549.18	43632.27
549.34	43791.42
549.51	43842.92
549.68	43765.68
549.84	43510.56
550.01	44589.55
550.18	44135.48
550.34	43931.86
550.51	44179.95
550.68	44114.42
550.84	43908.45
551.01	44554.44
551.18	43346.72
551.34	43875.68
551.51	44758.06
551.68	43730.57
551.84	44243.15
552.01	43999.73
552.18	44856.37
552.34	44374.22
552.51	44973.39
552.68	44264.21
552.84	44465.50
553.01	45127.87
553.18	44554.44
553.34	44854.03
553.51	44315.70
553.67	44790.83
553.84	44884.45
554.01	44879.77
554.17	44662.10
554.34	45352.56
554.51	44830.62
554.67	44830.62
554.84	44676.15
555.00	44758.06
555.17	44928.92
555.33	45326.81
555.50	45120.85
555.67	45106.80
555.83	45418.10
556.00	45263.62
556.16	45359.58
556.33	45081.06
556.50	45153.62
556.66	45446.18
556.83	44797.85
556.99	45490.65
557.16	45443.84
557.32	45778.54
557.49	45464.91
557.65	44992.12
557.82	45497.67
557.98	45633.42
558.15	45530.44
558.32	45785.56
558.48	45640.45
558.65	45614.70
558.81	45642.79
558.98	45511.72
559.14	45464.91
559.31	45626.40
559.47	45418.10
559.64	45743.43
559.80	46092.17
559.97	45832.37
560.13	45909.61
560.30	45867.48
560.46	45970.46
560.63	46047.70
560.79	46358.99
560.96	46347.29
561.12	45879.18
561.29	46279.41
561.45	45982.16
561.61	45832.37
561.78	46028.98
561.94	46330.90
562.11	45841.73
562.27	46354.31
562.44	45806.62
562.60	46347.29
562.77	46611.77
562.93	46478.36
563.10	46604.75
563.26	46232.60
563.42	46461.97
563.59	46529.85
563.75	46394.10
563.92	46618.79
564.08	46040.68
564.24	46911.36
564.41	46637.51
564.57	46499.42
564.74	46553.26
564.90	46738.16
565.07	46735.82
565.23	46492.40
565.39	46424.53
565.56	46916.04
565.72	46677.30
565.88	46873.91
566.05	46689.01
566.21	46653.90
566.38	46576.66
566.54	46574.32
566.70	46637.51
566.87	46857.52
567.03	46445.59
567.19	46948.81
567.36	47033.07
567.52	46885.61
567.68	47374.78
567.85	46497.08
568.01	47194.56
568.17	47014.34
568.34	47105.62
568.50	47051.79
568.66	46686.67
568.83	46873.91
568.99	46799.01
569.15	47234.35
569.32	46906.68
569.48	46925.40
569.64	47187.54
569.81	46951.15
569.97	47351.38
570.13	47264.78
570.30	46749.86
570.46	46766.24
570.62	47114.98
570.78	47573.73
570.95	47311.59
571.11	47416.91
571.27	47189.88
571.43	47199.24
571.60	47173.50
571.76	46841.14
571.92	47161.79
572.09	47178.18
572.25	47313.93
572.41	46852.84
572.57	47166.48
572.74	47775.02
572.90	47367.76
573.06	47379.46
573.22	47189.88
573.38	46834.12
573.55	47304.57
573.71	47580.75
573.87	47182.86
574.03	47281.16
574.20	47440.32
574.36	47496.49
574.52	47346.70
574.68	47487.13
574.84	47325.63
575.01	47665.01
575.17	47686.07
575.33	47466.06
575.49	47316.27
575.65	47309.25
575.82	47398.19
575.98	47171.16
576.14	47798.42
576.30	47349.04
576.46	47538.62
576.62	47339.68
576.79	47309.25
576.95	47292.86
577.11	47456.70
577.27	47519.90
577.43	47021.36
577.59	47510.53
577.75	47526.92
577.92	47178.18
578.08	47426.28
578.24	47370.10
578.40	47746.93
578.56	47498.83
578.72	47672.03
578.88	47540.96
579.04	47646.29
579.21	47136.05
579.37	47878.00
579.53	47646.29
579.69	47248.39
579.85	47690.76
580.01	47700.12
580.17	47798.42
580.33	47571.39
580.49	47934.17
580.65	47522.24
580.82	47672.03
580.98	47416.91
581.14	47398.19
581.30	47653.31
581.46	47239.03
581.62	47547.98
581.78	47402.87
581.94	48016.09
582.10	47601.82
582.26	47484.79
582.42	47686.07
582.58	47770.33
582.74	48144.82
582.90	47356.06
583.06	48086.31
583.22	47536.28
583.38	47564.37
583.54	47672.03
583.70	47665.01
583.86	48076.94
584.02	47840.55
584.18	47866.30
584.34	48060.56
584.50	48404.62
584.66	47859.27
584.82	48025.45
584.98	48013.75
585.14	47620.54
585.30	48128.44
585.46	47751.61
585.62	47360.74
585.78	48184.61
585.94	47941.19
586.10	48055.88
586.26	47243.71
586.42	48112.05
586.58	47812.46
586.74	47962.26
586.90	47531.60
587.06	47770.33
587.22	48102.69
587.38	47489.47
587.54	47922.47
587.70	48147.16
587.86	47826.51
588.02	47772.67
588.18	47445.00
588.34	47601.82
588.49	47831.19
588.65	47517.56
588.81	47793.74
588.97	48184.61
589.13	48093.33
589.29	47983.32
589.45	48514.62
589.61	47739.91
589.77	48540.37
589.93	48252.48
590.08	48266.53
590.24	48301.64
590.40	48718.25
590.56	48367.17
590.72	48463.13
590.88	48287.59
591.04	48034.81
591.20	48273.55
591.35	48392.92
591.51	48758.04
591.67	48418.66
591.83	48458.45
591.99	48425.68
592.15	48313.34
592.31	48432.71
592.46	48350.79
592.62	48587.18
592.78	48619.95
592.94	48514.62
593.10	48734.63
593.26	48376.53
593.41	48545.05
593.57	48467.81
593.73	48575.48
593.89	48839.96
594.05	48404.62
594.20	48788.47
594.36	48769.74
594.52	48961.67
594.68	48418.66
594.84	48149.50
594.99	48509.94
595.15	48601.22
595.31	48264.19
595.47	48409.30
595.62	48474.84
595.78	48369.51
595.94	48619.95
596.10	48308.66
596.25	48774.42
596.41	48631.65
596.57	48432.71
596.73	48622.29
596.88	48535.69
597.04	48788.47
597.20	49008.48
597.36	48952.30
597.51	48523.99
597.67	48413.98
597.83	48439.73
597.99	48882.09
598.14	48451.43
598.30	48549.73
598.46	48545.05
598.61	48669.10
598.77	48999.12
598.93	48603.56
599.09	48912.52
599.24	49130.19
599.40	48748.68
599.56	48568.46
599.71	49095.08
599.87	49155.93
600.03	48914.86
600.18	48800.17
600.34	48753.36
600.50	48945.28
600.65	48973.37
600.81	48910.17
600.97	48882.09
601.12	48734.63
601.28	48678.46
601.44	48732.29
601.59	48603.56
601.75	48793.15
601.91	49139.55
602.06	48671.44
602.22	48992.09
602.37	48582.50
602.53	48760.38
602.69	48832.94
602.84	48406.96
603.00	48664.42
603.16	48669.10
603.31	48755.70
603.47	48493.56
603.62	48566.12
603.78	48889.11
603.94	49024.86
604.09	48884.43
604.25	48685.48
604.40	49043.59
604.56	49020.18
604.71	48961.67
604.87	48652.72
605.03	48788.47
605.18	48280.57
605.34	48783.79
605.49	48444.41
605.65	48924.22
605.80	48645.69
605.96	48334.40
606.12	48509.94
606.27	48882.09
606.43	48329.72
606.58	48825.92
606.74	48528.67
606.89	48633.99
607.05	48947.62
607.20	48610.59
607.36	48636.33
607.51	48364.83
607.67	48273.55
607.82	48751.02
607.98	48418.66
608.13	48299.30
608.29	47819.49
608.44	48727.61
608.60	48638.67
608.75	47997.37
608.91	48765.06
609.06	48112.05
609.22	48741.66
609.37	48296.95
609.53	48538.03
609.68	48671.44
609.84	48289.93
609.99	48626.97
610.15	48753.36
610.30	48435.05
610.46	48442.07
610.61	48512.28
610.76	48498.24
610.92	48210.35
611.07	48112.05
611.23	48390.58
611.38	48432.71
611.54	48479.52
611.69	48556.75
611.84	48809.53
612.00	48217.38
612.15	48432.71
612.31	48540.37
612.46	47882.68
612.62	47767.99
612.77	48027.79
612.92	48879.75
613.08	48163.54
613.23	48402.28
613.39	47814.80
613.54	48109.71
613.69	48109.71
613.85	48224.40
614.00	48451.43
614.15	48175.25
614.31	48156.52
614.46	47924.81
614.62	48212.70
614.77	48060.56
614.92	47915.45
615.08	47978.64
615.23	48247.80
615.38	48179.93
615.54	48266.53
615.69	47983.32
615.84	48093.33
616.00	47840.55
616.15	47943.53
616.30	48243.12
616.46	48062.90
616.61	47775.02
616.76	47910.77
616.92	47885.02
617.07	47817.14
617.22	47552.66
617.37	47723.52
617.53	47622.88
617.68	47622.88
617.83	47557.35
617.99	47882.68
618.14	48105.03
618.29	47882.68
618.45	47510.53
618.60	47302.23
618.75	47234.35
618.90	47533.94
619.06	47447.34
619.21	47653.31
619.36	47456.70
619.51	47948.21
619.67	47098.60
619.82	47613.52
619.97	47700.12
620.12	47302.23
620.28	47398.19
620.43	47657.99
620.58	47592.45
620.73	47320.95
620.89	47597.13
621.04	47327.97
621.19	47496.49
621.34	47784.38
621.49	47334.99
621.65	47065.83
621.80	47601.82
621.95	47206.26
622.10	47800.76
622.25	47187.54
622.41	47182.86
622.56	46890.29
622.71	47306.91
622.86	47098.60
623.01	47070.51
623.16	47222.65
623.32	47196.90
623.47	46841.14
623.62	46831.78
623.77	47372.44
623.92	47206.26
624.07	47040.09
624.23	47138.39
624.38	46885.61
624.53	46944.12
624.68	46906.68
624.83	46761.56
624.98	46906.68
625.13	46267.71
625.29	46550.91
625.44	47178.18
625.59	46843.48
625.74	46866.89
625.89	46644.54
626.04	46616.45
626.19	46586.02
626.34	46316.86
626.49	46438.57
626.65	46223.24
626.80	46588.36
626.95	46174.09
627.10	46342.61
627.25	46410.48
627.40	46382.40
627.55	46653.90
627.70	46543.89
627.85	46445.59
628.00	46651.56
628.15	46639.86
628.30	46110.89
628.45	45888.54
628.60	45382.99
628.76	46082.81
628.91	45862.80
629.06	45729.39
629.21	45914.29
629.36	45844.07
629.51	45876.84
629.66	46642.20
629.81	46314.52
629.96	46277.07
630.11	46075.79
630.26	46024.29
630.41	46059.40
630.56	45776.20
630.71	45703.64
630.86	45656.83
631.01	45474.27
631.16	45710.66
631.31	45963.44
631.46	45682.58
631.61	46087.49
631.76	46284.09
631.91	45670.87
632.06	46305.16
632.21	45853.44
632.36	45717.68
632.51	45368.94
632.66	46120.26
632.81	45525.76
632.96	45827.69
633.10	44861.05
633.25	45820.67
633.40	45546.82
633.55	45509.38
633.70	45581.93
633.85	44884.45
634.00	45181.70
634.15	45677.90
634.30	44903.18
634.45	45420.44
634.60	45600.66
634.75	45420.44
634.90	45305.75
635.05	45942.38
635.19	45036.59
635.34	45422.78
635.49	45062.33
635.64	45495.33
635.79	45223.83
635.94	44907.86
636.09	45483.63
636.24	44825.94
636.39	44952.33
636.53	45158.30
636.68	44821.26
636.83	44568.48
636.98	44622.31
637.13	44584.86
637.28	44842.32
637.43	45036.59
637.57	44914.88
637.72	44626.99
637.87	44671.46
638.02	44715.93
638.17	44664.44
638.32	44603.59
638.46	44472.52
638.61	44189.31
638.76	44294.64
638.91	44383.58
639.06	44177.61
639.20	44371.88
639.35	43983.35
639.50	44636.36
639.65	44542.74
639.80	44388.26
639.94	44617.63
640.09	44292.30
640.24	45008.50
640.39	43866.32
640.54	43931.86
640.68	44280.60
640.83	44406.98
640.98	44250.17
641.13	44184.63
641.27	44140.16
641.42	44566.14
641.57	43943.56
641.72	44004.41
641.86	43821.85
642.01	43557.37
642.16	43770.36
642.31	43445.02
642.45	44439.75
642.60	43477.79
642.75	43438.00
642.90	43978.67
643.04	43732.91
643.19	43849.94
643.34	43625.25
643.48	43566.73
643.63	43552.69
643.78	43866.32
643.93	43941.22
644.07	43784.40
644.22	43529.28
644.37	42951.17
644.51	43721.21
644.66	43791.42
644.81	43908.45
644.95	43611.20
645.10	43580.78
645.25	43550.35
645.39	43189.91
645.54	43386.51
645.69	43054.15
645.83	43192.25
645.98	43634.61
646.13	43477.79
646.27	43428.64
646.42	42855.21
646.57	42997.98
646.71	43093.94
646.86	43739.93
647.00	43281.19
647.15	43304.59
647.30	43229.69
647.44	43084.58
647.59	43182.88
647.74	43147.78
647.88	43185.22
648.03	43473.11
648.17	43086.92
648.32	43040.11
648.47	43330.34
648.61	42803.72
648.76	42522.85
648.90	42761.59
649.05	43096.28
649.20	42810.74
649.34	42806.06
649.49	42930.11
649.63	42920.74
649.78	43164.16
649.92	43150.12
650.07	43250.76
650.21	42923.08
650.36	42885.64
650.51	42700.73
650.65	43187.56
650.80	42686.69
650.94	42990.96
651.09	42632.86
651.23	42146.03
651.38	42281.78
651.52	42110.92
651.67	42405.83
651.81	42583.71
651.96	42380.08
652.10	41996.23
652.25	42309.86
652.39	42527.53
652.54	42579.03
652.68	42216.24
652.83	42586.05
652.97	42595.41
653.12	42150.71
653.26	42258.37
653.41	42260.71
653.55	42312.20
653.70	42801.38
653.84	42349.65
653.99	42450.30
654.13	42162.41
654.27	42040.70
654.42	42377.74
654.56	42108.58
654.71	41921.34
654.85	42256.03
655.00	41942.40
655.14	42061.77
655.29	42351.99
655.43	42225.60
655.57	41904.95
655.72	41652.17
655.86	41991.55
656.01	41951.76
656.15	41385.35
656.30	41834.74
656.44	41811.33
656.58	41844.10
656.73	41937.72
656.87	41139.60
657.01	41591.32
657.16	41436.84
657.30	41804.31
657.45	41366.63
657.59	41127.89
657.73	41439.18
657.88	41053.00
658.02	41352.58
658.16	41670.90
658.31	41741.11
658.45	41509.40
658.60	41120.87
658.74	41427.48
658.88	41010.87
659.03	40903.20
659.17	40706.60
659.31	40554.46
659.46	40407.01
659.60	41144.28
659.74	40385.94
659.89	40605.95
660.03	40755.75
660.17	40271.26
660.32	40772.13
660.46	41010.87
660.60	40093.38
660.74	40477.22
660.89	40641.06
661.03	40332.11
661.17	40187.00
661.32	39779.74
661.46	40322.75
661.60	40023.16
661.74	40390.62
661.89	39974.01
662.03	40233.81
662.17	39924.86
662.31	39971.67
662.46	39861.66
662.60	40140.19
662.74	39768.04
662.88	39306.96
663.03	39353.77
663.17	39178.23
663.31	39643.99
663.45	39552.71
663.60	39480.16
663.74	39494.20
663.88	39302.28
664.02	39332.70
664.17	39704.85
664.31	39178.23
664.45	38918.43
664.59	39054.18
664.73	38993.32
664.88	39030.77
665.02	39058.86
665.16	38998.01
665.30	38948.85
665.44	38958.22
665.59	38359.04
665.73	38501.81
665.87	38274.78
666.01	38770.97
666.15	38366.06
666.29	38370.74
666.44	38569.69
666.58	38258.40
666.72	38183.50
666.86	38436.28
667.00	37921.36
667.14	38087.54
667.28	37897.95
667.43	37694.33
667.57	38281.80
667.71	38431.60
667.85	38361.38
667.99	37965.83
668.13	37867.53
668.27	37455.59
668.41	37879.23
668.56	36825.99
668.70	37134.94
668.84	37158.34
668.98	37046.00
669.12	37333.89
669.26	37598.37
669.40	37060.04
669.54	37474.32
669.68	37132.60
669.82	36795.56
669.96	36690.24
670.10	36360.22
670.25	36830.67
670.39	36514.70
670.53	36753.43
670.67	36659.81
670.81	36666.83
670.95	36692.58
671.09	36322.77
671.23	36147.23
671.37	36430.44
671.51	36231.49
671.65	36514.70
671.79	35866.37
671.93	35957.65
672.07	36421.08
672.21	36051.27
672.35	35484.86
672.49	35632.32
672.63	35742.32
672.77	35599.55
672.91	35335.07
673.05	35182.93
673.19	35466.14
673.33	34991.01
673.47	35171.23
673.61	35438.05
673.75	34731.21
673.89	35002.71
674.03	34560.35
674.17	34588.44
674.31	34621.20
674.45	34279.49
674.59	34108.63
674.73	34534.60
674.87	34307.57
675.01	34216.29
675.15	33645.20
675.29	33502.43
675.43	33907.34
675.56	33589.03
675.70	33961.17
675.84	33476.68
675.98	32762.82
676.12	33928.41
676.26	34160.12
676.40	33418.17
676.54	33116.24
676.68	33294.12
676.82	32634.09
676.96	33088.15
677.10	33317.53
677.23	32634.09
677.37	32987.51
677.51	33137.30
677.65	32748.78
677.79	32725.37
677.93	32636.43
678.07	32257.26
678.21	31997.46
678.34	31807.88
678.48	32175.34
678.62	31686.17
678.76	31854.69
678.90	31835.97
679.04	31571.49
679.18	31564.46
679.31	31604.25
679.45	31475.52
679.59	30991.03
679.73	31126.78
679.87	31157.21
680.00	30775.70
680.14	31243.81
680.28	30911.46
680.42	31021.46
680.56	30831.88
680.70	30441.01
680.83	30398.88
680.97	30057.16
681.11	30288.87
681.25	29682.67
681.39	29745.87
681.52	29933.11
681.66	29539.90
681.80	29275.42
681.94	29326.91
682.07	28964.13
682.21	29284.78
682.35	28833.06
682.49	29223.93
682.62	28844.76
682.76	29242.65
682.90	28865.83
683.04	29027.32
683.17	28723.05
683.31	28425.81
683.45	28360.27
683.59	28339.21
683.72	27960.04
683.86	28011.53
684.00	27917.91
684.13	28240.90
684.27	27475.55
684.41	27730.67
684.55	27742.37
684.68	27552.79
684.82	27442.78
684.96	27442.78
685.09	27318.73
685.23	27054.25
685.37	27716.62
685.50	27442.78
685.64	27220.43
685.78	26808.50
685.91	26656.36
686.05	26747.64
686.19	26300.60
686.32	26464.44
686.46	25813.77
686.60	25996.33
686.73	25846.54
686.87	25813.77
687.01	26183.57
687.14	26096.97
687.28	25806.75
687.42	25685.04
687.55	25460.35
687.69	25872.28
687.82	25085.86
687.96	25507.16
688.10	25191.19
688.23	25228.63
688.37	25106.93
688.50	25572.69
688.64	25153.74
688.78	24741.80
688.91	24807.34
689.05	24524.13
689.18	24383.70
689.32	23913.25
689.46	24470.30
689.59	24254.97
689.73	24353.27
689.86	24320.51
690.00	23997.51
690.13	23931.98
690.27	23599.62
690.41	23929.64
690.54	23674.52
690.68	23293.01
690.81	23285.99
690.95	23161.94
691.08	23131.51
691.22	22916.19
691.35	22682.13
691.49	23253.22
691.62	23075.34
691.76	22682.13
691.89	22663.41
692.03	22202.32
692.16	22134.45
692.30	22373.18
692.43	22129.77
692.57	21736.56
692.70	21994.01
692.84	22080.61
692.97	21710.81
693.11	21572.72
693.24	21628.89
693.38	21549.31
693.51	20908.01
693.65	21355.05
693.78	21226.32
693.92	21106.95
694.05	21149.08
694.19	20905.66
694.32	20702.04
694.45	21289.51
694.59	20875.24
694.72	20748.85
694.86	20615.44
694.99	20659.91
695.13	20238.61
695.26	19981.15
695.39	19927.32
695.53	20271.38
695.66	20233.93
695.80	19765.82
695.93	19625.39
696.07	19419.42
696.20	19288.35
696.33	19396.02
696.47	19377.30
696.60	19283.67
696.73	19400.70
696.87	19332.82
697.00	18972.38
697.14	18853.02
697.27	18806.20
697.40	18848.33
697.54	18860.04
697.67	18492.57
697.80	18686.84
697.94	18541.72
698.07	18427.04
698.21	18384.91
698.34	18452.78
698.47	18073.62
698.61	17642.96
698.74	17862.97
698.87	17827.86
699.01	17734.24
699.14	17675.73
699.27	17640.62
699.40	17551.68
699.54	17352.73
699.67	17710.83
699.80	17439.33
699.94	17209.96
700.07	17174.85
700.20	17142.08
700.34	17015.69
700.47	16985.27
700.60	17116.34
700.73	17090.59
700.87	16540.57
701.00	16510.14
701.13	16559.29
701.26	16395.45
701.40	16386.09
701.53	16095.86
701.66	16222.25
701.79	16229.27
701.93	16006.92
702.06	15569.24
702.19	15674.57
702.32	15913.30
702.46	15836.06
702.59	15822.02
702.72	15981.18
702.85	15906.28
702.99	15688.61
703.12	15295.40
703.25	15276.68
703.38	15110.50
703.51	15208.80
703.65	15077.73
703.78	15005.17
703.91	14878.79
704.04	14707.93
704.17	14546.43
704.31	14885.81
704.44	14719.63
704.57	14663.46
704.70	14534.73
704.83	14281.95
704.96	14092.37
705.10	14153.22
705.23	14263.22
>>>>>End Processed Spectral Data<<<<<
