SpectraSuite Data File
++++++++++++++++++++++++++++++++++++
Date: Fri Oct 25 11:33:49 EDT 2013
User: price-jones
Dark Spectrum Present: No
Reference Spectrum Present: No
Number of Sampled Component Spectra: 1
Spectrometers: USB2+H05261
Integration Time (usec): 100000 (USB2+H05261)
Spectra Averaged: 1 (USB2+H05261)
Boxcar Smoothing: 0 (USB2+H05261)
Correct for Electrical Dark: No (USB2+H05261)
Strobe/Lamp Enabled: No (USB2+H05261)
Correct for Detector Non-linearity: No (USB2+H05261)
Correct for Stray Light: No (USB2+H05261)
Number of Pixels in Processed Spectrum: 2048
>>>>>Begin Processed Spectral Data<<<<<
365.73	355.76
365.92	355.76
366.12	355.76
366.32	280.86
366.52	198.95
366.72	203.63
366.91	156.82
367.11	145.11
367.31	196.60
367.51	156.82
367.70	79.58
367.90	184.90
368.10	140.43
368.30	114.69
368.49	138.09
368.69	163.84
368.89	175.54
369.09	227.03
369.28	161.50
369.48	236.39
369.68	187.24
369.87	264.48
370.07	234.05
370.27	322.99
370.47	294.91
370.66	524.28
370.86	447.04
371.06	561.73
371.25	622.58
371.45	564.07
371.65	538.32
371.84	514.92
372.04	568.75
372.24	601.52
372.44	587.47
372.63	601.52
372.83	571.09
373.03	613.22
373.22	608.54
373.42	571.09
373.62	631.94
373.81	641.31
374.01	627.26
374.21	671.73
374.40	641.31
374.60	648.33
374.79	660.03
374.99	610.88
375.19	692.80
375.38	578.11
375.58	737.27
375.78	657.69
375.97	718.54
376.17	676.41
376.37	697.48
376.56	643.65
376.76	683.44
376.95	634.29
377.15	720.88
377.35	653.01
377.54	657.69
377.74	671.73
377.93	638.97
378.13	711.52
378.33	653.01
378.52	594.50
378.72	702.16
378.91	692.80
379.11	704.50
379.31	657.69
379.50	624.92
379.70	741.95
379.89	732.59
380.09	760.67
380.28	734.93
380.48	751.31
380.68	716.20
380.87	732.59
381.07	720.88
381.26	779.40
381.46	723.23
381.65	739.61
381.85	704.50
382.04	667.05
382.24	828.55
382.43	763.01
382.63	812.17
382.83	837.91
383.02	833.23
383.22	898.77
383.41	781.74
383.61	788.76
383.80	856.64
384.00	898.77
384.19	837.91
384.39	786.42
384.58	854.30
384.78	816.85
384.97	748.97
385.17	741.95
385.36	763.01
385.56	781.74
385.75	849.61
385.95	849.61
386.14	894.08
386.34	842.59
386.53	887.06
386.72	795.78
386.92	964.30
387.11	877.70
387.31	924.51
387.50	882.38
387.70	856.64
387.89	826.21
388.09	882.38
388.28	889.40
388.48	915.15
388.67	950.26
388.86	1011.11
389.06	898.77
389.25	954.94
389.45	1018.13
389.64	912.81
389.84	985.37
390.03	992.39
390.22	968.98
390.42	1022.81
390.61	968.98
390.81	915.15
391.00	945.58
391.19	1060.26
391.39	1029.84
391.58	1034.52
391.78	976.00
391.97	999.41
392.16	1020.47
392.36	1078.99
392.55	1055.58
392.75	976.00
392.94	1078.99
393.13	1043.88
393.33	1074.31
393.52	1055.58
393.71	1121.12
393.91	1071.97
394.10	1118.78
394.29	1046.22
394.49	1128.14
394.68	1128.14
394.88	1160.91
395.07	1196.01
395.26	1142.18
395.46	1160.91
395.65	1179.63
395.84	1193.67
396.04	1268.57
396.23	1203.04
396.42	1184.31
396.62	1167.93
396.81	1186.65
397.00	1284.95
397.19	1167.93
397.39	1170.27
397.58	1261.55
397.77	1238.14
397.97	1275.59
398.16	1256.87
398.35	1322.40
398.55	1275.59
398.74	1362.19
398.93	1315.38
399.12	1282.61
399.32	1303.68
399.51	1299.00
399.70	1373.89
399.90	1217.08
400.09	1394.96
400.28	1430.07
400.47	1404.32
400.67	1315.38
400.86	1432.41
401.05	1336.45
401.24	1458.15
401.44	1350.49
401.63	1483.90
401.82	1474.54
402.01	1444.11
402.21	1516.67
402.40	1455.81
402.59	1556.46
402.78	1493.26
402.97	1469.86
403.17	1519.01
403.36	1650.08
403.55	1575.18
403.74	1619.65
403.93	1633.69
404.13	1577.52
404.32	1516.67
404.51	1631.35
404.70	1696.89
404.89	1605.61
405.09	1710.93
405.28	1626.67
405.47	1727.32
405.66	1699.23
405.85	1750.72
406.05	1727.32
406.24	1816.26
406.43	1783.49
406.62	1724.97
406.81	1912.22
407.00	1757.74
407.20	1900.52
407.39	1769.44
407.58	1858.39
407.77	1825.62
407.96	1795.19
408.15	1858.39
408.34	1839.66
408.54	1952.01
408.73	1884.13
408.92	1870.09
409.11	1940.30
409.30	1959.03
409.49	1914.56
409.68	1944.99
409.87	1933.28
410.07	1998.82
410.26	2050.31
410.45	2038.61
410.64	2040.95
410.83	2106.48
411.02	2099.46
411.21	2076.06
411.40	2162.66
411.59	2162.66
411.78	2263.30
411.98	2165.00
412.17	2235.21
412.36	2270.32
412.55	2373.30
412.74	2253.94
412.93	2263.30
413.12	2396.71
413.31	2464.58
413.50	2300.75
413.69	2289.04
413.88	2441.18
414.07	2504.37
414.26	2495.01
414.45	2572.25
414.64	2431.82
414.83	2537.14
415.02	2574.59
415.22	2670.55
415.41	2626.08
415.60	2658.85
415.79	2605.02
415.98	2818.00
416.17	2766.51
416.36	2780.56
416.55	2757.15
416.74	2715.02
416.93	2700.98
417.12	2818.00
417.31	2768.85
417.50	2822.69
417.69	2939.71
417.88	2909.29
418.07	2991.20
418.26	3012.27
418.45	2960.78
418.64	3122.27
418.83	3049.72
419.02	3033.33
419.21	3014.61
419.39	3164.40
419.58	3028.65
419.77	2986.52
419.96	3262.71
420.15	3122.27
420.34	3229.94
420.53	3197.17
420.72	3183.13
420.91	3169.09
421.10	3346.97
421.29	3335.26
421.48	3335.26
421.67	3302.50
421.86	3206.53
422.05	3398.46
422.24	3363.35
422.43	3276.75
422.61	3438.25
422.80	3386.76
422.99	3361.01
423.18	3309.52
423.37	3405.48
423.56	3389.10
423.75	3461.65
423.94	3255.69
424.13	3180.79
424.32	3391.44
424.50	3562.30
424.69	3550.59
424.88	3414.84
425.07	3506.12
425.26	3459.31
425.45	3377.39
425.64	3396.12
425.83	3463.99
426.01	3667.62
426.20	3454.63
426.39	3489.74
426.58	3501.44
426.77	3564.64
426.96	3536.55
427.15	3517.83
427.33	3559.95
427.52	3648.90
427.71	3555.27
427.90	3747.20
428.09	3569.32
428.28	3700.39
428.46	3611.45
428.65	3627.83
428.84	3756.56
429.03	3751.88
429.22	3716.77
429.40	3763.58
429.59	3735.50
429.78	3569.32
429.97	3648.90
430.16	3864.22
430.34	3819.75
430.53	3873.59
430.72	3927.42
430.91	3969.55
431.10	4014.02
431.28	3850.18
431.47	4035.08
431.66	4009.34
431.85	4032.74
432.03	4147.43
432.22	4133.39
432.41	4152.11
432.60	4145.09
432.79	4018.70
432.97	4180.20
433.16	4088.92
433.35	4086.58
433.54	4065.51
433.72	4088.92
433.91	4248.07
434.10	4219.99
434.28	4135.73
434.47	4292.54
434.66	4196.58
434.85	4297.22
435.03	4393.19
435.22	4301.90
435.41	4479.79
435.59	4332.33
435.78	4407.23
435.97	4376.80
436.16	4393.19
436.34	4325.31
436.53	4636.60
436.72	4585.11
436.90	4454.04
437.09	4395.53
437.28	4514.89
437.46	4608.51
437.65	4566.39
437.84	4526.60
438.02	4521.92
438.21	4772.35
438.40	4442.34
438.58	4608.51
438.77	4777.03
438.96	4739.58
439.14	4760.65
439.33	4950.23
439.52	4961.94
439.70	4777.03
439.89	4983.00
440.08	4901.08
440.26	5057.90
440.45	4938.53
440.63	5039.17
440.82	5057.90
441.01	5015.77
441.19	5156.20
441.38	5341.10
441.57	5280.25
441.75	5350.46
441.94	5397.28
442.12	5320.04
442.31	5605.58
442.50	5460.47
442.68	5523.66
442.87	5451.11
443.05	5460.47
443.24	5444.09
443.43	5504.94
443.61	5598.56
443.80	5804.53
443.98	5514.30
444.17	5399.62
444.35	5577.50
444.54	5675.80
444.73	5612.60
444.91	5706.23
445.10	5628.99
445.28	5621.97
445.47	5570.48
445.65	5636.01
445.84	5659.42
446.02	5717.93
446.21	5886.45
446.39	5774.10
446.58	5743.67
446.77	5661.76
446.95	5582.18
447.14	5614.95
447.32	5806.87
447.51	5870.06
447.69	5853.68
447.88	5790.49
448.06	5706.23
448.25	5818.57
448.43	5851.34
448.62	5774.10
448.80	5849.00
448.99	5893.47
449.17	5947.30
449.36	5689.84
449.54	6019.86
449.73	6031.56
449.91	6097.10
450.10	6139.23
450.28	6181.35
450.46	6171.99
450.65	6080.71
450.83	6146.25
451.02	6087.73
451.20	6188.38
451.39	6157.95
451.57	6164.97
451.76	6157.95
451.94	6090.07
452.13	6352.21
452.31	6282.00
452.49	6122.84
452.68	6441.15
452.86	6272.64
453.05	6312.42
453.23	6363.92
453.42	6267.95
453.60	6328.81
453.78	6527.75
453.97	6396.68
454.15	6408.39
454.34	6509.03
454.52	6434.13
454.70	6649.46
454.89	6406.05
455.07	6719.68
455.26	6607.33
455.44	6658.82
455.62	6719.68
455.81	6715.00
455.99	6839.05
456.17	6876.49
456.36	6792.23
456.54	6825.00
456.73	6972.46
456.91	6956.07
457.09	6951.39
457.28	7070.76
457.46	6883.52
457.64	7012.24
457.83	7103.53
458.01	6883.52
458.19	7119.91
458.38	7021.61
458.56	7173.74
458.74	7073.10
458.93	7272.04
459.11	7166.72
459.29	7236.94
459.48	7332.90
459.66	7295.45
459.84	7260.34
460.03	7562.27
460.21	7618.44
460.39	7393.75
460.57	7405.46
460.76	7534.18
460.94	7581.00
461.12	7658.23
461.31	7492.05
461.49	7581.00
461.67	7592.70
461.85	7702.70
462.04	7658.23
462.22	7967.18
462.40	7779.94
462.59	7784.62
462.77	7714.41
462.95	7770.58
463.13	7838.45
463.32	7786.96
463.50	7894.63
463.68	7669.94
463.86	7988.25
464.05	7782.28
464.23	7974.21
464.41	7999.95
464.59	8039.74
464.78	8301.88
464.96	8028.04
465.14	8105.28
465.32	7932.08
465.50	8074.85
465.69	8086.55
465.87	8006.97
466.05	7962.50
466.23	8161.45
466.41	7985.91
466.60	8404.86
466.78	8273.79
466.96	8086.55
467.14	8423.59
467.32	8163.79
467.51	8512.53
467.69	8149.75
467.87	8060.80
468.05	8477.42
468.23	8142.72
468.41	8173.15
468.60	8353.37
468.78	8500.83
468.96	8362.73
469.14	8692.75
469.32	8676.37
469.50	8603.81
469.69	8650.62
469.87	8816.80
470.05	8755.94
470.23	8887.01
470.41	8777.01
470.59	8994.68
470.77	8678.71
470.95	8765.31
471.14	8964.25
471.32	8690.41
471.50	8947.87
471.68	8926.80
471.86	9057.87
472.04	9329.38
472.22	9224.05
472.40	9291.93
472.58	9284.91
472.77	9212.35
472.95	9336.40
473.13	9638.33
473.31	9465.13
473.49	9371.50
473.67	9430.02
473.85	9570.45
474.03	9853.66
474.21	9694.50
474.39	9678.12
474.57	9605.56
474.75	9790.46
474.93	9923.87
475.12	9980.04
475.30	9987.07
475.48	9963.66
475.66	10099.41
475.84	10157.92
476.02	10324.10
476.20	10223.46
476.38	10651.78
476.56	10616.67
476.74	10441.13
476.92	10305.38
477.10	10478.58
477.28	10792.21
477.46	10696.25
477.64	10757.10
477.82	10864.77
478.00	11241.59
478.18	11052.01
478.36	11178.40
478.54	11307.13
478.72	11410.11
478.90	11328.19
479.08	11557.57
479.26	11520.12
479.44	11796.30
479.62	11887.58
479.80	11730.76
479.98	11983.54
480.16	12482.08
480.34	12051.42
480.52	12222.28
480.70	12255.04
480.88	12119.29
481.06	12491.44
481.24	12418.88
481.41	12608.47
481.59	12695.07
481.77	12854.22
481.95	12868.27
482.13	13041.46
482.31	12760.60
482.49	13540.00
482.67	13376.16
482.85	13231.05
483.03	13781.07
483.21	13715.54
483.39	13689.79
483.57	13680.43
483.74	13837.25
483.92	13944.91
484.10	13865.33
484.28	14338.12
484.46	14361.53
484.64	14761.76
484.82	14380.25
485.00	14707.93
485.18	15073.05
485.35	14902.19
485.53	15005.17
485.71	15257.95
485.89	15438.17
486.07	15353.91
486.25	15307.10
486.43	15428.81
486.61	15524.77
486.78	15772.87
486.96	15712.02
487.14	16102.89
487.32	15929.69
487.50	16311.19
487.68	16563.97
487.85	16704.40
488.03	16795.68
488.21	17137.40
488.39	16816.75
488.57	17132.72
488.75	17476.78
488.92	17167.83
489.10	17273.15
489.28	17500.19
489.46	17774.03
489.64	17649.98
489.81	17975.31
489.99	18122.77
490.17	18452.78
490.35	18450.44
490.53	18452.78
490.70	18539.38
490.88	18382.57
491.06	18986.43
491.24	18876.42
491.41	19206.44
491.59	19187.71
491.77	19054.30
491.95	19363.25
492.13	19936.68
492.30	19513.05
492.48	19665.18
492.66	19824.34
492.84	19859.45
493.01	20002.22
493.19	20304.15
493.37	20163.72
493.54	20278.40
493.72	20830.77
493.90	20519.48
494.08	20512.46
494.25	21043.76
494.43	20968.86
494.61	21025.03
494.79	21266.11
494.96	20919.71
495.14	21191.21
495.32	21586.76
495.49	21841.88
495.67	22043.17
495.85	22017.42
496.02	22239.77
496.20	22155.51
496.38	22317.01
496.55	22604.89
496.73	23056.62
496.91	22593.19
497.09	22820.22
497.26	22813.20
497.44	22988.74
497.62	23187.69
497.79	23552.81
497.97	23264.92
498.14	23531.75
498.32	23861.76
498.50	23805.59
498.67	23763.46
498.85	23955.38
499.03	24023.26
499.20	24348.59
499.38	24203.48
499.56	24575.62
499.73	24283.06
499.91	24306.46
500.08	24907.98
500.26	24404.77
500.44	24816.70
500.61	24945.43
500.79	24559.24
500.97	25214.59
501.14	25132.67
501.32	25127.99
501.49	24999.26
501.67	25689.72
501.84	25626.53
502.02	25528.22
502.20	25666.31
502.37	25443.96
502.55	25628.87
502.72	25947.18
502.90	26183.57
503.07	26019.74
503.25	26188.25
503.43	25837.17
503.60	26286.56
503.78	26487.84
503.95	26408.26
504.13	26920.84
504.30	26593.17
504.48	26852.97
504.65	26579.12
504.83	27110.43
505.01	27232.13
505.18	27030.85
505.36	27351.50
505.53	27257.88
505.71	27414.69
505.88	27498.95
506.06	27662.79
506.23	27798.54
506.41	27377.25
506.58	27763.43
506.76	27819.61
506.93	27964.72
507.11	28189.41
507.28	28056.00
507.46	28112.17
507.63	28268.99
507.81	28753.48
507.98	28070.04
508.16	28676.24
508.33	28591.98
508.50	28535.81
508.68	28460.91
508.85	29032.00
509.03	29228.61
509.20	28849.44
509.38	29418.19
509.55	29242.65
509.73	29305.85
509.90	29460.32
510.08	29345.64
510.25	29523.52
510.42	29397.13
510.60	29816.08
510.77	29830.13
510.95	30515.90
511.12	29958.86
511.30	29954.18
511.47	30176.53
511.64	29799.70
511.82	30253.76
511.99	30331.00
512.17	30110.99
512.34	30490.16
512.51	30974.65
512.69	30749.96
512.86	30712.51
513.04	31218.07
513.21	31007.42
513.38	31283.60
513.56	31398.29
513.73	30824.86
513.90	31171.25
514.08	31304.67
514.25	31323.39
514.43	31651.06
514.60	31655.75
514.77	31871.07
514.95	31587.87
515.12	31475.52
515.29	31515.31
515.47	31927.25
515.64	32088.74
515.81	31700.22
515.99	32128.53
516.16	32329.82
516.33	32308.76
516.51	32568.55
516.68	32449.19
516.85	32238.54
517.03	32945.38
517.20	32776.86
517.37	33001.55
517.54	32732.39
517.72	32666.86
517.89	32680.90
518.06	32931.34
518.24	32879.85
518.41	32786.22
518.58	33177.09
518.75	32659.84
518.93	33649.88
519.10	33167.73
519.27	33284.76
519.45	33464.98
519.62	33551.58
519.79	33380.72
519.96	33460.30
520.14	33813.72
520.31	33598.39
520.48	34174.16
520.65	34047.77
520.83	34120.33
521.00	34295.87
521.17	34422.26
521.34	34586.10
521.52	34658.65
521.69	33979.90
521.86	34382.47
522.03	35096.33
522.20	34740.57
522.38	35119.74
522.55	34614.18
522.72	34581.42
522.89	34726.53
523.07	35257.83
523.24	34965.26
523.41	35133.78
523.58	35185.27
523.75	35732.96
523.92	35304.64
524.10	35374.86
524.27	35842.96
524.44	35510.61
524.61	35395.92
524.78	35857.01
524.96	35756.36
525.13	36016.16
525.30	36292.35
525.47	35985.74
525.64	35924.88
525.81	36238.51
525.98	36240.86
526.16	36318.09
526.33	36158.94
526.50	36425.76
526.67	36390.65
526.84	36797.90
527.01	36479.59
527.18	36163.62
527.36	36971.10
527.53	36669.17
527.70	37055.36
527.87	37490.70
528.04	36994.51
528.21	37228.56
528.38	36931.31
528.55	37261.33
528.72	37158.34
528.89	37333.89
529.07	36926.63
529.24	36975.78
529.41	37132.60
529.58	37600.71
529.75	37591.34
529.92	37507.08
530.09	37170.05
530.26	37511.77
530.43	37933.06
530.60	37511.77
530.77	37783.27
530.94	37804.33
531.11	37748.16
531.28	37790.29
531.46	38197.54
531.63	38246.69
531.80	38316.91
531.97	38237.33
532.14	38401.17
532.31	38003.28
532.48	38256.06
532.65	38689.06
532.82	38199.88
532.99	38834.17
533.16	38667.99
533.33	38885.66
533.50	39194.61
533.67	38534.58
533.84	38600.12
534.01	38740.55
534.18	38391.81
534.35	39143.12
534.52	38770.97
534.69	39199.29
534.86	39676.76
535.03	38911.41
535.20	39325.68
535.37	39587.82
535.54	39344.41
535.71	38794.38
535.88	39407.60
536.05	39761.02
536.22	39931.88
536.38	39412.28
536.55	39737.62
536.72	39756.34
536.89	39784.43
537.06	39487.18
537.23	39768.04
537.40	39828.90
537.57	39487.18
537.74	39978.69
537.91	40112.10
538.08	40362.54
538.25	39845.28
538.42	39999.76
538.59	40261.90
538.75	39835.92
538.92	40339.13
539.09	40655.11
539.26	40325.09
539.43	40334.45
539.60	40250.19
539.77	40683.19
539.94	40428.07
540.11	40699.58
540.28	40566.16
540.44	40851.71
540.61	40825.96
540.78	40435.10
540.95	41053.00
541.12	40514.67
541.29	40725.32
541.46	40938.31
541.62	40832.99
541.79	41200.45
541.96	41027.25
542.13	40985.12
542.30	41020.23
542.47	41249.60
542.63	40982.78
542.80	41172.36
542.97	41916.65
543.14	41907.29
543.31	41780.90
543.48	41989.21
543.64	41879.21
543.81	42080.49
543.98	41942.40
544.15	41593.66
544.32	42176.45
544.48	42237.31
544.65	42188.16
544.82	41825.37
544.99	42082.83
545.16	41916.65
545.32	42068.79
545.49	42527.53
545.66	42146.03
545.83	42438.59
546.00	42583.71
546.16	42234.97
546.33	42445.62
546.50	42300.50
546.67	42859.89
546.83	42263.05
547.00	42384.76
547.17	42593.07
547.34	42719.46
547.50	43033.09
547.67	43239.06
547.84	42904.36
548.00	43210.97
548.17	43365.45
548.34	42902.02
548.51	43358.42
548.67	43150.12
548.84	43248.42
549.01	43182.88
549.18	43318.64
549.34	43363.11
549.51	43611.20
549.68	43182.88
549.84	42925.42
550.01	43330.34
550.18	43058.84
550.34	43381.83
550.51	43894.41
550.68	43531.62
550.84	43489.49
551.01	44023.14
551.18	43812.49
551.34	43606.52
551.51	43908.45
551.68	43856.96
551.84	43531.62
552.01	43871.00
552.18	43901.43
552.34	43763.34
552.51	43660.35
552.68	43796.10
552.84	43660.35
553.01	43985.69
553.18	44201.02
553.34	44542.74
553.51	43782.06
553.67	44100.37
553.84	44184.63
554.01	44533.37
554.17	44058.24
554.34	44292.30
554.51	44779.13
554.67	44659.76
554.84	44718.28
555.00	44322.72
555.17	44135.48
555.33	44931.26
555.50	44315.70
555.67	44411.67
555.83	44275.91
556.00	44552.10
556.16	44842.32
556.33	45357.24
556.50	44748.70
556.66	44959.35
556.83	44385.92
556.99	44879.77
557.16	45322.13
557.32	45078.72
557.49	45090.42
557.65	44680.83
557.82	45048.29
557.98	45174.68
558.15	44657.42
558.32	45219.15
558.48	44898.50
558.65	45071.70
558.81	45282.34
558.98	45081.06
559.14	45345.54
559.31	45537.46
559.47	45052.97
559.64	45177.02
559.80	45705.98
559.97	45759.81
560.13	45450.86
560.30	45291.71
560.46	45577.25
560.63	45907.27
560.79	45322.13
560.96	45666.19
561.12	45467.25
561.29	45993.87
561.45	45382.99
561.61	45797.26
561.78	45186.38
561.94	45261.28
562.11	45525.76
562.27	45429.80
562.44	45230.85
562.60	45677.90
562.77	45354.90
562.93	45603.00
563.10	45944.72
563.26	45916.63
563.42	46206.86
563.59	46050.04
563.75	45975.14
563.92	46040.68
564.08	46024.29
564.24	45879.18
564.41	45713.00
564.57	45897.91
564.74	46256.01
564.90	46024.29
565.07	46169.41
565.23	45925.99
565.39	46239.62
565.56	46342.61
565.72	46260.69
565.88	46190.47
566.05	45921.31
566.21	46078.13
566.38	46136.64
566.54	46267.71
566.70	46419.84
566.87	46265.37
567.03	46124.94
567.19	46326.22
567.36	46089.83
567.52	46230.26
567.68	46440.91
567.85	46358.99
568.01	46670.28
568.17	46590.70
568.34	46181.11
568.50	46384.74
568.66	46478.36
568.83	46574.32
568.99	46342.61
569.15	46653.90
569.32	46387.08
569.48	46321.54
569.64	46529.85
569.81	46527.51
569.97	46520.49
570.13	46527.51
570.30	46143.66
570.46	46227.92
570.62	46972.21
570.78	46408.14
570.95	46354.31
571.11	47196.90
571.27	46375.37
571.43	46754.54
571.60	46735.82
571.76	46391.76
571.92	46831.78
572.09	46518.15
572.25	46492.40
572.41	46927.74
572.57	46667.94
572.74	46932.42
572.90	46616.45
573.06	46803.69
573.22	46916.04
573.38	46955.83
573.55	47077.54
573.71	47194.56
573.87	47140.73
574.03	47002.64
574.20	46635.17
574.36	46976.89
574.52	46398.78
574.68	47117.32
574.84	47145.41
575.01	47049.45
575.17	47131.37
575.33	46801.35
575.49	46883.27
575.65	46939.44
575.82	46897.31
575.98	46859.87
576.14	47334.99
576.30	47026.04
576.46	46642.20
576.62	47054.13
576.79	47019.02
576.95	46321.54
577.11	46766.24
577.27	46990.94
577.43	46997.96
577.59	46843.48
577.75	47061.15
577.92	46543.89
578.08	46845.82
578.24	46941.78
578.40	46913.70
578.56	46934.76
578.72	47377.12
578.88	47543.30
579.04	46979.23
579.21	47236.69
579.37	47349.04
579.53	47206.26
579.69	46553.26
579.85	46810.71
580.01	47058.81
580.17	46656.24
580.33	47110.30
580.49	47091.58
580.65	47524.58
580.82	46941.78
580.98	46569.64
581.14	46707.73
581.30	47206.26
581.46	47079.88
581.62	47234.35
581.78	47042.43
581.94	47517.56
582.10	47145.41
582.26	47217.97
582.42	47232.01
582.58	47508.19
582.74	47428.62
582.90	47250.74
583.06	47517.56
583.22	47255.42
583.38	47447.34
583.54	47056.47
583.70	47196.90
583.86	47393.51
584.02	47131.37
584.18	47468.40
584.34	47320.95
584.50	47416.91
584.66	47632.24
584.82	47367.76
584.98	47585.43
585.14	47632.24
585.30	47632.24
585.46	46927.74
585.62	47253.08
585.78	47318.61
585.94	47555.00
586.10	47304.57
586.26	47540.96
586.42	47456.70
586.58	47370.10
586.74	47339.68
586.90	47098.60
587.06	47206.26
587.22	47388.83
587.38	47157.11
587.54	47683.73
587.70	47697.78
587.86	47377.12
588.02	46990.94
588.18	47529.26
588.34	47379.46
588.49	47409.89
588.65	47433.30
588.81	47442.66
588.97	47777.36
589.13	47234.35
589.29	47445.00
589.45	47978.64
589.61	47531.60
589.77	47395.85
589.93	47220.31
590.08	47693.10
590.24	47901.40
590.40	47889.70
590.56	47903.74
590.72	47587.77
590.88	47796.08
591.04	47510.53
591.20	47807.78
591.35	47351.38
591.51	48327.38
591.67	47819.49
591.83	47906.08
591.99	47569.05
592.15	47896.72
592.31	47798.42
592.46	47435.64
592.62	47679.05
592.78	48079.28
592.94	48273.55
593.10	48238.44
593.26	48067.58
593.41	48252.48
593.57	48362.49
593.73	48102.69
593.89	48093.33
594.05	48275.89
594.20	47796.08
594.36	48533.35
594.52	48090.99
594.68	47983.32
594.84	47601.82
594.99	48264.19
595.15	47922.47
595.31	48287.59
595.47	47824.17
595.62	47936.51
595.78	47854.59
595.94	48329.72
596.10	48311.00
596.25	47955.24
596.41	48074.60
596.57	47732.89
596.73	48252.48
596.88	48163.54
597.04	47995.03
597.20	48025.45
597.36	48137.80
597.51	48247.80
597.67	47971.62
597.83	47892.04
597.99	48020.77
598.14	47957.58
598.30	48027.79
598.46	48313.34
598.61	48088.65
598.77	48463.13
598.93	48020.77
599.09	47952.90
599.24	48535.69
599.40	47915.45
599.56	48156.52
599.71	48837.62
599.87	48502.92
600.03	48605.91
600.18	48339.08
600.34	48240.78
600.50	48339.08
600.65	47966.94
600.81	48486.54
600.97	48566.12
601.12	48456.11
601.28	48303.98
601.44	48425.68
601.59	48261.85
601.75	47990.34
601.91	48191.63
602.06	47812.46
602.22	48114.39
602.37	48133.12
602.53	47995.03
602.69	48238.44
602.84	48311.00
603.00	48404.62
603.16	48224.40
603.31	48252.48
603.47	48793.15
603.62	47941.19
603.78	48088.65
603.94	48067.58
604.09	48247.80
604.25	47756.29
604.40	47819.49
604.56	48163.54
604.71	48416.32
604.87	47889.70
605.03	48208.01
605.18	48002.05
605.34	48196.31
605.49	47648.63
605.65	48247.80
605.80	47878.00
605.96	47847.57
606.12	48472.49
606.27	48039.50
606.43	47861.61
606.58	48299.30
606.74	48292.27
606.89	48236.10
607.05	48299.30
607.20	48041.84
607.36	48315.68
607.51	48439.73
607.67	48020.77
607.82	47873.32
607.98	47824.17
608.13	48163.54
608.29	47924.81
608.44	48292.27
608.60	47676.71
608.75	47828.85
608.91	47796.08
609.06	48100.35
609.22	48435.05
609.37	47477.77
609.53	47908.43
609.68	47686.07
609.84	47725.86
609.99	47742.25
610.15	47840.55
610.30	48076.94
610.46	47503.51
610.61	47775.02
610.76	47870.98
610.92	47555.00
611.07	47515.22
611.23	47782.04
611.38	48041.84
611.54	48004.39
611.69	47980.98
611.84	47990.34
612.00	47922.47
612.15	47819.49
612.31	47966.94
612.46	47580.75
612.62	47449.68
612.77	47756.29
612.92	47899.06
613.08	47346.70
613.23	47765.65
613.39	48013.75
613.54	47393.51
613.69	47672.03
613.85	47601.82
614.00	47285.84
614.15	47735.23
614.31	47489.47
614.46	47620.54
614.62	47103.28
614.77	47601.82
614.92	47648.63
615.08	47138.39
615.23	47370.10
615.38	47545.64
615.54	47482.45
615.69	47320.95
615.84	47187.54
616.00	47384.15
616.15	47370.10
616.30	47337.33
616.46	47407.55
616.61	47540.96
616.76	47093.92
616.92	47236.69
617.07	47061.15
617.22	47412.23
617.37	47257.76
617.53	47002.64
617.68	46707.73
617.83	47538.62
617.99	47723.52
618.14	47480.11
618.29	47299.89
618.45	46986.25
618.60	47012.00
618.75	46946.47
618.90	47040.09
619.06	46841.14
619.21	46749.86
619.36	47269.46
619.51	47313.93
619.67	46681.98
619.82	46745.18
619.97	47299.89
620.12	46995.62
620.28	46887.95
620.43	46960.51
620.58	47178.18
620.73	47208.61
620.89	47351.38
621.04	47180.52
621.19	46639.86
621.34	46752.20
621.49	46756.88
621.65	46635.17
621.80	46515.81
621.95	46557.94
622.10	46583.68
622.25	46162.39
622.41	46260.69
622.56	46188.13
622.71	46691.35
622.86	46735.82
623.01	46527.51
623.16	46686.67
623.32	46742.84
623.47	46691.35
623.62	46571.98
623.77	47000.30
623.92	46902.00
624.07	46511.13
624.23	46775.61
624.38	46513.47
624.53	46618.79
624.68	46525.17
624.83	46263.03
624.98	46047.70
625.13	45862.80
625.29	46319.20
625.44	46494.74
625.59	46237.28
625.74	46588.36
625.89	45766.84
626.04	45731.73
626.19	46216.22
626.34	45951.74
626.49	45834.71
626.65	45965.78
626.80	46136.64
626.95	46326.22
627.10	45724.71
627.25	45949.40
627.40	46256.01
627.55	46064.08
627.70	45736.41
627.85	46244.30
628.00	45642.79
628.15	45947.06
628.30	45525.76
628.45	45593.64
628.60	45474.27
628.76	45656.83
628.91	45404.05
629.06	45336.18
629.21	45111.49
629.36	45755.13
629.51	45570.23
629.66	45572.57
629.81	45502.35
629.96	45179.36
630.11	45343.20
630.26	45120.85
630.41	45226.17
630.56	45567.89
630.71	45471.93
630.86	44935.95
631.01	45113.83
631.16	44889.13
631.31	45511.72
631.46	44800.19
631.61	45240.21
631.76	44947.65
631.91	45029.57
632.06	45748.11
632.21	45689.60
632.36	45329.16
632.51	44729.98
632.66	45287.03
632.81	44769.77
632.96	44982.76
633.10	44744.02
633.25	44561.46
633.40	45155.96
633.55	44790.83
633.70	45092.76
633.85	44870.41
634.00	44428.05
634.15	44296.98
634.30	44559.12
634.45	44645.72
634.60	44467.84
634.75	45015.52
634.90	44596.57
635.05	44847.00
635.19	44727.64
635.34	44580.18
635.49	44524.01
635.64	44432.73
635.79	44502.95
635.94	44435.07
636.09	44931.26
636.24	44437.41
636.39	44149.53
636.53	44264.21
636.68	44509.97
636.83	44121.44
636.98	44030.16
637.13	43873.34
637.28	44531.03
637.43	44240.81
637.57	43945.90
637.72	44165.91
637.87	44013.77
638.02	43887.39
638.17	43997.39
638.32	44156.55
638.46	43901.43
638.61	43983.35
638.76	43796.10
638.91	44215.06
639.06	43945.90
639.20	43377.15
639.35	43405.23
639.50	43592.48
639.65	43992.71
639.80	43908.45
639.94	44203.36
640.09	43632.27
640.24	44245.49
640.39	43852.28
640.54	43356.08
640.68	44079.31
640.83	43838.23
640.98	42953.51
641.13	42979.26
641.27	44027.82
641.42	43894.41
641.57	43178.20
641.72	43880.36
641.86	43746.95
642.01	43026.07
642.16	43423.96
642.31	43306.93
642.45	43875.68
642.60	43253.10
642.75	43079.90
642.90	43065.86
643.04	43480.13
643.19	42995.64
643.34	42740.52
643.48	42731.16
643.63	43463.75
643.78	43210.97
643.93	43171.18
644.07	43250.76
644.22	42871.59
644.37	43049.47
644.51	43037.77
644.66	42878.61
644.81	43014.37
644.95	43138.41
645.10	42759.25
645.25	42904.36
645.39	42817.76
645.54	42775.63
645.69	42288.80
645.83	42504.13
645.98	42366.04
646.13	42883.30
646.27	42806.06
646.42	42351.99
646.57	42412.85
646.71	42534.56
646.86	42937.13
647.00	42263.05
647.15	43112.67
647.30	42284.12
647.44	42370.72
647.59	42604.77
647.74	42677.33
647.88	42810.74
648.03	42682.01
648.17	43119.69
648.32	42700.73
648.47	42834.14
648.61	42368.38
648.76	42588.39
648.90	42256.03
649.05	42293.48
649.20	41958.78
649.34	42415.19
649.49	42436.25
649.63	42780.31
649.78	42122.62
649.92	42218.58
650.07	42637.54
650.21	42230.29
650.36	42777.97
650.51	42256.03
650.65	42335.61
650.80	42024.32
650.94	42216.24
651.09	41872.18
651.23	41823.03
651.38	41565.57
651.52	41698.98
651.67	41764.52
651.81	41921.34
651.96	42033.68
652.10	41392.37
652.25	41940.06
652.39	41989.21
652.54	41834.74
652.68	41546.85
652.83	41797.29
652.97	41535.15
653.12	41478.97
653.26	41495.36
653.41	41940.06
653.55	41481.31
653.70	41521.10
653.84	41883.89
653.99	41844.10
654.13	41977.51
654.27	41268.33
654.42	41041.29
654.56	41581.96
654.71	41109.17
654.85	41268.33
655.00	41336.20
655.14	41474.29
655.29	41399.40
655.43	41773.88
655.57	41170.02
655.72	41013.21
655.86	41151.30
656.01	41092.79
656.15	40870.43
656.30	40924.27
656.44	41315.14
656.58	41223.86
656.73	41347.90
656.87	40676.17
657.01	40568.51
657.16	41111.51
657.30	41216.83
657.45	40690.21
657.59	40383.60
657.73	40481.91
657.88	41020.23
658.02	40985.12
658.16	40804.90
658.31	40680.85
658.45	40671.49
658.60	40474.88
658.74	40587.23
658.88	40751.07
659.03	40549.78
659.17	40353.18
659.31	40329.77
659.46	40285.30
659.60	40189.34
659.74	40474.88
659.89	39978.69
660.03	39571.44
660.17	40247.85
660.32	40170.61
660.46	40135.51
660.60	39290.57
660.74	40140.19
660.89	40037.20
661.03	39194.61
661.17	39398.24
661.32	39955.29
661.46	39810.17
661.60	39316.32
661.74	39363.13
661.89	39557.39
662.03	40123.80
662.17	39374.83
662.31	38817.78
662.46	39288.23
662.60	39178.23
662.74	38939.49
662.88	39154.82
663.03	38628.20
663.17	38754.59
663.31	39051.84
663.45	38813.10
663.60	39133.76
663.74	38714.80
663.88	39061.20
664.02	38546.28
664.17	38946.51
664.31	38506.49
664.45	38361.38
664.59	38841.19
664.73	38487.77
664.88	38890.34
665.02	38148.39
665.16	38616.50
665.30	38560.33
665.44	38490.11
665.59	37832.42
665.73	38094.56
665.87	37574.96
666.01	37982.21
666.15	38256.06
666.29	37823.06
666.44	38232.65
666.58	37895.61
666.72	38012.64
666.86	37453.25
667.00	37617.09
667.14	37558.58
667.28	37464.96
667.43	36945.36
667.57	37743.48
667.71	37497.72
667.85	37867.53
667.99	37469.64
668.13	37097.49
668.27	36943.02
668.41	37354.95
668.56	36837.69
668.70	36514.70
668.84	36336.82
668.98	36554.49
669.12	37022.59
669.26	36692.58
669.40	36442.14
669.54	36711.30
669.68	36484.27
669.82	36601.30
669.96	35847.64
670.10	36011.48
670.25	36084.04
670.39	36184.68
670.53	36577.89
670.67	35913.18
670.81	36112.13
670.95	36191.70
671.09	35735.30
671.23	35751.68
671.37	35611.25
671.51	35852.33
671.65	35208.68
671.79	35512.95
671.93	35695.51
672.07	35583.16
672.21	35491.88
672.35	35229.74
672.49	35138.46
672.63	34972.28
672.77	34923.13
672.91	35054.20
673.05	35129.10
673.19	34775.68
673.33	34391.83
673.47	34574.39
673.61	34494.82
673.75	34448.00
673.89	33797.34
674.03	34005.64
674.17	34183.52
674.31	34410.56
674.45	34195.23
674.59	33813.72
674.73	34279.49
674.87	33724.78
675.01	33582.01
675.15	33394.76
675.29	33188.80
675.43	33780.95
675.56	33621.80
675.70	33333.91
675.84	33305.82
675.98	31924.91
676.12	33399.44
676.26	33230.93
676.40	32765.16
676.54	32591.96
676.68	32669.20
676.82	31995.12
676.96	32549.83
677.10	32978.15
677.23	32327.48
677.37	32430.46
677.51	32266.63
677.65	32257.26
677.79	31798.52
677.93	31728.30
678.07	31878.10
678.21	31505.95
678.34	31517.65
678.48	31239.13
678.62	31344.45
678.76	31360.84
678.90	31550.42
679.04	31185.30
679.18	31440.42
679.31	30838.90
679.45	30845.92
679.59	30602.50
679.73	30803.79
679.87	30707.83
680.00	30583.78
680.14	30651.66
680.28	30342.70
680.42	30101.63
680.56	30476.12
680.70	30167.16
680.83	30071.20
680.97	29752.89
681.11	30064.18
681.25	29577.35
681.39	29191.16
681.52	29628.84
681.66	29001.58
681.80	28879.87
681.94	28851.78
682.07	28851.78
682.21	28835.40
682.35	28566.24
682.49	28907.96
682.62	28507.72
682.76	28350.91
682.90	28233.88
683.04	28360.27
683.17	28208.14
683.31	28025.57
683.45	28194.09
683.59	27461.51
683.72	27578.53
683.86	27653.43
684.00	27620.66
684.13	27630.02
684.27	27248.52
684.41	27367.88
684.55	27590.24
684.68	27197.02
684.82	27054.25
684.96	26904.46
685.09	27070.64
685.23	26867.01
685.37	26888.07
685.50	27241.50
685.64	26841.26
685.78	26499.55
685.91	26073.57
686.05	26136.76
686.19	25872.28
686.32	25656.95
686.46	25738.87
686.60	25649.93
686.73	25762.28
686.87	25553.97
687.01	25465.03
687.14	25355.02
687.28	25741.21
687.42	25235.66
687.55	25303.53
687.69	25305.87
687.82	25074.16
687.96	25102.25
688.10	25123.31
688.23	25266.08
688.37	24786.27
688.50	24929.05
688.64	24538.18
688.78	24582.65
688.91	24514.77
689.05	24517.11
689.18	23894.53
689.32	23840.70
689.46	23658.14
689.59	23435.78
689.73	23775.16
689.86	24205.82
690.00	23557.49
690.13	23735.37
690.27	23276.63
690.41	23150.24
690.54	23168.96
690.68	22967.68
690.81	23042.57
690.95	22881.08
691.08	22684.47
691.22	22471.48
691.35	22396.59
691.49	22750.01
691.62	22810.86
691.76	22183.60
691.89	22150.83
692.03	21991.67
692.16	21626.55
692.30	21879.33
692.43	21881.67
692.57	21521.23
692.70	21448.67
692.84	21465.05
692.97	20971.20
693.11	21390.16
693.24	21214.62
693.38	21099.93
693.51	20847.15
693.65	21128.02
693.78	20638.84
693.92	20503.09
694.05	20706.72
694.19	20573.31
694.32	20545.22
694.45	20772.25
694.59	20793.32
694.72	20716.08
694.86	20264.36
694.99	20161.37
695.13	19871.15
695.26	19758.80
695.39	19564.54
695.53	19679.22
695.66	19711.99
695.80	19499.00
695.93	19466.24
696.07	19066.00
696.20	18867.06
696.33	19084.73
696.47	19026.21
696.60	19040.26
696.73	18831.95
696.87	19281.33
697.00	18916.21
697.14	18555.77
697.27	18642.37
697.40	18689.18
697.54	18534.70
697.67	18246.82
697.80	18576.83
697.94	18412.99
698.07	18078.30
698.21	18195.32
698.34	18298.31
698.47	17975.31
698.61	17603.17
698.74	17476.78
698.87	17631.26
699.01	17507.21
699.14	17429.97
699.27	17277.83
699.40	17291.88
699.54	17205.28
699.67	17263.79
699.80	17067.19
699.94	17011.01
700.07	16650.57
700.20	16830.79
700.34	16828.45
700.47	16620.14
700.60	16685.68
700.73	16699.72
700.87	16470.35
701.00	16276.09
701.13	16421.20
701.26	16147.36
701.40	15983.52
701.53	15971.82
701.66	15939.05
701.79	15873.51
701.93	15564.56
702.06	15482.64
702.19	15293.06
702.32	15793.94
702.46	15679.25
702.59	15723.72
702.72	15644.14
702.85	15272.00
702.99	15389.02
703.12	15042.62
703.25	14883.47
703.38	14958.36
703.51	14829.63
703.65	14951.34
703.78	14581.54
703.91	14508.98
704.04	14565.15
704.17	14394.29
704.31	14253.86
704.44	14251.52
704.57	14155.56
704.70	14157.90
704.83	14214.07
704.96	14040.87
705.10	13874.70
705.23	13825.54
>>>>>End Processed Spectral Data<<<<<
