SpectraSuite Data File
++++++++++++++++++++++++++++++++++++
Date: Fri Oct 25 10:43:46 EDT 2013
User: price-jones
Dark Spectrum Present: No
Reference Spectrum Present: No
Number of Sampled Component Spectra: 1
Spectrometers: USB2+H05261
Integration Time (usec): 100000 (USB2+H05261)
Spectra Averaged: 1 (USB2+H05261)
Boxcar Smoothing: 0 (USB2+H05261)
Correct for Electrical Dark: No (USB2+H05261)
Strobe/Lamp Enabled: No (USB2+H05261)
Correct for Detector Non-linearity: No (USB2+H05261)
Correct for Stray Light: No (USB2+H05261)
Number of Pixels in Processed Spectrum: 2048
>>>>>Begin Processed Spectral Data<<<<<
365.73	88.94
365.92	88.94
366.12	88.94
366.32	77.24
366.52	11.70
366.72	49.15
366.91	53.83
367.11	28.09
367.31	0.00
367.51	81.92
367.70	4.68
367.90	37.45
368.10	11.70
368.30	21.06
368.49	9.36
368.69	0.00
368.89	14.04
369.09	81.92
369.28	32.77
369.48	0.00
369.68	7.02
369.87	77.24
370.07	79.58
370.27	93.62
370.47	180.22
370.66	421.30
370.86	416.62
371.06	477.47
371.25	451.72
371.45	489.17
371.65	428.32
371.84	498.53
372.04	447.04
372.24	430.66
372.44	486.83
372.63	514.92
372.83	512.58
373.03	451.72
373.22	498.53
373.42	486.83
373.62	498.53
373.81	479.81
374.01	540.66
374.21	531.30
374.40	468.11
374.60	571.09
374.79	599.18
374.99	582.79
375.19	589.82
375.38	564.07
375.58	561.73
375.78	650.67
375.97	610.88
376.17	641.31
376.37	477.47
376.56	596.84
376.76	575.77
376.95	613.22
377.15	627.26
377.35	660.03
377.54	685.78
377.74	615.56
377.93	660.03
378.13	636.63
378.33	699.82
378.52	723.23
378.72	692.80
378.91	664.71
379.11	613.22
379.31	608.54
379.50	662.37
379.70	622.58
379.89	648.33
380.09	629.60
380.28	660.03
380.48	629.60
380.68	608.54
380.87	552.37
381.07	662.37
381.26	746.63
381.46	706.84
381.65	634.29
381.85	674.07
382.04	692.80
382.24	697.48
382.43	681.10
382.63	697.48
382.83	720.88
383.02	664.71
383.22	777.06
383.41	662.37
383.61	690.46
383.80	753.65
384.00	772.38
384.19	777.06
384.39	734.93
384.58	802.80
384.78	807.48
384.97	767.70
385.17	795.78
385.36	842.59
385.56	826.21
385.75	767.70
385.95	774.72
386.14	882.38
386.34	805.14
386.53	784.08
386.72	854.30
386.92	884.72
387.11	791.10
387.31	805.14
387.50	896.43
387.70	868.34
387.89	840.25
388.09	961.96
388.28	915.15
388.48	992.39
388.67	957.28
388.86	971.32
389.06	976.00
389.25	933.87
389.45	990.05
389.64	1062.60
389.84	1004.09
390.03	1022.81
390.22	1050.90
390.42	943.24
390.61	1039.20
390.81	1004.09
391.00	1104.73
391.19	1006.43
391.39	1076.65
391.58	1043.88
391.78	1100.05
391.97	1039.20
392.16	1006.43
392.36	1067.28
392.55	978.34
392.75	959.62
392.94	950.26
393.13	938.55
393.33	1006.43
393.52	1086.01
393.71	1025.15
393.91	1121.12
394.10	1097.71
394.29	1100.05
394.49	1196.01
394.68	1259.21
394.88	1111.75
395.07	1301.34
395.26	1212.40
395.46	1224.10
395.65	1282.61
395.84	1114.10
396.04	1291.98
396.23	1174.95
396.42	1067.28
396.62	1174.95
396.81	1198.35
397.00	1139.84
397.19	1207.72
397.39	1324.74
397.58	1336.45
397.77	1343.47
397.97	1359.85
398.16	1308.36
398.35	1439.43
398.55	1476.88
398.74	1453.47
398.93	1474.54
399.12	1416.02
399.32	1500.28
399.51	1486.24
399.70	1596.25
399.90	1537.73
400.09	1481.56
400.28	1575.18
400.47	1619.65
400.67	1619.65
400.86	1558.80
401.05	1589.22
401.24	1678.16
401.44	1687.53
401.63	1760.08
401.82	1652.42
402.01	1734.34
402.21	1727.32
402.40	1664.12
402.59	1664.12
402.78	1722.63
402.97	1699.23
403.17	1722.63
403.36	1746.04
403.55	1785.83
403.74	1753.06
403.93	1898.17
404.13	1907.54
404.32	1867.75
404.51	1748.38
404.70	1867.75
404.89	1781.15
405.09	1877.11
405.28	1968.39
405.47	1949.67
405.66	1905.20
405.85	1940.30
406.05	1907.54
406.24	1921.58
406.43	1959.03
406.62	2090.10
406.81	2113.50
407.00	2003.50
407.20	2106.48
407.39	2005.84
407.58	2160.31
407.77	2153.29
407.96	2221.17
408.15	2122.87
408.34	2146.27
408.54	2218.83
408.73	2174.36
408.92	2223.51
409.11	2225.85
409.30	2249.25
409.49	2291.38
409.68	2115.84
409.87	2129.89
410.07	2331.17
410.26	2251.60
410.45	2354.58
410.64	2347.56
410.83	2473.95
411.02	2487.99
411.21	2548.84
411.40	2518.42
411.59	2527.78
411.78	2544.16
411.98	2553.52
412.17	2619.06
412.36	2647.15
412.55	2630.76
412.74	2686.94
412.93	2700.98
413.12	2616.72
413.31	2832.05
413.50	2820.35
413.69	2750.13
413.88	2792.26
414.07	2881.20
414.26	2822.69
414.45	2909.29
414.64	2944.39
414.83	2832.05
415.02	2949.08
415.22	3096.53
415.41	3016.95
415.60	3187.81
415.79	3155.04
415.98	3169.09
416.17	3206.53
416.36	3183.13
416.55	3201.85
416.74	3243.98
416.93	3136.32
417.12	3234.62
417.31	3206.53
417.50	3293.13
417.69	3295.47
417.88	3269.73
418.07	3316.54
418.26	3323.56
418.45	3459.31
418.64	3590.38
418.83	3480.38
419.02	3513.14
419.21	3566.98
419.39	3653.58
419.58	3463.99
419.77	3391.44
419.96	3648.90
420.15	3606.77
420.34	3590.38
420.53	3660.60
420.72	3822.09
420.91	3733.15
421.10	3625.49
421.29	3878.27
421.48	3791.67
421.67	3742.52
421.86	3653.58
422.05	3716.77
422.24	3728.47
422.43	3688.68
422.61	3770.60
422.80	3932.10
422.99	3833.80
423.18	3836.14
423.37	3953.16
423.56	3721.45
423.75	3695.71
423.94	3854.86
424.13	3733.15
424.32	3625.49
424.50	3887.63
424.69	4044.45
424.88	3915.72
425.07	3817.41
425.26	3831.46
425.45	3836.14
425.64	3857.20
425.83	3871.25
426.01	3875.93
426.20	3950.82
426.39	3967.21
426.58	3782.31
426.77	3911.04
426.96	4100.62
427.15	3871.25
427.33	4004.66
427.52	4009.34
427.71	3957.85
427.90	3999.98
428.09	4124.02
428.28	4105.30
428.46	4117.00
428.65	4152.11
428.84	4077.21
429.03	4168.49
429.22	3960.19
429.40	4056.15
429.59	3962.53
429.78	3911.04
429.97	3871.25
430.16	3941.46
430.34	4032.74
430.53	4152.11
430.72	4023.38
430.91	4147.43
431.10	4184.88
431.28	4393.19
431.47	4503.19
431.66	4528.94
431.85	4477.44
432.03	4451.70
432.22	4461.06
432.41	4519.57
432.60	4463.40
432.79	4617.88
432.97	4620.22
433.16	4531.28
433.35	4599.15
433.54	4641.28
433.72	4631.92
433.91	4718.52
434.10	4767.67
434.28	4777.03
434.47	4702.14
434.66	4760.65
434.85	4840.23
435.03	4819.16
435.22	4882.36
435.41	5149.18
435.59	4954.91
435.78	5071.94
435.97	5043.85
436.16	5053.22
436.34	4929.17
436.53	5163.22
436.72	5146.84
436.90	4875.34
437.09	5125.77
437.28	4922.15
437.46	5114.07
437.65	5025.13
437.84	5165.56
438.02	5198.33
438.21	5067.26
438.40	5057.90
438.58	5181.95
438.77	5313.02
438.96	5261.52
439.14	5432.38
439.33	5497.92
439.52	5460.47
439.70	5469.83
439.89	5568.13
440.08	5547.07
440.26	5596.22
440.45	5481.53
440.63	5790.49
440.82	5961.34
441.01	5710.91
441.19	5879.43
441.38	5841.98
441.57	5774.10
441.75	6024.54
441.94	6296.04
442.12	6314.77
442.31	6319.45
442.50	6169.65
442.68	6258.59
442.87	6141.57
443.05	6216.46
443.24	6380.30
443.43	6399.02
443.61	6342.85
443.80	6476.26
443.98	6190.72
444.17	5947.30
444.35	6434.13
444.54	6471.58
444.73	6565.20
444.91	6279.66
445.10	6375.62
445.28	6333.49
445.47	6263.27
445.65	6392.00
445.84	6455.20
446.02	6483.28
446.21	6413.07
446.39	6724.36
446.58	6558.18
446.77	6621.38
446.95	6387.32
447.14	6396.68
447.32	6466.90
447.51	6586.27
447.69	6590.95
447.88	6441.15
448.06	6630.74
448.25	6586.27
448.43	6597.97
448.62	6572.22
448.80	6651.80
448.99	6759.47
449.17	6710.32
449.36	6595.63
449.54	6953.73
449.73	6909.26
449.91	6949.05
450.10	7148.00
450.28	7178.42
450.46	7140.97
450.65	6864.79
450.83	7087.14
451.02	7094.16
451.20	7005.22
451.39	7279.07
451.57	7155.02
451.76	7098.84
451.94	7185.44
452.13	7246.30
452.31	7091.82
452.49	7042.67
452.68	7049.69
452.86	7131.61
453.05	7115.23
453.23	7145.66
453.42	7126.93
453.60	7250.98
453.78	7042.67
453.97	7190.13
454.15	7279.07
454.34	7337.58
454.52	7239.28
454.70	7356.30
454.89	7272.04
455.07	7379.71
455.26	7377.37
455.44	7581.00
455.62	7419.50
455.81	7648.87
455.99	7719.09
456.17	7667.60
456.36	7667.60
456.54	7712.07
456.73	7822.07
456.91	7934.42
457.09	7793.98
457.28	7960.16
457.46	7793.98
457.64	8156.77
457.83	7875.90
458.01	7915.69
458.19	8009.31
458.38	7999.95
458.56	8131.02
458.74	8112.30
458.93	8194.22
459.11	8018.68
459.29	8039.74
459.48	8128.68
459.66	8304.22
459.84	8264.43
460.03	8372.10
460.21	8386.14
460.39	8353.37
460.57	8395.50
460.76	8411.89
460.94	8439.97
461.12	8535.93
461.31	8463.38
461.49	8528.91
461.67	8418.91
461.85	8816.80
462.04	8549.98
462.22	9022.77
462.40	8912.76
462.59	8643.60
462.77	8484.44
462.95	8830.84
463.13	8943.19
463.32	8826.16
463.50	8901.06
463.68	8992.34
463.86	8945.53
464.05	8573.38
464.23	8741.90
464.41	8919.78
464.59	8723.18
464.78	9125.75
464.96	8898.72
465.14	8919.78
465.32	9027.45
465.50	9043.83
465.69	9312.99
465.87	8922.12
466.05	8769.99
466.23	8905.74
466.41	8847.22
466.60	9294.27
466.78	8952.55
466.96	9144.47
467.14	8982.98
467.32	9174.90
467.51	9289.59
467.69	8992.34
467.87	9149.15
468.05	9568.11
468.23	9345.76
468.41	9217.03
468.60	9303.63
468.78	9357.46
468.96	9387.89
469.14	9654.71
469.32	9731.95
469.50	9415.98
469.69	9563.43
469.87	9753.01
470.05	9514.28
470.23	9778.76
470.41	9626.62
470.59	9685.14
470.77	9586.83
470.95	9570.45
471.14	10122.82
471.32	9874.72
471.50	9870.04
471.68	10113.45
471.86	9996.43
472.04	10068.98
472.22	10356.87
472.40	10164.95
472.58	10312.40
472.77	10155.58
472.95	10413.04
473.13	10665.82
473.31	10462.19
473.49	10361.55
473.67	10438.79
473.85	10382.62
474.03	10752.42
474.21	10743.06
474.39	10942.00
474.57	10839.02
474.75	10778.17
474.93	11026.26
475.12	10993.50
475.30	11075.42
475.48	10970.09
475.66	10939.66
475.84	11147.97
476.02	11337.56
476.20	11410.11
476.38	11538.84
476.56	11592.67
476.74	11606.72
476.92	11599.70
477.10	11775.24
477.28	11857.15
477.46	11920.35
477.64	12173.13
477.82	12222.28
478.00	12404.84
478.18	12432.93
478.36	12372.07
478.54	12517.18
478.72	12608.47
478.90	12961.89
479.08	13039.12
479.26	12917.42
479.44	13020.40
479.62	12870.61
479.80	12894.01
479.98	13315.31
480.16	13362.12
480.34	13331.69
480.52	13383.18
480.70	13532.98
480.88	13249.77
481.06	13757.67
481.24	13593.83
481.41	13970.66
481.59	14113.43
481.77	14174.28
481.95	14239.82
482.13	14335.78
482.31	14078.32
482.49	14700.90
482.67	14574.52
482.85	14745.38
483.03	14864.74
483.21	15047.30
483.39	15122.20
483.57	15047.30
483.74	15063.69
483.92	15152.63
484.10	15412.43
484.28	15758.83
484.46	15934.37
484.64	15672.23
484.82	15702.65
485.00	15929.69
485.18	16203.53
485.35	16156.72
485.53	16027.99
485.71	16037.35
485.89	16322.90
486.07	16121.61
486.25	16175.44
486.43	16362.69
486.61	16982.93
486.78	16872.92
486.96	17259.11
487.14	17334.01
487.32	17235.70
487.50	17610.19
487.68	17781.05
487.85	17921.48
488.03	18310.01
488.21	18160.22
488.39	17972.97
488.57	18469.17
488.75	18429.38
488.92	18714.92
489.10	18803.86
489.28	18958.34
489.46	19257.93
489.64	19508.37
489.81	19733.06
489.99	19859.45
490.17	19789.23
490.35	19997.54
490.53	20224.57
490.70	20013.92
490.88	20477.35
491.06	20318.19
491.24	20545.22
491.41	20489.05
491.59	20833.11
491.77	20451.60
491.95	20695.02
492.13	20830.77
492.30	21125.68
492.48	21256.75
492.66	21273.13
492.84	21755.28
493.01	21776.34
493.19	21546.97
493.37	21783.37
493.54	21963.59
493.72	22284.24
493.90	22307.65
494.08	22637.66
494.25	22895.12
494.43	22719.58
494.61	22815.54
494.79	23087.04
494.96	23073.00
495.14	23274.29
495.32	23353.87
495.49	23337.48
495.67	23393.65
495.85	23620.69
496.02	23576.22
496.20	23908.57
496.38	23901.55
496.55	24135.60
496.73	24624.78
496.91	24606.05
497.09	24802.66
497.26	24645.84
497.44	24678.61
497.62	25036.71
497.79	24978.20
497.97	25041.39
498.14	24863.51
498.32	25591.42
498.50	25436.94
498.67	25462.69
498.85	25750.57
499.03	26061.87
499.20	25876.96
499.38	25766.96
499.56	25827.81
499.73	26321.66
499.91	26054.84
500.08	25881.64
500.26	26094.63
500.44	26450.39
500.61	26204.64
500.79	26197.62
500.97	26284.22
501.14	26728.92
501.32	26616.57
501.49	26558.06
501.67	26377.84
501.84	27061.27
502.02	27283.62
502.20	26927.86
502.37	27538.74
502.55	27342.14
502.72	27346.82
502.90	27611.30
503.07	27473.21
503.25	27721.30
503.43	27747.05
503.60	28034.94
503.78	27789.18
503.95	27658.11
504.13	28037.28
504.30	28278.35
504.48	28126.22
504.65	28694.97
504.83	28514.75
505.01	28882.21
505.18	28465.60
505.36	28858.81
505.53	28776.89
505.71	29104.56
505.88	29184.14
506.06	29179.46
506.23	29174.78
506.41	29083.50
506.58	29542.24
506.76	29371.38
506.93	29766.93
507.11	29567.99
507.28	29701.40
507.46	29633.52
507.63	29799.70
507.81	29811.40
507.98	29874.60
508.16	29867.58
508.33	30155.46
508.50	30401.22
508.68	30527.61
508.85	30307.60
509.03	30249.08
509.20	30602.50
509.38	30799.11
509.55	30705.49
509.73	30801.45
509.90	30974.65
510.08	31140.83
510.25	31030.82
510.42	31082.31
510.60	31271.90
510.77	31178.28
510.95	31452.12
511.12	31548.08
511.30	31536.38
511.47	31852.35
511.64	31454.46
511.82	32011.51
511.99	31728.30
512.17	32016.19
512.34	31967.04
512.51	32196.41
512.69	32240.88
512.86	32194.07
513.04	32158.96
513.21	32268.97
513.38	32481.95
513.56	32369.61
513.73	32098.11
513.90	32776.86
514.08	32535.79
514.25	32318.12
514.43	32470.25
514.60	32828.35
514.77	33043.68
514.95	33336.25
515.12	33296.46
515.29	33326.89
515.47	33362.00
515.64	33441.57
515.81	33574.98
515.99	33205.18
516.16	33209.86
516.33	33244.97
516.51	32961.76
516.68	32795.59
516.85	32697.28
517.03	32762.82
517.20	33525.83
517.37	34031.39
517.54	34178.84
517.72	34047.77
517.89	33525.83
518.06	33420.51
518.24	33593.71
518.41	34155.44
518.58	33900.32
518.75	34059.48
518.93	34239.70
519.10	34820.15
519.27	34583.76
519.45	34576.73
519.62	34567.37
519.79	34946.54
519.96	34738.23
520.14	35030.80
520.31	34520.56
520.48	35239.11
520.65	34831.85
520.83	35063.57
521.00	35545.72
521.17	35250.81
521.34	35168.89
521.52	35688.49
521.69	35751.68
521.86	35440.39
522.03	35651.04
522.20	35765.73
522.38	35957.65
522.55	35990.42
522.72	36032.55
522.89	36041.91
523.07	36074.68
523.24	36287.67
523.41	36191.70
523.58	36030.21
523.75	36811.95
523.92	36788.54
524.10	36692.58
524.27	36748.75
524.44	36418.74
524.61	37287.07
524.78	36950.04
524.96	36776.84
525.13	37631.13
525.30	37340.91
525.47	37331.54
525.64	37055.36
525.81	36980.46
525.98	37064.72
526.16	36807.26
526.33	37001.53
526.50	36734.71
526.67	36954.72
526.84	36762.79
527.01	37003.87
527.18	37432.19
527.36	37956.47
527.53	37727.10
527.70	38036.05
527.87	38059.45
528.04	37610.07
528.21	38335.63
528.38	38089.88
528.55	38068.81
528.72	38438.62
528.89	38567.35
529.07	38871.62
529.24	38115.62
529.41	38394.15
529.58	38071.15
529.75	38405.85
529.92	38682.03
530.09	38902.04
530.26	38700.76
530.43	38824.81
530.60	38646.93
530.77	38443.30
530.94	38925.45
531.11	38759.27
531.28	39014.39
531.46	39241.42
531.63	39182.91
531.80	38878.64
531.97	39044.82
532.14	39196.95
532.31	38604.80
532.48	39023.75
532.65	39189.93
532.82	39133.76
532.99	39206.31
533.16	39267.17
533.33	39255.46
533.50	39482.50
533.67	39543.35
533.84	39295.25
534.01	39168.87
534.18	39316.32
534.35	39955.29
534.52	39531.65
534.69	39346.75
534.86	39775.06
535.03	40053.59
535.20	40346.15
535.37	40369.56
535.54	40676.17
535.71	40184.66
535.88	40257.21
536.05	40123.80
536.22	40360.20
536.38	40364.88
536.55	40229.13
536.72	40201.04
536.89	39889.75
537.06	40547.44
537.23	40680.85
537.40	40446.80
537.57	40517.01
537.74	40664.47
537.91	40652.76
538.08	41038.95
538.25	40315.73
538.42	40634.04
538.59	40802.56
538.75	40355.52
538.92	40861.07
539.09	40783.83
539.26	41057.68
539.43	41420.46
539.60	41230.88
539.77	40669.15
539.94	40940.65
540.11	40814.26
540.28	40900.86
540.44	41174.70
540.61	41132.57
540.78	40952.35
540.95	41343.22
541.12	41095.13
541.29	40865.75
541.46	41439.18
541.62	41179.39
541.79	41895.59
541.96	40999.16
542.13	41418.12
542.30	41441.53
542.47	41453.23
542.63	41724.73
542.80	40823.62
542.97	42141.35
543.14	41918.99
543.31	41979.85
543.48	42237.31
543.64	41961.12
543.81	42443.27
543.98	42436.25
544.15	42323.91
544.32	42621.16
544.48	42267.73
544.65	42356.67
544.82	42799.04
544.99	41991.55
545.16	42333.27
545.32	42075.81
545.49	42878.61
545.66	42527.53
545.83	42672.65
546.00	42983.94
546.16	42801.38
546.33	42621.16
546.50	42534.56
546.67	43051.81
546.83	42562.64
547.00	43091.60
547.17	42740.52
547.34	42761.59
547.50	42698.39
547.67	43192.25
547.84	42560.30
548.00	43143.09
548.17	42740.52
548.34	43323.32
548.51	43346.72
548.67	43524.60
548.84	43136.07
549.01	43250.76
549.18	43461.41
549.34	43351.40
549.51	43136.07
549.68	43449.70
549.84	43440.34
550.01	43360.76
550.18	43440.34
550.34	43498.86
550.51	43639.29
550.68	43559.71
550.84	43335.02
551.01	43934.20
551.18	43618.22
551.34	43438.00
551.51	43950.58
551.68	43688.44
551.84	43901.43
552.01	43543.33
552.18	44002.07
552.34	43430.98
552.51	43573.75
552.68	43597.16
552.84	43950.58
553.01	43742.27
553.18	43962.28
553.34	43952.92
553.51	43501.20
553.67	43931.86
553.84	44392.94
554.01	44610.61
554.17	44371.88
554.34	44439.75
554.51	44598.91
554.67	44348.47
554.84	44243.15
555.00	44058.24
555.17	44025.48
555.33	44392.94
555.50	44182.29
555.67	44414.01
555.83	44088.67
556.00	44315.70
556.16	44596.57
556.33	44332.09
556.50	44479.54
556.66	44542.74
556.83	44364.85
556.99	44502.95
557.16	44882.11
557.32	44540.39
557.49	44776.79
557.65	44823.60
557.82	44704.23
557.98	44912.54
558.15	44425.71
558.32	45146.59
558.48	44392.94
558.65	44594.23
558.81	44346.13
558.98	44360.17
559.14	44652.74
559.31	44477.20
559.47	44959.35
559.64	45057.65
559.80	44584.86
559.97	44741.68
560.13	44760.40
560.30	44676.15
560.46	44729.98
560.63	44856.37
560.79	45064.67
560.96	45282.34
561.12	45088.08
561.29	44739.34
561.45	44825.94
561.61	45038.93
561.78	45212.13
561.94	44762.75
562.11	44800.19
562.27	44648.06
562.44	44788.49
562.60	45268.30
562.77	44919.56
562.93	44788.49
563.10	45525.76
563.26	45048.29
563.42	45324.47
563.59	44715.93
563.75	44751.04
563.92	45361.92
564.08	44985.10
564.24	45478.95
564.41	45319.79
564.57	45244.90
564.74	45085.74
564.90	45258.94
565.07	45212.13
565.23	45001.48
565.39	45202.77
565.56	45233.19
565.72	44781.47
565.88	44884.45
566.05	45095.10
566.21	45399.37
566.38	45172.34
566.54	44896.16
566.70	45085.74
566.87	45713.00
567.03	45495.33
567.19	46033.66
567.36	45727.05
567.52	45497.67
567.68	45333.84
567.85	45551.51
568.01	45904.93
568.17	45294.05
568.34	45579.59
568.50	45408.73
568.66	45338.52
568.83	45134.89
568.99	45319.79
569.15	45141.91
569.32	45310.43
569.48	45296.39
569.64	45532.78
569.81	45422.78
569.97	45385.33
570.13	45205.11
570.30	45099.78
570.46	44992.12
570.62	44839.98
570.78	45132.55
570.95	45336.18
571.11	45556.19
571.27	45354.90
571.43	45497.67
571.60	45507.04
571.76	45151.27
571.92	45797.26
572.09	45666.19
572.25	45380.65
572.41	45598.32
572.57	45933.01
572.74	45916.63
572.90	45436.82
573.06	45778.54
573.22	45837.05
573.38	45724.71
573.55	45378.31
573.71	46096.85
573.87	46162.39
574.03	46103.87
574.20	45647.47
574.36	45975.14
574.52	45439.16
574.68	45638.11
574.84	45703.64
575.01	45467.25
575.17	45811.31
575.33	45237.87
575.49	45619.38
575.65	45762.15
575.82	45790.24
575.98	45546.82
576.14	45560.87
576.30	45717.68
576.46	45392.35
576.62	45485.97
576.79	45883.86
576.95	45553.85
577.11	45656.83
577.27	45635.77
577.43	45542.14
577.59	45340.86
577.75	45488.31
577.92	45034.25
578.08	45387.67
578.24	45048.29
578.40	45380.65
578.56	45703.64
578.72	45551.51
578.88	46199.83
579.04	45949.40
579.21	45579.59
579.37	45474.27
579.53	45851.09
579.69	45549.17
579.85	45167.66
580.01	45448.52
580.17	45757.47
580.33	45745.77
580.49	45801.94
580.65	45935.35
580.82	45708.32
580.98	45535.12
581.14	45326.81
581.30	45862.80
581.46	45446.18
581.62	45551.51
581.78	45787.90
581.94	46178.77
582.10	45837.05
582.26	45783.22
582.42	45764.49
582.58	46038.34
582.74	45830.03
582.90	46075.79
583.06	46150.68
583.22	45804.28
583.38	45801.94
583.54	45804.28
583.70	46007.91
583.86	46052.38
584.02	45752.79
584.18	46033.66
584.34	45546.82
584.50	45705.98
584.66	45619.38
584.82	45397.03
584.98	46033.66
585.14	45815.99
585.30	45607.68
585.46	46094.51
585.62	45553.85
585.78	45703.64
585.94	45640.45
586.10	45511.72
586.26	45528.10
586.42	45977.48
586.58	46089.83
586.74	45954.08
586.90	45745.77
587.06	45345.54
587.22	46047.70
587.38	45586.61
587.54	45851.09
587.70	45937.69
587.86	45764.49
588.02	45450.86
588.18	45944.72
588.34	45752.79
588.49	44952.33
588.65	45174.68
588.81	45364.26
588.97	45394.69
589.13	45701.30
589.29	45469.59
589.45	45663.85
589.61	45490.65
589.77	45408.73
589.93	45900.25
590.08	46075.79
590.24	46101.53
590.40	46185.79
590.56	46476.02
590.72	46131.96
590.88	45757.47
591.04	45855.78
591.20	46536.87
591.35	46223.24
591.51	46358.99
591.67	45895.56
591.83	45991.53
591.99	45500.01
592.15	45595.98
592.31	45504.70
592.46	46050.04
592.62	45902.59
592.78	46230.26
592.94	45951.74
593.10	46171.75
593.26	46473.68
593.41	46024.29
593.57	45663.85
593.73	45813.65
593.89	45937.69
594.05	45977.48
594.20	45876.84
594.36	46106.21
594.52	45904.93
594.68	46160.05
594.84	45663.85
594.99	45907.27
595.15	45970.46
595.31	45708.32
595.47	45993.87
595.62	45975.14
595.78	45848.75
595.94	46253.67
596.10	46124.94
596.25	46160.05
596.41	45823.01
596.57	45490.65
596.73	45986.85
596.88	45813.65
597.04	45785.56
597.20	45951.74
597.36	46038.34
597.51	46220.90
597.67	46071.10
597.83	45942.38
597.99	46258.35
598.14	45921.31
598.30	45979.82
598.46	45940.04
598.61	46445.59
598.77	45556.19
598.93	45942.38
599.09	46036.00
599.24	46291.12
599.40	46195.15
599.56	45963.44
599.71	45998.55
599.87	46136.64
600.03	45904.93
600.18	45832.37
600.34	45659.17
600.50	45703.64
600.65	45893.22
600.81	46281.75
600.97	46155.36
601.12	46223.24
601.28	45858.12
601.44	45689.60
601.59	45631.08
601.75	45766.84
601.91	46075.79
602.06	45689.60
602.22	45720.02
602.37	45869.82
602.53	46188.13
602.69	46033.66
602.84	46415.16
603.00	45893.22
603.16	46031.32
603.31	45979.82
603.47	46258.35
603.62	45780.88
603.78	46024.29
603.94	46213.88
604.09	46110.89
604.25	46141.32
604.40	45942.38
604.56	45612.36
604.71	46138.98
604.87	45855.78
605.03	45961.10
605.18	45832.37
605.34	45972.80
605.49	45549.17
605.65	45600.66
605.80	45532.78
605.96	45977.48
606.12	45818.33
606.27	45940.04
606.43	45474.27
606.58	45736.41
606.74	45317.45
606.89	45757.47
607.05	45532.78
607.20	46061.74
607.36	45535.12
607.51	46057.06
607.67	45759.81
607.82	45993.87
607.98	45425.12
608.13	45544.48
608.29	45635.77
608.44	45460.23
608.60	45481.29
608.75	45694.28
608.91	45705.98
609.06	45549.17
609.22	45514.06
609.37	45057.65
609.53	45815.99
609.68	45357.24
609.84	45783.22
609.99	45331.50
610.15	45064.67
610.30	45572.57
610.46	45317.45
610.61	45345.54
610.76	45813.65
610.92	45525.76
611.07	45394.69
611.23	45137.23
611.38	45371.28
611.54	45097.44
611.69	45177.02
611.84	44926.58
612.00	44652.74
612.15	45394.69
612.31	45020.20
612.46	45624.06
612.62	45263.62
612.77	44900.84
612.92	45413.41
613.08	44847.00
613.23	44818.92
613.39	44617.63
613.54	44643.38
613.69	44629.34
613.85	44781.47
614.00	45530.44
614.15	44774.45
614.31	44933.60
614.46	45193.40
614.62	44924.24
614.77	44734.66
614.92	44676.15
615.08	44823.60
615.23	44772.11
615.38	44367.20
615.54	44446.77
615.69	44811.90
615.84	44748.70
616.00	44458.48
616.15	44884.45
616.30	44697.21
616.46	44699.55
616.61	44268.89
616.76	44442.09
616.92	44247.83
617.07	43852.28
617.22	44505.29
617.37	44233.78
617.53	44811.90
617.68	44589.55
617.83	44832.96
617.99	44355.49
618.14	44341.45
618.29	44009.09
618.45	44205.70
618.60	43732.91
618.75	43824.19
618.90	44114.42
619.06	44320.38
619.21	44098.03
619.36	44554.44
619.51	43913.13
619.67	43803.13
619.82	44252.51
619.97	44322.72
620.12	43861.64
620.28	43365.45
620.43	43798.44
620.58	44013.77
620.73	44051.22
620.89	43917.81
621.04	43564.39
621.19	44044.20
621.34	44205.70
621.49	43578.43
621.65	43564.39
621.80	43915.47
621.95	43662.69
622.10	43798.44
622.25	43849.94
622.41	43592.48
622.56	43533.96
622.71	43896.75
622.86	43693.12
623.01	43372.47
623.16	43983.35
623.32	43482.47
623.47	43131.39
623.62	43786.74
623.77	43384.17
623.92	43643.97
624.07	43206.29
624.23	43199.27
624.38	43182.88
624.53	42913.72
624.68	43250.76
624.83	43407.58
624.98	43342.04
625.13	42674.99
625.29	42829.46
625.44	42504.13
625.59	42735.84
625.74	42445.62
625.89	42747.54
626.04	42689.03
626.19	42934.79
626.34	42838.83
626.49	42946.49
626.65	42569.66
626.80	42564.98
626.95	42696.05
627.10	42457.32
627.25	42466.68
627.40	42340.29
627.55	42394.12
627.70	42293.48
627.85	42403.49
628.00	42351.99
628.15	42445.62
628.30	42576.69
628.45	42667.97
628.60	42029.00
628.76	42546.26
628.91	42777.97
629.06	42190.50
629.21	41734.09
629.36	41801.97
629.51	41991.55
629.66	41961.12
629.81	41893.25
629.96	41996.23
630.11	42108.58
630.26	42380.08
630.41	42190.50
630.56	42057.09
630.71	41722.39
630.86	42014.96
631.01	41954.10
631.16	42003.25
631.31	41675.58
631.46	41525.78
631.61	42075.81
631.76	42108.58
631.91	41902.61
632.06	41706.01
632.21	42043.04
632.36	41923.68
632.51	41544.51
632.66	41600.68
632.81	41591.32
632.96	41607.70
633.10	41282.37
633.25	41539.83
633.40	41359.61
633.55	41675.58
633.70	41476.63
633.85	41310.46
634.00	41265.99
634.15	41352.58
634.30	41588.98
634.45	41336.20
634.60	41020.23
634.75	41364.29
634.90	41127.89
635.05	41209.81
635.19	41490.68
635.34	41324.50
635.49	41069.38
635.64	41151.30
635.79	41179.39
635.94	40973.42
636.09	41045.97
636.24	40451.48
636.39	40910.22
636.53	41006.19
636.68	40865.75
636.83	40641.06
636.98	41001.50
637.13	41006.19
637.28	41015.55
637.43	41106.83
637.57	41069.38
637.72	40624.68
637.87	40996.82
638.02	40804.90
638.17	40832.99
638.32	40116.78
638.46	40545.10
638.61	40215.08
638.76	40444.46
638.91	40383.60
639.06	40928.95
639.20	40823.62
639.35	40840.01
639.50	40947.67
639.65	40477.22
639.80	40491.27
639.94	40098.06
640.09	40409.35
640.24	40561.48
640.39	40165.93
640.54	40287.64
640.68	40156.57
640.83	40521.69
640.98	39896.77
641.13	39866.34
641.27	40322.75
641.42	40147.21
641.57	40037.20
641.72	40163.59
641.86	39770.38
642.01	39924.86
642.16	40194.02
642.31	39765.70
642.45	39672.08
642.60	39480.16
642.75	39571.44
642.90	40102.74
643.04	39871.03
643.19	39777.40
643.34	39725.91
643.48	39786.77
643.63	39669.74
643.78	39400.58
643.93	39580.80
644.07	39910.82
644.22	39002.69
644.37	39522.29
644.51	39789.11
644.66	39585.48
644.81	39388.88
644.95	39435.69
645.10	39344.41
645.25	39707.19
645.39	39552.71
645.54	39435.69
645.69	39351.43
645.83	39126.74
645.98	39405.26
646.13	39000.35
646.27	39613.57
646.42	39157.16
646.57	39374.83
646.71	39037.80
646.86	39313.98
647.00	39126.74
647.15	38946.51
647.30	39026.09
647.44	38834.17
647.59	39150.14
647.74	38464.36
647.88	38770.97
648.03	38806.08
648.17	39012.05
648.32	38883.32
648.47	39136.10
648.61	38813.10
648.76	39037.80
648.90	38895.02
649.05	38855.23
649.20	38871.62
649.34	38639.90
649.49	38581.39
649.63	38670.33
649.78	39206.31
649.92	38583.73
650.07	38742.89
650.21	38536.92
650.36	38983.96
650.51	38684.37
650.65	38955.88
650.80	39302.28
650.94	38782.68
651.09	38843.53
651.23	38031.36
651.38	38127.33
651.52	37982.21
651.67	37921.36
651.81	38113.28
651.96	38024.34
652.10	38401.17
652.25	38426.92
652.39	38188.18
652.54	38501.81
652.68	38195.20
652.83	38223.29
652.97	38675.01
653.12	38380.10
653.26	37879.23
653.41	38031.36
653.55	38101.58
653.70	37933.06
653.84	37956.47
653.99	38197.54
654.13	37467.30
654.27	37727.10
654.42	37926.04
654.56	38014.98
654.71	37923.70
654.85	37315.16
655.00	37745.82
655.14	37439.21
655.29	37191.11
655.43	37551.56
655.57	37191.11
655.72	37118.56
655.86	36858.76
656.01	37504.74
656.15	36662.15
656.30	36863.44
656.44	36947.70
656.58	37186.43
656.73	37516.45
656.87	36919.61
657.01	37226.22
657.16	36961.74
657.30	37104.51
657.45	37151.32
657.59	36566.19
657.73	36823.65
657.88	37366.65
658.02	37172.39
658.16	37397.08
658.31	37291.76
658.45	37024.93
658.60	37111.53
658.74	37036.64
658.88	37137.28
659.03	37022.59
659.17	36643.43
659.31	36488.95
659.46	36451.50
659.60	36385.97
659.74	36226.81
659.89	36180.00
660.03	36484.27
660.17	36680.88
660.32	36346.18
660.46	36493.63
660.60	36746.41
660.74	36067.66
660.89	36273.62
661.03	36079.36
661.17	36062.97
661.32	35807.86
661.46	36371.92
661.60	36006.80
661.74	35697.85
661.89	36175.32
662.03	35985.74
662.17	35789.13
662.31	35594.87
662.46	35950.63
662.60	36533.42
662.74	35744.66
662.88	35676.79
663.03	35604.23
663.17	35225.06
663.31	35332.73
663.45	35304.64
663.60	35412.31
663.74	35374.86
663.88	35342.09
664.02	34864.62
664.17	35239.11
664.31	34651.63
664.45	34504.18
664.59	34822.49
664.73	34983.99
664.88	35023.78
665.02	34483.11
665.16	34885.68
665.30	34515.88
665.44	34965.26
665.59	34328.64
665.73	34660.99
665.87	34433.96
666.01	34469.07
666.15	34520.56
666.29	34448.00
666.44	34431.62
666.58	34401.19
666.72	34497.16
666.86	34691.42
667.00	34740.57
667.14	34031.39
667.28	34174.16
667.43	34281.83
667.57	33965.85
667.71	34005.64
667.85	34176.50
667.99	33619.46
668.13	33820.74
668.27	34284.17
668.41	33998.62
668.56	33446.26
668.70	33415.83
668.84	33427.53
668.98	33233.27
669.12	33434.55
669.26	33493.07
669.40	32996.87
669.54	32910.27
669.68	33146.67
669.82	32627.07
669.96	33076.45
670.10	32809.63
670.25	32875.16
670.39	32833.04
670.53	32517.06
670.67	32538.13
670.81	32648.13
670.95	32439.82
671.09	32779.20
671.23	32376.63
671.37	32142.58
671.51	32348.54
671.65	32517.06
671.79	31981.08
671.93	32079.38
672.07	32086.40
672.21	32105.13
672.35	31885.12
672.49	31920.23
672.63	32067.68
672.77	31522.34
672.91	31910.86
673.05	31693.19
673.19	31784.48
673.33	31573.83
673.47	31445.10
673.61	31110.40
673.75	31299.98
673.89	31398.29
674.03	31311.69
674.17	31115.08
674.31	31021.46
674.45	30906.77
674.59	31611.28
674.73	31005.08
674.87	31009.76
675.01	30801.45
675.15	30930.18
675.29	30497.18
675.43	30522.93
675.56	30682.08
675.70	30490.16
675.84	30017.37
675.98	29645.23
676.12	29937.79
676.26	30424.62
676.40	29876.94
676.54	30059.50
676.68	30078.22
676.82	29572.67
676.96	29542.24
677.10	29769.27
677.23	29659.27
677.37	29373.72
677.51	29570.33
677.65	29310.53
677.79	28723.05
677.93	28893.91
678.07	28753.48
678.21	28636.45
678.34	28673.90
678.48	28484.32
678.62	28453.89
678.76	28318.14
678.90	28395.38
679.04	28212.82
679.18	28563.90
679.31	28198.77
679.45	27634.71
679.59	27683.86
679.73	28056.00
679.87	27243.84
680.00	27835.99
680.14	27229.79
680.28	27847.69
680.42	27377.25
680.56	27632.36
680.70	27395.97
680.83	27428.74
680.97	27098.72
681.11	27143.19
681.25	27037.87
681.39	26738.28
681.52	26658.70
681.66	26991.06
681.80	26724.24
681.94	26757.00
682.07	26408.26
682.21	26136.76
682.35	26354.43
682.49	26267.83
682.62	26501.89
682.76	25951.86
682.90	25802.07
683.04	26022.08
683.17	25902.71
683.31	25642.91
683.45	25757.60
683.59	25380.77
683.72	25399.49
683.86	25668.66
684.00	25603.12
684.13	25263.74
684.27	24987.56
684.41	24891.60
684.55	25109.27
684.68	24978.20
684.82	24879.89
684.96	24776.91
685.09	24489.03
685.23	24479.66
685.37	24449.24
685.50	24327.53
685.64	24334.55
685.78	24142.63
685.91	24063.05
686.05	23782.18
686.19	23821.97
686.32	24091.13
686.46	23393.65
686.60	23339.82
686.73	23255.56
686.87	23026.19
687.01	22838.95
687.14	22860.01
687.28	22527.66
687.42	23065.98
687.55	22977.04
687.69	22946.61
687.82	22953.63
687.96	22829.59
688.10	22579.15
688.23	22527.66
688.37	22368.50
688.50	22647.02
688.64	22368.50
688.78	22216.36
688.91	22143.81
689.05	21865.28
689.18	22078.27
689.32	21624.21
689.46	22045.51
689.59	22125.08
689.73	22244.45
689.86	21628.89
690.00	21596.12
690.13	21715.49
690.27	21383.13
690.41	21326.96
690.54	20975.88
690.68	21137.38
690.81	20971.20
690.95	20938.43
691.08	21025.03
691.22	21006.31
691.35	20685.65
691.49	20842.47
691.62	20786.30
691.76	21062.48
691.89	20608.42
692.03	20308.83
692.16	20388.41
692.30	20306.49
692.43	20049.03
692.57	20070.09
692.70	19976.47
692.84	19985.83
692.97	20011.58
693.11	19571.56
693.24	19630.07
693.38	19861.79
693.51	19641.78
693.65	19372.61
693.78	19466.24
693.92	19290.70
694.05	19108.13
694.19	19126.86
694.32	19211.12
694.45	19068.34
694.59	19000.47
694.72	18963.02
694.86	18745.35
694.99	18628.32
695.13	18637.69
695.26	18986.43
695.39	18628.32
695.53	18604.92
695.66	18562.79
695.80	18478.53
695.93	18494.91
696.07	18043.19
696.20	18235.11
696.33	18202.35
696.47	17980.00
696.60	17790.41
696.73	17867.65
696.87	17624.23
697.00	17792.75
697.14	17366.78
697.27	17448.69
697.40	17270.81
697.54	17153.79
697.67	17245.07
697.80	17179.53
697.94	17345.71
698.07	17074.21
698.21	16931.44
698.34	16945.48
698.47	17139.74
698.61	16613.12
698.74	16465.67
698.87	16556.95
699.01	16519.50
699.14	16395.45
699.27	16159.06
699.40	16077.14
699.54	16257.36
699.67	16037.35
699.80	16060.76
699.94	15880.53
700.07	15936.71
700.20	15992.88
700.34	15845.43
700.47	15866.49
700.60	16161.40
700.73	15974.16
700.87	15531.80
701.00	15618.39
701.13	15543.50
701.26	15527.11
701.40	15389.02
701.53	15384.34
701.66	15269.66
701.79	14986.45
701.93	15016.88
702.06	14684.52
702.19	14815.59
702.32	14824.95
702.46	14712.61
702.59	14731.33
702.72	14813.25
702.85	14846.02
702.99	14626.01
703.12	14450.47
703.25	14263.22
703.38	14459.83
703.51	14237.48
703.65	14284.29
703.78	13961.30
703.91	13813.84
704.04	14040.87
704.17	13862.99
704.31	14080.66
704.44	13895.76
704.57	13729.58
704.70	13490.85
704.83	13523.62
704.96	13680.43
705.10	13671.07
705.23	13743.63
>>>>>End Processed Spectral Data<<<<<
