SpectraSuite Data File
++++++++++++++++++++++++++++++++++++
Date: Fri Oct 25 10:46:59 EDT 2013
User: price-jones
Dark Spectrum Present: No
Reference Spectrum Present: No
Number of Sampled Component Spectra: 1
Spectrometers: USB2+H05261
Integration Time (usec): 100000 (USB2+H05261)
Spectra Averaged: 1 (USB2+H05261)
Boxcar Smoothing: 0 (USB2+H05261)
Correct for Electrical Dark: No (USB2+H05261)
Strobe/Lamp Enabled: No (USB2+H05261)
Correct for Detector Non-linearity: No (USB2+H05261)
Correct for Stray Light: No (USB2+H05261)
Number of Pixels in Processed Spectrum: 2048
>>>>>Begin Processed Spectral Data<<<<<
365.73	140.43
365.92	140.43
366.12	140.43
366.32	145.11
366.52	0.00
366.72	93.62
366.91	74.90
367.11	30.43
367.31	0.00
367.51	0.00
367.70	14.04
367.90	16.38
368.10	0.00
368.30	21.06
368.49	0.00
368.69	56.17
368.89	86.60
369.09	32.77
369.28	44.47
369.48	67.88
369.68	72.56
369.87	124.05
370.07	72.56
370.27	191.92
370.47	177.88
370.66	369.80
370.86	449.38
371.06	559.39
371.25	500.87
371.45	484.49
371.65	503.22
371.84	421.30
372.04	430.66
372.24	557.05
372.44	461.09
372.63	582.79
372.83	519.60
373.03	482.15
373.22	524.28
373.42	507.90
373.62	470.45
373.81	587.47
374.01	554.71
374.21	585.13
374.40	594.50
374.60	519.60
374.79	601.52
374.99	528.96
375.19	552.37
375.38	545.34
375.58	533.64
375.78	568.75
375.97	608.54
376.17	674.07
376.37	636.63
376.56	622.58
376.76	568.75
376.95	622.58
377.15	559.39
377.35	655.35
377.54	650.67
377.74	517.26
377.93	587.47
378.13	643.65
378.33	664.71
378.52	601.52
378.72	627.26
378.91	671.73
379.11	706.84
379.31	631.94
379.50	629.60
379.70	706.84
379.89	685.78
380.09	690.46
380.28	664.71
380.48	648.33
380.68	617.90
380.87	688.12
381.07	667.05
381.26	667.05
381.46	727.91
381.65	711.52
381.85	674.07
382.04	716.20
382.24	744.29
382.43	664.71
382.63	669.39
382.83	760.67
383.02	732.59
383.22	858.98
383.41	746.63
383.61	716.20
383.80	767.70
384.00	828.55
384.19	723.23
384.39	800.46
384.58	760.67
384.78	690.46
384.97	847.27
385.17	807.48
385.36	716.20
385.56	823.87
385.75	746.63
385.95	826.21
386.14	851.96
386.34	826.21
386.53	842.59
386.72	821.53
386.92	938.55
387.11	828.55
387.31	823.87
387.50	880.04
387.70	837.91
387.89	791.10
388.09	798.12
388.28	924.51
388.48	877.70
388.67	847.27
388.86	877.70
389.06	990.05
389.25	938.55
389.45	973.66
389.64	910.47
389.84	980.68
390.03	1013.45
390.22	999.41
390.42	990.05
390.61	1020.47
390.81	980.68
391.00	1029.84
391.19	1004.09
391.39	961.96
391.58	1034.52
391.78	978.34
391.97	1011.11
392.16	1001.75
392.36	954.94
392.55	1027.50
392.75	1039.20
392.94	1039.20
393.13	999.41
393.33	1006.43
393.52	1004.09
393.71	1088.35
393.91	1081.33
394.10	1078.99
394.29	1062.60
394.49	1107.07
394.68	1095.37
394.88	1221.76
395.07	1219.42
395.26	1174.95
395.46	1107.07
395.65	1132.82
395.84	1177.29
396.04	1284.95
396.23	1198.35
396.42	1156.22
396.62	1207.72
396.81	1249.85
397.00	1268.57
397.19	1245.16
397.39	1315.38
397.58	1338.79
397.77	1294.32
397.97	1343.47
398.16	1359.85
398.35	1420.71
398.55	1343.47
398.74	1462.83
398.93	1409.00
399.12	1343.47
399.32	1427.73
399.51	1423.05
399.70	1481.56
399.90	1511.99
400.09	1519.01
400.28	1549.43
400.47	1460.49
400.67	1652.42
400.86	1563.48
401.05	1596.25
401.24	1610.29
401.44	1631.35
401.63	1638.38
401.82	1511.99
402.01	1547.09
402.21	1603.27
402.40	1621.99
402.59	1675.82
402.78	1652.42
402.97	1795.19
403.17	1689.87
403.36	1732.00
403.55	1703.91
403.74	1767.10
403.93	1694.55
404.13	1811.57
404.32	1757.74
404.51	1823.28
404.70	1930.94
404.89	1736.68
405.09	1785.83
405.28	1832.64
405.47	1837.32
405.66	1860.73
405.85	1834.98
406.05	1902.86
406.24	1888.81
406.43	1928.60
406.62	1907.54
406.81	2054.99
407.00	2038.61
407.20	1949.67
407.39	2026.90
407.58	2024.56
407.77	2143.93
407.96	2062.01
408.15	2043.29
408.34	2150.95
408.54	2216.49
408.73	2195.42
408.92	2244.57
409.11	2242.23
409.30	2153.29
409.49	2244.57
409.68	2237.55
409.87	2127.55
410.07	2169.68
410.26	2165.00
410.45	2319.47
410.64	2373.30
410.83	2385.01
411.02	2338.20
411.21	2352.24
411.40	2413.09
411.59	2457.56
411.78	2445.86
411.98	2385.01
412.17	2436.50
412.36	2548.84
412.55	2649.49
412.74	2497.35
412.93	2576.93
413.12	2544.16
413.31	2696.30
413.50	2616.72
413.69	2696.30
413.88	2736.09
414.07	2672.89
414.26	2754.81
414.45	2752.47
414.64	2843.75
414.83	2850.77
415.02	2876.52
415.22	2930.35
415.41	2953.76
415.60	2909.29
415.79	2949.08
415.98	3033.33
416.17	3002.91
416.36	3000.57
416.55	3052.06
416.74	3124.62
416.93	3021.63
417.12	3108.23
417.31	3124.62
417.50	3148.02
417.69	3162.06
417.88	3241.64
418.07	3262.71
418.26	3337.60
418.45	3295.47
418.64	3346.97
418.83	3438.25
419.02	3321.22
419.21	3311.86
419.39	3421.86
419.58	3482.72
419.77	3332.92
419.96	3438.25
420.15	3623.15
420.34	3562.30
420.53	3623.15
420.72	3662.94
420.91	3445.27
421.10	3686.34
421.29	3691.02
421.48	3665.28
421.67	3679.32
421.86	3604.42
422.05	3571.66
422.24	3597.40
422.43	3684.00
422.61	3618.47
422.80	3676.98
422.99	3805.71
423.18	3801.03
423.37	3927.42
423.56	3779.97
423.75	3651.24
423.94	3559.95
424.13	3513.14
424.32	3599.74
424.50	3801.03
424.69	3932.10
424.88	3843.16
425.07	3693.37
425.26	3639.53
425.45	3740.18
425.64	3805.71
425.83	3859.54
426.01	3866.56
426.20	3887.63
426.39	3906.35
426.58	3794.01
426.77	3791.67
426.96	3889.97
427.15	3882.95
427.33	3859.54
427.52	3810.39
427.71	3889.97
427.90	3934.44
428.09	3997.64
428.28	4063.17
428.46	4009.34
428.65	3896.99
428.84	4053.81
429.03	4102.96
429.22	3976.57
429.40	4060.83
429.59	4063.17
429.78	3817.41
429.97	3831.46
430.16	3913.38
430.34	3920.40
430.53	4161.47
430.72	4102.96
430.91	3906.35
431.10	4098.28
431.28	4355.74
431.47	4500.85
431.66	4386.16
431.85	4404.89
432.03	4437.66
432.22	4374.46
432.41	4353.40
432.60	4400.21
432.79	4355.74
432.97	4545.32
433.16	4461.06
433.35	4421.27
433.54	4346.37
433.72	4636.60
433.91	4482.13
434.10	4451.70
434.28	4594.47
434.47	4514.89
434.66	4702.14
434.85	4631.92
435.03	4770.01
435.22	4835.55
435.41	4695.11
435.59	4678.73
435.78	4926.83
435.97	4999.38
436.16	4809.80
436.34	5041.51
436.53	4933.85
436.72	4924.49
436.90	4931.51
437.09	4978.32
437.28	4863.63
437.46	4973.64
437.65	4933.85
437.84	4990.02
438.02	5043.85
438.21	4933.85
438.40	4945.55
438.58	5135.14
438.77	5214.71
438.96	5174.92
439.14	5291.95
439.33	5432.38
439.52	5310.68
439.70	5352.81
439.89	5523.66
440.08	5378.55
440.26	5528.35
440.45	5540.05
440.63	5542.39
440.82	5654.73
441.01	5589.20
441.19	5792.83
441.38	5820.91
441.57	5942.62
441.75	5895.81
441.94	6017.52
442.12	6043.26
442.31	6071.35
442.50	5930.92
442.68	5837.30
442.87	6120.50
443.05	6132.20
443.24	6207.10
443.43	6115.82
443.61	6141.57
443.80	6303.06
443.98	6143.91
444.17	5961.34
444.35	6225.82
444.54	6237.53
444.73	6366.26
444.91	6129.86
445.10	6148.59
445.28	6162.63
445.47	6043.26
445.65	6155.61
445.84	6228.17
446.02	6193.06
446.21	6286.68
446.39	6221.14
446.58	6209.44
446.77	6223.48
446.95	6284.34
447.14	6387.32
447.32	6490.31
447.51	6258.59
447.69	6286.68
447.88	6450.52
448.06	6230.51
448.25	6368.60
448.43	6452.86
448.62	6483.28
448.80	6356.90
448.99	6560.52
449.17	6640.10
449.36	6455.20
449.54	6651.80
449.73	6686.91
449.91	6768.83
450.10	6782.87
450.28	6956.07
450.46	6602.65
450.65	6927.99
450.83	6672.87
451.02	6693.93
451.20	7016.93
451.39	6757.13
451.57	6860.11
451.76	6736.06
451.94	6850.75
452.13	6960.75
452.31	6883.52
452.49	6846.07
452.68	6815.64
452.86	6946.71
453.05	7131.61
453.23	6977.14
453.42	6876.49
453.60	7082.46
453.78	6944.37
453.97	6916.28
454.15	6979.48
454.34	7040.33
454.52	7169.06
454.70	7321.20
454.89	7131.61
455.07	7215.87
455.26	7337.58
455.44	7475.67
455.62	7358.64
455.81	7400.77
455.99	7428.86
456.17	7368.01
456.36	7485.03
456.54	7513.12
456.73	7761.22
456.91	7756.54
457.09	7676.96
457.28	7655.89
457.46	7632.49
457.64	7805.69
457.83	7871.22
458.01	7527.16
458.19	7857.18
458.38	7686.32
458.56	7990.59
458.74	7852.50
458.93	7789.30
459.11	7700.36
459.29	7857.18
459.48	7896.97
459.66	8217.62
459.84	7985.91
460.03	8044.42
460.21	8025.70
460.39	7918.03
460.57	8149.75
460.76	8119.32
460.94	8287.84
461.12	8273.79
461.31	8283.16
461.49	8287.84
461.67	8290.18
461.85	8409.54
462.04	8428.27
462.22	8786.37
462.40	8674.03
462.59	8355.71
462.77	8603.81
462.95	8542.96
463.13	8540.61
463.32	8620.19
463.50	8594.45
463.68	8737.22
463.86	8517.21
464.05	8475.08
464.23	8524.23
464.41	8526.57
464.59	8463.38
464.78	8667.00
464.96	8648.28
465.14	8725.52
465.32	8875.31
465.50	8908.08
465.69	8872.97
465.87	8638.92
466.05	8842.54
466.23	8861.27
466.41	8795.73
466.60	9057.87
466.78	8851.91
466.96	8814.46
467.14	9027.45
467.32	9064.89
467.51	9032.13
467.69	8863.61
467.87	8943.19
468.05	9177.24
468.23	8994.68
468.41	9097.66
468.60	9132.77
468.78	9259.16
468.96	9174.90
469.14	9036.81
469.32	9399.59
469.50	9004.04
469.69	9415.98
469.87	9572.79
470.05	9462.79
470.23	9390.23
470.41	9408.95
470.59	9481.51
470.77	9769.40
470.95	9624.28
471.14	9556.41
471.32	9465.13
471.50	9851.31
471.68	9877.06
471.86	9834.93
472.04	9827.91
472.22	10209.42
472.40	10003.45
472.58	9984.73
472.77	10012.81
472.95	10132.18
473.13	10389.64
473.31	10043.24
473.49	9961.32
473.67	10078.35
473.85	10321.76
474.03	10349.85
474.21	10476.24
474.39	10377.94
474.57	10649.44
474.75	10743.06
474.93	10853.06
475.12	10836.68
475.30	10714.97
475.48	10768.80
475.66	10956.05
475.84	10817.96
476.02	11052.01
476.20	10951.37
476.38	11283.72
476.56	11400.75
476.74	11059.03
476.92	11339.90
477.10	11358.62
477.28	11660.55
477.46	11428.84
477.64	11688.64
477.82	11873.54
478.00	12177.81
478.18	11922.69
478.36	12013.97
478.54	12355.69
478.72	11999.93
478.90	12409.52
479.08	12453.99
479.26	12531.23
479.44	12702.09
479.62	12468.03
479.80	12828.48
479.98	13118.70
480.16	13102.32
480.34	13071.89
480.52	13422.97
480.70	13055.51
480.88	13071.89
481.06	13055.51
481.24	13462.76
481.41	13710.86
481.59	13657.03
481.77	13989.38
481.95	13813.84
482.13	13804.48
482.31	13785.76
482.49	14347.48
482.67	14384.93
482.85	14464.51
483.03	14597.92
483.21	14452.81
483.39	14752.40
483.57	14565.15
483.74	15026.24
483.92	14829.63
484.10	14834.32
484.28	15426.47
484.46	15480.30
484.64	15396.04
484.82	15456.90
485.00	15700.31
485.18	15747.12
485.35	16013.95
485.53	15690.95
485.71	15688.61
485.89	15990.54
486.07	15775.21
486.25	16201.19
486.43	16439.92
486.61	16470.35
486.78	16938.46
486.96	16959.52
487.14	17240.39
487.32	17083.57
487.50	17280.18
487.68	17589.13
487.85	17860.63
488.03	17909.78
488.21	17900.42
488.39	17963.61
488.57	18127.45
488.75	18043.19
488.92	18356.82
489.10	18698.54
489.28	18375.55
489.46	18834.29
489.64	18698.54
489.81	19496.66
489.99	19571.56
490.17	19463.90
490.35	19688.59
490.53	19410.06
490.70	19885.19
490.88	19749.44
491.06	20152.01
491.24	19777.53
491.41	20027.96
491.59	20056.05
491.77	20098.18
491.95	20510.11
492.13	20409.47
492.30	20826.09
492.48	20762.89
492.66	21184.19
492.84	21231.00
493.01	21687.40
493.19	21776.34
493.37	21516.54
493.54	21628.89
493.72	21553.99
493.90	21539.95
494.08	21907.41
494.25	22190.62
494.43	22490.21
494.61	22424.67
494.79	22745.33
494.96	22429.35
495.14	22300.62
495.32	22955.97
495.49	22995.76
495.67	23208.75
495.85	23065.98
496.02	23506.00
496.20	23295.35
496.38	23386.63
496.55	23852.40
496.73	23946.02
496.91	23873.46
497.09	23840.70
497.26	24327.53
497.44	24219.86
497.62	24009.22
497.79	24741.80
497.97	24156.67
498.14	24463.28
498.32	24840.11
498.50	24465.62
498.67	25362.04
498.85	24996.92
499.03	25308.21
499.20	25273.10
499.38	25317.57
499.56	25589.08
499.73	25963.56
499.91	25542.27
500.08	26192.94
500.26	25553.97
500.44	26015.05
500.61	26251.45
500.79	25926.11
500.97	25867.60
501.14	26251.45
501.32	26096.97
501.49	26047.82
501.67	26719.56
501.84	26714.87
502.02	26838.92
502.20	26813.18
502.37	27267.24
502.55	27241.50
502.72	27218.09
502.90	27232.13
503.07	27302.35
503.25	27370.22
503.43	27227.45
503.60	27845.35
503.78	27630.02
503.95	27250.86
504.13	27578.53
504.30	27915.57
504.48	27843.01
504.65	27915.57
504.83	28058.34
505.01	28247.93
505.18	28446.87
505.36	28561.56
505.53	28566.24
505.71	28936.04
505.88	28615.39
506.06	28493.68
506.23	28884.55
506.41	28896.25
506.58	28858.81
506.76	29118.60
506.93	29472.03
507.11	28947.75
507.28	29261.38
507.46	29263.72
507.63	29198.18
507.81	29376.06
507.98	29432.24
508.16	29895.66
508.33	29647.57
508.50	29827.79
508.68	29874.60
508.85	30445.69
509.03	30394.20
509.20	30120.35
509.38	30429.30
509.55	30679.74
509.73	30326.32
509.90	30307.60
510.08	30040.78
510.25	30728.89
510.42	30766.34
510.60	30656.34
510.77	31232.11
510.95	31133.81
511.12	30857.62
511.30	31239.13
511.47	31189.98
511.64	31407.65
511.82	31115.08
511.99	31351.48
512.17	31131.47
512.34	31335.09
512.51	31882.78
512.69	31550.42
512.86	31967.04
513.04	31826.60
513.21	31800.86
513.38	31969.38
513.56	32196.41
513.73	31784.48
513.90	32407.06
514.08	32341.52
514.25	32357.91
514.43	31931.93
514.60	32247.90
514.77	32870.48
514.95	33031.98
515.12	32587.28
515.29	32755.80
515.47	32938.36
515.64	33170.07
515.81	33397.10
515.99	33120.92
516.16	33036.66
516.33	33139.65
516.51	32957.08
516.68	32491.32
516.85	32556.85
517.03	33146.67
517.20	33221.56
517.37	33062.41
517.54	33404.13
517.72	33448.60
517.89	32926.66
518.06	33560.94
518.24	33308.16
518.41	33813.72
518.58	33556.26
518.75	33567.96
518.93	33820.74
519.10	33975.22
519.27	34448.00
519.45	34284.17
519.62	34487.79
519.79	34485.45
519.96	34759.30
520.14	34583.76
520.31	34448.00
520.48	35028.46
520.65	34710.14
520.83	34522.90
521.00	35178.25
521.17	35168.89
521.34	35042.50
521.52	35683.81
521.69	35145.48
521.86	35178.25
522.03	35421.67
522.20	35648.70
522.38	35412.31
522.55	35496.56
522.72	35438.05
522.89	35730.62
523.07	36254.90
523.24	35653.38
523.41	36018.50
523.58	35438.05
523.75	36634.06
523.92	36219.79
524.10	36238.51
524.27	36690.24
524.44	36196.38
524.61	36467.89
524.78	36491.29
524.96	36800.24
525.13	36694.92
525.30	36744.07
525.47	36889.18
525.64	36428.10
525.81	36467.89
525.98	36528.74
526.16	36507.68
526.33	36339.16
526.50	36807.26
526.67	36620.02
526.84	36610.66
527.01	36788.54
527.18	37357.29
527.36	37523.47
527.53	37312.82
527.70	37809.01
527.87	37539.85
528.04	37799.65
528.21	37404.10
528.38	37759.86
528.55	37965.83
528.72	38197.54
528.89	38003.28
529.07	38022.00
529.24	37979.87
529.41	37890.93
529.58	37783.27
529.75	37837.10
529.92	37937.74
530.09	38230.31
530.26	38213.93
530.43	38686.71
530.60	38033.71
530.77	38403.51
530.94	38576.71
531.11	38199.88
531.28	38277.12
531.46	38932.47
531.63	38539.26
531.80	38796.72
531.97	38246.69
532.14	38560.33
532.31	38639.90
532.48	39089.29
532.65	39096.31
532.82	39173.55
532.99	38988.64
533.16	39098.65
533.33	38829.49
533.50	39463.77
533.67	39178.23
533.84	39117.37
534.01	39339.72
534.18	39145.46
534.35	40114.44
534.52	39669.74
534.69	39662.72
534.86	39501.22
535.03	39421.64
535.20	39480.16
535.37	40156.57
535.54	40179.98
535.71	39768.04
535.88	40025.50
536.05	39639.31
536.22	40123.80
536.38	40327.43
536.55	39716.55
536.72	39908.47
536.89	40112.10
537.06	40168.27
537.23	40346.15
537.40	40133.17
537.57	40142.53
537.74	40446.80
537.91	40601.27
538.08	40252.53
538.25	40636.38
538.42	40657.45
538.59	40484.25
538.75	40114.44
538.92	40238.49
539.09	40573.19
539.26	40411.69
539.43	40610.64
539.60	40781.49
539.77	40500.63
539.94	40856.39
540.11	40673.83
540.28	40676.17
540.44	40601.27
540.61	40797.88
540.78	40727.66
540.95	40678.51
541.12	40580.21
541.29	40907.88
541.46	40690.21
541.62	41460.25
541.79	41413.44
541.96	40964.06
542.13	41188.75
542.30	41317.48
542.47	41364.29
542.63	41289.39
542.80	41612.38
542.97	41968.15
543.14	41895.59
543.31	41563.23
543.48	42202.20
543.64	42506.47
543.81	42356.67
543.98	41853.46
544.15	41970.49
544.32	42169.43
544.48	42333.27
544.65	42139.00
544.82	42129.64
544.99	42000.91
545.16	42452.64
545.32	42078.15
545.49	42274.76
545.66	42450.30
545.83	42202.20
546.00	42143.69
546.16	42656.26
546.33	42047.72
546.50	42265.39
546.67	42895.00
546.83	42211.56
547.00	42515.83
547.17	42431.57
547.34	42380.08
547.50	42623.50
547.67	42815.42
547.84	42852.87
548.00	42754.57
548.17	42745.20
548.34	43409.92
548.51	43098.62
548.67	43194.59
548.84	43133.73
549.01	42925.42
549.18	42536.90
549.34	43037.77
549.51	43295.23
549.68	43227.35
549.84	43126.71
550.01	43580.78
550.18	43269.48
550.34	43641.63
550.51	43695.46
550.68	43089.26
550.84	43103.31
551.01	43686.10
551.18	43576.09
551.34	42890.32
551.51	43477.79
551.68	43707.16
551.84	43442.68
552.01	43459.07
552.18	43171.18
552.34	43681.42
552.51	43386.51
552.68	43683.76
552.84	43988.03
553.01	44011.43
553.18	43819.51
553.34	43957.60
553.51	43885.04
553.67	43676.74
553.84	44179.95
554.01	43917.81
554.17	44037.18
554.34	43908.45
554.51	44423.37
554.67	44201.02
554.84	43950.58
555.00	44123.78
555.17	43744.61
555.33	44168.25
555.50	44304.00
555.67	44591.89
555.83	44259.53
556.00	44130.80
556.16	44397.62
556.33	44315.70
556.50	44320.38
556.66	44472.52
556.83	43779.72
556.99	44137.82
557.16	44622.31
557.32	44524.01
557.49	44491.24
557.65	44224.42
557.82	44037.18
557.98	44418.69
558.15	44882.11
558.32	44603.59
558.48	44409.32
558.65	44500.61
558.81	44690.19
558.98	44327.41
559.14	44275.91
559.31	44292.30
559.47	44439.75
559.64	44758.06
559.80	44914.88
559.97	44718.28
560.13	45020.20
560.30	44531.03
560.46	44641.04
560.63	44666.78
560.79	45013.18
560.96	45469.59
561.12	44755.72
561.29	44706.57
561.45	44549.76
561.61	44856.37
561.78	44891.48
561.94	44531.03
562.11	44987.44
562.27	45366.60
562.44	44924.24
562.60	45181.70
562.77	45179.36
562.93	45291.71
563.10	45031.91
563.26	44811.90
563.42	45090.42
563.59	44959.35
563.75	45539.80
563.92	45490.65
564.08	45120.85
564.24	45476.61
564.41	45441.50
564.57	45024.89
564.74	44999.14
564.90	45031.91
565.07	45305.75
565.23	45212.13
565.39	44938.29
565.56	45425.12
565.72	44989.78
565.88	45476.61
566.05	44605.93
566.21	45265.96
566.38	45249.58
566.54	45160.64
566.70	45778.54
566.87	45235.53
567.03	45289.37
567.19	45713.00
567.36	45521.08
567.52	45382.99
567.68	46050.04
567.85	45399.37
568.01	45148.93
568.17	45525.76
568.34	45832.37
568.50	45188.72
568.66	45647.47
568.83	45476.61
568.99	45198.09
569.15	45228.51
569.32	45392.35
569.48	45132.55
569.64	45766.84
569.81	45720.02
569.97	45216.81
570.13	45542.14
570.30	45584.27
570.46	45322.13
570.62	45214.47
570.78	45848.75
570.95	45024.89
571.11	45727.05
571.27	45748.11
571.43	45471.93
571.60	45628.74
571.76	45731.73
571.92	45485.97
572.09	45748.11
572.25	45628.74
572.41	45713.00
572.57	45439.16
572.74	45869.82
572.90	45624.06
573.06	45680.24
573.22	45621.72
573.38	45635.77
573.55	45457.88
573.71	45841.73
573.87	45471.93
574.03	45488.31
574.20	45710.66
574.36	45469.59
574.52	45731.73
574.68	45361.92
574.84	45701.30
575.01	45394.69
575.17	45626.40
575.33	45006.16
575.49	45603.00
575.65	45787.90
575.82	45352.56
575.98	45851.09
576.14	46213.88
576.30	45455.54
576.46	45933.01
576.62	45268.30
576.79	45500.01
576.95	45509.38
577.11	45830.03
577.27	45736.41
577.43	45591.30
577.59	45521.08
577.75	45289.37
577.92	45577.25
578.08	45603.00
578.24	45600.66
578.40	45642.79
578.56	45399.37
578.72	45886.20
578.88	46005.57
579.04	45350.22
579.21	45722.37
579.37	45914.29
579.53	45666.19
579.69	45209.79
579.85	46108.55
580.01	45968.12
580.17	45610.02
580.33	46031.32
580.49	46005.57
580.65	45872.16
580.82	45500.01
580.98	45638.11
581.14	45443.84
581.30	45867.48
581.46	46007.91
581.62	45895.56
581.78	46099.19
581.94	46021.95
582.10	45736.41
582.26	46059.40
582.42	45787.90
582.58	45722.37
582.74	45181.70
582.90	45862.80
583.06	45961.10
583.22	45778.54
583.38	45771.52
583.54	45954.08
583.70	45340.86
583.86	45900.25
584.02	45078.72
584.18	46010.25
584.34	45937.69
584.50	45876.84
584.66	45886.20
584.82	45649.81
584.98	46178.77
585.14	46174.09
585.30	45485.97
585.46	45827.69
585.62	46026.63
585.78	45837.05
585.94	45425.12
586.10	46218.56
586.26	45612.36
586.42	45865.14
586.58	45551.51
586.74	45928.33
586.90	45404.05
587.06	45343.20
587.22	46050.04
587.38	45464.91
587.54	46298.14
587.70	46164.73
587.86	46548.57
588.02	45942.38
588.18	46122.60
588.34	45862.80
588.49	45478.95
588.65	45450.86
588.81	45375.97
588.97	45645.13
589.13	45443.84
589.29	45607.68
589.45	45944.72
589.61	45940.04
589.77	46099.19
589.93	45879.18
590.08	46136.64
590.24	46085.15
590.40	46176.43
590.56	46457.29
590.72	46204.52
590.88	45729.39
591.04	46223.24
591.20	46241.96
591.35	45996.21
591.51	46504.10
591.67	46279.41
591.83	45741.09
591.99	45839.39
592.15	45897.91
592.31	45993.87
592.46	46426.87
592.62	46007.91
592.78	46272.39
592.94	46759.22
593.10	46103.87
593.26	46218.56
593.41	45890.88
593.57	45841.73
593.73	45921.31
593.89	46340.27
594.05	45811.31
594.20	45635.77
594.36	46356.65
594.52	46024.29
594.68	45808.96
594.84	45883.86
594.99	46693.69
595.15	45900.25
595.31	46344.95
595.47	46096.85
595.62	46129.62
595.78	45701.30
595.94	46476.02
596.10	45883.86
596.25	46244.30
596.41	46646.88
596.57	46192.81
596.73	46014.93
596.88	46323.88
597.04	46157.70
597.20	45956.42
597.36	46490.06
597.51	46251.33
597.67	46267.71
597.83	46237.28
597.99	46209.20
598.14	46625.81
598.30	46698.37
598.46	46057.06
598.61	46347.29
598.77	45996.21
598.93	46036.00
599.09	45925.99
599.24	46726.46
599.40	46600.07
599.56	46389.42
599.71	46506.44
599.87	46600.07
600.03	46171.75
600.18	46387.08
600.34	46199.83
600.50	46047.70
600.65	45989.19
600.81	46733.48
600.97	46454.95
601.12	46539.21
601.28	46190.47
601.44	46291.12
601.59	46412.82
601.75	46136.64
601.91	46164.73
602.06	45956.42
602.22	46424.53
602.37	46508.79
602.53	46356.65
602.69	46476.02
602.84	46373.03
603.00	46110.89
603.16	46401.12
603.31	45851.09
603.47	45996.21
603.62	46150.68
603.78	46611.77
603.94	46071.10
604.09	46604.75
604.25	46225.58
604.40	46183.45
604.56	46284.09
604.71	45734.07
604.87	46150.68
605.03	45930.67
605.18	46031.32
605.34	46117.92
605.49	45462.57
605.65	46464.32
605.80	46337.93
605.96	46302.82
606.12	46256.01
606.27	46256.01
606.43	45853.44
606.58	45853.44
606.74	45762.15
606.89	46129.62
607.05	46185.79
607.20	46288.77
607.36	45928.33
607.51	45893.22
607.67	45823.01
607.82	45794.92
607.98	45745.77
608.13	45588.95
608.29	45518.74
608.44	45256.60
608.60	45095.10
608.75	45368.94
608.91	45434.48
609.06	45483.63
609.22	45722.37
609.37	45586.61
609.53	45715.34
609.68	45902.59
609.84	46043.02
609.99	46028.98
610.15	45530.44
610.30	45684.92
610.46	45116.17
610.61	45392.35
610.76	45902.59
610.92	45146.59
611.07	45301.07
611.23	45453.20
611.38	45509.38
611.54	45750.45
611.69	45478.95
611.84	45539.80
612.00	45148.93
612.15	45347.88
612.31	45104.46
612.46	45230.85
612.62	45696.62
612.77	45352.56
612.92	45731.73
613.08	45301.07
613.23	45446.18
613.39	45013.18
613.54	45256.60
613.69	45390.01
613.85	45497.67
614.00	45228.51
614.15	45200.43
614.31	45195.74
614.46	45488.31
614.62	45202.77
614.77	45518.74
614.92	44952.33
615.08	45001.48
615.23	44844.66
615.38	44921.90
615.54	44858.71
615.69	44531.03
615.84	44561.46
616.00	44704.23
616.15	45090.42
616.30	45277.66
616.46	44729.98
616.61	44406.98
616.76	44687.85
616.92	44292.30
617.07	44348.47
617.22	44282.94
617.37	44233.78
617.53	44535.71
617.68	44947.65
617.83	44488.90
617.99	44669.12
618.14	44636.36
618.29	44383.58
618.45	44294.64
618.60	44638.70
618.75	44877.43
618.90	44669.12
619.06	44584.86
619.21	44673.81
619.36	44172.93
619.51	44500.61
619.67	44165.91
619.82	44711.25
619.97	44603.59
620.12	44004.41
620.28	44161.23
620.43	44559.12
620.58	44074.63
620.73	44156.55
620.89	43999.73
621.04	44320.38
621.19	43941.22
621.34	43669.72
621.49	44135.48
621.65	44067.61
621.80	44039.52
621.95	43810.15
622.10	44027.82
622.25	43718.87
622.41	44212.72
622.56	43344.38
622.71	44350.81
622.86	44041.86
623.01	44088.67
623.16	43807.81
623.32	43742.27
623.47	44170.59
623.62	43487.15
623.77	43573.75
623.92	43559.71
624.07	43452.05
624.23	43370.13
624.38	43702.48
624.53	43112.67
624.68	43789.08
624.83	43676.74
624.98	43395.87
625.13	43335.02
625.29	43704.82
625.44	43924.83
625.59	43098.62
625.74	43243.74
625.89	43260.12
626.04	43007.34
626.19	43213.31
626.34	42997.98
626.49	43063.52
626.65	43260.12
626.80	43426.30
626.95	42803.72
627.10	42632.86
627.25	42972.24
627.40	42616.47
627.55	42883.30
627.70	42223.26
627.85	42550.94
628.00	42466.68
628.15	42529.87
628.30	42309.86
628.45	42745.20
628.60	42574.34
628.76	42897.34
628.91	43100.97
629.06	42983.94
629.21	42960.53
629.36	42635.20
629.51	42597.75
629.66	42092.19
629.81	42504.13
629.96	42328.59
630.11	42440.93
630.26	43330.34
630.41	42632.86
630.56	42557.96
630.71	42471.36
630.86	42476.04
631.01	42443.27
631.16	42480.72
631.31	42014.96
631.46	41773.88
631.61	41888.57
631.76	42628.18
631.91	41958.78
632.06	42309.86
632.21	42321.57
632.36	42550.94
632.51	41509.40
632.66	42249.01
632.81	41933.04
632.96	42059.43
633.10	41717.71
633.25	41961.12
633.40	42019.64
633.55	42515.83
633.70	41851.12
633.85	42057.09
634.00	41968.15
634.15	42216.24
634.30	41720.05
634.45	41745.80
634.60	41455.57
634.75	42167.09
634.90	41486.00
635.05	41219.17
635.19	41518.76
635.34	41949.42
635.49	41642.81
635.64	41504.72
635.79	41766.86
635.94	41226.20
636.09	41476.63
636.24	41258.96
636.39	41202.79
636.53	40821.28
636.68	40954.69
636.83	40957.03
636.98	41373.65
637.13	40704.26
637.28	41258.96
637.43	41179.39
637.57	41521.10
637.72	41565.57
637.87	41556.21
638.02	41317.48
638.17	41404.08
638.32	40980.44
638.46	40999.16
638.61	40971.08
638.76	40814.26
638.91	40884.48
639.06	40477.22
639.20	40858.73
639.35	41287.05
639.50	40788.52
639.65	40882.14
639.80	40994.48
639.94	40636.38
640.09	40865.75
640.24	40343.81
640.39	40446.80
640.54	40786.18
640.68	40715.96
640.83	40456.16
640.98	40055.93
641.13	40502.97
641.27	41062.36
641.42	40360.20
641.57	40568.51
641.72	40711.28
641.86	40116.78
642.01	39901.45
642.16	40561.48
642.31	39489.52
642.45	40392.97
642.60	39981.03
642.75	39725.91
642.90	40172.96
643.04	40105.08
643.19	40245.51
643.34	40533.40
643.48	40065.29
643.63	39955.29
643.78	40147.21
643.93	39480.16
644.07	40060.61
644.22	39903.79
644.37	40140.19
644.51	39922.52
644.66	39744.64
644.81	40212.74
644.95	39983.37
645.10	40016.14
645.25	40350.84
645.39	39627.61
645.54	39915.50
645.69	39707.19
645.83	39089.29
645.98	39587.82
646.13	39709.53
646.27	39725.91
646.42	39672.08
646.57	39992.73
646.71	39531.65
646.86	39728.25
647.00	39250.78
647.15	39751.66
647.30	39433.35
647.44	39655.70
647.59	39138.44
647.74	39328.02
647.88	39749.32
648.03	39468.45
648.17	39281.21
648.32	38974.60
648.47	39000.35
648.61	38930.13
648.76	39196.95
648.90	39152.48
649.05	39344.41
649.20	39683.78
649.34	39309.30
649.49	39210.99
649.63	38855.23
649.78	38969.92
649.92	39182.91
650.07	39271.85
650.21	38871.62
650.36	39063.54
650.51	38892.68
650.65	39269.51
650.80	39292.91
650.94	39503.56
651.09	38831.83
651.23	38960.56
651.38	38698.42
651.52	38574.37
651.67	38445.64
651.81	38976.94
651.96	38464.36
652.10	38888.00
652.25	38515.86
652.39	38597.77
652.54	38902.04
652.68	39093.97
652.83	38951.20
652.97	38948.85
653.12	38799.06
653.26	38340.32
653.41	38230.31
653.55	38003.28
653.70	38000.94
653.84	38822.47
653.99	38120.31
654.13	38389.47
654.27	38265.42
654.42	37766.88
654.56	38000.94
654.71	37570.28
654.85	38223.29
655.00	38005.62
655.14	37869.87
655.29	37991.58
655.43	37984.55
655.57	38005.62
655.72	37748.16
655.86	37647.52
656.01	37446.23
656.15	37731.78
656.30	37687.31
656.44	38019.66
656.58	37572.62
656.73	37883.91
656.87	37141.96
657.01	37291.76
657.16	37523.47
657.30	37518.79
657.45	37223.88
657.59	37113.87
657.73	37216.86
657.88	37488.36
658.02	37158.34
658.16	37518.79
658.31	37804.33
658.45	37830.08
658.60	37914.34
658.74	37757.52
658.88	37532.83
659.03	37184.09
659.17	36938.33
659.31	37315.16
659.46	36605.98
659.60	36882.16
659.74	36947.70
659.89	36521.72
660.03	36673.85
660.17	36978.12
660.32	36638.75
660.46	36849.39
660.60	36442.14
660.74	36804.92
660.89	36683.22
661.03	36154.26
661.17	36828.33
661.32	36385.97
661.46	36954.72
661.60	36580.23
661.74	36552.15
661.89	36231.49
662.03	36503.00
662.17	36055.95
662.31	35988.08
662.46	36339.16
662.60	36409.37
662.74	36257.24
662.88	36318.09
663.03	36081.70
663.17	36119.15
663.31	35318.68
663.45	35526.99
663.60	35838.28
663.74	35573.80
663.88	35756.36
664.02	35662.74
664.17	35622.95
664.31	35505.93
664.45	35828.92
664.59	35421.67
664.73	35585.50
664.88	35526.99
665.02	34911.43
665.16	35543.38
665.30	35159.53
665.44	34972.28
665.59	35009.73
665.73	34939.52
665.87	35005.05
666.01	34962.92
666.15	34873.98
666.29	34998.03
666.44	35211.02
666.58	34892.71
666.72	34429.28
666.86	35192.30
667.00	34834.19
667.14	34595.46
667.28	34686.74
667.43	34349.70
667.57	34178.84
667.71	34309.91
667.85	34263.10
667.99	34155.44
668.13	34192.89
668.27	34164.80
668.41	33876.91
668.56	33795.00
668.70	34237.36
668.84	34349.70
668.98	33546.90
669.12	33668.61
669.26	34054.79
669.40	33944.79
669.54	33851.17
669.68	33626.48
669.82	33956.49
669.96	33668.61
670.10	33125.60
670.25	33600.73
670.39	33139.65
670.53	33408.81
670.67	33078.79
670.81	33305.82
670.95	33425.19
671.09	33062.41
671.23	33376.04
671.37	33500.09
671.51	33228.59
671.65	32584.94
671.79	32828.35
671.93	32594.30
672.07	32821.33
672.21	32542.81
672.35	32676.22
672.49	32795.59
672.63	32158.96
672.77	32627.07
672.91	32140.24
673.05	32027.89
673.19	32030.23
673.33	31880.44
673.47	32128.53
673.61	31749.37
673.75	31365.52
673.89	31171.25
674.03	31550.42
674.17	31494.25
674.31	31510.63
674.45	31604.25
674.59	31374.88
674.73	30974.65
674.87	31152.53
675.01	31328.07
675.15	30857.62
675.29	31482.55
675.43	30876.35
675.56	31697.88
675.70	31077.63
675.84	30778.04
675.98	29834.81
676.12	30565.06
676.26	30590.80
676.40	30216.32
676.54	30597.82
676.68	30338.02
676.82	29900.34
676.96	30075.88
677.10	30125.04
677.23	29682.67
677.37	30181.21
677.51	30113.33
677.65	29549.26
677.79	29448.62
677.93	29785.66
678.07	29294.14
678.21	29331.59
678.34	29460.32
678.48	29509.47
678.62	29165.42
678.76	29060.09
678.90	29102.22
679.04	28531.13
679.18	28725.39
679.31	28514.75
679.45	27941.32
679.59	28304.10
679.73	28056.00
679.87	28166.01
680.00	28168.35
680.14	27899.19
680.28	27697.90
680.42	27854.72
680.56	27676.83
680.70	27695.56
680.83	27967.06
680.97	27599.60
681.11	27573.85
681.25	27248.52
681.39	27379.59
681.52	27459.16
681.66	27250.86
681.80	27143.19
681.94	27009.78
682.07	27051.91
682.21	26927.86
682.35	26417.63
682.49	26806.16
682.62	26494.86
682.76	26668.06
682.90	26366.13
683.04	26551.04
683.17	26485.50
683.31	26267.83
683.45	26293.58
683.59	26199.96
683.72	25912.07
683.86	25584.40
684.00	25490.77
684.13	25696.74
684.27	25326.94
684.41	25663.97
684.55	25135.01
684.68	25249.70
684.82	25085.86
684.96	25163.10
685.09	25214.59
685.23	24889.26
685.37	24915.00
685.50	24812.02
685.64	24762.87
685.78	24961.81
685.91	24538.18
686.05	24526.47
686.19	23812.61
686.32	24084.11
686.46	23901.55
686.60	23559.83
686.73	24107.52
686.87	23569.19
687.01	23524.72
687.14	23300.03
687.28	23587.92
687.42	23606.64
687.55	23187.69
687.69	23370.25
687.82	22988.74
687.96	23098.75
688.10	22965.34
688.23	22991.08
688.37	22707.88
688.50	22445.74
688.64	22871.72
688.78	22850.65
688.91	22225.73
689.05	22640.00
689.18	22333.39
689.32	21771.66
689.46	22155.51
689.59	22328.71
689.73	22284.24
689.86	21909.75
690.00	21869.97
690.13	22033.80
690.27	21933.16
690.41	21898.05
690.54	21429.94
690.68	21231.00
690.81	21029.71
690.95	21235.68
691.08	21184.19
691.22	21027.37
691.35	20987.58
691.49	21280.15
691.62	21448.67
691.76	21027.37
691.89	21165.46
692.03	20858.85
692.16	20603.74
692.30	20931.41
692.43	20566.29
692.57	20231.59
692.70	20594.37
692.84	20624.80
692.97	20269.04
693.11	20044.35
693.24	20025.62
693.38	19903.92
693.51	19630.07
693.65	20067.75
693.78	19953.07
693.92	20184.78
694.05	19768.16
694.19	19946.05
694.32	19520.07
694.45	19407.72
694.59	19508.37
694.72	19506.02
694.86	19077.71
694.99	19101.11
695.13	19075.37
695.26	18984.09
695.39	18560.45
695.53	18668.11
695.66	18724.29
695.80	18258.52
695.93	18663.43
696.07	18239.79
696.20	18501.93
696.33	18167.24
696.47	18277.24
696.60	18328.74
696.73	18061.91
696.87	18066.60
697.00	18134.47
697.14	17762.33
697.27	17734.24
697.40	17998.72
697.54	17806.80
697.67	17509.55
697.80	17673.39
697.94	17668.70
698.07	17434.65
698.21	17270.81
698.34	17245.07
698.47	17048.46
698.61	16678.66
698.74	16734.83
698.87	17060.16
699.01	16917.39
699.14	16580.36
699.27	16697.38
699.40	16248.00
699.54	16245.66
699.67	16320.56
699.80	16549.93
699.94	16037.35
700.07	16503.12
700.20	16418.86
700.34	16180.12
700.47	16191.83
700.60	16367.37
700.73	16051.39
700.87	15798.62
701.00	15686.27
701.13	15761.17
701.26	15815.00
701.40	15662.86
701.53	15412.43
701.66	15494.35
701.79	15433.49
701.93	15386.68
702.06	15012.20
702.19	15119.86
702.32	15147.95
702.46	15007.52
702.59	15356.25
702.72	14780.48
702.85	14726.65
702.99	14895.17
703.12	14920.92
703.25	14834.32
703.38	14670.48
703.51	14771.12
703.65	14654.09
703.78	14101.73
703.91	14204.71
704.04	14434.08
704.17	14539.41
704.31	14256.20
704.44	14071.30
704.57	13706.18
704.70	13841.93
704.83	14078.32
704.96	13937.89
705.10	13755.33
705.23	13951.93
>>>>>End Processed Spectral Data<<<<<
