SpectraSuite Data File
++++++++++++++++++++++++++++++++++++
Date: Fri Oct 25 10:43:19 EDT 2013
User: price-jones
Dark Spectrum Present: No
Reference Spectrum Present: No
Number of Sampled Component Spectra: 1
Spectrometers: USB2+H05261
Integration Time (usec): 100000 (USB2+H05261)
Spectra Averaged: 1 (USB2+H05261)
Boxcar Smoothing: 0 (USB2+H05261)
Correct for Electrical Dark: No (USB2+H05261)
Strobe/Lamp Enabled: No (USB2+H05261)
Correct for Detector Non-linearity: No (USB2+H05261)
Correct for Stray Light: No (USB2+H05261)
Number of Pixels in Processed Spectrum: 2048
>>>>>Begin Processed Spectral Data<<<<<
365.73	63.19
365.92	63.19
366.12	63.19
366.32	18.72
366.52	44.47
366.72	32.77
366.91	0.00
367.11	37.45
367.31	0.00
367.51	39.79
367.70	0.00
367.90	67.88
368.10	0.00
368.30	37.45
368.49	23.41
368.69	63.19
368.89	95.96
369.09	100.64
369.28	77.24
369.48	86.60
369.68	70.22
369.87	70.22
370.07	98.30
370.27	222.35
370.47	119.37
370.66	390.87
370.86	428.32
371.06	449.38
371.25	414.27
371.45	482.15
371.65	416.62
371.84	404.91
372.04	465.77
372.24	500.87
372.44	484.49
372.63	624.92
372.83	582.79
373.03	477.47
373.22	500.87
373.42	610.88
373.62	484.49
373.81	493.85
374.01	535.98
374.21	545.34
374.40	573.43
374.60	561.73
374.79	578.11
374.99	601.52
375.19	610.88
375.38	594.50
375.58	535.98
375.78	599.18
375.97	664.71
376.17	641.31
376.37	641.31
376.56	573.43
376.76	585.13
376.95	547.69
377.15	638.97
377.35	674.07
377.54	615.56
377.74	655.35
377.93	587.47
378.13	676.41
378.33	664.71
378.52	568.75
378.72	657.69
378.91	610.88
379.11	589.82
379.31	648.33
379.50	660.03
379.70	767.70
379.89	660.03
380.09	716.20
380.28	674.07
380.48	692.80
380.68	566.41
380.87	718.54
381.07	655.35
381.26	662.37
381.46	655.35
381.65	765.36
381.85	720.88
382.04	688.12
382.24	664.71
382.43	692.80
382.63	753.65
382.83	732.59
383.02	718.54
383.22	784.08
383.41	697.48
383.61	671.73
383.80	751.31
384.00	676.41
384.19	697.48
384.39	772.38
384.58	774.72
384.78	823.87
384.97	798.12
385.17	779.40
385.36	774.72
385.56	844.93
385.75	788.76
385.95	819.19
386.14	823.87
386.34	795.78
386.53	753.65
386.72	800.46
386.92	786.42
387.11	849.61
387.31	844.93
387.50	821.53
387.70	868.34
387.89	821.53
388.09	847.27
388.28	882.38
388.48	887.06
388.67	905.79
388.86	882.38
389.06	983.02
389.25	990.05
389.45	919.83
389.64	877.70
389.84	842.59
390.03	929.19
390.22	971.32
390.42	922.17
390.61	945.58
390.81	964.30
391.00	1062.60
391.19	1043.88
391.39	1039.20
391.58	1083.67
391.78	987.71
391.97	1015.79
392.16	987.71
392.36	1050.90
392.55	1025.15
392.75	990.05
392.94	945.58
393.13	933.87
393.33	929.19
393.52	1032.18
393.71	1090.69
393.91	1118.78
394.10	1060.26
394.29	1118.78
394.49	1123.46
394.68	1217.08
394.88	1296.66
395.07	1299.00
395.26	1228.78
395.46	1219.42
395.65	1263.89
395.84	1217.08
396.04	1203.04
396.23	1193.67
396.42	1151.54
396.62	1135.16
396.81	1221.76
397.00	1221.76
397.19	1266.23
397.39	1320.06
397.58	1313.04
397.77	1397.30
397.97	1453.47
398.16	1310.70
398.35	1535.39
398.55	1514.33
398.74	1446.45
398.93	1598.59
399.12	1507.30
399.32	1418.36
399.51	1514.33
399.70	1476.88
399.90	1460.49
400.09	1533.05
400.28	1659.44
400.47	1605.61
400.67	1678.16
400.86	1586.88
401.05	1582.20
401.24	1685.19
401.44	1708.59
401.63	1809.23
401.82	1650.08
402.01	1614.97
402.21	1673.48
402.40	1842.00
402.59	1743.70
402.78	1781.15
402.97	1694.55
403.17	1757.74
403.36	1858.39
403.55	1813.92
403.74	1813.92
403.93	1706.25
404.13	1818.60
404.32	1785.83
404.51	1832.64
404.70	1980.09
404.89	1930.94
405.09	1919.24
405.28	1954.35
405.47	1905.20
405.66	1961.37
405.85	2050.31
406.05	1933.28
406.24	1980.09
406.43	2036.27
406.62	2040.95
406.81	2129.89
407.00	2059.67
407.20	2012.86
407.39	2043.29
407.58	2120.53
407.77	2197.76
407.96	2193.08
408.15	2207.13
408.34	2139.25
408.54	2263.30
408.73	2225.85
408.92	2359.26
409.11	2279.68
409.30	2321.81
409.49	2139.25
409.68	2209.47
409.87	2244.57
410.07	2279.68
410.26	2366.28
410.45	2289.04
410.64	2377.98
410.83	2499.69
411.02	2413.09
411.21	2490.33
411.40	2420.11
411.59	2700.98
411.78	2693.96
411.98	2546.50
412.17	2579.27
412.36	2572.25
412.55	2677.57
412.74	2731.41
412.93	2836.73
413.12	2605.02
413.31	2850.77
413.50	2796.94
413.69	2761.83
413.88	2822.69
414.07	2949.08
414.26	2930.35
414.45	2944.39
414.64	2930.35
414.83	2967.80
415.02	2998.23
415.22	3000.57
415.41	3021.63
415.60	3094.19
415.79	3220.58
415.98	3260.37
416.17	3215.90
416.36	3246.32
416.55	3281.43
416.74	3391.44
416.93	3311.86
417.12	3243.98
417.31	3220.58
417.50	3323.56
417.69	3499.10
417.88	3368.03
418.07	3337.60
418.26	3377.39
418.45	3391.44
418.64	3524.85
418.83	3548.25
419.02	3576.34
419.21	3534.21
419.39	3576.34
419.58	3499.10
419.77	3524.85
419.96	3655.92
420.15	3606.77
420.34	3604.42
420.53	3712.09
420.72	3740.18
420.91	3765.92
421.10	3904.01
421.29	3805.71
421.48	3791.67
421.67	3815.07
421.86	3751.88
422.05	3688.68
422.24	3737.84
422.43	3744.86
422.61	3805.71
422.80	3901.67
422.99	3850.18
423.18	3904.01
423.37	3971.89
423.56	3901.67
423.75	3929.76
423.94	3817.41
424.13	3630.17
424.32	3768.26
424.50	4070.19
424.69	3906.35
424.88	4002.32
425.07	3838.48
425.26	3796.35
425.45	3950.82
425.64	3943.80
425.83	3885.29
426.01	3936.78
426.20	3873.59
426.39	4025.72
426.58	4011.68
426.77	3864.22
426.96	3831.46
427.15	4058.49
427.33	4023.38
427.52	4051.47
427.71	4112.32
427.90	4067.85
428.09	4140.41
428.28	4191.90
428.46	4135.73
428.65	4131.05
428.84	4203.60
429.03	4236.37
429.22	4051.47
429.40	4241.05
429.59	4018.70
429.78	3927.42
429.97	3929.76
430.16	4037.42
430.34	4095.94
430.53	4100.62
430.72	4205.94
430.91	4166.15
431.10	4332.33
431.28	4564.04
431.47	4451.70
431.66	4573.41
431.85	4479.79
432.03	4655.33
432.22	4667.03
432.41	4573.41
432.60	4589.79
432.79	4573.41
432.97	4816.82
433.16	4741.93
433.35	4486.81
433.54	4610.86
433.72	4629.58
433.91	4716.18
434.10	4676.39
434.28	4858.95
434.47	4844.91
434.66	4933.85
434.85	4922.15
435.03	4957.25
435.22	5071.94
435.41	5139.82
435.59	5109.39
435.78	5146.84
435.97	5139.82
436.16	5135.14
436.34	5076.62
436.53	5114.07
436.72	5226.42
436.90	4973.64
437.09	5303.65
437.28	5104.71
437.46	5219.39
437.65	5203.01
437.84	5179.61
438.02	4964.28
438.21	5095.35
438.40	5280.25
438.58	5266.21
438.77	5235.78
438.96	5369.19
439.14	5504.94
439.33	5544.73
439.52	5572.82
439.70	5572.82
439.89	5603.24
440.08	5518.98
440.26	5696.86
440.45	5600.90
440.63	5884.11
440.82	5813.89
441.01	5933.26
441.19	5996.45
441.38	6087.73
441.57	6169.65
441.75	6127.52
441.94	6424.77
442.12	6352.21
442.31	6303.06
442.50	6422.43
442.68	6181.35
442.87	6352.21
443.05	6256.25
443.24	6342.85
443.43	6214.12
443.61	6408.39
443.80	6750.10
443.98	6363.92
444.17	6284.34
444.35	6546.48
444.54	6537.12
444.73	6342.85
444.91	6366.26
445.10	6509.03
445.28	6260.93
445.47	6249.23
445.65	6183.70
445.84	6518.39
446.02	6630.74
446.21	6497.33
446.39	6455.20
446.58	6628.40
446.77	6757.13
446.95	6513.71
447.14	6768.83
447.32	6803.94
447.51	6527.75
447.69	6614.35
447.88	6663.51
448.06	6640.10
448.25	6792.23
448.43	6658.82
448.62	6665.85
448.80	6698.61
448.99	6703.29
449.17	6846.07
449.36	6850.75
449.54	6911.60
449.73	6883.52
449.91	7035.65
450.10	7063.74
450.28	7028.63
450.46	7073.10
450.65	7229.91
450.83	7204.17
451.02	7206.51
451.20	7215.87
451.39	7234.60
451.57	7192.47
451.76	7066.08
451.94	7122.25
452.13	7077.78
452.31	7140.97
452.49	7094.16
452.68	7297.79
452.86	7066.08
453.05	7185.44
453.23	7133.95
453.42	7077.78
453.60	7255.66
453.78	7351.62
453.97	7152.68
454.15	7588.02
454.34	7344.60
454.52	7550.57
454.70	7410.14
454.89	7417.16
455.07	7492.05
455.26	7510.78
455.44	7810.37
455.62	7789.30
455.81	7492.05
455.99	7723.77
456.17	7906.33
456.36	7808.03
456.54	7868.88
456.73	8154.43
456.91	8049.10
457.09	8016.33
457.28	8245.71
457.46	7817.39
457.64	8131.02
457.83	8018.68
458.01	7772.92
458.19	8079.53
458.38	8124.00
458.56	8203.58
458.74	8128.68
458.93	8145.06
459.11	8287.84
459.29	8294.86
459.48	8285.50
459.66	8236.35
459.84	8322.94
460.03	8538.27
460.21	8472.74
460.39	8608.49
460.57	8540.61
460.76	8432.95
460.94	8564.02
461.12	8812.12
461.31	8503.17
461.49	8456.36
461.67	8667.00
461.85	8812.12
462.04	8727.86
462.22	9324.69
462.40	8847.22
462.59	8704.45
462.77	8816.80
462.95	8947.87
463.13	8891.70
463.32	9060.21
463.50	8938.51
463.68	8924.46
463.86	8786.37
464.05	8800.41
464.23	9020.42
464.41	8917.44
464.59	8901.06
464.78	9177.24
464.96	8964.25
465.14	9071.92
465.32	8990.00
465.50	9191.28
465.69	9310.65
465.87	9343.42
466.05	9238.09
466.23	9270.86
466.41	9170.22
466.60	9327.03
466.78	9254.48
466.96	9008.72
467.14	8891.70
467.32	9507.26
467.51	9387.89
467.69	9242.78
467.87	9387.89
468.05	9565.77
468.23	9334.06
468.41	9315.33
468.60	9530.66
468.78	9710.88
468.96	9458.10
469.14	9521.30
469.32	9617.26
469.50	9425.34
469.69	9743.65
469.87	9764.72
470.05	9788.12
470.23	9647.69
470.41	9572.79
470.59	9865.36
470.77	9795.14
470.95	9982.38
471.14	10162.61
471.32	9926.21
471.50	10132.18
471.68	10190.69
471.86	10274.95
472.04	10307.72
472.22	10527.73
472.40	10274.95
472.58	10289.00
472.77	10546.45
472.95	10314.74
473.13	10707.95
473.31	10518.37
473.49	10478.58
473.67	10623.69
473.85	10649.44
474.03	10785.19
474.21	11014.56
474.39	10946.69
474.57	11052.01
474.75	10967.75
474.93	11117.54
475.12	10981.79
475.30	11002.86
475.48	10888.17
475.66	11405.43
475.84	11412.45
476.02	11356.28
476.20	11276.70
476.38	11564.59
476.56	11627.78
476.74	11686.29
476.92	11868.86
477.10	11875.88
477.28	12138.02
477.46	11667.57
477.64	11927.37
477.82	12025.67
478.00	12346.33
478.18	12276.11
478.36	12519.53
478.54	12428.24
478.72	12596.76
478.90	12636.55
479.08	12971.25
479.26	12821.45
479.44	12922.10
479.62	12992.31
479.80	13245.09
479.98	13366.80
480.16	13432.33
480.34	13514.25
480.52	13432.33
480.70	13657.03
480.88	13369.14
481.06	13855.97
481.24	13764.69
481.41	14078.32
481.59	14373.23
481.77	14141.52
481.95	14153.22
482.13	14511.32
482.31	14368.55
482.49	14806.23
482.67	15012.20
482.85	14881.13
483.03	15178.37
483.21	15208.80
483.39	15363.28
483.57	15304.76
483.74	15346.89
483.92	15508.39
484.10	15307.10
484.28	15854.79
484.46	15936.71
484.64	16414.18
484.82	15960.11
485.00	16252.68
485.18	16374.39
485.35	16170.76
485.53	16198.85
485.71	15969.48
485.89	16449.28
486.07	16271.40
486.25	16484.39
486.43	16957.18
486.61	16919.73
486.78	17090.59
486.96	17099.95
487.14	17469.76
487.32	17565.72
487.50	17879.35
487.68	18024.47
487.85	18071.28
488.03	18277.24
488.21	18279.58
488.39	18317.03
488.57	18740.67
488.75	18604.92
488.92	18682.16
489.10	19124.52
489.28	19124.52
489.46	19344.53
489.64	19428.79
489.81	19800.93
489.99	20161.37
490.17	20212.87
490.35	20156.69
490.53	20159.03
490.70	20503.09
490.88	20524.16
491.06	20807.36
491.24	20517.14
491.41	20446.92
491.59	20496.07
491.77	20379.04
491.95	20695.02
492.13	21130.36
492.30	21453.35
492.48	21425.26
492.66	21589.10
492.84	21649.96
493.01	21874.65
493.19	21603.14
493.37	22052.53
493.54	22122.74
493.72	22827.24
493.90	22354.46
494.08	22698.52
494.25	23000.44
494.43	22862.35
494.61	23042.57
494.79	23190.03
494.96	23225.14
495.14	23431.10
495.32	23599.62
495.49	23718.99
495.67	23580.90
495.85	24018.58
496.02	24065.39
496.20	24091.13
496.38	24257.31
496.55	24346.25
496.73	24676.27
496.91	24601.37
497.09	24905.64
497.26	24713.72
497.44	25221.61
497.62	25298.85
497.79	25202.89
497.97	25102.25
498.14	25111.61
498.32	25769.30
498.50	25560.99
498.67	25912.07
498.85	25851.22
499.03	25795.04
499.20	25984.63
499.38	25839.51
499.56	26001.01
499.73	26232.72
499.91	26321.66
500.08	26181.23
500.26	25755.26
500.44	26480.82
500.61	26366.13
500.79	26522.95
500.97	26689.13
501.14	26869.35
501.32	27103.40
501.49	27096.38
501.67	27110.43
501.84	27290.65
502.02	27477.89
502.20	27250.86
502.37	27388.95
502.55	27449.80
502.72	27758.75
502.90	27702.58
503.07	27557.47
503.25	27807.90
503.43	27515.34
503.60	27931.95
503.78	27777.48
503.95	28077.07
504.13	28039.62
504.30	28699.65
504.48	28404.74
504.65	28793.27
504.83	28680.92
505.01	28982.85
505.18	28886.89
505.36	29439.26
505.53	29226.27
505.71	29266.06
505.88	29474.37
506.06	28940.72
506.23	29333.93
506.41	29071.79
506.58	29624.16
506.76	29603.10
506.93	29727.14
507.11	29949.50
507.28	29958.86
507.46	30075.88
507.63	29827.79
507.81	30284.19
507.98	29811.40
508.16	30057.16
508.33	30497.18
508.50	30345.05
508.68	30155.46
508.85	30616.55
509.03	30483.14
509.20	30649.32
509.38	30937.20
509.55	31103.38
509.73	30960.61
509.90	31087.00
510.08	31084.65
510.25	30820.17
510.42	31487.23
510.60	31349.14
510.77	31536.38
510.95	32107.47
511.12	31433.39
511.30	32151.94
511.47	32053.64
511.64	32060.66
511.82	32194.07
511.99	31707.24
512.17	32257.26
512.34	31917.89
512.51	32378.97
512.69	32549.83
512.86	32266.63
513.04	32861.12
513.21	32528.77
513.38	32613.02
513.56	32779.20
513.73	32519.40
513.90	32643.45
514.08	32730.05
514.25	32947.72
514.43	32613.02
514.60	33120.92
514.77	33179.43
514.95	33177.09
515.12	33493.07
515.29	32893.89
515.47	33720.10
515.64	33947.13
515.81	33474.34
515.99	33439.23
516.16	32952.40
516.33	33521.15
516.51	34047.77
516.68	32856.44
516.85	33216.88
517.03	33088.15
517.20	33743.50
517.37	33539.88
517.54	34249.06
517.72	33970.54
517.89	34038.41
518.06	33710.74
518.24	33923.72
518.41	34176.50
518.58	34410.56
518.75	34483.11
518.93	34991.01
519.10	34614.18
519.27	34794.40
519.45	34960.58
519.62	35466.14
519.79	35330.39
519.96	35220.38
520.14	35152.51
520.31	35122.08
520.48	35234.42
520.65	35154.85
520.83	35145.48
521.00	35220.38
521.17	35461.46
521.34	35786.79
521.52	35840.62
521.69	36158.94
521.86	35941.27
522.03	35871.05
522.20	36020.84
522.38	35913.18
522.55	36107.44
522.72	36079.36
522.89	35826.58
523.07	36500.65
523.24	36549.81
523.41	36584.91
523.58	36753.43
523.75	37008.55
523.92	36788.54
524.10	36631.72
524.27	37088.13
524.44	36896.20
524.61	36657.47
524.78	37165.37
524.96	37462.61
525.13	37139.62
525.30	37556.24
525.47	37340.91
525.64	37223.88
525.81	37287.07
525.98	37235.58
526.16	37376.01
526.33	37202.82
526.50	37043.66
526.67	37031.96
526.84	37219.20
527.01	37191.11
527.18	37443.89
527.36	37624.11
527.53	38134.35
527.70	38272.44
527.87	38136.69
528.04	37972.85
528.21	38036.05
528.38	38445.64
528.55	38394.15
528.72	38333.29
528.89	39023.75
529.07	38770.97
529.24	38429.26
529.41	38717.14
529.58	38534.58
529.75	38726.50
529.92	38983.96
530.09	39098.65
530.26	38951.20
530.43	38859.91
530.60	38937.15
530.77	38965.24
530.94	39124.40
531.11	38848.21
531.28	39157.16
531.46	39096.31
531.63	39194.61
531.80	38937.15
531.97	39353.77
532.14	39260.15
532.31	39203.97
532.48	39056.52
532.65	39208.65
532.82	39480.16
532.99	39754.00
533.16	39227.38
533.33	39309.30
533.50	39838.26
533.67	39374.83
533.84	39768.04
534.01	39915.50
534.18	39714.21
534.35	40603.61
534.52	39887.41
534.69	39927.20
534.86	40299.34
535.03	40006.78
535.20	40254.87
535.37	40734.68
535.54	40671.49
535.71	40212.74
535.88	40402.33
536.05	40591.91
536.22	40109.76
536.38	40329.77
536.55	40542.76
536.72	39938.90
536.89	40175.30
537.06	40411.69
537.23	40832.99
537.40	40673.83
537.57	40479.57
537.74	40605.95
537.91	40966.40
538.08	41043.63
538.25	40786.18
538.42	40966.40
538.59	40919.59
538.75	40669.15
538.92	40975.76
539.09	41486.00
539.26	41123.21
539.43	41118.53
539.60	40678.51
539.77	41003.85
539.94	41202.79
540.11	40999.16
540.28	41673.24
540.44	41045.97
540.61	41155.98
540.78	40879.80
540.95	40996.82
541.12	41345.56
541.29	41371.31
541.46	41359.61
541.62	41993.89
541.79	41713.03
541.96	41418.12
542.13	41404.08
542.30	41790.27
542.47	41523.44
542.63	41649.83
542.80	41600.68
542.97	41947.08
543.14	42445.62
543.31	42546.26
543.48	42323.91
543.64	42632.86
543.81	42401.14
543.98	42288.80
544.15	42370.72
544.32	42689.03
544.48	42955.85
544.65	42227.95
544.82	42974.58
544.99	42328.59
545.16	42305.18
545.32	42487.74
545.49	42754.57
545.66	43697.80
545.83	42923.08
546.00	43393.53
546.16	42948.83
546.33	42560.30
546.50	42829.46
546.67	42515.83
546.83	42277.10
547.00	42962.87
547.17	42740.52
547.34	42696.05
547.50	42817.76
547.67	43372.47
547.84	43328.00
548.00	43522.26
548.17	43283.53
548.34	43414.60
548.51	43466.09
548.67	43552.69
548.84	43110.33
549.01	43103.31
549.18	42862.23
549.34	43515.24
549.51	43576.09
549.68	43931.86
549.84	43335.02
550.01	43594.82
550.18	43571.41
550.34	43594.82
550.51	43873.34
550.68	43768.02
550.84	42997.98
551.01	43941.22
551.18	43786.74
551.34	43988.03
551.51	43702.48
551.68	43952.92
551.84	43978.67
552.01	43311.61
552.18	43784.40
552.34	43489.49
552.51	44065.27
552.68	43978.67
552.84	43798.44
553.01	44130.80
553.18	44109.74
553.34	44369.54
553.51	44069.95
553.67	44102.71
553.84	45050.63
554.01	44318.04
554.17	44451.45
554.34	44444.43
554.51	44343.79
554.67	44189.31
554.84	44100.37
555.00	44666.78
555.17	44524.01
555.33	44725.30
555.50	44367.20
555.67	44509.97
555.83	44456.14
556.00	44306.34
556.16	44978.07
556.33	44416.35
556.50	44383.58
556.66	44877.43
556.83	44790.83
556.99	44296.98
557.16	44683.17
557.32	44657.42
557.49	44652.74
557.65	44662.10
557.82	44423.37
557.98	44870.41
558.15	45027.23
558.32	44882.11
558.48	44332.09
558.65	44804.88
558.81	44409.32
558.98	44584.86
559.14	44839.98
559.31	44669.12
559.47	45017.86
559.64	44720.62
559.80	45092.76
559.97	44861.05
560.13	44790.83
560.30	44987.44
560.46	44971.05
560.63	45029.57
560.79	45179.36
560.96	45467.25
561.12	45029.57
561.29	44949.99
561.45	45195.74
561.61	45097.44
561.78	45125.53
561.94	44879.77
562.11	45219.15
562.27	45118.51
562.44	45371.28
562.60	45104.46
562.77	45326.81
562.93	45315.11
563.10	45820.67
563.26	44987.44
563.42	45134.89
563.59	45043.61
563.75	45151.27
563.92	45261.28
564.08	45478.95
564.24	45174.68
564.41	45443.84
564.57	45057.65
564.74	45205.11
564.90	45579.59
565.07	45565.55
565.23	45727.05
565.39	45282.34
565.56	45284.68
565.72	45172.34
565.88	45270.64
566.05	45425.12
566.21	45408.73
566.38	44701.89
566.54	45308.09
566.70	45668.53
566.87	45745.77
567.03	45492.99
567.19	45717.68
567.36	45661.51
567.52	45092.76
567.68	45586.61
567.85	45485.97
568.01	45551.51
568.17	45507.04
568.34	45443.84
568.50	45518.74
568.66	45347.88
568.83	45907.27
568.99	45670.87
569.15	45787.90
569.32	45174.68
569.48	45844.07
569.64	46230.26
569.81	45432.14
569.97	45457.88
570.13	45729.39
570.30	45492.99
570.46	45254.26
570.62	44907.86
570.78	44832.96
570.95	45446.18
571.11	45216.81
571.27	45205.11
571.43	45542.14
571.60	45446.18
571.76	45198.09
571.92	45614.70
572.09	45560.87
572.25	45474.27
572.41	46141.32
572.57	45696.62
572.74	46309.84
572.90	45710.66
573.06	45963.44
573.22	45848.75
573.38	45666.19
573.55	45832.37
573.71	45666.19
573.87	45581.93
574.03	45539.80
574.20	46113.23
574.36	45689.60
574.52	45324.47
574.68	45729.39
574.84	45649.81
575.01	45532.78
575.17	45713.00
575.33	45546.82
575.49	45361.92
575.65	45675.55
575.82	46012.59
575.98	45647.47
576.14	45783.22
576.30	45874.50
576.46	46101.53
576.62	45181.70
576.79	45766.84
576.95	45509.38
577.11	45663.85
577.27	45832.37
577.43	45675.55
577.59	45642.79
577.75	45890.88
577.92	45422.78
578.08	45560.87
578.24	45359.58
578.40	45652.15
578.56	45614.70
578.72	45570.23
578.88	45923.65
579.04	45989.19
579.21	45221.49
579.37	45277.66
579.53	45837.05
579.69	45478.95
579.85	45514.06
580.01	45818.33
580.17	45897.91
580.33	45811.31
580.49	45881.52
580.65	46031.32
580.82	45858.12
580.98	45661.51
581.14	45282.34
581.30	45757.47
581.46	45612.36
581.62	45542.14
581.78	45867.48
581.94	45827.69
582.10	45757.47
582.26	45708.32
582.42	45984.51
582.58	45844.07
582.74	45834.71
582.90	46033.66
583.06	46040.68
583.22	45717.68
583.38	45778.54
583.54	46012.59
583.70	45848.75
583.86	46225.58
584.02	45755.13
584.18	45825.35
584.34	46136.64
584.50	45991.53
584.66	45780.88
584.82	45808.96
584.98	45961.10
585.14	46113.23
585.30	45797.26
585.46	45626.40
585.62	45429.80
585.78	45619.38
585.94	45710.66
586.10	45612.36
586.26	45111.49
586.42	45694.28
586.58	45904.93
586.74	46047.70
586.90	45904.93
587.06	46295.80
587.22	45682.58
587.38	45492.99
587.54	46120.26
587.70	46368.35
587.86	45483.63
588.02	45883.86
588.18	45801.94
588.34	45457.88
588.49	45401.71
588.65	45027.23
588.81	45670.87
588.97	45179.36
589.13	45567.89
589.29	45139.57
589.45	45621.72
589.61	45675.55
589.77	45839.39
589.93	46281.75
590.08	46117.92
590.24	46021.95
590.40	46014.93
590.56	45918.97
590.72	46274.73
590.88	46190.47
591.04	46473.68
591.20	46529.85
591.35	46157.70
591.51	46361.33
591.67	45673.21
591.83	46138.98
591.99	45483.63
592.15	46005.57
592.31	46050.04
592.46	46153.02
592.62	45830.03
592.78	46265.37
592.94	46103.87
593.10	45783.22
593.26	45897.91
593.41	45972.80
593.57	45851.09
593.73	45703.64
593.89	45925.99
594.05	46106.21
594.20	45776.20
594.36	46204.52
594.52	46422.19
594.68	46157.70
594.84	45830.03
594.99	45748.11
595.15	45989.19
595.31	45942.38
595.47	46274.73
595.62	46061.74
595.78	46127.28
595.94	46300.48
596.10	45837.05
596.25	46117.92
596.41	45808.96
596.57	45820.67
596.73	45928.33
596.88	45656.83
597.04	45670.87
597.20	46033.66
597.36	45867.48
597.51	46279.41
597.67	45996.21
597.83	46141.32
597.99	46220.90
598.14	45968.12
598.30	46288.77
598.46	46291.12
598.61	46045.36
598.77	45605.34
598.93	45935.35
599.09	45979.82
599.24	46642.20
599.40	46124.94
599.56	46000.89
599.71	45874.50
599.87	46440.91
600.03	46129.62
600.18	46043.02
600.34	45916.63
600.50	46370.69
600.65	46129.62
600.81	46223.24
600.97	46403.46
601.12	46169.41
601.28	46246.65
601.44	45942.38
601.59	46078.13
601.75	45928.33
601.91	45680.24
602.06	45659.17
602.22	45830.03
602.37	46351.97
602.53	46389.42
602.69	45752.79
602.84	45745.77
603.00	45954.08
603.16	45925.99
603.31	45801.94
603.47	45874.50
603.62	45823.01
603.78	45624.06
603.94	46014.93
604.09	45991.53
604.25	46012.59
604.40	46148.34
604.56	46068.76
604.71	46028.98
604.87	46082.81
605.03	45956.42
605.18	45935.35
605.34	46003.23
605.49	45689.60
605.65	46183.45
605.80	45605.34
605.96	45944.72
606.12	45998.55
606.27	46237.28
606.43	45860.46
606.58	45909.61
606.74	46106.21
606.89	45961.10
607.05	45806.62
607.20	45610.02
607.36	45633.42
607.51	45925.99
607.67	45425.12
607.82	45764.49
607.98	45579.59
608.13	45586.61
608.29	45591.30
608.44	45294.05
608.60	44928.92
608.75	45507.04
608.91	45380.65
609.06	45443.84
609.22	45837.05
609.37	45275.32
609.53	45251.92
609.68	45689.60
609.84	45284.68
609.99	45205.11
610.15	45310.43
610.30	44931.26
610.46	45038.93
610.61	45792.58
610.76	45542.14
610.92	45382.99
611.07	45525.76
611.23	45099.78
611.38	45261.28
611.54	45113.83
611.69	45177.02
611.84	45022.54
612.00	45411.07
612.15	44818.92
612.31	45375.97
612.46	45514.06
612.62	45193.40
612.77	45177.02
612.92	44856.37
613.08	45179.36
613.23	44971.05
613.39	44619.97
613.54	44423.37
613.69	44837.64
613.85	44734.66
614.00	44847.00
614.15	44725.30
614.31	44666.78
614.46	44839.98
614.62	45165.32
614.77	44605.93
614.92	44556.78
615.08	44835.30
615.23	44509.97
615.38	44524.01
615.54	44603.59
615.69	44549.76
615.84	44252.51
616.00	44414.01
616.15	44577.84
616.30	44870.41
616.46	44311.02
616.61	44289.96
616.76	44315.70
616.92	43679.08
617.07	44196.34
617.22	44226.76
617.37	44573.16
617.53	44449.11
617.68	44556.78
617.83	44320.38
617.99	44144.84
618.14	44306.34
618.29	44374.22
618.45	44201.02
618.60	44191.65
618.75	44086.33
618.90	44058.24
619.06	43962.28
619.21	43723.55
619.36	43889.73
619.51	43636.95
619.67	43775.04
619.82	44060.58
619.97	44247.83
620.12	43524.60
620.28	43763.34
620.43	43707.16
620.58	43564.39
620.73	43985.69
620.89	43613.54
621.04	43931.86
621.19	43978.67
621.34	43791.42
621.49	43503.54
621.65	43620.56
621.80	43875.68
621.95	43814.83
622.10	43831.21
622.25	43697.80
622.41	43131.39
622.56	43812.49
622.71	43742.27
622.86	43234.38
623.01	43627.59
623.16	43739.93
623.32	43281.19
623.47	43234.38
623.62	43498.86
623.77	43648.65
623.92	43173.52
624.07	42951.17
624.23	42660.94
624.38	43185.22
624.53	43349.06
624.68	43658.01
624.83	43487.15
624.98	43194.59
625.13	42717.12
625.29	43346.72
625.44	43023.73
625.59	42756.91
625.74	42368.38
625.89	42958.19
626.04	42773.29
626.19	42700.73
626.34	43119.69
626.49	42902.02
626.65	42794.36
626.80	42878.61
626.95	42595.41
627.10	42784.99
627.25	42895.00
627.40	42335.61
627.55	42155.39
627.70	42000.91
627.85	42752.23
628.00	42190.50
628.15	42504.13
628.30	42499.45
628.45	42689.03
628.60	42621.16
628.76	42171.77
628.91	42380.08
629.06	41963.46
629.21	42244.33
629.36	41911.97
629.51	42059.43
629.66	41963.46
629.81	41930.70
629.96	41661.54
630.11	41879.21
630.26	42267.73
630.41	42036.02
630.56	41937.72
630.71	42188.16
630.86	41869.84
631.01	41603.02
631.16	41940.06
631.31	41289.39
631.46	41413.44
631.61	41832.39
631.76	41565.57
631.91	41808.99
632.06	41890.91
632.21	41745.80
632.36	41584.30
632.51	41387.69
632.66	41883.89
632.81	41219.17
632.96	41626.43
633.10	41984.53
633.25	41425.14
633.40	41631.11
633.55	42061.77
633.70	41275.35
633.85	41720.05
634.00	41434.50
634.15	41289.39
634.30	41668.56
634.45	41177.04
634.60	41207.47
634.75	41277.69
634.90	41134.92
635.05	41317.48
635.19	41048.32
635.34	41326.84
635.49	41179.39
635.64	40961.72
635.79	40580.21
635.94	40893.84
636.09	40722.98
636.24	40758.09
636.39	40821.28
636.53	40722.98
636.68	40432.75
636.83	40753.41
636.98	40781.49
637.13	41027.25
637.28	40893.84
637.43	40903.20
637.57	40868.09
637.72	40697.24
637.87	40500.63
638.02	40926.61
638.17	40526.38
638.32	40573.19
638.46	40575.53
638.61	40135.51
638.76	40547.44
638.91	40552.12
639.06	40362.54
639.20	40797.88
639.35	40282.96
639.50	40233.81
639.65	40367.22
639.80	40205.72
639.94	40404.67
640.09	40474.88
640.24	40294.66
640.39	40137.85
640.54	40051.25
640.68	40205.72
640.83	40238.49
640.98	39714.21
641.13	39419.30
641.27	40629.36
641.42	39917.84
641.57	40133.17
641.72	39875.71
641.86	39814.85
642.01	39707.19
642.16	39566.76
642.31	39498.88
642.45	39866.34
642.60	39648.68
642.75	39721.23
642.90	39814.85
643.04	39775.06
643.19	39756.34
643.34	39971.67
643.48	39821.87
643.63	39475.48
643.78	39716.55
643.93	39590.16
644.07	39353.77
644.22	39229.72
644.37	39381.85
644.51	39571.44
644.66	39412.28
644.81	39505.90
644.95	39372.49
645.10	39271.85
645.25	39346.75
645.39	39026.09
645.54	39552.71
645.69	39236.74
645.83	39292.91
645.98	39363.13
646.13	39248.44
646.27	39044.82
646.42	38871.62
646.57	39175.89
646.71	38969.92
646.86	38897.36
647.00	39494.20
647.15	38934.81
647.30	38590.75
647.44	39213.34
647.59	38785.02
647.74	38485.43
647.88	39161.84
648.03	38515.86
648.17	38824.81
648.32	38892.68
648.47	38623.52
648.61	38565.01
648.76	38988.64
648.90	38375.42
649.05	38782.68
649.20	38941.83
649.34	38455.00
649.49	37986.89
649.63	38822.47
649.78	38710.12
649.92	38714.80
650.07	38646.93
650.21	38595.43
650.36	38176.48
650.51	38476.07
650.65	39243.76
650.80	38658.63
650.94	38595.43
651.09	38291.16
651.23	38213.93
651.38	38234.99
651.52	37963.49
651.67	37965.83
651.81	38328.61
651.96	38019.66
652.10	37972.85
652.25	38237.33
652.39	38309.89
652.54	38363.72
652.68	38031.36
652.83	37947.11
652.97	38969.92
653.12	38244.35
653.26	37736.46
653.41	38003.28
653.55	37853.48
653.70	37638.15
653.84	37766.88
653.99	38036.05
654.13	38047.75
654.27	37668.58
654.42	38089.88
654.56	38136.69
654.71	38026.68
654.85	37493.04
655.00	37846.46
655.14	37394.74
655.29	37282.39
655.43	37266.01
655.57	36823.65
655.72	36945.36
655.86	36765.14
656.01	36776.84
656.15	36730.03
656.30	36666.83
656.44	37209.84
656.58	36966.42
656.73	37048.34
656.87	37006.21
657.01	36931.31
657.16	36868.12
657.30	36692.58
657.45	36627.04
657.59	36842.37
657.73	37158.34
657.88	36971.10
658.02	36844.71
658.16	37504.74
658.31	37099.83
658.45	37738.80
658.60	36643.43
658.74	36828.33
658.88	37074.09
659.03	36636.41
659.17	36453.84
659.31	37057.70
659.46	36381.29
659.60	36402.35
659.74	36814.29
659.89	36503.00
660.03	36554.49
660.17	36545.12
660.32	36411.71
660.46	36498.31
660.60	36044.25
660.74	36430.44
660.89	36582.57
661.03	35578.48
661.17	36126.17
661.32	36091.06
661.46	36282.98
661.60	35618.27
661.74	35590.19
661.89	35730.62
662.03	35756.36
662.17	35438.05
662.31	36023.19
662.46	35899.14
662.60	35831.26
662.74	35681.47
662.88	35402.94
663.03	35344.43
663.17	35428.69
663.31	35119.74
663.45	35426.35
663.60	35175.91
663.74	35311.66
663.88	35051.86
664.02	35374.86
664.17	35477.84
664.31	35241.45
664.45	35030.80
664.59	34742.91
664.73	35021.44
664.88	34787.38
665.02	34452.69
665.16	34525.24
665.30	34473.75
665.44	34225.65
665.59	34122.67
665.73	34497.16
665.87	34007.98
666.01	34384.81
666.15	34087.56
666.29	34195.23
666.44	34265.44
666.58	34356.72
666.72	34101.61
666.86	34122.67
667.00	34506.52
667.14	34120.33
667.28	34106.29
667.43	33912.02
667.57	34045.43
667.71	33605.41
667.85	33596.05
667.99	33853.51
668.13	33841.81
668.27	33607.75
668.41	33511.79
668.56	33635.84
668.70	33827.76
668.84	33457.96
668.98	33589.03
669.12	33060.07
669.26	33261.35
669.40	33259.01
669.54	33345.61
669.68	33277.74
669.82	32610.68
669.96	32900.91
670.10	33205.18
670.25	33289.44
670.39	32779.20
670.53	32795.59
670.67	32767.50
670.81	32617.71
670.95	32437.48
671.09	32493.66
671.23	31882.78
671.37	32158.96
671.51	32112.15
671.65	32102.79
671.79	32229.18
671.93	32119.17
672.07	31861.71
672.21	32091.09
672.35	31978.74
672.49	31859.37
672.63	31761.07
672.77	31606.59
672.91	31896.82
673.05	31899.16
673.19	31505.95
673.33	31541.06
673.47	31290.62
673.61	31339.77
673.75	30817.83
673.89	30817.83
674.03	31096.36
674.17	30932.52
674.31	31147.85
674.45	31161.89
674.59	31391.26
674.73	31075.29
674.87	31136.15
675.01	31023.80
675.15	30635.27
675.29	30958.27
675.43	30579.10
675.56	30679.74
675.70	30213.98
675.84	30174.19
675.98	29474.37
676.12	30323.98
676.26	30361.43
676.40	30040.78
676.54	30363.77
676.68	29907.37
676.82	28922.00
676.96	29731.83
677.10	29837.15
677.23	29488.41
677.37	29350.32
677.51	29446.28
677.65	29137.33
677.79	28636.45
677.93	28966.47
678.07	28718.37
678.21	28599.01
678.34	28442.19
678.48	28620.07
678.62	28465.60
678.76	28261.97
678.90	27997.49
679.04	28381.34
679.18	28603.69
679.31	28126.22
679.45	27835.99
679.59	27601.94
679.73	28053.66
679.87	27477.89
680.00	27793.86
680.14	27527.04
680.28	27351.50
680.42	27431.08
680.56	27468.53
680.70	27016.80
680.83	27180.64
680.97	27091.70
681.11	27190.00
681.25	27119.79
681.39	27089.36
681.52	27082.34
681.66	26532.31
681.80	26529.97
681.94	26661.04
682.07	26335.71
682.21	26232.72
682.35	26501.89
682.49	26654.02
682.62	26153.15
682.76	25755.26
682.90	26078.25
683.04	25905.05
683.17	25675.68
683.31	25790.36
683.45	25656.95
683.59	25954.20
683.72	25366.73
683.86	25481.41
684.00	25097.56
684.13	24797.98
684.27	25177.14
684.41	25055.43
684.55	24772.23
684.68	24762.87
684.82	24837.76
684.96	24570.94
685.09	24563.92
685.23	24341.57
685.37	24470.30
685.50	24514.77
685.64	24343.91
685.78	24201.14
685.91	23969.43
686.05	23929.64
686.19	23644.09
686.32	23623.03
686.46	23466.21
686.60	22789.80
686.73	23098.75
686.87	23068.32
687.01	22595.53
687.14	22960.66
687.28	22827.24
687.42	22988.74
687.55	22700.86
687.69	22944.27
687.82	22955.97
687.96	22803.84
688.10	22352.12
688.23	22412.97
688.37	22286.58
688.50	22089.98
688.64	22448.08
688.78	22235.09
688.91	21944.86
689.05	22012.74
689.18	21994.01
689.32	21497.82
689.46	21848.90
689.59	21795.07
689.73	21914.44
689.86	21469.73
690.00	21834.86
690.13	21118.65
690.27	21249.72
690.41	21322.28
690.54	21118.65
690.68	21350.37
690.81	21280.15
690.95	20929.07
691.08	20816.72
691.22	20556.93
691.35	20713.74
691.49	20657.57
691.62	20577.99
691.76	20599.05
691.89	20821.41
692.03	20086.48
692.16	20430.54
692.30	20144.99
692.43	20081.80
692.57	20002.22
692.70	19981.15
692.84	19730.72
692.97	19445.17
693.11	19391.34
693.24	19372.61
693.38	19208.78
693.51	19524.75
693.65	19494.32
693.78	19227.50
693.92	19374.95
694.05	19330.48
694.19	19288.35
694.32	19147.92
694.45	19157.28
694.59	19145.58
694.72	18750.03
694.86	18794.50
694.99	18773.44
695.13	18799.18
695.26	18609.60
695.39	18354.48
695.53	18829.61
695.66	18434.06
695.80	17792.75
695.93	17942.55
696.07	17980.00
696.20	18441.08
696.33	18155.54
696.47	17900.42
696.60	17879.35
696.73	17659.34
696.87	17654.66
697.00	17713.17
697.14	17530.61
697.27	17266.13
697.40	17219.32
697.54	17167.83
697.67	17334.01
697.80	17062.51
697.94	17046.12
698.07	17067.19
698.21	16819.09
698.34	16964.20
698.47	16938.46
698.61	16886.97
698.74	17011.01
698.87	16622.48
699.01	16533.54
699.14	16400.13
699.27	16278.43
699.40	16009.26
699.54	16042.03
699.67	16081.82
699.80	15894.58
699.94	16025.65
700.07	16130.97
700.20	16030.33
700.34	15920.32
700.47	15749.46
700.60	15583.29
700.73	15545.84
700.87	15538.82
701.00	15653.50
701.13	15353.91
701.26	15351.57
701.40	15384.34
701.53	14932.62
701.66	15218.16
701.79	14848.36
701.93	15000.49
702.06	14960.70
702.19	14703.25
702.32	14677.50
702.46	14860.06
702.59	14516.00
702.72	14544.09
702.85	14841.34
702.99	14326.42
703.12	14600.26
703.25	14398.98
703.38	14724.31
703.51	14314.72
703.65	13984.70
703.78	14043.21
703.91	13874.70
704.04	13839.59
704.17	14066.62
704.31	13846.61
704.44	13628.94
704.57	13544.68
704.70	13591.49
704.83	13504.89
704.96	13593.83
705.10	13500.21
705.23	13219.35
>>>>>End Processed Spectral Data<<<<<
