SpectraSuite Data File
++++++++++++++++++++++++++++++++++++
Date: Fri Oct 25 10:44:26 EDT 2013
User: price-jones
Dark Spectrum Present: No
Reference Spectrum Present: No
Number of Sampled Component Spectra: 1
Spectrometers: USB2+H05261
Integration Time (usec): 100000 (USB2+H05261)
Spectra Averaged: 1 (USB2+H05261)
Boxcar Smoothing: 0 (USB2+H05261)
Correct for Electrical Dark: No (USB2+H05261)
Strobe/Lamp Enabled: No (USB2+H05261)
Correct for Detector Non-linearity: No (USB2+H05261)
Correct for Stray Light: No (USB2+H05261)
Number of Pixels in Processed Spectrum: 2048
>>>>>Begin Processed Spectral Data<<<<<
365.73	93.62
365.92	93.62
366.12	93.62
366.32	88.94
366.52	60.85
366.72	149.79
366.91	0.00
367.11	91.28
367.31	46.81
367.51	25.75
367.70	46.81
367.90	63.19
368.10	21.06
368.30	30.43
368.49	35.11
368.69	16.38
368.89	30.43
369.09	39.79
369.28	152.13
369.48	60.85
369.68	138.09
369.87	119.37
370.07	49.15
370.27	152.13
370.47	187.24
370.66	327.68
370.86	444.70
371.06	505.56
371.25	435.34
371.45	444.70
371.65	454.06
371.84	484.49
372.04	526.62
372.24	512.58
372.44	479.81
372.63	547.69
372.83	500.87
373.03	535.98
373.22	531.30
373.42	463.43
373.62	479.81
373.81	585.13
374.01	580.45
374.21	578.11
374.40	603.86
374.60	540.66
374.79	580.45
374.99	557.05
375.19	528.96
375.38	601.52
375.58	587.47
375.78	624.92
375.97	557.05
376.17	596.84
376.37	578.11
376.56	596.84
376.76	603.86
376.95	631.94
377.15	739.61
377.35	662.37
377.54	692.80
377.74	678.76
377.93	634.29
378.13	643.65
378.33	629.60
378.52	706.84
378.72	704.50
378.91	676.41
379.11	678.76
379.31	718.54
379.50	643.65
379.70	671.73
379.89	662.37
380.09	760.67
380.28	671.73
380.48	667.05
380.68	723.23
380.87	709.18
381.07	699.82
381.26	676.41
381.46	655.35
381.65	718.54
381.85	767.70
382.04	702.16
382.24	788.76
382.43	709.18
382.63	678.76
382.83	690.46
383.02	791.10
383.22	755.99
383.41	781.74
383.61	833.23
383.80	767.70
384.00	737.27
384.19	751.31
384.39	873.02
384.58	830.89
384.78	805.14
384.97	798.12
385.17	758.33
385.36	755.99
385.56	777.06
385.75	777.06
385.95	837.91
386.14	908.13
386.34	854.30
386.53	929.19
386.72	877.70
386.92	894.08
387.11	926.85
387.31	950.26
387.50	908.13
387.70	847.27
387.89	866.00
388.09	945.58
388.28	940.90
388.48	887.06
388.67	1022.81
388.86	1006.43
389.06	954.94
389.25	1039.20
389.45	1071.97
389.64	990.05
389.84	987.71
390.03	1020.47
390.22	1083.67
390.42	1104.73
390.61	1071.97
390.81	1125.80
391.00	1064.94
391.19	1060.26
391.39	1100.05
391.58	1006.43
391.78	1139.84
391.97	1135.16
392.16	1039.20
392.36	1100.05
392.55	1083.67
392.75	1011.11
392.94	961.96
393.13	971.32
393.33	1043.88
393.52	1142.18
393.71	1144.52
393.91	1095.37
394.10	1050.90
394.29	1132.82
394.49	1245.16
394.68	1153.88
394.88	1219.42
395.07	1235.80
395.26	1317.72
395.46	1287.29
395.65	1317.72
395.84	1256.87
396.04	1315.38
396.23	1240.48
396.42	1228.78
396.62	1221.76
396.81	1226.44
397.00	1235.80
397.19	1291.98
397.39	1291.98
397.58	1380.92
397.77	1446.45
397.97	1441.77
398.16	1390.28
398.35	1502.62
398.55	1490.92
398.74	1535.39
398.93	1631.35
399.12	1519.01
399.32	1572.84
399.51	1568.16
399.70	1654.76
399.90	1600.93
400.09	1549.43
400.28	1687.53
400.47	1570.50
400.67	1682.85
400.86	1753.06
401.05	1741.36
401.24	1671.14
401.44	1834.98
401.63	1706.25
401.82	1769.44
402.01	1778.81
402.21	1846.68
402.40	1762.42
402.59	1755.40
402.78	1834.98
402.97	1797.53
403.17	1893.49
403.36	1909.88
403.55	1853.70
403.74	1916.90
403.93	1881.79
404.13	2008.18
404.32	1778.81
404.51	1893.49
404.70	1994.14
404.89	2010.52
405.09	2050.31
405.28	2052.65
405.47	2015.20
405.66	2113.50
405.85	1987.11
406.05	2040.95
406.24	1975.41
406.43	2047.97
406.62	2165.00
406.81	2118.18
407.00	2083.08
407.20	2204.78
407.39	2139.25
407.58	2202.44
407.77	2296.07
407.96	2296.07
408.15	2293.72
408.34	2230.53
408.54	2333.51
408.73	2363.94
408.92	2293.72
409.11	2417.77
409.30	2333.51
409.49	2471.61
409.68	2377.98
409.87	2296.07
410.07	2359.26
410.26	2406.07
410.45	2408.41
410.64	2476.29
410.83	2588.63
411.02	2602.68
411.21	2623.74
411.40	2684.59
411.59	2780.56
411.78	2843.75
411.98	2686.94
412.17	2775.88
412.36	2808.64
412.55	2832.05
412.74	2750.13
412.93	2766.51
413.12	2843.75
413.31	2909.29
413.50	2916.31
413.69	2974.82
413.88	2892.90
414.07	3061.42
414.26	2993.55
414.45	3131.64
414.64	3005.25
414.83	3152.70
415.02	3208.87
415.22	3213.56
415.41	3227.60
415.60	3171.43
415.79	3361.01
415.98	3211.22
416.17	3426.54
416.36	3286.11
416.55	3323.56
416.74	3463.99
416.93	3269.73
417.12	3529.53
417.31	3541.23
417.50	3452.29
417.69	3494.42
417.88	3550.59
418.07	3417.18
418.26	3454.63
418.45	3583.36
418.64	3812.73
418.83	3693.37
419.02	3698.05
419.21	3684.00
419.39	3833.80
419.58	3590.38
419.77	3599.74
419.96	3695.71
420.15	3796.35
420.34	3854.86
420.53	3887.63
420.72	3964.87
420.91	4004.66
421.10	3878.27
421.29	3948.48
421.48	3880.61
421.67	3981.25
421.86	4058.49
422.05	3887.63
422.24	3857.20
422.43	3896.99
422.61	4126.36
422.80	4011.68
422.99	4042.11
423.18	3971.89
423.37	4086.58
423.56	3955.51
423.75	3990.61
423.94	3946.14
424.13	3882.95
424.32	3908.69
424.50	4107.64
424.69	4215.30
424.88	4065.51
425.07	3983.59
425.26	3971.89
425.45	4046.79
425.64	4063.17
425.83	4208.28
426.01	4081.89
426.20	4159.13
426.39	4044.45
426.58	3978.91
426.77	3791.67
426.96	3971.89
427.15	3955.51
427.33	4131.05
427.52	4098.28
427.71	4250.41
427.90	3985.93
428.09	4229.35
428.28	4198.92
428.46	4304.25
428.65	4315.95
428.84	4461.06
429.03	4372.12
429.22	4077.21
429.40	4231.69
429.59	4383.82
429.78	4037.42
429.97	4070.19
430.16	4051.47
430.34	4163.81
430.53	4353.40
430.72	4465.74
430.91	4341.69
431.10	4514.89
431.28	4512.55
431.47	4753.63
431.66	4851.93
431.85	4606.17
432.03	4812.14
432.22	4645.96
432.41	4812.14
432.60	4978.32
432.79	4730.22
432.97	4889.38
433.16	4840.23
433.35	4720.86
433.54	4657.67
433.72	4812.14
433.91	4702.14
434.10	4940.87
434.28	4952.57
434.47	5062.58
434.66	4985.34
434.85	5146.84
435.03	4980.66
435.22	5013.43
435.41	5254.50
435.59	5125.77
435.78	5238.12
435.97	5343.44
436.16	5200.67
436.34	5280.25
436.53	5324.72
436.72	5320.04
436.90	5305.99
437.09	5263.86
437.28	5139.82
437.46	5448.77
437.65	5345.78
437.84	5406.64
438.02	5313.02
438.21	5423.02
438.40	5310.68
438.58	5530.69
438.77	5504.94
438.96	5518.98
439.14	5628.99
439.33	5717.93
439.52	5799.85
439.70	5659.42
439.89	5783.46
440.08	5750.70
440.26	5837.30
440.45	5870.06
440.63	6064.33
440.82	6202.42
441.01	6186.04
441.19	6216.46
441.38	6186.04
441.57	6307.74
441.75	6232.85
441.94	6516.05
442.12	6244.55
442.31	6443.49
442.50	6518.39
442.68	6616.69
442.87	6483.28
443.05	6579.25
443.24	6647.12
443.43	6511.37
443.61	6693.93
443.80	6836.70
443.98	6546.48
444.17	6448.18
444.35	6803.94
444.54	6626.06
444.73	6778.19
444.91	6633.08
445.10	6782.87
445.28	6583.93
445.47	6553.50
445.65	6628.40
445.84	6703.29
446.02	6881.18
446.21	6670.53
446.39	6775.85
446.58	6705.63
446.77	6813.30
446.95	6869.47
447.14	6813.30
447.32	6906.92
447.51	6998.20
447.69	6834.36
447.88	7082.46
448.06	6951.39
448.25	6780.53
448.43	6960.75
448.62	6832.02
448.80	6825.00
448.99	7183.10
449.17	6902.24
449.36	7150.34
449.54	7126.93
449.73	7279.07
449.91	7265.02
450.10	7321.20
450.28	7330.56
450.46	7625.47
450.65	7269.70
450.83	7227.57
451.02	7417.16
451.20	7290.77
451.39	7527.16
451.57	7407.80
451.76	7419.50
451.94	7274.38
452.13	7365.67
452.31	7300.13
452.49	7208.85
452.68	7548.23
452.86	7414.82
453.05	7506.10
453.23	7269.70
453.42	7494.40
453.60	7435.88
453.78	7709.72
453.97	7452.27
454.15	7478.01
454.34	7707.38
454.52	7861.86
454.70	7707.38
454.89	7822.07
455.07	7786.96
455.26	7695.68
455.44	8051.44
455.62	8116.98
455.81	7934.42
455.99	8013.99
456.17	8112.30
456.36	7894.63
456.54	8262.09
456.73	8400.18
456.91	8414.23
457.09	8358.05
457.28	8603.81
457.46	8290.18
457.64	8360.39
457.83	8571.04
458.01	8091.23
458.19	8510.19
458.38	8407.20
458.56	8493.80
458.74	8416.57
458.93	8418.91
459.11	8425.93
459.29	8524.23
459.48	8341.67
459.66	8671.68
459.84	8526.57
460.03	8730.20
460.21	8943.19
460.39	8496.14
460.57	8655.30
460.76	8854.25
460.94	9100.00
461.12	8828.50
461.31	8879.99
461.49	8851.91
461.67	8798.07
461.85	9102.34
462.04	8894.04
462.22	9247.46
462.40	9202.99
462.59	9067.24
462.77	9069.58
462.95	9050.85
463.13	9071.92
463.32	9245.12
463.50	9362.14
463.68	9481.51
463.86	9284.91
464.05	9022.77
464.23	9135.11
464.41	9238.09
464.59	9165.54
464.78	9383.21
464.96	9453.42
465.14	9312.99
465.32	9420.66
465.50	9280.22
465.69	9483.85
465.87	9586.83
466.05	9338.74
466.23	9341.08
466.41	9343.42
466.60	9650.03
466.78	9415.98
466.96	9528.32
467.14	9682.80
467.32	9605.56
467.51	9816.21
467.69	9401.93
467.87	9722.59
468.05	9762.37
468.23	9750.67
468.41	9626.62
468.60	9783.44
468.78	9886.42
468.96	9870.04
469.14	10033.88
469.32	10024.51
469.50	9762.37
469.69	9797.48
469.87	9909.83
470.05	10085.37
470.23	10045.58
470.41	10101.75
470.59	10333.47
470.77	10218.78
470.95	10249.21
471.14	10356.87
471.32	10436.45
471.50	10747.74
471.68	10525.39
471.86	10602.63
472.04	10534.75
472.22	10857.75
472.40	10600.29
472.58	10604.97
472.77	10712.63
472.95	10850.72
473.13	11215.85
473.31	10738.38
473.49	10806.25
473.67	10785.19
473.85	10963.07
474.03	11248.61
474.21	11152.65
474.39	11248.61
474.57	11365.64
474.75	11370.32
474.93	11426.50
475.12	11424.15
475.30	11503.73
475.48	11386.71
475.66	11506.07
475.84	11520.12
476.02	11618.42
476.20	11887.58
476.38	11864.18
476.56	12252.70
476.74	12184.83
476.92	12168.45
477.10	12372.07
477.28	12376.75
477.46	12304.20
477.64	12425.90
477.82	12578.04
478.00	13287.22
478.18	12833.16
478.36	12872.95
478.54	13067.21
478.72	13064.87
478.90	13289.56
479.08	13193.60
479.26	13647.66
479.44	13364.46
479.62	13694.47
479.80	14031.51
479.98	13788.10
480.16	13973.00
480.34	14085.34
480.52	14141.52
480.70	14064.28
480.88	14019.81
481.06	14197.69
481.24	14420.04
481.41	14728.99
481.59	14745.38
481.77	14941.98
481.95	14604.94
482.13	14885.81
482.31	14956.02
482.49	15328.17
482.67	15061.35
482.85	15480.30
483.03	15559.88
483.21	15665.21
483.39	15967.13
483.57	15749.46
483.74	16002.24
483.92	16156.72
484.10	16098.20
484.28	16435.24
484.46	16248.00
484.64	16971.22
484.82	16240.98
485.00	16652.91
485.18	16940.80
485.35	16973.56
485.53	16615.46
485.71	16741.85
485.89	16893.99
486.07	16596.74
486.25	17099.95
486.43	17202.94
486.61	17427.63
486.78	18139.15
486.96	17844.24
487.14	18183.62
487.32	18176.60
487.50	18473.85
487.68	18590.88
487.85	19014.51
488.03	18808.54
488.21	19190.05
488.39	18773.44
488.57	19037.92
488.75	19178.35
488.92	19513.05
489.10	19948.39
489.28	19946.05
489.46	20299.47
489.64	20203.50
489.81	20622.46
489.99	20573.31
490.17	20608.42
490.35	20947.79
490.53	21092.91
490.70	21036.74
490.88	20762.89
491.06	21308.24
491.24	21149.08
491.41	21212.28
491.59	21221.64
491.77	21188.87
491.95	21713.15
492.13	21717.83
492.30	22052.53
492.48	22082.95
492.66	22356.80
492.84	22530.00
493.01	22876.40
493.19	22731.28
493.37	22876.40
493.54	22520.63
493.72	23187.69
493.90	23171.30
494.08	23400.68
494.25	23742.39
494.43	23807.93
494.61	24247.95
494.79	23868.78
494.96	23967.09
495.14	23871.12
495.32	24261.99
495.49	24020.92
495.67	24407.11
495.85	24512.43
496.02	24687.97
496.20	24882.24
496.38	24954.79
496.55	25600.78
496.73	25617.16
496.91	25331.62
497.09	25853.56
497.26	25708.44
497.44	25848.88
497.62	26052.50
497.79	26211.66
497.97	25928.45
498.14	26080.59
498.32	26153.15
498.50	26316.98
498.67	26522.95
498.85	26586.15
499.03	26925.52
499.20	26998.08
499.38	26792.11
499.56	26918.50
499.73	27019.14
499.91	27152.55
500.08	27477.89
500.26	27042.55
500.44	27346.82
500.61	27147.87
500.79	27040.21
500.97	27489.59
501.14	27838.33
501.32	27578.53
501.49	27938.97
501.67	28053.66
501.84	28023.23
502.02	27906.21
502.20	28254.95
502.37	28467.94
502.55	28528.79
502.72	28772.21
502.90	28889.23
503.07	28748.80
503.25	28566.24
503.43	28676.24
503.60	29064.77
503.78	28924.34
503.95	29069.45
504.13	28926.68
504.30	29198.18
504.48	29310.53
504.65	29153.71
504.83	29909.71
505.01	29816.08
505.18	29778.64
505.36	30476.12
505.53	30134.40
505.71	30499.52
505.88	30312.28
506.06	30164.82
506.23	30141.42
506.41	30188.23
506.58	30295.89
506.76	30497.18
506.93	30756.98
507.11	30616.55
507.28	30768.68
507.46	30881.03
507.63	30497.18
507.81	31257.85
507.98	31016.78
508.16	30824.86
508.33	31129.12
508.50	31316.37
508.68	31578.51
508.85	32233.86
509.03	31768.09
509.20	31901.50
509.38	31716.60
509.55	31637.02
509.73	32343.86
509.90	32208.11
510.08	32126.19
510.25	31910.86
510.42	32114.49
510.60	32212.79
510.77	32404.72
510.95	32725.37
511.12	32666.86
511.30	32802.61
511.47	32975.81
511.64	33230.93
511.82	32879.85
511.99	32875.16
512.17	33134.96
512.34	32364.93
512.51	33259.01
512.69	33256.67
512.86	33839.47
513.04	33401.79
513.21	33748.18
513.38	33567.96
513.56	33780.95
513.73	33605.41
513.90	33577.33
514.08	33556.26
514.25	33825.42
514.43	33582.01
514.60	34178.84
514.77	33717.76
514.95	34094.58
515.12	34396.51
515.29	34464.39
515.47	34653.97
515.64	34529.92
515.81	34780.36
515.99	34366.09
516.16	34707.80
516.33	34368.43
516.51	34429.28
516.68	34080.54
516.85	33968.19
517.03	34258.42
517.20	34469.07
517.37	34672.70
517.54	35311.66
517.72	35372.52
517.89	34848.24
518.06	34590.78
518.24	34890.37
518.41	34696.10
518.58	35236.77
518.75	35199.32
518.93	35796.15
519.10	34960.58
519.27	35669.76
519.45	35641.68
519.62	36299.37
519.79	36023.19
519.96	36292.35
520.14	36353.20
520.31	36058.29
520.48	36875.14
520.65	36196.38
520.83	36458.52
521.00	36673.85
521.17	36807.26
521.34	36425.76
521.52	36793.22
521.69	36648.11
521.86	37123.24
522.03	36914.93
522.20	36699.60
522.38	37385.38
522.55	37361.97
522.72	37364.31
522.89	37373.67
523.07	37603.05
523.24	37385.38
523.41	37806.67
523.58	37673.26
523.75	38611.82
523.92	37759.86
524.10	38237.33
524.27	38139.03
524.44	37947.11
524.61	38279.46
524.78	38494.79
524.96	38195.20
525.13	38408.19
525.30	38340.32
525.47	38389.47
525.64	38124.99
525.81	38522.88
525.98	38258.40
526.16	37986.89
526.33	38005.62
526.50	38375.42
526.67	38384.79
526.84	38094.56
527.01	38155.41
527.18	38733.53
527.36	38539.26
527.53	39243.76
527.70	39051.84
527.87	39330.36
528.04	39463.77
528.21	39185.25
528.38	39468.45
528.55	39758.68
528.72	39632.29
528.89	39618.25
529.07	39594.84
529.24	39229.72
529.41	39817.19
529.58	39512.92
529.75	39583.14
529.92	39798.47
530.09	39564.42
530.26	40348.50
530.43	40362.54
530.60	39807.83
530.77	39934.22
530.94	40348.50
531.11	39849.96
531.28	40535.74
531.46	40739.36
531.63	40385.94
531.80	40074.65
531.97	40325.09
532.14	40259.55
532.31	39931.88
532.48	40175.30
532.65	40247.85
532.82	40458.50
532.99	40163.59
533.16	40664.47
533.33	40821.28
533.50	41092.79
533.67	40982.78
533.84	40306.37
534.01	40620.00
534.18	40779.15
534.35	40893.84
534.52	40884.48
534.69	41027.25
534.86	41078.74
535.03	40847.03
535.20	41722.39
535.37	41839.42
535.54	41766.86
535.71	40879.80
535.88	41659.20
536.05	41123.21
536.22	41736.43
536.38	41710.69
536.55	41184.07
536.72	41661.54
536.89	41338.54
537.06	41200.45
537.23	42094.53
537.40	42026.66
537.57	42061.77
537.74	41986.87
537.91	42178.79
538.08	42094.53
538.25	41483.66
538.42	42064.11
538.59	42445.62
538.75	41647.49
538.92	42169.43
539.09	42391.78
539.26	41881.55
539.43	42260.71
539.60	42316.89
539.77	41926.02
539.94	42071.13
540.11	41984.53
540.28	42370.72
540.44	42197.52
540.61	42293.48
540.78	42321.57
540.95	42234.97
541.12	42043.04
541.29	42911.38
541.46	42501.79
541.62	42511.15
541.79	43077.56
541.96	42225.60
542.13	42731.16
542.30	42609.45
542.47	42876.27
542.63	42653.92
542.80	42890.32
542.97	43370.13
543.14	43466.09
543.31	43473.11
543.48	43173.52
543.64	43973.98
543.81	43566.73
543.98	43276.51
544.15	43655.67
544.32	43576.09
544.48	44179.95
544.65	43456.73
544.82	43957.60
544.99	43395.87
545.16	43957.60
545.32	43552.69
545.49	44203.36
545.66	44142.50
545.83	44098.03
546.00	44367.20
546.16	43889.73
546.33	43920.15
546.50	43512.90
546.67	43800.79
546.83	43480.13
547.00	43952.92
547.17	43924.83
547.34	43969.30
547.50	44390.60
547.67	44336.77
547.84	44320.38
548.00	44271.23
548.17	44685.51
548.34	44133.14
548.51	44657.42
548.67	44678.49
548.84	44615.29
549.01	44376.56
549.18	44102.71
549.34	44617.63
549.51	44580.18
549.68	44615.29
549.84	44802.53
550.01	44914.88
550.18	44231.44
550.34	44715.93
550.51	44552.10
550.68	44659.76
550.84	44491.24
551.01	44662.10
551.18	45177.02
551.34	44865.73
551.51	44678.49
551.68	44907.86
551.84	44928.92
552.01	44839.98
552.18	44954.67
552.34	45092.76
552.51	44940.63
552.68	44889.13
552.84	45401.71
553.01	45188.72
553.18	45160.64
553.34	45530.44
553.51	44699.55
553.67	45258.94
553.84	45375.97
554.01	45509.38
554.17	45607.68
554.34	45823.01
554.51	45265.96
554.67	45675.55
554.84	45532.78
555.00	45261.28
555.17	45268.30
555.33	45453.20
555.50	45818.33
555.67	45560.87
555.83	45427.46
556.00	45745.77
556.16	46211.54
556.33	45500.01
556.50	45610.02
556.66	45649.81
556.83	45483.63
556.99	46045.36
557.16	45839.39
557.32	46021.95
557.49	46043.02
557.65	45642.79
557.82	45759.81
557.98	45989.19
558.15	46106.21
558.32	45851.09
558.48	45577.25
558.65	45720.02
558.81	45352.56
558.98	45546.82
559.14	45649.81
559.31	45404.05
559.47	46202.18
559.64	46433.89
559.80	46450.27
559.97	46078.13
560.13	45839.39
560.30	46176.43
560.46	46349.63
560.63	45940.04
560.79	46239.62
560.96	46281.75
561.12	46162.39
561.29	46384.74
561.45	46141.32
561.61	45961.10
561.78	46146.00
561.94	46036.00
562.11	46241.96
562.27	46314.52
562.44	46293.46
562.60	46415.16
562.77	46471.34
562.93	46101.53
563.10	46562.62
563.26	46246.65
563.42	46363.67
563.59	46120.26
563.75	46190.47
563.92	46576.66
564.08	46749.86
564.24	46752.20
564.41	46178.77
564.57	46658.58
564.74	45743.43
564.90	46415.16
565.07	46539.21
565.23	46604.75
565.39	46246.65
565.56	46377.72
565.72	46155.36
565.88	46789.65
566.05	46246.65
566.21	46087.49
566.38	46195.15
566.54	46469.00
566.70	46607.09
566.87	46728.80
567.03	46677.30
567.19	46791.99
567.36	47012.00
567.52	46394.10
567.68	46623.47
567.85	46370.69
568.01	46515.81
568.17	46649.22
568.34	46408.14
568.50	46337.93
568.66	46094.51
568.83	46689.01
568.99	46417.50
569.15	46344.95
569.32	46543.89
569.48	46476.02
569.64	47021.36
569.81	46494.74
569.97	46536.87
570.13	46817.74
570.30	46176.43
570.46	46454.95
570.62	46197.49
570.78	46349.63
570.95	46220.90
571.11	46665.60
571.27	46204.52
571.43	46726.46
571.60	46246.65
571.76	46321.54
571.92	46848.16
572.09	46635.17
572.25	46490.06
572.41	46401.12
572.57	46796.67
572.74	47070.51
572.90	46628.15
573.06	46679.64
573.22	46850.50
573.38	47019.02
573.55	46838.80
573.71	46836.46
573.87	46799.01
574.03	46384.74
574.20	46646.88
574.36	46574.32
574.52	46429.21
574.68	46794.33
574.84	47019.02
575.01	46932.42
575.17	46817.74
575.33	46548.57
575.49	46770.93
575.65	46464.32
575.82	46761.56
575.98	46887.95
576.14	46894.97
576.30	46911.36
576.46	46902.00
576.62	46665.60
576.79	46916.04
576.95	46508.79
577.11	46766.24
577.27	46799.01
577.43	46754.54
577.59	46447.93
577.75	46649.22
577.92	46218.56
578.08	46202.18
578.24	46148.34
578.40	46579.00
578.56	46457.29
578.72	46803.69
578.88	47035.41
579.04	46607.09
579.21	46899.65
579.37	46967.53
579.53	46843.48
579.69	46717.09
579.85	46927.74
580.01	46817.74
580.17	46623.47
580.33	46997.96
580.49	46962.85
580.65	46892.63
580.82	46749.86
580.98	46485.38
581.14	46384.74
581.30	46911.36
581.46	46988.60
581.62	46852.84
581.78	46773.27
581.94	46897.31
582.10	46775.61
582.26	46932.42
582.42	46335.59
582.58	46712.41
582.74	46443.25
582.90	46759.22
583.06	47136.05
583.22	46939.44
583.38	47086.90
583.54	46703.05
583.70	46796.67
583.86	47311.59
584.02	46717.09
584.18	46986.25
584.34	46897.31
584.50	46864.55
584.66	46630.49
584.82	46588.36
584.98	47145.41
585.14	47023.70
585.30	46780.29
585.46	47030.72
585.62	46777.95
585.78	46419.84
585.94	46658.58
586.10	47047.11
586.26	46777.95
586.42	46939.44
586.58	47103.28
586.74	47077.54
586.90	46717.09
587.06	46415.16
587.22	46862.21
587.38	46667.94
587.54	46710.07
587.70	46902.00
587.86	47058.81
588.02	46784.97
588.18	46927.74
588.34	46382.40
588.49	46670.28
588.65	46321.54
588.81	45944.72
588.97	46358.99
589.13	46485.38
589.29	46508.79
589.45	46653.90
589.61	46822.42
589.77	46773.27
589.93	46539.21
590.08	46564.96
590.24	46719.43
590.40	47491.81
590.56	47072.85
590.72	47058.81
590.88	47140.73
591.04	47222.65
591.20	47547.98
591.35	46990.94
591.51	47466.06
591.67	47290.52
591.83	47278.82
591.99	46775.61
592.15	47117.32
592.31	46927.74
592.46	47023.70
592.62	46986.25
592.78	47100.94
592.94	46768.58
593.10	46817.74
593.26	47260.10
593.41	47309.25
593.57	46609.43
593.73	46827.10
593.89	46820.08
594.05	46960.51
594.20	46820.08
594.36	47283.50
594.52	46361.33
594.68	46740.50
594.84	46948.81
594.99	47351.38
595.15	46871.57
595.31	47016.68
595.47	46810.71
595.62	46784.97
595.78	47065.83
595.94	47047.11
596.10	47313.93
596.25	47498.83
596.41	47145.41
596.57	47302.23
596.73	47601.82
596.88	46937.10
597.04	46829.44
597.20	46852.84
597.36	46993.28
597.51	47114.98
597.67	47585.43
597.83	47079.88
597.99	47482.45
598.14	47035.41
598.30	46852.84
598.46	46609.43
598.61	46707.73
598.77	46724.11
598.93	46672.62
599.09	47044.77
599.24	47632.24
599.40	47126.69
599.56	47026.04
599.71	46887.95
599.87	47445.00
600.03	46909.02
600.18	47004.98
600.34	46930.08
600.50	47220.31
600.65	46932.42
600.81	47082.22
600.97	47555.00
601.12	47114.98
601.28	46941.78
601.44	47173.50
601.59	46799.01
601.75	46890.29
601.91	46997.96
602.06	47007.32
602.22	46677.30
602.37	46965.19
602.53	47175.84
602.69	47538.62
602.84	46820.08
603.00	46859.87
603.16	47093.92
603.31	46609.43
603.47	47129.03
603.62	46930.08
603.78	47096.26
603.94	46890.29
604.09	47433.30
604.25	47077.54
604.40	47133.71
604.56	46946.47
604.71	47210.95
604.87	46728.80
605.03	46817.74
605.18	46920.72
605.34	46740.50
605.49	46742.84
605.65	46937.10
605.80	46876.25
605.96	46770.93
606.12	46944.12
606.27	47093.92
606.43	46588.36
606.58	46756.88
606.74	46843.48
606.89	46438.57
607.05	46501.76
607.20	46691.35
607.36	46873.91
607.51	46873.91
607.67	46546.23
607.82	46459.63
607.98	46754.54
608.13	46794.33
608.29	46593.04
608.44	46541.55
608.60	46604.75
608.75	46333.24
608.91	46494.74
609.06	46354.31
609.22	46536.87
609.37	46625.81
609.53	46602.41
609.68	46396.44
609.84	46440.91
609.99	46230.26
610.15	46515.81
610.30	46487.72
610.46	46014.93
610.61	46256.01
610.76	45792.58
610.92	46321.54
611.07	46501.76
611.23	46279.41
611.38	46384.74
611.54	46183.45
611.69	46265.37
611.84	46061.74
612.00	46117.92
612.15	46007.91
612.31	45937.69
612.46	45937.69
612.62	46300.48
612.77	46316.86
612.92	46038.34
613.08	46054.72
613.23	46068.76
613.39	45790.24
613.54	45844.07
613.69	45982.16
613.85	45914.29
614.00	46045.36
614.15	46335.59
614.31	45467.25
614.46	46181.11
614.62	45951.74
614.77	45710.66
614.92	45851.09
615.08	45914.29
615.23	45560.87
615.38	45771.52
615.54	45359.58
615.69	45530.44
615.84	45514.06
616.00	45469.59
616.15	45092.76
616.30	45656.83
616.46	45464.91
616.61	45170.00
616.76	45270.64
616.92	44996.80
617.07	45111.49
617.22	44863.39
617.37	45448.52
617.53	45485.97
617.68	45202.77
617.83	45586.61
617.99	45055.31
618.14	45858.12
618.29	45593.64
618.45	44884.45
618.60	45184.04
618.75	44945.31
618.90	45710.66
619.06	45287.03
619.21	45532.78
619.36	45593.64
619.51	45214.47
619.67	44811.90
619.82	45191.06
619.97	45359.58
620.12	45200.43
620.28	44856.37
620.43	44912.54
620.58	45099.78
620.73	44900.84
620.89	44821.26
621.04	44919.56
621.19	44844.66
621.34	44828.28
621.49	45036.59
621.65	44439.75
621.80	44680.83
621.95	44168.25
622.10	44573.16
622.25	44154.21
622.41	44250.17
622.56	43964.62
622.71	44753.38
622.86	44273.57
623.01	44158.89
623.16	44428.05
623.32	44313.36
623.47	44608.27
623.62	44299.32
623.77	44098.03
623.92	44332.09
624.07	43814.83
624.23	43807.81
624.38	44119.10
624.53	43945.90
624.68	44048.88
624.83	43693.12
624.98	43805.47
625.13	43505.88
625.29	44100.37
625.44	43641.63
625.59	43601.84
625.74	43775.04
625.89	43508.22
626.04	43519.92
626.19	43913.13
626.34	44161.23
626.49	44032.50
626.65	43875.68
626.80	44266.55
626.95	43658.01
627.10	43618.22
627.25	43487.15
627.40	43283.53
627.55	42944.15
627.70	42766.27
627.85	43016.71
628.00	43405.23
628.15	43550.35
628.30	43051.81
628.45	43161.82
628.60	43636.95
628.76	43171.18
628.91	43744.61
629.06	43267.14
629.21	42873.93
629.36	43119.69
629.51	43295.23
629.66	43145.44
629.81	42281.78
629.96	42845.85
630.11	43112.67
630.26	42724.14
630.41	43124.37
630.56	42698.39
630.71	42953.51
630.86	43098.62
631.01	42672.65
631.16	42604.77
631.31	42815.42
631.46	42164.75
631.61	42529.87
631.76	42370.72
631.91	42789.67
632.06	42988.62
632.21	42799.04
632.36	42909.04
632.51	42625.84
632.66	42433.91
632.81	42047.72
632.96	42398.80
633.10	42171.77
633.25	42492.43
633.40	42368.38
633.55	42632.86
633.70	42471.36
633.85	42347.31
634.00	42246.67
634.15	42370.72
634.30	41970.49
634.45	42234.97
634.60	42347.31
634.75	42071.13
634.90	42534.56
635.05	42005.59
635.19	41806.65
635.34	42305.18
635.49	42110.92
635.64	42146.03
635.79	41996.23
635.94	42005.59
636.09	41926.02
636.24	41514.08
636.39	41724.73
636.53	41324.50
636.68	41771.54
636.83	41813.67
636.98	42019.64
637.13	41574.94
637.28	42120.28
637.43	41893.25
637.57	41694.30
637.72	41581.96
637.87	41593.66
638.02	41727.07
638.17	41832.39
638.32	41902.61
638.46	41495.36
638.61	41729.41
638.76	41045.97
638.91	41507.06
639.06	41558.55
639.20	41469.61
639.35	41687.28
639.50	41212.15
639.65	41918.99
639.80	41333.86
639.94	41095.13
640.09	41390.03
640.24	41287.05
640.39	40975.76
640.54	40884.48
640.68	40905.54
640.83	41008.53
640.98	40470.20
641.13	40727.66
641.27	41315.14
641.42	40842.35
641.57	40889.16
641.72	41315.14
641.86	40446.80
642.01	40533.40
642.16	40725.32
642.31	40444.46
642.45	40933.63
642.60	40856.39
642.75	40825.96
642.90	40697.24
643.04	40378.92
643.19	40538.08
643.34	40491.27
643.48	40402.33
643.63	40477.22
643.78	40086.36
643.93	40034.86
644.07	40325.09
644.22	40498.29
644.37	39971.67
644.51	40236.15
644.66	40713.62
644.81	40371.90
644.95	40666.81
645.10	40512.33
645.25	40432.75
645.39	40596.59
645.54	40294.66
645.69	40275.94
645.83	40439.78
645.98	40264.24
646.13	40140.19
646.27	39695.49
646.42	40027.84
646.57	40617.66
646.71	39854.64
646.86	39941.24
647.00	40374.24
647.15	39936.56
647.30	40041.88
647.44	39658.04
647.59	39515.26
647.74	39955.29
647.88	40051.25
648.03	39995.07
648.17	39966.99
648.32	39894.43
648.47	39662.72
648.61	39423.98
648.76	39683.78
648.90	39751.66
649.05	39459.09
649.20	39302.28
649.34	39440.37
649.49	39218.02
649.63	39035.45
649.78	39381.85
649.92	39079.92
650.07	40233.81
650.21	39201.63
650.36	39400.58
650.51	39503.56
650.65	39658.04
650.80	39906.13
650.94	39737.62
651.09	39182.91
651.23	39175.89
651.38	39431.01
651.52	39218.02
651.67	38998.01
651.81	39150.14
651.96	39194.61
652.10	38902.04
652.25	38958.22
652.39	39007.37
652.54	38848.21
652.68	39372.49
652.83	39346.75
652.97	39161.84
653.12	38960.56
653.26	38883.32
653.41	39009.71
653.55	38518.20
653.70	38656.29
653.84	38752.25
653.99	38930.13
654.13	38529.90
654.27	38534.58
654.42	38345.00
654.56	38391.81
654.71	38504.15
654.85	38590.75
655.00	38635.22
655.14	38204.56
655.29	38295.85
655.43	38270.10
655.57	38258.40
655.72	37855.82
655.86	37680.28
656.01	37736.46
656.15	37677.94
656.30	37598.37
656.44	37804.33
656.58	37752.84
656.73	37912.00
656.87	37731.78
657.01	37961.15
657.16	37919.02
657.30	38078.18
657.45	37420.48
657.59	37900.29
657.73	37474.32
657.88	38300.53
658.02	37766.88
658.16	38057.11
658.31	37984.55
658.45	37642.84
658.60	37912.00
658.74	38188.18
658.88	37724.75
659.03	37504.74
659.17	37109.19
659.31	37254.31
659.46	37336.23
659.60	37736.46
659.74	37476.66
659.89	37151.32
660.03	37249.63
660.17	36851.73
660.32	37481.34
660.46	37446.23
660.60	37298.78
660.74	37361.97
660.89	37443.89
661.03	36704.28
661.17	36842.37
661.32	36421.08
661.46	36800.24
661.60	36699.60
661.74	36966.42
661.89	37043.66
662.03	37029.62
662.17	36603.64
662.31	36435.12
662.46	36893.86
662.60	36943.02
662.74	36481.93
662.88	35931.90
663.03	36156.60
663.17	36481.93
663.31	35845.30
663.45	36156.60
663.60	35941.27
663.74	36294.69
663.88	35906.16
664.02	36091.06
664.17	36023.19
664.31	35688.49
664.45	36086.38
664.59	35725.94
664.73	35915.52
664.88	35655.72
665.02	35164.21
665.16	35290.60
665.30	35653.38
665.44	35487.20
665.59	35297.62
665.73	35353.79
665.87	34951.22
666.01	35267.19
666.15	35644.02
666.29	34831.85
666.44	35564.44
666.58	34883.34
666.72	34892.71
666.86	34960.58
667.00	34885.68
667.14	34553.33
667.28	34747.59
667.43	34567.37
667.57	34621.20
667.71	34691.42
667.85	34356.72
667.99	34443.32
668.13	34675.04
668.27	34391.83
668.41	34359.06
668.56	34384.81
668.70	34349.70
668.84	34345.02
668.98	34103.95
669.12	33804.36
669.26	34281.83
669.40	33912.02
669.54	33851.17
669.68	33940.11
669.82	33841.81
669.96	33495.41
670.10	33366.68
670.25	33872.23
670.39	33448.60
670.53	33226.24
670.67	33060.07
670.81	33621.80
670.95	33626.48
671.09	33053.05
671.23	33200.50
671.37	33291.78
671.51	32826.01
671.65	32767.50
671.79	32369.61
671.93	32606.00
672.07	33003.89
672.21	32856.44
672.35	32425.78
672.49	32528.77
672.63	32378.97
672.77	32601.32
672.91	32912.61
673.05	32470.25
673.19	32390.67
673.33	31969.38
673.47	31955.33
673.61	32133.21
673.75	31854.69
673.89	31924.91
674.03	31608.93
674.17	31578.51
674.31	32041.93
674.45	32226.84
674.59	31999.80
674.73	31814.90
674.87	31852.35
675.01	31388.92
675.15	31189.98
675.29	31264.88
675.43	31096.36
675.56	31119.76
675.70	31414.67
675.84	30864.64
675.98	30171.85
676.12	31253.17
676.26	30756.98
676.40	30764.00
676.54	30576.76
676.68	30661.02
676.82	29851.19
676.96	30410.58
677.10	30401.22
677.23	30396.54
677.37	30368.45
677.51	30080.56
677.65	29951.84
677.79	29624.16
677.93	30251.42
678.07	29652.25
678.21	29563.31
678.34	29301.17
678.48	29273.08
678.62	29097.54
678.76	28893.91
678.90	28741.78
679.04	28933.70
679.18	28793.27
679.31	28271.33
679.45	28533.47
679.59	28107.49
679.73	28343.89
679.87	28599.01
680.00	28360.27
680.14	28151.96
680.28	28072.39
680.42	28004.51
680.56	28254.95
680.70	27950.68
680.83	27831.31
680.97	27950.68
681.11	27903.87
681.25	27871.10
681.39	27440.44
681.52	27611.30
681.66	27391.29
681.80	27276.60
681.94	27061.27
682.07	27166.60
682.21	27246.18
682.35	26904.46
682.49	26897.44
682.62	27016.80
682.76	26628.27
682.90	26651.68
683.04	26635.30
683.17	26380.18
683.31	26122.72
683.45	26111.02
683.59	26015.05
683.72	25830.15
683.86	25858.24
684.00	26059.52
684.13	25692.06
684.27	25949.52
684.41	25682.70
684.55	25605.46
684.68	25436.94
684.82	25502.48
684.96	25497.80
685.09	25156.08
685.23	25429.92
685.37	25195.87
685.50	25184.16
685.64	24900.96
685.78	24861.17
685.91	24713.72
686.05	24755.85
686.19	24374.34
686.32	24362.64
686.46	24044.32
686.60	23749.42
686.73	23515.36
686.87	23634.73
687.01	23569.19
687.14	23351.52
687.28	23463.87
687.42	23611.32
687.55	23285.99
687.69	23515.36
687.82	22953.63
687.96	23421.74
688.10	23173.64
688.23	23403.02
688.37	22794.48
688.50	22796.82
688.64	22787.46
688.78	22693.83
688.91	22546.38
689.05	22632.98
689.18	22735.96
689.32	22031.46
689.46	22338.07
689.59	22506.59
689.73	22192.96
689.86	21979.97
690.00	22085.30
690.13	22071.25
690.27	21986.99
690.41	21895.71
690.54	21429.94
690.68	21642.93
690.81	21661.66
690.95	21336.32
691.08	21488.46
691.22	21472.07
691.35	21326.96
691.49	21118.65
691.62	21387.82
691.76	21008.65
691.89	20898.64
692.03	20819.07
692.16	20531.18
692.30	21055.46
692.43	20313.51
692.57	20465.64
692.70	20446.92
692.84	20470.33
692.97	20264.36
693.11	19999.88
693.24	20042.01
693.38	19913.28
693.51	19915.62
693.65	19847.74
693.78	20098.18
693.92	19845.40
694.05	19700.29
694.19	19817.32
694.32	19583.26
694.45	19531.77
694.59	19103.45
694.72	18953.66
694.86	19604.33
694.99	19159.63
695.13	19159.63
695.26	18939.62
695.39	18836.63
695.53	18834.29
695.66	18958.34
695.80	19058.98
695.93	18759.39
696.07	18530.02
696.20	18436.40
696.33	18391.93
696.47	18579.17
696.60	18508.96
696.73	18031.49
696.87	17853.61
697.00	18087.66
697.14	17867.65
697.27	18022.12
697.40	17785.73
697.54	17848.93
697.67	17551.68
697.80	17495.50
697.94	17254.43
698.07	17476.78
698.21	17315.28
698.34	17483.80
698.47	17174.85
698.61	16631.85
698.74	17114.00
698.87	16807.39
699.01	16538.23
699.14	16734.83
699.27	16685.68
699.40	16365.03
699.54	16374.39
699.67	16451.63
699.80	16355.66
699.94	16435.24
700.07	15995.22
700.20	16156.72
700.34	16243.32
700.47	16133.31
700.60	16343.96
700.73	16013.95
700.87	15974.16
701.00	15697.97
701.13	15946.07
701.26	15646.48
701.40	15529.45
701.53	15452.22
701.66	15672.23
701.79	15473.28
701.93	15297.74
702.06	15487.32
702.19	15007.52
702.32	15091.77
702.46	14794.53
702.59	14932.62
702.72	15152.63
702.85	15243.91
702.99	14953.68
703.12	14721.97
703.25	14415.36
703.38	14569.83
703.51	14363.87
703.65	14499.62
703.78	14518.34
703.91	14232.80
704.04	14349.82
704.17	14176.62
704.31	14127.47
704.44	14120.45
704.57	13954.27
704.70	13977.68
704.83	13963.64
704.96	13991.72
705.10	13722.56
705.23	13741.29
>>>>>End Processed Spectral Data<<<<<
