SpectraSuite Data File
++++++++++++++++++++++++++++++++++++
Date: Fri Oct 25 11:34:30 EDT 2013
User: price-jones
Dark Spectrum Present: No
Reference Spectrum Present: No
Number of Sampled Component Spectra: 1
Spectrometers: USB2+H05261
Integration Time (usec): 100000 (USB2+H05261)
Spectra Averaged: 1 (USB2+H05261)
Boxcar Smoothing: 0 (USB2+H05261)
Correct for Electrical Dark: No (USB2+H05261)
Strobe/Lamp Enabled: No (USB2+H05261)
Correct for Detector Non-linearity: No (USB2+H05261)
Correct for Stray Light: No (USB2+H05261)
Number of Pixels in Processed Spectrum: 2048
>>>>>Begin Processed Spectral Data<<<<<
365.73	304.27
365.92	304.27
366.12	304.27
366.32	140.43
366.52	156.82
366.72	166.18
366.91	189.58
367.11	166.18
367.31	159.16
367.51	168.52
367.70	196.60
367.90	217.67
368.10	163.84
368.30	203.63
368.49	126.39
368.69	175.54
368.89	182.56
369.09	201.29
369.28	215.33
369.48	229.37
369.68	222.35
369.87	203.63
370.07	234.05
370.27	313.63
370.47	383.85
370.66	484.49
370.86	472.79
371.06	582.79
371.25	468.11
371.45	543.00
371.65	547.69
371.84	521.94
372.04	498.53
372.24	561.73
372.44	554.71
372.63	535.98
372.83	624.92
373.03	631.94
373.22	578.11
373.42	641.31
373.62	545.34
373.81	601.52
374.01	634.29
374.21	631.94
374.40	634.29
374.60	650.67
374.79	657.69
374.99	678.76
375.19	645.99
375.38	601.52
375.58	587.47
375.78	657.69
375.97	603.86
376.17	643.65
376.37	613.22
376.56	575.77
376.76	667.05
376.95	690.46
377.15	669.39
377.35	730.25
377.54	704.50
377.74	690.46
377.93	685.78
378.13	624.92
378.33	711.52
378.52	727.91
378.72	734.93
378.91	748.97
379.11	667.05
379.31	732.59
379.50	704.50
379.70	685.78
379.89	638.97
380.09	734.93
380.28	648.33
380.48	772.38
380.68	692.80
380.87	751.31
381.07	744.29
381.26	793.44
381.46	784.08
381.65	751.31
381.85	779.40
382.04	777.06
382.24	718.54
382.43	767.70
382.63	706.84
382.83	755.99
383.02	772.38
383.22	826.21
383.41	798.12
383.61	755.99
383.80	788.76
384.00	816.85
384.19	758.33
384.39	784.08
384.58	753.65
384.78	802.80
384.97	770.04
385.17	816.85
385.36	723.23
385.56	798.12
385.75	844.93
385.95	809.83
386.14	823.87
386.34	875.36
386.53	849.61
386.72	763.01
386.92	917.49
387.11	873.02
387.31	912.81
387.50	847.27
387.70	821.53
387.89	898.77
388.09	896.43
388.28	866.00
388.48	866.00
388.67	945.58
388.86	856.64
389.06	861.32
389.25	894.08
389.45	917.49
389.64	915.15
389.84	898.77
390.03	950.26
390.22	968.98
390.42	926.85
390.61	926.85
390.81	903.45
391.00	976.00
391.19	1025.15
391.39	957.28
391.58	987.71
391.78	968.98
391.97	926.85
392.16	922.17
392.36	1008.77
392.55	1032.18
392.75	1027.50
392.94	1041.54
393.13	1130.48
393.33	954.94
393.52	1067.28
393.71	1001.75
393.91	1022.81
394.10	1076.65
394.29	1050.90
394.49	1095.37
394.68	1128.14
394.88	1111.75
395.07	1025.15
395.26	1074.31
395.46	1172.61
395.65	1160.91
395.84	1088.35
396.04	1177.29
396.23	1156.22
396.42	1186.65
396.62	1179.63
396.81	1254.53
397.00	1121.12
397.19	1139.84
397.39	1128.14
397.58	1172.61
397.77	1214.74
397.97	1179.63
398.16	1174.95
398.35	1263.89
398.55	1104.73
398.74	1252.19
398.93	1371.55
399.12	1308.36
399.32	1364.53
399.51	1217.08
399.70	1296.66
399.90	1355.17
400.09	1294.32
400.28	1289.64
400.47	1268.57
400.67	1366.87
400.86	1378.58
401.05	1362.19
401.24	1404.32
401.44	1376.24
401.63	1401.98
401.82	1350.49
402.01	1357.51
402.21	1439.43
402.40	1453.47
402.59	1432.41
402.78	1401.98
402.97	1507.30
403.17	1479.22
403.36	1444.11
403.55	1516.67
403.74	1460.49
403.93	1458.15
404.13	1533.05
404.32	1483.90
404.51	1514.33
404.70	1479.22
404.89	1507.30
405.09	1692.21
405.28	1638.38
405.47	1528.37
405.66	1645.40
405.85	1687.53
406.05	1554.12
406.24	1694.55
406.43	1579.86
406.62	1666.46
406.81	1692.21
407.00	1722.63
407.20	1666.46
407.39	1809.23
407.58	1820.94
407.77	1818.60
407.96	1769.44
408.15	1881.79
408.34	1736.68
408.54	1774.13
408.73	1870.09
408.92	1891.15
409.11	1895.83
409.30	1842.00
409.49	1952.01
409.68	1891.15
409.87	1966.05
410.07	1870.09
410.26	1872.43
410.45	1909.88
410.64	1966.05
410.83	2008.18
411.02	2099.46
411.21	2162.66
411.40	2136.91
411.59	2062.01
411.78	2054.99
411.98	2066.69
412.17	2207.13
412.36	2162.66
412.55	2333.51
412.74	2253.94
412.93	2251.60
413.12	2193.08
413.31	2345.22
413.50	2392.03
413.69	2310.11
413.88	2335.85
414.07	2420.11
414.26	2427.14
414.45	2455.22
414.64	2438.84
414.83	2483.31
415.02	2483.31
415.22	2537.14
415.41	2588.63
415.60	2523.10
415.79	2555.86
415.98	2621.40
416.17	2754.81
416.36	2635.44
416.55	2588.63
416.74	2600.34
416.93	2663.53
417.12	2600.34
417.31	2644.81
417.50	2761.83
417.69	2785.24
417.88	2818.00
418.07	2700.98
418.26	2902.26
418.45	2892.90
418.64	3021.63
418.83	2745.45
419.02	2906.95
419.21	2878.86
419.39	3080.14
419.58	2911.63
419.77	2979.50
419.96	3042.70
420.15	3159.72
420.34	3089.51
420.53	2977.16
420.72	3005.25
420.91	3152.70
421.10	3096.53
421.29	3171.43
421.48	3023.97
421.67	3164.40
421.86	3169.09
422.05	3068.44
422.24	3103.55
422.43	3087.17
422.61	3236.96
422.80	3314.20
422.99	3225.26
423.18	3272.07
423.37	3253.34
423.56	3265.05
423.75	3283.77
423.94	3246.32
424.13	3049.72
424.32	3042.70
424.50	3260.37
424.69	3379.73
424.88	3318.88
425.07	3309.52
425.26	3243.98
425.45	3300.16
425.64	3206.53
425.83	3272.07
426.01	3356.33
426.20	3295.47
426.39	3342.28
426.58	3382.07
426.77	3353.99
426.96	3438.25
427.15	3403.14
427.33	3393.78
427.52	3325.90
427.71	3524.85
427.90	3562.30
428.09	3578.68
428.28	3571.66
428.46	3599.74
428.65	3602.08
428.84	3705.07
429.03	3559.95
429.22	3562.30
429.40	3574.00
429.59	3566.98
429.78	3445.27
429.97	3562.30
430.16	3630.17
430.34	3632.51
430.53	3660.60
430.72	3721.45
430.91	3733.15
431.10	3775.28
431.28	3854.86
431.47	3688.68
431.66	3882.95
431.85	3730.81
432.03	3747.20
432.22	3985.93
432.41	3941.46
432.60	3913.38
432.79	3882.95
432.97	3920.40
433.16	3974.23
433.35	3815.07
433.54	4117.00
433.72	4018.70
433.91	3995.29
434.10	4081.89
434.28	3920.40
434.47	4037.42
434.66	4177.86
434.85	4124.02
435.03	4014.02
435.22	4145.09
435.41	4109.98
435.59	4154.45
435.78	4229.35
435.97	4311.27
436.16	4257.43
436.34	4091.26
436.53	4292.54
436.72	4292.54
436.90	4177.86
437.09	4229.35
437.28	4224.67
437.46	4297.22
437.65	4292.54
437.84	4325.31
438.02	4550.00
438.21	4299.56
438.40	4311.27
438.58	4519.57
438.77	4587.45
438.96	4510.21
439.14	4535.96
439.33	4641.28
439.52	4650.64
439.70	4660.01
439.89	4725.54
440.08	4826.18
440.26	5004.07
440.45	4828.53
440.63	4755.97
440.82	4840.23
441.01	4966.62
441.19	5020.45
441.38	5083.64
441.57	4985.34
441.75	5050.88
441.94	5102.37
442.12	5022.79
442.31	5011.09
442.50	5291.95
442.68	5193.65
442.87	5219.39
443.05	5275.57
443.24	5401.96
443.43	5336.42
443.61	5116.41
443.80	5366.85
443.98	5378.55
444.17	5093.01
444.35	5317.70
444.54	5331.74
444.73	5341.10
444.91	5460.47
445.10	5385.57
445.28	5479.19
445.47	5432.38
445.65	5364.51
445.84	5521.32
446.02	5493.24
446.21	5416.00
446.39	5420.68
446.58	5451.11
446.77	5509.62
446.95	5322.38
447.14	5533.03
447.32	5600.90
447.51	5486.22
447.69	5420.68
447.88	5516.64
448.06	5406.64
448.25	5556.43
448.43	5371.53
448.62	5577.50
448.80	5537.71
448.99	5523.66
449.17	5603.24
449.36	5544.73
449.54	5832.62
449.73	5799.85
449.91	5738.99
450.10	5722.61
450.28	5872.40
450.46	5898.15
450.65	5841.98
450.83	5956.66
451.02	6019.86
451.20	5935.60
451.39	5989.43
451.57	5987.09
451.76	5762.40
451.94	5930.92
452.13	5940.28
452.31	5856.02
452.49	5811.55
452.68	6024.54
452.86	6017.52
453.05	6282.00
453.23	5998.79
453.42	6052.63
453.60	6047.94
453.78	6202.42
453.97	6113.48
454.15	6143.91
454.34	5949.64
454.52	6174.33
454.70	6251.57
454.89	6305.40
455.07	6225.82
455.26	6457.54
455.44	6387.32
455.62	6282.00
455.81	6392.00
455.99	6640.10
456.17	6523.07
456.36	6441.15
456.54	6626.06
456.73	6635.42
456.91	6736.06
457.09	6642.44
457.28	6862.45
457.46	6569.88
457.64	6775.85
457.83	6689.25
458.01	6656.48
458.19	6820.32
458.38	6764.15
458.56	6885.86
458.74	6803.94
458.93	6810.96
459.11	6841.39
459.29	6984.16
459.48	7016.93
459.66	7133.95
459.84	6850.75
460.03	7201.83
460.21	7133.95
460.39	7049.69
460.57	7084.80
460.76	6984.16
460.94	7232.26
461.12	7178.42
461.31	7180.76
461.49	7183.10
461.67	7183.10
461.85	7234.60
462.04	7124.59
462.22	7782.28
462.40	7309.49
462.59	7543.55
462.77	7365.67
462.95	7398.43
463.13	7405.46
463.32	7513.12
463.50	7510.78
463.68	7618.44
463.86	7541.21
464.05	7405.46
464.23	7620.78
464.41	7620.78
464.59	7534.18
464.78	7538.87
464.96	7777.60
465.14	7470.99
465.32	7691.00
465.50	7639.51
465.69	7838.45
465.87	7702.70
466.05	7925.05
466.23	7581.00
466.41	7707.38
466.60	7922.71
466.78	7716.75
466.96	7955.48
467.14	8013.99
467.32	7840.79
467.51	8037.40
467.69	7805.69
467.87	8032.72
468.05	8021.02
468.23	7768.24
468.41	8121.66
468.60	8021.02
468.78	8147.40
468.96	8063.15
469.14	8308.90
469.32	8299.54
469.50	8056.12
469.69	8418.91
469.87	8416.57
470.05	8257.41
470.23	8400.18
470.41	8332.31
470.59	8365.07
470.77	8355.71
470.95	8554.66
471.14	8564.02
471.32	8325.29
471.50	8622.53
471.68	8498.49
471.86	8667.00
472.04	8690.41
472.22	8842.54
472.40	8746.58
472.58	8926.80
472.77	9142.13
472.95	8943.19
473.13	9249.80
473.31	8877.65
473.49	9146.81
473.67	9029.79
473.85	9132.77
474.03	9195.96
474.21	9226.39
474.39	9315.33
474.57	9130.43
474.75	9638.33
474.93	9692.16
475.12	9308.31
475.30	9561.09
475.48	9575.13
475.66	9626.62
475.84	9633.64
476.02	9853.66
476.20	9692.16
476.38	9921.53
476.56	10057.28
476.74	10012.81
476.92	9816.21
477.10	9879.40
477.28	10068.98
477.46	10216.44
477.64	10345.17
477.82	10373.25
478.00	10700.93
478.18	10567.52
478.36	10871.79
478.54	10850.72
478.72	10698.59
478.90	10785.19
479.08	11126.91
479.26	11286.06
479.44	11243.93
479.62	11140.95
479.80	11250.96
479.98	11314.15
480.16	11613.74
480.34	11648.85
480.52	11782.26
480.70	11768.21
480.88	11440.54
481.06	11690.98
481.24	11822.05
481.41	11995.25
481.59	12273.77
481.77	12524.21
481.95	12145.04
482.13	12236.32
482.31	12093.55
482.49	12716.13
482.67	12769.96
482.85	12704.43
483.03	12868.27
483.21	13060.19
483.39	13022.74
483.57	13018.06
483.74	13121.04
483.92	13256.79
484.10	13149.13
484.28	13523.62
484.46	13767.03
484.64	13839.59
484.82	13692.13
485.00	14097.05
485.18	14195.35
485.35	14478.55
485.53	14059.60
485.71	14544.09
485.89	14897.51
486.07	14593.24
486.25	14618.99
486.43	14663.46
486.61	15154.97
486.78	15215.82
486.96	15021.56
487.14	15492.01
487.32	15531.80
487.50	15564.56
487.68	15445.20
487.85	15873.51
488.03	15941.39
488.21	16184.80
488.39	15995.22
488.57	16339.28
488.75	16545.25
488.92	16666.95
489.10	16659.93
489.28	16650.57
489.46	16549.93
489.64	16854.20
489.81	17167.83
489.99	17525.93
490.17	17383.16
490.35	17355.07
490.53	17668.70
490.70	17874.67
490.88	17453.37
491.06	17980.00
491.24	18068.94
491.41	18033.83
491.59	18162.56
491.77	18342.78
491.95	18445.76
492.13	18754.71
492.30	18747.69
492.48	18895.14
492.66	18808.54
492.84	19040.26
493.01	19063.66
493.19	19276.65
493.37	19440.49
493.54	19438.15
493.72	19587.94
493.90	19613.69
494.08	19709.65
494.25	19889.87
494.43	19651.14
494.61	20355.64
494.79	20121.59
494.96	20116.90
495.14	20383.73
495.32	20423.51
495.49	20884.60
495.67	20659.91
495.85	21273.13
496.02	20950.14
496.20	21172.49
496.38	21441.65
496.55	21514.20
496.73	21731.87
496.91	21823.16
497.09	21687.40
497.26	21888.69
497.44	21617.19
497.62	21972.95
497.79	22317.01
497.97	22120.40
498.14	22501.91
498.32	22410.63
498.50	22852.99
498.67	22834.27
498.85	22558.08
499.03	22869.37
499.20	22888.10
499.38	23049.60
499.56	23161.94
499.73	23262.58
499.91	23215.77
500.08	23639.41
500.26	23108.11
500.44	23269.61
500.61	23754.10
500.79	23377.27
500.97	23840.70
501.14	24395.40
501.32	24046.66
501.49	23847.72
501.67	24273.70
501.84	24180.07
502.02	24446.90
502.20	24156.67
502.37	24159.01
502.55	24133.26
502.72	24538.18
502.90	24842.45
503.07	24486.68
503.25	24678.61
503.43	24762.87
503.60	24973.52
503.78	25071.82
503.95	25022.67
504.13	25474.39
504.30	25364.39
504.48	25268.42
504.65	25422.90
504.83	25776.32
505.01	25811.43
505.18	25654.61
505.36	26080.59
505.53	25769.30
505.71	25982.29
505.88	26338.05
506.06	25965.90
506.23	26139.10
506.41	26047.82
506.58	26249.11
506.76	26387.20
506.93	26684.45
507.11	26792.11
507.28	26588.49
507.46	26707.85
507.63	26831.90
507.81	27028.51
507.98	26918.50
508.16	26939.57
508.33	27363.20
508.50	27307.03
508.68	27419.38
508.85	27571.51
509.03	27267.24
509.20	27580.87
509.38	28093.45
509.55	27700.24
509.73	27967.06
509.90	27763.43
510.08	28044.30
510.25	27845.35
510.42	28346.23
510.60	28390.70
510.77	28318.14
510.95	28617.73
511.12	28709.01
511.30	28350.91
511.47	28554.54
511.64	28872.85
511.82	29001.58
511.99	28762.84
512.17	29102.22
512.34	29001.58
512.51	29490.75
512.69	29432.24
512.86	29092.86
513.04	29214.57
513.21	29745.87
513.38	29500.11
513.56	29633.52
513.73	29898.00
513.90	29773.95
514.08	29640.54
514.25	30120.35
514.43	29759.91
514.60	29972.90
514.77	30281.85
514.95	30543.99
515.12	30204.61
515.29	29874.60
515.47	30459.73
515.64	30281.85
515.81	30242.06
515.99	30661.02
516.16	30801.45
516.33	30714.85
516.51	31189.98
516.68	30801.45
516.85	30869.33
517.03	30838.90
517.20	31655.75
517.37	30883.37
517.54	31487.23
517.72	31459.14
517.89	31143.17
518.06	31466.16
518.24	31325.73
518.41	31215.72
518.58	31571.49
518.75	31536.38
518.93	32070.02
519.10	31653.40
519.27	31934.27
519.45	31648.72
519.62	32245.56
519.79	31924.91
519.96	31978.74
520.14	32142.58
520.31	32102.79
520.48	32437.48
520.65	32409.40
520.83	33048.36
521.00	32954.74
521.17	32788.56
521.34	32737.07
521.52	32563.87
521.69	32957.08
521.86	32966.45
522.03	33078.79
522.20	33385.40
522.38	33249.65
522.55	33221.56
522.72	33165.39
522.89	33177.09
523.07	33558.60
523.24	33455.62
523.41	33656.90
523.58	33202.84
523.75	33858.19
523.92	33802.02
524.10	33715.42
524.27	33677.97
524.44	33773.93
524.61	34249.06
524.78	34232.68
524.96	34436.30
525.13	34455.03
525.30	34410.56
525.47	34321.62
525.64	34188.21
525.81	34314.59
525.98	34937.18
526.16	34801.43
526.33	34682.06
526.50	35007.39
526.67	34562.69
526.84	34717.17
527.01	34810.79
527.18	34962.92
527.36	35215.70
527.53	34876.32
527.70	35332.73
527.87	35049.52
528.04	34998.03
528.21	35620.61
528.38	34962.92
528.55	35440.39
528.72	35033.14
528.89	35494.22
529.07	35632.32
529.24	35367.84
529.41	35690.83
529.58	35534.01
529.75	35854.67
529.92	35756.36
530.09	35971.69
530.26	36367.24
530.43	36322.77
530.60	35665.08
530.77	36060.63
530.94	35901.48
531.11	36053.61
531.28	36023.19
531.46	36388.31
531.63	36315.75
531.80	36479.59
531.97	36250.22
532.14	36271.28
532.31	36311.07
532.48	36900.89
532.65	37219.20
532.82	36535.76
532.99	36893.86
533.16	36381.29
533.33	36650.45
533.50	36919.61
533.67	36739.39
533.84	36921.95
534.01	36935.99
534.18	36989.83
534.35	37340.91
534.52	37268.35
534.69	37413.46
534.86	37680.28
535.03	37453.25
535.20	37450.91
535.37	37366.65
535.54	37556.24
535.71	37694.33
535.88	37684.97
536.05	37771.57
536.22	37706.03
536.38	37790.29
536.55	37537.51
536.72	37949.45
536.89	37603.05
537.06	37949.45
537.23	38059.45
537.40	37563.26
537.57	37916.68
537.74	38244.35
537.91	38532.24
538.08	38202.22
538.25	37839.44
538.42	38169.46
538.59	38431.60
538.75	38281.80
538.92	38417.55
539.09	39182.91
539.26	38419.89
539.43	39028.43
539.60	38342.66
539.77	38595.43
539.94	38824.81
540.11	38911.41
540.28	38778.00
540.44	38995.67
540.61	38560.33
540.78	39009.71
540.95	38937.15
541.12	39295.25
541.29	38836.51
541.46	39438.03
541.62	39166.52
541.79	39119.71
541.96	39122.05
542.13	38726.50
542.30	39351.43
542.47	38958.22
542.63	39529.31
542.80	39702.51
542.97	39896.77
543.14	39615.91
543.31	39714.21
543.48	39636.97
543.64	40229.13
543.81	40343.81
543.98	40046.57
544.15	40215.08
544.32	40376.58
544.48	40013.80
544.65	40163.59
544.82	40404.67
544.99	40034.86
545.16	40357.86
545.32	39571.44
545.49	40971.08
545.66	40847.03
545.83	40507.65
546.00	40261.90
546.16	40849.37
546.33	40509.99
546.50	40268.92
546.67	40823.62
546.83	40528.72
547.00	40233.81
547.17	40327.43
547.34	41015.55
547.50	40795.54
547.67	41387.69
547.84	41268.33
548.00	40882.14
548.17	41638.13
548.34	40938.31
548.51	41469.61
548.67	41207.47
548.84	41118.53
549.01	41315.14
549.18	40926.61
549.34	41263.64
549.51	41343.22
549.68	41373.65
549.84	41682.60
550.01	41390.03
550.18	41031.93
550.34	41497.70
550.51	41308.11
550.68	41588.98
550.84	41078.74
551.01	41811.33
551.18	41776.22
551.34	41691.96
551.51	41780.90
551.68	41572.60
551.84	41853.46
552.01	41474.29
552.18	42092.19
552.34	41565.57
552.51	41853.46
552.68	41530.47
552.84	42043.04
553.01	42000.91
553.18	41876.86
553.34	42115.60
553.51	42293.48
553.67	42204.54
553.84	42265.39
554.01	42424.55
554.17	42490.09
554.34	42314.55
554.51	42300.50
554.67	42616.47
554.84	42419.87
555.00	42363.70
555.17	42258.37
555.33	42618.81
555.50	42593.07
555.67	42518.17
555.83	42707.76
556.00	43002.66
556.16	43416.94
556.33	42438.59
556.50	42665.63
556.66	42815.42
556.83	42363.70
556.99	43112.67
557.16	43028.41
557.32	43042.45
557.49	43344.38
557.65	42990.96
557.82	42983.94
557.98	42878.61
558.15	43058.84
558.32	42967.55
558.48	42808.40
558.65	43037.77
558.81	43178.20
558.98	42981.60
559.14	43328.00
559.31	42897.34
559.47	43452.05
559.64	42972.24
559.80	43449.70
559.97	43508.22
560.13	43140.75
560.30	43758.66
560.46	43454.39
560.63	43704.82
560.79	44044.20
560.96	43751.63
561.12	43737.59
561.29	43838.23
561.45	43540.99
561.61	43498.86
561.78	43398.21
561.94	43430.98
562.11	43573.75
562.27	43643.97
562.44	43681.42
562.60	43924.83
562.77	44065.27
562.93	43548.01
563.10	44116.76
563.26	43435.66
563.42	44479.54
563.59	43768.02
563.75	43945.90
563.92	43487.15
564.08	43648.65
564.24	43957.60
564.41	43976.33
564.57	43906.11
564.74	44067.61
564.90	43866.32
565.07	43723.55
565.23	43686.10
565.39	43913.13
565.56	44156.55
565.72	43988.03
565.88	44123.78
566.05	43927.17
566.21	43875.68
566.38	44421.03
566.54	44254.85
566.70	44439.75
566.87	44004.41
567.03	43711.84
567.19	44311.02
567.36	44140.16
567.52	44025.48
567.68	44505.29
567.85	44334.43
568.01	44327.41
568.17	44226.76
568.34	44458.48
568.50	44325.07
568.66	44390.60
568.83	44240.81
568.99	44463.16
569.15	44252.51
569.32	44296.98
569.48	43789.08
569.64	44919.56
569.81	44467.84
569.97	44802.53
570.13	44638.70
570.30	44105.06
570.46	44442.09
570.62	44706.57
570.78	44608.27
570.95	44268.89
571.11	45038.93
571.27	44416.35
571.43	44474.86
571.60	44917.22
571.76	44594.23
571.92	44694.87
572.09	44390.60
572.25	44568.48
572.41	44177.61
572.57	45078.72
572.74	44772.11
572.90	44332.09
573.06	44680.83
573.22	44708.91
573.38	45352.56
573.55	44996.80
573.71	45029.57
573.87	45352.56
574.03	44823.60
574.20	44931.26
574.36	44713.59
574.52	45382.99
574.68	44837.64
574.84	45095.10
575.01	45179.36
575.17	44994.46
575.33	44748.70
575.49	44732.32
575.65	45050.63
575.82	44996.80
575.98	44587.21
576.14	45148.93
576.30	45336.18
576.46	44610.61
576.62	45099.78
576.79	45041.27
576.95	44809.56
577.11	44449.11
577.27	45132.55
577.43	44996.80
577.59	44992.12
577.75	44704.23
577.92	44666.78
578.08	44868.07
578.24	45216.81
578.40	45593.64
578.56	44884.45
578.72	44992.12
578.88	45237.87
579.04	44842.32
579.21	44748.70
579.37	44734.66
579.53	45233.19
579.69	44924.24
579.85	44783.81
580.01	44849.35
580.17	44634.02
580.33	45317.45
580.49	45027.23
580.65	44872.75
580.82	45134.89
580.98	44949.99
581.14	44580.18
581.30	44882.11
581.46	45446.18
581.62	44786.15
581.78	45071.70
581.94	45174.68
582.10	44985.10
582.26	45301.07
582.42	45258.94
582.58	44917.22
582.74	45223.83
582.90	45280.00
583.06	45104.46
583.22	44921.90
583.38	45427.46
583.54	45811.31
583.70	45123.19
583.86	45581.93
584.02	44949.99
584.18	45474.27
584.34	45525.76
584.50	45535.12
584.66	45687.26
584.82	45666.19
584.98	45460.23
585.14	45563.21
585.30	45249.58
585.46	45078.72
585.62	45315.11
585.78	45296.39
585.94	45130.21
586.10	45160.64
586.26	44856.37
586.42	44725.30
586.58	45336.18
586.74	45401.71
586.90	45228.51
587.06	45441.50
587.22	45607.68
587.38	45453.20
587.54	45394.69
587.70	45581.93
587.86	45490.65
588.02	45591.30
588.18	45146.59
588.34	45195.74
588.49	45333.84
588.65	45141.91
588.81	45354.90
588.97	45340.86
589.13	45041.27
589.29	45399.37
589.45	45289.37
589.61	45851.09
589.77	45352.56
589.93	45691.94
590.08	45666.19
590.24	45708.32
590.40	45603.00
590.56	46113.23
590.72	46047.70
590.88	45598.32
591.04	45324.47
591.20	45722.37
591.35	45879.18
591.51	45879.18
591.67	45574.91
591.83	45832.37
591.99	46066.42
592.15	45773.86
592.31	45801.94
592.46	45525.76
592.62	45874.50
592.78	46064.08
592.94	46059.40
593.10	46188.13
593.26	46138.98
593.41	45921.31
593.57	45879.18
593.73	45710.66
593.89	46234.94
594.05	46043.02
594.20	46031.32
594.36	46171.75
594.52	46043.02
594.68	46117.92
594.84	45607.68
594.99	46396.44
595.15	46078.13
595.31	46270.05
595.47	46066.42
595.62	45904.93
595.78	46057.06
595.94	45785.56
596.10	46167.07
596.25	46150.68
596.41	45855.78
596.57	45923.65
596.73	46258.35
596.88	46124.94
597.04	46192.81
597.20	46167.07
597.36	45766.84
597.51	45951.74
597.67	45457.88
597.83	45825.35
597.99	46073.45
598.14	46059.40
598.30	46185.79
598.46	46141.32
598.61	46227.92
598.77	45918.97
598.93	46033.66
599.09	46167.07
599.24	46185.79
599.40	45823.01
599.56	46153.02
599.71	46354.31
599.87	46761.56
600.03	46698.37
600.18	46656.24
600.34	46178.77
600.50	46000.89
600.65	46061.74
600.81	46272.39
600.97	45986.85
601.12	46483.04
601.28	46316.86
601.44	46256.01
601.59	46124.94
601.75	46326.22
601.91	46377.72
602.06	46405.80
602.22	46461.97
602.37	46218.56
602.53	46047.70
602.69	46438.57
602.84	45914.29
603.00	46270.05
603.16	45516.40
603.31	46052.38
603.47	45928.33
603.62	46267.71
603.78	46742.84
603.94	46164.73
604.09	46457.29
604.25	46480.70
604.40	46422.19
604.56	46241.96
604.71	46291.12
604.87	45757.47
605.03	45797.26
605.18	45972.80
605.34	46017.27
605.49	45743.43
605.65	45972.80
605.80	46096.85
605.96	45902.59
606.12	45797.26
606.27	46127.28
606.43	45750.45
606.58	46485.38
606.74	45673.21
606.89	45659.17
607.05	45883.86
607.20	46195.15
607.36	45881.52
607.51	45958.76
607.67	45837.05
607.82	45680.24
607.98	45834.71
608.13	45813.65
608.29	45675.55
608.44	46000.89
608.60	45853.44
608.75	46103.87
608.91	45848.75
609.06	45507.04
609.22	45708.32
609.37	45663.85
609.53	45989.19
609.68	46066.42
609.84	46101.53
609.99	45897.91
610.15	45914.29
610.30	46213.88
610.46	45544.48
610.61	45811.31
610.76	45874.50
610.92	45762.15
611.07	45663.85
611.23	45404.05
611.38	45757.47
611.54	45668.53
611.69	45951.74
611.84	45876.84
612.00	45607.68
612.15	45610.02
612.31	45787.90
612.46	45104.46
612.62	45371.28
612.77	45317.45
612.92	46024.29
613.08	45563.21
613.23	45738.75
613.39	45514.06
613.54	45591.30
613.69	45947.06
613.85	45443.84
614.00	45294.05
614.15	45577.25
614.31	44961.69
614.46	45528.10
614.62	45397.03
614.77	45537.46
614.92	45488.31
615.08	45186.38
615.23	45448.52
615.38	45406.39
615.54	45345.54
615.69	45528.10
615.84	45408.73
616.00	45628.74
616.15	45703.64
616.30	45670.87
616.46	45474.27
616.61	45326.81
616.76	45265.96
616.92	45013.18
617.07	44987.44
617.22	45275.32
617.37	45015.52
617.53	45177.02
617.68	45174.68
617.83	45233.19
617.99	45598.32
618.14	45151.27
618.29	44959.35
618.45	45001.48
618.60	44982.76
618.75	44692.53
618.90	44961.69
619.06	44666.78
619.21	44893.82
619.36	44788.49
619.51	44898.50
619.67	44910.20
619.82	44910.20
619.97	44952.33
620.12	44816.58
620.28	44849.35
620.43	44924.24
620.58	45148.93
620.73	45294.05
620.89	45008.50
621.04	45359.58
621.19	44521.67
621.34	44821.26
621.49	44699.55
621.65	44786.15
621.80	45170.00
621.95	44737.00
622.10	44575.50
622.25	44706.57
622.41	44526.35
622.56	44800.19
622.71	44430.39
622.86	44554.44
623.01	44467.84
623.16	44423.37
623.32	44542.74
623.47	44397.62
623.62	44542.74
623.77	44732.32
623.92	44687.85
624.07	44664.44
624.23	44292.30
624.38	44399.96
624.53	44336.77
624.68	43854.62
624.83	44477.20
624.98	44545.08
625.13	43896.75
625.29	44313.36
625.44	44053.56
625.59	44079.31
625.74	43938.88
625.89	44163.57
626.04	43690.78
626.19	44184.63
626.34	43723.55
626.49	43538.65
626.65	43466.09
626.80	43746.95
626.95	43508.22
627.10	43257.78
627.25	43962.28
627.40	43931.86
627.55	43728.23
627.70	43648.65
627.85	43655.67
628.00	43440.34
628.15	43473.11
628.30	43632.27
628.45	43168.84
628.60	43473.11
628.76	43381.83
628.91	43737.59
629.06	43147.78
629.21	42904.36
629.36	43217.99
629.51	43290.55
629.66	43428.64
629.81	43863.98
629.96	43498.86
630.11	43377.15
630.26	42738.18
630.41	43178.20
630.56	42967.55
630.71	43306.93
630.86	43690.78
631.01	43002.66
631.16	42775.63
631.31	42749.88
631.46	42906.70
631.61	43239.06
631.76	43040.11
631.91	43112.67
632.06	43613.54
632.21	43346.72
632.36	43367.79
632.51	42394.12
632.66	43196.93
632.81	42684.35
632.96	42852.87
633.10	43098.62
633.25	42686.69
633.40	42740.52
633.55	43115.01
633.70	43000.32
633.85	42869.25
634.00	42916.06
634.15	42696.05
634.30	42480.72
634.45	42735.84
634.60	42855.21
634.75	42712.44
634.90	42632.86
635.05	42515.83
635.19	42976.92
635.34	42934.79
635.49	42501.79
635.64	42597.75
635.79	42363.70
635.94	42333.27
636.09	42651.58
636.24	42174.11
636.39	42199.86
636.53	42403.49
636.68	42157.73
636.83	41998.57
636.98	42225.60
637.13	42316.89
637.28	42064.11
637.43	41951.76
637.57	42557.96
637.72	41715.37
637.87	42160.07
638.02	42010.28
638.17	41867.50
638.32	41907.29
638.46	41881.55
638.61	41883.89
638.76	42120.28
638.91	41645.15
639.06	41642.81
639.20	41731.75
639.35	41804.31
639.50	41640.47
639.65	41724.73
639.80	41832.39
639.94	42012.62
640.09	41926.02
640.24	41921.34
640.39	41258.96
640.54	41385.35
640.68	41876.86
640.83	41483.66
640.98	41811.33
641.13	41392.37
641.27	41907.29
641.42	41027.25
641.57	41404.08
641.72	41345.56
641.86	41167.68
642.01	41158.32
642.16	41488.34
642.31	41177.04
642.45	41354.93
642.60	41296.41
642.75	40751.07
642.90	41207.47
643.04	40861.07
643.19	41008.53
643.34	41268.33
643.48	40591.91
643.63	41158.32
643.78	41350.24
643.93	41116.19
644.07	41600.68
644.22	40952.35
644.37	40928.95
644.51	41193.43
644.66	41319.82
644.81	41048.32
644.95	40711.28
645.10	40832.99
645.25	40477.22
645.39	40685.53
645.54	40346.15
645.69	40472.54
645.83	40329.77
645.98	40411.69
646.13	40479.57
646.27	40526.38
646.42	40500.63
646.57	40521.69
646.71	40854.05
646.86	40811.92
647.00	40708.94
647.15	40912.56
647.30	40636.38
647.44	40247.85
647.59	40531.06
647.74	40402.33
647.88	40278.28
648.03	40692.55
648.17	40971.08
648.32	40327.43
648.47	40414.03
648.61	40524.04
648.76	40402.33
648.90	40004.44
649.05	39908.47
649.20	40184.66
649.34	40704.26
649.49	40673.83
649.63	40491.27
649.78	40664.47
649.92	40744.05
650.07	40374.24
650.21	40212.74
650.36	40371.90
650.51	40259.55
650.65	40439.78
650.80	40137.85
650.94	40243.17
651.09	39725.91
651.23	39828.90
651.38	40364.88
651.52	39395.90
651.67	40205.72
651.81	39683.78
651.96	40018.48
652.10	39552.71
652.25	39562.08
652.39	39770.38
652.54	39838.26
652.68	39690.80
652.83	39594.84
652.97	40100.40
653.12	39618.25
653.26	39601.86
653.41	39496.54
653.55	39643.99
653.70	39653.36
653.84	39601.86
653.99	39768.04
654.13	39672.08
654.27	39480.16
654.42	39353.77
654.56	38960.56
654.71	39700.17
654.85	38998.01
655.00	39728.25
655.14	39700.17
655.29	39274.19
655.43	39363.13
655.57	39299.94
655.72	38775.66
655.86	38766.29
656.01	38890.34
656.15	38625.86
656.30	38848.21
656.44	39358.45
656.58	39262.49
656.73	38990.98
656.87	38307.55
657.01	38607.14
657.16	39133.76
657.30	38817.78
657.45	39175.89
657.59	38649.27
657.73	38902.04
657.88	38803.74
658.02	38869.28
658.16	38981.62
658.31	39037.80
658.45	38852.89
658.60	38099.24
658.74	38569.69
658.88	38745.23
659.03	38314.57
659.17	38562.67
659.31	38340.32
659.46	38312.23
659.60	38143.71
659.74	38141.37
659.89	37858.17
660.03	37860.51
660.17	38160.09
660.32	38314.57
660.46	38087.54
660.60	38010.30
660.74	37596.03
660.89	38092.22
661.03	37460.27
661.17	37371.33
661.32	37670.92
661.46	37998.60
661.60	38244.35
661.74	37350.27
661.89	37453.25
662.03	37949.45
662.17	37048.34
662.31	36926.63
662.46	37902.64
662.60	37188.77
662.74	37034.30
662.88	37614.75
663.03	36975.78
663.17	36786.20
663.31	37022.59
663.45	36797.90
663.60	37163.03
663.74	36797.90
663.88	36898.55
664.02	36699.60
664.17	37310.48
664.31	36273.62
664.45	36266.60
664.59	36823.65
664.73	36753.43
664.88	36535.76
665.02	36350.86
665.16	36505.34
665.30	36830.67
665.44	36554.49
665.59	36144.89
665.73	36013.82
665.87	35693.17
666.01	36041.91
666.15	35913.18
666.29	35957.65
666.44	36301.71
666.58	36308.73
666.72	35791.47
666.86	35789.13
667.00	36081.70
667.14	35473.16
667.28	35798.49
667.43	36163.62
667.57	35754.02
667.71	35442.73
667.85	35505.93
667.99	35693.17
668.13	35012.07
668.27	35222.72
668.41	34862.28
668.56	34675.04
668.70	34951.22
668.84	34864.62
668.98	34775.68
669.12	34782.70
669.26	34979.31
669.40	34766.32
669.54	34712.49
669.68	34871.64
669.82	34595.46
669.96	34157.78
670.10	34541.63
670.25	34389.49
670.39	34354.38
670.53	34235.02
670.67	34064.16
670.81	34363.75
670.95	33933.09
671.09	34476.09
671.23	33787.97
671.37	34050.11
671.51	33397.10
671.65	33827.76
671.79	33792.65
671.93	33778.61
672.07	33507.11
672.21	33556.26
672.35	33354.97
672.49	33570.30
672.63	33577.33
672.77	33490.73
672.91	33542.22
673.05	32975.81
673.19	32568.55
673.33	32933.68
673.47	33095.18
673.61	32912.61
673.75	32547.49
673.89	32173.00
674.03	32477.27
674.17	32137.90
674.31	32556.85
674.45	32058.32
674.59	32041.93
674.73	32393.01
674.87	32238.54
675.01	31934.27
675.15	31924.91
675.29	31601.91
675.43	31665.11
675.56	31761.07
675.70	31838.31
675.84	31461.48
675.98	30815.49
676.12	31683.83
676.26	31454.46
676.40	31220.41
676.54	31117.42
676.68	31365.52
676.82	30426.96
676.96	31171.25
677.10	30705.49
677.23	30998.06
677.37	30836.56
677.51	30511.22
677.65	30567.40
677.79	30555.69
677.93	30010.35
678.07	30045.46
678.21	30162.48
678.34	30338.02
678.48	29837.15
678.62	29699.06
678.76	29890.98
678.90	29582.03
679.04	29509.47
679.18	29696.72
679.31	29415.85
679.45	29371.38
679.59	29104.56
679.73	28973.49
679.87	29240.31
680.00	28854.12
680.14	28603.69
680.28	28842.42
680.42	28634.11
680.56	28741.78
680.70	28474.96
680.83	28268.99
680.97	28058.34
681.11	28552.20
681.25	28175.37
681.39	27793.86
681.52	28070.04
681.66	27393.63
681.80	27351.50
681.94	27199.37
682.07	27077.66
682.21	27323.41
682.35	27009.78
682.49	27180.64
682.62	26946.59
682.76	27274.26
682.90	27133.83
683.04	27122.13
683.17	26380.18
683.31	26429.33
683.45	26532.31
683.59	26157.83
683.72	26272.51
683.86	26525.29
684.00	26309.96
684.13	26171.87
684.27	25521.20
684.41	25909.73
684.55	25834.83
684.68	25406.52
684.82	25750.57
684.96	25291.83
685.09	25530.56
685.23	25301.19
685.37	25692.06
685.50	25392.47
685.64	25481.41
685.78	25235.66
685.91	25298.85
686.05	24442.21
686.19	23833.68
686.32	24432.85
686.46	23995.17
686.60	24409.45
686.73	24421.15
686.87	24318.17
687.01	24381.36
687.14	24315.83
687.28	24086.45
687.42	24020.92
687.55	23915.59
687.69	23871.12
687.82	23585.58
687.96	23646.43
688.10	23597.28
688.23	23538.77
688.37	24037.30
688.50	23419.40
688.64	23358.55
688.78	23379.61
688.91	23220.45
689.05	22953.63
689.18	22906.82
689.32	22558.08
689.46	22719.58
689.59	22789.80
689.73	22670.43
689.86	22843.63
690.00	22635.32
690.13	22347.44
690.27	22157.85
690.41	22373.18
690.54	21750.60
690.68	22029.12
690.81	21710.81
690.95	21708.47
691.08	21591.44
691.22	21537.61
691.35	21575.06
691.49	21549.31
691.62	21202.91
691.76	21123.33
691.89	20936.09
692.03	20697.36
692.16	20713.74
692.30	20613.10
692.43	20702.04
692.57	20688.00
692.70	20542.88
692.84	20180.10
692.97	20397.77
693.11	20060.73
693.24	19974.13
693.38	19971.79
693.51	19758.80
693.65	19669.86
693.78	19929.66
693.92	19651.14
694.05	19623.05
694.19	19447.51
694.32	19262.61
694.45	19524.75
694.59	19754.12
694.72	19351.55
694.86	19342.19
694.99	18883.44
695.13	18710.24
695.26	18766.42
695.39	18647.05
695.53	18616.62
695.66	18527.68
695.80	18218.73
695.93	18511.30
696.07	18122.77
696.20	18171.92
696.33	17954.25
696.47	17994.04
696.60	18104.04
696.73	18174.26
696.87	17965.95
697.00	18104.04
697.14	17490.82
697.27	17600.83
697.40	17879.35
697.54	17401.88
697.67	17472.10
697.80	17415.93
697.94	17308.26
698.07	17025.06
698.21	17186.55
698.34	17160.81
698.47	16844.84
698.61	16657.59
698.74	16636.53
698.87	16346.30
699.01	16442.26
699.14	16812.07
699.27	16603.76
699.40	16276.09
699.54	16329.92
699.67	16353.32
699.80	16051.39
699.94	16098.20
700.07	16095.86
700.20	16035.01
700.34	15840.75
700.47	15669.89
700.60	16093.52
700.73	15768.19
700.87	15548.18
701.00	15625.42
701.13	15269.66
701.26	15297.74
701.40	15456.90
701.53	15070.71
701.66	15091.77
701.79	15391.36
701.93	14827.29
702.06	14525.36
702.19	14719.63
702.32	14670.48
702.46	14824.95
702.59	14768.78
702.72	14684.52
702.85	14422.38
702.99	14808.57
703.12	14370.89
703.25	14410.68
703.38	14291.31
703.51	14160.24
703.65	14111.09
703.78	13848.95
703.91	13855.97
704.04	13621.92
704.17	13642.98
704.31	13654.69
704.44	13715.54
704.57	13671.07
704.70	13376.16
704.83	13420.63
704.96	13415.95
705.10	13392.55
705.23	13149.13
>>>>>End Processed Spectral Data<<<<<
