SpectraSuite Data File
++++++++++++++++++++++++++++++++++++
Date: Fri Oct 25 11:33:51 EDT 2013
User: price-jones
Dark Spectrum Present: No
Reference Spectrum Present: No
Number of Sampled Component Spectra: 1
Spectrometers: USB2+H05261
Integration Time (usec): 100000 (USB2+H05261)
Spectra Averaged: 1 (USB2+H05261)
Boxcar Smoothing: 0 (USB2+H05261)
Correct for Electrical Dark: No (USB2+H05261)
Strobe/Lamp Enabled: No (USB2+H05261)
Correct for Detector Non-linearity: No (USB2+H05261)
Correct for Stray Light: No (USB2+H05261)
Number of Pixels in Processed Spectrum: 2048
>>>>>Begin Processed Spectral Data<<<<<
365.73	285.55
365.92	285.55
366.12	285.55
366.32	177.88
366.52	128.73
366.72	149.79
366.91	135.75
367.11	140.43
367.31	220.01
367.51	212.99
367.70	180.22
367.90	142.77
368.10	138.09
368.30	98.30
368.49	173.20
368.69	203.63
368.89	194.26
369.09	212.99
369.28	170.86
369.48	191.92
369.68	222.35
369.87	210.65
370.07	285.55
370.27	250.44
370.47	365.12
370.66	447.04
370.86	454.06
371.06	599.18
371.25	571.09
371.45	489.17
371.65	594.50
371.84	533.64
372.04	554.71
372.24	575.77
372.44	617.90
372.63	669.39
372.83	543.00
373.03	568.75
373.22	613.22
373.42	580.45
373.62	688.12
373.81	596.84
374.01	702.16
374.21	589.82
374.40	566.41
374.60	622.58
374.79	613.22
374.99	678.76
375.19	645.99
375.38	617.90
375.58	657.69
375.78	681.10
375.97	580.45
376.17	748.97
376.37	688.12
376.56	631.94
376.76	589.82
376.95	641.31
377.15	606.20
377.35	739.61
377.54	699.82
377.74	702.16
377.93	664.71
378.13	695.14
378.33	716.20
378.52	720.88
378.72	753.65
378.91	727.91
379.11	685.78
379.31	685.78
379.50	695.14
379.70	748.97
379.89	706.84
380.09	676.41
380.28	657.69
380.48	770.04
380.68	716.20
380.87	699.82
381.07	802.80
381.26	791.10
381.46	784.08
381.65	809.83
381.85	767.70
382.04	763.01
382.24	812.17
382.43	732.59
382.63	807.48
382.83	725.57
383.02	798.12
383.22	823.87
383.41	774.72
383.61	781.74
383.80	755.99
384.00	767.70
384.19	851.96
384.39	868.34
384.58	828.55
384.78	767.70
384.97	903.45
385.17	866.00
385.36	842.59
385.56	807.48
385.75	807.48
385.95	908.13
386.14	873.02
386.34	784.08
386.53	844.93
386.72	819.19
386.92	882.38
387.11	957.28
387.31	863.66
387.50	873.02
387.70	868.34
387.89	877.70
388.09	903.45
388.28	868.34
388.48	884.72
388.67	943.24
388.86	968.98
389.06	938.55
389.25	924.51
389.45	987.71
389.64	929.19
389.84	1006.43
390.03	940.90
390.22	1006.43
390.42	933.87
390.61	908.13
390.81	973.66
391.00	973.66
391.19	1001.75
391.39	1025.15
391.58	1022.81
391.78	994.73
391.97	1069.62
392.16	1055.58
392.36	1022.81
392.55	1097.71
392.75	1062.60
392.94	1022.81
393.13	1097.71
393.33	1027.50
393.52	1088.35
393.71	1022.81
393.91	1043.88
394.10	1062.60
394.29	1109.41
394.49	1132.82
394.68	1188.99
394.88	1177.29
395.07	1149.20
395.26	1125.80
395.46	1165.59
395.65	1196.01
395.84	1116.44
396.04	1210.06
396.23	1228.78
396.42	1205.38
396.62	1217.08
396.81	1153.88
397.00	1247.51
397.19	1086.01
397.39	1226.44
397.58	1240.48
397.77	1294.32
397.97	1275.59
398.16	1193.67
398.35	1266.23
398.55	1217.08
398.74	1315.38
398.93	1324.74
399.12	1291.98
399.32	1385.60
399.51	1221.76
399.70	1357.51
399.90	1383.26
400.09	1348.15
400.28	1380.92
400.47	1350.49
400.67	1404.32
400.86	1355.17
401.05	1448.79
401.24	1448.79
401.44	1427.73
401.63	1544.75
401.82	1486.24
402.01	1455.81
402.21	1418.36
402.40	1502.62
402.59	1479.22
402.78	1483.90
402.97	1579.86
403.17	1551.78
403.36	1444.11
403.55	1561.14
403.74	1556.46
403.93	1533.05
404.13	1537.73
404.32	1610.29
404.51	1558.80
404.70	1619.65
404.89	1640.72
405.09	1741.36
405.28	1661.78
405.47	1708.59
405.66	1673.48
405.85	1741.36
406.05	1682.85
406.24	1729.66
406.43	1792.85
406.62	1818.60
406.81	1856.04
407.00	1687.53
407.20	1764.76
407.39	1790.51
407.58	1802.21
407.77	1783.49
407.96	1860.73
408.15	1877.11
408.34	1879.45
408.54	1905.20
408.73	1872.43
408.92	1846.68
409.11	1961.37
409.30	1968.39
409.49	1947.33
409.68	2012.86
409.87	2040.95
410.07	2054.99
410.26	2026.90
410.45	2015.20
410.64	2090.10
410.83	2211.81
411.02	2132.23
411.21	2223.51
411.40	2174.36
411.59	2129.89
411.78	2148.61
411.98	2139.25
412.17	2204.78
412.36	2223.51
412.55	2160.31
412.74	2319.47
412.93	2373.30
413.12	2429.48
413.31	2399.05
413.50	2363.94
413.69	2422.45
413.88	2455.22
414.07	2462.24
414.26	2532.46
414.45	2530.12
414.64	2492.67
414.83	2499.69
415.02	2675.23
415.22	2717.36
415.41	2693.96
415.60	2635.44
415.79	2656.51
415.98	2722.04
416.17	2703.32
416.36	2708.00
416.55	2656.51
416.74	2771.19
416.93	2745.45
417.12	2850.77
417.31	2848.43
417.50	2848.43
417.69	2977.16
417.88	2881.20
418.07	2949.08
418.26	3023.97
418.45	3040.36
418.64	3091.85
418.83	3075.46
419.02	3082.49
419.21	3052.06
419.39	3148.02
419.58	2890.56
419.77	3026.31
419.96	3119.93
420.15	3236.96
420.34	3171.43
420.53	3218.24
420.72	3248.66
420.91	3311.86
421.10	3279.09
421.29	3307.18
421.48	3300.16
421.67	3314.20
421.86	3262.71
422.05	3358.67
422.24	3421.86
422.43	3389.10
422.61	3274.41
422.80	3241.64
422.99	3356.33
423.18	3370.37
423.37	3442.93
423.56	3363.35
423.75	3426.54
423.94	3342.28
424.13	3171.43
424.32	3243.98
424.50	3318.88
424.69	3438.25
424.88	3576.34
425.07	3309.52
425.26	3346.97
425.45	3478.04
425.64	3407.82
425.83	3386.76
426.01	3400.80
426.20	3508.46
426.39	3499.10
426.58	3513.14
426.77	3482.72
426.96	3503.78
427.15	3487.40
427.33	3595.06
427.52	3524.85
427.71	3492.08
427.90	3637.19
428.09	3772.94
428.28	3779.97
428.46	3744.86
428.65	3646.55
428.84	3859.54
429.03	3768.26
429.22	3669.96
429.40	3714.43
429.59	3655.92
429.78	3646.55
429.97	3609.11
430.16	3761.24
430.34	3889.97
430.53	3983.59
430.72	3885.29
430.91	3824.44
431.10	3770.60
431.28	3950.82
431.47	3826.78
431.66	3995.29
431.85	3953.16
432.03	3981.25
432.22	4091.26
432.41	4182.54
432.60	3887.63
432.79	4007.00
432.97	4107.64
433.16	4131.05
433.35	4119.34
433.54	4205.94
433.72	4060.83
433.91	4245.73
434.10	4152.11
434.28	4138.07
434.47	4269.14
434.66	4290.20
434.85	4236.37
435.03	4416.59
435.22	4245.73
435.41	4531.28
435.59	4395.53
435.78	4381.48
435.97	4344.03
436.16	4266.80
436.34	4327.65
436.53	4372.12
436.72	4573.41
436.90	4306.59
437.09	4390.84
437.28	4491.49
437.46	4470.42
437.65	4507.87
437.84	4472.76
438.02	4568.73
438.21	4482.13
438.40	4472.76
438.58	4755.97
438.77	4765.33
438.96	4746.61
439.14	4739.58
439.33	4896.40
439.52	4891.72
439.70	4868.31
439.89	5001.72
440.08	5062.58
440.26	5006.41
440.45	4847.25
440.63	5015.77
440.82	5247.48
441.01	4954.91
441.19	5282.59
441.38	5228.76
441.57	5317.70
441.75	5210.03
441.94	5341.10
442.12	5387.91
442.31	5469.83
442.50	5355.15
442.68	5411.32
442.87	5474.51
443.05	5373.87
443.24	5540.05
443.43	5474.51
443.61	5497.92
443.80	5589.20
443.98	5380.89
444.17	5385.57
444.35	5570.48
444.54	5809.21
444.73	5497.92
444.91	5666.44
445.10	5654.73
445.28	5612.60
445.47	5657.07
445.65	5586.86
445.84	5551.75
446.02	5741.33
446.21	5586.86
446.39	5654.73
446.58	5643.03
446.77	5767.08
446.95	5593.88
447.14	5717.93
447.32	5746.02
447.51	5743.67
447.69	5706.23
447.88	5839.64
448.06	5785.80
448.25	5769.42
448.43	5736.65
448.62	5832.62
448.80	5802.19
448.99	5928.58
449.17	5951.98
449.36	5966.03
449.54	5895.81
449.73	5816.23
449.91	5977.73
450.10	6099.44
450.28	5989.43
450.46	6033.90
450.65	6179.01
450.83	6078.37
451.02	6038.58
451.20	6183.70
451.39	6099.44
451.57	6132.20
451.76	6216.46
451.94	6319.45
452.13	6427.11
452.31	6179.01
452.49	6303.06
452.68	6384.98
452.86	6406.05
453.05	6356.90
453.23	6483.28
453.42	6230.51
453.60	6211.78
453.78	6333.49
453.97	6333.49
454.15	6326.47
454.34	6352.21
454.52	6305.40
454.70	6527.75
454.89	6722.02
455.07	6487.96
455.26	6588.61
455.44	6724.36
455.62	6775.85
455.81	6869.47
455.99	6810.96
456.17	6689.25
456.36	6888.20
456.54	6883.52
456.73	6857.77
456.91	7061.40
457.09	6942.03
457.28	7056.72
457.46	7016.93
457.64	7014.59
457.83	7155.02
458.01	7061.40
458.19	7073.10
458.38	7002.88
458.56	7091.82
458.74	7131.61
458.93	7122.25
459.11	7276.73
459.29	7073.10
459.48	7279.07
459.66	7227.57
459.84	7288.43
460.03	7431.20
460.21	7372.69
460.39	7307.15
460.57	7283.75
460.76	7309.49
460.94	7548.23
461.12	7522.48
461.31	7616.10
461.49	7595.04
461.67	7545.89
461.85	7566.95
462.04	7681.64
462.22	8035.06
462.40	7646.53
462.59	7763.56
462.77	7786.96
462.95	7882.92
463.13	7737.81
463.32	7733.13
463.50	7896.97
463.68	7765.90
463.86	7765.90
464.05	7808.03
464.23	7864.20
464.41	7882.92
464.59	7929.74
464.78	7974.21
464.96	7880.58
465.14	7995.27
465.32	8013.99
465.50	7960.16
465.69	8016.33
465.87	8166.13
466.05	7990.59
466.23	7927.39
466.41	8100.59
466.60	8287.84
466.78	8271.45
466.96	8149.75
467.14	8145.06
467.32	8187.19
467.51	8271.45
467.69	8100.59
467.87	8402.52
468.05	8346.35
468.23	8245.71
468.41	8290.18
468.60	8489.12
468.78	8351.03
468.96	8257.41
469.14	8393.16
469.32	8582.74
469.50	8386.14
469.69	8727.86
469.87	8842.54
470.05	8641.26
470.23	8734.88
470.41	8863.61
470.59	8769.99
470.77	8753.60
470.95	8882.33
471.14	9018.08
471.32	8919.78
471.50	9083.62
471.68	9224.05
471.86	9078.94
472.04	9011.06
472.22	9249.80
472.40	9088.30
472.58	9156.18
472.77	9107.02
472.95	9399.59
473.13	9830.25
473.31	9418.32
473.49	9387.89
473.67	9373.85
473.85	9397.25
474.03	9472.15
474.21	9685.14
474.39	9558.75
474.57	9565.77
474.75	9774.08
474.93	9968.34
475.12	9722.59
475.30	10068.98
475.48	10066.64
475.66	9977.70
475.84	10080.69
476.02	10040.90
476.20	10197.71
476.38	10459.85
476.56	10548.79
476.74	10441.13
476.92	10263.25
477.10	10499.64
477.28	10597.95
477.46	10679.86
477.64	10942.00
477.82	10892.85
478.00	10958.39
478.18	11178.40
478.36	10808.59
478.54	11250.96
478.72	11459.26
478.90	11389.05
479.08	11438.20
479.26	11796.30
479.44	11630.12
479.62	11674.59
479.80	11681.61
479.98	11964.82
480.16	12152.06
480.34	11899.28
480.52	12086.53
480.70	12446.97
480.88	12042.06
481.06	12257.39
481.24	12329.94
481.41	12512.50
481.59	12718.47
481.77	12865.92
481.95	12730.17
482.13	12849.54
482.31	12945.50
482.49	13280.20
482.67	13394.89
482.85	13488.51
483.03	13661.71
483.21	13666.39
483.39	13935.55
483.57	13540.00
483.74	13839.59
483.92	13930.87
484.10	14085.34
484.28	14054.92
484.46	14626.01
484.64	14626.01
484.82	14366.21
485.00	14623.67
485.18	14626.01
485.35	14785.16
485.53	14794.53
485.71	14916.23
485.89	15403.07
486.07	15014.54
486.25	15501.37
486.43	15499.03
486.61	15592.65
486.78	15758.83
486.96	15618.39
487.14	15920.32
487.32	16315.87
487.50	16140.33
487.68	16449.28
487.85	16435.24
488.03	16683.34
488.21	16908.03
488.39	16692.70
488.57	17111.66
488.75	17231.02
488.92	17301.24
489.10	17376.14
489.28	17411.25
489.46	17427.63
489.64	17612.53
489.81	17930.84
489.99	18302.99
490.17	18436.40
490.35	18445.76
490.53	18345.12
490.70	18782.80
490.88	18420.02
491.06	18920.89
491.24	18897.49
491.41	18745.35
491.59	18977.06
491.77	18986.43
491.95	19140.90
492.13	19243.88
492.30	19351.55
492.48	19576.24
492.66	19522.41
492.84	19726.04
493.01	20126.27
493.19	20091.16
493.37	20233.93
493.54	20044.35
493.72	20568.63
493.90	20500.75
494.08	20524.16
494.25	20753.53
494.43	21022.69
494.61	20891.62
494.79	21256.75
494.96	21088.23
495.14	21252.06
495.32	21500.16
495.49	21647.61
495.67	21886.35
495.85	21781.03
496.02	22113.38
496.20	22082.95
496.38	22270.20
496.55	22377.86
496.73	22843.63
496.91	22195.30
497.09	22834.27
497.26	22665.75
497.44	23091.73
497.62	22972.36
497.79	23449.83
497.97	23185.35
498.14	23403.02
498.32	23302.37
498.50	23868.78
498.67	24023.26
498.85	23676.86
499.03	23723.67
499.20	23948.36
499.38	24107.52
499.56	24203.48
499.73	24372.00
499.91	24409.45
500.08	24568.60
500.26	24170.71
500.44	24182.42
500.61	24727.76
500.79	24456.26
500.97	25060.12
501.14	25010.96
501.32	24889.26
501.49	25053.09
501.67	25184.16
501.84	25591.42
502.02	25649.93
502.20	25390.13
502.37	25497.80
502.55	25523.54
502.72	25612.48
502.90	25738.87
503.07	25776.32
503.25	25975.27
503.43	25699.08
503.60	26232.72
503.78	26314.64
503.95	26068.89
504.13	26387.20
504.30	26794.45
504.48	26522.95
504.65	26757.00
504.83	26595.51
505.01	26951.27
505.18	26820.20
505.36	27367.88
505.53	27253.20
505.71	27290.65
505.88	27321.07
506.06	27080.00
506.23	27470.87
506.41	27452.14
506.58	27737.69
506.76	27510.66
506.93	28198.77
507.11	27541.08
507.28	27882.80
507.46	28334.53
507.63	28114.52
507.81	28294.74
507.98	27735.35
508.16	28535.81
508.33	28130.90
508.50	28795.61
508.68	28727.74
508.85	28788.59
509.03	28629.43
509.20	28470.28
509.38	29244.99
509.55	29181.80
509.73	29235.63
509.90	29357.34
510.08	29172.44
510.25	29277.76
510.42	29486.07
510.60	29305.85
510.77	29467.34
510.95	29802.04
511.12	29738.85
511.30	29607.78
511.47	29982.26
511.64	29773.95
511.82	29776.30
511.99	30132.06
512.17	30120.35
512.34	30459.73
512.51	30925.50
512.69	30501.86
512.86	30286.53
513.04	30962.95
513.21	30904.43
513.38	30780.39
513.56	31005.08
513.73	30831.88
513.90	31007.42
514.08	31103.38
514.25	31351.48
514.43	31461.48
514.60	31269.56
514.77	31480.21
514.95	31709.58
515.12	31302.32
515.29	31552.76
515.47	31524.68
515.64	32350.88
515.81	31920.23
515.99	31892.14
516.16	31955.33
516.33	32067.68
516.51	32208.11
516.68	32072.36
516.85	32161.30
517.03	32432.80
517.20	32226.84
517.37	32643.45
517.54	32446.85
517.72	32683.24
517.89	32582.60
518.06	32795.59
518.24	32828.35
518.41	32797.93
518.58	32884.53
518.75	32804.95
518.93	33289.44
519.10	33188.80
519.27	33275.40
519.45	33127.94
519.62	33558.60
519.79	34043.09
519.96	33633.50
520.14	33326.89
520.31	33670.95
520.48	33579.67
520.65	33813.72
520.83	34230.33
521.00	34235.02
521.17	34117.99
521.34	34242.04
521.52	34330.98
521.69	34232.68
521.86	34710.14
522.03	34611.84
522.20	34443.32
522.38	34632.91
522.55	35119.74
522.72	34998.03
522.89	35075.27
523.07	35419.33
523.24	34981.65
523.41	34803.77
523.58	34850.58
523.75	35468.48
523.92	35306.98
524.10	35297.62
524.27	35395.92
524.44	35615.93
524.61	35580.82
524.78	35627.63
524.96	35915.52
525.13	35723.60
525.30	35662.74
525.47	35725.94
525.64	35857.01
525.81	36187.02
525.98	36266.60
526.16	36135.53
526.33	35793.81
526.50	36304.05
526.67	35812.54
526.84	36383.63
527.01	36048.93
527.18	36046.59
527.36	36416.40
527.53	36851.73
527.70	37113.87
527.87	37273.03
528.04	36772.16
528.21	36711.30
528.38	36884.50
528.55	36751.09
528.72	36975.78
528.89	36636.41
529.07	36924.29
529.24	36744.07
529.41	37256.65
529.58	37008.55
529.75	37148.98
529.92	37471.98
530.09	37235.58
530.26	37699.01
530.43	37701.35
530.60	37015.57
530.77	37605.39
530.94	37598.37
531.11	37577.30
531.28	37743.48
531.46	37778.59
531.63	38167.12
531.80	38064.13
531.97	37764.54
532.14	38412.87
532.31	38120.31
532.48	38438.62
532.65	38541.60
532.82	38295.85
532.99	38120.31
533.16	38213.93
533.33	38497.13
533.50	38396.49
533.67	38204.56
533.84	38260.74
534.01	38948.85
534.18	39246.10
534.35	38859.91
534.52	38918.43
534.69	38880.98
534.86	38902.04
535.03	38918.43
535.20	39218.02
535.37	39126.74
535.54	39082.27
535.71	38911.41
535.88	39475.48
536.05	38983.96
536.22	39529.31
536.38	39182.91
536.55	39543.35
536.72	39550.37
536.89	39416.96
537.06	39395.90
537.23	39754.00
537.40	39817.19
537.57	39735.27
537.74	39754.00
537.91	40121.46
538.08	39711.87
538.25	39613.57
538.42	40123.80
538.59	40016.14
538.75	39938.90
538.92	40526.38
539.09	40053.59
539.26	40236.15
539.43	40191.68
539.60	40657.45
539.77	40493.61
539.94	40713.62
540.11	40547.44
540.28	40676.17
540.44	40531.06
540.61	40879.80
540.78	40912.56
540.95	40528.72
541.12	40870.43
541.29	40788.52
541.46	41036.61
541.62	40708.94
541.79	41420.46
541.96	40559.14
542.13	40652.76
542.30	40928.95
542.47	41333.86
542.63	41141.94
542.80	41600.68
542.97	41174.70
543.14	41514.08
543.31	41359.61
543.48	41860.48
543.64	42171.77
543.81	41588.98
543.98	42087.51
544.15	41755.16
544.32	41853.46
544.48	42265.39
544.65	41535.15
544.82	42328.59
544.99	41696.64
545.16	42054.75
545.32	41972.83
545.49	42492.43
545.66	42391.78
545.83	42389.44
546.00	42693.71
546.16	42553.28
546.33	42171.77
546.50	41916.65
546.67	42586.05
546.83	41787.92
547.00	42368.38
547.17	42480.72
547.34	42529.87
547.50	42895.00
547.67	42967.55
547.84	42667.97
548.00	43058.84
548.17	42822.44
548.34	43056.50
548.51	43084.58
548.67	43335.02
548.84	43093.94
549.01	42646.90
549.18	42983.94
549.34	43330.34
549.51	43470.77
549.68	43320.98
549.84	43182.88
550.01	43110.33
550.18	42784.99
550.34	43480.13
550.51	43791.42
550.68	43433.32
550.84	43098.62
551.01	43304.59
551.18	43571.41
551.34	43583.12
551.51	43646.31
551.68	43538.65
551.84	43208.63
552.01	43601.84
552.18	43604.18
552.34	43468.43
552.51	43569.07
552.68	43866.32
552.84	43922.49
553.01	43892.07
553.18	43372.47
553.34	44350.81
553.51	43622.90
553.67	44165.91
553.84	43969.30
554.01	44184.63
554.17	44491.24
554.34	44626.99
554.51	44217.40
554.67	44439.75
554.84	44421.03
555.00	44549.76
555.17	44126.12
555.33	44306.34
555.50	44093.35
555.67	44664.44
555.83	44516.99
556.00	44715.93
556.16	45052.97
556.33	44446.77
556.50	44608.27
556.66	44762.75
556.83	44737.00
556.99	45263.62
557.16	44821.26
557.32	44451.45
557.49	45022.54
557.65	44395.28
557.82	44554.44
557.98	44886.79
558.15	44786.15
558.32	44875.09
558.48	44741.68
558.65	44540.39
558.81	44978.07
558.98	44758.06
559.14	44678.49
559.31	44942.97
559.47	45132.55
559.64	44847.00
559.80	45195.74
559.97	45368.94
560.13	44692.53
560.30	45188.72
560.46	45406.39
560.63	45516.40
560.79	45818.33
560.96	45715.34
561.12	45272.98
561.29	45687.26
561.45	45656.83
561.61	45258.94
561.78	45069.36
561.94	45645.13
562.11	45801.94
562.27	45560.87
562.44	45275.32
562.60	45261.28
562.77	45507.04
562.93	45495.33
563.10	45511.72
563.26	45588.95
563.42	46300.48
563.59	45106.80
563.75	45427.46
563.92	45703.64
564.08	45933.01
564.24	45586.61
564.41	45123.19
564.57	46117.92
564.74	46075.79
564.90	45961.10
565.07	45469.59
565.23	45755.13
565.39	46319.20
565.56	45975.14
565.72	45979.82
565.88	45656.83
566.05	46176.43
566.21	45804.28
566.38	45961.10
566.54	46094.51
566.70	46162.39
566.87	46197.49
567.03	45979.82
567.19	46279.41
567.36	46169.41
567.52	45991.53
567.68	46237.28
567.85	46211.54
568.01	46253.67
568.17	46433.89
568.34	46164.73
568.50	46344.95
568.66	45942.38
568.83	46017.27
568.99	46026.63
569.15	46513.47
569.32	46288.77
569.48	46277.07
569.64	46370.69
569.81	46632.83
569.97	46230.26
570.13	46045.36
570.30	46527.51
570.46	46445.59
570.62	46649.22
570.78	45998.55
570.95	46431.55
571.11	46593.04
571.27	46354.31
571.43	46440.91
571.60	46548.57
571.76	46361.33
571.92	46637.51
572.09	46251.33
572.25	46471.34
572.41	46246.65
572.57	46597.73
572.74	46820.08
572.90	46536.87
573.06	46571.98
573.22	46920.72
573.38	46997.96
573.55	46560.28
573.71	46932.42
573.87	46948.81
574.03	46370.69
574.20	46946.47
574.36	46934.76
574.52	46513.47
574.68	46740.50
574.84	47000.30
575.01	46639.86
575.17	46913.70
575.33	46848.16
575.49	46883.27
575.65	46527.51
575.82	46630.49
575.98	46791.99
576.14	47248.39
576.30	47264.78
576.46	46944.12
576.62	46354.31
576.79	46394.10
576.95	46265.37
577.11	46412.82
577.27	46600.07
577.43	46958.17
577.59	46738.16
577.75	46555.60
577.92	46340.27
578.08	46855.18
578.24	46916.04
578.40	47112.64
578.56	46639.86
578.72	47007.32
578.88	46822.42
579.04	46831.78
579.21	46691.35
579.37	46995.62
579.53	46930.08
579.69	46869.23
579.85	46754.54
580.01	46703.05
580.17	46698.37
580.33	47072.85
580.49	47194.56
580.65	46859.87
580.82	46941.78
580.98	47047.11
581.14	46644.54
581.30	47353.72
581.46	46817.74
581.62	46937.10
581.78	46703.05
581.94	47140.73
582.10	46990.94
582.26	47129.03
582.42	47227.33
582.58	46887.95
582.74	47152.43
582.90	47035.41
583.06	47320.95
583.22	46293.46
583.38	46794.33
583.54	47145.41
583.70	47140.73
583.86	47360.74
584.02	47110.30
584.18	47388.83
584.34	47365.42
584.50	47344.36
584.66	47379.46
584.82	47159.45
584.98	47208.61
585.14	47367.76
585.30	47426.28
585.46	47161.79
585.62	46822.42
585.78	47526.92
585.94	46684.33
586.10	46965.19
586.26	46990.94
586.42	46955.83
586.58	47049.45
586.74	47180.52
586.90	47122.01
587.06	46796.67
587.22	47449.68
587.38	46803.69
587.54	47264.78
587.70	47550.32
587.86	47283.50
588.02	47323.29
588.18	46726.46
588.34	47040.09
588.49	47021.36
588.65	47194.56
588.81	47327.97
588.97	47608.84
589.13	47456.70
589.29	47262.44
589.45	47227.33
589.61	47304.57
589.77	47360.74
589.93	47498.83
590.08	47800.76
590.24	47760.97
590.40	47489.47
590.56	47327.97
590.72	47669.69
590.88	47285.84
591.04	47182.86
591.20	47608.84
591.35	47597.13
591.51	47636.92
591.67	47517.56
591.83	48236.10
591.99	47983.32
592.15	47201.58
592.31	47419.25
592.46	47529.26
592.62	47641.60
592.78	47929.49
592.94	47693.10
593.10	47976.30
593.26	48041.84
593.41	47662.67
593.57	47760.97
593.73	47868.64
593.89	47838.21
594.05	47817.14
594.20	47838.21
594.36	48343.77
594.52	48027.79
594.68	47526.92
594.84	47786.72
594.99	48147.16
595.15	47833.53
595.31	47856.93
595.47	47597.13
595.62	47931.83
595.78	48032.47
595.94	47639.26
596.10	47976.30
596.25	47590.11
596.41	47962.26
596.57	47601.82
596.73	47901.40
596.88	48076.94
597.04	47765.65
597.20	48079.28
597.36	47870.98
597.51	47983.32
597.67	47929.49
597.83	47730.54
597.99	47948.21
598.14	47281.16
598.30	47536.28
598.46	47913.11
598.61	48044.18
598.77	47952.90
598.93	48130.78
599.09	47866.30
599.24	48390.58
599.40	47934.17
599.56	48285.25
599.71	48189.29
599.87	48264.19
600.03	48212.70
600.18	48006.73
600.34	47725.86
600.50	48158.86
600.65	48053.54
600.81	48722.93
600.97	48179.93
601.12	47952.90
601.28	47798.42
601.44	48074.60
601.59	48020.77
601.75	48004.39
601.91	48081.63
602.06	48133.12
602.22	48247.80
602.37	47583.09
602.53	47725.86
602.69	47800.76
602.84	47938.85
603.00	47992.68
603.16	47833.53
603.31	47920.13
603.47	48245.46
603.62	48135.46
603.78	48107.37
603.94	47995.03
604.09	48191.63
604.25	48100.35
604.40	47913.11
604.56	48224.40
604.71	48507.60
604.87	47784.38
605.03	47585.43
605.18	47924.81
605.34	47812.46
605.49	47964.60
605.65	48069.92
605.80	47906.08
605.96	47613.52
606.12	48025.45
606.27	48247.80
606.43	47592.45
606.58	47997.37
606.74	47983.32
606.89	47316.27
607.05	48219.72
607.20	48200.99
607.36	47758.63
607.51	47842.89
607.67	47749.27
607.82	47681.39
607.98	48109.71
608.13	47873.32
608.29	47503.51
608.44	47943.53
608.60	47636.92
608.75	47882.68
608.91	47880.34
609.06	47620.54
609.22	47999.71
609.37	47632.24
609.53	47990.34
609.68	47580.75
609.84	47459.04
609.99	47777.36
610.15	47955.24
610.30	48081.63
610.46	47627.56
610.61	47770.33
610.76	47873.32
610.92	47409.89
611.07	47629.90
611.23	47753.95
611.38	47735.23
611.54	47791.40
611.69	47894.38
611.84	47665.01
612.00	47327.97
612.15	47721.18
612.31	47592.45
612.46	47346.70
612.62	47627.56
612.77	47079.88
612.92	47803.10
613.08	47271.80
613.23	47192.22
613.39	47353.72
613.54	47370.10
613.69	47662.67
613.85	47484.79
614.00	47482.45
614.15	47449.68
614.31	47035.41
614.46	47056.47
614.62	46997.96
614.77	47185.20
614.92	47140.73
615.08	47290.52
615.23	47484.79
615.38	47388.83
615.54	47414.57
615.69	47587.77
615.84	47035.41
616.00	47662.67
616.15	47292.86
616.30	47147.75
616.46	47260.10
616.61	47021.36
616.76	47281.16
616.92	46972.21
617.07	47430.96
617.22	47360.74
617.37	46490.06
617.53	47122.01
617.68	47000.30
617.83	46997.96
617.99	47468.40
618.14	47278.82
618.29	47004.98
618.45	46667.94
618.60	46663.26
618.75	46653.90
618.90	46855.18
619.06	46614.11
619.21	46728.80
619.36	46838.80
619.51	46834.12
619.67	46607.09
619.82	46529.85
619.97	47131.37
620.12	46852.84
620.28	46667.94
620.43	46721.77
620.58	47131.37
620.73	46527.51
620.89	46794.33
621.04	47196.90
621.19	46880.93
621.34	46464.32
621.49	46630.49
621.65	46834.12
621.80	46820.08
621.95	46443.25
622.10	46691.35
622.25	46550.91
622.41	46284.09
622.56	46396.44
622.71	46464.32
622.86	46459.63
623.01	46560.28
623.16	46433.89
623.32	46099.19
623.47	46637.51
623.62	46085.15
623.77	46616.45
623.92	46387.08
624.07	46403.46
624.23	46239.62
624.38	46497.08
624.53	46052.38
624.68	45839.39
624.83	45986.85
624.98	46799.01
625.13	46014.93
625.29	45979.82
625.44	46155.36
625.59	46071.10
625.74	45930.67
625.89	45680.24
626.04	45900.25
626.19	45710.66
626.34	46000.89
626.49	45619.38
626.65	45581.93
626.80	46192.81
626.95	45694.28
627.10	45591.30
627.25	45832.37
627.40	45930.67
627.55	45492.99
627.70	45485.97
627.85	45813.65
628.00	45666.19
628.15	45752.79
628.30	45006.16
628.45	45153.62
628.60	45067.02
628.76	45141.91
628.91	45256.60
629.06	45062.33
629.21	44935.95
629.36	44807.22
629.51	45251.92
629.66	45364.26
629.81	45076.38
629.96	45642.79
630.11	45125.53
630.26	45106.80
630.41	45179.36
630.56	44636.36
630.71	45574.91
630.86	45111.49
631.01	45059.99
631.16	44926.58
631.31	44671.46
631.46	44814.24
631.61	45312.77
631.76	45170.00
631.91	45256.60
632.06	45099.78
632.21	45530.44
632.36	45097.44
632.51	44617.63
632.66	44982.76
632.81	44694.87
632.96	44802.53
633.10	44875.09
633.25	44645.72
633.40	44870.41
633.55	45127.87
633.70	44435.07
633.85	44425.71
634.00	44273.57
634.15	44339.11
634.30	44353.15
634.45	44652.74
634.60	44577.84
634.75	44692.53
634.90	44421.03
635.05	44669.12
635.19	44772.11
635.34	44809.56
635.49	44339.11
635.64	44509.97
635.79	44669.12
635.94	44493.58
636.09	44676.15
636.24	44116.76
636.39	44472.52
636.53	44636.36
636.68	44374.22
636.83	43924.83
636.98	43812.49
637.13	43676.74
637.28	43737.59
637.43	43608.86
637.57	44238.47
637.72	43793.76
637.87	43992.71
638.02	44268.89
638.17	43899.09
638.32	43718.87
638.46	43737.59
638.61	43672.06
638.76	43688.44
638.91	43693.12
639.06	43550.35
639.20	43187.56
639.35	43805.47
639.50	43407.58
639.65	43817.17
639.80	43620.56
639.94	43959.94
640.09	43536.30
640.24	43863.98
640.39	43225.01
640.54	42897.34
640.68	43920.15
640.83	43643.97
640.98	43725.89
641.13	42925.42
641.27	43737.59
641.42	43384.17
641.57	43210.97
641.72	43438.00
641.86	43133.73
642.01	43016.71
642.16	42749.88
642.31	42696.05
642.45	43182.88
642.60	42815.42
642.75	43222.67
642.90	43091.60
643.04	43136.07
643.19	42740.52
643.34	42838.83
643.48	42883.30
643.63	43065.86
643.78	42976.92
643.93	42829.46
644.07	42955.85
644.22	42897.34
644.37	42904.36
644.51	42880.95
644.66	42967.55
644.81	42909.04
644.95	42686.69
645.10	42878.61
645.25	42518.17
645.39	42710.10
645.54	42330.93
645.69	42359.02
645.83	42476.04
645.98	42761.59
646.13	42965.21
646.27	42457.32
646.42	42029.00
646.57	42220.92
646.71	42728.82
646.86	42492.43
647.00	42789.67
647.15	42848.19
647.30	42543.92
647.44	42340.29
647.59	42188.16
647.74	42220.92
647.88	42183.48
648.03	42600.09
648.17	42890.32
648.32	42029.00
648.47	42789.67
648.61	42326.25
648.76	42075.81
648.90	42143.69
649.05	41911.97
649.20	41818.35
649.34	41848.78
649.49	42007.94
649.63	41900.27
649.78	42401.14
649.92	42036.02
650.07	42550.94
650.21	41656.85
650.36	42202.20
650.51	42010.28
650.65	41900.27
650.80	42614.13
650.94	42230.29
651.09	41930.70
651.23	41544.51
651.38	41464.93
651.52	41329.18
651.67	41839.42
651.81	41869.84
651.96	41790.27
652.10	41343.22
652.25	41593.66
652.39	41553.87
652.54	41727.07
652.68	41422.80
652.83	41319.82
652.97	41635.79
653.12	41343.22
653.26	41626.43
653.41	41443.87
653.55	41216.83
653.70	41691.96
653.84	41467.27
653.99	41717.71
654.13	41839.42
654.27	41273.01
654.42	41188.75
654.56	41394.71
654.71	41464.93
654.85	41476.63
655.00	41291.73
655.14	41097.47
655.29	41612.38
655.43	41289.39
655.57	41289.39
655.72	41301.09
655.86	40893.84
656.01	40762.77
656.15	41118.53
656.30	40727.66
656.44	41254.28
656.58	41125.55
656.73	40884.48
656.87	40648.08
657.01	41036.61
657.16	40914.90
657.30	40781.49
657.45	41057.68
657.59	40458.50
657.73	40334.45
657.88	40734.68
658.02	41029.59
658.16	40657.45
658.31	40645.74
658.45	40322.75
658.60	40620.00
658.74	40615.32
658.88	40554.46
659.03	39941.24
659.17	40079.33
659.31	39899.11
659.46	39924.86
659.60	40615.32
659.74	39974.01
659.89	39791.45
660.03	39393.56
660.17	39983.37
660.32	39910.82
660.46	39864.00
660.60	39660.38
660.74	39435.69
660.89	39833.58
661.03	39501.22
661.17	39548.03
661.32	39573.78
661.46	39763.36
661.60	39379.51
661.74	39594.84
661.89	39360.79
662.03	39220.36
662.17	39084.61
662.31	39065.88
662.46	39250.78
662.60	39049.50
662.74	38843.53
662.88	38913.75
663.03	38789.70
663.17	39047.16
663.31	38539.26
663.45	38726.50
663.60	38911.41
663.74	38885.66
663.88	38614.16
664.02	38431.60
664.17	38822.47
664.31	38569.69
664.45	38265.42
664.59	38253.72
664.73	38253.72
664.88	38073.49
665.02	38183.50
665.16	38178.82
665.30	38288.82
665.44	37923.70
665.59	38000.94
665.73	37509.43
665.87	37226.22
666.01	38178.82
666.15	37986.89
666.29	37593.68
666.44	37928.38
666.58	37251.97
666.72	37872.21
666.86	37813.70
667.00	37647.52
667.14	37408.78
667.28	37191.11
667.43	37249.63
667.57	37113.87
667.71	37581.98
667.85	37291.76
667.99	37287.07
668.13	36786.20
668.27	36484.27
668.41	37092.81
668.56	36727.69
668.70	36287.67
668.84	36528.74
668.98	36666.83
669.12	36566.19
669.26	36456.18
669.40	36451.50
669.54	36737.05
669.68	36746.41
669.82	35988.08
669.96	35894.46
670.10	35906.16
670.25	36037.23
670.39	35999.78
670.53	35959.99
670.67	35725.94
670.81	36346.18
670.95	35927.22
671.09	35700.19
671.23	35480.18
671.37	35466.14
671.51	35178.25
671.65	35761.05
671.79	35365.49
671.93	35704.87
672.07	35651.04
672.21	34923.13
672.35	35086.97
672.49	34733.55
672.63	35428.69
672.77	35278.89
672.91	34906.75
673.05	34906.75
673.19	34703.12
673.33	34391.83
673.47	34506.52
673.61	34176.50
673.75	34316.93
673.89	34316.93
674.03	33968.19
674.17	33663.93
674.31	33874.57
674.45	33764.57
674.59	33820.74
674.73	34010.32
674.87	33710.74
675.01	33406.47
675.15	33277.74
675.29	33273.06
675.43	33338.59
675.56	33586.69
675.70	33170.07
675.84	32884.53
675.98	31868.73
676.12	33010.92
676.26	32889.21
676.40	32503.02
676.54	32411.74
676.68	32926.66
676.82	31880.44
676.96	32718.35
677.10	32699.62
677.23	32217.47
677.37	32385.99
677.51	32102.79
677.65	31969.38
677.79	31775.11
677.93	31559.78
678.07	31786.82
678.21	31414.67
678.34	31290.62
678.48	31075.29
678.62	31136.15
678.76	31241.47
678.90	30728.89
679.04	31241.47
679.18	31079.97
679.31	30679.74
679.45	30464.41
679.59	30340.36
679.73	30265.47
679.87	30167.16
680.00	30548.67
680.14	30494.84
680.28	30068.86
680.42	30515.90
680.56	30162.48
680.70	29862.90
680.83	29549.26
680.97	29762.25
681.11	29668.63
681.25	29539.90
681.39	29268.40
681.52	29102.22
681.66	29261.38
681.80	28727.74
681.94	28500.70
682.07	28514.75
682.21	28350.91
682.35	28720.71
682.49	28496.02
682.62	28683.27
682.76	28596.67
682.90	28268.99
683.04	28156.64
683.17	27992.81
683.31	28137.92
683.45	28100.47
683.59	27108.08
683.72	27562.15
683.86	27285.97
684.00	27711.94
684.13	27658.11
684.27	27218.09
684.41	26974.67
684.55	27005.10
684.68	26934.88
684.82	26820.20
684.96	26717.22
685.09	26738.28
685.23	26815.52
685.37	27192.34
685.50	27318.73
685.64	26370.82
685.78	26190.59
685.91	26244.43
686.05	25799.73
686.19	25734.19
686.32	26099.31
686.46	25432.26
686.60	25886.32
686.73	25619.50
686.87	25223.95
687.01	25553.97
687.14	25649.93
687.28	25692.06
687.42	25242.68
687.55	25064.80
687.69	24922.02
687.82	24765.21
687.96	24744.14
688.10	24849.47
688.23	24709.04
688.37	25046.07
688.50	24587.33
688.64	24748.82
688.78	24133.26
688.91	24091.13
689.05	24018.58
689.18	23915.59
689.32	23747.08
689.46	23386.63
689.59	23737.71
689.73	23967.09
689.86	23630.05
690.00	23337.48
690.13	23513.02
690.27	23440.47
690.41	23342.16
690.54	22764.05
690.68	22860.01
690.81	23096.41
690.95	22824.90
691.08	22733.62
691.22	22506.59
691.35	22415.31
691.49	22801.50
691.62	22324.03
691.76	22211.68
691.89	21994.01
692.03	21806.77
692.16	21764.64
692.30	21944.86
692.43	21497.82
692.57	21153.76
692.70	21612.51
692.84	21617.19
692.97	21488.46
693.11	21366.75
693.24	21008.65
693.38	20985.24
693.51	20985.24
693.65	20917.37
693.78	20737.15
693.92	20577.99
694.05	20624.80
694.19	20304.15
694.32	20458.62
694.45	20692.68
694.59	20372.02
694.72	20343.94
694.86	20128.61
694.99	19887.53
695.13	19887.53
695.26	19737.74
695.39	19721.35
695.53	19903.92
695.66	19850.08
695.80	19325.80
695.93	19559.86
696.07	19353.89
696.20	18698.54
696.33	18827.27
696.47	18906.85
696.60	18845.99
696.73	19047.28
696.87	18829.61
697.00	18925.57
697.14	18562.79
697.27	18473.85
697.40	18391.93
697.54	18494.91
697.67	18136.81
697.80	18518.32
697.94	18094.68
698.07	17928.50
698.21	17884.03
698.34	17972.97
698.47	17872.33
698.61	17429.97
698.74	17523.59
698.87	17348.05
699.01	17336.35
699.14	17310.60
699.27	17228.68
699.40	17114.00
699.54	16912.71
699.67	16952.50
699.80	17195.92
699.94	17011.01
700.07	17205.28
700.20	16535.88
700.34	16486.73
700.47	16702.06
700.60	16437.58
700.73	16676.32
700.87	16355.66
701.00	16177.78
701.13	16046.71
701.26	16161.40
701.40	16369.71
701.53	15819.68
701.66	16233.96
701.79	15852.45
701.93	15693.29
702.06	15688.61
702.19	15438.17
702.32	15520.09
702.46	15522.43
702.59	15501.37
702.72	15405.41
702.85	15157.31
702.99	15534.14
703.12	15236.89
703.25	15040.28
703.38	14951.34
703.51	14958.36
703.65	14906.87
703.78	14579.20
703.91	14525.36
704.04	14459.83
704.17	14167.26
704.31	14452.81
704.44	14218.75
704.57	14249.18
704.70	14022.15
704.83	14169.60
704.96	13923.85
705.10	13893.42
705.23	13851.29
>>>>>End Processed Spectral Data<<<<<
