SpectraSuite Data File
++++++++++++++++++++++++++++++++++++
Date: Fri Oct 25 11:33:49 EDT 2013
User: price-jones
Dark Spectrum Present: No
Reference Spectrum Present: No
Number of Sampled Component Spectra: 1
Spectrometers: USB2+H05261
Integration Time (usec): 100000 (USB2+H05261)
Spectra Averaged: 1 (USB2+H05261)
Boxcar Smoothing: 0 (USB2+H05261)
Correct for Electrical Dark: No (USB2+H05261)
Strobe/Lamp Enabled: No (USB2+H05261)
Correct for Detector Non-linearity: No (USB2+H05261)
Correct for Stray Light: No (USB2+H05261)
Number of Pixels in Processed Spectrum: 2048
>>>>>Begin Processed Spectral Data<<<<<
365.73	227.03
365.92	227.03
366.12	227.03
366.32	215.33
366.52	194.26
366.72	145.11
366.91	156.82
367.11	177.88
367.31	56.17
367.51	145.11
367.70	220.01
367.90	182.56
368.10	138.09
368.30	203.63
368.49	152.13
368.69	124.05
368.89	236.39
369.09	194.26
369.28	224.69
369.48	135.75
369.68	262.14
369.87	201.29
370.07	259.80
370.27	294.91
370.47	395.55
370.66	449.38
370.86	517.26
371.06	528.96
371.25	585.13
371.45	500.87
371.65	540.66
371.84	524.28
372.04	575.77
372.24	585.13
372.44	519.60
372.63	526.62
372.83	596.84
373.03	622.58
373.22	496.19
373.42	540.66
373.62	557.05
373.81	650.67
374.01	662.37
374.21	678.76
374.40	730.25
374.60	648.33
374.79	676.41
374.99	674.07
375.19	650.67
375.38	676.41
375.58	671.73
375.78	704.50
375.97	725.57
376.17	645.99
376.37	718.54
376.56	683.44
376.76	667.05
376.95	678.76
377.15	648.33
377.35	772.38
377.54	748.97
377.74	704.50
377.93	695.14
378.13	692.80
378.33	734.93
378.52	671.73
378.72	744.29
378.91	655.35
379.11	711.52
379.31	704.50
379.50	690.46
379.70	772.38
379.89	671.73
380.09	653.01
380.28	760.67
380.48	765.36
380.68	755.99
380.87	723.23
381.07	758.33
381.26	802.80
381.46	744.29
381.65	767.70
381.85	814.51
382.04	826.21
382.24	744.29
382.43	821.53
382.63	805.14
382.83	814.51
383.02	814.51
383.22	739.61
383.41	807.48
383.61	765.36
383.80	781.74
384.00	786.42
384.19	894.08
384.39	856.64
384.58	837.91
384.78	798.12
384.97	847.27
385.17	854.30
385.36	842.59
385.56	819.19
385.75	882.38
385.95	896.43
386.14	795.78
386.34	805.14
386.53	849.61
386.72	936.21
386.92	919.83
387.11	870.68
387.31	889.40
387.50	882.38
387.70	795.78
387.89	912.81
388.09	807.48
388.28	844.93
388.48	887.06
388.67	917.49
388.86	870.68
389.06	936.21
389.25	917.49
389.45	997.07
389.64	1022.81
389.84	964.30
390.03	1046.22
390.22	1020.47
390.42	929.19
390.61	952.60
390.81	945.58
391.00	971.32
391.19	973.66
391.39	1034.52
391.58	901.11
391.78	947.92
391.97	997.07
392.16	1015.79
392.36	1041.54
392.55	1123.46
392.75	1041.54
392.94	1001.75
393.13	1093.03
393.33	1027.50
393.52	1025.15
393.71	1128.14
393.91	1001.75
394.10	990.05
394.29	1043.88
394.49	1116.44
394.68	1095.37
394.88	1118.78
395.07	1172.61
395.26	1121.12
395.46	1172.61
395.65	1132.82
395.84	1137.50
396.04	1254.53
396.23	1233.46
396.42	1179.63
396.62	1196.01
396.81	1224.10
397.00	1156.22
397.19	1266.23
397.39	1289.64
397.58	1242.82
397.77	1273.25
397.97	1306.02
398.16	1200.69
398.35	1280.27
398.55	1280.27
398.74	1301.34
398.93	1369.21
399.12	1247.51
399.32	1322.40
399.51	1306.02
399.70	1387.94
399.90	1418.36
400.09	1430.07
400.28	1476.88
400.47	1427.73
400.67	1416.02
400.86	1387.94
401.05	1404.32
401.24	1423.05
401.44	1493.26
401.63	1511.99
401.82	1397.30
402.01	1371.55
402.21	1486.24
402.40	1504.96
402.59	1540.07
402.78	1528.37
402.97	1535.39
403.17	1540.07
403.36	1516.67
403.55	1549.43
403.74	1572.84
403.93	1563.48
404.13	1671.14
404.32	1589.22
404.51	1678.16
404.70	1629.01
404.89	1657.10
405.09	1715.61
405.28	1689.87
405.47	1682.85
405.66	1605.61
405.85	1724.97
406.05	1680.50
406.24	1788.17
406.43	1790.51
406.62	1806.89
406.81	1783.49
407.00	1872.43
407.20	1757.74
407.39	1806.89
407.58	1785.83
407.77	1842.00
407.96	1870.09
408.15	1987.11
408.34	1954.35
408.54	1898.17
408.73	1947.33
408.92	1888.81
409.11	1956.69
409.30	2033.93
409.49	1954.35
409.68	1982.43
409.87	1970.73
410.07	2115.84
410.26	2054.99
410.45	2073.71
410.64	2090.10
410.83	2029.24
411.02	2010.52
411.21	2129.89
411.40	2251.60
411.59	2211.81
411.78	2239.89
411.98	2181.38
412.17	2317.13
412.36	2340.54
412.55	2345.22
412.74	2415.43
412.93	2328.83
413.12	2300.75
413.31	2382.67
413.50	2359.26
413.69	2417.77
413.88	2544.16
414.07	2462.24
414.26	2513.74
414.45	2502.03
414.64	2431.82
414.83	2558.21
415.02	2614.38
415.22	2626.08
415.41	2628.42
415.60	2609.70
415.79	2698.64
415.98	2745.45
416.17	2619.06
416.36	2771.19
416.55	2700.98
416.74	2768.85
416.93	2782.90
417.12	2848.43
417.31	2794.60
417.50	2855.45
417.69	2888.22
417.88	2993.55
418.07	2822.69
418.26	2981.84
418.45	2923.33
418.64	3089.51
418.83	2991.20
419.02	2949.08
419.21	3075.46
419.39	3042.70
419.58	3080.14
419.77	3045.04
419.96	3204.19
420.15	3131.64
420.34	3143.34
420.53	3241.64
420.72	3197.17
420.91	3157.38
421.10	3169.09
421.29	3243.98
421.48	3150.36
421.67	3330.58
421.86	3468.67
422.05	3255.69
422.24	3222.92
422.43	3426.54
422.61	3356.33
422.80	3421.86
422.99	3372.71
423.18	3396.12
423.37	3517.83
423.56	3410.16
423.75	3445.27
423.94	3323.56
424.13	3162.06
424.32	3396.12
424.50	3459.31
424.69	3487.40
424.88	3510.80
425.07	3419.52
425.26	3566.98
425.45	3489.74
425.64	3382.07
425.83	3447.61
426.01	3515.48
426.20	3604.42
426.39	3454.63
426.58	3421.86
426.77	3496.76
426.96	3583.36
427.15	3545.91
427.33	3548.25
427.52	3520.17
427.71	3604.42
427.90	3625.49
428.09	3700.39
428.28	3639.53
428.46	3691.02
428.65	3700.39
428.84	3831.46
429.03	3721.45
429.22	3632.51
429.40	3913.38
429.59	3786.99
429.78	3758.90
429.97	3702.73
430.16	3665.28
430.34	3899.33
430.53	3826.78
430.72	3803.37
430.91	3761.24
431.10	3831.46
431.28	3880.61
431.47	3962.53
431.66	4086.58
431.85	3969.55
432.03	4102.96
432.22	4182.54
432.41	4086.58
432.60	4032.74
432.79	3983.59
432.97	4128.70
433.16	4154.45
433.35	4133.39
433.54	4227.01
433.72	4217.65
433.91	4117.00
434.10	4257.43
434.28	4117.00
434.47	4231.69
434.66	4285.52
434.85	4224.67
435.03	4374.46
435.22	4332.33
435.41	4334.67
435.59	4311.27
435.78	4402.55
435.97	4315.95
436.16	4227.01
436.34	4428.29
436.53	4451.70
436.72	4622.56
436.90	4456.38
437.09	4505.53
437.28	4313.61
437.46	4447.02
437.65	4498.51
437.84	4676.39
438.02	4603.83
438.21	4702.14
438.40	4493.83
438.58	4706.82
438.77	4737.24
438.96	4629.58
439.14	4835.55
439.33	4908.10
439.52	4959.60
439.70	5006.41
439.89	5025.13
440.08	4990.02
440.26	4894.06
440.45	4924.49
440.63	5029.81
440.82	4915.12
441.01	5095.35
441.19	5247.48
441.38	5205.35
441.57	5397.28
441.75	5226.42
441.94	5586.86
442.12	5329.40
442.31	5483.88
442.50	5387.91
442.68	5509.62
442.87	5481.53
443.05	5561.11
443.24	5633.67
443.43	5350.46
443.61	5636.01
443.80	5872.40
443.98	5329.40
444.17	5479.19
444.35	5521.32
444.54	5724.95
444.73	5614.95
444.91	5596.22
445.10	5680.48
445.28	5598.56
445.47	5563.45
445.65	5792.83
445.84	5619.63
446.02	5671.12
446.21	5556.43
446.39	5799.85
446.58	5643.03
446.77	5717.93
446.95	5582.18
447.14	5645.37
447.32	5729.63
447.51	5884.11
447.69	5949.64
447.88	5713.25
448.06	5841.98
448.25	5769.42
448.43	5809.21
448.62	5755.38
448.80	5666.44
448.99	5769.42
449.17	5811.55
449.36	5774.10
449.54	5921.56
449.73	6033.90
449.91	6073.69
450.10	6047.94
450.28	6080.71
450.46	6083.05
450.65	6061.99
450.83	6157.95
451.02	6125.18
451.20	6197.74
451.39	6193.06
451.57	6143.91
451.76	6045.60
451.94	6064.33
452.13	6263.27
452.31	6216.46
452.49	6326.47
452.68	6307.74
452.86	6216.46
453.05	6305.40
453.23	6300.72
453.42	6375.62
453.60	6342.85
453.78	6415.41
453.97	6296.04
454.15	6497.33
454.34	6417.75
454.52	6511.37
454.70	6443.49
454.89	6520.73
455.07	6565.20
455.26	6623.72
455.44	6738.40
455.62	6832.02
455.81	6787.55
455.99	6722.02
456.17	6937.35
456.36	6642.44
456.54	6817.98
456.73	6988.84
456.91	7077.78
457.09	7019.27
457.28	7103.53
457.46	6970.12
457.64	7171.40
457.83	7087.14
458.01	6920.96
458.19	7258.00
458.38	7089.48
458.56	7075.44
458.74	6972.46
458.93	7232.26
459.11	7173.74
459.29	7344.60
459.48	7316.51
459.66	7215.87
459.84	7297.79
460.03	7662.91
460.21	7360.98
460.39	7234.60
460.57	7325.88
460.76	7604.40
460.94	7508.44
461.12	7531.84
461.31	7496.74
461.49	7419.50
461.67	7475.67
461.85	7854.84
462.04	7506.10
462.22	8044.42
462.40	7712.07
462.59	7772.92
462.77	7606.74
462.95	7847.82
463.13	7894.63
463.32	7812.71
463.50	7892.29
463.68	7889.95
463.86	7899.31
464.05	7789.30
464.23	7733.13
464.41	7793.98
464.59	7824.41
464.78	8063.15
464.96	8091.23
465.14	7906.33
465.32	8105.28
465.50	8259.75
465.69	8161.45
465.87	8084.21
466.05	8070.17
466.23	8091.23
466.41	8039.74
466.60	8400.18
466.78	8175.49
466.96	8248.05
467.14	8121.66
467.32	8201.24
467.51	8339.33
467.69	8203.58
467.87	8454.02
468.05	8360.39
468.23	8269.11
468.41	8196.56
468.60	8578.06
468.78	8519.55
468.96	8444.65
469.14	8512.53
469.32	8678.71
469.50	8446.99
469.69	8713.81
469.87	8704.45
470.05	8865.95
470.23	8762.97
470.41	8865.95
470.59	9027.45
470.77	8688.07
470.95	8943.19
471.14	9158.52
471.32	8636.58
471.50	9027.45
471.68	8997.02
471.86	9167.88
472.04	9217.03
472.22	9252.14
472.40	9029.79
472.58	9139.79
472.77	9287.25
472.95	9502.58
473.13	9757.69
473.31	9268.52
473.49	9301.29
473.67	9394.91
473.85	9369.16
474.03	9687.48
474.21	9799.82
474.39	9916.85
474.57	9788.12
474.75	9837.27
474.93	10019.83
475.12	9923.87
475.30	10038.56
475.48	9921.53
475.66	10230.48
475.84	10164.95
476.02	10188.35
476.20	10246.87
476.38	10333.47
476.56	10731.36
476.74	10296.02
476.92	10499.64
477.10	10396.66
477.28	10719.65
477.46	10628.37
477.64	10689.23
477.82	10827.32
478.00	11164.36
478.18	11117.54
478.36	11463.94
478.54	11473.31
478.72	11225.21
478.90	11286.06
479.08	11683.95
479.26	11639.48
479.44	11435.86
479.62	11634.80
479.80	11742.47
479.98	11997.59
480.16	12149.72
480.34	12032.69
480.52	12248.02
480.70	12456.33
480.88	12049.08
481.06	12388.46
481.24	12491.44
481.41	12594.42
481.59	12793.37
481.77	12603.78
481.95	13025.08
482.13	13109.34
482.31	13081.25
482.49	13280.20
482.67	13303.60
482.85	13415.95
483.03	13783.41
483.21	13767.03
483.39	13867.67
483.57	13631.28
483.74	13830.23
483.92	14214.07
484.10	14010.45
484.28	14031.51
484.46	14347.48
484.64	14431.74
484.82	14726.65
485.00	14590.90
485.18	14944.32
485.35	15047.30
485.53	14949.00
485.71	15183.06
485.89	15459.24
486.07	15735.42
486.25	15611.37
486.43	15445.20
486.61	15641.80
486.78	15735.42
486.96	15559.88
487.14	16074.80
487.32	16166.08
487.50	16311.19
487.68	16320.56
487.85	16702.06
488.03	17003.99
488.21	16812.07
488.39	17001.65
488.57	17188.89
488.75	17280.18
488.92	17268.47
489.10	17657.00
489.28	17376.14
489.46	17584.44
489.64	17788.07
489.81	18085.32
489.99	18134.47
490.17	18415.34
490.35	18204.69
490.53	18705.56
490.70	18635.35
490.88	18398.95
491.06	18916.21
491.24	18958.34
491.41	19051.96
491.59	19407.72
491.77	19016.85
491.95	19644.12
492.13	19695.61
492.30	19433.47
492.48	20020.94
492.66	20049.03
492.84	20215.21
493.01	20189.46
493.19	20030.30
493.37	20313.51
493.54	20533.52
493.72	20877.58
493.90	20570.97
494.08	20987.58
494.25	20947.79
494.43	21329.30
494.61	21113.97
494.79	21289.51
494.96	21291.85
495.14	21542.29
495.32	21507.18
495.49	21837.20
495.67	21748.26
495.85	22089.98
496.02	22436.38
496.20	22244.45
496.38	22092.32
496.55	22480.85
496.73	22925.55
496.91	22600.21
497.09	23012.15
497.26	23000.44
497.44	22972.36
497.62	23049.60
497.79	23321.10
497.97	23335.14
498.14	23627.71
498.32	23751.76
498.50	23419.40
498.67	23990.49
498.85	23824.31
499.03	24077.09
499.20	24077.09
499.38	24049.00
499.56	24116.88
499.73	24261.99
499.91	24243.27
500.08	24812.02
500.26	24900.96
500.44	24671.59
500.61	24542.86
500.79	24662.22
500.97	25046.07
501.14	25287.15
501.32	25696.74
501.49	25495.46
501.67	25230.98
501.84	25867.60
502.02	25518.86
502.20	25701.42
502.37	25830.15
502.55	25682.70
502.72	26099.31
502.90	25954.20
503.07	26036.12
503.25	26291.24
503.43	26232.72
503.60	26246.77
503.78	26155.49
503.95	26251.45
504.13	26443.37
504.30	26628.27
504.48	26412.95
504.65	26792.11
504.83	26927.86
505.01	27236.81
505.18	27012.12
505.36	27054.25
505.53	26979.36
505.71	26988.72
505.88	27283.62
506.06	27358.52
506.23	27498.95
506.41	27576.19
506.58	27367.88
506.76	27779.82
506.93	28032.60
507.11	27894.50
507.28	28423.47
507.46	28098.13
507.63	28329.84
507.81	28617.73
507.98	28175.37
508.16	28325.16
508.33	28914.98
508.50	28631.77
508.68	28910.30
508.85	29008.60
509.03	29010.94
509.20	29078.82
509.38	29120.95
509.55	29472.03
509.73	29219.25
509.90	29294.14
510.08	29294.14
510.25	29610.12
510.42	29572.67
510.60	29708.42
510.77	29809.06
510.95	29949.50
511.12	29713.10
511.30	29933.11
511.47	29935.45
511.64	30202.27
511.82	30148.44
511.99	30043.12
512.17	30258.45
512.34	30597.82
512.51	30740.60
512.69	30869.33
512.86	30560.37
513.04	31112.74
513.21	30352.07
513.38	31091.68
513.56	30820.17
513.73	30897.41
513.90	30759.32
514.08	31267.22
514.25	31328.07
514.43	31508.29
514.60	31529.36
514.77	31585.53
514.95	31550.42
515.12	31770.43
515.29	31578.51
515.47	32226.84
515.64	32123.85
515.81	32184.71
515.99	32046.62
516.16	32182.37
516.33	32292.37
516.51	32463.23
516.68	32093.43
516.85	32556.85
517.03	32538.13
517.20	32634.09
517.37	32531.11
517.54	32606.00
517.72	32802.61
517.89	33151.35
518.06	33120.92
518.24	33130.28
518.41	33289.44
518.58	33024.96
518.75	32830.69
518.93	33654.56
519.10	33184.12
519.27	33715.42
519.45	33446.26
519.62	33773.93
519.79	33890.96
519.96	33457.96
520.14	33921.38
520.31	33397.10
520.48	33853.51
520.65	33909.68
520.83	34174.16
521.00	34490.13
521.17	33951.81
521.34	34157.78
521.52	34742.91
521.69	34895.05
521.86	34686.74
522.03	34593.12
522.20	34822.49
522.38	35138.46
522.55	35276.55
522.72	35065.91
522.89	35056.54
523.07	35299.96
523.24	35201.66
523.41	35775.09
523.58	34885.68
523.75	35316.34
523.92	35101.01
524.10	35351.45
524.27	35838.28
524.44	35798.49
524.61	36163.62
524.78	35538.69
524.96	36161.28
525.13	35508.27
525.30	36041.91
525.47	36051.27
525.64	36182.34
525.81	36601.30
525.98	36542.78
526.16	36463.21
526.33	36725.35
526.50	36254.90
526.67	36329.80
526.84	36753.43
527.01	36444.48
527.18	36613.00
527.36	36833.01
527.53	36837.69
527.70	37193.45
527.87	37064.72
528.04	36776.84
528.21	37179.41
528.38	37291.76
528.55	37490.70
528.72	37081.11
528.89	37118.56
529.07	37970.51
529.24	37055.36
529.41	37778.59
529.58	37563.26
529.75	37415.80
529.92	37731.78
530.09	37116.22
530.26	37703.69
530.43	38092.22
530.60	37633.47
530.77	37638.15
530.94	38094.56
531.11	37670.92
531.28	37930.72
531.46	37673.26
531.63	38256.06
531.80	37649.86
531.97	38309.89
532.14	38412.87
532.31	38265.42
532.48	38632.88
532.65	38614.16
532.82	38595.43
532.99	38574.37
533.16	38438.62
533.33	39037.80
533.50	38993.32
533.67	38506.49
533.84	38373.08
534.01	38677.35
534.18	38349.68
534.35	39372.49
534.52	39208.65
534.69	39501.22
534.86	39613.57
535.03	39250.78
535.20	39379.51
535.37	39770.38
535.54	39597.18
535.71	39562.08
535.88	39342.06
536.05	39519.95
536.22	39784.43
536.38	39232.06
536.55	39433.35
536.72	39606.55
536.89	39686.12
537.06	39580.80
537.23	39974.01
537.40	39463.77
537.57	39491.86
537.74	39672.08
537.91	39812.51
538.08	39824.22
538.25	39641.65
538.42	40397.65
538.59	40505.31
538.75	39730.59
538.92	40505.31
539.09	40509.99
539.26	40524.04
539.43	40687.87
539.60	40774.47
539.77	40769.79
539.94	40903.20
540.11	40973.42
540.28	41010.87
540.44	40355.52
540.61	40793.20
540.78	40371.90
540.95	41003.85
541.12	40460.84
541.29	40954.69
541.46	40886.82
541.62	41074.06
541.79	40959.38
541.96	40814.26
542.13	40774.47
542.30	41486.00
542.47	41415.78
542.63	41649.83
542.80	41457.91
542.97	41581.96
543.14	42029.00
543.31	41851.12
543.48	41848.78
543.64	42087.51
543.81	42131.98
543.98	41958.78
544.15	41801.97
544.32	41900.27
544.48	42270.08
544.65	42197.52
544.82	42148.37
544.99	41823.03
545.16	41963.46
545.32	42239.65
545.49	42415.19
545.66	42445.62
545.83	42595.41
546.00	42698.39
546.16	42848.19
546.33	42043.04
546.50	42110.92
546.67	42609.45
546.83	42492.43
547.00	42714.78
547.17	42621.16
547.34	42426.89
547.50	43084.58
547.67	43007.34
547.84	42518.17
548.00	43012.02
548.17	43543.33
548.34	43482.47
548.51	43159.48
548.67	43192.25
548.84	43182.88
549.01	43012.02
549.18	43241.40
549.34	43480.13
549.51	43578.43
549.68	43730.57
549.84	43416.94
550.01	43459.07
550.18	43264.80
550.34	43505.88
550.51	43683.76
550.68	43763.34
550.84	43861.64
551.01	43576.09
551.18	43782.06
551.34	43779.72
551.51	43800.79
551.68	43887.39
551.84	43269.48
552.01	43679.08
552.18	43700.14
552.34	43636.95
552.51	44048.88
552.68	43796.10
552.84	44205.70
553.01	44147.18
553.18	44088.67
553.34	43943.56
553.51	44147.18
553.67	43906.11
553.84	44048.88
554.01	44151.87
554.17	44357.83
554.34	44177.61
554.51	44238.47
554.67	44219.74
554.84	44769.77
555.00	44636.36
555.17	44374.22
555.33	44870.41
555.50	44570.82
555.67	44980.42
555.83	44741.68
556.00	44739.34
556.16	45104.46
556.33	44776.79
556.50	44678.49
556.66	44942.97
556.83	44767.43
556.99	45113.83
557.16	44954.67
557.32	45144.25
557.49	45418.10
557.65	44570.82
557.82	44989.78
557.98	45064.67
558.15	45268.30
558.32	45560.87
558.48	44690.19
558.65	45390.01
558.81	45013.18
558.98	45043.61
559.14	45045.95
559.31	45368.94
559.47	45457.88
559.64	45523.42
559.80	45317.45
559.97	45235.53
560.13	44931.26
560.30	45481.29
560.46	45619.38
560.63	45312.77
560.79	45827.69
560.96	45710.66
561.12	45574.91
561.29	45705.98
561.45	45574.91
561.61	45727.05
561.78	45420.44
561.94	45684.92
562.11	45441.50
562.27	45748.11
562.44	45675.55
562.60	45703.64
562.77	45815.99
562.93	45478.95
563.10	46012.59
563.26	45869.82
563.42	46344.95
563.59	45757.47
563.75	45565.55
563.92	45846.41
564.08	45851.09
564.24	45844.07
564.41	45801.94
564.57	46103.87
564.74	45937.69
564.90	45925.99
565.07	45794.92
565.23	46171.75
565.39	45628.74
565.56	46632.83
565.72	45893.22
565.88	45944.72
566.05	45893.22
566.21	46019.61
566.38	46075.79
566.54	46293.46
566.70	46335.59
566.87	46316.86
567.03	45581.93
567.19	46328.56
567.36	46181.11
567.52	46309.84
567.68	46398.78
567.85	46227.92
568.01	46417.50
568.17	46335.59
568.34	46595.38
568.50	46330.90
568.66	46314.52
568.83	46293.46
568.99	46836.46
569.15	46433.89
569.32	46129.62
569.48	46120.26
569.64	46995.62
569.81	46883.27
569.97	46408.14
570.13	46401.12
570.30	46064.08
570.46	46550.91
570.62	46834.12
570.78	46415.16
570.95	46419.84
571.11	46773.27
571.27	46466.66
571.43	46586.02
571.60	46115.58
571.76	46665.60
571.92	46742.84
572.09	46693.69
572.25	46422.19
572.41	46595.38
572.57	46593.04
572.74	46494.74
572.90	46602.41
573.06	46571.98
573.22	46679.64
573.38	46773.27
573.55	46621.13
573.71	47339.68
573.87	47112.64
574.03	46988.60
574.20	46866.89
574.36	47147.75
574.52	47168.82
574.68	47000.30
574.84	46944.12
575.01	47192.22
575.17	46981.57
575.33	46885.61
575.49	46618.79
575.65	47344.36
575.82	46904.34
575.98	46569.64
576.14	47288.18
576.30	47290.52
576.46	47157.11
576.62	47150.09
576.79	46864.55
576.95	46749.86
577.11	46993.28
577.27	46904.34
577.43	47075.19
577.59	47229.67
577.75	46630.49
577.92	46724.11
578.08	46782.63
578.24	47084.56
578.40	47000.30
578.56	47283.50
578.72	47416.91
578.88	47044.77
579.04	46880.93
579.21	46969.87
579.37	47091.58
579.53	47236.69
579.69	46848.16
579.85	46836.46
580.01	47030.72
580.17	46836.46
580.33	47428.62
580.49	47360.74
580.65	47168.82
580.82	47459.04
580.98	46925.40
581.14	46993.28
581.30	47086.90
581.46	47000.30
581.62	47110.30
581.78	46597.73
581.94	47543.30
582.10	46822.42
582.26	47138.39
582.42	47276.48
582.58	46995.62
582.74	47000.30
582.90	47526.92
583.06	46864.55
583.22	46932.42
583.38	47416.91
583.54	47187.54
583.70	47344.36
583.86	47459.04
584.02	46986.25
584.18	47269.46
584.34	47388.83
584.50	47473.09
584.66	47402.87
584.82	47339.68
584.98	47828.85
585.14	47332.65
585.30	47119.66
585.46	47374.78
585.62	47007.32
585.78	47292.86
585.94	47370.10
586.10	47065.83
586.26	47009.66
586.42	47084.56
586.58	47325.63
586.74	47182.86
586.90	47103.28
587.06	47199.24
587.22	47077.54
587.38	47201.58
587.54	47253.08
587.70	47622.88
587.86	47564.37
588.02	47318.61
588.18	47189.88
588.34	47260.10
588.49	47416.91
588.65	47260.10
588.81	47339.68
588.97	47576.07
589.13	47253.08
589.29	47459.04
589.45	47175.84
589.61	47508.19
589.77	47316.27
589.93	47758.63
590.08	47470.75
590.24	47814.80
590.40	47688.42
590.56	48060.56
590.72	47646.29
590.88	47262.44
591.04	47927.15
591.20	47756.29
591.35	47800.76
591.51	48142.48
591.67	47585.43
591.83	47971.62
591.99	47777.36
592.15	47454.36
592.31	47660.33
592.46	48039.50
592.62	47491.81
592.78	48144.82
592.94	48126.10
593.10	47903.74
593.26	48098.01
593.41	48128.44
593.57	48009.07
593.73	47885.02
593.89	48451.43
594.05	48327.38
594.20	48217.38
594.36	48233.76
594.52	47978.64
594.68	47999.71
594.84	47440.32
594.99	48458.45
595.15	48002.05
595.31	47789.06
595.47	47966.94
595.62	48128.44
595.78	47882.68
595.94	48266.53
596.10	48198.65
596.25	48287.59
596.41	48137.80
596.57	47730.54
596.73	48271.21
596.88	48217.38
597.04	48458.45
597.20	48128.44
597.36	48128.44
597.51	48133.12
597.67	47803.10
597.83	47798.42
597.99	48486.54
598.14	48245.46
598.30	48320.36
598.46	48222.06
598.61	48264.19
598.77	48219.72
598.93	48280.57
599.09	48098.01
599.24	48264.19
599.40	48226.74
599.56	47798.42
599.71	48184.61
599.87	48704.21
600.03	48479.52
600.18	48189.29
600.34	48126.10
600.50	48079.28
600.65	48065.24
600.81	48395.26
600.97	47915.45
601.12	48362.49
601.28	48168.22
601.44	48095.67
601.59	47999.71
601.75	48051.20
601.91	48748.68
602.06	48257.17
602.22	48112.05
602.37	48224.40
602.53	48119.07
602.69	48325.04
602.84	47880.34
603.00	48041.84
603.16	48423.34
603.31	48044.18
603.47	48198.65
603.62	48357.81
603.78	48488.88
603.94	48339.08
604.09	48168.22
604.25	48308.66
604.40	47784.38
604.56	48296.95
604.71	48603.56
604.87	48193.97
605.03	48023.11
605.18	48423.34
605.34	48526.33
605.49	48079.28
605.65	48151.84
605.80	48095.67
605.96	47679.05
606.12	48027.79
606.27	48346.11
606.43	47845.23
606.58	48144.82
606.74	48313.34
606.89	47927.15
607.05	48318.02
607.20	48802.51
607.36	47814.80
607.51	48037.16
607.67	48142.48
607.82	48259.51
607.98	47821.83
608.13	48079.28
608.29	47929.49
608.44	48095.67
608.60	48334.40
608.75	48147.16
608.91	48170.57
609.06	47924.81
609.22	48247.80
609.37	47878.00
609.53	48083.97
609.68	47920.13
609.84	47812.46
609.99	47929.49
610.15	47906.08
610.30	48205.67
610.46	47505.85
610.61	48081.63
610.76	48128.44
610.92	47672.03
611.07	47889.70
611.23	47765.65
611.38	47847.57
611.54	48116.73
611.69	48285.25
611.84	47901.40
612.00	47634.58
612.15	47437.98
612.31	47948.21
612.46	47381.80
612.62	47725.86
612.77	47508.19
612.92	48004.39
613.08	47679.05
613.23	48189.29
613.39	47676.71
613.54	47070.51
613.69	47835.87
613.85	47693.10
614.00	47599.47
614.15	47796.08
614.31	47199.24
614.46	47735.23
614.62	47440.32
614.77	47552.66
614.92	47655.65
615.08	47557.35
615.23	47627.56
615.38	47737.57
615.54	47749.27
615.69	47482.45
615.84	47599.47
616.00	47683.73
616.15	47323.29
616.30	47545.64
616.46	47547.98
616.61	47295.21
616.76	47618.20
616.92	47124.35
617.07	47416.91
617.22	47012.00
617.37	46749.86
617.53	47973.96
617.68	46988.60
617.83	47447.34
617.99	47845.23
618.14	46993.28
618.29	46791.99
618.45	46663.26
618.60	47353.72
618.75	46820.08
618.90	46930.08
619.06	47035.41
619.21	46955.83
619.36	47276.48
619.51	46948.81
619.67	46602.41
619.82	46894.97
619.97	47505.85
620.12	46731.14
620.28	47047.11
620.43	47150.09
620.58	46663.26
620.73	46747.52
620.89	47012.00
621.04	46979.23
621.19	46852.84
621.34	46672.62
621.49	46756.88
621.65	46777.95
621.80	47114.98
621.95	46756.88
622.10	46845.82
622.25	46461.97
622.41	46550.91
622.56	46623.47
622.71	46616.45
622.86	46373.03
623.01	46518.15
623.16	46476.02
623.32	46234.94
623.47	46256.01
623.62	46506.44
623.77	46525.17
623.92	46614.11
624.07	46342.61
624.23	46906.68
624.38	46754.54
624.53	46637.51
624.68	46110.89
624.83	46349.63
624.98	46389.42
625.13	45710.66
625.29	46005.57
625.44	46162.39
625.59	46380.06
625.74	46024.29
625.89	45869.82
626.04	45851.09
626.19	46199.83
626.34	46213.88
626.49	45853.44
626.65	45794.92
626.80	45860.46
626.95	45799.60
627.10	45525.76
627.25	46230.26
627.40	45628.74
627.55	46232.60
627.70	45958.76
627.85	46110.89
628.00	46059.40
628.15	45635.77
628.30	45675.55
628.45	45427.46
628.60	45471.93
628.76	45523.42
628.91	45427.46
629.06	45237.87
629.21	45263.62
629.36	45790.24
629.51	45177.02
629.66	45551.51
629.81	45254.26
629.96	45722.37
630.11	45109.14
630.26	45242.56
630.41	45598.32
630.56	45235.53
630.71	45425.12
630.86	44980.42
631.01	45223.83
631.16	44804.88
631.31	45132.55
631.46	45301.07
631.61	45586.61
631.76	45387.67
631.91	45170.00
632.06	45504.70
632.21	45511.72
632.36	45710.66
632.51	45219.15
632.66	44776.79
632.81	45010.84
632.96	44854.03
633.10	44762.75
633.25	45247.24
633.40	44479.54
633.55	45610.02
633.70	44582.52
633.85	44802.53
634.00	44650.40
634.15	44484.22
634.30	44409.32
634.45	44524.01
634.60	44734.66
634.75	44701.89
634.90	44594.23
635.05	45006.16
635.19	44683.17
635.34	44835.30
635.49	44704.23
635.64	44713.59
635.79	44772.11
635.94	44444.43
636.09	44577.84
636.24	44435.07
636.39	44357.83
636.53	44446.77
636.68	43957.60
636.83	44201.02
636.98	44402.30
637.13	44219.74
637.28	44222.08
637.43	43992.71
637.57	44453.79
637.72	43950.58
637.87	44020.80
638.02	44285.28
638.17	44105.06
638.32	44509.97
638.46	43611.20
638.61	43606.52
638.76	44006.75
638.91	43632.27
639.06	43749.29
639.20	43662.69
639.35	43658.01
639.50	43283.53
639.65	43840.57
639.80	44107.40
639.94	44130.80
640.09	44170.59
640.24	43981.01
640.39	43440.34
640.54	43562.05
640.68	43791.42
640.83	43695.46
640.98	43611.20
641.13	43592.48
641.27	43859.30
641.42	43438.00
641.57	43688.44
641.72	43700.14
641.86	43187.56
642.01	43400.55
642.16	43180.54
642.31	43253.10
642.45	43339.70
642.60	43217.99
642.75	43409.92
642.90	43730.57
643.04	43419.28
643.19	43161.82
643.34	43119.69
643.48	42976.92
643.63	42857.55
643.78	43253.10
643.93	43580.78
644.07	43107.99
644.22	43428.64
644.37	42927.77
644.51	43012.02
644.66	43072.88
644.81	43122.03
644.95	43213.31
645.10	42726.48
645.25	42602.43
645.39	42969.90
645.54	43402.89
645.69	42506.47
645.83	42347.31
645.98	42555.62
646.13	42731.16
646.27	42433.91
646.42	42574.34
646.57	42548.60
646.71	42871.59
646.86	42288.80
647.00	42873.93
647.15	43049.47
647.30	43143.09
647.44	42747.54
647.59	42316.89
647.74	42281.78
647.88	42731.16
648.03	42630.52
648.17	42880.95
648.32	42756.91
648.47	42972.24
648.61	42204.54
648.76	42494.77
648.90	42043.04
649.05	42326.25
649.20	42576.69
649.34	42073.47
649.49	42087.51
649.63	42724.14
649.78	42494.77
649.92	42150.71
650.07	42525.19
650.21	42312.20
650.36	42768.61
650.51	41982.19
650.65	42225.60
650.80	42572.00
650.94	42136.66
651.09	41998.57
651.23	41993.89
651.38	41886.23
651.52	41392.37
651.67	41776.22
651.81	41958.78
651.96	41968.15
652.10	41933.04
652.25	41251.94
652.39	41502.38
652.54	41935.38
652.68	41823.03
652.83	41626.43
652.97	41902.61
653.12	41603.02
653.26	41713.03
653.41	41663.88
653.55	41469.61
653.70	41823.03
653.84	41661.54
653.99	41996.23
654.13	41787.92
654.27	41439.18
654.42	41876.86
654.56	41287.05
654.71	41347.90
654.85	41301.09
655.00	41738.77
655.14	41383.01
655.29	41949.42
655.43	41415.78
655.57	41214.49
655.72	40978.10
655.86	41528.13
656.01	41099.81
656.15	40872.78
656.30	41207.47
656.44	41022.57
656.58	41085.76
656.73	41294.07
656.87	40669.15
657.01	40978.10
657.16	41340.88
657.30	40577.87
657.45	41111.51
657.59	40957.03
657.73	40605.95
657.88	40720.64
658.02	40692.55
658.16	40926.61
658.31	40753.41
658.45	40540.42
658.60	40662.13
658.74	40301.68
658.88	40533.40
659.03	40641.06
659.17	40076.99
659.31	39990.39
659.46	39950.60
659.60	40608.29
659.74	40273.60
659.89	39770.38
660.03	39765.70
660.17	40268.92
660.32	39957.63
660.46	39812.51
660.60	40055.93
660.74	40095.72
660.89	39988.05
661.03	39655.70
661.17	39702.51
661.32	39819.53
661.46	40060.61
661.60	39730.59
661.74	39426.32
661.89	39494.20
662.03	39428.66
662.17	39381.85
662.31	39166.52
662.46	39608.89
662.60	39306.96
662.74	38782.68
662.88	38843.53
663.03	38778.00
663.17	38813.10
663.31	38883.32
663.45	39241.42
663.60	38988.64
663.74	39335.04
663.88	38981.62
664.02	38824.81
664.17	39175.89
664.31	38473.73
664.45	38782.68
664.59	38728.84
664.73	38249.03
664.88	38780.34
665.02	38232.65
665.16	38258.40
665.30	38110.94
665.44	38206.90
665.59	38099.24
665.73	38057.11
665.87	37708.37
666.01	37879.23
666.15	38150.73
666.29	38075.84
666.44	38031.36
666.58	37853.48
666.72	37883.91
666.86	37631.13
667.00	37862.85
667.14	37549.21
667.28	37577.30
667.43	37418.14
667.57	37291.76
667.71	37523.47
667.85	37642.84
667.99	37273.03
668.13	37123.24
668.27	36713.64
668.41	36788.54
668.56	36367.24
668.70	36613.00
668.84	36510.02
668.98	36498.31
669.12	36851.73
669.26	36863.44
669.40	36425.76
669.54	36659.81
669.68	36392.99
669.82	36449.16
669.96	36252.56
670.10	36201.07
670.25	36072.34
670.39	36091.06
670.53	36123.83
670.67	36301.71
670.81	36128.51
670.95	36257.24
671.09	35934.24
671.23	35641.68
671.37	35952.97
671.51	35800.83
671.65	35316.34
671.79	35557.42
671.93	35566.78
672.07	35646.36
672.21	35189.95
672.35	35342.09
672.49	35021.44
672.63	34946.54
672.77	35016.75
672.91	35267.19
673.05	34941.86
673.19	34628.23
673.33	34550.99
673.47	34927.81
673.61	34478.43
673.75	34298.21
673.89	34256.08
674.03	33804.36
674.17	33628.82
674.31	33820.74
674.45	33876.91
674.59	34279.49
674.73	33853.51
674.87	33804.36
675.01	33539.88
675.15	33315.19
675.29	33600.73
675.43	33167.73
675.56	33708.40
675.70	33797.34
675.84	33333.91
675.98	32084.06
676.12	32748.78
676.26	33024.96
676.40	32760.48
676.54	32222.16
676.68	33071.77
676.82	32180.03
676.96	32540.47
677.10	32811.97
677.23	32552.17
677.37	32313.44
677.51	32570.90
677.65	32563.87
677.79	31859.37
677.93	32116.83
678.07	32025.55
678.21	31491.91
678.34	31473.18
678.48	31346.79
678.62	31424.03
678.76	31405.31
678.90	31122.10
679.04	31267.22
679.18	31335.09
679.31	31131.47
679.45	30759.32
679.59	30511.22
679.73	30518.25
679.87	30398.88
680.00	30668.04
680.14	30209.29
680.28	30356.75
680.42	30511.22
680.56	30382.49
680.70	29731.83
680.83	29991.62
680.97	29535.22
681.11	29795.02
681.25	29731.83
681.39	29560.97
681.52	29355.00
681.66	29111.58
681.80	28840.08
681.94	28999.24
682.07	28926.68
682.21	28753.48
682.35	28528.79
682.49	28498.36
682.62	28489.00
682.76	28297.08
682.90	28245.58
683.04	28430.49
683.17	28060.68
683.31	28463.25
683.45	27843.01
683.59	27522.36
683.72	27772.80
683.86	27372.57
684.00	27524.70
684.13	27917.91
684.27	27290.65
684.41	27328.10
684.55	27236.81
684.68	27414.69
684.82	27091.70
684.96	26909.14
685.09	27089.36
685.23	26824.88
685.37	27199.37
685.50	27124.47
685.64	26565.08
685.78	26700.83
685.91	26146.12
686.05	25715.47
686.19	25738.87
686.32	25933.14
686.46	25689.72
686.60	25319.92
686.73	25970.58
686.87	25132.67
687.01	25865.26
687.14	25565.67
687.28	25261.40
687.42	25230.98
687.55	24940.75
687.69	25160.76
687.82	24844.79
687.96	24755.85
688.10	24971.18
688.23	24755.85
688.37	24819.04
688.50	24706.70
688.64	24273.70
688.78	24224.54
688.91	24332.21
689.05	24276.04
689.18	24159.01
689.32	23709.63
689.46	23700.26
689.59	23800.91
689.73	23735.37
689.86	24173.05
690.00	23578.56
690.13	23707.29
690.27	23260.24
690.41	23545.79
690.54	23183.01
690.68	23096.41
690.81	22745.33
690.95	22906.82
691.08	22419.99
691.22	22827.24
691.35	22368.50
691.49	22455.10
691.62	22684.47
691.76	22321.69
691.89	21986.99
692.03	21923.80
692.16	21703.79
692.30	22174.24
692.43	21769.32
692.57	21577.40
692.70	21853.58
692.84	21561.02
692.97	21600.80
693.11	21462.71
693.24	21144.40
693.38	21270.79
693.51	20807.36
693.65	20819.07
693.78	20898.64
693.92	20552.24
694.05	20884.60
694.19	20793.32
694.32	20362.66
694.45	20657.57
694.59	20575.65
694.72	20252.66
694.86	20116.90
694.99	19754.12
695.13	20292.44
695.26	19873.49
695.39	19611.35
695.53	19831.36
695.66	19592.62
695.80	19658.16
695.93	19538.79
696.07	19339.85
696.20	19044.94
696.33	19084.73
696.47	18853.02
696.60	19143.24
696.73	18857.70
696.87	18977.06
697.00	18831.95
697.14	18567.47
697.27	18298.31
697.40	18511.30
697.54	18508.96
697.67	18237.45
697.80	18551.09
697.94	18153.20
698.07	18071.28
698.21	18104.04
698.34	17888.71
698.47	17809.14
698.61	17621.89
698.74	17589.13
698.87	17502.53
699.01	17696.79
699.14	17406.56
699.27	17385.50
699.40	17053.14
699.54	17088.25
699.67	17151.45
699.80	17025.06
699.94	17074.21
700.07	17025.06
700.20	16762.92
700.34	16631.85
700.47	16919.73
700.60	16915.05
700.73	16706.74
700.87	16130.97
701.00	16074.80
701.13	16294.81
701.26	16006.92
701.40	16339.28
701.53	16210.55
701.66	15978.84
701.79	16006.92
701.93	15646.48
702.06	15667.55
702.19	15536.48
702.32	15435.83
702.46	15527.11
702.59	15510.73
702.72	15868.83
702.85	15323.49
702.99	15126.88
703.12	15557.54
703.25	14934.96
703.38	14831.97
703.51	15051.99
703.65	14839.00
703.78	14532.39
703.91	14670.48
704.04	14551.11
704.17	14455.15
704.31	14382.59
704.44	14443.45
704.57	14537.07
704.70	14429.40
704.83	14223.44
704.96	14134.50
705.10	14047.90
705.23	13870.01
>>>>>End Processed Spectral Data<<<<<
