SpectraSuite Data File
++++++++++++++++++++++++++++++++++++
Date: Fri Oct 25 11:33:17 EDT 2013
User: price-jones
Dark Spectrum Present: No
Reference Spectrum Present: No
Number of Sampled Component Spectra: 1
Spectrometers: USB2+H05261
Integration Time (usec): 100000 (USB2+H05261)
Spectra Averaged: 1 (USB2+H05261)
Boxcar Smoothing: 0 (USB2+H05261)
Correct for Electrical Dark: No (USB2+H05261)
Strobe/Lamp Enabled: No (USB2+H05261)
Correct for Detector Non-linearity: No (USB2+H05261)
Correct for Stray Light: No (USB2+H05261)
Number of Pixels in Processed Spectrum: 2048
>>>>>Begin Processed Spectral Data<<<<<
365.73	273.84
365.92	273.84
366.12	273.84
366.32	142.77
366.52	184.90
366.72	177.88
366.91	102.98
367.11	198.95
367.31	147.45
367.51	191.92
367.70	259.80
367.90	196.60
368.10	175.54
368.30	191.92
368.49	184.90
368.69	124.05
368.89	100.64
369.09	184.90
369.28	182.56
369.48	168.52
369.68	252.78
369.87	243.42
370.07	241.08
370.27	285.55
370.47	381.51
370.66	477.47
370.86	512.58
371.06	554.71
371.25	550.03
371.45	566.41
371.65	613.22
371.84	526.62
372.04	510.24
372.24	545.34
372.44	554.71
372.63	610.88
372.83	580.45
373.03	624.92
373.22	622.58
373.42	648.33
373.62	613.22
373.81	699.82
374.01	638.97
374.21	634.29
374.40	629.60
374.60	713.86
374.79	587.47
374.99	641.31
375.19	676.41
375.38	667.05
375.58	718.54
375.78	692.80
375.97	704.50
376.17	746.63
376.37	662.37
376.56	643.65
376.76	643.65
376.95	671.73
377.15	699.82
377.35	641.31
377.54	669.39
377.74	758.33
377.93	723.23
378.13	784.08
378.33	730.25
378.52	751.31
378.72	636.63
378.91	723.23
379.11	709.18
379.31	737.27
379.50	723.23
379.70	751.31
379.89	720.88
380.09	681.10
380.28	655.35
380.48	734.93
380.68	751.31
380.87	645.99
381.07	734.93
381.26	690.46
381.46	791.10
381.65	786.42
381.85	765.36
382.04	748.97
382.24	751.31
382.43	695.14
382.63	760.67
382.83	784.08
383.02	758.33
383.22	826.21
383.41	730.25
383.61	833.23
383.80	861.32
384.00	760.67
384.19	856.64
384.39	856.64
384.58	809.83
384.78	959.62
384.97	903.45
385.17	863.66
385.36	793.44
385.56	770.04
385.75	814.51
385.95	861.32
386.14	772.38
386.34	826.21
386.53	861.32
386.72	851.96
386.92	842.59
387.11	866.00
387.31	842.59
387.50	861.32
387.70	812.17
387.89	947.92
388.09	1020.47
388.28	964.30
388.48	884.72
388.67	1006.43
388.86	990.05
389.06	837.91
389.25	983.02
389.45	990.05
389.64	994.73
389.84	1001.75
390.03	959.62
390.22	1001.75
390.42	915.15
390.61	952.60
390.81	903.45
391.00	1001.75
391.19	1032.18
391.39	1057.92
391.58	1004.09
391.78	980.68
391.97	1067.28
392.16	1015.79
392.36	1067.28
392.55	1027.50
392.75	1029.84
392.94	1055.58
393.13	1163.25
393.33	1057.92
393.52	1078.99
393.71	1128.14
393.91	1165.59
394.10	1083.67
394.29	1102.39
394.49	1109.41
394.68	1137.50
394.88	1196.01
395.07	1142.18
395.26	1193.67
395.46	1074.31
395.65	1139.84
395.84	1158.57
396.04	1191.33
396.23	1151.54
396.42	1165.59
396.62	1242.82
396.81	1240.48
397.00	1109.41
397.19	1238.14
397.39	1137.50
397.58	1163.25
397.77	1331.76
397.97	1275.59
398.16	1233.46
398.35	1399.64
398.55	1334.11
398.74	1196.01
398.93	1327.08
399.12	1249.85
399.32	1357.51
399.51	1289.64
399.70	1434.75
399.90	1394.96
400.09	1406.66
400.28	1423.05
400.47	1404.32
400.67	1409.00
400.86	1437.09
401.05	1399.64
401.24	1348.15
401.44	1493.26
401.63	1455.81
401.82	1458.15
402.01	1497.94
402.21	1474.54
402.40	1495.60
402.59	1490.92
402.78	1488.58
402.97	1533.05
403.17	1586.88
403.36	1528.37
403.55	1549.43
403.74	1584.54
403.93	1596.25
404.13	1579.86
404.32	1568.16
404.51	1600.93
404.70	1614.97
404.89	1617.31
405.09	1643.06
405.28	1715.61
405.47	1694.55
405.66	1682.85
405.85	1717.95
406.05	1825.62
406.24	1767.10
406.43	1795.19
406.62	1860.73
406.81	1762.42
407.00	1837.32
407.20	1795.19
407.39	1767.10
407.58	1891.15
407.77	1804.55
407.96	1884.13
408.15	1914.56
408.34	1844.34
408.54	1961.37
408.73	1916.90
408.92	1888.81
409.11	1968.39
409.30	2078.40
409.49	2111.16
409.68	1966.05
409.87	2097.12
410.07	2080.74
410.26	2038.61
410.45	2057.33
410.64	2066.69
410.83	2122.87
411.02	2097.12
411.21	2165.00
411.40	2113.50
411.59	2277.34
411.78	2279.68
411.98	2263.30
412.17	2289.04
412.36	2263.30
412.55	2352.24
412.74	2380.32
412.93	2443.52
413.12	2270.32
413.31	2389.69
413.50	2466.92
413.69	2394.37
413.88	2562.89
414.07	2420.11
414.26	2492.67
414.45	2544.16
414.64	2504.37
414.83	2555.86
415.02	2630.76
415.22	2595.65
415.41	2616.72
415.60	2724.38
415.79	2710.34
415.98	2752.47
416.17	2773.53
416.36	2731.41
416.55	2885.88
416.74	2913.97
416.93	2801.62
417.12	2813.32
417.31	2897.58
417.50	2867.16
417.69	2953.76
417.88	2981.84
418.07	2986.52
418.26	2935.03
418.45	2988.86
418.64	3005.25
418.83	3000.57
419.02	3080.14
419.21	3164.40
419.39	3173.77
419.58	3084.83
419.77	3164.40
419.96	3108.23
420.15	3265.05
420.34	3061.42
420.53	3176.11
420.72	3304.84
420.91	3335.26
421.10	3225.26
421.29	3534.21
421.48	3349.31
421.67	3428.88
421.86	3239.30
422.05	3283.77
422.24	3262.71
422.43	3417.18
422.61	3323.56
422.80	3414.84
422.99	3445.27
423.18	3513.14
423.37	3445.27
423.56	3431.23
423.75	3356.33
423.94	3527.19
424.13	3091.85
424.32	3243.98
424.50	3419.52
424.69	3543.57
424.88	3459.31
425.07	3618.47
425.26	3361.01
425.45	3398.46
425.64	3527.19
425.83	3440.59
426.01	3384.41
426.20	3517.83
426.39	3574.00
426.58	3466.33
426.77	3592.72
426.96	3625.49
427.15	3609.11
427.33	3634.85
427.52	3559.95
427.71	3740.18
427.90	3541.23
428.09	3623.15
428.28	3784.65
428.46	3768.26
428.65	3756.56
428.84	3805.71
429.03	3953.16
429.22	3728.47
429.40	3712.09
429.59	3754.22
429.78	3749.54
429.97	3749.54
430.16	3751.88
430.34	3927.42
430.53	3796.35
430.72	3896.99
430.91	3861.88
431.10	3819.75
431.28	3889.97
431.47	4194.24
431.66	4168.49
431.85	3925.08
432.03	4145.09
432.22	4156.79
432.41	4109.98
432.60	4065.51
432.79	4060.83
432.97	4142.75
433.16	4114.66
433.35	4072.53
433.54	4215.30
433.72	4271.48
433.91	4133.39
434.10	4294.88
434.28	4236.37
434.47	4191.90
434.66	4493.83
434.85	4341.69
435.03	4381.48
435.22	4470.42
435.41	4526.60
435.59	4449.36
435.78	4465.74
435.97	4496.17
436.16	4472.76
436.34	4461.06
436.53	4322.97
436.72	4617.88
436.90	4479.79
437.09	4582.77
437.28	4381.48
437.46	4535.96
437.65	4578.09
437.84	4685.75
438.02	4503.19
438.21	4753.63
438.40	4725.54
438.58	4690.43
438.77	4718.52
438.96	4755.97
439.14	4837.89
439.33	4917.47
439.52	5034.49
439.70	5011.09
439.89	5041.51
440.08	5088.32
440.26	5041.51
440.45	5008.75
440.63	5158.54
440.82	5191.31
441.01	5069.60
441.19	5240.46
441.38	5282.59
441.57	5401.96
441.75	5369.19
441.94	5462.81
442.12	5556.43
442.31	5549.41
442.50	5528.35
442.68	5565.79
442.87	5631.33
443.05	5598.56
443.24	5706.23
443.43	5645.37
443.61	5579.84
443.80	5856.02
443.98	5537.71
444.17	5399.62
444.35	5462.81
444.54	5731.97
444.73	5720.27
444.91	5825.59
445.10	5729.63
445.28	5708.57
445.47	5640.69
445.65	5806.87
445.84	5659.42
446.02	5795.17
446.21	5781.12
446.39	5727.29
446.58	5724.95
446.77	5795.17
446.95	5675.80
447.14	5750.70
447.32	5621.97
447.51	5720.27
447.69	5860.70
447.88	5795.17
448.06	5825.59
448.25	5729.63
448.43	5893.47
448.62	5837.30
448.80	5874.74
448.99	5863.04
449.17	6120.50
449.36	5973.05
449.54	6050.28
449.73	6101.78
449.91	6223.48
450.10	6169.65
450.28	6122.84
450.46	6214.12
450.65	6146.25
450.83	6153.27
451.02	6242.21
451.20	6399.02
451.39	6209.44
451.57	6134.54
451.76	6160.29
451.94	6296.04
452.13	6190.72
452.31	6448.18
452.49	6223.48
452.68	6345.19
452.86	6300.72
453.05	6455.20
453.23	6616.69
453.42	6204.76
453.60	6363.92
453.78	6539.46
453.97	6424.77
454.15	6597.97
454.34	6464.56
454.52	6583.93
454.70	6717.34
454.89	6649.46
455.07	6546.48
455.26	6829.68
455.44	6885.86
455.62	6712.66
455.81	6857.77
455.99	6792.23
456.17	6822.66
456.36	6773.51
456.54	6843.73
456.73	6995.86
456.91	7056.72
457.09	6923.30
457.28	6984.16
457.46	6974.80
457.64	7164.38
457.83	7169.06
458.01	7157.36
458.19	7297.79
458.38	7110.55
458.56	7176.08
458.74	7351.62
458.93	7119.91
459.11	7286.09
459.29	7431.20
459.48	7236.94
459.66	7375.03
459.84	7475.67
460.03	7405.46
460.21	7581.00
460.39	7452.27
460.57	7515.46
460.76	7405.46
460.94	7379.71
461.12	7609.08
461.31	7637.17
461.49	7552.91
461.67	7618.44
461.85	7733.13
462.04	7719.09
462.22	8046.76
462.40	7824.41
462.59	7779.94
462.77	7786.96
462.95	7770.58
463.13	7833.77
463.32	7831.43
463.50	7992.93
463.68	7903.99
463.86	8168.47
464.05	7817.39
464.23	8051.44
464.41	8049.10
464.59	7885.26
464.78	8159.11
464.96	8280.82
465.14	8175.49
465.32	8114.64
465.50	8182.51
465.69	8365.07
465.87	8201.24
466.05	8269.11
466.23	7964.84
466.41	8194.22
466.60	8318.26
466.78	8222.30
466.96	8451.67
467.14	8119.32
467.32	8393.16
467.51	8514.87
467.69	8325.29
467.87	8549.98
468.05	8627.21
468.23	8367.42
468.41	8484.44
468.60	8252.73
468.78	8603.81
468.96	8472.74
469.14	8652.96
469.32	8758.28
469.50	8596.79
469.69	8769.99
469.87	8772.33
470.05	8784.03
470.23	8966.59
470.41	8730.20
470.59	9008.72
470.77	8868.29
470.95	8868.29
471.14	9324.69
471.32	8985.32
471.50	9055.53
471.68	9130.43
471.86	9310.65
472.04	9261.50
472.22	9284.91
472.40	9256.82
472.58	9226.39
472.77	9460.45
472.95	9750.67
473.13	9909.83
473.31	9589.17
473.49	9474.49
473.67	9607.90
473.85	9776.42
474.03	9809.19
474.21	9694.50
474.39	9788.12
474.57	9933.23
474.75	10087.71
474.93	10155.58
475.12	9877.06
475.30	10171.97
475.48	10197.71
475.66	10181.33
475.84	10183.67
476.02	10422.41
476.20	10232.82
476.38	10216.44
476.56	10670.50
476.74	10672.84
476.92	10675.18
477.10	10743.06
477.28	10881.15
477.46	10792.21
477.64	10923.28
477.82	11133.93
478.00	11265.00
478.18	11227.55
478.36	11372.66
478.54	11407.77
478.72	11620.76
478.90	11520.12
479.08	11826.73
479.26	11625.44
479.44	11637.14
479.62	11833.75
479.80	11946.09
479.98	12243.34
480.16	12575.70
480.34	12163.76
480.52	12442.29
480.70	12489.10
480.88	12203.55
481.06	12404.84
481.24	12566.34
481.41	12788.69
481.59	12931.46
481.77	13114.02
481.95	12978.27
482.13	13249.77
482.31	13008.70
482.49	13570.43
482.67	13441.70
482.85	13689.79
483.03	13701.50
483.21	13703.84
483.39	14045.55
483.57	13872.36
483.74	13937.89
483.92	14141.52
484.10	14127.47
484.28	14494.94
484.46	14558.13
484.64	14958.36
484.82	14501.96
485.00	14806.23
485.18	15302.42
485.35	15463.92
485.53	15044.96
485.71	15318.81
485.89	15763.51
486.07	15463.92
486.25	15639.46
486.43	15428.81
486.61	16009.26
486.78	15960.11
486.96	16079.48
487.14	16500.78
487.32	16418.86
487.50	16336.94
487.68	16479.71
487.85	16702.06
488.03	16989.95
488.21	17039.10
488.39	16809.73
488.57	17446.35
488.75	17603.17
488.92	17781.05
489.10	18106.38
489.28	17642.96
489.46	18321.71
489.64	17743.60
489.81	18045.53
489.99	18497.25
490.17	18412.99
490.35	18515.98
490.53	18555.77
490.70	18682.16
490.88	18527.68
491.06	19082.39
491.24	19215.80
491.41	19147.92
491.59	19592.62
491.77	19527.09
491.95	19557.52
492.13	19594.96
492.30	19775.19
492.48	19711.99
492.66	20051.37
492.84	20210.53
493.01	20336.91
493.19	20320.53
493.37	20734.81
493.54	20807.36
493.72	20704.38
493.90	20613.10
494.08	21294.19
494.25	21338.66
494.43	21053.12
494.61	21518.89
494.79	21741.24
494.96	21743.58
495.14	21799.75
495.32	21645.27
495.49	21799.75
495.67	21963.59
495.85	22492.55
496.02	22649.36
496.20	22403.61
496.38	22204.66
496.55	22827.24
496.73	23290.67
496.91	22806.18
497.09	23271.95
497.26	23103.43
497.44	23255.56
497.62	23608.98
497.79	23393.65
497.97	23571.54
498.14	23824.31
498.32	23868.78
498.50	23819.63
498.67	24285.40
498.85	24194.12
499.03	24201.14
499.20	24517.11
499.38	24348.59
499.56	24603.71
499.73	24610.73
499.91	24952.45
500.08	25230.98
500.26	24592.01
500.44	24697.33
500.61	24872.87
500.79	25017.99
500.97	25385.45
501.14	25958.88
501.32	25289.49
501.49	25294.17
501.67	25387.79
501.84	25799.73
502.02	25703.76
502.20	25876.96
502.37	26033.78
502.55	25837.17
502.72	25858.24
502.90	26349.75
503.07	26064.21
503.25	26455.08
503.43	26405.92
503.60	26534.65
503.78	26764.03
503.95	26766.37
504.13	26759.34
504.30	26965.31
504.48	26892.76
504.65	27019.14
504.83	27168.94
505.01	27314.05
505.18	27498.95
505.36	27878.12
505.53	27639.39
505.71	27630.02
505.88	27707.26
506.06	27559.81
506.23	28002.17
506.41	27859.40
506.58	27763.43
506.76	28290.06
506.93	28011.53
507.11	28210.48
507.28	28416.44
507.46	28587.30
507.63	28830.72
507.81	28797.95
507.98	28765.18
508.16	28493.68
508.33	29090.52
508.50	28959.45
508.68	28844.76
508.85	29448.62
509.03	29275.42
509.20	29413.51
509.38	29710.76
509.55	29495.43
509.73	29827.79
509.90	29612.46
510.08	29584.37
510.25	29888.64
510.42	30015.03
510.60	30015.03
510.77	29701.40
510.95	30347.39
511.12	30185.89
511.30	30167.16
511.47	30251.42
511.64	30452.71
511.82	30419.94
511.99	30532.29
512.17	30644.63
512.34	30897.41
512.51	30871.67
512.69	31042.53
512.86	30852.94
513.04	31218.07
513.21	31367.86
513.38	31648.72
513.56	31360.84
513.73	31138.49
513.90	31360.84
514.08	31864.05
514.25	31995.12
514.43	31892.14
514.60	31828.95
514.77	32034.91
514.95	32268.97
515.12	32002.14
515.29	32165.98
515.47	31866.39
515.64	32336.84
515.81	32215.13
515.99	32526.42
516.16	32725.37
516.33	32636.43
516.51	32378.97
516.68	32774.52
516.85	32811.97
517.03	32659.84
517.20	32716.01
517.37	33085.81
517.54	33123.26
517.72	33158.37
517.89	33422.85
518.06	33329.23
518.24	33357.32
518.41	33317.53
518.58	33366.68
518.75	33652.22
518.93	33734.14
519.10	33820.74
519.27	33897.98
519.45	34036.07
519.62	34066.50
519.79	33963.51
519.96	34103.95
520.14	34220.97
520.31	33972.88
520.48	34183.52
520.65	34352.04
520.83	35026.12
521.00	34600.14
521.17	34361.40
521.34	34583.76
521.52	35051.86
521.69	35044.84
521.86	35136.12
522.03	35302.30
522.20	35218.04
522.38	35239.11
522.55	35388.90
522.72	35475.50
522.89	35225.06
523.07	35763.39
523.24	35798.49
523.41	35917.86
523.58	35601.89
523.75	35665.08
523.92	35791.47
524.10	35789.13
524.27	36109.78
524.44	36016.16
524.61	36290.01
524.78	36135.53
524.96	36563.85
525.13	35934.24
525.30	36327.45
525.47	36842.37
525.64	36184.68
525.81	36423.42
525.98	36723.01
526.16	36491.29
526.33	36559.17
526.50	36694.92
526.67	36589.59
526.84	36748.75
527.01	36954.72
527.18	37202.82
527.36	37104.51
527.53	37156.00
527.70	37500.06
527.87	37350.27
528.04	37436.87
528.21	37605.39
528.38	37074.09
528.55	37593.68
528.72	37596.03
528.89	37434.53
529.07	37689.65
529.24	37310.48
529.41	37989.24
529.58	37827.74
529.75	37591.34
529.92	38316.91
530.09	38197.54
530.26	38033.71
530.43	38375.42
530.60	37785.61
530.77	38057.11
530.94	37897.95
531.11	38066.47
531.28	38501.81
531.46	38359.04
531.63	38094.56
531.80	38775.66
531.97	38806.08
532.14	38628.20
532.31	38766.29
532.48	38925.45
532.65	39201.63
532.82	38827.15
532.99	39133.76
533.16	38246.69
533.33	39349.09
533.50	39199.29
533.67	39447.39
533.84	38822.47
534.01	39269.51
534.18	39290.57
534.35	39683.78
534.52	39803.15
534.69	39789.11
534.86	39597.18
535.03	39344.41
535.20	39672.08
535.37	39470.79
535.54	39793.79
535.71	39761.02
535.88	39807.83
536.05	39803.15
536.22	40006.78
536.38	40154.23
536.55	39709.53
536.72	39789.11
536.89	39997.41
537.06	39985.71
537.23	40713.62
537.40	40098.06
537.57	39976.35
537.74	40336.79
537.91	40381.26
538.08	40734.68
538.25	40121.46
538.42	40612.98
538.59	41085.76
538.75	40414.03
538.92	40786.18
539.09	40971.08
539.26	40868.09
539.43	41034.27
539.60	41095.13
539.77	41083.42
539.94	41116.19
540.11	41085.76
540.28	41317.48
540.44	40781.49
540.61	40865.75
540.78	40886.82
540.95	41167.68
541.12	41069.38
541.29	41265.99
541.46	41729.41
541.62	41422.80
541.79	41631.11
541.96	40893.84
542.13	41336.20
542.30	41661.54
542.47	41748.14
542.63	41603.02
542.80	42010.28
542.97	41961.12
543.14	42375.40
543.31	42323.91
543.48	41935.38
543.64	42801.38
543.81	42230.29
543.98	42312.20
544.15	42288.80
544.32	42462.00
544.48	42604.77
544.65	42829.46
544.82	42773.29
544.99	42487.74
545.16	42492.43
545.32	42663.28
545.49	43014.37
545.66	43157.14
545.83	42686.69
546.00	43157.14
546.16	43143.09
546.33	42810.74
546.50	43058.84
546.67	43012.02
546.83	42890.32
547.00	43393.53
547.17	42787.33
547.34	43157.14
547.50	43370.13
547.67	43590.14
547.84	43302.25
548.00	43351.40
548.17	43665.03
548.34	43908.45
548.51	43686.10
548.67	43793.76
548.84	43901.43
549.01	43704.82
549.18	43414.60
549.34	43646.31
549.51	43966.96
549.68	44341.45
549.84	43660.35
550.01	44105.06
550.18	43995.05
550.34	43845.26
550.51	44376.56
550.68	44196.34
550.84	44053.56
551.01	44198.68
551.18	44526.35
551.34	44020.80
551.51	44409.32
551.68	44367.20
551.84	43676.74
552.01	43948.24
552.18	44179.95
552.34	44304.00
552.51	44191.65
552.68	44067.61
552.84	44418.69
553.01	44587.21
553.18	44886.79
553.34	44952.33
553.51	44432.73
553.67	44685.51
553.84	44772.11
554.01	44488.90
554.17	44409.32
554.34	44807.22
554.51	44795.51
554.67	45284.68
554.84	44875.09
555.00	44699.55
555.17	44643.38
555.33	45233.19
555.50	45099.78
555.67	44683.17
555.83	45001.48
556.00	45298.73
556.16	45584.27
556.33	45251.92
556.50	45624.06
556.66	45329.16
556.83	45132.55
556.99	45687.26
557.16	45600.66
557.32	45668.53
557.49	45492.99
557.65	44989.78
557.82	45755.13
557.98	45603.00
558.15	45441.50
558.32	45525.76
558.48	45516.40
558.65	45734.07
558.81	45748.11
558.98	45357.24
559.14	45312.77
559.31	45345.54
559.47	45598.32
559.64	46047.70
559.80	45385.33
559.97	45778.54
560.13	45249.58
560.30	46277.07
560.46	46408.14
560.63	45794.92
560.79	46340.27
560.96	46075.79
561.12	46309.84
561.29	46099.19
561.45	45935.35
561.61	45703.64
561.78	46239.62
561.94	46199.83
562.11	45827.69
562.27	45820.67
562.44	46506.44
562.60	46124.94
562.77	46120.26
562.93	46103.87
563.10	46167.07
563.26	46288.77
563.42	46541.55
563.59	46096.85
563.75	46457.29
563.92	46344.95
564.08	46532.19
564.24	46567.30
564.41	46204.52
564.57	46412.82
564.74	46454.95
564.90	45916.63
565.07	46160.05
565.23	46642.20
565.39	46457.29
565.56	46569.64
565.72	46431.55
565.88	46646.88
566.05	46686.67
566.21	46791.99
566.38	46602.41
566.54	46887.95
566.70	46700.71
566.87	46719.43
567.03	46663.26
567.19	46962.85
567.36	46490.06
567.52	46810.71
567.68	47126.69
567.85	46913.70
568.01	46600.07
568.17	46997.96
568.34	46955.83
568.50	47363.08
568.66	46815.40
568.83	46927.74
568.99	46768.58
569.15	46660.92
569.32	46618.79
569.48	47152.43
569.64	46836.46
569.81	47007.32
569.97	47365.42
570.13	47433.30
570.30	46609.43
570.46	47381.80
570.62	47140.73
570.78	46981.57
570.95	47157.11
571.11	47459.04
571.27	46836.46
571.43	46653.90
571.60	47269.46
571.76	46913.70
571.92	47098.60
572.09	46990.94
572.25	47547.98
572.41	46836.46
572.57	47297.55
572.74	47496.49
572.90	46976.89
573.06	47702.46
573.22	47494.15
573.38	47288.18
573.55	47459.04
573.71	47908.43
573.87	47440.32
574.03	47136.05
574.20	47515.22
574.36	47643.94
574.52	47290.52
574.68	47187.54
574.84	47728.20
575.01	47208.61
575.17	47587.77
575.33	47367.76
575.49	47276.48
575.65	47374.78
575.82	47618.20
575.98	47194.56
576.14	47681.39
576.30	47517.56
576.46	47526.92
576.62	47103.28
576.79	47468.40
576.95	46869.23
577.11	47119.66
577.27	47728.20
577.43	47442.66
577.59	47477.77
577.75	47253.08
577.92	47421.59
578.08	47370.10
578.24	47426.28
578.40	47763.31
578.56	47775.02
578.72	47597.13
578.88	47707.14
579.04	47487.13
579.21	47391.17
579.37	47327.97
579.53	47606.50
579.69	47459.04
579.85	47454.36
580.01	47760.97
580.17	47334.99
580.33	47950.56
580.49	47695.44
580.65	47131.37
580.82	47297.55
580.98	47475.43
581.14	47557.35
581.30	47555.00
581.46	47334.99
581.62	47339.68
581.78	47363.08
581.94	47791.40
582.10	47426.28
582.26	48109.71
582.42	47461.38
582.58	47870.98
582.74	47660.33
582.90	47978.64
583.06	47976.30
583.22	47487.13
583.38	47796.08
583.54	47714.16
583.70	47665.01
583.86	47608.84
584.02	47494.15
584.18	48116.73
584.34	47725.86
584.50	47908.43
584.66	48294.61
584.82	47760.97
584.98	48041.84
585.14	47870.98
585.30	47562.03
585.46	47999.71
585.62	47487.13
585.78	47791.40
585.94	47337.33
586.10	48095.67
586.26	48004.39
586.42	48065.24
586.58	47861.61
586.74	47833.53
586.90	47803.10
587.06	47948.21
587.22	48030.13
587.38	47655.65
587.54	47730.54
587.70	48186.95
587.86	48210.35
588.02	47585.43
588.18	47915.45
588.34	47948.21
588.49	47683.73
588.65	47779.70
588.81	48133.12
588.97	47704.80
589.13	48439.73
589.29	47742.25
589.45	48074.60
589.61	48294.61
589.77	48165.88
589.93	47636.92
590.08	48257.17
590.24	48383.55
590.40	48334.40
590.56	48645.69
590.72	48114.39
590.88	47894.38
591.04	47908.43
591.20	48025.45
591.35	47723.52
591.51	48545.05
591.67	48425.68
591.83	48751.02
591.99	48446.75
592.15	48280.57
592.31	47714.16
592.46	48271.21
592.62	48268.87
592.78	48062.90
592.94	48521.65
593.10	48222.06
593.26	48938.26
593.41	48734.63
593.57	48215.04
593.73	48381.21
593.89	48865.70
594.05	48818.89
594.20	48502.92
594.36	49097.42
594.52	48706.55
594.68	48713.57
594.84	48797.83
594.99	48919.54
595.15	48444.41
595.31	48713.57
595.47	48266.53
595.62	48846.98
595.78	48416.32
595.94	48605.91
596.10	48168.22
596.25	48493.56
596.41	48507.60
596.57	48645.69
596.73	48617.61
596.88	48966.35
597.04	48547.39
597.20	48781.45
597.36	48739.32
597.51	48907.83
597.67	48275.89
597.83	48596.54
597.99	48811.87
598.14	48425.68
598.30	48748.68
598.46	48566.12
598.61	48945.28
598.77	48900.81
598.93	48350.79
599.09	48835.28
599.24	49027.20
599.40	48678.46
599.56	48694.85
599.71	49429.77
599.87	49015.50
600.03	48762.72
600.18	48722.93
600.34	48488.88
600.50	48577.82
600.65	48992.09
600.81	48914.86
600.97	49139.55
601.12	48755.70
601.28	48793.15
601.44	49158.27
601.59	48666.76
601.75	48704.21
601.91	49282.32
602.06	48896.13
602.22	48603.56
602.37	48875.07
602.53	48561.44
602.69	49013.16
602.84	48751.02
603.00	48505.26
603.16	48947.62
603.31	48720.59
603.47	48718.25
603.62	48821.23
603.78	48933.58
603.94	48502.92
604.09	48767.40
604.25	48772.08
604.40	48732.29
604.56	48619.95
604.71	49268.28
604.87	48814.21
605.03	48409.30
605.18	48856.34
605.34	48832.94
605.49	48397.60
605.65	48692.50
605.80	48568.46
605.96	48603.56
606.12	48591.86
606.27	48531.01
606.43	49001.46
606.58	48460.79
606.74	48514.62
606.89	48577.82
607.05	48596.54
607.20	49148.91
607.36	48404.62
607.51	48636.33
607.67	48285.25
607.82	48486.54
607.98	48421.00
608.13	48362.49
608.29	48346.11
608.44	48577.82
608.60	48285.25
608.75	48432.71
608.91	48484.20
609.06	47903.74
609.22	48538.03
609.37	48498.24
609.53	48516.96
609.68	48568.46
609.84	48158.86
609.99	48566.12
610.15	48505.26
610.30	48287.59
610.46	48259.51
610.61	48392.92
610.76	48523.99
610.92	48100.35
611.07	48456.11
611.23	48423.34
611.38	48418.66
611.54	48285.25
611.69	48472.49
611.84	48533.35
612.00	48259.51
612.15	48175.25
612.31	48339.08
612.46	48367.17
612.62	48140.14
612.77	47817.14
612.92	48369.51
613.08	47969.28
613.23	48229.08
613.39	47782.04
613.54	47966.94
613.69	48170.57
613.85	47625.22
614.00	48617.61
614.15	48498.24
614.31	47854.59
614.46	47772.67
614.62	47929.49
614.77	47800.76
614.92	48161.20
615.08	47803.10
615.23	48044.18
615.38	48212.70
615.54	47983.32
615.69	47941.19
615.84	47929.49
616.00	48186.95
616.15	48046.52
616.30	47674.37
616.46	47854.59
616.61	47959.92
616.76	47868.64
616.92	47980.98
617.07	47875.66
617.22	47524.58
617.37	47580.75
617.53	48018.43
617.68	47571.39
617.83	47880.34
617.99	48320.36
618.14	47908.43
618.29	47519.90
618.45	47452.02
618.60	47257.76
618.75	46892.63
618.90	47643.94
619.06	47452.02
619.21	47309.25
619.36	47744.59
619.51	47391.17
619.67	47082.22
619.82	47428.62
619.97	47957.58
620.12	47515.22
620.28	47379.46
620.43	47903.74
620.58	47377.12
620.73	47517.56
620.89	47384.15
621.04	47707.14
621.19	47494.15
621.34	47019.02
621.49	47435.64
621.65	47454.36
621.80	47753.95
621.95	47196.90
622.10	47187.54
622.25	47143.07
622.41	47304.57
622.56	47386.49
622.71	47255.42
622.86	46581.34
623.01	47047.11
623.16	46852.84
623.32	47070.51
623.47	47138.39
623.62	46852.84
623.77	46850.50
623.92	47391.17
624.07	47250.74
624.23	46969.87
624.38	47035.41
624.53	46609.43
624.68	46501.76
624.83	46354.31
624.98	46953.49
625.13	46492.40
625.29	46604.75
625.44	47243.71
625.59	46677.30
625.74	46897.31
625.89	46649.22
626.04	47044.77
626.19	46852.84
626.34	46211.54
626.49	46384.74
626.65	46136.64
626.80	46335.59
626.95	45949.40
627.10	46103.87
627.25	46490.06
627.40	46188.13
627.55	46686.67
627.70	46293.46
627.85	46536.87
628.00	46611.77
628.15	46546.23
628.30	45872.16
628.45	45823.01
628.60	45869.82
628.76	45914.29
628.91	46267.71
629.06	45652.15
629.21	45537.46
629.36	46087.49
629.51	45954.08
629.66	46391.76
629.81	45867.48
629.96	46155.36
630.11	46234.94
630.26	46078.13
630.41	46036.00
630.56	45638.11
630.71	46129.62
630.86	45944.72
631.01	46024.29
631.16	45558.53
631.31	45687.26
631.46	45701.30
631.61	45968.12
631.76	45738.75
631.91	45825.35
632.06	46075.79
632.21	45713.00
632.36	45764.49
632.51	45528.10
632.66	45710.66
632.81	45289.37
632.96	46291.12
633.10	45523.42
633.25	45579.59
633.40	45668.53
633.55	45890.88
633.70	45497.67
633.85	45331.50
634.00	45230.85
634.15	45055.31
634.30	45422.78
634.45	45116.17
634.60	45390.01
634.75	45390.01
634.90	45020.20
635.05	45549.17
635.19	45008.50
635.34	45132.55
635.49	45223.83
635.64	45315.11
635.79	45347.88
635.94	45380.65
636.09	45237.87
636.24	45118.51
636.39	45275.32
636.53	44809.56
636.68	44701.89
636.83	44404.64
636.98	44734.66
637.13	44643.38
637.28	44500.61
637.43	45043.61
637.57	44416.35
637.72	44451.45
637.87	44493.58
638.02	44601.25
638.17	44535.71
638.32	44680.83
638.46	44369.54
638.61	44390.60
638.76	44587.21
638.91	43955.26
639.06	44039.52
639.20	44165.91
639.35	44081.65
639.50	43917.81
639.65	43985.69
639.80	44435.07
639.94	44526.35
640.09	44446.77
640.24	44325.07
640.39	43742.27
640.54	43611.20
640.68	43995.05
640.83	44301.66
640.98	43948.24
641.13	43988.03
641.27	44282.94
641.42	44264.21
641.57	44245.49
641.72	44563.80
641.86	43690.78
642.01	43868.66
642.16	43803.13
642.31	43559.71
642.45	44018.46
642.60	43494.18
642.75	43665.03
642.90	44238.47
643.04	43660.35
643.19	43407.58
643.34	43028.41
643.48	43557.37
643.63	43641.63
643.78	43615.88
643.93	44261.87
644.07	43957.60
644.22	43526.94
644.37	43161.82
644.51	43496.52
644.66	43660.35
644.81	43164.16
644.95	43669.72
645.10	43629.93
645.25	43435.66
645.39	43126.71
645.54	43388.85
645.69	42937.13
645.83	43290.55
645.98	43164.16
646.13	42817.76
646.27	43318.64
646.42	43365.45
646.57	43283.53
646.71	43445.02
646.86	43487.15
647.00	43267.14
647.15	43466.09
647.30	43112.67
647.44	43510.56
647.59	43339.70
647.74	42939.47
647.88	43353.74
648.03	42979.26
648.17	43311.61
648.32	43096.28
648.47	43454.39
648.61	42904.36
648.76	42745.20
648.90	42646.90
649.05	43072.88
649.20	43042.45
649.34	43122.03
649.49	42784.99
649.63	42852.87
649.78	42536.90
649.92	42586.05
650.07	43061.18
650.21	43061.18
650.36	43012.02
650.51	42803.72
650.65	43241.40
650.80	42822.44
650.94	42993.30
651.09	42574.34
651.23	42443.27
651.38	42363.70
651.52	42164.75
651.67	42096.88
651.81	42450.30
651.96	42412.85
652.10	41769.20
652.25	42494.77
652.39	42415.19
652.54	42277.10
652.68	42258.37
652.83	42447.96
652.97	42520.51
653.12	42155.39
653.26	42312.20
653.41	42078.15
653.55	42394.12
653.70	42733.50
653.84	42293.48
653.99	42438.59
654.13	42234.97
654.27	41996.23
654.42	41766.86
654.56	41729.41
654.71	42038.36
654.85	41963.46
655.00	41937.72
655.14	41890.91
655.29	42344.97
655.43	41984.53
655.57	41635.79
655.72	41373.65
655.86	41944.74
656.01	41251.94
656.15	40942.99
656.30	41574.94
656.44	42007.94
656.58	41549.19
656.73	41434.50
656.87	41015.55
657.01	41359.61
657.16	41652.17
657.30	41343.22
657.45	41483.66
657.59	41144.28
657.73	41106.83
657.88	41668.56
658.02	41310.46
658.16	41663.88
658.31	41380.67
658.45	41273.01
658.60	41104.49
658.74	41226.20
658.88	41160.66
659.03	40940.65
659.17	40999.16
659.31	40917.25
659.46	40243.17
659.60	40921.93
659.74	40428.07
659.89	40744.05
660.03	40444.46
660.17	40488.93
660.32	40568.51
660.46	40727.66
660.60	40341.47
660.74	40598.93
660.89	40430.41
661.03	40210.40
661.17	40392.97
661.32	40341.47
661.46	40355.52
661.60	40100.40
661.74	40044.23
661.89	39992.73
662.03	40023.16
662.17	40203.38
662.31	39658.04
662.46	39845.28
662.60	39634.63
662.74	39917.84
662.88	39562.08
663.03	39531.65
663.17	39269.51
663.31	39239.08
663.45	39756.34
663.60	39353.77
663.74	39524.63
663.88	39742.30
664.02	39096.31
664.17	39433.35
664.31	39428.66
664.45	38974.60
664.59	38934.81
664.73	39253.12
664.88	38562.67
665.02	38644.59
665.16	38597.77
665.30	38667.99
665.44	38902.04
665.59	38403.51
665.73	38724.16
665.87	38284.14
666.01	38511.17
666.15	38440.96
666.29	38136.69
666.44	38298.19
666.58	38595.43
666.72	38309.89
666.86	38038.39
667.00	38417.55
667.14	37839.44
667.28	37801.99
667.43	37605.39
667.57	37741.14
667.71	37923.70
667.85	38017.32
667.99	37736.46
668.13	37280.05
668.27	37226.22
668.41	37331.54
668.56	36980.46
668.70	37305.80
668.84	37359.63
668.98	36891.52
669.12	37266.01
669.26	37205.16
669.40	37296.44
669.54	36954.72
669.68	37113.87
669.82	36893.86
669.96	36910.25
670.10	36362.56
670.25	36884.50
670.39	36013.82
670.53	36533.42
670.67	36861.10
670.81	36818.97
670.95	36655.13
671.09	36243.20
671.23	36154.26
671.37	36032.55
671.51	36037.23
671.65	36016.16
671.79	35934.24
671.93	36194.04
672.07	36074.68
672.21	35784.45
672.35	35833.60
672.49	35845.30
672.63	35627.63
672.77	35489.54
672.91	35887.43
673.05	35213.36
673.19	35428.69
673.33	35531.67
673.47	35370.18
673.61	34691.42
673.75	34656.31
673.89	34923.13
674.03	34483.11
674.17	34553.33
674.31	34326.30
674.45	34597.80
674.59	34328.64
674.73	34220.97
674.87	34155.44
675.01	33720.10
675.15	34082.88
675.29	33919.04
675.43	33982.24
675.56	34419.92
675.70	33806.70
675.84	33338.59
675.98	32444.51
676.12	33481.36
676.26	33539.88
676.40	33111.56
676.54	33067.09
676.68	33090.49
676.82	32811.97
676.96	33514.13
677.10	33139.65
677.23	33048.36
677.37	32673.88
677.51	32844.74
677.65	32694.94
677.79	32266.63
677.93	32252.58
678.07	32273.65
678.21	31770.43
678.34	31821.92
678.48	31562.12
678.62	32072.36
678.76	32023.21
678.90	31522.34
679.04	31690.85
679.18	31964.70
679.31	31531.70
679.45	31288.28
679.59	31147.85
679.73	31185.30
679.87	30834.22
680.00	30546.33
680.14	30948.90
680.28	30789.75
680.42	30911.46
680.56	30389.52
680.70	30237.38
680.83	30122.69
680.97	30307.60
681.11	29855.87
681.25	30089.93
681.39	29577.35
681.52	29872.26
681.66	29654.59
681.80	29039.03
681.94	29149.03
682.07	29198.18
682.21	28716.03
682.35	28931.36
682.49	29139.67
682.62	28624.75
682.76	29223.93
682.90	29085.84
683.04	28657.52
683.17	28863.49
683.31	28376.66
683.45	28481.98
683.59	27871.10
683.72	28025.57
683.86	27735.35
684.00	27758.75
684.13	28013.87
684.27	27646.41
684.41	27426.40
684.55	27777.48
684.68	27583.21
684.82	27147.87
684.96	27138.51
685.09	27197.02
685.23	27370.22
685.37	27505.98
685.50	27503.64
685.64	27608.96
685.78	26834.24
685.91	26691.47
686.05	26424.65
686.19	25750.57
686.32	26656.36
686.46	25853.56
686.60	25802.07
686.73	26038.46
686.87	26235.06
687.01	26001.01
687.14	25968.24
687.28	25544.61
687.42	25642.91
687.55	25516.52
687.69	25694.40
687.82	25245.02
687.96	25125.65
688.10	25450.99
688.23	25387.79
688.37	25343.32
688.50	25252.04
688.64	24730.10
688.78	24847.13
688.91	24819.04
689.05	24290.08
689.18	24446.90
689.32	23889.85
689.46	23971.77
689.59	24109.86
689.73	24020.92
689.86	24247.95
690.00	23770.48
690.13	24063.05
690.27	23683.88
690.41	23386.63
690.54	23232.16
690.68	23599.62
690.81	23239.18
690.95	23229.82
691.08	23166.62
691.22	22862.35
691.35	22785.12
691.49	23379.61
691.62	23091.73
691.76	22686.81
691.89	22190.62
692.03	22244.45
692.16	21998.70
692.30	22036.14
692.43	22071.25
692.57	21797.41
692.70	21839.54
692.84	21795.07
692.97	21558.67
693.11	21736.56
693.24	21392.50
693.38	21493.14
693.51	21680.38
693.65	20966.52
693.78	21247.38
693.92	21085.89
694.05	20915.03
694.19	20893.96
694.32	20865.88
694.45	21181.85
694.59	20964.18
694.72	21041.42
694.86	20505.43
694.99	20365.00
695.13	20226.91
695.26	19995.20
695.39	19847.74
695.53	20203.50
695.66	19735.40
695.80	19826.68
695.93	19557.52
696.07	19302.40
696.20	19194.73
696.33	19288.35
696.47	19091.75
696.60	19564.54
696.73	19227.50
696.87	19335.17
697.00	19271.97
697.14	18991.11
697.27	19117.50
697.40	18789.82
697.54	18672.79
697.67	18628.32
697.80	18560.45
697.94	18455.12
698.07	18630.66
698.21	18181.28
698.34	18279.58
698.47	18106.38
698.61	17738.92
698.74	17607.85
698.87	17846.58
699.01	17504.87
699.14	17944.89
699.27	17708.49
699.40	17362.09
699.54	17474.44
699.67	17537.63
699.80	17441.67
699.94	17092.93
700.07	17123.36
700.20	17188.89
700.34	16950.16
700.47	16931.44
700.60	16933.78
700.73	17060.16
700.87	16540.57
701.00	16444.60
701.13	16613.12
701.26	16294.81
701.40	16407.16
701.53	16343.96
701.66	16292.47
701.79	16112.25
701.93	15709.68
702.06	15903.94
702.19	15637.12
702.32	15658.18
702.46	15927.35
702.59	15784.57
702.72	15962.45
702.85	15730.74
702.99	15721.38
703.12	15356.25
703.25	15215.82
703.38	15124.54
703.51	15487.32
703.65	15089.43
703.78	14799.21
703.91	14618.99
704.04	14698.56
704.17	14539.41
704.31	14665.80
704.44	14363.87
704.57	14672.82
704.70	14403.66
704.83	14267.91
704.96	14380.25
705.10	14284.29
705.23	14242.16
>>>>>End Processed Spectral Data<<<<<
