SpectraSuite Data File
++++++++++++++++++++++++++++++++++++
Date: Fri Oct 25 10:47:04 EDT 2013
User: price-jones
Dark Spectrum Present: No
Reference Spectrum Present: No
Number of Sampled Component Spectra: 1
Spectrometers: USB2+H05261
Integration Time (usec): 100000 (USB2+H05261)
Spectra Averaged: 1 (USB2+H05261)
Boxcar Smoothing: 0 (USB2+H05261)
Correct for Electrical Dark: No (USB2+H05261)
Strobe/Lamp Enabled: No (USB2+H05261)
Correct for Detector Non-linearity: No (USB2+H05261)
Correct for Stray Light: No (USB2+H05261)
Number of Pixels in Processed Spectrum: 2048
>>>>>Begin Processed Spectral Data<<<<<
365.73	131.07
365.92	131.07
366.12	131.07
366.32	32.77
366.52	0.00
366.72	72.56
366.91	74.90
367.11	32.77
367.31	0.00
367.51	37.45
367.70	16.38
367.90	4.68
368.10	21.06
368.30	21.06
368.49	60.85
368.69	93.62
368.89	39.79
369.09	51.49
369.28	44.47
369.48	74.90
369.68	119.37
369.87	88.94
370.07	84.26
370.27	131.07
370.47	198.95
370.66	418.96
370.86	423.64
371.06	421.30
371.25	484.49
371.45	430.66
371.65	475.13
371.84	470.45
372.04	440.02
372.24	535.98
372.44	512.58
372.63	465.77
372.83	578.11
373.03	477.47
373.22	552.37
373.42	479.81
373.62	514.92
373.81	552.37
374.01	514.92
374.21	615.56
374.40	557.05
374.60	575.77
374.79	528.96
374.99	603.86
375.19	566.41
375.38	552.37
375.58	601.52
375.78	566.41
375.97	580.45
376.17	550.03
376.37	533.64
376.56	543.00
376.76	594.50
376.95	631.94
377.15	641.31
377.35	655.35
377.54	575.77
377.74	627.26
377.93	624.92
378.13	674.07
378.33	599.18
378.52	571.09
378.72	653.01
378.91	699.82
379.11	624.92
379.31	601.52
379.50	627.26
379.70	688.12
379.89	648.33
380.09	603.86
380.28	608.54
380.48	720.88
380.68	655.35
380.87	603.86
381.07	615.56
381.26	725.57
381.46	655.35
381.65	645.99
381.85	660.03
382.04	657.69
382.24	667.05
382.43	730.25
382.63	716.20
382.83	695.14
383.02	692.80
383.22	751.31
383.41	685.78
383.61	690.46
383.80	657.69
384.00	730.25
384.19	763.01
384.39	751.31
384.58	725.57
384.78	767.70
384.97	767.70
385.17	746.63
385.36	758.33
385.56	657.69
385.75	786.42
385.95	807.48
386.14	819.19
386.34	851.96
386.53	795.78
386.72	819.19
386.92	734.93
387.11	884.72
387.31	823.87
387.50	826.21
387.70	816.85
387.89	784.08
388.09	880.04
388.28	770.04
388.48	795.78
388.67	875.36
388.86	968.98
389.06	943.24
389.25	915.15
389.45	1006.43
389.64	873.02
389.84	858.98
390.03	908.13
390.22	936.21
390.42	924.51
390.61	947.92
390.81	952.60
391.00	943.24
391.19	1011.11
391.39	987.71
391.58	922.17
391.78	940.90
391.97	922.17
392.16	952.60
392.36	990.05
392.55	966.64
392.75	950.26
392.94	880.04
393.13	968.98
393.33	994.73
393.52	1055.58
393.71	1006.43
393.91	1018.13
394.10	1104.73
394.29	1004.09
394.49	1008.77
394.68	1055.58
394.88	1144.52
395.07	1111.75
395.26	1116.44
395.46	1060.26
395.65	1228.78
395.84	1095.37
396.04	1172.61
396.23	1153.88
396.42	1064.94
396.62	1181.97
396.81	1184.31
397.00	1153.88
397.19	1205.38
397.39	1266.23
397.58	1289.64
397.77	1268.57
397.97	1387.94
398.16	1287.29
398.35	1284.95
398.55	1310.70
398.74	1341.13
398.93	1373.89
399.12	1338.79
399.32	1327.08
399.51	1226.44
399.70	1493.26
399.90	1327.08
400.09	1423.05
400.28	1462.83
400.47	1474.54
400.67	1483.90
400.86	1523.69
401.05	1434.75
401.24	1572.84
401.44	1561.14
401.63	1460.49
401.82	1584.54
402.01	1575.18
402.21	1645.40
402.40	1516.67
402.59	1526.03
402.78	1504.96
402.97	1570.50
403.17	1636.03
403.36	1682.85
403.55	1638.38
403.74	1530.71
403.93	1638.38
404.13	1664.12
404.32	1671.14
404.51	1764.76
404.70	1722.63
404.89	1790.51
405.09	1727.32
405.28	1783.49
405.47	1762.42
405.66	1792.85
405.85	1792.85
406.05	1776.47
406.24	1834.98
406.43	1844.34
406.62	1734.34
406.81	1912.22
407.00	1837.32
407.20	1870.09
407.39	1970.73
407.58	2001.16
407.77	1959.03
407.96	1877.11
408.15	2111.16
408.34	2017.54
408.54	2092.44
408.73	2008.18
408.92	2024.56
409.11	2148.61
409.30	2132.23
409.49	2012.86
409.68	2113.50
409.87	2087.76
410.07	2125.21
410.26	2146.27
410.45	2120.53
410.64	2225.85
410.83	2193.08
411.02	2289.04
411.21	2354.58
411.40	2218.83
411.59	2429.48
411.78	2326.49
411.98	2385.01
412.17	2420.11
412.36	2340.54
412.55	2485.65
412.74	2588.63
412.93	2558.21
413.12	2462.24
413.31	2567.57
413.50	2574.59
413.69	2495.01
413.88	2588.63
414.07	2614.38
414.26	2527.78
414.45	2621.40
414.64	2686.94
414.83	2710.34
415.02	2902.26
415.22	2780.56
415.41	2965.46
415.60	2782.90
415.79	2848.43
415.98	2932.69
416.17	2949.08
416.36	2904.60
416.55	2951.42
416.74	2963.12
416.93	3023.97
417.12	3052.06
417.31	3054.40
417.50	3002.91
417.69	3089.51
417.88	3098.87
418.07	3136.32
418.26	3159.72
418.45	3314.20
418.64	3290.79
418.83	3225.26
419.02	3281.43
419.21	3215.90
419.39	3236.96
419.58	3234.62
419.77	3368.03
419.96	3281.43
420.15	3316.54
420.34	3501.44
420.53	3396.12
420.72	3454.63
420.91	3445.27
421.10	3433.57
421.29	3412.50
421.48	3496.76
421.67	3506.12
421.86	3368.03
422.05	3454.63
422.24	3513.14
422.43	3506.12
422.61	3557.61
422.80	3538.89
422.99	3627.83
423.18	3653.58
423.37	3632.51
423.56	3571.66
423.75	3569.32
423.94	3412.50
424.13	3403.14
424.32	3389.10
424.50	3562.30
424.69	3557.61
424.88	3847.84
425.07	3564.64
425.26	3611.45
425.45	3667.62
425.64	3529.53
425.83	3606.77
426.01	3744.86
426.20	3688.68
426.39	3655.92
426.58	3520.17
426.77	3510.80
426.96	3749.54
427.15	3749.54
427.33	3751.88
427.52	3829.12
427.71	3772.94
427.90	3758.90
428.09	3864.22
428.28	3826.78
428.46	3974.23
428.65	3845.50
428.84	3962.53
429.03	3969.55
429.22	3819.75
429.40	3899.33
429.59	3880.61
429.78	3756.56
429.97	3686.34
430.16	3829.12
430.34	3824.44
430.53	3892.31
430.72	4009.34
430.91	3803.37
431.10	4058.49
431.28	4184.88
431.47	4184.88
431.66	4255.09
431.85	4109.98
432.03	4280.84
432.22	4201.26
432.41	4243.39
432.60	4304.25
432.79	4217.65
432.97	4257.43
433.16	4421.27
433.35	4255.09
433.54	4432.97
433.72	4306.59
433.91	4271.48
434.10	4390.84
434.28	4449.36
434.47	4430.63
434.66	4571.07
434.85	4393.19
435.03	4610.86
435.22	4566.39
435.41	4648.30
435.59	4704.48
435.78	4652.98
435.97	4727.88
436.16	4617.88
436.34	4636.60
436.53	4559.36
436.72	4713.84
436.90	4760.65
437.09	4802.78
437.28	4690.43
437.46	4777.03
437.65	4718.52
437.84	4784.06
438.02	4716.18
438.21	4732.56
438.40	4709.16
438.58	5032.15
438.77	4922.15
438.96	5020.45
439.14	4952.57
439.33	5200.67
439.52	5226.42
439.70	5334.08
439.89	5263.86
440.08	5287.27
440.26	5212.37
440.45	5104.71
440.63	5263.86
440.82	5371.53
441.01	5322.38
441.19	5453.45
441.38	5631.33
441.57	5495.58
441.75	5600.90
441.94	5741.33
442.12	5839.64
442.31	5898.15
442.50	5806.87
442.68	5795.17
442.87	5685.16
443.05	5806.87
443.24	5757.72
443.43	5837.30
443.61	5893.47
443.80	6040.92
443.98	5874.74
444.17	5727.29
444.35	6022.20
444.54	6111.14
444.73	6038.58
444.91	6076.03
445.10	5863.04
445.28	5944.96
445.47	5764.74
445.65	5849.00
445.84	5937.94
446.02	6108.80
446.21	5966.03
446.39	6099.44
446.58	6083.05
446.77	6092.41
446.95	5968.37
447.14	6073.69
447.32	6111.14
447.51	6094.76
447.69	6129.86
447.88	6097.10
448.06	6113.48
448.25	6143.91
448.43	6155.61
448.62	6167.31
448.80	6223.48
448.99	6270.30
449.17	6132.20
449.36	6345.19
449.54	6291.36
449.73	6394.34
449.91	6333.49
450.10	6558.18
450.28	6480.94
450.46	6572.22
450.65	6712.66
450.83	6525.41
451.02	6626.06
451.20	6595.63
451.39	6689.25
451.57	6590.95
451.76	6363.92
451.94	6670.53
452.13	6740.74
452.31	6707.98
452.49	6518.39
452.68	6509.03
452.86	6583.93
453.05	6890.54
453.23	6658.82
453.42	6782.87
453.60	6560.52
453.78	6771.17
453.97	6729.04
454.15	6827.34
454.34	6567.54
454.52	6710.32
454.70	6956.07
454.89	6920.96
455.07	6993.52
455.26	7063.74
455.44	7190.13
455.62	7056.72
455.81	7082.46
455.99	7133.95
456.17	7255.66
456.36	7239.28
456.54	7377.37
456.73	7157.36
456.91	7597.38
457.09	7478.01
457.28	7496.74
457.46	7494.40
457.64	7473.33
457.83	7513.12
458.01	7321.20
458.19	7529.50
458.38	7262.68
458.56	7538.87
458.74	7538.87
458.93	7557.59
459.11	7655.89
459.29	7672.28
459.48	7578.65
459.66	7707.38
459.84	7775.26
460.03	7880.58
460.21	7913.35
460.39	7894.63
460.57	7803.35
460.76	7817.39
460.94	7861.86
461.12	7845.48
461.31	7911.01
461.49	7911.01
461.67	7843.14
461.85	8006.97
462.04	7903.99
462.22	8610.83
462.40	8088.89
462.59	8138.04
462.77	8028.04
462.95	8266.77
463.13	8187.19
463.32	8140.38
463.50	8428.27
463.68	8461.04
463.86	8229.32
464.05	8039.74
464.23	8411.89
464.41	8269.11
464.59	8325.29
464.78	8486.78
464.96	8325.29
465.14	8262.09
465.32	8456.36
465.50	8528.91
465.69	8533.59
465.87	8514.87
466.05	8486.78
466.23	8411.89
466.41	8336.99
466.60	8767.65
466.78	8402.52
466.96	8416.57
467.14	8629.56
467.32	8500.83
467.51	8802.75
467.69	8535.93
467.87	8863.61
468.05	8802.75
468.23	8629.56
468.41	8681.05
468.60	8767.65
468.78	8812.12
468.96	8863.61
469.14	8875.31
469.32	8905.74
469.50	8844.88
469.69	8940.85
469.87	9198.31
470.05	9039.15
470.23	9048.51
470.41	9111.71
470.59	9107.02
470.77	9011.06
470.95	9233.41
471.14	9280.22
471.32	9172.56
471.50	9528.32
471.68	9472.15
471.86	9462.79
472.04	9392.57
472.22	9717.90
472.40	9406.61
472.58	9542.36
472.77	9598.54
472.95	9898.13
473.13	10087.71
473.31	9727.27
473.49	9844.29
473.67	9860.68
473.85	10083.03
474.03	10005.79
474.21	9991.75
474.39	10178.99
474.57	10415.38
474.75	10193.03
474.93	10511.35
475.12	10223.46
475.30	10490.28
475.48	10462.19
475.66	10263.25
475.84	10303.04
476.02	10431.77
476.20	10588.58
476.38	10881.15
476.56	11084.78
476.74	11037.97
476.92	10986.47
477.10	10897.53
477.28	11190.10
477.46	11248.61
477.64	11190.10
477.82	11367.98
478.00	11548.20
478.18	11494.37
478.36	11534.16
478.54	11571.61
478.72	11768.21
478.90	11950.78
479.08	11953.12
479.26	12217.60
479.44	12016.31
479.62	12121.63
479.80	12475.06
479.98	12489.10
480.16	12444.63
480.34	12383.77
480.52	12674.00
480.70	12739.54
480.88	12692.73
481.06	12627.19
481.24	12940.82
481.41	12894.01
481.59	13025.08
481.77	13336.37
481.95	13439.36
482.13	13418.29
482.31	13532.98
482.49	13860.65
482.67	13664.05
482.85	13982.36
483.03	14001.08
483.21	14328.76
483.39	14188.33
483.57	14281.95
483.74	14532.39
483.92	14745.38
484.10	14331.10
484.28	14810.91
484.46	15110.50
484.64	15346.89
484.82	14934.96
485.00	14867.08
485.18	15407.75
485.35	15421.79
485.53	15323.49
485.71	15087.09
485.89	15232.21
486.07	15599.67
486.25	15917.98
486.43	15594.99
486.61	15641.80
486.78	16142.67
486.96	16372.05
487.14	16439.92
487.32	16542.91
487.50	16875.26
487.68	17216.98
487.85	17266.13
488.03	16943.14
488.21	17275.49
488.39	17266.13
488.57	17572.74
488.75	17476.78
488.92	17696.79
489.10	18064.25
489.28	17912.12
489.46	18293.63
489.64	18298.31
489.81	18654.07
489.99	18824.93
490.17	18640.03
490.35	18824.93
490.53	18913.87
490.70	19042.60
490.88	19147.92
491.06	19669.86
491.24	19452.19
491.41	19438.15
491.59	19520.07
491.77	19433.47
491.95	19819.66
492.13	19922.64
492.30	20175.42
492.48	20105.20
492.66	20496.07
492.84	20404.79
493.01	20634.16
493.19	20477.35
493.37	20865.88
493.54	21167.80
493.72	20826.09
493.90	21333.98
494.08	21460.37
494.25	21432.29
494.43	21598.46
494.61	21633.57
494.79	21561.02
494.96	21720.17
495.14	21954.22
495.32	22295.94
495.49	22050.19
495.67	22202.32
495.85	22548.72
496.02	22780.43
496.20	22661.07
496.38	22871.72
496.55	22572.13
496.73	23414.72
496.91	23187.69
497.09	23309.40
497.26	23496.64
497.44	23267.27
497.62	23658.14
497.79	23597.28
497.97	23463.87
498.14	23990.49
498.32	23983.47
498.50	23936.66
498.67	24395.40
498.85	24489.03
499.03	24409.45
499.20	24608.39
499.38	24662.22
499.56	24694.99
499.73	24933.73
499.91	25158.42
500.08	24812.02
500.26	24854.15
500.44	24893.94
500.61	25041.39
500.79	25041.39
500.97	25296.51
501.14	25481.41
501.32	25841.85
501.49	25383.11
501.67	25497.80
501.84	25954.20
502.02	25717.81
502.20	26071.23
502.37	26136.76
502.55	26429.33
502.72	26141.44
502.90	26609.55
503.07	26604.87
503.25	26338.05
503.43	26333.37
503.60	26757.00
503.78	26876.37
503.95	26927.86
504.13	26841.26
504.30	26960.63
504.48	27112.77
504.65	27208.73
504.83	27445.12
505.01	27178.30
505.18	27335.12
505.36	28063.02
505.53	27569.17
505.71	27779.82
505.88	27999.83
506.06	27524.70
506.23	28067.70
506.41	27735.35
506.58	28388.36
506.76	28147.28
506.93	28170.69
507.11	28215.16
507.28	28730.08
507.46	28308.78
507.63	28233.88
507.81	28922.00
507.98	28783.91
508.16	29237.97
508.33	28767.52
508.50	28765.18
508.68	29062.43
508.85	29315.21
509.03	29280.10
509.20	29474.37
509.38	29722.46
509.55	29273.08
509.73	29259.04
509.90	29649.91
510.08	29642.88
510.25	29628.84
510.42	29591.39
510.60	29799.70
510.77	30188.23
510.95	30347.39
511.12	29699.06
511.30	30506.54
511.47	30719.53
511.64	30705.49
511.82	30534.63
511.99	30494.84
512.17	30429.30
512.34	30401.22
512.51	30504.20
512.69	30944.22
512.86	30918.48
513.04	31166.57
513.21	31035.50
513.38	31283.60
513.56	31175.94
513.73	31077.63
513.90	31777.45
514.08	30965.29
514.25	31639.36
514.43	31351.48
514.60	31447.44
514.77	31204.02
514.95	32051.30
515.12	31770.43
515.29	31910.86
515.47	32109.81
515.64	32229.18
515.81	32210.45
515.99	32559.19
516.16	31765.75
516.33	31826.60
516.51	32414.08
516.68	31920.23
516.85	32170.66
517.03	32189.39
517.20	32547.49
517.37	32521.74
517.54	32481.95
517.72	32854.10
517.89	32240.88
518.06	32706.65
518.24	32694.94
518.41	32196.41
518.58	32844.74
518.75	32987.51
518.93	33027.30
519.10	33017.94
519.27	33179.43
519.45	33432.21
519.62	33879.25
519.79	33844.15
519.96	33514.13
520.14	33951.81
520.31	33549.24
520.48	33881.60
520.65	33544.56
520.83	34202.25
521.00	34513.54
521.17	34209.27
521.34	34139.05
521.52	34824.83
521.69	34363.75
521.86	34609.50
522.03	34740.57
522.20	34705.46
522.38	34876.32
522.55	34609.50
522.72	34742.91
522.89	34644.61
523.07	34756.96
523.24	34476.09
523.41	34913.77
523.58	35140.80
523.75	35206.34
523.92	35524.65
524.10	35278.89
524.27	35288.26
524.44	35683.81
524.61	35311.66
524.78	35793.81
524.96	35723.60
525.13	36081.70
525.30	36362.56
525.47	36229.15
525.64	36114.47
525.81	35962.33
525.98	35878.07
526.16	35826.58
526.33	35606.57
526.50	35826.58
526.67	35714.23
526.84	35842.96
527.01	36147.23
527.18	36039.57
527.36	36676.19
527.53	36194.04
527.70	36540.44
527.87	36336.82
528.04	36325.11
528.21	37010.89
528.38	36634.06
528.55	37104.51
528.72	36409.37
528.89	36928.97
529.07	36833.01
529.24	36842.37
529.41	36701.94
529.58	37029.62
529.75	36856.42
529.92	37298.78
530.09	37645.18
530.26	37069.40
530.43	37420.48
530.60	37106.85
530.77	37347.93
530.94	37818.38
531.11	37462.61
531.28	37481.34
531.46	37628.79
531.63	37841.78
531.80	37394.74
531.97	37794.97
532.14	37958.81
532.31	37535.17
532.48	37687.31
532.65	38256.06
532.82	37673.26
532.99	38263.08
533.16	37713.05
533.33	38401.17
533.50	38237.33
533.67	37855.82
533.84	38260.74
534.01	38455.00
534.18	38295.85
534.35	38443.30
534.52	38934.81
534.69	38780.34
534.86	38653.95
535.03	38497.13
535.20	38953.54
535.37	38866.94
535.54	38930.13
535.71	38546.28
535.88	38998.01
536.05	38759.27
536.22	39285.89
536.38	39000.35
536.55	39229.72
536.72	38609.48
536.89	39147.80
537.06	39047.16
537.23	39381.85
537.40	38953.54
537.57	39445.05
537.74	38932.47
537.91	39660.38
538.08	39728.25
538.25	39601.86
538.42	39550.37
538.59	39653.36
538.75	39346.75
538.92	39819.53
539.09	39812.51
539.26	39445.05
539.43	39381.85
539.60	39807.83
539.77	39943.58
539.94	39831.24
540.11	39983.37
540.28	39765.70
540.44	39419.30
540.61	39613.57
540.78	39854.64
540.95	39875.71
541.12	40088.70
541.29	39892.09
541.46	40079.33
541.62	39800.81
541.79	40425.73
541.96	39761.02
542.13	40175.30
542.30	40573.19
542.47	40552.12
542.63	40259.55
542.80	40767.45
542.97	40954.69
543.14	41170.02
543.31	40868.09
543.48	41006.19
543.64	41769.20
543.81	41303.43
543.98	41134.92
544.15	40957.03
544.32	41535.15
544.48	41397.06
544.65	41343.22
544.82	41160.66
544.99	41003.85
545.16	41689.62
545.32	41132.57
545.49	41214.49
545.66	41535.15
545.83	41909.63
546.00	41776.22
546.16	41134.92
546.33	41329.18
546.50	41106.83
546.67	41666.22
546.83	41287.05
547.00	41769.20
547.17	41565.57
547.34	41219.17
547.50	41312.80
547.67	42129.64
547.84	41979.85
548.00	42293.48
548.17	42567.32
548.34	41792.61
548.51	42087.51
548.67	42279.44
548.84	42129.64
549.01	42265.39
549.18	41783.24
549.34	42628.18
549.51	42417.53
549.68	42614.13
549.84	42689.03
550.01	42412.85
550.18	42761.59
550.34	42265.39
550.51	42167.09
550.68	42469.02
550.84	42061.77
551.01	42047.72
551.18	42562.64
551.34	42724.14
551.51	42462.00
551.68	42572.00
551.84	42796.70
552.01	42859.89
552.18	42810.74
552.34	42642.22
552.51	42878.61
552.68	43232.04
552.84	42937.13
553.01	43164.16
553.18	42974.58
553.34	43119.69
553.51	42878.61
553.67	43255.44
553.84	43196.93
554.01	43672.06
554.17	42820.10
554.34	43414.60
554.51	43461.41
554.67	43562.05
554.84	43433.32
555.00	43538.65
555.17	42871.59
555.33	43262.46
555.50	43388.85
555.67	43648.65
555.83	43363.11
556.00	43695.46
556.16	43711.84
556.33	43777.38
556.50	43669.72
556.66	43407.58
556.83	43480.13
556.99	43686.10
557.16	43749.29
557.32	44086.33
557.49	43973.98
557.65	43510.56
557.82	43674.40
557.98	43093.94
558.15	43243.74
558.32	44175.27
558.48	43966.96
558.65	43814.83
558.81	43885.04
558.98	43536.30
559.14	43576.09
559.31	43615.88
559.47	43438.00
559.64	44233.78
559.80	44102.71
559.97	43997.39
560.13	43503.54
560.30	43779.72
560.46	44088.67
560.63	44247.83
560.79	44348.47
560.96	44655.08
561.12	44060.58
561.29	44418.69
561.45	44224.42
561.61	44495.92
561.78	44229.10
561.94	44055.90
562.11	44247.83
562.27	44095.69
562.44	44229.10
562.60	43978.67
562.77	44062.93
562.93	44275.91
563.10	44406.98
563.26	43842.92
563.42	44472.52
563.59	44486.56
563.75	44245.49
563.92	44648.06
564.08	44208.04
564.24	44472.52
564.41	44224.42
564.57	44451.45
564.74	44339.11
564.90	44641.04
565.07	44414.01
565.23	44594.23
565.39	44334.43
565.56	44294.64
565.72	44776.79
565.88	44837.64
566.05	44308.68
566.21	44374.22
566.38	44505.29
566.54	44435.07
566.70	44786.15
566.87	44460.82
567.03	44746.36
567.19	45024.89
567.36	44687.85
567.52	44369.54
567.68	44769.77
567.85	44399.96
568.01	44638.70
568.17	44428.05
568.34	44694.87
568.50	44425.71
568.66	44626.99
568.83	44758.06
568.99	44814.24
569.15	44739.34
569.32	44556.78
569.48	44512.31
569.64	44624.65
569.81	44545.08
569.97	44659.76
570.13	44732.32
570.30	44704.23
570.46	44435.07
570.62	44652.74
570.78	44514.65
570.95	44622.31
571.11	44912.54
571.27	44610.61
571.43	44914.88
571.60	45193.40
571.76	45296.39
571.92	44355.49
572.09	44619.97
572.25	44790.83
572.41	44341.45
572.57	44858.71
572.74	45226.17
572.90	45298.73
573.06	44800.19
573.22	45015.52
573.38	44940.63
573.55	44561.46
573.71	45041.27
573.87	44722.96
574.03	44329.75
574.20	45275.32
574.36	44872.75
574.52	45116.17
574.68	45240.21
574.84	45104.46
575.01	45085.74
575.17	44978.07
575.33	45071.70
575.49	44809.56
575.65	45478.95
575.82	45179.36
575.98	45340.86
576.14	45394.69
576.30	44858.71
576.46	44744.02
576.62	44994.46
576.79	45099.78
576.95	44931.26
577.11	44861.05
577.27	44882.11
577.43	45034.25
577.59	45209.79
577.75	44847.00
577.92	44966.37
578.08	44828.28
578.24	44952.33
578.40	45099.78
578.56	44746.36
578.72	44879.77
578.88	45209.79
579.04	45106.80
579.21	45034.25
579.37	44858.71
579.53	45242.56
579.69	44783.81
579.85	45148.93
580.01	45167.66
580.17	45050.63
580.33	45621.72
580.49	45155.96
580.65	44949.99
580.82	45127.87
580.98	44772.11
581.14	45301.07
581.30	45265.96
581.46	44992.12
581.62	45265.96
581.78	44964.03
581.94	45439.16
582.10	45364.26
582.26	45102.12
582.42	45106.80
582.58	45027.23
582.74	45013.18
582.90	44872.75
583.06	45268.30
583.22	44919.56
583.38	45265.96
583.54	45764.49
583.70	44959.35
583.86	44863.39
584.02	44694.87
584.18	44807.22
584.34	45078.72
584.50	44893.82
584.66	44858.71
584.82	44774.45
584.98	45668.53
585.14	45289.37
585.30	44994.46
585.46	45074.04
585.62	45298.73
585.78	45139.57
585.94	44491.24
586.10	44718.28
586.26	44699.55
586.42	45284.68
586.58	45347.88
586.74	45289.37
586.90	45045.95
587.06	45153.62
587.22	45181.70
587.38	44603.59
587.54	45326.81
587.70	45635.77
587.86	45380.65
588.02	45022.54
588.18	45385.33
588.34	45289.37
588.49	44959.35
588.65	44811.90
588.81	44893.82
588.97	44818.92
589.13	44910.20
589.29	45420.44
589.45	45102.12
589.61	45167.66
589.77	45771.52
589.93	45205.11
590.08	45207.45
590.24	45509.38
590.40	45904.93
590.56	45605.34
590.72	45118.51
590.88	45523.42
591.04	45373.63
591.20	45914.29
591.35	45455.54
591.51	45710.66
591.67	45429.80
591.83	45221.49
591.99	45104.46
592.15	45399.37
592.31	45429.80
592.46	45546.82
592.62	45574.91
592.78	45303.41
592.94	45317.45
593.10	45343.20
593.26	45759.81
593.41	45542.14
593.57	45357.24
593.73	45553.85
593.89	45659.17
594.05	45448.52
594.20	45336.18
594.36	45673.21
594.52	45610.02
594.68	45729.39
594.84	45738.75
594.99	45703.64
595.15	45312.77
595.31	45530.44
595.47	45656.83
595.62	45560.87
595.78	45148.93
595.94	45411.07
596.10	45621.72
596.25	45624.06
596.41	45675.55
596.57	45488.31
596.73	45537.46
596.88	45654.49
597.04	45624.06
597.20	45446.18
597.36	45228.51
597.51	45731.73
597.67	45841.73
597.83	45682.58
597.99	45776.20
598.14	45825.35
598.30	45549.17
598.46	45736.41
598.61	45502.35
598.77	45502.35
598.93	45392.35
599.09	45738.75
599.24	45888.54
599.40	45436.82
599.56	45628.74
599.71	45710.66
599.87	46160.05
600.03	45385.33
600.18	45656.83
600.34	45226.17
600.50	45888.54
600.65	45771.52
600.81	45776.20
600.97	45502.35
601.12	46026.63
601.28	46129.62
601.44	45940.04
601.59	45127.87
601.75	45689.60
601.91	45563.21
602.06	45462.57
602.22	45759.81
602.37	45738.75
602.53	45516.40
602.69	45918.97
602.84	44968.71
603.00	45336.18
603.16	45720.02
603.31	45144.25
603.47	45221.49
603.62	45457.88
603.78	45567.89
603.94	45546.82
604.09	45893.22
604.25	45710.66
604.40	45713.00
604.56	45832.37
604.71	45724.71
604.87	45455.54
605.03	45570.23
605.18	45347.88
605.34	45492.99
605.49	45111.49
605.65	45331.50
605.80	45254.26
605.96	45661.51
606.12	45626.40
606.27	45694.28
606.43	45588.95
606.58	45778.54
606.74	44966.37
606.89	45102.12
607.05	45460.23
607.20	45406.39
607.36	45254.26
607.51	45647.47
607.67	45418.10
607.82	45287.03
607.98	45207.45
608.13	45209.79
608.29	45518.74
608.44	45160.64
608.60	45003.82
608.75	44807.22
608.91	45350.22
609.06	45106.80
609.22	45067.02
609.37	45441.50
609.53	45088.08
609.68	45453.20
609.84	44821.26
609.99	45272.98
610.15	45200.43
610.30	45282.34
610.46	45064.67
610.61	44924.24
610.76	45195.74
610.92	44914.88
611.07	44729.98
611.23	44779.13
611.38	44959.35
611.54	44662.10
611.69	45092.76
611.84	44617.63
612.00	44624.65
612.15	44861.05
612.31	45280.00
612.46	44619.97
612.62	45247.24
612.77	44612.95
612.92	45139.57
613.08	44626.99
613.23	44891.48
613.39	44589.55
613.54	44666.78
613.69	44547.42
613.85	44926.58
614.00	44741.68
614.15	45078.72
614.31	44559.12
614.46	44938.29
614.62	44418.69
614.77	44619.97
614.92	44470.18
615.08	44648.06
615.23	44505.29
615.38	44002.07
615.54	44236.12
615.69	44308.68
615.84	43838.23
616.00	44069.95
616.15	44123.78
616.30	44502.95
616.46	44266.55
616.61	43793.76
616.76	44048.88
616.92	43758.66
617.07	44217.40
617.22	43749.29
617.37	43746.95
617.53	44013.77
617.68	44170.59
617.83	44201.02
617.99	44252.51
618.14	44652.74
618.29	43943.56
618.45	43861.64
618.60	43861.64
618.75	44004.41
618.90	44004.41
619.06	44044.20
619.21	44435.07
619.36	43950.58
619.51	43735.25
619.67	43796.10
619.82	43653.33
619.97	43866.32
620.12	43749.29
620.28	43107.99
620.43	43491.83
620.58	43650.99
620.73	44093.35
620.89	43587.80
621.04	43859.30
621.19	43543.33
621.34	43377.15
621.49	43608.86
621.65	43510.56
621.80	43302.25
621.95	43035.43
622.10	43498.86
622.25	43470.77
622.41	43377.15
622.56	43040.11
622.71	43580.78
622.86	43746.95
623.01	43236.72
623.16	43484.81
623.32	43292.89
623.47	43709.50
623.62	42955.85
623.77	43098.62
623.92	43084.58
624.07	42869.25
624.23	42869.25
624.38	42820.10
624.53	43126.71
624.68	43276.51
624.83	43091.60
624.98	42869.25
625.13	42820.10
625.29	42918.40
625.44	42775.63
625.59	42557.96
625.74	42663.28
625.89	42391.78
626.04	42499.45
626.19	42459.66
626.34	43119.69
626.49	42696.05
626.65	42576.69
626.80	42464.34
626.95	42550.94
627.10	42401.14
627.25	42347.31
627.40	42202.20
627.55	42356.67
627.70	41823.03
627.85	42127.30
628.00	42351.99
628.15	42183.48
628.30	42625.84
628.45	42150.71
628.60	42227.95
628.76	42508.81
628.91	42089.85
629.06	41879.21
629.21	42759.25
629.36	41902.61
629.51	42108.58
629.66	41872.18
629.81	41603.02
629.96	41741.11
630.11	41923.68
630.26	41940.06
630.41	42021.98
630.56	41624.09
630.71	42396.46
630.86	42223.26
631.01	41977.51
631.16	42108.58
631.31	41567.91
631.46	41680.26
631.61	41975.17
631.76	41565.57
631.91	41446.21
632.06	41563.23
632.21	41448.55
632.36	41570.25
632.51	41546.85
632.66	41607.70
632.81	41481.31
632.96	41399.40
633.10	41771.54
633.25	41165.34
633.40	41364.29
633.55	41567.91
633.70	41361.95
633.85	41633.45
634.00	41600.68
634.15	41584.30
634.30	41181.73
634.45	41015.55
634.60	41050.66
634.75	40982.78
634.90	40966.40
635.05	41450.89
635.19	41368.97
635.34	41443.87
635.49	40861.07
635.64	40704.26
635.79	41251.94
635.94	40797.88
636.09	40746.39
636.24	41043.63
636.39	40645.74
636.53	40802.56
636.68	40627.02
636.83	40666.81
636.98	40765.11
637.13	40376.58
637.28	40807.24
637.43	40652.76
637.57	41202.79
637.72	40947.67
637.87	40669.15
638.02	41017.89
638.17	40788.52
638.32	40378.92
638.46	40254.87
638.61	40315.73
638.76	40449.14
638.91	40500.63
639.06	40224.45
639.20	40435.10
639.35	40706.60
639.50	40137.85
639.65	40903.20
639.80	40816.60
639.94	40151.89
640.09	40491.27
640.24	40322.75
640.39	40196.36
640.54	39566.76
640.68	40172.96
640.83	40034.86
640.98	39824.22
641.13	40245.51
641.27	40027.84
641.42	39751.66
641.57	39959.97
641.72	40327.43
641.86	39674.42
642.01	39477.82
642.16	39852.30
642.31	39798.47
642.45	39988.05
642.60	39524.63
642.75	39716.55
642.90	39964.65
643.04	39751.66
643.19	39749.32
643.34	39775.06
643.48	39510.58
643.63	39601.86
643.78	39227.38
643.93	38815.44
644.07	39236.74
644.22	39468.45
644.37	39370.15
644.51	39449.73
644.66	39395.90
644.81	39276.53
644.95	39445.05
645.10	39700.17
645.25	39487.18
645.39	39742.30
645.54	39707.19
645.69	39335.04
645.83	39189.93
645.98	38906.73
646.13	39168.87
646.27	39194.61
646.42	39180.57
646.57	39243.76
646.71	39536.33
646.86	39138.44
647.00	39494.20
647.15	39159.50
647.30	39115.03
647.44	39187.59
647.59	39122.05
647.74	38855.23
647.88	38906.73
648.03	38679.69
648.17	39033.11
648.32	38682.03
648.47	38532.24
648.61	38572.03
648.76	38785.02
648.90	38504.15
649.05	38670.33
649.20	38621.18
649.34	39241.42
649.49	38450.32
649.63	38682.03
649.78	38546.28
649.92	38534.58
650.07	38756.93
650.21	38775.66
650.36	38731.18
650.51	38237.33
650.65	39023.75
650.80	38799.06
650.94	38714.80
651.09	38660.97
651.23	38560.33
651.38	38471.39
651.52	38419.89
651.67	38586.07
651.81	38335.63
651.96	37834.76
652.10	38389.47
652.25	38234.99
652.39	38052.43
652.54	38398.83
652.68	37937.74
652.83	38394.15
652.97	38211.59
653.12	38153.07
653.26	38335.63
653.41	38375.42
653.55	38258.40
653.70	37965.83
653.84	38068.81
653.99	37832.42
654.13	37928.38
654.27	38237.33
654.42	38000.94
654.56	37830.08
654.71	37993.92
654.85	37628.79
655.00	37844.12
655.14	37345.59
655.29	37418.14
655.43	37553.90
655.57	37233.24
655.72	36985.15
655.86	37177.07
656.01	37266.01
656.15	37090.47
656.30	37106.85
656.44	36725.35
656.58	36992.17
656.73	36723.01
656.87	37219.20
657.01	37109.19
657.16	36994.51
657.30	37113.87
657.45	36725.35
657.59	36825.99
657.73	36987.49
657.88	37097.49
658.02	37205.16
658.16	37361.97
658.31	37015.57
658.45	37195.79
658.60	36573.21
658.74	36711.30
658.88	36842.37
659.03	37015.57
659.17	36479.59
659.31	36392.99
659.46	36608.32
659.60	36400.01
659.74	36495.97
659.89	36425.76
660.03	36563.85
660.17	36381.29
660.32	36381.29
660.46	36676.19
660.60	36652.79
660.74	36414.05
660.89	36542.78
661.03	36121.49
661.17	36196.38
661.32	35777.43
661.46	36091.06
661.60	35592.53
661.74	35747.00
661.89	36004.46
662.03	35761.05
662.17	35784.45
662.31	35882.75
662.46	36004.46
662.60	35751.68
662.74	35716.58
662.88	35407.62
663.03	35688.49
663.17	35604.23
663.31	35040.16
663.45	35189.95
663.60	35246.13
663.74	35126.76
663.88	35278.89
664.02	35445.07
664.17	35409.96
664.31	35257.83
664.45	35239.11
664.59	35257.83
664.73	35470.82
664.88	35285.92
665.02	34553.33
665.16	34555.67
665.30	35096.33
665.44	34859.94
665.59	34934.84
665.73	34298.21
665.87	34260.76
666.01	34387.15
666.15	34529.92
666.29	34408.22
666.44	34457.37
666.58	34499.50
666.72	34457.37
666.86	34263.10
667.00	34429.28
667.14	34220.97
667.28	34206.93
667.43	34096.92
667.57	34181.18
667.71	34047.77
667.85	33937.77
667.99	33834.78
668.13	33673.29
668.27	33490.73
668.41	33820.74
668.56	33156.03
668.70	33696.69
668.84	33787.97
668.98	33619.46
669.12	33586.69
669.26	33661.58
669.40	33151.35
669.54	33099.86
669.68	32870.48
669.82	33163.05
669.96	32877.51
670.10	32933.68
670.25	33041.34
670.39	33504.77
670.53	33179.43
670.67	32964.10
670.81	32776.86
670.95	32954.74
671.09	32886.87
671.23	32931.34
671.37	32748.78
671.51	32430.46
671.65	32250.24
671.79	32306.41
671.93	32446.85
672.07	32437.48
672.21	32299.39
672.35	32208.11
672.49	32362.59
672.63	32252.58
672.77	32165.98
672.91	31845.33
673.05	31707.24
673.19	31737.66
673.33	31716.60
673.47	31360.84
673.61	31168.91
673.75	31356.16
673.89	31197.00
674.03	31138.49
674.17	31391.26
674.31	31302.32
674.45	30754.64
674.59	31325.73
674.73	31227.43
674.87	30705.49
675.01	30890.39
675.15	31166.57
675.29	30796.77
675.43	30927.84
675.56	30831.88
675.70	30504.20
675.84	30347.39
675.98	29460.32
676.12	30174.19
676.26	30485.48
676.40	30223.34
676.54	30150.78
676.68	30242.06
676.82	29476.71
676.96	29638.20
677.10	29593.73
677.23	29783.32
677.37	29947.15
677.51	29706.08
677.65	29610.12
677.79	28858.81
677.93	29310.53
678.07	29172.44
678.21	28711.35
678.34	28996.90
678.48	28716.03
678.62	28737.10
678.76	28491.34
678.90	28886.89
679.04	28493.68
679.18	28542.83
679.31	28294.74
679.45	28002.17
679.59	27807.90
679.73	27550.45
679.87	27929.61
680.00	28004.51
680.14	27793.86
680.28	27672.15
680.42	27438.10
680.56	27555.13
680.70	27442.78
680.83	27393.63
680.97	27000.42
681.11	27208.73
681.25	26764.03
681.39	26859.99
681.52	27271.92
681.66	26974.67
681.80	27082.34
681.94	26878.71
682.07	26698.49
682.21	26309.96
682.35	26590.83
682.49	26712.53
682.62	26639.98
682.76	26448.05
682.90	25799.73
683.04	26113.36
683.17	25947.18
683.31	26260.81
683.45	26291.24
683.59	25862.92
683.72	25495.46
683.86	25408.86
684.00	25589.08
684.13	25575.03
684.27	25429.92
684.41	25259.06
684.55	25008.62
684.68	24858.83
684.82	24886.92
684.96	24929.05
685.09	24732.44
685.23	24858.83
685.37	24760.53
685.50	24493.71
685.64	24554.56
685.78	24402.43
685.91	24383.70
686.05	24126.24
686.19	23950.70
686.32	24013.90
686.46	23971.77
686.60	23555.15
686.73	23828.99
686.87	23871.12
687.01	23534.09
687.14	22932.57
687.28	23283.65
687.42	23220.45
687.55	23154.92
687.69	23073.00
687.82	23166.62
687.96	23054.28
688.10	22677.45
688.23	22635.32
688.37	22581.49
688.50	22534.68
688.64	22618.94
688.78	22195.30
688.91	22075.93
689.05	22515.95
689.18	22345.09
689.32	21921.46
689.46	22050.19
689.59	22455.10
689.73	22595.53
689.86	21563.36
690.00	21745.92
690.13	22111.04
690.27	21757.62
690.41	21631.23
690.54	21022.69
690.68	21282.49
690.81	21184.19
690.95	20765.23
691.08	21233.34
691.22	20798.00
691.35	21113.97
691.49	21336.32
691.62	20996.95
691.76	20823.75
691.89	20957.16
692.03	20362.66
692.16	20269.04
692.30	20283.08
692.43	20175.42
692.57	20313.51
692.70	20262.02
692.84	20004.56
692.97	20107.54
693.11	19894.55
693.24	19566.88
693.38	19309.42
693.51	19707.31
693.65	19786.89
693.78	19620.71
693.92	19445.17
694.05	19428.79
694.19	19311.76
694.32	18986.43
694.45	19332.82
694.59	18967.70
694.72	19178.35
694.86	18963.02
694.99	19129.20
695.13	18759.39
695.26	18565.13
695.39	18450.44
695.53	18604.92
695.66	18342.78
695.80	18455.12
695.93	18352.14
696.07	18054.89
696.20	17916.80
696.33	18176.60
696.47	18082.98
696.60	18099.36
696.73	17827.86
696.87	17778.71
697.00	17914.46
697.14	17940.21
697.27	17689.77
697.40	17750.62
697.54	17661.68
697.67	17193.58
697.80	17378.48
697.94	17542.32
698.07	17130.38
698.21	17380.82
698.34	17135.06
698.47	16954.84
698.61	16992.29
698.74	16685.68
698.87	16989.95
699.01	16212.89
699.14	16666.95
699.27	16322.90
699.40	16528.86
699.54	16093.52
699.67	16355.66
699.80	16285.45
699.94	16219.91
700.07	16135.65
700.20	15995.22
700.34	15845.43
700.47	15735.42
700.60	15896.92
700.73	16065.44
700.87	15421.79
701.00	15389.02
701.13	15407.75
701.26	15452.22
701.40	15405.41
701.53	15482.64
701.66	15260.29
701.79	15166.67
701.93	15129.22
702.06	15007.52
702.19	14813.25
702.32	14974.75
702.46	14813.25
702.59	14817.93
702.72	14988.79
702.85	14824.95
702.99	14754.74
703.12	14970.07
703.25	14597.92
703.38	14490.26
703.51	14359.19
703.65	14312.38
703.78	14281.95
703.91	14174.28
704.04	14235.14
704.17	14115.77
704.31	14012.79
704.44	13870.01
704.57	13760.01
704.70	13708.52
704.83	13916.83
704.96	13806.82
705.10	13563.40
705.23	14038.53
>>>>>End Processed Spectral Data<<<<<
