SpectraSuite Data File
++++++++++++++++++++++++++++++++++++
Date: Fri Oct 25 10:44:33 EDT 2013
User: price-jones
Dark Spectrum Present: No
Reference Spectrum Present: No
Number of Sampled Component Spectra: 1
Spectrometers: USB2+H05261
Integration Time (usec): 100000 (USB2+H05261)
Spectra Averaged: 1 (USB2+H05261)
Boxcar Smoothing: 0 (USB2+H05261)
Correct for Electrical Dark: No (USB2+H05261)
Strobe/Lamp Enabled: No (USB2+H05261)
Correct for Detector Non-linearity: No (USB2+H05261)
Correct for Stray Light: No (USB2+H05261)
Number of Pixels in Processed Spectrum: 2048
>>>>>Begin Processed Spectral Data<<<<<
365.73	88.94
365.92	88.94
366.12	88.94
366.32	74.90
366.52	28.09
366.72	0.00
366.91	0.00
367.11	0.00
367.31	0.00
367.51	11.70
367.70	0.00
367.90	65.54
368.10	65.54
368.30	72.56
368.49	32.77
368.69	112.35
368.89	79.58
369.09	11.70
369.28	44.47
369.48	16.38
369.68	91.28
369.87	79.58
370.07	140.43
370.27	154.48
370.47	191.92
370.66	346.40
370.86	339.38
371.06	402.57
371.25	491.51
371.45	388.53
371.65	463.43
371.84	451.72
372.04	479.81
372.24	496.19
372.44	540.66
372.63	575.77
372.83	395.55
373.03	465.77
373.22	512.58
373.42	444.70
373.62	552.37
373.81	535.98
374.01	416.62
374.21	493.85
374.40	517.26
374.60	587.47
374.79	557.05
374.99	535.98
375.19	568.75
375.38	603.86
375.58	561.73
375.78	507.90
375.97	601.52
376.17	655.35
376.37	528.96
376.56	585.13
376.76	610.88
376.95	547.69
377.15	578.11
377.35	538.32
377.54	559.39
377.74	561.73
377.93	648.33
378.13	641.31
378.33	592.16
378.52	624.92
378.72	660.03
378.91	645.99
379.11	606.20
379.31	603.86
379.50	524.28
379.70	713.86
379.89	610.88
380.09	650.67
380.28	608.54
380.48	610.88
380.68	634.29
380.87	676.41
381.07	716.20
381.26	638.97
381.46	711.52
381.65	620.24
381.85	667.05
382.04	699.82
382.24	676.41
382.43	653.01
382.63	645.99
382.83	706.84
383.02	774.72
383.22	751.31
383.41	653.01
383.61	723.23
383.80	819.19
384.00	695.14
384.19	702.16
384.39	830.89
384.58	791.10
384.78	727.91
384.97	767.70
385.17	695.14
385.36	779.40
385.56	713.86
385.75	620.24
385.95	751.31
386.14	821.53
386.34	718.54
386.53	840.25
386.72	819.19
386.92	737.27
387.11	774.72
387.31	863.66
387.50	777.06
387.70	760.67
387.89	849.61
388.09	823.87
388.28	863.66
388.48	786.42
388.67	933.87
388.86	924.51
389.06	884.72
389.25	931.53
389.45	964.30
389.64	924.51
389.84	966.64
390.03	851.96
390.22	940.90
390.42	964.30
390.61	945.58
390.81	976.00
391.00	931.53
391.19	950.26
391.39	978.34
391.58	912.81
391.78	1048.56
391.97	971.32
392.16	964.30
392.36	1104.73
392.55	954.94
392.75	919.83
392.94	985.37
393.13	950.26
393.33	994.73
393.52	990.05
393.71	1004.09
393.91	1050.90
394.10	1062.60
394.29	1025.15
394.49	1104.73
394.68	1118.78
394.88	1069.62
395.07	1193.67
395.26	1146.86
395.46	1086.01
395.65	1151.54
395.84	1160.91
396.04	1212.40
396.23	1055.58
396.42	1074.31
396.62	1067.28
396.81	1142.18
397.00	1184.31
397.19	1153.88
397.39	1165.59
397.58	1214.74
397.77	1268.57
397.97	1275.59
398.16	1338.79
398.35	1373.89
398.55	1343.47
398.74	1336.45
398.93	1284.95
399.12	1291.98
399.32	1273.25
399.51	1308.36
399.70	1472.20
399.90	1413.68
400.09	1371.55
400.28	1350.49
400.47	1495.60
400.67	1551.78
400.86	1474.54
401.05	1500.28
401.24	1542.41
401.44	1533.05
401.63	1462.83
401.82	1533.05
402.01	1460.49
402.21	1516.67
402.40	1619.65
402.59	1511.99
402.78	1600.93
402.97	1586.88
403.17	1657.10
403.36	1687.53
403.55	1619.65
403.74	1717.95
403.93	1603.27
404.13	1612.63
404.32	1713.27
404.51	1708.59
404.70	1722.63
404.89	1771.79
405.09	1764.76
405.28	1703.91
405.47	1727.32
405.66	1860.73
405.85	1762.42
406.05	1762.42
406.24	1710.93
406.43	1797.53
406.62	1940.30
406.81	1898.17
407.00	1914.56
407.20	1839.66
407.39	1919.24
407.58	1867.75
407.77	1970.73
407.96	1963.71
408.15	2017.54
408.34	1830.30
408.54	2062.01
408.73	2071.37
408.92	2113.50
409.11	2143.93
409.30	2153.29
409.49	2054.99
409.68	2143.93
409.87	2176.70
410.07	2239.89
410.26	2139.25
410.45	2214.15
410.64	2289.04
410.83	2228.19
411.02	2361.60
411.21	2445.86
411.40	2263.30
411.59	2349.90
411.78	2305.43
411.98	2368.62
412.17	2314.79
412.36	2333.51
412.55	2399.05
412.74	2457.56
412.93	2572.25
413.12	2415.43
413.31	2630.76
413.50	2595.65
413.69	2621.40
413.88	2502.03
414.07	2630.76
414.26	2626.08
414.45	2729.06
414.64	2649.49
414.83	2818.00
415.02	2801.62
415.22	2841.41
415.41	2789.92
415.60	2895.24
415.79	2902.26
415.98	2993.55
416.17	2916.31
416.36	2902.26
416.55	2855.45
416.74	3059.08
416.93	2942.05
417.12	2981.84
417.31	3016.95
417.50	2937.37
417.69	3215.90
417.88	3112.91
418.07	3012.27
418.26	3185.47
418.45	3152.70
418.64	3356.33
418.83	3260.37
419.02	3323.56
419.21	3286.11
419.39	3243.98
419.58	3138.66
419.77	3164.40
419.96	3262.71
420.15	3440.59
420.34	3335.26
420.53	3293.13
420.72	3384.41
420.91	3398.46
421.10	3492.08
421.29	3646.55
421.48	3466.33
421.67	3531.87
421.86	3496.76
422.05	3494.42
422.24	3501.44
422.43	3466.33
422.61	3592.72
422.80	3447.61
422.99	3646.55
423.18	3604.42
423.37	3581.02
423.56	3637.19
423.75	3723.79
423.94	3613.79
424.13	3382.07
424.32	3421.86
424.50	3529.53
424.69	3618.47
424.88	3798.69
425.07	3684.00
425.26	3665.28
425.45	3487.40
425.64	3499.10
425.83	3630.17
426.01	3667.62
426.20	3803.37
426.39	3770.60
426.58	3702.73
426.77	3592.72
426.96	3775.28
427.15	3681.66
427.33	3817.41
427.52	3925.08
427.71	3843.16
427.90	3838.48
428.09	3885.29
428.28	3866.56
428.46	3756.56
428.65	3896.99
428.84	3983.59
429.03	3922.74
429.22	3756.56
429.40	3974.23
429.59	3925.08
429.78	3850.18
429.97	3723.79
430.16	3749.54
430.34	3782.31
430.53	3974.23
430.72	3920.40
430.91	3936.78
431.10	3997.64
431.28	4142.75
431.47	4287.86
431.66	4381.48
431.85	4128.70
432.03	4168.49
432.22	4332.33
432.41	4175.52
432.60	4318.29
432.79	4418.93
432.97	4423.61
433.16	4292.54
433.35	4170.83
433.54	4184.88
433.72	4442.34
433.91	4325.31
434.10	4379.14
434.28	4362.76
434.47	4337.01
434.66	4664.69
434.85	4552.34
435.03	4493.83
435.22	4517.23
435.41	4704.48
435.59	4596.81
435.78	4636.60
435.97	4652.98
436.16	4645.96
436.34	4774.69
436.53	4844.91
436.72	4718.52
436.90	4629.58
437.09	4891.72
437.28	4849.59
437.46	4784.06
437.65	4704.48
437.84	4648.30
438.02	4662.35
438.21	4713.84
438.40	4727.88
438.58	4943.21
438.77	4910.44
438.96	4908.10
439.14	5043.85
439.33	5247.48
439.52	5193.65
439.70	5198.33
439.89	5329.40
440.08	5195.99
440.26	5226.42
440.45	5249.82
440.63	5268.55
440.82	5528.35
441.01	5530.69
441.19	5495.58
441.38	5621.97
441.57	5521.32
441.75	5666.44
441.94	5673.46
442.12	5680.48
442.31	5617.29
442.50	5717.93
442.68	5806.87
442.87	5762.40
443.05	5933.26
443.24	5921.56
443.43	5930.92
443.61	5771.76
443.80	6176.67
443.98	5912.19
444.17	5811.55
444.35	5951.98
444.54	6033.90
444.73	5895.81
444.91	5895.81
445.10	5942.62
445.28	5937.94
445.47	5905.17
445.65	5935.60
445.84	6054.97
446.02	6052.63
446.21	5959.00
446.39	5837.30
446.58	6148.59
446.77	6094.76
446.95	5937.94
447.14	6150.93
447.32	6263.27
447.51	6129.86
447.69	6076.03
447.88	6267.95
448.06	6246.89
448.25	5996.45
448.43	6153.27
448.62	6090.07
448.80	6225.82
448.99	6251.57
449.17	6303.06
449.36	6260.93
449.54	6403.71
449.73	6509.03
449.91	6312.42
450.10	6445.84
450.28	6452.86
450.46	6403.71
450.65	6511.37
450.83	6408.39
451.02	6562.86
451.20	6595.63
451.39	6820.32
451.57	6689.25
451.76	6778.19
451.94	6642.44
452.13	6724.36
452.31	6626.06
452.49	6478.60
452.68	6724.36
452.86	6586.27
453.05	6712.66
453.23	6766.49
453.42	6663.51
453.60	6881.18
453.78	6918.62
453.97	6686.91
454.15	6876.49
454.34	6710.32
454.52	6815.64
454.70	6867.13
454.89	7063.74
455.07	7045.01
455.26	7082.46
455.44	7213.53
455.62	7066.08
455.81	7176.08
455.99	7131.61
456.17	7337.58
456.36	7075.44
456.54	7297.79
456.73	7288.43
456.91	7365.67
457.09	7344.60
457.28	7571.63
457.46	7414.82
457.64	7625.47
457.83	7274.38
458.01	7227.57
458.19	7379.71
458.38	7688.66
458.56	7611.42
458.74	7550.57
458.93	7501.42
459.11	7555.25
459.29	7508.44
459.48	7822.07
459.66	7634.83
459.84	7557.59
460.03	7833.77
460.21	7873.56
460.39	7927.39
460.57	7885.26
460.76	7843.14
460.94	7826.75
461.12	8051.44
461.31	7908.67
461.49	7960.16
461.67	8011.65
461.85	8058.46
462.04	8086.55
462.22	8107.62
462.40	8266.77
462.59	8002.29
462.77	8124.00
462.95	8217.62
463.13	8147.40
463.32	7990.59
463.50	8287.84
463.68	8397.84
463.86	8540.61
464.05	8336.99
464.23	8318.26
464.41	8390.82
464.59	8411.89
464.78	8571.04
464.96	8418.91
465.14	8463.38
465.32	8439.97
465.50	8540.61
465.69	8477.42
465.87	8575.72
466.05	8542.96
466.23	8372.10
466.41	8578.06
466.60	8772.33
466.78	8634.24
466.96	8571.04
467.14	8706.79
467.32	8627.21
467.51	8879.99
467.69	8463.38
467.87	8819.14
468.05	8807.44
468.23	8884.67
468.41	8596.79
468.60	8517.21
468.78	8784.03
468.96	8725.52
469.14	8966.59
469.32	9046.17
469.50	8732.54
469.69	8936.17
469.87	9294.27
470.05	9102.34
470.23	9165.54
470.41	9156.18
470.59	9181.92
470.77	9242.78
470.95	9151.49
471.14	9376.19
471.32	9291.93
471.50	9458.10
471.68	9373.85
471.86	9444.06
472.04	9542.36
472.22	9919.19
472.40	9430.02
472.58	9771.74
472.77	9692.16
472.95	9895.78
473.13	10073.67
473.31	9734.29
473.49	9839.61
473.67	9863.02
473.85	9865.36
474.03	10289.00
474.21	10040.90
474.39	10176.65
474.57	10265.59
474.75	10188.35
474.93	10408.36
475.12	10195.37
475.30	10349.85
475.48	10314.74
475.66	10448.15
475.84	10560.50
476.02	10602.63
476.20	10541.77
476.38	10799.23
476.56	11229.89
476.74	10930.30
476.92	10939.66
477.10	10970.09
477.28	11524.80
477.46	11164.36
477.64	11295.43
477.82	11323.51
478.00	11604.38
478.18	11557.57
478.36	11782.26
478.54	11618.42
478.72	11927.37
478.90	11957.80
479.08	12145.04
479.26	11962.48
479.44	12292.49
479.62	12325.26
479.80	12559.31
479.98	12428.24
480.16	12795.71
480.34	12554.63
480.52	12711.45
480.70	12882.31
480.88	12727.83
481.06	12971.25
481.24	12947.84
481.41	13469.78
481.59	13231.05
481.77	13427.65
481.95	13240.41
482.13	13418.29
482.31	13647.66
482.49	14097.05
482.67	13886.40
482.85	13937.89
483.03	13881.72
483.21	14085.34
483.39	14033.85
483.57	14216.41
483.74	14478.55
483.92	14251.52
484.10	14403.66
484.28	14806.23
484.46	14834.32
484.64	15129.22
484.82	14846.02
485.00	15250.93
485.18	15365.62
485.35	15370.30
485.53	15154.97
485.71	15321.15
485.89	15583.29
486.07	15262.63
486.25	15618.39
486.43	15807.98
486.61	15840.75
486.78	16332.26
486.96	16156.72
487.14	16475.03
487.32	16290.13
487.50	16638.87
487.68	16994.63
487.85	17137.40
488.03	17142.08
488.21	17472.10
488.39	17322.30
488.57	17591.47
488.75	17465.08
488.92	18064.25
489.10	17790.41
489.28	17844.24
489.46	18270.22
489.64	18228.09
489.81	18735.99
489.99	18782.80
490.17	18911.53
490.35	19035.58
490.53	18864.72
490.70	19019.19
490.88	18991.11
491.06	19185.37
491.24	19499.00
491.41	19255.59
491.59	19510.71
491.77	19211.12
491.95	19711.99
492.13	19831.36
492.30	20339.26
492.48	20147.33
492.66	20542.88
492.84	20386.07
493.01	20580.33
493.19	20826.09
493.37	21032.05
493.54	20992.26
493.72	20940.77
493.90	21057.80
494.08	21420.58
494.25	21448.67
494.43	21642.93
494.61	21696.77
494.79	21668.68
494.96	21781.03
495.14	22022.10
495.32	22134.45
495.49	22239.77
495.67	22583.83
495.85	22499.57
496.02	22389.56
496.20	22675.11
496.38	22632.98
496.55	22824.90
496.73	23234.50
496.91	23257.90
497.09	23101.09
497.26	23433.44
497.44	23438.12
497.62	23538.77
497.79	23747.08
497.97	23915.59
498.14	23672.18
498.32	23901.55
498.50	23669.84
498.67	24472.64
498.85	24194.12
499.03	24638.82
499.20	24264.33
499.38	24407.11
499.56	24526.47
499.73	24856.49
499.91	24800.32
500.08	24821.38
500.26	24615.41
500.44	25025.01
500.61	25095.22
500.79	25013.31
500.97	25195.87
501.14	25696.74
501.32	25441.62
501.49	25469.71
501.67	25680.36
501.84	25717.81
502.02	25965.90
502.20	25715.47
502.37	26092.29
502.55	26274.85
502.72	26342.73
502.90	26551.04
503.07	26132.08
503.25	26354.43
503.43	26157.83
503.60	26555.72
503.78	26742.96
503.95	26625.93
504.13	26590.83
504.30	26831.90
504.48	26810.84
504.65	27206.39
504.83	27271.92
505.01	27484.91
505.18	27494.27
505.36	27520.02
505.53	27349.16
505.71	27761.09
505.88	28156.64
506.06	27510.66
506.23	28034.94
506.41	27693.22
506.58	28151.96
506.76	28425.81
506.93	28318.14
507.11	28287.71
507.28	28016.21
507.46	28091.11
507.63	28327.50
507.81	28435.17
507.98	28217.50
508.16	28308.78
508.33	28453.89
508.50	28662.20
508.68	28978.17
508.85	29050.73
509.03	29048.39
509.20	28713.69
509.38	29530.54
509.55	29249.67
509.73	29577.35
509.90	29930.77
510.08	29228.61
510.25	29544.58
510.42	29771.61
510.60	30068.86
510.77	29841.83
510.95	30052.48
511.12	30272.49
511.30	30331.00
511.47	30333.34
511.64	30441.01
511.82	30651.66
511.99	30206.95
512.17	30375.47
512.34	30047.80
512.51	31143.17
512.69	30937.20
512.86	30836.56
513.04	31461.48
513.21	30663.36
513.38	30913.80
513.56	31330.41
513.73	30986.35
513.90	31353.82
514.08	31189.98
514.25	31716.60
514.43	31353.82
514.60	31234.45
514.77	31543.40
514.95	31379.56
515.12	31384.24
515.29	31721.28
515.47	32025.55
515.64	31887.46
515.81	32023.21
515.99	32135.56
516.16	31709.58
516.33	31754.05
516.51	32009.17
516.68	31810.22
516.85	31353.82
517.03	31718.94
517.20	31906.18
517.37	32294.71
517.54	32498.34
517.72	32706.65
517.89	32215.13
518.06	32547.49
518.24	32535.79
518.41	32437.48
518.58	32620.05
518.75	32758.14
518.93	33158.37
519.10	32931.34
519.27	33254.33
519.45	33483.70
519.62	33516.47
519.79	33146.67
519.96	33841.81
520.14	33546.90
520.31	33710.74
520.48	33596.05
520.65	33448.60
520.83	33668.61
521.00	33855.85
521.17	34316.93
521.34	34443.32
521.52	34220.97
521.69	34850.58
521.86	34401.19
522.03	34354.38
522.20	34630.57
522.38	34808.45
522.55	34747.59
522.72	34920.79
522.89	34590.78
523.07	35072.93
523.24	34515.88
523.41	35084.63
523.58	35304.64
523.75	35309.32
523.92	34642.27
524.10	35529.33
524.27	35482.52
524.44	34993.35
524.61	35491.88
524.78	35826.58
524.96	35524.65
525.13	35917.86
525.30	35915.52
525.47	36023.19
525.64	35519.97
525.81	35922.54
525.98	35597.21
526.16	35838.28
526.33	35688.49
526.50	35597.21
526.67	35639.34
526.84	35508.27
527.01	35278.89
527.18	36074.68
527.36	36505.34
527.53	36051.27
527.70	36503.00
527.87	36458.52
528.04	36205.75
528.21	36573.21
528.38	36563.85
528.55	36371.92
528.72	36905.57
528.89	37195.79
529.07	36327.45
529.24	36376.61
529.41	37060.04
529.58	36561.51
529.75	37104.51
529.92	37256.65
530.09	37137.28
530.26	37303.46
530.43	37184.09
530.60	37474.32
530.77	37387.72
530.94	37668.58
531.11	37591.34
531.28	37876.89
531.46	37703.69
531.63	37804.33
531.80	37560.92
531.97	37741.14
532.14	37399.42
532.31	37635.81
532.48	37621.77
532.65	37720.07
532.82	37553.90
532.99	38103.92
533.16	38054.77
533.33	37841.78
533.50	38148.39
533.67	38529.90
533.84	37933.06
534.01	38108.60
534.18	38347.34
534.35	38621.18
534.52	38337.98
534.69	38494.79
534.86	38401.17
535.03	38178.82
535.20	38440.96
535.37	38792.04
535.54	38834.17
535.71	38401.17
535.88	38733.53
536.05	38646.93
536.22	39199.29
536.38	39033.11
536.55	39002.69
536.72	38710.12
536.89	38789.70
537.06	38930.13
537.23	39288.23
537.40	38693.74
537.57	39379.51
537.74	38953.54
537.91	39412.28
538.08	39512.92
538.25	39253.12
538.42	39391.22
538.59	39182.91
538.75	39007.37
538.92	39435.69
539.09	39711.87
539.26	39714.21
539.43	38967.58
539.60	39878.05
539.77	39487.18
539.94	39489.52
540.11	39833.58
540.28	39943.58
540.44	39679.10
540.61	39803.15
540.78	39789.11
540.95	39709.53
541.12	39709.53
541.29	39665.06
541.46	39927.20
541.62	40294.66
541.79	40058.27
541.96	39875.71
542.13	40102.74
542.30	40109.76
542.47	40091.04
542.63	40374.24
542.80	40224.45
542.97	40605.95
543.14	40975.76
543.31	40570.85
543.48	40687.87
543.64	41406.42
543.81	41240.24
543.98	41034.27
544.15	40608.29
544.32	41179.39
544.48	41792.61
544.65	40832.99
544.82	41214.49
544.99	41071.72
545.16	41097.47
545.32	41263.64
545.49	41574.94
545.66	41443.87
545.83	41516.42
546.00	41563.23
546.16	41331.52
546.33	41200.45
546.50	40772.13
546.67	41729.41
546.83	40718.30
547.00	41453.23
547.17	41755.16
547.34	41490.68
547.50	41930.70
547.67	41860.48
547.84	41439.18
548.00	41741.11
548.17	41752.82
548.34	41757.50
548.51	42394.12
548.67	41783.24
548.84	42021.98
549.01	41457.91
549.18	41811.33
549.34	42230.29
549.51	42436.25
549.68	42417.53
549.84	42351.99
550.01	41940.06
550.18	42274.76
550.34	42251.35
550.51	42344.97
550.68	42227.95
550.84	42146.03
551.01	42234.97
551.18	42066.45
551.34	42337.95
551.51	42349.65
551.68	42396.46
551.84	42623.50
552.01	42801.38
552.18	42649.24
552.34	42099.22
552.51	42607.11
552.68	42534.56
552.84	42522.85
553.01	43063.52
553.18	43044.79
553.34	42777.97
553.51	42398.80
553.67	42674.99
553.84	43278.85
554.01	43164.16
554.17	43138.41
554.34	42651.58
554.51	43096.28
554.67	43072.88
554.84	43012.02
555.00	42710.10
555.17	43255.44
555.33	43023.73
555.50	43012.02
555.67	43435.66
555.83	43234.38
556.00	43168.84
556.16	43241.40
556.33	42965.21
556.50	43110.33
556.66	43154.80
556.83	42899.68
556.99	43508.22
557.16	43665.03
557.32	43384.17
557.49	43489.49
557.65	43185.22
557.82	43346.72
557.98	43817.17
558.15	43599.50
558.32	43545.67
558.48	43255.44
558.65	43026.07
558.81	43002.66
558.98	43187.56
559.14	43253.10
559.31	43335.02
559.47	43828.87
559.64	43615.88
559.80	43761.00
559.97	43548.01
560.13	42967.55
560.30	43416.94
560.46	43566.73
560.63	43927.17
560.79	44076.97
560.96	43791.42
561.12	43810.15
561.29	43913.13
561.45	43779.72
561.61	43625.25
561.78	43973.98
561.94	43634.61
562.11	43435.66
562.27	44100.37
562.44	43753.97
562.60	43871.00
562.77	43878.02
562.93	43786.74
563.10	43887.39
563.26	43861.64
563.42	43639.29
563.59	44039.52
563.75	43660.35
563.92	44603.59
564.08	44350.81
564.24	44659.76
564.41	43634.61
564.57	44114.42
564.74	44083.99
564.90	43709.50
565.07	43922.49
565.23	44570.82
565.39	43936.54
565.56	44025.48
565.72	44308.68
565.88	44135.48
566.05	44439.75
566.21	44238.47
566.38	44067.61
566.54	44678.49
566.70	44240.81
566.87	44334.43
567.03	44362.51
567.19	44758.06
567.36	44376.56
567.52	44142.50
567.68	44591.89
567.85	43957.60
568.01	44552.10
568.17	44072.29
568.34	44231.44
568.50	44196.34
568.66	44339.11
568.83	44463.16
568.99	43976.33
569.15	44095.69
569.32	44194.00
569.48	44126.12
569.64	44762.75
569.81	44421.03
569.97	44381.24
570.13	44446.77
570.30	44308.68
570.46	44360.17
570.62	44158.89
570.78	44229.10
570.95	44210.38
571.11	44645.72
571.27	44367.20
571.43	44002.07
571.60	44430.39
571.76	44411.67
571.92	44294.64
572.09	44409.32
572.25	44418.69
572.41	44481.88
572.57	44704.23
572.74	44828.28
572.90	44839.98
573.06	44727.64
573.22	44727.64
573.38	44507.63
573.55	44395.28
573.71	44669.12
573.87	44603.59
574.03	44034.84
574.20	45034.25
574.36	44776.79
574.52	44451.45
574.68	44659.76
574.84	45088.08
575.01	44790.83
575.17	44528.69
575.33	44568.48
575.49	44502.95
575.65	44629.34
575.82	45118.51
575.98	44465.50
576.14	44802.53
576.30	44545.08
576.46	44388.26
576.62	44849.35
576.79	44378.90
576.95	44509.97
577.11	44638.70
577.27	44680.83
577.43	44844.66
577.59	44533.37
577.75	44362.51
577.92	44186.97
578.08	44161.23
578.24	44437.41
578.40	44399.96
578.56	44278.25
578.72	44435.07
578.88	44940.63
579.04	44945.31
579.21	45010.84
579.37	44947.65
579.53	44713.59
579.69	44308.68
579.85	44732.32
580.01	44772.11
580.17	44615.29
580.33	44830.62
580.49	44781.47
580.65	44935.95
580.82	44765.09
580.98	44306.34
581.14	44568.48
581.30	45020.20
581.46	44779.13
581.62	44912.54
581.78	44746.36
581.94	45092.76
582.10	44552.10
582.26	44968.71
582.42	44898.50
582.58	44842.32
582.74	44591.89
582.90	44540.39
583.06	44788.49
583.22	45123.19
583.38	45305.75
583.54	44865.73
583.70	44987.44
583.86	44561.46
584.02	44708.91
584.18	44980.42
584.34	44725.30
584.50	44760.40
584.66	44505.29
584.82	44879.77
584.98	44935.95
585.14	44994.46
585.30	44575.50
585.46	44657.42
585.62	44392.94
585.78	45059.99
585.94	44589.55
586.10	44708.91
586.26	44982.76
586.42	44931.26
586.58	44720.62
586.74	44596.57
586.90	44406.98
587.06	44666.78
587.22	45167.66
587.38	44612.95
587.54	44973.39
587.70	45083.40
587.86	44786.15
588.02	45069.36
588.18	45123.19
588.34	44409.32
588.49	44559.12
588.65	44472.52
588.81	44491.24
588.97	44390.60
589.13	44477.20
589.29	44624.65
589.45	45069.36
589.61	44919.56
589.77	44978.07
589.93	44605.93
590.08	45059.99
590.24	45251.92
590.40	44992.12
590.56	45003.82
590.72	44839.98
590.88	44727.64
591.04	44683.17
591.20	45675.55
591.35	45390.01
591.51	45308.09
591.67	45090.42
591.83	45209.79
591.99	44886.79
592.15	45577.25
592.31	44957.01
592.46	44959.35
592.62	44774.45
592.78	45242.56
592.94	45244.90
593.10	44786.15
593.26	45223.83
593.41	44971.05
593.57	44844.66
593.73	44907.86
593.89	45177.02
594.05	44875.09
594.20	44863.39
594.36	45703.64
594.52	45010.84
594.68	45336.18
594.84	45097.44
594.99	45380.65
595.15	44821.26
595.31	45010.84
595.47	44500.61
595.62	45022.54
595.78	45209.79
595.94	45003.82
596.10	45450.86
596.25	44872.75
596.41	45289.37
596.57	45123.19
596.73	45703.64
596.88	44549.76
597.04	45352.56
597.20	45357.24
597.36	45263.62
597.51	45322.13
597.67	45698.96
597.83	45179.36
597.99	44931.26
598.14	45528.10
598.30	45319.79
598.46	44947.65
598.61	45373.63
598.77	45085.74
598.93	45277.66
599.09	45043.61
599.24	45375.97
599.40	45507.04
599.56	45158.30
599.71	45069.36
599.87	45317.45
600.03	45249.58
600.18	45160.64
600.34	45207.45
600.50	45139.57
600.65	45223.83
600.81	45481.29
600.97	45715.34
601.12	45474.27
601.28	45352.56
601.44	44851.69
601.59	45144.25
601.75	44839.98
601.91	45216.81
602.06	44968.71
602.22	45130.21
602.37	45200.43
602.53	45242.56
602.69	45387.67
602.84	44842.32
603.00	45263.62
603.16	44898.50
603.31	44971.05
603.47	45132.55
603.62	44765.09
603.78	45146.59
603.94	44940.63
604.09	45322.13
604.25	44982.76
604.40	45481.29
604.56	45074.04
604.71	45200.43
604.87	45134.89
605.03	44896.16
605.18	45008.50
605.34	44704.23
605.49	44877.43
605.65	44751.04
605.80	45020.20
605.96	45312.77
606.12	45153.62
606.27	45186.38
606.43	44961.69
606.58	44996.80
606.74	44949.99
606.89	45191.06
607.05	45174.68
607.20	45532.78
607.36	44737.00
607.51	45310.43
607.67	44975.73
607.82	45343.20
607.98	45303.41
608.13	45038.93
608.29	44877.43
608.44	44882.11
608.60	44500.61
608.75	44708.91
608.91	44549.76
609.06	44397.62
609.22	44617.63
609.37	44425.71
609.53	44900.84
609.68	44624.65
609.84	44711.25
609.99	45027.23
610.15	44280.60
610.30	45038.93
610.46	44023.14
610.61	44720.62
610.76	44685.51
610.92	44573.16
611.07	44898.50
611.23	44626.99
611.38	44374.22
611.54	44648.06
611.69	44390.60
611.84	44280.60
612.00	44308.68
612.15	44348.47
612.31	44521.67
612.46	44130.80
612.62	44519.33
612.77	44432.73
612.92	44545.08
613.08	44748.70
613.23	44322.72
613.39	44414.01
613.54	43889.73
613.69	44037.18
613.85	44217.40
614.00	44320.38
614.15	44493.58
614.31	44329.75
614.46	44002.07
614.62	44217.40
614.77	44259.53
614.92	44491.24
615.08	43861.64
615.23	44039.52
615.38	44201.02
615.54	43634.61
615.69	43587.80
615.84	43927.17
616.00	44130.80
616.15	44198.68
616.30	44388.26
616.46	43531.62
616.61	43634.61
616.76	43772.70
616.92	43131.39
617.07	43208.63
617.22	43515.24
617.37	43526.94
617.53	44114.42
617.68	43924.83
617.83	43590.14
617.99	43863.98
618.14	43606.52
618.29	43679.08
618.45	43629.93
618.60	43910.79
618.75	43711.84
618.90	43555.03
619.06	43646.31
619.21	43714.19
619.36	43491.83
619.51	43639.29
619.67	43194.59
619.82	43620.56
619.97	43878.02
620.12	43243.74
620.28	42747.54
620.43	42616.47
620.58	43040.11
620.73	43105.65
620.89	42934.79
621.04	43159.48
621.19	42932.45
621.34	43365.45
621.49	43257.78
621.65	42621.16
621.80	43243.74
621.95	42586.05
622.10	43110.33
622.25	42663.28
622.41	42777.97
622.56	42562.64
622.71	43147.78
622.86	42593.07
623.01	42632.86
623.16	43089.26
623.32	42576.69
623.47	42836.48
623.62	42749.88
623.77	42515.83
623.92	42644.56
624.07	42639.88
624.23	42171.77
624.38	42169.43
624.53	42190.50
624.68	42092.19
624.83	42370.72
624.98	42057.09
625.13	42497.11
625.29	42377.74
625.44	42855.21
625.59	42108.58
625.74	42113.26
625.89	41975.17
626.04	41890.91
626.19	41935.38
626.34	42471.36
626.49	42522.85
626.65	42139.00
626.80	42590.73
626.95	42178.79
627.10	42043.04
627.25	42029.00
627.40	41563.23
627.55	41586.64
627.70	41572.60
627.85	41635.79
628.00	41813.67
628.15	41689.62
628.30	41415.78
628.45	42101.56
628.60	41918.99
628.76	41537.49
628.91	41935.38
629.06	41808.99
629.21	41677.92
629.36	41743.45
629.51	41715.37
629.66	41488.34
629.81	41273.01
629.96	41486.00
630.11	41872.18
630.26	41408.76
630.41	41736.43
630.56	41874.52
630.71	41258.96
630.86	41233.22
631.01	41200.45
631.16	41427.48
631.31	41184.07
631.46	41170.02
631.61	41118.53
631.76	41134.92
631.91	40907.88
632.06	41633.45
632.21	41462.59
632.36	41350.24
632.51	41074.06
632.66	41060.02
632.81	40795.54
632.96	41090.44
633.10	40566.16
633.25	41104.49
633.40	41099.81
633.55	41045.97
633.70	41244.92
633.85	40495.95
634.00	41109.17
634.15	41113.85
634.30	41090.44
634.45	40797.88
634.60	40725.32
634.75	40601.27
634.90	40500.63
635.05	40776.81
635.19	40350.84
635.34	41158.32
635.49	40952.35
635.64	40758.09
635.79	40079.33
635.94	41006.19
636.09	40308.71
636.24	40591.91
636.39	40360.20
636.53	40191.68
636.68	40172.96
636.83	40779.15
636.98	40727.66
637.13	39892.09
637.28	40226.79
637.43	40175.30
637.57	40432.75
637.72	40254.87
637.87	40212.74
638.02	40577.87
638.17	39800.81
638.32	39751.66
638.46	40121.46
638.61	40404.67
638.76	40002.10
638.91	39978.69
639.06	39969.33
639.20	40423.39
639.35	40385.94
639.50	39569.10
639.65	40257.21
639.80	39615.91
639.94	39812.51
640.09	39555.05
640.24	39882.73
640.39	39658.04
640.54	39473.13
640.68	39475.48
640.83	39838.26
640.98	39449.73
641.13	39328.02
641.27	40114.44
641.42	39758.68
641.57	39367.81
641.72	39686.12
641.86	39571.44
642.01	39159.50
642.16	39503.56
642.31	39353.77
642.45	39447.39
642.60	39084.61
642.75	39419.30
642.90	39552.71
643.04	39477.82
643.19	39482.50
643.34	39210.99
643.48	39093.97
643.63	39199.29
643.78	39030.77
643.93	38520.54
644.07	38951.20
644.22	39091.63
644.37	38892.68
644.51	38675.01
644.66	39372.49
644.81	38827.15
644.95	39302.28
645.10	38923.11
645.25	39281.21
645.39	38934.81
645.54	39051.84
645.69	38787.36
645.83	38859.91
645.98	38698.42
646.13	39206.31
646.27	39182.91
646.42	38766.29
646.57	38653.95
646.71	38873.96
646.86	38892.68
647.00	39164.18
647.15	38998.01
647.30	38653.95
647.44	38541.60
647.59	38670.33
647.74	38534.58
647.88	38389.47
648.03	38735.87
648.17	38717.14
648.32	38080.52
648.47	38810.76
648.61	38007.96
648.76	38476.07
648.90	38258.40
649.05	38366.06
649.20	38066.47
649.34	38033.71
649.49	37764.54
649.63	38398.83
649.78	38026.68
649.92	37558.58
650.07	38494.79
650.21	38064.13
650.36	38429.26
650.51	38038.39
650.65	38583.73
650.80	38223.29
650.94	38190.52
651.09	38424.57
651.23	37921.36
651.38	37865.19
651.52	37713.05
651.67	37895.61
651.81	37933.06
651.96	37647.52
652.10	37649.86
652.25	37666.24
652.39	38167.12
652.54	38134.35
652.68	37708.37
652.83	37577.30
652.97	37820.72
653.12	37212.18
653.26	37284.73
653.41	37794.97
653.55	37008.55
653.70	37567.94
653.84	37593.68
653.99	37806.67
654.13	37387.72
654.27	37493.04
654.42	37556.24
654.56	37317.50
654.71	37535.17
654.85	37991.58
655.00	37368.99
655.14	37085.79
655.29	36795.56
655.43	37001.53
655.57	36875.14
655.72	36905.57
655.86	36655.13
656.01	37020.25
656.15	36725.35
656.30	36641.09
656.44	36851.73
656.58	36678.54
656.73	36603.64
656.87	36493.63
657.01	36760.45
657.16	36327.45
657.30	36971.10
657.45	36760.45
657.59	36437.46
657.73	36882.16
657.88	36563.85
658.02	36723.01
658.16	36622.36
658.31	36844.71
658.45	36837.69
658.60	36421.08
658.74	36383.63
658.88	36587.25
659.03	36350.86
659.17	36322.77
659.31	36346.18
659.46	36226.81
659.60	36676.19
659.74	36184.68
659.89	36357.88
660.03	36175.32
660.17	36065.31
660.32	36062.97
660.46	36100.42
660.60	36084.04
660.74	36149.57
660.89	36060.63
661.03	35629.98
661.17	35714.23
661.32	35405.28
661.46	35489.54
661.60	35688.49
661.74	35311.66
661.89	35833.60
662.03	35742.32
662.17	35604.23
662.31	35283.58
662.46	35220.38
662.60	35742.32
662.74	35178.25
662.88	34864.62
663.03	35159.53
663.17	35161.87
663.31	34838.87
663.45	34726.53
663.60	35346.77
663.74	34550.99
663.88	34766.32
664.02	34703.12
664.17	35150.17
664.31	34646.95
664.45	34930.16
664.59	34995.69
664.73	34452.69
664.88	34824.83
665.02	34366.09
665.16	34431.62
665.30	34576.73
665.44	34396.51
665.59	33947.13
665.73	34181.18
665.87	34249.06
666.01	33998.62
666.15	34209.27
666.29	34192.89
666.44	33748.18
666.58	34071.18
666.72	34061.82
666.86	33780.95
667.00	33771.59
667.14	33764.57
667.28	33532.86
667.43	33696.69
667.57	33799.68
667.71	33322.21
667.85	33567.96
667.99	33579.67
668.13	33378.38
668.27	33706.05
668.41	33450.94
668.56	33284.76
668.70	33539.88
668.84	33724.78
668.98	32870.48
669.12	32524.08
669.26	32900.91
669.40	32657.49
669.54	32301.73
669.68	32751.12
669.82	32765.16
669.96	32795.59
670.10	32680.90
670.25	32978.15
670.39	32533.45
670.53	32091.09
670.67	32236.20
670.81	32989.85
670.95	32493.66
671.09	32119.17
671.23	32165.98
671.37	32563.87
671.51	32486.64
671.65	32070.02
671.79	31665.11
671.93	31871.07
672.07	32081.72
672.21	31850.01
672.35	31845.33
672.49	31658.09
672.63	31852.35
672.77	31454.46
672.91	31517.65
673.05	31747.03
673.19	31112.74
673.33	31215.72
673.47	31285.94
673.61	31000.40
673.75	31101.04
673.89	30925.50
674.03	30602.50
674.17	30876.35
674.31	30998.06
674.45	31189.98
674.59	30810.81
674.73	30710.17
674.87	30508.88
675.01	30785.07
675.15	30394.20
675.29	30539.31
675.43	30361.43
675.56	30155.46
675.70	30326.32
675.84	30258.45
675.98	29259.04
676.12	30096.95
676.26	29605.44
676.40	29795.02
676.54	29682.67
676.68	30061.84
676.82	28905.62
676.96	29603.10
677.10	29556.28
677.23	29160.73
677.37	29275.42
677.51	29102.22
677.65	29230.95
677.79	28648.16
677.93	28701.99
678.07	28489.00
678.21	28416.44
678.34	28474.96
678.48	28552.20
678.62	28301.76
678.76	27976.42
678.90	27997.49
679.04	27929.61
679.18	28135.58
679.31	27885.14
679.45	27599.60
679.59	27328.10
679.73	27321.07
679.87	27353.84
680.00	27295.33
680.14	27417.04
680.28	27599.60
680.42	27400.65
680.56	27276.60
680.70	26953.61
680.83	27213.41
680.97	26792.11
681.11	27138.51
681.25	26855.31
681.39	26897.44
681.52	26632.96
681.66	26600.19
681.80	26508.91
681.94	26724.24
682.07	26417.63
682.21	26387.20
682.35	26204.64
682.49	26092.29
682.62	26256.13
682.76	26113.36
682.90	25891.01
683.04	25668.66
683.17	25249.70
683.31	25647.59
683.45	25460.35
683.59	25254.38
683.72	25200.55
683.86	25221.61
684.00	25081.18
684.13	24893.94
684.27	24919.68
684.41	24882.24
684.55	24648.18
684.68	24299.44
684.82	24929.05
684.96	24402.43
685.09	24364.98
685.23	24570.94
685.37	24491.37
685.50	24615.41
685.64	23878.15
685.78	24065.39
685.91	23934.32
686.05	24006.87
686.19	23735.37
686.32	23569.19
686.46	23381.95
686.60	23157.26
686.73	23342.16
686.87	23262.58
687.01	23077.68
687.14	22824.90
687.28	22710.22
687.42	23138.54
687.55	22848.31
687.69	22824.90
687.82	23105.77
687.96	23316.42
688.10	22719.58
688.23	22656.39
688.37	22178.92
688.50	21912.10
688.64	21806.77
688.78	22274.88
688.91	21743.58
689.05	22272.54
689.18	21741.24
689.32	21600.80
689.46	22012.74
689.59	21937.84
689.73	21963.59
689.86	21530.59
690.00	21535.27
690.13	21422.92
690.27	21359.73
690.41	21310.58
690.54	21025.03
690.68	20615.44
690.81	20760.55
690.95	21130.36
691.08	20870.56
691.22	21029.71
691.35	20680.97
691.49	21050.78
691.62	20657.57
691.76	20606.08
691.89	20524.16
692.03	20170.74
692.16	20203.50
692.30	20142.65
692.43	20100.52
692.57	19957.75
692.70	19749.44
692.84	20231.59
692.97	19611.35
693.11	19463.90
693.24	19510.71
693.38	19494.32
693.51	19335.17
693.65	19403.04
693.78	19484.96
693.92	19501.34
694.05	19267.29
694.19	19185.37
694.32	19192.39
694.45	18691.52
694.59	18778.12
694.72	18558.11
694.86	18625.98
694.99	18878.76
695.13	18230.43
695.26	18321.71
695.39	18574.49
695.53	18398.95
695.66	18232.77
695.80	18246.82
695.93	18101.70
696.07	17675.73
696.20	17914.46
696.33	17951.91
696.47	17479.12
696.60	17877.01
696.73	17551.68
696.87	17717.86
697.00	17825.52
697.14	17727.22
697.27	17448.69
697.40	17394.86
697.54	17441.67
697.67	17397.20
697.80	17165.49
697.94	16922.07
698.07	16594.40
698.21	16809.73
698.34	16809.73
698.47	16774.62
698.61	16285.45
698.74	16388.43
698.87	16404.81
699.01	16058.42
699.14	16109.91
699.27	16119.27
699.40	15999.90
699.54	16238.64
699.67	15925.00
699.80	15719.04
699.94	15803.30
700.07	15730.74
700.20	15836.06
700.34	15704.99
700.47	15520.09
700.60	15782.23
700.73	15714.36
700.87	15960.11
701.00	15431.15
701.13	15183.06
701.26	15339.87
701.40	15232.21
701.53	15218.16
701.66	15044.96
701.79	15016.88
701.93	15066.03
702.06	14670.48
702.19	14857.72
702.32	14920.92
702.46	14815.59
702.59	14445.79
702.72	14588.56
702.85	14799.21
702.99	14604.94
703.12	14314.72
703.25	14136.84
703.38	14223.44
703.51	14143.86
703.65	14207.05
703.78	13891.08
703.91	14015.13
704.04	13839.59
704.17	13902.78
704.31	13832.57
704.44	13671.07
704.57	13626.60
704.70	13881.72
704.83	13675.75
704.96	13460.42
705.10	13521.27
705.23	13619.58
>>>>>End Processed Spectral Data<<<<<
