SpectraSuite Data File
++++++++++++++++++++++++++++++++++++
Date: Fri Oct 25 11:34:20 EDT 2013
User: price-jones
Dark Spectrum Present: No
Reference Spectrum Present: No
Number of Sampled Component Spectra: 1
Spectrometers: USB2+H05261
Integration Time (usec): 100000 (USB2+H05261)
Spectra Averaged: 1 (USB2+H05261)
Boxcar Smoothing: 0 (USB2+H05261)
Correct for Electrical Dark: No (USB2+H05261)
Strobe/Lamp Enabled: No (USB2+H05261)
Correct for Detector Non-linearity: No (USB2+H05261)
Correct for Stray Light: No (USB2+H05261)
Number of Pixels in Processed Spectrum: 2048
>>>>>Begin Processed Spectral Data<<<<<
365.73	311.29
365.92	311.29
366.12	311.29
366.32	212.99
366.52	182.56
366.72	117.03
366.91	173.20
367.11	133.41
367.31	152.13
367.51	215.33
367.70	184.90
367.90	184.90
368.10	215.33
368.30	189.58
368.49	168.52
368.69	196.60
368.89	147.45
369.09	135.75
369.28	245.76
369.48	229.37
369.68	182.56
369.87	208.31
370.07	227.03
370.27	311.29
370.47	318.31
370.66	470.45
370.86	430.66
371.06	500.87
371.25	564.07
371.45	498.53
371.65	592.16
371.84	610.88
372.04	599.18
372.24	510.24
372.44	564.07
372.63	554.71
372.83	564.07
373.03	514.92
373.22	615.56
373.42	636.63
373.62	610.88
373.81	582.79
374.01	664.71
374.21	636.63
374.40	624.92
374.60	671.73
374.79	603.86
374.99	664.71
375.19	557.05
375.38	648.33
375.58	655.35
375.78	702.16
375.97	606.20
376.17	753.65
376.37	699.82
376.56	653.01
376.76	671.73
376.95	620.24
377.15	690.46
377.35	674.07
377.54	716.20
377.74	629.60
377.93	662.37
378.13	638.97
378.33	655.35
378.52	685.78
378.72	716.20
378.91	758.33
379.11	688.12
379.31	655.35
379.50	578.11
379.70	720.88
379.89	695.14
380.09	767.70
380.28	674.07
380.48	676.41
380.68	720.88
380.87	692.80
381.07	774.72
381.26	779.40
381.46	748.97
381.65	765.36
381.85	786.42
382.04	744.29
382.24	739.61
382.43	798.12
382.63	711.52
382.83	753.65
383.02	732.59
383.22	795.78
383.41	734.93
383.61	737.27
383.80	861.32
384.00	777.06
384.19	828.55
384.39	751.31
384.58	781.74
384.78	800.46
384.97	805.14
385.17	840.25
385.36	744.29
385.56	873.02
385.75	784.08
385.95	830.89
386.14	870.68
386.34	819.19
386.53	767.70
386.72	840.25
386.92	863.66
387.11	835.57
387.31	926.85
387.50	849.61
387.70	915.15
387.89	856.64
388.09	866.00
388.28	781.74
388.48	856.64
388.67	880.04
388.86	922.17
389.06	896.43
389.25	947.92
389.45	950.26
389.64	924.51
389.84	971.32
390.03	917.49
390.22	983.02
390.42	894.08
390.61	938.55
390.81	999.41
391.00	987.71
391.19	961.96
391.39	1020.47
391.58	929.19
391.78	1013.45
391.97	1046.22
392.16	1004.09
392.36	990.05
392.55	978.34
392.75	1011.11
392.94	1062.60
393.13	1025.15
393.33	992.39
393.52	1086.01
393.71	1062.60
393.91	1067.28
394.10	1102.39
394.29	1006.43
394.49	1121.12
394.68	1097.71
394.88	1055.58
395.07	1167.93
395.26	1027.50
395.46	1071.97
395.65	1123.46
395.84	1144.52
396.04	1228.78
396.23	1130.48
396.42	1158.57
396.62	1256.87
396.81	1179.63
397.00	1144.52
397.19	1219.42
397.39	1186.65
397.58	1247.51
397.77	1130.48
397.97	1275.59
398.16	1167.93
398.35	1273.25
398.55	1158.57
398.74	1214.74
398.93	1301.34
399.12	1289.64
399.32	1275.59
399.51	1345.81
399.70	1331.76
399.90	1383.26
400.09	1378.58
400.28	1371.55
400.47	1341.13
400.67	1432.41
400.86	1380.92
401.05	1446.45
401.24	1418.36
401.44	1486.24
401.63	1394.96
401.82	1479.22
402.01	1380.92
402.21	1460.49
402.40	1444.11
402.59	1425.39
402.78	1453.47
402.97	1509.65
403.17	1493.26
403.36	1434.75
403.55	1547.09
403.74	1474.54
403.93	1568.16
404.13	1605.61
404.32	1537.73
404.51	1488.58
404.70	1504.96
404.89	1582.20
405.09	1657.10
405.28	1678.16
405.47	1661.78
405.66	1720.29
405.85	1675.82
406.05	1657.10
406.24	1708.59
406.43	1631.35
406.62	1706.25
406.81	1781.15
407.00	1750.72
407.20	1762.42
407.39	1748.38
407.58	1804.55
407.77	1839.66
407.96	1877.11
408.15	1935.62
408.34	1886.47
408.54	1842.00
408.73	1893.49
408.92	1956.69
409.11	1902.86
409.30	1860.73
409.49	1952.01
409.68	1947.33
409.87	1991.80
410.07	1996.48
410.26	2057.33
410.45	2066.69
410.64	2036.27
410.83	2031.58
411.02	2069.03
411.21	2094.78
411.40	2101.80
411.59	2209.47
411.78	2157.97
411.98	2092.44
412.17	2094.78
412.36	2162.66
412.55	2282.02
412.74	2214.15
412.93	2232.87
413.12	2204.78
413.31	2452.88
413.50	2310.11
413.69	2399.05
413.88	2342.88
414.07	2406.07
414.26	2392.03
414.45	2319.47
414.64	2424.80
414.83	2534.80
415.02	2506.71
415.22	2544.16
415.41	2623.74
415.60	2506.71
415.79	2633.10
415.98	2661.19
416.17	2700.98
416.36	2684.59
416.55	2626.08
416.74	2764.17
416.93	2637.78
417.12	2656.51
417.31	2918.65
417.50	2796.94
417.69	2876.52
417.88	2857.79
418.07	2848.43
418.26	2832.05
418.45	2773.53
418.64	2944.39
418.83	2974.82
419.02	2923.33
419.21	2974.82
419.39	3000.57
419.58	3042.70
419.77	2953.76
419.96	3056.74
420.15	3133.98
420.34	3082.49
420.53	3049.72
420.72	3164.40
420.91	3162.06
421.10	3068.44
421.29	3155.04
421.48	3194.83
421.67	3159.72
421.86	3192.49
422.05	3197.17
422.24	3332.92
422.43	3297.81
422.61	3211.22
422.80	3346.97
422.99	3267.39
423.18	3328.24
423.37	3307.18
423.56	3208.87
423.75	3295.47
423.94	3211.22
424.13	3089.51
424.32	3199.51
424.50	3309.52
424.69	3342.28
424.88	3520.17
425.07	3281.43
425.26	3342.28
425.45	3398.46
425.64	3342.28
425.83	3358.67
426.01	3435.91
426.20	3365.69
426.39	3386.76
426.58	3344.63
426.77	3279.09
426.96	3438.25
427.15	3391.44
427.33	3496.76
427.52	3520.17
427.71	3473.36
427.90	3562.30
428.09	3585.70
428.28	3602.08
428.46	3716.77
428.65	3494.42
428.84	3779.97
429.03	3662.94
429.22	3478.04
429.40	3751.88
429.59	3733.15
429.78	3604.42
429.97	3625.49
430.16	3655.92
430.34	3714.43
430.53	3653.58
430.72	3880.61
430.91	3651.24
431.10	3824.44
431.28	3812.73
431.47	3868.91
431.66	3957.85
431.85	3779.97
432.03	3918.06
432.22	3859.54
432.41	3946.14
432.60	3983.59
432.79	4133.39
432.97	4044.45
433.16	4084.23
433.35	3936.78
433.54	4086.58
433.72	4014.02
433.91	4121.68
434.10	4091.26
434.28	4095.94
434.47	4210.62
434.66	4271.48
434.85	4180.20
435.03	4203.60
435.22	4126.36
435.41	4348.72
435.59	4203.60
435.78	4322.97
435.97	4236.37
436.16	4273.82
436.34	4161.47
436.53	4397.87
436.72	4447.02
436.90	4365.10
437.09	4308.93
437.28	4332.33
437.46	4468.08
437.65	4458.72
437.84	4498.51
438.02	4540.64
438.21	4641.28
438.40	4463.40
438.58	4599.15
438.77	4645.96
438.96	4596.81
439.14	4702.14
439.33	4744.27
439.52	4718.52
439.70	4915.12
439.89	4973.64
440.08	4755.97
440.26	4938.53
440.45	4812.14
440.63	4994.70
440.82	5029.81
441.01	5076.62
441.19	4971.30
441.38	5004.07
441.57	4966.62
441.75	4961.94
441.94	5172.58
442.12	5107.05
442.31	5240.46
442.50	5345.78
442.68	5188.97
442.87	5390.25
443.05	5411.32
443.24	5348.12
443.43	5177.26
443.61	5472.17
443.80	5495.58
443.98	5366.85
444.17	5163.22
444.35	5317.70
444.54	5596.22
444.73	5490.90
444.91	5434.72
445.10	5373.87
445.28	5514.30
445.47	5621.97
445.65	5596.22
445.84	5598.56
446.02	5617.29
446.21	5511.96
446.39	5542.39
446.58	5682.82
446.77	5511.96
446.95	5518.98
447.14	5643.03
447.32	5645.37
447.51	5572.82
447.69	5640.69
447.88	5771.76
448.06	5790.49
448.25	5633.67
448.43	5633.67
448.62	5813.89
448.80	5521.32
448.99	5687.50
449.17	5678.14
449.36	5523.66
449.54	5834.96
449.73	5912.19
449.91	5818.57
450.10	5788.14
450.28	5926.24
450.46	5724.95
450.65	5959.00
450.83	5998.79
451.02	5870.06
451.20	5942.62
451.39	5961.34
451.57	5954.32
451.76	5984.75
451.94	5980.07
452.13	6073.69
452.31	5942.62
452.49	6036.24
452.68	6022.20
452.86	6150.93
453.05	6335.83
453.23	6029.22
453.42	6132.20
453.60	6375.62
453.78	6300.72
453.97	6244.55
454.15	6232.85
454.34	6169.65
454.52	6370.94
454.70	6455.20
454.89	6457.54
455.07	6321.79
455.26	6434.13
455.44	6387.32
455.62	6518.39
455.81	6560.52
455.99	6593.29
456.17	6602.65
456.36	6630.74
456.54	6836.70
456.73	6752.45
456.91	6743.08
457.09	6871.81
457.28	6817.98
457.46	6771.17
457.64	6796.92
457.83	6799.26
458.01	6773.51
458.19	6904.58
458.38	7019.27
458.56	6902.24
458.74	6862.45
458.93	7042.67
459.11	6970.12
459.29	7005.22
459.48	7148.00
459.66	7166.72
459.84	7059.06
460.03	7332.90
460.21	7047.35
460.39	7077.78
460.57	7321.20
460.76	7143.32
460.94	7452.27
461.12	7276.73
461.31	7143.32
461.49	7412.48
461.67	7239.28
461.85	7492.05
462.04	7234.60
462.22	7957.82
462.40	7765.90
462.59	7662.91
462.77	7566.95
462.95	7639.51
463.13	7541.21
463.32	7751.85
463.50	7597.38
463.68	7756.54
463.86	7749.51
464.05	7641.85
464.23	7583.34
464.41	7627.81
464.59	7503.76
464.78	7761.22
464.96	7875.90
465.14	7808.03
465.32	8009.31
465.50	7988.25
465.69	7901.65
465.87	7915.69
466.05	7953.14
466.23	8173.15
466.41	8077.19
466.60	8182.51
466.78	7918.03
466.96	7894.63
467.14	7896.97
467.32	8016.33
467.51	8280.82
467.69	7932.08
467.87	8009.31
468.05	8018.68
468.23	7990.59
468.41	8081.87
468.60	8252.73
468.78	8486.78
468.96	8276.13
469.14	8156.77
469.32	8273.79
469.50	7960.16
469.69	8545.30
469.87	8437.63
470.05	8432.95
470.23	8517.21
470.41	8470.40
470.59	8620.19
470.77	8685.73
470.95	8655.30
471.14	8732.54
471.32	8461.04
471.50	8840.20
471.68	8833.18
471.86	8833.18
472.04	8959.57
472.22	9043.83
472.40	8683.39
472.58	8641.26
472.77	8919.78
472.95	9137.45
473.13	9357.46
473.31	8961.91
473.49	9064.89
473.67	9088.30
473.85	9217.03
474.03	9481.51
474.21	9380.87
474.39	9554.07
474.57	9462.79
474.75	9675.77
474.93	9673.43
475.12	9441.72
475.30	9776.42
475.48	9476.83
475.66	9827.91
475.84	9769.40
476.02	9916.85
476.20	9900.47
476.38	10136.86
476.56	10265.59
476.74	10375.59
476.92	9973.02
477.10	10249.21
477.28	10375.59
477.46	10186.01
477.64	10600.29
477.82	10630.71
478.00	10750.08
478.18	10920.94
478.36	10977.11
478.54	10871.79
478.72	10965.41
478.90	11124.57
479.08	11023.92
479.26	11412.45
479.44	11241.59
479.62	11349.26
479.80	11332.87
479.98	11552.88
480.16	11934.39
480.34	11513.10
480.52	11960.14
480.70	12126.32
480.88	11733.11
481.06	12084.19
481.24	11726.08
481.41	12404.84
481.59	12425.90
481.77	12292.49
481.95	12453.99
482.13	12772.30
482.31	12624.85
482.49	12933.80
482.67	12872.95
482.85	12929.12
483.03	13151.47
483.21	13050.83
483.39	13476.80
483.57	13308.29
483.74	13575.11
483.92	13600.85
484.10	13558.72
484.28	13944.91
484.46	14141.52
484.64	14038.53
484.82	13888.74
485.00	14228.12
485.18	14555.79
485.35	14607.28
485.53	14658.78
485.71	14527.71
485.89	15091.77
486.07	14693.88
486.25	14923.26
486.43	14981.77
486.61	15426.47
486.78	15321.15
486.96	15435.83
487.14	15569.24
487.32	15639.46
487.50	15721.38
487.68	15819.68
487.85	15936.71
488.03	16133.31
488.21	16072.46
488.39	16269.06
488.57	16655.25
488.75	16751.21
488.92	16814.41
489.10	16863.56
489.28	16835.47
489.46	17525.93
489.64	17102.29
489.81	17504.87
489.99	17638.28
490.17	17511.89
490.35	17701.47
490.53	17444.01
490.70	18092.34
490.88	18092.34
491.06	18284.26
491.24	18572.15
491.41	18422.36
491.59	18654.07
491.77	18483.21
491.95	18654.07
492.13	18925.57
492.30	18888.12
492.48	19311.76
492.66	19145.58
492.84	19339.85
493.01	19599.65
493.19	19564.54
493.37	19318.78
493.54	19765.82
493.72	19999.88
493.90	20191.80
494.08	20250.32
494.25	20154.35
494.43	20566.29
494.61	20343.94
494.79	20514.80
494.96	20610.76
495.14	20692.68
495.32	21319.94
495.49	21231.00
495.67	21074.18
495.85	21219.30
496.02	21479.10
496.20	21696.77
496.38	21509.52
496.55	21671.02
496.73	22302.96
496.91	22129.77
497.09	22211.68
497.26	22445.74
497.44	22185.94
497.62	22429.35
497.79	22944.27
497.97	22380.20
498.14	22567.45
498.32	22883.42
498.50	23269.61
498.67	23168.96
498.85	22754.69
499.03	23295.35
499.20	23440.47
499.38	23358.55
499.56	23468.55
499.73	23850.06
499.91	23821.97
500.08	23889.85
500.26	23873.46
500.44	23534.09
500.61	24013.90
500.79	23976.45
500.97	24130.92
501.14	24697.33
501.32	24641.16
501.49	24374.34
501.67	24687.97
501.84	24886.92
502.02	25034.37
502.20	24879.89
502.37	24783.93
502.55	24898.62
502.72	24826.06
502.90	24594.35
503.07	25303.53
503.25	25151.40
503.43	25418.22
503.60	25640.57
503.78	25792.70
503.95	25820.79
504.13	25874.62
504.30	25940.16
504.48	25949.52
504.65	26031.44
504.83	26185.91
505.01	26167.19
505.18	26478.48
505.36	26539.33
505.53	26464.44
505.71	26249.11
505.88	26551.04
506.06	26424.65
506.23	26883.39
506.41	27040.21
506.58	26895.10
506.76	26759.34
506.93	26888.07
507.11	26806.16
507.28	27084.68
507.46	27618.32
507.63	27089.36
507.81	27583.21
507.98	27255.54
508.16	27424.06
508.33	27613.64
508.50	27513.00
508.68	27953.02
508.85	28109.83
509.03	28063.02
509.20	28297.08
509.38	28507.72
509.55	28334.53
509.73	28135.58
509.90	28292.40
510.08	28137.92
510.25	28498.36
510.42	28739.44
510.60	28999.24
510.77	28917.32
510.95	29308.19
511.12	28943.06
511.30	29043.71
511.47	29277.76
511.64	29230.95
511.82	29457.98
511.99	29439.26
512.17	29535.22
512.34	29390.11
512.51	29701.40
512.69	29921.41
512.86	29792.68
513.04	29713.10
513.21	30408.24
513.38	30242.06
513.56	30157.80
513.73	30345.05
513.90	30373.13
514.08	29968.22
514.25	30635.27
514.43	30403.56
514.60	30405.90
514.77	30682.08
514.95	30780.39
515.12	31009.76
515.29	30567.40
515.47	30939.54
515.64	30962.95
515.81	31098.70
515.99	31204.02
516.16	31548.08
516.33	31192.32
516.51	31285.94
516.68	31283.60
516.85	31564.46
517.03	30948.90
517.20	31611.28
517.37	31550.42
517.54	31456.80
517.72	31772.77
517.89	31681.49
518.06	31812.56
518.24	32189.39
518.41	31978.74
518.58	31957.67
518.75	32070.02
518.93	32219.81
519.10	32130.87
519.27	32481.95
519.45	32809.63
519.62	32299.39
519.79	32636.43
519.96	32390.67
520.14	32854.10
520.31	32566.21
520.48	33043.68
520.65	32945.38
520.83	33413.49
521.00	33619.46
521.17	33429.87
521.34	33626.48
521.52	33647.54
521.69	33394.76
521.86	33584.35
522.03	33895.64
522.20	34167.14
522.38	33982.24
522.55	33827.76
522.72	34125.01
522.89	33900.32
523.07	34087.56
523.24	34075.86
523.41	34562.69
523.58	34054.79
523.75	34480.77
523.92	34253.74
524.10	34220.97
524.27	34412.90
524.44	34675.04
524.61	34595.46
524.78	34682.06
524.96	34873.98
525.13	34630.57
525.30	34794.40
525.47	34979.31
525.64	34520.56
525.81	35089.31
525.98	35145.48
526.16	34843.56
526.33	34864.62
526.50	35711.89
526.67	35321.02
526.84	35494.22
527.01	35716.58
527.18	35531.67
527.36	36191.70
527.53	35924.88
527.70	36236.17
527.87	35889.77
528.04	35622.95
528.21	35859.35
528.38	35950.63
528.55	35810.20
528.72	36135.53
528.89	36077.02
529.07	36285.33
529.24	36105.10
529.41	36383.63
529.58	36177.66
529.75	36107.44
529.92	36608.32
530.09	36446.82
530.26	36343.84
530.43	36797.90
530.60	36306.39
530.77	36278.30
530.94	36673.85
531.11	36898.55
531.28	36648.11
531.46	36807.26
531.63	36884.50
531.80	36858.76
531.97	37034.30
532.14	37399.42
532.31	36613.00
532.48	37336.23
532.65	37645.18
532.82	37640.50
532.99	37500.06
533.16	36992.17
533.33	37511.77
533.50	37598.37
533.67	37614.75
533.84	37619.43
534.01	37577.30
534.18	37556.24
534.35	37853.48
534.52	37734.12
534.69	37907.32
534.86	37972.85
535.03	38026.68
535.20	38169.46
535.37	38244.35
535.54	37965.83
535.71	38110.94
535.88	38792.04
536.05	38298.19
536.22	38752.25
536.38	38239.67
536.55	38368.40
536.72	38391.81
536.89	38345.00
537.06	38490.11
537.23	38567.35
537.40	38302.87
537.57	38366.06
537.74	38312.23
537.91	38836.51
538.08	38855.23
538.25	38370.74
538.42	39100.99
538.59	39365.47
538.75	38740.55
538.92	39445.05
539.09	39529.31
539.26	39473.13
539.43	39091.63
539.60	39269.51
539.77	38939.49
539.94	39737.62
540.11	39470.79
540.28	39569.10
540.44	39723.57
540.61	39590.16
540.78	39608.89
540.95	39564.42
541.12	39711.87
541.29	39899.11
541.46	39555.05
541.62	39370.15
541.79	40210.40
541.96	39819.53
542.13	39697.83
542.30	40392.97
542.47	39754.00
542.63	40292.32
542.80	40322.75
542.97	40505.31
543.14	40196.36
543.31	40229.13
543.48	40435.10
543.64	41006.19
543.81	40692.55
543.98	40573.19
544.15	40708.94
544.32	41099.81
544.48	41141.94
544.65	40631.70
544.82	40659.79
544.99	40994.48
545.16	40987.46
545.32	40584.89
545.49	41167.68
545.66	41340.88
545.83	41303.43
546.00	41324.50
546.16	41277.69
546.33	41240.24
546.50	41132.57
546.67	41308.11
546.83	40992.14
547.00	41031.93
547.17	41312.80
547.34	41322.16
547.50	41603.02
547.67	41680.26
547.84	41816.01
548.00	41790.27
548.17	41940.06
548.34	41780.90
548.51	42309.86
548.67	42101.56
548.84	41982.19
549.01	41647.49
549.18	42305.18
549.34	42181.13
549.51	41951.76
549.68	41998.57
549.84	41846.44
550.01	41825.37
550.18	41954.10
550.34	42136.66
550.51	42143.69
550.68	42246.67
550.84	41963.46
551.01	42604.77
551.18	42134.32
551.34	42155.39
551.51	42394.12
551.68	42408.17
551.84	42134.32
552.01	42260.71
552.18	42508.81
552.34	42337.95
552.51	42412.85
552.68	42314.55
552.84	43175.86
553.01	43040.11
553.18	42504.13
553.34	42611.79
553.51	42359.02
553.67	42794.36
553.84	43330.34
554.01	43215.65
554.17	42909.04
554.34	43332.68
554.51	43407.58
554.67	43538.65
554.84	43466.09
555.00	43131.39
555.17	42792.01
555.33	43391.19
555.50	43285.87
555.67	43253.10
555.83	43438.00
556.00	43573.75
556.16	44095.69
556.33	43665.03
556.50	43484.81
556.66	43002.66
556.83	43414.60
556.99	43632.27
557.16	43711.84
557.32	43735.25
557.49	44086.33
557.65	43416.94
557.82	43590.14
557.98	43414.60
558.15	43863.98
558.32	43973.98
558.48	43482.47
558.65	43999.73
558.81	43976.33
558.98	44083.99
559.14	43524.60
559.31	43620.56
559.47	43650.99
559.64	44147.18
559.80	44060.58
559.97	44390.60
560.13	43533.96
560.30	44114.42
560.46	44229.10
560.63	44121.44
560.79	44236.12
560.96	44044.20
561.12	44175.27
561.29	43997.39
561.45	44320.38
561.61	44163.57
561.78	44233.78
561.94	44126.12
562.11	44430.39
562.27	44383.58
562.44	44002.07
562.60	44444.43
562.77	44381.24
562.93	44266.55
563.10	44858.71
563.26	44692.53
563.42	44856.37
563.59	44409.32
563.75	44128.46
563.92	44280.60
564.08	44596.57
564.24	44453.79
564.41	44432.73
564.57	44704.23
564.74	44610.61
564.90	44594.23
565.07	44538.05
565.23	44411.67
565.39	44364.85
565.56	44980.42
565.72	44631.68
565.88	44921.90
566.05	44889.13
566.21	44839.98
566.38	44570.82
566.54	45345.54
566.70	45411.07
566.87	44650.40
567.03	44516.99
567.19	45013.18
567.36	44863.39
567.52	44975.73
567.68	45326.81
567.85	44807.22
568.01	45134.89
568.17	45043.61
568.34	45563.21
568.50	45092.76
568.66	45385.33
568.83	45008.50
568.99	45170.00
569.15	45284.68
569.32	44680.83
569.48	45167.66
569.64	45710.66
569.81	45097.44
569.97	45272.98
570.13	45504.70
570.30	45127.87
570.46	45488.31
570.62	45343.20
570.78	45535.12
570.95	45397.03
571.11	45462.57
571.27	44994.46
571.43	45132.55
571.60	45092.76
571.76	44905.52
571.92	45170.00
572.09	45247.24
572.25	45057.65
572.41	45514.06
572.57	45413.41
572.74	46014.93
572.90	45364.26
573.06	45305.75
573.22	45392.35
573.38	45705.98
573.55	45546.82
573.71	45670.87
573.87	45628.74
574.03	45530.44
574.20	45045.95
574.36	45598.32
574.52	45558.53
574.68	45600.66
574.84	45806.62
575.01	45876.84
575.17	46136.64
575.33	45841.73
575.49	45422.78
575.65	45698.96
575.82	45745.77
575.98	45574.91
576.14	46146.00
576.30	45916.63
576.46	45673.21
576.62	45481.29
576.79	45523.42
576.95	45565.55
577.11	45607.68
577.27	45691.94
577.43	45787.90
577.59	45853.44
577.75	45261.28
577.92	44917.22
578.08	45628.74
578.24	45492.99
578.40	45759.81
578.56	45689.60
578.72	45986.85
578.88	45876.84
579.04	46174.09
579.21	45565.55
579.37	45631.08
579.53	46087.49
579.69	45495.33
579.85	45755.13
580.01	45453.20
580.17	45642.79
580.33	45509.38
580.49	45752.79
580.65	45968.12
580.82	45895.56
580.98	45659.17
581.14	45558.53
581.30	45883.86
581.46	45544.48
581.62	45820.67
581.78	45558.53
581.94	46286.43
582.10	45839.39
582.26	45701.30
582.42	45813.65
582.58	45705.98
582.74	45890.88
582.90	45832.37
583.06	45500.01
583.22	45867.48
583.38	46033.66
583.54	46021.95
583.70	45944.72
583.86	46169.41
584.02	45818.33
584.18	45916.63
584.34	46045.36
584.50	46211.54
584.66	46377.72
584.82	46033.66
584.98	46190.47
585.14	45626.40
585.30	45638.11
585.46	45942.38
585.62	46036.00
585.78	46054.72
585.94	45539.80
586.10	45823.01
586.26	45722.37
586.42	45659.17
586.58	46017.27
586.74	45940.04
586.90	46117.92
587.06	45626.40
587.22	45989.19
587.38	45530.44
587.54	46232.60
587.70	46464.32
587.86	46019.61
588.02	45813.65
588.18	46071.10
588.34	45710.66
588.49	45956.42
588.65	45563.21
588.81	45909.61
588.97	45727.05
589.13	46031.32
589.29	45944.72
589.45	46782.63
589.61	46153.02
589.77	46202.18
589.93	46522.83
590.08	46527.51
590.24	46595.38
590.40	46576.66
590.56	46653.90
590.72	46445.59
590.88	46307.50
591.04	46263.03
591.20	46426.87
591.35	46394.10
591.51	46586.02
591.67	46513.47
591.83	46705.39
591.99	46054.72
592.15	46555.60
592.31	46415.16
592.46	46124.94
592.62	46494.74
592.78	46969.87
592.94	46955.83
593.10	46733.48
593.26	47084.56
593.41	46431.55
593.57	46827.10
593.73	46223.24
593.89	46759.22
594.05	46845.82
594.20	46813.05
594.36	46820.08
594.52	46639.86
594.68	46553.26
594.84	46674.96
594.99	47253.08
595.15	46394.10
595.31	46857.52
595.47	46714.75
595.62	46618.79
595.78	46447.93
595.94	46820.08
596.10	46401.12
596.25	46918.38
596.41	46632.83
596.57	46796.67
596.73	47007.32
596.88	46513.47
597.04	46934.76
597.20	46429.21
597.36	46344.95
597.51	46483.04
597.67	46225.58
597.83	46190.47
597.99	47049.45
598.14	46766.24
598.30	46824.76
598.46	46630.49
598.61	46806.03
598.77	46562.62
598.93	46923.06
599.09	46443.25
599.24	47002.64
599.40	46951.15
599.56	46866.89
599.71	47105.62
599.87	46983.91
600.03	47379.46
600.18	46848.16
600.34	46845.82
600.50	47161.79
600.65	46637.51
600.81	47147.75
600.97	46988.60
601.12	47203.92
601.28	46930.08
601.44	46726.46
601.59	46920.72
601.75	46686.67
601.91	46962.85
602.06	46822.42
602.22	47227.33
602.37	47009.66
602.53	47110.30
602.69	47086.90
602.84	46564.96
603.00	46560.28
603.16	47012.00
603.31	46667.94
603.47	46995.62
603.62	46796.67
603.78	46583.68
603.94	46602.41
604.09	47159.45
604.25	46621.13
604.40	46497.08
604.56	46707.73
604.71	47126.69
604.87	46967.53
605.03	46621.13
605.18	46873.91
605.34	46993.28
605.49	46419.84
605.65	46794.33
605.80	46323.88
605.96	47047.11
606.12	46698.37
606.27	47082.22
606.43	46761.56
606.58	47302.23
606.74	46791.99
606.89	46878.59
607.05	46794.33
607.20	46710.07
607.36	46564.96
607.51	46431.55
607.67	46356.65
607.82	46672.62
607.98	46939.44
608.13	46466.66
608.29	46686.67
608.44	46845.82
608.60	46148.34
608.75	46520.49
608.91	46614.11
609.06	45947.06
609.22	46536.87
609.37	46286.43
609.53	46696.03
609.68	46703.05
609.84	46363.67
609.99	46314.52
610.15	46689.01
610.30	46679.64
610.46	46604.75
610.61	46389.42
610.76	46693.69
610.92	45792.58
611.07	46384.74
611.23	46206.86
611.38	46293.46
611.54	46508.79
611.69	46625.81
611.84	46597.73
612.00	46220.90
612.15	46190.47
612.31	46628.15
612.46	45935.35
612.62	46401.12
612.77	46024.29
612.92	46515.81
613.08	45825.35
613.23	46431.55
613.39	46426.87
613.54	46115.58
613.69	46768.58
613.85	46394.10
614.00	46328.56
614.15	46387.08
614.31	46382.40
614.46	45806.62
614.62	46204.52
614.77	46251.33
614.92	46050.04
615.08	46026.63
615.23	46534.53
615.38	46417.50
615.54	46412.82
615.69	45684.92
615.84	46000.89
616.00	46096.85
616.15	46162.39
616.30	46373.03
616.46	45956.42
616.61	45713.00
616.76	46220.90
616.92	45890.88
617.07	45925.99
617.22	46026.63
617.37	45867.48
617.53	45935.35
617.68	46171.75
617.83	45607.68
617.99	46197.49
618.14	46005.57
618.29	45928.33
618.45	45443.84
618.60	45322.13
618.75	45289.37
618.90	45567.89
619.06	45916.63
619.21	45471.93
619.36	45944.72
619.51	45544.48
619.67	45331.50
619.82	45705.98
619.97	45738.75
620.12	45537.46
620.28	45319.79
620.43	45881.52
620.58	45535.12
620.73	45537.46
620.89	45504.70
621.04	45776.20
621.19	45481.29
621.34	45270.64
621.49	45242.56
621.65	44861.05
621.80	45338.52
621.95	45591.30
622.10	45502.35
622.25	45294.05
622.41	45095.10
622.56	45003.82
622.71	44793.17
622.86	45478.95
623.01	45045.95
623.16	45146.59
623.32	44912.54
623.47	44912.54
623.62	44584.86
623.77	45237.87
623.92	44996.80
624.07	44891.48
624.23	45003.82
624.38	45254.26
624.53	44947.65
624.68	44842.32
624.83	44250.17
624.98	44643.38
625.13	44809.56
625.29	44622.31
625.44	44573.16
625.59	44734.66
625.74	44456.14
625.89	44619.97
626.04	44430.39
626.19	44301.66
626.34	44835.30
626.49	44580.18
626.65	44294.64
626.80	44399.96
626.95	44231.44
627.10	44631.68
627.25	44598.91
627.40	44605.93
627.55	43959.94
627.70	44390.60
627.85	44339.11
628.00	44186.97
628.15	44498.26
628.30	44278.25
628.45	44027.82
628.60	44121.44
628.76	44299.32
628.91	43906.11
629.06	43716.53
629.21	43737.59
629.36	44268.89
629.51	43866.32
629.66	44037.18
629.81	43988.03
629.96	44292.30
630.11	43985.69
630.26	43367.79
630.41	44067.61
630.56	44018.46
630.71	43805.47
630.86	43824.19
631.01	43463.75
631.16	43945.90
631.31	43519.92
631.46	43643.97
631.61	43826.53
631.76	43732.91
631.91	43599.50
632.06	44034.84
632.21	43854.62
632.36	43775.04
632.51	43360.76
632.66	44086.33
632.81	43372.47
632.96	43318.64
633.10	43229.69
633.25	43683.76
633.40	43318.64
633.55	43814.83
633.70	43508.22
633.85	43215.65
634.00	43028.41
634.15	43234.38
634.30	43526.94
634.45	43316.29
634.60	43129.05
634.75	43402.89
634.90	43136.07
635.05	43360.76
635.19	43241.40
635.34	43171.18
635.49	43323.32
635.64	43157.14
635.79	43400.55
635.94	42962.87
636.09	43337.36
636.24	42890.32
636.39	43571.41
636.53	43447.36
636.68	42637.54
636.83	42768.61
636.98	42925.42
637.13	42403.49
637.28	42763.93
637.43	42990.96
637.57	42855.21
637.72	42419.87
637.87	42677.33
638.02	43189.91
638.17	42689.03
638.32	42192.84
638.46	42438.59
638.61	42485.40
638.76	43054.15
638.91	42703.07
639.06	42230.29
639.20	42277.10
639.35	42190.50
639.50	42394.12
639.65	42415.19
639.80	42789.67
639.94	42630.52
640.09	42185.82
640.24	42188.16
640.39	42380.08
640.54	41890.91
640.68	42305.18
640.83	42803.72
640.98	42391.78
641.13	42047.72
641.27	42005.59
641.42	42031.34
641.57	42057.09
641.72	41729.41
641.86	42129.64
642.01	41780.90
642.16	42366.04
642.31	41909.63
642.45	42043.04
642.60	41368.97
642.75	41617.07
642.90	42103.90
643.04	42216.24
643.19	42045.38
643.34	41825.37
643.48	41490.68
643.63	41394.71
643.78	41638.13
643.93	41816.01
644.07	41869.84
644.22	41848.78
644.37	41766.86
644.51	41886.23
644.66	41357.27
644.81	41530.47
644.95	41684.94
645.10	41544.51
645.25	41282.37
645.39	41317.48
645.54	41092.79
645.69	41413.44
645.83	41270.67
645.98	41310.46
646.13	41324.50
646.27	41258.96
646.42	41031.93
646.57	41275.35
646.71	42089.85
646.86	41469.61
647.00	41109.17
647.15	41415.78
647.30	41532.81
647.44	41518.76
647.59	41289.39
647.74	41083.42
647.88	41055.34
648.03	41284.71
648.17	41116.19
648.32	41170.02
648.47	41315.14
648.61	40900.86
648.76	40659.79
648.90	40973.42
649.05	40912.56
649.20	40952.35
649.34	41160.66
649.49	41043.63
649.63	40711.28
649.78	40837.67
649.92	40552.12
650.07	41329.18
650.21	41092.79
650.36	41329.18
650.51	41132.57
650.65	40975.76
650.80	40755.75
650.94	41268.33
651.09	40851.71
651.23	40294.66
651.38	40547.44
651.52	40512.33
651.67	40381.26
651.81	40594.25
651.96	40362.54
652.10	39941.24
652.25	40268.92
652.39	40687.87
652.54	40147.21
652.68	39845.28
652.83	40395.31
652.97	40772.13
653.12	40278.28
653.26	40467.86
653.41	40076.99
653.55	40236.15
653.70	40465.52
653.84	40299.34
653.99	40177.64
654.13	40252.53
654.27	39487.18
654.42	40694.89
654.56	39988.05
654.71	39700.17
654.85	39880.39
655.00	40076.99
655.14	40187.00
655.29	40158.91
655.43	40095.72
655.57	40034.86
655.72	39852.30
655.86	40044.23
656.01	39538.67
656.15	39428.66
656.30	39826.56
656.44	39978.69
656.58	40102.74
656.73	39824.22
656.87	39063.54
657.01	38932.47
657.16	39206.31
657.30	39672.08
657.45	39707.19
657.59	39196.95
657.73	38920.77
657.88	39143.12
658.02	39686.12
658.16	39849.96
658.31	39178.23
658.45	39615.91
658.60	39227.38
658.74	39201.63
658.88	39292.91
659.03	39112.69
659.17	39133.76
659.31	38628.20
659.46	38780.34
659.60	38972.26
659.74	38988.64
659.89	38745.23
660.03	38337.98
660.17	38520.54
660.32	38878.64
660.46	38373.08
660.60	38337.98
660.74	38384.79
660.89	38838.85
661.03	38183.50
661.17	38354.36
661.32	38258.40
661.46	38361.38
661.60	38550.96
661.74	38185.84
661.89	38110.94
662.03	38129.67
662.17	37794.97
662.31	37900.29
662.46	37900.29
662.60	37834.76
662.74	37317.50
662.88	37326.86
663.03	37628.79
663.17	37593.68
663.31	37469.64
663.45	37806.67
663.60	37902.64
663.74	37518.79
663.88	37937.74
664.02	37422.83
664.17	37256.65
664.31	37638.15
664.45	37092.81
664.59	37310.48
664.73	37380.70
664.88	37120.90
665.02	37099.83
665.16	37139.62
665.30	37050.68
665.44	37254.31
665.59	36575.55
665.73	36833.01
665.87	36170.64
666.01	36980.46
666.15	36816.63
666.29	36573.21
666.44	36659.81
666.58	36360.22
666.72	36400.01
666.86	36261.92
667.00	36299.37
667.14	36343.84
667.28	36271.28
667.43	36182.34
667.57	36334.48
667.71	36271.28
667.85	36093.40
667.99	36032.55
668.13	35732.96
668.27	36048.93
668.41	35716.58
668.56	35545.72
668.70	35550.40
668.84	35229.74
668.98	35538.69
669.12	35569.12
669.26	35414.65
669.40	35110.38
669.54	35552.74
669.68	35522.31
669.82	34775.68
669.96	34321.62
670.10	34672.70
670.25	34866.96
670.39	34710.14
670.53	35016.75
670.67	34951.22
670.81	34885.68
670.95	34876.32
671.09	34976.97
671.23	34326.30
671.37	34836.53
671.51	34129.69
671.65	34487.79
671.79	34459.71
671.93	34457.37
672.07	34412.90
672.21	34450.35
672.35	33799.68
672.49	33923.72
672.63	34462.05
672.77	33916.70
672.91	33748.18
673.05	33514.13
673.19	33165.39
673.33	33518.81
673.47	33200.50
673.61	33343.27
673.75	32744.09
673.89	32966.45
674.03	32940.70
674.17	33109.22
674.31	32833.04
674.45	32762.82
674.59	32627.07
674.73	32741.75
674.87	32746.44
675.01	32652.81
675.15	32217.47
675.29	32170.66
675.43	31952.99
675.56	32444.51
675.70	32011.51
675.84	32554.51
675.98	31136.15
676.12	31803.20
676.26	31681.49
676.40	31580.85
676.54	31805.54
676.68	31227.43
676.82	31019.12
676.96	31541.06
677.10	31676.81
677.23	31115.08
677.37	31079.97
677.51	31321.05
677.65	30946.56
677.79	30892.73
677.93	31028.48
678.07	30885.71
678.21	30462.07
678.34	30476.12
678.48	30223.34
678.62	30422.28
678.76	30464.41
678.90	29823.11
679.04	29802.04
679.18	30394.20
679.31	29923.75
679.45	29820.77
679.59	29603.10
679.73	29841.83
679.87	29486.07
680.00	29502.45
680.14	29509.47
680.28	29226.27
680.42	28870.51
680.56	28814.34
680.70	28952.43
680.83	28517.09
680.97	28610.71
681.11	28833.06
681.25	28329.84
681.39	28004.51
681.52	28552.20
681.66	28135.58
681.80	27644.07
681.94	27522.36
682.07	27758.75
682.21	27943.66
682.35	28020.89
682.49	27768.12
682.62	27744.71
682.76	27482.57
682.90	27520.02
683.04	27498.95
683.17	27358.52
683.31	27229.79
683.45	26916.16
683.59	26515.93
683.72	26335.71
683.86	26501.89
684.00	26569.76
684.13	26707.85
684.27	26216.34
684.41	26363.79
684.55	26609.55
684.68	26286.56
684.82	25977.61
684.96	26059.52
685.09	25830.15
685.23	25949.52
685.37	26012.71
685.50	26031.44
685.64	25694.40
685.78	25507.16
685.91	25404.17
686.05	24915.00
686.19	25109.27
686.32	25116.29
686.46	24837.76
686.60	24531.15
686.73	24767.55
686.87	24376.68
687.01	24774.57
687.14	24922.02
687.28	24489.03
687.42	24659.88
687.55	24397.74
687.69	24285.40
687.82	24093.47
687.96	23828.99
688.10	23929.64
688.23	23836.02
688.37	24067.73
688.50	24205.82
688.64	23531.75
688.78	23243.86
688.91	23541.11
689.05	23571.54
689.18	22967.68
689.32	22735.96
689.46	22731.28
689.59	22822.56
689.73	23321.10
689.86	22881.08
690.00	23101.09
690.13	22946.61
690.27	22476.16
690.41	22342.75
690.54	22246.79
690.68	22195.30
690.81	21949.54
690.95	22092.32
691.08	21846.56
691.22	21930.82
691.35	21675.70
691.49	22057.21
691.62	21862.94
691.76	21469.73
691.89	21647.61
692.03	20870.56
692.16	20971.20
692.30	21046.10
692.43	21064.82
692.57	20727.78
692.70	20833.11
692.84	20524.16
692.97	20744.17
693.11	20868.22
693.24	20411.81
693.38	20046.69
693.51	20161.37
693.65	20074.77
693.78	20173.08
693.92	20013.92
694.05	20051.37
694.19	19913.28
694.32	19662.84
694.45	19744.76
694.59	19957.75
694.72	19948.39
694.86	19763.48
694.99	19447.51
695.13	19377.30
695.26	19119.84
695.39	19115.16
695.53	19049.62
695.66	19140.90
695.80	18871.74
695.93	18712.58
696.07	18778.12
696.20	18424.70
696.33	18143.83
696.47	18427.04
696.60	18068.94
696.73	18511.30
696.87	18469.17
697.00	18148.51
697.14	18043.19
697.27	17972.97
697.40	17937.87
697.54	18010.42
697.67	17877.01
697.80	17841.90
697.94	17558.70
698.07	17479.12
698.21	17254.43
698.34	17486.14
698.47	17104.64
698.61	16996.97
698.74	16992.29
698.87	16844.84
699.01	16652.91
699.14	17032.08
699.27	16882.28
699.40	16908.03
699.54	16814.41
699.67	16393.11
699.80	16716.11
699.94	16313.53
700.07	16056.08
700.20	16280.77
700.34	16152.04
700.47	15894.58
700.60	16196.51
700.73	16145.02
700.87	15873.51
701.00	15709.68
701.13	15590.31
701.26	15562.22
701.40	15480.30
701.53	15400.72
701.66	15477.96
701.79	15391.36
701.93	14958.36
702.06	14899.85
702.19	15068.37
702.32	15091.77
702.46	15236.89
702.59	14979.43
702.72	15080.07
702.85	14855.38
702.99	14750.06
703.12	14663.46
703.25	14714.95
703.38	14490.26
703.51	14413.02
703.65	14375.57
703.78	14258.54
703.91	14080.66
704.04	13888.74
704.17	14115.77
704.31	14218.75
704.44	13994.06
704.57	14127.47
704.70	13516.59
704.83	13579.79
704.96	13551.70
705.10	13493.19
705.23	13270.84
>>>>>End Processed Spectral Data<<<<<
