SpectraSuite Data File
++++++++++++++++++++++++++++++++++++
Date: Fri Oct 25 10:44:25 EDT 2013
User: price-jones
Dark Spectrum Present: No
Reference Spectrum Present: No
Number of Sampled Component Spectra: 1
Spectrometers: USB2+H05261
Integration Time (usec): 100000 (USB2+H05261)
Spectra Averaged: 1 (USB2+H05261)
Boxcar Smoothing: 0 (USB2+H05261)
Correct for Electrical Dark: No (USB2+H05261)
Strobe/Lamp Enabled: No (USB2+H05261)
Correct for Detector Non-linearity: No (USB2+H05261)
Correct for Stray Light: No (USB2+H05261)
Number of Pixels in Processed Spectrum: 2048
>>>>>Begin Processed Spectral Data<<<<<
365.73	140.43
365.92	140.43
366.12	140.43
366.32	42.13
366.52	67.88
366.72	138.09
366.91	65.54
367.11	0.00
367.31	0.00
367.51	25.75
367.70	21.06
367.90	65.54
368.10	42.13
368.30	0.00
368.49	16.38
368.69	28.09
368.89	0.00
369.09	44.47
369.28	70.22
369.48	74.90
369.68	39.79
369.87	110.01
370.07	72.56
370.27	175.54
370.47	271.50
370.66	351.08
370.86	512.58
371.06	472.79
371.25	526.62
371.45	433.00
371.65	528.96
371.84	491.51
372.04	528.96
372.24	550.03
372.44	533.64
372.63	564.07
372.83	505.56
373.03	533.64
373.22	463.43
373.42	491.51
373.62	463.43
373.81	524.28
374.01	648.33
374.21	496.19
374.40	566.41
374.60	589.82
374.79	554.71
374.99	561.73
375.19	631.94
375.38	580.45
375.58	617.90
375.78	660.03
375.97	564.07
376.17	603.86
376.37	615.56
376.56	566.41
376.76	624.92
376.95	589.82
377.15	655.35
377.35	716.20
377.54	631.94
377.74	629.60
377.93	660.03
378.13	669.39
378.33	674.07
378.52	648.33
378.72	702.16
378.91	671.73
379.11	702.16
379.31	631.94
379.50	681.10
379.70	746.63
379.89	760.67
380.09	690.46
380.28	758.33
380.48	725.57
380.68	741.95
380.87	730.25
381.07	802.80
381.26	767.70
381.46	760.67
381.65	702.16
381.85	674.07
382.04	711.52
382.24	781.74
382.43	699.82
382.63	746.63
382.83	732.59
383.02	791.10
383.22	779.40
383.41	669.39
383.61	758.33
383.80	816.85
384.00	786.42
384.19	805.14
384.39	802.80
384.58	884.72
384.78	772.38
384.97	828.55
385.17	812.17
385.36	828.55
385.56	823.87
385.75	858.98
385.95	842.59
386.14	898.77
386.34	863.66
386.53	915.15
386.72	854.30
386.92	866.00
387.11	840.25
387.31	842.59
387.50	884.72
387.70	950.26
387.89	929.19
388.09	873.02
388.28	887.06
388.48	889.40
388.67	1015.79
388.86	938.55
389.06	1008.77
389.25	1022.81
389.45	912.81
389.64	1039.20
389.84	1006.43
390.03	1100.05
390.22	959.62
390.42	1053.24
390.61	1015.79
390.81	1064.94
391.00	1121.12
391.19	1069.62
391.39	1132.82
391.58	1029.84
391.78	1093.03
391.97	1041.54
392.16	1076.65
392.36	1046.22
392.55	1053.24
392.75	1074.31
392.94	961.96
393.13	1001.75
393.33	968.98
393.52	1048.56
393.71	1088.35
393.91	1153.88
394.10	1090.69
394.29	1177.29
394.49	1153.88
394.68	1186.65
394.88	1196.01
395.07	1275.59
395.26	1299.00
395.46	1317.72
395.65	1303.68
395.84	1310.70
396.04	1289.64
396.23	1200.69
396.42	1132.82
396.62	1224.10
396.81	1238.14
397.00	1238.14
397.19	1322.40
397.39	1348.15
397.58	1355.17
397.77	1427.73
397.97	1563.48
398.16	1453.47
398.35	1488.58
398.55	1526.03
398.74	1502.62
398.93	1572.84
399.12	1596.25
399.32	1563.48
399.51	1511.99
399.70	1572.84
399.90	1558.80
400.09	1734.34
400.28	1570.50
400.47	1650.08
400.67	1666.46
400.86	1696.89
401.05	1720.29
401.24	1659.44
401.44	1802.21
401.63	1720.29
401.82	1764.76
402.01	1785.83
402.21	1860.73
402.40	1820.94
402.59	1741.36
402.78	1781.15
402.97	1823.28
403.17	1928.60
403.36	1886.47
403.55	1858.39
403.74	1977.75
403.93	1956.69
404.13	1886.47
404.32	2001.16
404.51	1977.75
404.70	1961.37
404.89	1912.22
405.09	2108.82
405.28	2076.06
405.47	2059.67
405.66	2003.50
405.85	2003.50
406.05	2104.14
406.24	2120.53
406.43	2122.87
406.62	2036.27
406.81	2260.96
407.00	2148.61
407.20	2162.66
407.39	2092.44
407.58	2204.78
407.77	2277.34
407.96	2225.85
408.15	2331.17
408.34	2221.17
408.54	2422.45
408.73	2319.47
408.92	2347.56
409.11	2331.17
409.30	2399.05
409.49	2314.79
409.68	2328.83
409.87	2438.84
410.07	2569.91
410.26	2366.28
410.45	2499.69
410.64	2370.96
410.83	2597.99
411.02	2504.37
411.21	2644.81
411.40	2581.61
411.59	2754.81
411.78	2682.25
411.98	2710.34
412.17	2745.45
412.36	2834.39
412.55	2780.56
412.74	2759.49
412.93	2832.05
413.12	2841.41
413.31	2981.84
413.50	3066.10
413.69	2972.48
413.88	2949.08
414.07	2988.86
414.26	3019.29
414.45	3049.72
414.64	3131.64
414.83	3117.59
415.02	3075.46
415.22	3295.47
415.41	3267.39
415.60	3108.23
415.79	3279.09
415.98	3393.78
416.17	3407.82
416.36	3391.44
416.55	3466.33
416.74	3485.06
416.93	3433.57
417.12	3307.18
417.31	3433.57
417.50	3417.18
417.69	3641.87
417.88	3456.97
418.07	3426.54
418.26	3595.06
418.45	3592.72
418.64	3707.41
418.83	3644.21
419.02	3592.72
419.21	3632.51
419.39	3693.37
419.58	3641.87
419.77	3728.47
419.96	3719.11
420.15	3936.78
420.34	3761.24
420.53	3983.59
420.72	3983.59
420.91	4025.72
421.10	3948.48
421.29	4014.02
421.48	3960.19
421.67	4018.70
421.86	3899.33
422.05	3976.57
422.24	3950.82
422.43	3941.46
422.61	3857.20
422.80	4117.00
422.99	4065.51
423.18	3953.16
423.37	4173.18
423.56	4079.55
423.75	4112.32
423.94	3995.29
424.13	3899.33
424.32	3786.99
424.50	4177.86
424.69	4187.22
424.88	4161.47
425.07	4037.42
425.26	3985.93
425.45	4032.74
425.64	3913.38
425.83	3988.27
426.01	4222.33
426.20	4170.83
426.39	4166.15
426.58	3927.42
426.77	4112.32
426.96	4241.05
427.15	4184.88
427.33	4163.81
427.52	4231.69
427.71	4404.89
427.90	4109.98
428.09	4238.71
428.28	4245.73
428.46	4091.26
428.65	4318.29
428.84	4360.42
429.03	4369.78
429.22	4210.62
429.40	4140.41
429.59	4194.24
429.78	3896.99
429.97	3960.19
430.16	4058.49
430.34	4236.37
430.53	4292.54
430.72	4205.94
430.91	4442.34
431.10	4346.37
431.28	4718.52
431.47	4762.99
431.66	4889.38
431.85	4809.80
432.03	4741.93
432.22	4767.67
432.41	4781.71
432.60	4837.89
432.79	4795.76
432.97	4826.18
433.16	4973.64
433.35	4823.84
433.54	4685.75
433.72	4966.62
433.91	4748.95
434.10	4877.68
434.28	4880.02
434.47	5020.45
434.66	5116.41
434.85	5163.22
435.03	5111.73
435.22	5158.54
435.41	5165.56
435.59	5207.69
435.78	5142.16
435.97	5345.78
436.16	5324.72
436.34	5383.23
436.53	5305.99
436.72	5453.45
436.90	5226.42
437.09	5394.93
437.28	5212.37
437.46	5273.23
437.65	5343.44
437.84	5394.93
438.02	5266.21
438.21	5240.46
438.40	5280.25
438.58	5411.32
438.77	5645.37
438.96	5493.24
439.14	5708.57
439.33	5645.37
439.52	5750.70
439.70	5778.78
439.89	5944.96
440.08	5865.38
440.26	5895.81
440.45	5891.13
440.63	5959.00
440.82	6118.16
441.01	6118.16
441.19	6005.81
441.38	6207.10
441.57	6361.58
441.75	6609.67
441.94	6579.25
442.12	6462.22
442.31	6429.45
442.50	6511.37
442.68	6626.06
442.87	6415.41
443.05	6480.94
443.24	6661.16
443.43	6621.38
443.61	6808.62
443.80	6675.21
443.98	6590.95
444.17	6363.92
444.35	6604.99
444.54	6705.63
444.73	6743.08
444.91	6607.33
445.10	6647.12
445.28	6722.02
445.47	6623.72
445.65	6574.56
445.84	6773.51
446.02	6740.74
446.21	6869.47
446.39	6616.69
446.58	6782.87
446.77	6899.90
446.95	6722.02
447.14	6956.07
447.32	6862.45
447.51	7000.54
447.69	6897.56
447.88	6810.96
448.06	7035.65
448.25	6991.18
448.43	6874.15
448.62	6876.49
448.80	6944.37
448.99	7030.97
449.17	7007.56
449.36	6977.14
449.54	7236.94
449.73	7162.04
449.91	7316.51
450.10	7438.22
450.28	7393.75
450.46	7454.61
450.65	7655.89
450.83	7426.52
451.02	7454.61
451.20	7412.48
451.39	7421.84
451.57	7520.14
451.76	7391.41
451.94	7407.80
452.13	7606.74
452.31	7389.07
452.49	7323.54
452.68	7667.60
452.86	7412.48
453.05	7473.33
453.23	7576.31
453.42	7480.35
453.60	7637.17
453.78	7602.06
453.97	7686.32
454.15	7555.25
454.34	7510.78
454.52	7618.44
454.70	7571.63
454.89	8053.78
455.07	7873.56
455.26	8070.17
455.44	8065.49
455.62	7894.63
455.81	8079.53
455.99	8210.60
456.17	8245.71
456.36	8053.78
456.54	8119.32
456.73	8334.65
456.91	8107.62
457.09	8161.45
457.28	8652.96
457.46	8262.09
457.64	8393.16
457.83	8322.94
458.01	8273.79
458.19	8538.27
458.38	8372.10
458.56	8716.16
458.74	8667.00
458.93	8346.35
459.11	8435.29
459.29	8617.85
459.48	8512.53
459.66	8521.89
459.84	8699.77
460.03	8856.59
460.21	8795.73
460.39	8671.68
460.57	8734.88
460.76	8812.12
460.94	8828.50
461.12	8758.28
461.31	8802.75
461.49	8992.34
461.67	8774.67
461.85	9158.52
462.04	9039.15
462.22	9085.96
462.40	9228.73
462.59	9020.42
462.77	9331.72
462.95	9287.25
463.13	9011.06
463.32	9181.92
463.50	9275.54
463.68	9282.56
463.86	9394.91
464.05	9240.44
464.23	9205.33
464.41	9284.91
464.59	9277.88
464.78	9535.34
464.96	9324.69
465.14	9493.21
465.32	9528.32
465.50	9509.60
465.69	9696.84
465.87	9832.59
466.05	9530.66
466.23	9415.98
466.41	9317.67
466.60	9572.79
466.78	9488.53
466.96	9413.63
467.14	9432.36
467.32	9603.22
467.51	9729.61
467.69	9577.47
467.87	9816.21
468.05	9724.93
468.23	9790.46
468.41	9748.33
468.60	9937.91
468.78	9958.98
468.96	9694.50
469.14	10012.81
469.32	10244.52
469.50	9619.60
469.69	10186.01
469.87	9956.64
470.05	10298.36
470.23	10059.62
470.41	10118.14
470.59	10263.25
470.77	9947.28
470.95	10050.26
471.14	10195.37
471.32	10132.18
471.50	10401.34
471.68	10473.90
471.86	10562.84
472.04	10906.90
472.22	10864.77
472.40	10609.65
472.58	10642.42
472.77	10923.28
472.95	10785.19
473.13	11206.48
473.31	10712.63
473.49	10736.04
473.67	10757.10
473.85	11211.17
474.03	11339.90
474.21	11234.57
474.39	11499.05
474.57	11468.62
474.75	11309.47
474.93	11751.83
475.12	11391.39
475.30	11587.99
475.48	11541.18
475.66	11765.87
475.84	11576.29
476.02	11782.26
476.20	11627.78
476.38	12060.78
476.56	12229.30
476.74	12198.87
476.92	12152.06
477.10	12346.33
477.28	12531.23
477.46	12461.01
477.64	12669.32
477.82	12730.17
478.00	12891.67
478.18	12751.24
478.36	12891.67
478.54	12961.89
478.72	13027.42
478.90	13137.43
479.08	13383.18
479.26	13558.72
479.44	13724.90
479.62	13729.58
479.80	13769.37
479.98	13790.44
480.16	14263.22
480.34	13799.80
480.52	14115.77
480.70	14202.37
480.88	13888.74
481.06	14415.36
481.24	14345.14
481.41	14677.50
481.59	14583.88
481.77	14780.48
481.95	14944.32
482.13	14738.35
482.31	14834.32
482.49	15211.14
482.67	15267.31
482.85	15679.25
483.03	15618.39
483.21	15733.08
483.39	15896.92
483.57	15667.55
483.74	16229.27
483.92	15983.52
484.10	15981.18
484.28	16524.18
484.46	16851.86
484.64	16798.02
484.82	16379.07
485.00	16645.89
485.18	16575.67
485.35	17240.39
485.53	16844.84
485.71	16542.91
485.89	16774.62
486.07	16720.79
486.25	17013.35
486.43	17146.76
486.61	17373.80
486.78	17678.07
486.96	17664.02
487.14	18022.12
487.32	18085.32
487.50	18572.15
487.68	18792.16
487.85	19014.51
488.03	19037.92
488.21	19082.39
488.39	19166.65
488.57	19187.71
488.75	19477.94
488.92	19740.08
489.10	19800.93
489.28	19814.98
489.46	20561.61
489.64	20208.19
489.81	20844.81
489.99	20547.56
490.17	20783.96
490.35	21010.99
490.53	20692.68
490.70	20908.01
490.88	21247.38
491.06	21586.76
491.24	21296.53
491.41	21359.73
491.59	21362.07
491.77	21069.50
491.95	21481.44
492.13	21975.29
492.30	22031.46
492.48	22270.20
492.66	22300.62
492.84	22347.44
493.01	22679.79
493.19	22775.75
493.37	22803.84
493.54	23070.66
493.72	23190.03
493.90	23372.59
494.08	23707.29
494.25	23901.55
494.43	24084.11
494.61	24280.72
494.79	23662.82
494.96	23931.98
495.14	24114.54
495.32	24381.36
495.49	24259.65
495.67	24498.39
495.85	24325.19
496.02	24807.34
496.20	24826.06
496.38	25181.82
496.55	25362.04
496.73	25624.18
496.91	25397.15
497.09	25331.62
497.26	25769.30
497.44	25605.46
497.62	26012.71
497.79	26134.42
497.97	26120.38
498.14	26408.26
498.32	26504.23
498.50	26546.36
498.67	26544.02
498.85	26654.02
499.03	26831.90
499.20	26838.92
499.38	27054.25
499.56	27061.27
499.73	27253.20
499.91	26738.28
500.08	27288.31
500.26	27037.87
500.44	27178.30
500.61	27501.29
500.79	27648.75
500.97	27660.45
501.14	28079.41
501.32	28077.07
501.49	27749.39
501.67	28025.57
501.84	28060.68
502.02	28107.49
502.20	28559.22
502.37	28566.24
502.55	28514.75
502.72	28463.25
502.90	29083.50
503.07	28748.80
503.25	29308.19
503.43	28886.89
503.60	29139.67
503.78	28793.27
503.95	29027.32
504.13	29247.33
504.30	29378.40
504.48	29832.47
504.65	29748.21
504.83	29895.66
505.01	30263.13
505.18	29996.31
505.36	30359.09
505.53	30012.69
505.71	30574.42
505.88	30270.15
506.06	30192.91
506.23	30597.82
506.41	30436.33
506.58	30380.15
506.76	30560.37
506.93	30604.84
507.11	31094.02
507.28	30520.59
507.46	30775.70
507.63	30890.39
507.81	31110.40
507.98	30754.64
508.16	31180.62
508.33	31473.18
508.50	31770.43
508.68	31742.35
508.85	32006.83
509.03	31662.77
509.20	32020.87
509.38	32063.00
509.55	31964.70
509.73	32072.36
509.90	32641.11
510.08	32070.02
510.25	31880.44
510.42	32304.07
510.60	32367.27
510.77	32652.81
510.95	32980.49
511.12	32568.55
511.30	33024.96
511.47	33385.40
511.64	33179.43
511.82	33364.34
511.99	32992.19
512.17	33322.21
512.34	33397.10
512.51	33291.78
512.69	33331.57
512.86	33720.10
513.04	33748.18
513.21	33677.97
513.38	33493.07
513.56	33600.73
513.73	33406.47
513.90	33673.29
514.08	33535.20
514.25	34040.75
514.43	33745.84
514.60	33944.79
514.77	34288.85
514.95	34691.42
515.12	34728.87
515.29	34494.82
515.47	34787.38
515.64	35054.20
515.81	34391.83
515.99	34752.27
516.16	34506.52
516.33	34220.97
516.51	34555.67
516.68	33783.29
516.85	33993.94
517.03	34433.96
517.20	34607.16
517.37	35014.41
517.54	35096.33
517.72	34749.93
517.89	34693.76
518.06	35063.57
518.24	35110.38
518.41	35007.39
518.58	35545.72
518.75	35262.51
518.93	35620.61
519.10	35927.22
519.27	35613.59
519.45	35997.44
519.62	36126.17
519.79	35875.73
519.96	36390.65
520.14	36563.85
520.31	35828.92
520.48	36355.54
520.65	36409.37
520.83	36828.33
521.00	36985.15
521.17	36217.45
521.34	37053.02
521.52	37097.49
521.69	36793.22
521.86	37385.38
522.03	36678.54
522.20	37221.54
522.38	37324.52
522.55	37729.44
522.72	36868.12
522.89	37387.72
523.07	37518.79
523.24	36954.72
523.41	37872.21
523.58	37652.20
523.75	38188.18
523.92	38050.09
524.10	38038.39
524.27	38389.47
524.44	38335.63
524.61	38450.32
524.78	38663.31
524.96	38403.51
525.13	38543.94
525.30	38639.90
525.47	38480.75
525.64	38382.45
525.81	38981.62
525.98	38721.82
526.16	37951.79
526.33	38036.05
526.50	38134.35
526.67	37961.15
526.84	38160.09
527.01	38312.23
527.18	38506.49
527.36	39007.37
527.53	39154.82
527.70	39622.93
527.87	39157.16
528.04	39342.06
528.21	39519.95
528.38	39246.10
528.55	39838.26
528.72	40102.74
528.89	39976.35
529.07	39419.30
529.24	39725.91
529.41	39772.72
529.58	39225.04
529.75	39522.29
529.92	39962.31
530.09	40034.86
530.26	39573.78
530.43	40444.46
530.60	40011.46
530.77	40411.69
530.94	40711.28
531.11	39971.67
531.28	40268.92
531.46	40589.57
531.63	40893.84
531.80	40278.28
531.97	40877.46
532.14	40149.55
532.31	40470.20
532.48	40507.65
532.65	40247.85
532.82	40783.83
532.99	40697.24
533.16	40734.68
533.33	40905.54
533.50	40657.45
533.67	40685.53
533.84	40556.80
534.01	41158.32
534.18	40325.09
534.35	41036.61
534.52	40875.12
534.69	41373.65
534.86	41638.13
535.03	41053.00
535.20	41586.64
535.37	42195.18
535.54	41904.95
535.71	41584.30
535.88	41617.07
536.05	41392.37
536.22	41780.90
536.38	41794.95
536.55	41631.11
536.72	41682.60
536.89	41408.76
537.06	41986.87
537.23	42241.99
537.40	41764.52
537.57	42073.47
537.74	42061.77
537.91	42045.38
538.08	42171.77
538.25	41851.12
538.42	41916.65
538.59	42234.97
538.75	42199.86
538.92	41846.44
539.09	42080.49
539.26	42473.70
539.43	42281.78
539.60	42265.39
539.77	42014.96
539.94	42436.25
540.11	42351.99
540.28	42246.67
540.44	42389.44
540.61	42124.96
540.78	42562.64
540.95	42164.75
541.12	42649.24
541.29	42483.06
541.46	42845.85
541.62	42733.50
541.79	43262.46
541.96	42887.98
542.13	42745.20
542.30	42780.31
542.47	42820.10
542.63	42724.14
542.80	42918.40
542.97	43540.99
543.14	43562.05
543.31	43669.72
543.48	43632.27
543.64	44392.94
543.81	43842.92
543.98	43702.48
544.15	43665.03
544.32	43545.67
544.48	44423.37
544.65	43405.23
544.82	43807.81
544.99	43199.27
545.16	43690.78
545.32	43412.26
545.49	44404.64
545.66	44252.51
545.83	44238.47
546.00	44259.53
546.16	44343.79
546.33	43606.52
546.50	43756.32
546.67	44224.42
546.83	43861.64
547.00	44114.42
547.17	44388.26
547.34	43992.71
547.50	44062.93
547.67	44294.64
547.84	44713.59
548.00	44704.23
548.17	44158.89
548.34	44924.24
548.51	44957.01
548.67	44694.87
548.84	44423.37
549.01	44083.99
549.18	44917.22
549.34	44685.51
549.51	44725.30
549.68	44851.69
549.84	45010.84
550.01	44662.10
550.18	44947.65
550.34	45102.12
550.51	45036.59
550.68	44772.11
550.84	44502.95
551.01	44825.94
551.18	44985.10
551.34	44872.75
551.51	45043.61
551.68	45043.61
551.84	44961.69
552.01	45212.13
552.18	45088.08
552.34	44636.36
552.51	44926.58
552.68	45366.60
552.84	45170.00
553.01	45368.94
553.18	45130.21
553.34	45277.66
553.51	45109.14
553.67	45577.25
553.84	45731.73
554.01	45287.03
554.17	45614.70
554.34	45853.44
554.51	45324.47
554.67	45855.78
554.84	45490.65
555.00	45495.33
555.17	45104.46
555.33	45261.28
555.50	45467.25
555.67	45752.79
555.83	45427.46
556.00	45745.77
556.16	45799.60
556.33	45656.83
556.50	45605.34
556.66	45879.18
556.83	45815.99
556.99	46270.05
557.16	46199.83
557.32	45839.39
557.49	46014.93
557.65	45771.52
557.82	45347.88
557.98	46206.86
558.15	46026.63
558.32	45820.67
558.48	45886.20
558.65	45673.21
558.81	45572.57
558.98	45455.54
559.14	45780.88
559.31	45780.88
559.47	45804.28
559.64	46127.28
559.80	45876.84
559.97	46192.81
560.13	45675.55
560.30	45928.33
560.46	46319.20
560.63	45902.59
560.79	46499.42
560.96	46653.90
561.12	46204.52
561.29	46356.65
561.45	46150.68
561.61	45874.50
561.78	46195.15
561.94	46494.74
562.11	46059.40
562.27	46021.95
562.44	46164.73
562.60	46347.29
562.77	46852.84
562.93	46246.65
563.10	46644.54
563.26	46040.68
563.42	46705.39
563.59	46389.42
563.75	46588.36
563.92	46691.35
564.08	46450.27
564.24	46492.40
564.41	46373.03
564.57	46373.03
564.74	46389.42
564.90	46351.97
565.07	46651.56
565.23	46513.47
565.39	46321.54
565.56	46380.06
565.72	46183.45
565.88	46586.02
566.05	46071.10
566.21	46426.87
566.38	46557.94
566.54	46672.62
566.70	46817.74
566.87	47072.85
567.03	46581.34
567.19	46777.95
567.36	46644.54
567.52	46431.55
567.68	46969.87
567.85	46862.21
568.01	46960.51
568.17	46632.83
568.34	46899.65
568.50	46513.47
568.66	46494.74
568.83	46581.34
568.99	46183.45
569.15	46344.95
569.32	46295.80
569.48	46590.70
569.64	46894.97
569.81	46483.04
569.97	46944.12
570.13	46469.00
570.30	46246.65
570.46	46689.01
570.62	46265.37
570.78	46536.87
570.95	46487.72
571.11	46799.01
571.27	46822.42
571.43	46312.18
571.60	46719.43
571.76	46146.00
571.92	46511.13
572.09	46787.31
572.25	47040.09
572.41	46520.49
572.57	46492.40
572.74	47040.09
572.90	46728.80
573.06	47030.72
573.22	46817.74
573.38	46815.40
573.55	46899.65
573.71	47098.60
573.87	46817.74
574.03	46457.29
574.20	46820.08
574.36	46384.74
574.52	46827.10
574.68	46726.46
574.84	46763.90
575.01	46794.33
575.17	47033.07
575.33	46373.03
575.49	46394.10
575.65	46513.47
575.82	46546.23
575.98	46656.24
576.14	47033.07
576.30	46932.42
576.46	47065.83
576.62	46791.99
576.79	46974.55
576.95	46476.02
577.11	47035.41
577.27	46651.56
577.43	46485.38
577.59	46684.33
577.75	46583.68
577.92	46064.08
578.08	46536.87
578.24	46501.76
578.40	46754.54
578.56	46520.49
578.72	46766.24
578.88	47480.11
579.04	46696.03
579.21	46597.73
579.37	47098.60
579.53	46944.12
579.69	46939.44
579.85	47096.26
580.01	47157.11
580.17	46852.84
580.33	46845.82
580.49	46749.86
580.65	47276.48
580.82	47210.95
580.98	46536.87
581.14	46906.68
581.30	47271.80
581.46	47611.18
581.62	47122.01
581.78	46784.97
581.94	47416.91
582.10	46623.47
582.26	46988.60
582.42	47161.79
582.58	46630.49
582.74	47234.35
582.90	46960.51
583.06	47407.55
583.22	47042.43
583.38	47103.28
583.54	47290.52
583.70	47194.56
583.86	47000.30
584.02	46852.84
584.18	47072.85
584.34	47243.71
584.50	47136.05
584.66	46934.76
584.82	46476.02
584.98	47267.12
585.14	46827.10
585.30	46808.37
585.46	46880.93
585.62	47063.49
585.78	46831.78
585.94	46492.40
586.10	46944.12
586.26	46791.99
586.42	47346.70
586.58	47138.39
586.74	47009.66
586.90	46850.50
587.06	46906.68
587.22	47173.50
587.38	46696.03
587.54	47281.16
587.70	47063.49
587.86	47152.43
588.02	47159.45
588.18	46932.42
588.34	47164.14
588.49	46674.96
588.65	46174.09
588.81	46518.15
588.97	46244.30
589.13	46670.28
589.29	46686.67
589.45	46658.58
589.61	46836.46
589.77	47037.75
589.93	46808.37
590.08	46850.50
590.24	47304.57
590.40	47229.67
590.56	46866.89
590.72	46932.42
590.88	46714.75
591.04	47215.63
591.20	47833.53
591.35	47250.74
591.51	47246.05
591.67	47103.28
591.83	47236.69
591.99	46763.90
592.15	47178.18
592.31	47096.26
592.46	47002.64
592.62	47372.44
592.78	47122.01
592.94	47529.26
593.10	46953.49
593.26	47318.61
593.41	47278.82
593.57	46813.05
593.73	46850.50
593.89	47182.86
594.05	47016.68
594.20	46817.74
594.36	46897.31
594.52	46981.57
594.68	47068.17
594.84	46920.72
594.99	47182.86
595.15	46637.51
595.31	47019.02
595.47	47114.98
595.62	47398.19
595.78	46923.06
595.94	47470.75
596.10	47585.43
596.25	47332.65
596.41	47246.05
596.57	47199.24
596.73	47454.36
596.88	46438.57
597.04	46988.60
597.20	47419.25
597.36	47632.24
597.51	47290.52
597.67	47105.62
597.83	47082.22
597.99	47435.64
598.14	47075.19
598.30	47009.66
598.46	47077.54
598.61	47276.48
598.77	47047.11
598.93	47571.39
599.09	47337.33
599.24	47531.60
599.40	47529.26
599.56	47515.22
599.71	46902.00
599.87	47510.53
600.03	47370.10
600.18	47124.35
600.34	46920.72
600.50	47288.18
600.65	47098.60
600.81	47227.33
600.97	47208.61
601.12	47145.41
601.28	46909.02
601.44	46909.02
601.59	46813.05
601.75	46845.82
601.91	47117.32
602.06	46527.51
602.22	47182.86
602.37	47241.37
602.53	47107.96
602.69	47372.44
602.84	46806.03
603.00	47152.43
603.16	47105.62
603.31	47110.30
603.47	46969.87
603.62	46951.15
603.78	47110.30
603.94	46794.33
604.09	47608.84
604.25	47323.29
604.40	47232.01
604.56	46969.87
604.71	46766.24
604.87	46827.10
605.03	46803.69
605.18	46569.64
605.34	46761.56
605.49	46887.95
605.65	47042.43
605.80	46756.88
605.96	46997.96
606.12	47213.29
606.27	47445.00
606.43	46522.83
606.58	47007.32
606.74	46937.10
606.89	47012.00
607.05	46873.91
607.20	47145.41
607.36	47061.15
607.51	47086.90
607.67	46813.05
607.82	46815.40
607.98	46859.87
608.13	46394.10
608.29	46206.86
608.44	46579.00
608.60	46532.19
608.75	46508.79
608.91	46323.88
609.06	46380.06
609.22	46712.41
609.37	46188.13
609.53	46344.95
609.68	46806.03
609.84	46710.07
609.99	46291.12
610.15	46443.25
610.30	46384.74
610.46	46146.00
610.61	46897.31
610.76	46457.29
610.92	46574.32
611.07	46192.81
611.23	46307.50
611.38	46223.24
611.54	46426.87
611.69	46478.36
611.84	46417.50
612.00	46195.15
612.15	46218.56
612.31	46366.01
612.46	45918.97
612.62	46185.79
612.77	45918.97
612.92	46366.01
613.08	46307.50
613.23	46277.07
613.39	45900.25
613.54	45813.65
613.69	46136.64
613.85	45790.24
614.00	46031.32
614.15	46115.58
614.31	45940.04
614.46	46071.10
614.62	45961.10
614.77	45848.75
614.92	45858.12
615.08	45736.41
615.23	45691.94
615.38	45565.55
615.54	45654.49
615.69	45663.85
615.84	45317.45
616.00	46043.02
616.15	45492.99
616.30	45521.08
616.46	45338.52
616.61	45453.20
616.76	45322.13
616.92	45059.99
617.07	44945.31
617.22	45338.52
617.37	45345.54
617.53	45523.42
617.68	45670.87
617.83	45530.44
617.99	45794.92
618.14	45399.37
618.29	45490.65
618.45	45471.93
618.60	45179.36
618.75	45233.19
618.90	45509.38
619.06	45422.78
619.21	45399.37
619.36	45701.30
619.51	45345.54
619.67	45198.09
619.82	45347.88
619.97	45331.50
620.12	45382.99
620.28	44729.98
620.43	45237.87
620.58	44594.23
620.73	45055.31
620.89	44748.70
621.04	45022.54
621.19	44772.11
621.34	44650.40
621.49	44638.70
621.65	44746.36
621.80	44959.35
621.95	44271.23
622.10	44839.98
622.25	44289.96
622.41	44774.45
622.56	44463.16
622.71	44657.42
622.86	44722.96
623.01	44435.07
623.16	44811.90
623.32	44491.24
623.47	44254.85
623.62	44650.40
623.77	44381.24
623.92	44135.48
624.07	44261.87
624.23	44018.46
624.38	44163.57
624.53	43831.21
624.68	44055.90
624.83	43948.24
624.98	44048.88
625.13	43367.79
625.29	43866.32
625.44	43732.91
625.59	43531.62
625.74	43910.79
625.89	43388.85
626.04	43557.37
626.19	43796.10
626.34	43859.30
626.49	44304.00
626.65	43793.76
626.80	44034.84
626.95	43789.08
627.10	44051.22
627.25	43753.97
627.40	43466.09
627.55	43615.88
627.70	42831.80
627.85	43000.32
628.00	43168.84
628.15	43168.84
628.30	42911.38
628.45	43730.57
628.60	43304.59
628.76	43239.06
628.91	43686.10
629.06	43187.56
629.21	43037.77
629.36	42754.57
629.51	43021.39
629.66	43318.64
629.81	42937.13
629.96	43344.38
630.11	42857.55
630.26	42930.11
630.41	43047.13
630.56	42876.27
630.71	42684.35
630.86	43152.46
631.01	42663.28
631.16	42628.18
631.31	42974.58
631.46	42569.66
631.61	42965.21
631.76	43487.15
631.91	43297.57
632.06	42965.21
632.21	42829.46
632.36	42953.51
632.51	42674.99
632.66	42646.90
632.81	42197.52
632.96	42660.94
633.10	42391.78
633.25	42792.01
633.40	42469.02
633.55	42550.94
633.70	42621.16
633.85	42335.61
634.00	42684.35
634.15	42560.30
634.30	42454.98
634.45	42536.90
634.60	42167.09
634.75	42548.60
634.90	42337.95
635.05	41787.92
635.19	42043.04
635.34	42073.47
635.49	42309.86
635.64	42185.82
635.79	42153.05
635.94	42454.98
636.09	42522.85
636.24	42092.19
636.39	41869.84
636.53	41951.76
636.68	41563.23
636.83	41844.10
636.98	41762.18
637.13	41799.63
637.28	41766.86
637.43	42045.38
637.57	42227.95
637.72	41703.67
637.87	41865.16
638.02	41415.78
638.17	41965.81
638.32	41591.32
638.46	41251.94
638.61	41263.64
638.76	41249.60
638.91	41673.24
639.06	41380.67
639.20	41581.96
639.35	41703.67
639.50	41184.07
639.65	41390.03
639.80	42012.62
639.94	41530.47
640.09	41586.64
640.24	41106.83
640.39	40617.66
640.54	41132.57
640.68	41008.53
640.83	41158.32
640.98	41048.32
641.13	41282.37
641.27	41263.64
641.42	41216.83
641.57	41130.23
641.72	41163.00
641.86	40830.65
642.01	40629.36
642.16	40725.32
642.31	40451.48
642.45	40854.05
642.60	40615.32
642.75	40828.30
642.90	40982.78
643.04	40830.65
643.19	40650.42
643.34	40620.00
643.48	40079.33
643.63	40360.20
643.78	39983.37
643.93	40203.38
644.07	40266.58
644.22	40374.24
644.37	40179.98
644.51	40081.67
644.66	40699.58
644.81	40643.40
644.95	40851.71
645.10	40580.21
645.25	40889.16
645.39	40257.21
645.54	40388.28
645.69	40105.08
645.83	40442.12
645.98	40418.71
646.13	40545.10
646.27	40313.39
646.42	40442.12
646.57	40105.08
646.71	40371.90
646.86	40203.38
647.00	40245.51
647.15	40231.47
647.30	40086.36
647.44	39866.34
647.59	40126.14
647.74	39695.49
647.88	39849.96
648.03	40074.65
648.17	39674.42
648.32	39627.61
648.47	39892.09
648.61	39555.05
648.76	39971.67
648.90	39842.94
649.05	39821.87
649.20	39737.62
649.34	39711.87
649.49	39583.14
649.63	39473.13
649.78	39433.35
649.92	39868.69
650.07	39330.36
650.21	39187.59
650.36	39550.37
650.51	39604.20
650.65	39716.55
650.80	39934.22
650.94	39456.75
651.09	39653.36
651.23	39814.85
651.38	39232.06
651.52	38962.90
651.67	39166.52
651.81	39271.85
651.96	38611.82
652.10	39243.76
652.25	38752.25
652.39	39290.57
652.54	39086.95
652.68	39311.64
652.83	39510.58
652.97	39100.99
653.12	38869.28
653.26	38836.51
653.41	39063.54
653.55	38639.90
653.70	38646.93
653.84	38848.21
653.99	39005.03
654.13	39100.99
654.27	38717.14
654.42	38345.00
654.56	38410.53
654.71	38794.38
654.85	38796.72
655.00	38749.91
655.14	38387.13
655.29	37979.87
655.43	38206.90
655.57	38176.48
655.72	37928.38
655.86	38321.59
656.01	37581.98
656.15	37717.73
656.30	38169.46
656.44	37773.91
656.58	37865.19
656.73	37574.96
656.87	37780.93
657.01	38164.78
657.16	37979.87
657.30	37897.95
657.45	37926.04
657.59	38202.22
657.73	37490.70
657.88	37727.10
658.02	38277.12
658.16	38295.85
658.31	38181.16
658.45	38288.82
658.60	38384.79
658.74	38017.32
658.88	37872.21
659.03	37624.11
659.17	37474.32
659.31	37380.70
659.46	37251.97
659.60	37621.77
659.74	37549.21
659.89	37038.98
660.03	37010.89
660.17	37312.82
660.32	37322.18
660.46	37291.76
660.60	37125.58
660.74	37181.75
660.89	37434.53
661.03	36840.03
661.17	36687.90
661.32	36690.24
661.46	36662.15
661.60	36851.73
661.74	36816.63
661.89	36495.97
662.03	36652.79
662.17	36538.10
662.31	36507.68
662.46	36683.22
662.60	36715.98
662.74	36685.56
662.88	36437.46
663.03	35803.17
663.17	36381.29
663.31	35864.03
663.45	36336.82
663.60	36325.11
663.74	36245.54
663.88	36137.87
664.02	35908.50
664.17	35922.54
664.31	36149.57
664.45	36079.36
664.59	35974.03
664.73	35658.06
664.88	35950.63
665.02	35363.15
665.16	35864.03
665.30	35145.48
665.44	35407.62
665.59	35054.20
665.73	35192.30
665.87	35108.04
666.01	35828.92
666.15	35541.03
666.29	35145.48
666.44	35395.92
666.58	34803.77
666.72	35381.88
666.86	35534.01
667.00	34958.24
667.14	34873.98
667.28	34932.50
667.43	35164.21
667.57	34590.78
667.71	34789.72
667.85	34766.32
667.99	34665.67
668.13	34415.24
668.27	34394.17
668.41	34649.29
668.56	34450.35
668.70	34623.54
668.84	34225.65
668.98	34082.88
669.12	33710.74
669.26	34188.21
669.40	33406.47
669.54	34089.90
669.68	33909.68
669.82	33797.34
669.96	33825.42
670.10	33560.94
670.25	34047.77
670.39	33696.69
670.53	33518.81
670.67	33408.81
670.81	33273.06
670.95	33464.98
671.09	33392.42
671.23	33200.50
671.37	33589.03
671.51	33144.33
671.65	32994.53
671.79	32987.51
671.93	32882.19
672.07	33188.80
672.21	32903.25
672.35	32950.06
672.49	33055.39
672.63	32863.46
672.77	32755.80
672.91	32615.37
673.05	32886.87
673.19	32435.14
673.33	32191.73
673.47	31889.80
673.61	32409.40
673.75	31749.37
673.89	32039.59
674.03	32189.39
674.17	31765.75
674.31	31957.67
674.45	31374.88
674.59	31901.50
674.73	32081.72
674.87	31728.30
675.01	31721.28
675.15	31372.54
675.29	31445.10
675.43	31325.73
675.56	31475.52
675.70	31323.39
675.84	30906.77
675.98	30230.36
676.12	31051.89
676.26	30801.45
676.40	30600.16
676.54	30885.71
676.68	30906.77
676.82	29991.62
676.96	30464.41
677.10	30391.86
677.23	30466.75
677.37	30338.02
677.51	29724.80
677.65	29823.11
677.79	29933.11
677.93	29839.49
678.07	29771.61
678.21	29755.23
678.34	29450.96
678.48	29343.30
678.62	28964.13
678.76	28772.21
678.90	28858.81
679.04	28734.76
679.18	29326.91
679.31	28540.49
679.45	28591.98
679.59	28355.59
679.73	28393.04
679.87	28533.47
680.00	28156.64
680.14	27878.12
680.28	28004.51
680.42	27892.16
680.56	28088.77
680.70	27868.76
680.83	28116.86
680.97	28009.19
681.11	27779.82
681.25	27449.80
681.39	27721.30
681.52	27913.23
681.66	27730.67
681.80	27426.40
681.94	26972.33
682.07	27381.93
682.21	27019.14
682.35	26820.20
682.49	27159.58
682.62	27002.76
682.76	26771.05
682.90	27002.76
683.04	26501.89
683.17	26237.41
683.31	26270.17
683.45	26333.37
683.59	26045.48
683.72	25993.99
683.86	26120.38
684.00	26024.42
684.13	25907.39
684.27	25575.03
684.41	25668.66
684.55	25497.80
684.68	25553.97
684.82	25799.73
684.96	25652.27
685.09	25483.75
685.23	25233.32
685.37	25238.00
685.50	25380.77
685.64	25043.73
685.78	24645.84
685.91	24793.29
686.05	24648.18
686.19	24463.28
686.32	24526.47
686.46	23718.99
686.60	23777.50
686.73	23557.49
686.87	23655.79
687.01	23679.20
687.14	23463.87
687.28	23204.07
687.42	23192.37
687.55	23339.82
687.69	23648.77
687.82	23183.01
687.96	23370.25
688.10	23250.88
688.23	23143.22
688.37	22504.25
688.50	22579.15
688.64	22867.03
688.78	23087.04
688.91	22525.32
689.05	22579.15
689.18	22647.02
689.32	22270.20
689.46	22398.93
689.59	22396.59
689.73	22429.35
689.86	22347.44
690.00	21986.99
690.13	22111.04
690.27	21916.78
690.41	21846.56
690.54	21914.44
690.68	21359.73
690.81	21664.00
690.95	21741.24
691.08	21326.96
691.22	21385.47
691.35	21050.78
691.49	21422.92
691.62	21359.73
691.76	21163.12
691.89	20828.43
692.03	20875.24
692.16	20657.57
692.30	20776.94
692.43	20475.01
692.57	20365.00
692.70	20456.28
692.84	20458.62
692.97	20072.43
693.11	20210.53
693.24	20149.67
693.38	19847.74
693.51	20049.03
693.65	20250.32
693.78	20135.63
693.92	19742.42
694.05	19953.07
694.19	19714.33
694.32	19899.23
694.45	19391.34
694.59	19379.64
694.72	19271.97
694.86	19264.95
694.99	19260.27
695.13	19185.37
695.26	19316.44
695.39	18792.16
695.53	19112.81
695.66	18965.36
695.80	18822.59
695.93	18956.00
696.07	18607.26
696.20	18679.82
696.33	18668.11
696.47	18373.21
696.60	18438.74
696.73	17937.87
696.87	18471.51
697.00	18057.23
697.14	18398.95
697.27	17867.65
697.40	17944.89
697.54	17554.02
697.67	17914.46
697.80	17338.69
697.94	17427.63
698.07	17376.14
698.21	17149.11
698.34	17312.94
698.47	16996.97
698.61	16737.17
698.74	16786.32
698.87	16741.85
699.01	16655.25
699.14	16566.31
699.27	16585.04
699.40	16788.66
699.54	16641.21
699.67	16411.84
699.80	16620.14
699.94	16339.28
700.07	16355.66
700.20	16233.96
700.34	16348.64
700.47	16145.02
700.60	16339.28
700.73	16437.58
700.87	16245.66
701.00	15772.87
701.13	15955.43
701.26	15744.78
701.40	15653.50
701.53	15396.04
701.66	15796.28
701.79	15358.60
701.93	15243.91
702.06	15386.68
702.19	15087.09
702.32	15314.13
702.46	14869.42
702.59	14991.13
702.72	15096.46
702.85	15056.67
702.99	14902.19
703.12	14710.27
703.25	14611.96
703.38	14693.88
703.51	14583.88
703.65	14518.34
703.78	14431.74
703.91	14441.11
704.04	14181.31
704.17	14272.59
704.31	14193.01
704.44	14080.66
704.57	14087.68
704.70	14064.28
704.83	14066.62
704.96	13984.70
705.10	14003.43
705.23	14050.24
>>>>>End Processed Spectral Data<<<<<
