SpectraSuite Data File
++++++++++++++++++++++++++++++++++++
Date: Fri Oct 25 11:34:44 EDT 2013
User: price-jones
Dark Spectrum Present: No
Reference Spectrum Present: No
Number of Sampled Component Spectra: 1
Spectrometers: USB2+H05261
Integration Time (usec): 100000 (USB2+H05261)
Spectra Averaged: 1 (USB2+H05261)
Boxcar Smoothing: 0 (USB2+H05261)
Correct for Electrical Dark: No (USB2+H05261)
Strobe/Lamp Enabled: No (USB2+H05261)
Correct for Detector Non-linearity: No (USB2+H05261)
Correct for Stray Light: No (USB2+H05261)
Number of Pixels in Processed Spectrum: 2048
>>>>>Begin Processed Spectral Data<<<<<
365.73	262.14
365.92	262.14
366.12	262.14
366.32	126.39
366.52	187.24
366.72	194.26
366.91	166.18
367.11	175.54
367.31	203.63
367.51	121.71
367.70	191.92
367.90	154.48
368.10	140.43
368.30	154.48
368.49	110.01
368.69	285.55
368.89	245.76
369.09	182.56
369.28	187.24
369.48	180.22
369.68	187.24
369.87	287.89
370.07	238.73
370.27	262.14
370.47	372.15
370.66	475.13
370.86	463.43
371.06	521.94
371.25	470.45
371.45	484.49
371.65	582.79
371.84	547.69
372.04	585.13
372.24	554.71
372.44	589.82
372.63	557.05
372.83	613.22
373.03	608.54
373.22	580.45
373.42	538.32
373.62	643.65
373.81	571.09
374.01	624.92
374.21	678.76
374.40	667.05
374.60	587.47
374.79	622.58
374.99	645.99
375.19	582.79
375.38	627.26
375.58	653.01
375.78	739.61
375.97	697.48
376.17	692.80
376.37	683.44
376.56	620.24
376.76	645.99
376.95	645.99
377.15	678.76
377.35	669.39
377.54	711.52
377.74	732.59
377.93	653.01
378.13	657.69
378.33	683.44
378.52	662.37
378.72	730.25
378.91	753.65
379.11	641.31
379.31	716.20
379.50	641.31
379.70	655.35
379.89	823.87
380.09	709.18
380.28	741.95
380.48	781.74
380.68	734.93
380.87	695.14
381.07	704.50
381.26	784.08
381.46	767.70
381.65	786.42
381.85	758.33
382.04	734.93
382.24	695.14
382.43	697.48
382.63	767.70
382.83	725.57
383.02	844.93
383.22	770.04
383.41	734.93
383.61	779.40
383.80	896.43
384.00	826.21
384.19	809.83
384.39	720.88
384.58	795.78
384.78	819.19
384.97	889.40
385.17	755.99
385.36	777.06
385.56	821.53
385.75	837.91
385.95	828.55
386.14	858.98
386.34	894.08
386.53	912.81
386.72	772.38
386.92	922.17
387.11	957.28
387.31	854.30
387.50	837.91
387.70	847.27
387.89	833.23
388.09	903.45
388.28	868.34
388.48	940.90
388.67	894.08
388.86	887.06
389.06	866.00
389.25	912.81
389.45	987.71
389.64	903.45
389.84	992.39
390.03	901.11
390.22	997.07
390.42	976.00
390.61	908.13
390.81	926.85
391.00	992.39
391.19	992.39
391.39	889.40
391.58	940.90
391.78	1018.13
391.97	987.71
392.16	943.24
392.36	1081.33
392.55	1006.43
392.75	1032.18
392.94	1025.15
393.13	1020.47
393.33	1015.79
393.52	1027.50
393.71	1097.71
393.91	1144.52
394.10	1060.26
394.29	1055.58
394.49	1008.77
394.68	1022.81
394.88	1032.18
395.07	1109.41
395.26	1083.67
395.46	1095.37
395.65	1102.39
395.84	1064.94
396.04	1254.53
396.23	1123.46
396.42	1170.27
396.62	1156.22
396.81	1174.95
397.00	1153.88
397.19	1137.50
397.39	1174.95
397.58	1170.27
397.77	1205.38
397.97	1196.01
398.16	1261.55
398.35	1242.82
398.55	1139.84
398.74	1306.02
398.93	1179.63
399.12	1350.49
399.32	1224.10
399.51	1249.85
399.70	1324.74
399.90	1315.38
400.09	1355.17
400.28	1263.89
400.47	1280.27
400.67	1282.61
400.86	1373.89
401.05	1303.68
401.24	1336.45
401.44	1380.92
401.63	1394.96
401.82	1369.21
402.01	1373.89
402.21	1299.00
402.40	1320.06
402.59	1444.11
402.78	1453.47
402.97	1483.90
403.17	1383.26
403.36	1516.67
403.55	1446.45
403.74	1441.77
403.93	1514.33
404.13	1514.33
404.32	1509.65
404.51	1579.86
404.70	1633.69
404.89	1610.29
405.09	1671.14
405.28	1673.48
405.47	1579.86
405.66	1652.42
405.85	1746.04
406.05	1661.78
406.24	1596.25
406.43	1633.69
406.62	1699.23
406.81	1732.00
407.00	1675.82
407.20	1729.66
407.39	1715.61
407.58	1790.51
407.77	1834.98
407.96	1872.43
408.15	1832.64
408.34	1689.87
408.54	1851.36
408.73	1811.57
408.92	1842.00
409.11	1849.02
409.30	1809.23
409.49	1844.34
409.68	1820.94
409.87	1914.56
410.07	1947.33
410.26	2010.52
410.45	1966.05
410.64	1909.88
410.83	2115.84
411.02	1989.46
411.21	2127.55
411.40	2078.40
411.59	2223.51
411.78	2069.03
411.98	2111.16
412.17	2052.65
412.36	2136.91
412.55	2232.87
412.74	2118.18
412.93	2277.34
413.12	2216.49
413.31	2375.64
413.50	2387.35
413.69	2260.96
413.88	2387.35
414.07	2380.32
414.26	2321.81
414.45	2413.09
414.64	2483.31
414.83	2377.98
415.02	2429.48
415.22	2464.58
415.41	2595.65
415.60	2483.31
415.79	2480.97
415.98	2499.69
416.17	2693.96
416.36	2712.68
416.55	2569.91
416.74	2693.96
416.93	2640.12
417.12	2775.88
417.31	2633.10
417.50	2686.94
417.69	2815.66
417.88	2754.81
418.07	2846.09
418.26	2799.28
418.45	2850.77
418.64	2984.18
418.83	2932.69
419.02	2899.92
419.21	2960.78
419.39	2899.92
419.58	2869.50
419.77	2970.14
419.96	3012.27
420.15	2986.52
420.34	2930.35
420.53	3009.93
420.72	3084.83
420.91	3143.34
421.10	3061.42
421.29	3075.46
421.48	3159.72
421.67	3063.76
421.86	3059.08
422.05	3091.85
422.24	3117.59
422.43	3192.49
422.61	3180.79
422.80	3133.98
422.99	3227.60
423.18	3150.36
423.37	3279.09
423.56	3162.06
423.75	3241.64
423.94	3145.68
424.13	3063.76
424.32	3101.21
424.50	3201.85
424.69	3234.62
424.88	3363.35
425.07	3255.69
425.26	3283.77
425.45	3206.53
425.64	3218.24
425.83	3133.98
426.01	3407.82
426.20	3251.00
426.39	3274.41
426.58	3211.22
426.77	3255.69
426.96	3311.86
427.15	3358.67
427.33	3438.25
427.52	3356.33
427.71	3438.25
427.90	3316.54
428.09	3463.99
428.28	3599.74
428.46	3531.87
428.65	3438.25
428.84	3634.85
429.03	3655.92
429.22	3557.61
429.40	3545.91
429.59	3590.38
429.78	3482.72
429.97	3471.01
430.16	3576.34
430.34	3765.92
430.53	3772.94
430.72	3751.88
430.91	3648.90
431.10	3641.87
431.28	3730.81
431.47	3805.71
431.66	3868.91
431.85	3772.94
432.03	3810.39
432.22	3906.35
432.41	3939.12
432.60	3885.29
432.79	3852.52
432.97	3932.10
433.16	3953.16
433.35	3913.38
433.54	4035.08
433.72	4067.85
433.91	4025.72
434.10	3981.25
434.28	3946.14
434.47	3976.57
434.66	4035.08
434.85	4175.52
435.03	4145.09
435.22	3918.06
435.41	4203.60
435.59	4084.23
435.78	4163.81
435.97	4161.47
436.16	4081.89
436.34	4133.39
436.53	4311.27
436.72	4280.84
436.90	4222.33
437.09	4362.76
437.28	4257.43
437.46	4351.06
437.65	4231.69
437.84	4407.23
438.02	4308.93
438.21	4423.61
438.40	4395.53
438.58	4496.17
438.77	4564.04
438.96	4461.06
439.14	4788.74
439.33	4823.84
439.52	4592.13
439.70	4624.90
439.89	4755.97
440.08	4699.80
440.26	4795.76
440.45	4819.16
440.63	4767.67
440.82	4978.32
441.01	4968.96
441.19	4868.31
441.38	5060.24
441.57	4875.34
441.75	5043.85
441.94	5088.32
442.12	5160.88
442.31	5238.12
442.50	5076.62
442.68	5069.60
442.87	5179.61
443.05	5186.63
443.24	5135.14
443.43	5146.84
443.61	5109.39
443.80	5341.10
443.98	5174.92
444.17	5132.79
444.35	5305.99
444.54	5343.44
444.73	5371.53
444.91	5390.25
445.10	5366.85
445.28	5310.68
445.47	5275.57
445.65	5343.44
445.84	5273.23
446.02	5392.59
446.21	5294.29
446.39	5355.15
446.58	5385.57
446.77	5434.72
446.95	5338.76
447.14	5458.13
447.32	5479.19
447.51	5469.83
447.69	5549.41
447.88	5561.11
448.06	5561.11
448.25	5469.83
448.43	5694.52
448.62	5533.03
448.80	5547.07
448.99	5577.50
449.17	5427.70
449.36	5472.17
449.54	5537.71
449.73	5706.23
449.91	5720.27
450.10	5699.20
450.28	5919.21
450.46	5731.97
450.65	5781.12
450.83	5738.99
451.02	5933.26
451.20	5982.41
451.39	5802.19
451.57	5844.32
451.76	5863.04
451.94	5933.26
452.13	6076.03
452.31	5900.49
452.49	5844.32
452.68	6059.65
452.86	5893.47
453.05	6022.20
453.23	6087.73
453.42	5998.79
453.60	5947.30
453.78	6153.27
453.97	6033.90
454.15	6104.12
454.34	6012.84
454.52	6125.18
454.70	6244.55
454.89	6263.27
455.07	6232.85
455.26	6399.02
455.44	6312.42
455.62	6553.50
455.81	6459.88
455.99	6298.38
456.17	6408.39
456.36	6246.89
456.54	6534.78
456.73	6567.54
456.91	6860.11
457.09	6700.95
457.28	6967.77
457.46	6633.08
457.64	6595.63
457.83	6483.28
458.01	6700.95
458.19	6832.02
458.38	6754.79
458.56	6752.45
458.74	6909.26
458.93	6836.70
459.11	6815.64
459.29	6808.62
459.48	6813.30
459.66	6867.13
459.84	6775.85
460.03	7066.08
460.21	7033.31
460.39	6998.20
460.57	7045.01
460.76	7084.80
460.94	7066.08
461.12	7042.67
461.31	7054.37
461.49	7126.93
461.67	7112.89
461.85	7309.49
462.04	7131.61
462.22	7368.01
462.40	7272.04
462.59	7204.17
462.77	7279.07
462.95	7253.32
463.13	7339.92
463.32	7375.03
463.50	7391.41
463.68	7449.93
463.86	7527.16
464.05	7370.35
464.23	7351.62
464.41	7421.84
464.59	7440.56
464.78	7836.11
464.96	7637.17
465.14	7543.55
465.32	7407.80
465.50	7772.92
465.69	7714.41
465.87	7730.79
466.05	7679.30
466.23	7721.43
466.41	7609.08
466.60	7772.92
466.78	7744.83
466.96	7726.11
467.14	7693.34
467.32	7875.90
467.51	7978.89
467.69	7625.47
467.87	7765.90
468.05	7967.18
468.23	7819.73
468.41	7925.05
468.60	8077.19
468.78	8091.23
468.96	7936.76
469.14	8154.43
469.32	8168.47
469.50	7922.71
469.69	8231.66
469.87	8379.12
470.05	8297.20
470.23	8124.00
470.41	8234.00
470.59	8255.07
470.77	8224.64
470.95	8327.63
471.14	8601.47
471.32	8332.31
471.50	8606.15
471.68	8493.80
471.86	8554.66
472.04	8659.98
472.22	8837.86
472.40	8578.06
472.58	8667.00
472.77	8755.94
472.95	8688.07
473.13	9240.44
473.31	8858.93
473.49	8997.02
473.67	8777.01
473.85	8985.32
474.03	9200.65
474.21	9273.20
474.39	9238.09
474.57	9130.43
474.75	9439.38
474.93	9071.92
475.12	9439.38
475.30	9631.30
475.48	9530.66
475.66	9439.38
475.84	9511.94
476.02	9703.86
476.20	9551.73
476.38	9921.53
476.56	9942.60
476.74	9968.34
476.92	9888.76
477.10	9879.40
477.28	9994.09
477.46	10050.26
477.64	10469.22
477.82	10413.04
478.00	10644.76
478.18	10471.56
478.36	10504.32
478.54	10586.24
478.72	10602.63
478.90	10832.00
479.08	10677.52
479.26	10911.58
479.44	11077.76
479.62	11110.52
479.80	11169.04
479.98	11269.68
480.16	11705.02
480.34	11428.84
480.52	11566.93
480.70	11590.33
480.88	11655.87
481.06	11382.03
481.24	11751.83
481.41	12135.68
481.59	12133.34
481.77	12074.82
481.95	12198.87
482.13	12205.89
482.31	12416.54
482.49	12732.51
482.67	12556.97
482.85	13034.44
483.03	12709.11
483.21	12699.75
483.39	13228.71
483.57	12891.67
483.74	12891.67
483.92	13123.38
484.10	13149.13
484.28	13561.06
484.46	13839.59
484.64	14101.73
484.82	13635.96
485.00	13844.27
485.18	14078.32
485.35	14284.29
485.53	14061.94
485.71	14303.01
485.89	14314.72
486.07	14359.19
486.25	14567.49
486.43	14707.93
486.61	14761.76
486.78	14927.94
486.96	15061.35
487.14	15105.82
487.32	15166.67
487.50	15461.58
487.68	15393.70
487.85	15960.11
488.03	15917.98
488.21	15770.53
488.39	16027.99
488.57	16140.33
488.75	16339.28
488.92	16304.17
489.10	16589.72
489.28	16566.31
489.46	16800.37
489.64	16858.88
489.81	17104.64
489.99	17064.85
490.17	17224.00
490.35	17516.57
490.53	17514.23
490.70	17673.39
490.88	17383.16
491.06	17696.79
491.24	17769.35
491.41	17774.03
491.59	17996.38
491.77	18167.24
491.95	18625.98
492.13	18672.79
492.30	18785.14
492.48	18647.05
492.66	18438.74
492.84	18558.11
493.01	18972.38
493.19	19042.60
493.37	19286.01
493.54	18864.72
493.72	19637.09
493.90	19569.22
494.08	19583.26
494.25	19761.14
494.43	19672.20
494.61	20107.54
494.79	20037.33
494.96	20425.86
495.14	20411.81
495.32	20311.17
495.49	20613.10
495.67	20662.25
495.85	20467.98
496.02	20725.44
496.20	20882.26
496.38	20994.61
496.55	20966.52
496.73	21603.14
496.91	21579.74
497.09	21118.65
497.26	21425.26
497.44	21610.17
497.62	21507.18
497.79	22267.86
497.97	21961.25
498.14	22434.03
498.32	22293.60
498.50	22506.59
498.67	22412.97
498.85	22672.77
499.03	22700.86
499.20	22780.43
499.38	22780.43
499.56	23068.32
499.73	22794.48
499.91	22789.80
500.08	23250.88
500.26	23236.84
500.44	23367.91
500.61	23564.51
500.79	23325.78
500.97	23616.01
501.14	23697.92
501.32	23700.26
501.49	23686.22
501.67	24173.05
501.84	24318.17
502.02	24261.99
502.20	23995.17
502.37	24521.79
502.55	24051.34
502.72	24503.07
502.90	24514.77
503.07	24524.13
503.25	24533.50
503.43	24512.43
503.60	24697.33
503.78	24994.58
503.95	24943.09
504.13	24975.86
504.30	25378.43
504.48	25111.61
504.65	25242.68
504.83	25612.48
505.01	25429.92
505.18	25696.74
505.36	25706.10
505.53	25769.30
505.71	26120.38
505.88	26127.40
506.06	25790.36
506.23	25984.63
506.41	26176.55
506.58	26153.15
506.76	26111.02
506.93	26272.51
507.11	26192.94
507.28	26448.05
507.46	26827.22
507.63	26569.76
507.81	27009.78
507.98	26541.68
508.16	26625.93
508.33	26897.44
508.50	27101.06
508.68	27012.12
508.85	27332.78
509.03	27234.47
509.20	27103.40
509.38	27618.32
509.55	27414.69
509.73	27365.54
509.90	27866.42
510.08	28088.77
510.25	27627.68
510.42	27697.90
510.60	27871.10
510.77	28210.48
510.95	28456.23
511.12	28081.75
511.30	27974.08
511.47	28151.96
511.64	28362.61
511.82	28697.31
511.99	28306.44
512.17	28905.62
512.34	28287.71
512.51	29144.35
512.69	29057.75
512.86	28914.98
513.04	29633.52
513.21	29062.43
513.38	29268.40
513.56	29429.90
513.73	29422.87
513.90	29443.94
514.08	29336.27
514.25	29736.51
514.43	29591.39
514.60	29797.36
514.77	29778.64
514.95	30228.02
515.12	29780.98
515.29	29954.18
515.47	30253.76
515.64	30272.49
515.81	30061.84
515.99	30588.46
516.16	30852.94
516.33	30455.05
516.51	30639.95
516.68	30185.89
516.85	30373.13
517.03	30604.84
517.20	30684.42
517.37	30892.73
517.54	31098.70
517.72	30965.29
517.89	30916.14
518.06	31096.36
518.24	31035.50
518.41	31140.83
518.58	30878.69
518.75	31192.32
518.93	31541.06
519.10	31299.98
519.27	31793.84
519.45	31896.82
519.62	31850.01
519.79	31920.23
519.96	31842.99
520.14	31791.50
520.31	31899.16
520.48	32135.56
520.65	31924.91
520.83	32587.28
521.00	32275.99
521.17	32369.61
521.34	32484.30
521.52	32540.47
521.69	32418.76
521.86	32708.99
522.03	32790.91
522.20	33067.09
522.38	33153.69
522.55	33226.24
522.72	32910.27
522.89	33031.98
523.07	33347.95
523.24	33249.65
523.41	33280.08
523.58	33144.33
523.75	33741.16
523.92	33663.93
524.10	33614.77
524.27	33724.78
524.44	33806.70
524.61	33853.51
524.78	33385.40
524.96	33895.64
525.13	33797.34
525.30	34080.54
525.47	34422.26
525.64	33783.29
525.81	34202.25
525.98	34160.12
526.16	34412.90
526.33	34099.26
526.50	34366.09
526.67	34555.67
526.84	34700.78
527.01	34293.53
527.18	34216.29
527.36	34778.02
527.53	34895.05
527.70	34951.22
527.87	35211.02
528.04	34852.92
528.21	34485.45
528.38	34822.49
528.55	35049.52
528.72	34925.47
528.89	35283.58
529.07	35124.42
529.24	35101.01
529.41	35676.79
529.58	35269.53
529.75	35438.05
529.92	35274.21
530.09	35414.65
530.26	35468.48
530.43	35367.84
530.60	35653.38
530.77	35721.26
530.94	35768.07
531.11	35531.67
531.28	35859.35
531.46	36243.20
531.63	36119.15
531.80	36084.04
531.97	36327.45
532.14	36568.53
532.31	36254.90
532.48	36556.83
532.65	36388.31
532.82	36264.26
532.99	36381.29
533.16	36493.63
533.33	36488.95
533.50	36613.00
533.67	36622.36
533.84	36629.38
534.01	36531.08
534.18	36804.92
534.35	37111.53
534.52	37163.03
534.69	37139.62
534.86	37256.65
535.03	37242.60
535.20	37354.95
535.37	37141.96
535.54	37422.83
535.71	37326.86
535.88	37392.40
536.05	37336.23
536.22	37617.09
536.38	37446.23
536.55	37450.91
536.72	37401.76
536.89	37785.61
537.06	37453.25
537.23	37158.34
537.40	37509.43
537.57	37680.28
537.74	37357.29
537.91	38064.13
538.08	37691.99
538.25	37970.51
538.42	37443.89
538.59	38204.56
538.75	37865.19
538.92	38132.01
539.09	38450.32
539.26	38249.03
539.43	37867.53
539.60	38040.73
539.77	38808.42
539.94	38485.43
540.11	38326.27
540.28	38499.47
540.44	38574.37
540.61	38506.49
540.78	38136.69
540.95	38651.61
541.12	38309.89
541.29	38457.34
541.46	38796.72
541.62	38672.67
541.79	38691.40
541.96	38672.67
542.13	38431.60
542.30	38848.21
542.47	38960.56
542.63	38492.45
542.80	39262.49
542.97	39505.90
543.14	39564.42
543.31	39395.90
543.48	39248.44
543.64	39798.47
543.81	39718.89
543.98	39716.55
544.15	39765.70
544.32	39365.47
544.48	40107.42
544.65	39695.49
544.82	39814.85
544.99	39676.76
545.16	39636.97
545.32	40009.12
545.49	40126.14
545.66	40587.23
545.83	40182.32
546.00	40517.01
546.16	40376.58
546.33	39803.15
546.50	40086.36
546.67	40453.82
546.83	39737.62
547.00	40046.57
547.17	39847.62
547.34	40165.93
547.50	40823.62
547.67	40711.28
547.84	40706.60
548.00	40713.62
548.17	40992.14
548.34	40779.15
548.51	40793.20
548.67	40783.83
548.84	40863.41
549.01	40884.48
549.18	40938.31
549.34	40823.62
549.51	41530.47
549.68	40954.69
549.84	41111.51
550.01	40914.90
550.18	40910.22
550.34	41202.79
550.51	41153.64
550.68	41020.23
550.84	40790.86
551.01	41525.78
551.18	40931.29
551.34	41205.13
551.51	41081.08
551.68	41378.33
551.84	41427.48
552.01	41298.75
552.18	41584.30
552.34	41308.11
552.51	41420.46
552.68	41251.94
552.84	41394.71
553.01	41591.32
553.18	41656.85
553.34	41727.07
553.51	41727.07
553.67	41708.35
553.84	42246.67
554.01	41909.63
554.17	42234.97
554.34	42019.64
554.51	42288.80
554.67	42361.36
554.84	42469.02
555.00	42316.89
555.17	42220.92
555.33	42251.35
555.50	42096.88
555.67	42342.63
555.83	42237.31
556.00	42422.21
556.16	42754.57
556.33	42361.36
556.50	42300.50
556.66	42178.79
556.83	42426.89
556.99	42398.80
557.16	42869.25
557.32	43159.48
557.49	42981.60
557.65	42291.14
557.82	42649.24
557.98	42333.27
558.15	42649.24
558.32	42988.62
558.48	42361.36
558.65	42864.57
558.81	42995.64
558.98	42363.70
559.14	43154.80
559.31	42574.34
559.47	42478.38
559.64	42827.12
559.80	43166.50
559.97	43042.45
560.13	43009.68
560.30	42909.04
560.46	43405.23
560.63	43189.91
560.79	43079.90
560.96	43342.04
561.12	43328.00
561.29	43290.55
561.45	43124.37
561.61	42796.70
561.78	43309.27
561.94	43023.73
562.11	42644.56
562.27	43353.74
562.44	43620.56
562.60	43545.67
562.77	43187.56
562.93	43412.26
563.10	43473.11
563.26	43196.93
563.42	43798.44
563.59	43328.00
563.75	43583.12
563.92	43433.32
564.08	43585.46
564.24	44009.09
564.41	43178.20
564.57	43299.91
564.74	43489.49
564.90	43592.48
565.07	43356.08
565.23	43552.69
565.39	43555.03
565.56	43487.15
565.72	43449.70
565.88	43622.90
566.05	43278.85
566.21	43608.86
566.38	43491.83
566.54	43548.01
566.70	43606.52
566.87	43288.21
567.03	43510.56
567.19	44210.38
567.36	43662.69
567.52	43915.47
567.68	44292.30
567.85	43854.62
568.01	44421.03
568.17	44004.41
568.34	44119.10
568.50	43711.84
568.66	44149.53
568.83	43798.44
568.99	43686.10
569.15	43784.40
569.32	44065.27
569.48	44107.40
569.64	44439.75
569.81	44465.50
569.97	44320.38
570.13	44179.95
570.30	44378.90
570.46	44072.29
570.62	43838.23
570.78	44261.87
570.95	44203.36
571.11	44231.44
571.27	43899.09
571.43	44158.89
571.60	44320.38
571.76	43826.53
571.92	44186.97
572.09	44472.52
572.25	44313.36
572.41	44219.74
572.57	44252.51
572.74	45083.40
572.90	44055.90
573.06	44687.85
573.22	44507.63
573.38	44596.57
573.55	44449.11
573.71	44451.45
573.87	44325.07
574.03	44334.43
574.20	44608.27
574.36	44334.43
574.52	44348.47
574.68	44027.82
574.84	44509.97
575.01	44561.46
575.17	44800.19
575.33	44327.41
575.49	44151.87
575.65	44481.88
575.82	44414.01
575.98	44453.79
576.14	44596.57
576.30	44601.25
576.46	44404.64
576.62	44210.38
576.79	44669.12
576.95	44107.40
577.11	44325.07
577.27	44306.34
577.43	44481.88
577.59	44615.29
577.75	44189.31
577.92	43999.73
578.08	44912.54
578.24	44456.14
578.40	44854.03
578.56	44463.16
578.72	44645.72
578.88	44795.51
579.04	44769.77
579.21	44594.23
579.37	44507.63
579.53	44631.68
579.69	44694.87
579.85	44800.19
580.01	44397.62
580.17	44982.76
580.33	44762.75
580.49	44854.03
580.65	44245.49
580.82	44748.70
580.98	44378.90
581.14	44126.12
581.30	44809.56
581.46	44278.25
581.62	44814.24
581.78	44343.79
581.94	44694.87
582.10	44472.52
582.26	44776.79
582.42	44945.31
582.58	44594.23
582.74	44809.56
582.90	44776.79
583.06	44718.28
583.22	44711.25
583.38	44903.18
583.54	44568.48
583.70	44727.64
583.86	44891.48
584.02	44584.86
584.18	45031.91
584.34	44959.35
584.50	45144.25
584.66	44828.28
584.82	44842.32
584.98	45263.62
585.14	44807.22
585.30	44638.70
585.46	45106.80
585.62	44414.01
585.78	44776.79
585.94	44711.25
586.10	44753.38
586.26	44353.15
586.42	44744.02
586.58	44987.44
586.74	44669.12
586.90	44811.90
587.06	45125.53
587.22	45069.36
587.38	44893.82
587.54	45109.14
587.70	45127.87
587.86	44748.70
588.02	44444.43
588.18	45151.27
588.34	44917.22
588.49	44985.10
588.65	44755.72
588.81	44849.35
588.97	45139.57
589.13	44966.37
589.29	44533.37
589.45	45130.21
589.61	45312.77
589.77	45301.07
589.93	45013.18
590.08	45202.77
590.24	45574.91
590.40	45455.54
590.56	45425.12
590.72	45045.95
590.88	45139.57
591.04	44673.81
591.20	45509.38
591.35	45275.32
591.51	45375.97
591.67	45518.74
591.83	45422.78
591.99	45308.09
592.15	45151.27
592.31	45485.97
592.46	45485.97
592.62	44959.35
592.78	45535.12
592.94	45404.05
593.10	45638.11
593.26	45635.77
593.41	45441.50
593.57	45195.74
593.73	45413.41
593.89	45865.14
594.05	45502.35
594.20	45361.92
594.36	45394.69
594.52	45698.96
594.68	45696.62
594.84	45223.83
594.99	46085.15
595.15	45027.23
595.31	45109.14
595.47	45654.49
595.62	45202.77
595.78	45354.90
595.94	45811.31
596.10	45359.58
596.25	45233.19
596.41	45441.50
596.57	45717.68
596.73	45860.46
596.88	45801.94
597.04	45500.01
597.20	45570.23
597.36	45593.64
597.51	45450.86
597.67	45411.07
597.83	45570.23
597.99	45591.30
598.14	45095.10
598.30	45827.69
598.46	45422.78
598.61	45764.49
598.77	45380.65
598.93	45640.45
599.09	45975.14
599.24	45804.28
599.40	45921.31
599.56	45689.60
599.71	45698.96
599.87	45825.35
600.03	45661.51
600.18	45888.54
600.34	45521.08
600.50	45724.71
600.65	45532.78
600.81	46232.60
600.97	46211.54
601.12	45406.39
601.28	45755.13
601.44	45684.92
601.59	45560.87
601.75	45509.38
601.91	46176.43
602.06	45787.90
602.22	45862.80
602.37	45757.47
602.53	45801.94
602.69	46061.74
602.84	45724.71
603.00	45687.26
603.16	45797.26
603.31	45504.70
603.47	45925.99
603.62	45553.85
603.78	46033.66
603.94	45745.77
604.09	46061.74
604.25	45710.66
604.40	45841.73
604.56	46003.23
604.71	46078.13
604.87	45401.71
605.03	45581.93
605.18	45558.53
605.34	45813.65
605.49	45544.48
605.65	45935.35
605.80	45818.33
605.96	45682.58
606.12	45708.32
606.27	45792.58
606.43	45464.91
606.58	45696.62
606.74	45324.47
606.89	45338.52
607.05	46064.08
607.20	45478.95
607.36	45642.79
607.51	45177.02
607.67	45741.09
607.82	45298.73
607.98	45815.99
608.13	45687.26
608.29	45476.61
608.44	45371.28
608.60	45158.30
608.75	45305.75
608.91	45780.88
609.06	45184.04
609.22	45455.54
609.37	45717.68
609.53	45305.75
609.68	45804.28
609.84	45216.81
609.99	45837.05
610.15	45404.05
610.30	45654.49
610.46	45717.68
610.61	45193.40
610.76	45631.08
610.92	44982.76
611.07	45397.03
611.23	44872.75
611.38	45521.08
611.54	45390.01
611.69	45427.46
611.84	45170.00
612.00	44849.35
612.15	45296.39
612.31	45050.63
612.46	44844.66
612.62	45170.00
612.77	44982.76
612.92	45462.57
613.08	45134.89
613.23	45319.79
613.39	45492.99
613.54	44844.66
613.69	45572.57
613.85	44828.28
614.00	45244.90
614.15	45036.59
614.31	44788.49
614.46	44926.58
614.62	44828.28
614.77	45071.70
614.92	45027.23
615.08	44781.47
615.23	45277.66
615.38	44889.13
615.54	44933.60
615.69	44954.67
615.84	44889.13
616.00	45308.09
616.15	45013.18
616.30	45139.57
616.46	44753.38
616.61	44453.79
616.76	44835.30
616.92	44645.72
617.07	45418.10
617.22	44994.46
617.37	44282.94
617.53	44626.99
617.68	44652.74
617.83	44575.50
617.99	44924.24
618.14	45062.33
618.29	44566.14
618.45	44584.86
618.60	44825.94
618.75	44168.25
618.90	43915.47
619.06	44320.38
619.21	44362.51
619.36	44301.66
619.51	44154.21
619.67	44196.34
619.82	44404.64
619.97	44516.99
620.12	44502.95
620.28	44406.98
620.43	44641.04
620.58	44009.09
620.73	44713.59
620.89	44446.77
621.04	44460.82
621.19	44755.72
621.34	44179.95
621.49	44123.78
621.65	44250.17
621.80	44552.10
621.95	44240.81
622.10	44524.01
622.25	44069.95
622.41	43971.64
622.56	43842.92
622.71	44397.62
622.86	43990.37
623.01	43992.71
623.16	43751.63
623.32	44350.81
623.47	43849.94
623.62	43831.21
623.77	43849.94
623.92	44179.95
624.07	43969.30
624.23	43796.10
624.38	44004.41
624.53	43887.39
624.68	43508.22
624.83	43742.27
624.98	43658.01
625.13	43491.83
625.29	43349.06
625.44	43442.68
625.59	43594.82
625.74	43718.87
625.89	43562.05
626.04	43220.33
626.19	43416.94
626.34	43601.84
626.49	43423.96
626.65	43100.97
626.80	43548.01
626.95	42913.72
627.10	43164.16
627.25	43508.22
627.40	43573.75
627.55	43323.32
627.70	43533.96
627.85	43000.32
628.00	43363.11
628.15	43690.78
628.30	43051.81
628.45	43037.77
628.60	42564.98
628.76	42604.77
628.91	42848.19
629.06	42815.42
629.21	43042.45
629.36	42944.15
629.51	42677.33
629.66	43077.56
629.81	42658.60
629.96	42871.59
630.11	42782.65
630.26	43033.09
630.41	42997.98
630.56	42836.48
630.71	43215.65
630.86	42541.58
631.01	42885.64
631.16	42625.84
631.31	42506.47
631.46	42387.10
631.61	42777.97
631.76	42726.48
631.91	42941.81
632.06	42742.86
632.21	42885.64
632.36	42555.62
632.51	42443.27
632.66	42724.14
632.81	42057.09
632.96	42574.34
633.10	42462.00
633.25	42700.73
633.40	42307.52
633.55	42443.27
633.70	42579.03
633.85	41904.95
634.00	41860.48
634.15	41818.35
634.30	42412.85
634.45	42071.13
634.60	41886.23
634.75	42302.84
634.90	42087.51
635.05	41989.21
635.19	42302.84
635.34	42085.17
635.49	42075.81
635.64	42450.30
635.79	42307.52
635.94	42024.32
636.09	42543.92
636.24	42047.72
636.39	41689.62
636.53	42010.28
636.68	41689.62
636.83	42005.59
636.98	41500.04
637.13	41460.25
637.28	41771.54
637.43	41989.21
637.57	41645.15
637.72	41596.00
637.87	41303.43
638.02	41806.65
638.17	41031.93
638.32	41542.17
638.46	41483.66
638.61	41109.17
638.76	41205.13
638.91	41074.06
639.06	41200.45
639.20	41106.83
639.35	41237.90
639.50	41265.99
639.65	41759.84
639.80	41710.69
639.94	41298.75
640.09	41155.98
640.24	40896.18
640.39	41209.81
640.54	40804.90
640.68	40828.30
640.83	41390.03
640.98	41368.97
641.13	41146.62
641.27	41230.88
641.42	41200.45
641.57	41256.62
641.72	40809.58
641.86	40996.82
642.01	40779.15
642.16	41139.60
642.31	40383.60
642.45	41071.72
642.60	40547.44
642.75	40933.63
642.90	41102.15
643.04	40512.33
643.19	40617.66
643.34	40629.36
643.48	40030.18
643.63	40753.41
643.78	40872.78
643.93	40790.86
644.07	40575.53
644.22	40811.92
644.37	40549.78
644.51	40973.42
644.66	40376.58
644.81	40772.13
644.95	40816.60
645.10	40395.31
645.25	40570.85
645.39	40233.81
645.54	39695.49
645.69	40170.61
645.83	39910.82
645.98	39936.56
646.13	40247.85
646.27	40044.23
646.42	40133.17
646.57	40521.69
646.71	40463.18
646.86	40196.36
647.00	40360.20
647.15	40187.00
647.30	39927.20
647.44	39927.20
647.59	40086.36
647.74	39765.70
647.88	40364.88
648.03	40444.46
648.17	40154.23
648.32	40304.02
648.47	40154.23
648.61	39929.54
648.76	39789.11
648.90	39395.90
649.05	39377.17
649.20	39770.38
649.34	39718.89
649.49	40011.46
649.63	39571.44
649.78	39632.29
649.92	39992.73
650.07	40327.43
650.21	39749.32
650.36	40156.57
650.51	39564.42
650.65	39791.45
650.80	40044.23
650.94	39952.94
651.09	39618.25
651.23	39311.64
651.38	39461.43
651.52	39030.77
651.67	39508.24
651.81	39737.62
651.96	39695.49
652.10	39332.70
652.25	39321.00
652.39	38944.17
652.54	39159.50
652.68	38770.97
652.83	39138.44
652.97	39597.18
653.12	38749.91
653.26	39248.44
653.41	39117.37
653.55	39316.32
653.70	39337.38
653.84	39402.92
653.99	39063.54
654.13	39232.06
654.27	38529.90
654.42	38981.62
654.56	38838.85
654.71	39351.43
654.85	39108.01
655.00	38939.49
655.14	39044.82
655.29	39477.82
655.43	39126.74
655.57	39203.97
655.72	38382.45
655.86	38293.50
656.01	38431.60
656.15	38597.77
656.30	38721.82
656.44	38646.93
656.58	38522.88
656.73	38651.61
656.87	38234.99
657.01	38117.96
657.16	38691.40
657.30	38801.40
657.45	38499.47
657.59	38590.75
657.73	38094.56
657.88	38597.77
658.02	38384.79
658.16	38581.39
658.31	38532.24
658.45	38555.64
658.60	38176.48
658.74	38565.01
658.88	38302.87
659.03	37729.44
659.17	37907.32
659.31	37670.92
659.46	38178.82
659.60	37708.37
659.74	37598.37
659.89	37699.01
660.03	37216.86
660.17	37584.32
660.32	37675.60
660.46	37706.03
660.60	37303.46
660.74	37713.05
660.89	37975.19
661.03	37151.32
661.17	37240.26
661.32	37340.91
661.46	37340.91
661.60	37509.43
661.74	37078.77
661.89	37202.82
662.03	37408.78
662.17	36945.36
662.31	36730.03
662.46	37088.13
662.60	36797.90
662.74	36680.88
662.88	36563.85
663.03	36488.95
663.17	36402.35
663.31	36538.10
663.45	36797.90
663.60	37104.51
663.74	36945.36
663.88	36444.48
664.02	36584.91
664.17	36790.88
664.31	36680.88
664.45	36107.44
664.59	36287.67
664.73	35782.11
664.88	35676.79
665.02	35875.73
665.16	35562.10
665.30	35824.24
665.44	36102.76
665.59	35597.21
665.73	35655.72
665.87	35323.36
666.01	35803.17
666.15	35384.22
666.29	35505.93
666.44	35639.34
666.58	35648.70
666.72	35580.82
666.86	35072.93
667.00	35311.66
667.14	35049.52
667.28	35159.53
667.43	35157.19
667.57	35342.09
667.71	35072.93
667.85	35412.31
667.99	35318.68
668.13	35126.76
668.27	34967.60
668.41	34623.54
668.56	34780.36
668.70	34242.04
668.84	34445.66
668.98	34471.41
669.12	34202.25
669.26	34366.09
669.40	34726.53
669.54	34202.25
669.68	34223.31
669.82	34087.56
669.96	33816.06
670.10	33514.13
670.25	34075.86
670.39	34178.84
670.53	33961.17
670.67	34075.86
670.81	34015.01
670.95	33900.32
671.09	33745.84
671.23	33762.23
671.37	33755.21
671.51	33200.50
671.65	33287.10
671.79	33352.63
671.93	33497.75
672.07	33546.90
672.21	33097.52
672.35	33266.03
672.49	33216.88
672.63	33205.18
672.77	33031.98
672.91	32858.78
673.05	32465.57
673.19	32411.74
673.33	32339.18
673.47	32627.07
673.61	32362.59
673.75	32378.97
673.89	32364.93
674.03	32421.10
674.17	32182.37
674.31	31920.23
674.45	32011.51
674.59	32058.32
674.73	31955.33
674.87	31887.46
675.01	31508.29
675.15	31419.35
675.29	31342.11
675.43	31723.62
675.56	31639.36
675.70	31552.76
675.84	31241.47
675.98	30529.95
676.12	31550.42
676.26	30998.06
676.40	30944.22
676.54	30518.25
676.68	30609.53
676.82	30185.89
676.96	30579.10
677.10	30829.54
677.23	30368.45
677.37	30515.90
677.51	30242.06
677.65	29832.47
677.79	30024.39
677.93	29886.30
678.07	29771.61
678.21	29771.61
678.34	29378.40
678.48	29755.23
678.62	29427.56
678.76	29256.70
678.90	29235.63
679.04	28975.83
679.18	29219.25
679.31	28858.81
679.45	28556.88
679.59	28783.91
679.73	28786.25
679.87	28432.83
680.00	28353.25
680.14	28587.30
680.28	28854.12
680.42	28486.66
680.56	28184.73
680.70	27985.79
680.83	27754.07
680.97	27931.95
681.11	27967.06
681.25	27363.20
681.39	27861.74
681.52	27374.91
681.66	27140.85
681.80	26993.40
681.94	26752.32
682.07	27080.00
682.21	26885.73
682.35	26541.68
682.49	26946.59
682.62	26719.56
682.76	26981.70
682.90	26675.09
683.04	26656.36
683.17	26183.57
683.31	26403.58
683.45	26295.92
683.59	25888.67
683.72	25841.85
683.86	26045.48
684.00	25706.10
684.13	25621.84
684.27	25553.97
684.41	25479.07
684.55	25612.48
684.68	25682.70
684.82	25528.22
684.96	25181.82
685.09	25132.67
685.23	25305.87
685.37	25357.36
685.50	25109.27
685.64	25104.59
685.78	24566.26
685.91	24559.24
686.05	24032.62
686.19	24166.03
686.32	24334.55
686.46	23850.06
686.60	23978.79
686.73	23770.48
686.87	23817.29
687.01	24137.94
687.14	23777.50
687.28	24088.79
687.42	23527.06
687.55	23821.97
687.69	23225.14
687.82	22955.97
687.96	23007.47
688.10	23220.45
688.23	23236.84
688.37	23475.57
688.50	23304.71
688.64	22902.14
688.78	22789.80
688.91	22927.89
689.05	23283.65
689.18	22537.02
689.32	22008.06
689.46	22265.52
689.59	22157.85
689.73	22274.88
689.86	22204.66
690.00	22244.45
690.13	22043.17
690.27	21776.34
690.41	21701.45
690.54	21738.90
690.68	21940.18
690.81	21851.24
690.95	21734.21
691.08	21216.96
691.22	21015.67
691.35	21172.49
691.49	21160.78
691.62	20870.56
691.76	20891.62
691.89	20666.93
692.03	20360.32
692.16	20814.38
692.30	20603.74
692.43	20372.02
692.57	20226.91
692.70	20250.32
692.84	19976.47
692.97	19683.91
693.11	20053.71
693.24	19679.22
693.38	19648.80
693.51	19445.17
693.65	19597.31
693.78	19407.72
693.92	19477.94
694.05	19550.49
694.19	19321.12
694.32	19562.20
694.45	19517.73
694.59	19686.25
694.72	19632.41
694.86	18925.57
694.99	18960.68
695.13	18562.79
695.26	18480.87
695.39	18368.52
695.53	18471.51
695.66	18670.45
695.80	18464.49
695.93	18272.56
696.07	18057.23
696.20	17886.37
696.33	17888.71
696.47	17710.83
696.60	17687.43
696.73	17919.14
696.87	17912.12
697.00	17900.42
697.14	17301.24
697.27	17547.00
697.40	17317.62
697.54	17301.24
697.67	17139.74
697.80	17345.71
697.94	17130.38
698.07	17088.25
698.21	16940.80
698.34	16945.48
698.47	16723.13
698.61	16343.96
698.74	16517.16
698.87	16372.05
699.01	16271.40
699.14	16329.92
699.27	16390.77
699.40	16006.92
699.54	15829.04
699.67	16126.29
699.80	16290.13
699.94	15857.13
700.07	16032.67
700.20	15779.89
700.34	15382.00
700.47	15379.66
700.60	15597.33
700.73	15644.14
700.87	15382.00
701.00	15194.76
701.13	15171.35
701.26	15051.99
701.40	15269.66
701.53	14796.87
701.66	14869.42
701.79	14953.68
701.93	14778.14
702.06	14534.73
702.19	14511.32
702.32	14450.47
702.46	14766.44
702.59	14696.22
702.72	14787.50
702.85	14476.21
702.99	14443.45
703.12	14108.75
703.25	14122.79
703.38	13909.80
703.51	14143.86
703.65	13987.04
703.78	13851.29
703.91	13624.26
704.04	13591.49
704.17	13582.13
704.31	13362.12
704.44	13509.57
704.57	13467.44
704.70	13565.74
704.83	13186.58
704.96	13102.32
705.10	12861.24
705.23	13144.45
>>>>>End Processed Spectral Data<<<<<
