SpectraSuite Data File
++++++++++++++++++++++++++++++++++++
Date: Fri Oct 25 10:48:24 EDT 2013
User: price-jones
Dark Spectrum Present: No
Reference Spectrum Present: No
Number of Sampled Component Spectra: 1
Spectrometers: USB2+H05261
Integration Time (usec): 100000 (USB2+H05261)
Spectra Averaged: 1 (USB2+H05261)
Boxcar Smoothing: 0 (USB2+H05261)
Correct for Electrical Dark: No (USB2+H05261)
Strobe/Lamp Enabled: No (USB2+H05261)
Correct for Detector Non-linearity: No (USB2+H05261)
Correct for Stray Light: No (USB2+H05261)
Number of Pixels in Processed Spectrum: 2048
>>>>>Begin Processed Spectral Data<<<<<
365.73	124.05
365.92	124.05
366.12	124.05
366.32	0.00
366.52	16.38
366.72	110.01
366.91	70.22
367.11	79.58
367.31	46.81
367.51	39.79
367.70	42.13
367.90	67.88
368.10	53.83
368.30	16.38
368.49	23.41
368.69	105.32
368.89	119.37
369.09	102.98
369.28	126.39
369.48	65.54
369.68	77.24
369.87	72.56
370.07	159.16
370.27	184.90
370.47	212.99
370.66	337.04
370.86	421.30
371.06	479.81
371.25	524.28
371.45	472.79
371.65	489.17
371.84	491.51
372.04	514.92
372.24	498.53
372.44	493.85
372.63	615.56
372.83	531.30
373.03	482.15
373.22	498.53
373.42	550.03
373.62	454.06
373.81	554.71
374.01	589.82
374.21	538.32
374.40	505.56
374.60	641.31
374.79	573.43
374.99	606.20
375.19	592.16
375.38	543.00
375.58	519.60
375.78	596.84
375.97	580.45
376.17	615.56
376.37	664.71
376.56	671.73
376.76	674.07
376.95	664.71
377.15	648.33
377.35	638.97
377.54	746.63
377.74	634.29
377.93	613.22
378.13	676.41
378.33	629.60
378.52	645.99
378.72	674.07
378.91	683.44
379.11	683.44
379.31	664.71
379.50	634.29
379.70	634.29
379.89	763.01
380.09	655.35
380.28	643.65
380.48	702.16
380.68	657.69
380.87	692.80
381.07	667.05
381.26	713.86
381.46	660.03
381.65	697.48
381.85	727.91
382.04	725.57
382.24	711.52
382.43	697.48
382.63	718.54
382.83	692.80
383.02	725.57
383.22	683.44
383.41	737.27
383.61	786.42
383.80	734.93
384.00	767.70
384.19	709.18
384.39	702.16
384.58	723.23
384.78	774.72
384.97	873.02
385.17	725.57
385.36	737.27
385.56	866.00
385.75	901.11
385.95	809.83
386.14	828.55
386.34	880.04
386.53	854.30
386.72	772.38
386.92	884.72
387.11	896.43
387.31	866.00
387.50	802.80
387.70	901.11
387.89	889.40
388.09	938.55
388.28	816.85
388.48	924.51
388.67	1006.43
388.86	842.59
389.06	945.58
389.25	866.00
389.45	933.87
389.64	976.00
389.84	992.39
390.03	940.90
390.22	961.96
390.42	1008.77
390.61	983.02
390.81	1034.52
391.00	1083.67
391.19	1104.73
391.39	1039.20
391.58	1128.14
391.78	1048.56
391.97	1057.92
392.16	1001.75
392.36	1086.01
392.55	1076.65
392.75	1067.28
392.94	1062.60
393.13	973.66
393.33	1034.52
393.52	1071.97
393.71	1039.20
393.91	1060.26
394.10	1069.62
394.29	1095.37
394.49	1158.57
394.68	1153.88
394.88	1125.80
395.07	1177.29
395.26	1186.65
395.46	1163.25
395.65	1268.57
395.84	1165.59
396.04	1238.14
396.23	1174.95
396.42	1095.37
396.62	1083.67
396.81	1259.21
397.00	1142.18
397.19	1132.82
397.39	1404.32
397.58	1348.15
397.77	1357.51
397.97	1453.47
398.16	1418.36
398.35	1451.13
398.55	1341.13
398.74	1406.66
398.93	1486.24
399.12	1490.92
399.32	1483.90
399.51	1472.20
399.70	1572.84
399.90	1441.77
400.09	1401.98
400.28	1610.29
400.47	1586.88
400.67	1598.59
400.86	1598.59
401.05	1598.59
401.24	1607.95
401.44	1675.82
401.63	1617.31
401.82	1762.42
402.01	1654.76
402.21	1643.06
402.40	1612.63
402.59	1582.20
402.78	1734.34
402.97	1638.38
403.17	1771.79
403.36	1827.96
403.55	1720.29
403.74	1774.13
403.93	1720.29
404.13	1830.30
404.32	1839.66
404.51	1858.39
404.70	1837.32
404.89	1781.15
405.09	1914.56
405.28	1886.47
405.47	1818.60
405.66	1952.01
405.85	1870.09
406.05	1888.81
406.24	1930.94
406.43	1921.58
406.62	2036.27
406.81	2010.52
407.00	2054.99
407.20	1893.49
407.39	1989.46
407.58	2062.01
407.77	2111.16
407.96	2146.27
408.15	2141.59
408.34	2125.21
408.54	2155.63
408.73	2188.40
408.92	2157.97
409.11	2162.66
409.30	2211.81
409.49	2221.17
409.68	2237.55
409.87	2195.42
410.07	2242.23
410.26	2314.79
410.45	2331.17
410.64	2340.54
410.83	2242.23
411.02	2424.80
411.21	2534.80
411.40	2307.77
411.59	2450.54
411.78	2438.84
411.98	2478.63
412.17	2530.12
412.36	2551.18
412.55	2602.68
412.74	2541.82
412.93	2565.23
413.12	2619.06
413.31	2766.51
413.50	2757.15
413.69	2679.91
413.88	2747.79
414.07	2766.51
414.26	2722.04
414.45	2916.31
414.64	2874.18
414.83	2986.52
415.02	2928.01
415.22	3038.02
415.41	2981.84
415.60	3005.25
415.79	2883.54
415.98	3035.67
416.17	3108.23
416.36	3119.93
416.55	3098.87
416.74	3269.73
416.93	3084.83
417.12	3194.83
417.31	3290.79
417.50	3363.35
417.69	3353.99
417.88	3183.13
418.07	3246.32
418.26	3337.60
418.45	3302.50
418.64	3431.23
418.83	3471.01
419.02	3482.72
419.21	3468.67
419.39	3459.31
419.58	3440.59
419.77	3311.86
419.96	3555.27
420.15	3590.38
420.34	3550.59
420.53	3590.38
420.72	3613.79
420.91	3559.95
421.10	3655.92
421.29	3758.90
421.48	3686.34
421.67	3634.85
421.86	3655.92
422.05	3702.73
422.24	3639.53
422.43	3620.81
422.61	3779.97
422.80	3831.46
422.99	3702.73
423.18	3665.28
423.37	3815.07
423.56	3721.45
423.75	3693.37
423.94	3801.03
424.13	3524.85
424.32	3674.64
424.50	3831.46
424.69	3936.78
424.88	3829.12
425.07	3861.88
425.26	3829.12
425.45	3836.14
425.64	3861.88
425.83	3794.01
426.01	3885.29
426.20	3880.61
426.39	3915.72
426.58	3737.84
426.77	3728.47
426.96	3829.12
427.15	3976.57
427.33	3882.95
427.52	3915.72
427.71	3925.08
427.90	4124.02
428.09	3934.44
428.28	3971.89
428.46	3915.72
428.65	4039.76
428.84	4187.22
429.03	4126.36
429.22	4056.15
429.40	4051.47
429.59	4070.19
429.78	3840.82
429.97	3786.99
430.16	3983.59
430.34	4009.34
430.53	4037.42
430.72	4124.02
430.91	3943.80
431.10	4231.69
431.28	4404.89
431.47	4442.34
431.66	4397.87
431.85	4308.93
432.03	4486.81
432.22	4528.94
432.41	4416.59
432.60	4667.03
432.79	4503.19
432.97	4599.15
433.16	4739.58
433.35	4395.53
433.54	4594.47
433.72	4521.92
433.91	4557.02
434.10	4592.13
434.28	4739.58
434.47	4678.73
434.66	4730.22
434.85	4652.98
435.03	4802.78
435.22	4765.33
435.41	4809.80
435.59	4968.96
435.78	4847.25
435.97	4793.42
436.16	4863.63
436.34	4938.53
436.53	5071.94
436.72	5004.07
436.90	4830.87
437.09	5076.62
437.28	4985.34
437.46	5062.58
437.65	4936.19
437.84	5235.78
438.02	4926.83
438.21	5121.09
438.40	5055.56
438.58	5083.64
438.77	5217.05
438.96	5036.83
439.14	5380.89
439.33	5439.40
439.52	5324.72
439.70	5364.51
439.89	5446.43
440.08	5486.22
440.26	5364.51
440.45	5521.32
440.63	5584.52
440.82	5753.04
441.01	5830.27
441.19	5802.19
441.38	5853.68
441.57	5743.67
441.75	5851.34
441.94	6050.28
442.12	6066.67
442.31	6108.80
442.50	6083.05
442.68	6059.65
442.87	6202.42
443.05	6050.28
443.24	6237.53
443.43	6455.20
443.61	6141.57
443.80	6382.64
443.98	6148.59
444.17	5902.83
444.35	6164.97
444.54	6401.37
444.73	6179.01
444.91	6289.02
445.10	6176.67
445.28	6377.96
445.47	6073.69
445.65	6059.65
445.84	6303.06
446.02	6326.47
446.21	6274.98
446.39	6427.11
446.58	6417.75
446.77	6307.74
446.95	6186.04
447.14	6298.38
447.32	6443.49
447.51	6565.20
447.69	6513.71
447.88	6511.37
448.06	6368.60
448.25	6340.51
448.43	6441.15
448.62	6520.73
448.80	6469.24
448.99	6551.16
449.17	6661.16
449.36	6544.14
449.54	6717.34
449.73	6841.39
449.91	6761.81
450.10	6670.53
450.28	6958.41
450.46	6850.75
450.65	6925.65
450.83	6822.66
451.02	6883.52
451.20	7166.72
451.39	6913.94
451.57	7089.48
451.76	6956.07
451.94	7070.76
452.13	6925.65
452.31	6918.62
452.49	6733.72
452.68	7047.35
452.86	6951.39
453.05	7035.65
453.23	7159.70
453.42	7042.67
453.60	7124.59
453.78	7239.28
453.97	7194.81
454.15	7098.84
454.34	7145.66
454.52	7363.33
454.70	7192.47
454.89	7309.49
455.07	7309.49
455.26	7185.44
455.44	7482.69
455.62	7616.10
455.81	7478.01
455.99	7440.56
456.17	7548.23
456.36	7541.21
456.54	7700.36
456.73	7742.49
456.91	7761.22
457.09	7950.80
457.28	7992.93
457.46	7868.88
457.64	7927.39
457.83	7763.56
458.01	7854.84
458.19	7939.10
458.38	7850.16
458.56	7957.82
458.74	7906.33
458.93	8011.65
459.11	7988.25
459.29	8107.62
459.48	7815.05
459.66	8124.00
459.84	8131.02
460.03	8121.66
460.21	8203.58
460.39	8231.66
460.57	8098.25
460.76	8376.78
460.94	8365.07
461.12	8304.22
461.31	8397.84
461.49	8262.09
461.67	8299.54
461.85	8557.00
462.04	8346.35
462.22	9043.83
462.40	8573.38
462.59	8610.83
462.77	8390.82
462.95	8482.10
463.13	8629.56
463.32	8741.90
463.50	8774.67
463.68	8774.67
463.86	8617.85
464.05	8615.51
464.23	8659.98
464.41	8667.00
464.59	8695.09
464.78	9025.11
464.96	8898.72
465.14	8622.53
465.32	8849.57
465.50	9081.28
465.69	8945.53
465.87	8882.33
466.05	8915.10
466.23	8952.55
466.41	8936.17
466.60	9015.74
466.78	8739.56
466.96	9125.75
467.14	8791.05
467.32	9165.54
467.51	9074.26
467.69	9022.77
467.87	9022.77
468.05	9177.24
468.23	8945.53
468.41	9205.33
468.60	9331.72
468.78	9441.72
468.96	9415.98
469.14	9252.14
469.32	9355.12
469.50	9291.93
469.69	9619.60
469.87	9806.84
470.05	9631.30
470.23	9387.89
470.41	9598.54
470.59	9561.09
470.77	9511.94
470.95	9631.30
471.14	9858.34
471.32	9619.60
471.50	9935.57
471.68	9872.38
471.86	10057.28
472.04	10015.15
472.22	9994.09
472.40	9888.76
472.58	10087.71
472.77	9989.41
472.95	10263.25
473.13	10478.58
473.31	10216.44
473.49	9905.15
473.67	10459.85
473.85	10464.54
474.03	10555.82
474.21	10459.85
474.39	10672.84
474.57	10623.69
474.75	10724.33
474.93	10843.70
475.12	10785.19
475.30	10920.94
475.48	10920.94
475.66	11009.88
475.84	10754.76
476.02	10958.39
476.20	11042.65
476.38	11232.23
476.56	11389.05
476.74	11513.10
476.92	11398.41
477.10	11461.60
477.28	11564.59
477.46	11461.60
477.64	11845.45
477.82	11978.86
478.00	12123.98
478.18	12140.36
478.36	12009.29
478.54	12294.83
478.72	12266.75
478.90	12538.25
479.08	12475.06
479.26	12699.75
479.44	12856.56
479.62	12833.16
479.80	12826.14
479.98	13097.64
480.16	13275.52
480.34	13004.02
480.52	13055.51
480.70	13226.37
480.88	13385.52
481.06	13184.24
481.24	13647.66
481.41	13832.57
481.59	13724.90
481.77	14087.68
481.95	13855.97
482.13	13984.70
482.31	14022.15
482.49	14417.70
482.67	14626.01
482.85	14583.88
483.03	14682.18
483.21	14714.95
483.39	14904.53
483.57	14988.79
483.74	15096.46
483.92	15260.29
484.10	14806.23
484.28	15176.03
484.46	15655.84
484.64	15845.43
484.82	15426.47
485.00	15707.34
485.18	16128.63
485.35	16098.20
485.53	15847.77
485.71	16020.97
485.89	16145.02
486.07	16100.55
486.25	16503.12
486.43	16540.57
486.61	16695.04
486.78	16901.01
486.96	16929.09
487.14	17371.46
487.32	17111.66
487.50	17378.48
487.68	17624.23
487.85	17720.20
488.03	17841.90
488.21	18356.82
488.39	18249.16
488.57	18171.92
488.75	18403.63
488.92	18485.55
489.10	18757.05
489.28	18810.89
489.46	19075.37
489.64	18735.99
489.81	19239.20
489.99	19365.59
490.17	19508.37
490.35	19791.57
490.53	19751.78
490.70	19976.47
490.88	19896.89
491.06	20414.15
491.24	20285.42
491.41	20212.87
491.59	20311.17
491.77	20498.41
491.95	20627.14
492.13	20737.15
492.30	20872.90
492.48	20943.11
492.66	21128.02
492.84	21301.22
493.01	21692.08
493.19	21132.70
493.37	21923.80
493.54	21764.64
493.72	22246.79
493.90	22106.36
494.08	22307.65
494.25	22691.49
494.43	22295.94
494.61	22963.00
494.79	22600.21
494.96	22693.83
495.14	22958.31
495.32	23103.43
495.49	23164.28
495.67	23197.05
495.85	23590.26
496.02	23800.91
496.20	23452.17
496.38	23646.43
496.55	23857.08
496.73	24393.06
496.91	24364.98
497.09	24636.48
497.26	24376.68
497.44	24559.24
497.62	24477.32
497.79	24615.41
497.97	24512.43
498.14	24833.08
498.32	25383.11
498.50	25174.80
498.67	25497.80
498.85	25628.87
499.03	25816.11
499.20	25949.52
499.38	25577.37
499.56	26010.37
499.73	25671.00
499.91	25769.30
500.08	25949.52
500.26	25986.97
500.44	26403.58
500.61	26377.84
500.79	25991.65
500.97	26483.16
501.14	26590.83
501.32	25958.88
501.49	26529.97
501.67	26771.05
501.84	26661.04
502.02	26452.73
502.20	27171.28
502.37	27168.94
502.55	27292.99
502.72	27112.77
502.90	27424.06
503.07	27735.35
503.25	27901.53
503.43	27215.75
503.60	27702.58
503.78	27522.36
503.95	27725.99
504.13	27873.44
504.30	28140.26
504.48	27913.23
504.65	28112.17
504.83	28322.82
505.01	28362.61
505.18	28528.79
505.36	28800.29
505.53	28680.92
505.71	28893.91
505.88	28978.17
506.06	28755.82
506.23	28957.11
506.41	28919.66
506.58	29120.95
506.76	29146.69
506.93	29137.33
507.11	29221.59
507.28	29287.12
507.46	29715.44
507.63	29476.71
507.81	29626.50
507.98	29366.70
508.16	29883.96
508.33	30019.71
508.50	29743.53
508.68	30073.54
508.85	30448.03
509.03	30249.08
509.20	30441.01
509.38	30668.04
509.55	30497.18
509.73	30689.10
509.90	30773.36
510.08	30754.64
510.25	30756.98
510.42	30651.66
510.60	30838.90
510.77	31386.58
510.95	31367.86
511.12	31159.55
511.30	31101.04
511.47	31477.86
511.64	31974.06
511.82	31819.58
511.99	31782.13
512.17	31861.71
512.34	31571.49
512.51	31992.78
512.69	32100.45
512.86	31957.67
513.04	32142.58
513.21	32355.57
513.38	32259.60
513.56	32720.69
513.73	31901.50
513.90	32341.52
514.08	32652.81
514.25	32872.82
514.43	32542.81
514.60	32311.10
514.77	32708.99
514.95	32961.76
515.12	32739.41
515.29	32966.45
515.47	33123.26
515.64	33500.09
515.81	33057.73
515.99	33104.54
516.16	33132.62
516.33	32830.69
516.51	32929.00
516.68	32732.39
516.85	32704.31
517.03	33205.18
517.20	33823.08
517.37	33354.97
517.54	33736.48
517.72	33858.19
517.89	33656.90
518.06	33603.07
518.24	33310.50
518.41	33795.00
518.58	33993.94
518.75	33886.28
518.93	34213.95
519.10	34129.69
519.27	34536.94
519.45	34356.72
519.62	34670.36
519.79	34756.96
519.96	35154.85
520.14	35119.74
520.31	35108.04
520.48	35171.23
520.65	34855.26
520.83	35370.18
521.00	35445.07
521.17	35346.77
521.34	35405.28
521.52	35393.58
521.69	35482.52
521.86	35758.70
522.03	35894.46
522.20	35702.53
522.38	35959.99
522.55	35744.66
522.72	36013.82
522.89	35803.17
523.07	35952.97
523.24	35749.34
523.41	36575.55
523.58	36247.88
523.75	36774.50
523.92	36751.09
524.10	36685.56
524.27	36697.26
524.44	36603.64
524.61	37034.30
524.78	36886.84
524.96	37153.66
525.13	37141.96
525.30	37179.41
525.47	37071.75
525.64	37179.41
525.81	37095.15
525.98	37099.83
526.16	36634.06
526.33	36751.09
526.50	37228.56
526.67	36776.84
526.84	36779.18
527.01	37249.63
527.18	36989.83
527.36	37411.12
527.53	37942.42
527.70	38139.03
527.87	37479.00
528.04	37827.74
528.21	38164.78
528.38	37734.12
528.55	38543.94
528.72	38094.56
528.89	38775.66
529.07	38157.75
529.24	38347.34
529.41	38469.04
529.58	38347.34
529.75	38106.26
529.92	38480.75
530.09	38534.58
530.26	38557.99
530.43	38710.12
530.60	38314.57
530.77	38246.69
530.94	38719.48
531.11	38852.89
531.28	39009.71
531.46	39185.25
531.63	39257.81
531.80	39138.44
531.97	38855.23
532.14	38775.66
532.31	38567.35
532.48	39498.88
532.65	39061.20
532.82	39229.72
532.99	39178.23
533.16	38995.67
533.33	39639.31
533.50	39365.47
533.67	39321.00
533.84	39423.98
534.01	39459.09
534.18	39454.41
534.35	39920.18
534.52	39613.57
534.69	39880.39
534.86	40151.89
535.03	39672.08
535.20	39892.09
535.37	39683.78
535.54	40154.23
535.71	39906.13
535.88	39983.37
536.05	40362.54
536.22	40308.71
536.38	40418.71
536.55	40114.44
536.72	40308.71
536.89	40053.59
537.06	40027.84
537.23	40135.51
537.40	40453.82
537.57	40418.71
537.74	40362.54
537.91	40950.01
538.08	40652.76
538.25	40517.01
538.42	40685.53
538.59	41097.47
538.75	40818.94
538.92	40753.41
539.09	41446.21
539.26	40753.41
539.43	40779.15
539.60	41127.89
539.77	40889.16
539.94	40903.20
540.11	40802.56
540.28	41055.34
540.44	40896.18
540.61	40978.10
540.78	40825.96
540.95	41153.64
541.12	41219.17
541.29	41338.54
541.46	41289.39
541.62	41546.85
541.79	41750.48
541.96	41280.03
542.13	41710.69
542.30	41897.93
542.47	41652.17
542.63	42068.79
542.80	41439.18
542.97	42045.38
543.14	42373.06
543.31	41984.53
543.48	42597.75
543.64	42534.56
543.81	42548.60
543.98	42263.05
544.15	42195.18
544.32	42632.86
544.48	42625.84
544.65	42108.58
544.82	42445.62
544.99	42017.30
545.16	42426.89
545.32	42361.36
545.49	42604.77
545.66	42937.13
545.83	42712.44
546.00	42796.70
546.16	42838.83
546.33	42792.01
546.50	42731.16
546.67	42976.92
546.83	42398.80
547.00	42916.06
547.17	42653.92
547.34	43124.37
547.50	42796.70
547.67	43178.20
547.84	43126.71
548.00	43281.19
548.17	43667.37
548.34	43274.16
548.51	43583.12
548.67	43590.14
548.84	43548.01
549.01	43332.68
549.18	43098.62
549.34	43660.35
549.51	43564.39
549.68	43367.79
549.84	43835.89
550.01	43454.39
550.18	43438.00
550.34	43566.73
550.51	43613.54
550.68	43585.46
550.84	43157.14
551.01	43641.63
551.18	43545.67
551.34	44016.11
551.51	43803.13
551.68	43695.46
551.84	44041.86
552.01	44006.75
552.18	43952.92
552.34	43913.13
552.51	43784.40
552.68	43950.58
552.84	43896.75
553.01	44399.96
553.18	44083.99
553.34	43901.43
553.51	43955.26
553.67	44023.14
553.84	44725.30
554.01	44559.12
554.17	44549.76
554.34	44287.62
554.51	44392.94
554.67	44369.54
554.84	44229.10
555.00	44191.65
555.17	44378.90
555.33	44388.26
555.50	44395.28
555.67	44041.86
555.83	44261.87
556.00	44449.11
556.16	45450.86
556.33	44610.61
556.50	44215.06
556.66	44964.03
556.83	44816.58
556.99	44708.91
557.16	45001.48
557.32	44856.37
557.49	44830.62
557.65	44540.39
557.82	44470.18
557.98	44797.85
558.15	44671.46
558.32	45261.28
558.48	45085.74
558.65	44570.82
558.81	44570.82
558.98	44809.56
559.14	44807.22
559.31	45067.02
559.47	45015.52
559.64	45162.98
559.80	45265.96
559.97	45240.21
560.13	45071.70
560.30	44643.38
560.46	45305.75
560.63	44804.88
560.79	44821.26
560.96	45174.68
561.12	45043.61
561.29	45221.49
561.45	45298.73
561.61	45343.20
561.78	45235.53
561.94	45020.20
562.11	45661.51
562.27	45539.80
562.44	45064.67
562.60	45598.32
562.77	45368.94
562.93	45298.73
563.10	45755.13
563.26	45340.86
563.42	45720.02
563.59	45301.07
563.75	45464.91
563.92	45324.47
564.08	45382.99
564.24	45668.53
564.41	45834.71
564.57	45661.51
564.74	45329.16
564.90	45654.49
565.07	45022.54
565.23	45214.47
565.39	45511.72
565.56	45497.67
565.72	45584.27
565.88	45727.05
566.05	45649.81
566.21	45593.64
566.38	45539.80
566.54	45804.28
566.70	45792.58
566.87	45703.64
567.03	45457.88
567.19	45820.67
567.36	45546.82
567.52	45738.75
567.68	45446.18
567.85	45469.59
568.01	45792.58
568.17	45284.68
568.34	45970.46
568.50	45883.86
568.66	45488.31
568.83	45394.69
568.99	45373.63
569.15	45804.28
569.32	45525.76
569.48	45160.64
569.64	45968.12
569.81	45914.29
569.97	45790.24
570.13	45759.81
570.30	45471.93
570.46	45727.05
570.62	45233.19
570.78	45338.52
570.95	45605.34
571.11	45563.21
571.27	45710.66
571.43	45865.14
571.60	45867.48
571.76	45544.48
571.92	46169.41
572.09	45907.27
572.25	46021.95
572.41	45769.18
572.57	46160.05
572.74	46326.22
572.90	45907.27
573.06	46073.45
573.22	46050.04
573.38	45893.22
573.55	45511.72
573.71	46017.27
573.87	45757.47
574.03	45654.49
574.20	45771.52
574.36	45947.06
574.52	45724.71
574.68	46122.60
574.84	45485.97
575.01	45947.06
575.17	46040.68
575.33	45605.34
575.49	45731.73
575.65	46637.51
575.82	46019.61
575.98	46054.72
576.14	46300.48
576.30	45794.92
576.46	46045.36
576.62	45792.58
576.79	45823.01
576.95	45450.86
577.11	45986.85
577.27	45841.73
577.43	45879.18
577.59	45722.37
577.75	45645.13
577.92	45638.11
578.08	45457.88
578.24	45343.20
578.40	46115.58
578.56	45837.05
578.72	46000.89
578.88	46377.72
579.04	46024.29
579.21	45848.75
579.37	45652.15
579.53	45986.85
579.69	45834.71
579.85	45956.42
580.01	45806.62
580.17	45911.95
580.33	46366.01
580.49	46394.10
580.65	46169.41
580.82	46227.92
580.98	45862.80
581.14	45858.12
581.30	45933.01
581.46	46134.30
581.62	46071.10
581.78	46188.13
581.94	46630.49
582.10	46012.59
582.26	46373.03
582.42	46330.90
582.58	46260.69
582.74	45675.55
582.90	46012.59
583.06	46340.27
583.22	45820.67
583.38	46045.36
583.54	46354.31
583.70	46237.28
583.86	46113.23
584.02	45860.46
584.18	46195.15
584.34	46314.52
584.50	46607.09
584.66	46050.04
584.82	45916.63
584.98	46335.59
585.14	46183.45
585.30	45965.78
585.46	46333.24
585.62	45869.82
585.78	45989.19
585.94	45310.43
586.10	46012.59
586.26	45734.07
586.42	46202.18
586.58	46396.44
586.74	46176.43
586.90	45806.62
587.06	45858.12
587.22	46508.79
587.38	46181.11
587.54	46333.24
587.70	46021.95
587.86	46335.59
588.02	46153.02
588.18	45886.20
588.34	46031.32
588.49	45757.47
588.65	45495.33
588.81	45801.94
588.97	45764.49
589.13	45511.72
589.29	45972.80
589.45	45853.44
589.61	45862.80
589.77	46595.38
589.93	46012.59
590.08	46504.10
590.24	46618.79
590.40	46216.22
590.56	46122.60
590.72	46227.92
590.88	46223.24
591.04	46113.23
591.20	46485.38
591.35	46382.40
591.51	46518.15
591.67	46277.07
591.83	46351.97
591.99	46417.50
592.15	46497.08
592.31	46457.29
592.46	46342.61
592.62	46487.72
592.78	46246.65
592.94	46295.80
593.10	46082.81
593.26	46555.60
593.41	46155.36
593.57	46234.94
593.73	46333.24
593.89	46469.00
594.05	45937.69
594.20	46316.86
594.36	46560.28
594.52	46300.48
594.68	46153.02
594.84	46363.67
594.99	46520.49
595.15	46377.72
595.31	46679.64
595.47	46312.18
595.62	46438.57
595.78	46653.90
595.94	46553.26
596.10	46611.77
596.25	46487.72
596.41	46293.46
596.57	46548.57
596.73	46628.15
596.88	46162.39
597.04	46389.42
597.20	46705.39
597.36	46288.77
597.51	46405.80
597.67	46436.23
597.83	46887.95
597.99	46417.50
598.14	46239.62
598.30	46616.45
598.46	46483.04
598.61	46478.36
598.77	46021.95
598.93	46422.19
599.09	46532.19
599.24	46616.45
599.40	46405.80
599.56	46667.94
599.71	46536.87
599.87	46646.88
600.03	46164.73
600.18	46358.99
600.34	46506.44
600.50	46099.19
600.65	46190.47
600.81	46873.91
600.97	46735.82
601.12	46887.95
601.28	46478.36
601.44	46354.31
601.59	46440.91
601.75	45979.82
601.91	46218.56
602.06	46347.29
602.22	46621.13
602.37	46274.73
602.53	46335.59
602.69	46557.94
602.84	46447.93
603.00	46232.60
603.16	46454.95
603.31	46267.71
603.47	46192.81
603.62	46244.30
603.78	46555.60
603.94	46078.13
604.09	46438.57
604.25	46389.42
604.40	46562.62
604.56	45965.78
604.71	46508.79
604.87	46124.94
605.03	46176.43
605.18	46382.40
605.34	46351.97
605.49	45956.42
605.65	46700.71
605.80	46323.88
605.96	46138.98
606.12	46323.88
606.27	46384.74
606.43	46284.09
606.58	46099.19
606.74	46197.49
606.89	46099.19
607.05	46527.51
607.20	46061.74
607.36	46066.42
607.51	46651.56
607.67	46398.78
607.82	46206.86
607.98	46258.35
608.13	46167.07
608.29	46134.30
608.44	45347.88
608.60	45755.13
608.75	45839.39
608.91	45603.00
609.06	45436.82
609.22	46108.55
609.37	45570.23
609.53	46162.39
609.68	46007.91
609.84	45839.39
609.99	46089.83
610.15	46003.23
610.30	46021.95
610.46	45713.00
610.61	45628.74
610.76	45773.86
610.92	45858.12
611.07	45638.11
611.23	45404.05
611.38	45801.94
611.54	45834.71
611.69	45305.75
611.84	45481.29
612.00	45556.19
612.15	45771.52
612.31	45872.16
612.46	45869.82
612.62	45656.83
612.77	45336.18
612.92	45574.91
613.08	45518.74
613.23	45408.73
613.39	45621.72
613.54	45787.90
613.69	45375.97
613.85	45067.02
614.00	45111.49
614.15	45928.33
614.31	45591.30
614.46	45600.66
614.62	45474.27
614.77	45535.12
614.92	45329.16
615.08	45280.00
615.23	45535.12
615.38	44760.40
615.54	45057.65
615.69	45350.22
615.84	44739.34
616.00	45153.62
616.15	44928.92
616.30	45212.13
616.46	44603.59
616.61	44154.21
616.76	45113.83
616.92	44900.84
617.07	44863.39
617.22	44552.10
617.37	45301.07
617.53	45088.08
617.68	45382.99
617.83	45268.30
617.99	45223.83
618.14	44643.38
618.29	44870.41
618.45	44421.03
618.60	44751.04
618.75	44765.09
618.90	44945.31
619.06	45090.42
619.21	44875.09
619.36	44924.24
619.51	44765.09
619.67	44306.34
619.82	44832.96
619.97	44832.96
620.12	44512.31
620.28	44158.89
620.43	44229.10
620.58	44175.27
620.73	44313.36
620.89	44203.36
621.04	44217.40
621.19	44545.08
621.34	44463.16
621.49	44126.12
621.65	44563.80
621.80	44409.32
621.95	44030.16
622.10	44292.30
622.25	44168.25
622.41	44095.69
622.56	44247.83
622.71	44486.56
622.86	44399.96
623.01	44414.01
623.16	44098.03
623.32	44222.08
623.47	44619.97
623.62	44425.71
623.77	44053.56
623.92	43981.01
624.07	43548.01
624.23	43564.39
624.38	43297.57
624.53	43927.17
624.68	43686.10
624.83	43714.19
624.98	43674.40
625.13	43686.10
625.29	43718.87
625.44	43756.32
625.59	43854.62
625.74	43426.30
625.89	43604.18
626.04	43107.99
626.19	43428.64
626.34	43379.49
626.49	43435.66
626.65	43236.72
626.80	43524.60
626.95	43400.55
627.10	42857.55
627.25	43225.01
627.40	42773.29
627.55	42902.02
627.70	42761.59
627.85	42696.05
628.00	42780.31
628.15	43386.51
628.30	42724.14
628.45	42937.13
628.60	42974.58
628.76	43117.35
628.91	43388.85
629.06	42918.40
629.21	42422.21
629.36	42796.70
629.51	42564.98
629.66	42810.74
629.81	42319.23
629.96	42679.67
630.11	42623.50
630.26	42852.87
630.41	42277.10
630.56	42611.79
630.71	42560.30
630.86	42415.19
631.01	41958.78
631.16	42602.43
631.31	42101.56
631.46	42204.54
631.61	42473.70
631.76	42412.85
631.91	42567.32
632.06	42017.30
632.21	42422.21
632.36	42754.57
632.51	42508.81
632.66	42504.13
632.81	42106.24
632.96	42225.60
633.10	41652.17
633.25	42246.67
633.40	41893.25
633.55	42321.57
633.70	42424.55
633.85	41691.96
634.00	41631.11
634.15	42232.63
634.30	41926.02
634.45	42108.58
634.60	42087.51
634.75	41680.26
634.90	42209.22
635.05	42478.38
635.19	41883.89
635.34	42171.77
635.49	41949.42
635.64	41734.09
635.79	41493.02
635.94	41598.34
636.09	42010.28
636.24	41359.61
636.39	41188.75
636.53	41862.82
636.68	41303.43
636.83	41144.28
636.98	41691.96
637.13	40954.69
637.28	41504.72
637.43	41848.78
637.57	41490.68
637.72	41354.93
637.87	41598.34
638.02	41333.86
638.17	41556.21
638.32	41804.31
638.46	41612.38
638.61	41132.57
638.76	41221.52
638.91	40959.38
639.06	41043.63
639.20	41200.45
639.35	41474.29
639.50	40730.00
639.65	40931.29
639.80	41184.07
639.94	40900.86
640.09	41214.49
640.24	40610.64
640.39	40844.69
640.54	40907.88
640.68	40598.93
640.83	41186.41
640.98	40664.47
641.13	40353.18
641.27	40968.74
641.42	40648.08
641.57	40673.83
641.72	40627.02
641.86	40517.01
642.01	40620.00
642.16	40645.74
642.31	40137.85
642.45	40982.78
642.60	40224.45
642.75	40575.53
642.90	40259.55
643.04	40039.54
643.19	40126.14
643.34	40671.49
643.48	39962.31
643.63	40135.51
643.78	40109.76
643.93	39906.13
644.07	39901.45
644.22	40112.10
644.37	39901.45
644.51	39672.08
644.66	40472.54
644.81	40161.25
644.95	40353.18
645.10	40273.60
645.25	40343.81
645.39	39716.55
645.54	40383.60
645.69	39943.58
645.83	39597.18
645.98	40208.06
646.13	40002.10
646.27	39924.86
646.42	39941.24
646.57	39482.50
646.71	39557.39
646.86	39639.31
647.00	39901.45
647.15	39646.33
647.30	39732.93
647.44	39576.12
647.59	39470.79
647.74	39793.79
647.88	39269.51
648.03	39543.35
648.17	39367.81
648.32	39271.85
648.47	38932.47
648.61	39351.43
648.76	39653.36
648.90	39431.01
649.05	39700.17
649.20	39335.04
649.34	39840.60
649.49	39199.29
649.63	39349.09
649.78	39395.90
649.92	38960.56
650.07	39536.33
650.21	38717.14
650.36	39267.17
650.51	39154.82
650.65	39452.07
650.80	39431.01
650.94	39438.03
651.09	38857.57
651.23	38885.66
651.38	39005.03
651.52	38684.37
651.67	38967.58
651.81	38864.60
651.96	38518.20
652.10	38780.34
652.25	38707.78
652.39	38536.92
652.54	38831.83
652.68	38934.81
652.83	38939.49
652.97	38768.63
653.12	38888.00
653.26	38794.38
653.41	38712.46
653.55	38885.66
653.70	38689.06
653.84	38455.00
653.99	38513.52
654.13	38602.46
654.27	38740.55
654.42	38337.98
654.56	38483.09
654.71	38431.60
654.85	38279.46
655.00	38253.72
655.14	38270.10
655.29	37876.89
655.43	37757.52
655.57	37736.46
655.72	37371.33
655.86	37909.66
656.01	37951.79
656.15	37371.33
656.30	37743.48
656.44	37825.40
656.58	37745.82
656.73	37345.59
656.87	37436.87
657.01	37560.92
657.16	37376.01
657.30	37558.58
657.45	37184.09
657.59	37432.19
657.73	37200.47
657.88	37607.73
658.02	37361.97
658.16	37368.99
658.31	37986.89
658.45	37706.03
658.60	38092.22
658.74	37598.37
658.88	37652.20
659.03	37429.85
659.17	37003.87
659.31	37167.71
659.46	36739.39
659.60	36933.65
659.74	37057.70
659.89	36898.55
660.03	36858.76
660.17	37373.67
660.32	36889.18
660.46	37586.66
660.60	37151.32
660.74	37074.09
660.89	37298.78
661.03	36825.99
661.17	36746.41
661.32	36315.75
661.46	36844.71
661.60	36608.32
661.74	36430.44
661.89	36563.85
662.03	36432.78
662.17	36294.69
662.31	36437.46
662.46	36533.42
662.60	36222.13
662.74	36229.15
662.88	36306.39
663.03	36170.64
663.17	36278.30
663.31	35950.63
663.45	36290.01
663.60	35985.74
663.74	36086.38
663.88	35569.12
664.02	35672.10
664.17	35538.69
664.31	35903.82
664.45	35393.58
664.59	35751.68
664.73	35505.93
664.88	35175.91
665.02	35414.65
665.16	35667.42
665.30	35667.42
665.44	35260.17
665.59	35157.19
665.73	34939.52
665.87	34520.56
666.01	35330.39
666.15	34841.21
666.29	34899.73
666.44	35178.25
666.58	34976.97
666.72	34895.05
666.86	34859.94
667.00	34932.50
667.14	34726.53
667.28	34738.23
667.43	34565.03
667.57	34373.11
667.71	34504.18
667.85	34848.24
667.99	34684.40
668.13	34129.69
668.27	34029.05
668.41	34330.98
668.56	34061.82
668.70	34455.03
668.84	33935.43
668.98	34057.14
669.12	33862.87
669.26	34239.70
669.40	33729.46
669.54	33795.00
669.68	34003.30
669.82	33848.83
669.96	33198.16
670.10	32975.81
670.25	33832.44
670.39	33741.16
670.53	33352.63
670.67	33392.42
670.81	33223.90
670.95	33259.01
671.09	33628.82
671.23	33401.79
671.37	32898.57
671.51	32528.77
671.65	33165.39
671.79	32868.14
671.93	32877.51
672.07	32989.85
672.21	32620.05
672.35	32388.33
672.49	32470.25
672.63	32723.03
672.77	32411.74
672.91	32411.74
673.05	32837.72
673.19	32477.27
673.33	32622.39
673.47	31992.78
673.61	31737.66
673.75	31974.06
673.89	31936.61
674.03	31498.93
674.17	31690.85
674.31	31381.90
674.45	31510.63
674.59	31604.25
674.73	31618.30
674.87	31681.49
675.01	31562.12
675.15	31424.03
675.29	31337.43
675.43	31557.44
675.56	31524.68
675.70	31248.49
675.84	31391.26
675.98	30017.37
676.12	30738.26
676.26	30377.81
676.40	30377.81
676.54	30153.12
676.68	30455.05
676.82	30164.82
676.96	30115.67
677.10	29797.36
677.23	30050.14
677.37	30139.08
677.51	29802.04
677.65	29905.02
677.79	29776.30
677.93	30295.89
678.07	29406.49
678.21	29048.39
678.34	29315.21
678.48	29242.65
678.62	29462.66
678.76	28954.77
678.90	28943.06
679.04	28985.19
679.18	28964.13
679.31	28620.07
679.45	28687.95
679.59	28222.18
679.73	28210.48
679.87	28477.30
680.00	28821.36
680.14	28360.27
680.28	28348.57
680.42	27938.97
680.56	27946.00
680.70	27452.14
680.83	27733.01
680.97	27367.88
681.11	27758.75
681.25	27665.13
681.39	27070.64
681.52	27290.65
681.66	27330.44
681.80	27407.67
681.94	27105.74
682.07	27147.87
682.21	26686.79
682.35	26969.99
682.49	26953.61
682.62	27037.87
682.76	26595.51
682.90	26473.80
683.04	26581.46
683.17	26462.10
683.31	26141.44
683.45	26120.38
683.59	25883.98
683.72	25804.41
683.86	25577.37
684.00	25678.02
684.13	25680.36
684.27	26054.84
684.41	25881.64
684.55	25708.44
684.68	25439.28
684.82	25062.46
684.96	25174.80
685.09	24924.36
685.23	24779.25
685.37	25235.66
685.50	25245.02
685.64	24795.64
685.78	24669.25
685.91	24624.78
686.05	24746.48
686.19	24526.47
686.32	24308.80
686.46	24194.12
686.60	24046.66
686.73	23885.17
686.87	23931.98
687.01	23688.56
687.14	23477.91
687.28	23730.69
687.42	23744.73
687.55	23381.95
687.69	23271.95
687.82	23281.31
687.96	23021.51
688.10	23332.80
688.23	23335.14
688.37	22845.97
688.50	22752.35
688.64	22576.81
688.78	22918.53
688.91	22412.97
689.05	22672.77
689.18	22363.82
689.32	22368.50
689.46	22394.25
689.59	22384.88
689.73	22340.41
689.86	22132.11
690.00	22209.34
690.13	22466.80
690.27	21766.98
690.41	21876.99
690.54	21443.99
690.68	21593.78
690.81	21392.50
690.95	21223.98
691.08	21453.35
691.22	21378.45
691.35	21420.58
691.49	21312.92
691.62	21322.28
691.76	21301.22
691.89	20954.82
692.03	20819.07
692.16	20823.75
692.30	20786.30
692.43	20512.46
692.57	20613.10
692.70	20374.36
692.84	20556.93
692.97	20381.38
693.11	20016.26
693.24	20297.13
693.38	20173.08
693.51	20163.72
693.65	19969.45
693.78	19697.95
693.92	19976.47
694.05	19632.41
694.19	19491.98
694.32	19241.54
694.45	19555.18
694.59	19353.89
694.72	19344.53
694.86	19208.78
694.99	18616.62
695.13	19105.79
695.26	18951.32
695.39	18623.64
695.53	18845.99
695.66	18644.71
695.80	18778.12
695.93	18848.33
696.07	18618.96
696.20	18349.80
696.33	18204.69
696.47	18387.25
696.60	18218.73
696.73	18026.81
696.87	18085.32
697.00	18092.34
697.14	18090.00
697.27	17783.39
697.40	17909.78
697.54	17699.13
697.67	17561.04
697.80	17699.13
697.94	17633.60
698.07	17589.13
698.21	17137.40
698.34	17385.50
698.47	17322.30
698.61	16954.84
698.74	16959.52
698.87	17149.11
699.01	16678.66
699.14	16697.38
699.27	17050.80
699.40	16627.17
699.54	16610.78
699.67	16379.07
699.80	16465.67
699.94	16336.94
700.07	16332.26
700.20	15910.96
700.34	15688.61
700.47	15878.19
700.60	16297.15
700.73	16231.62
700.87	16053.73
701.00	15719.04
701.13	15651.16
701.26	15709.68
701.40	15793.94
701.53	15431.15
701.66	15733.08
701.79	15344.55
701.93	15208.80
702.06	15276.68
702.19	15154.97
702.32	15264.97
702.46	14801.55
702.59	15000.49
702.72	15026.24
702.85	14953.68
702.99	15056.67
703.12	14827.29
703.25	14764.10
703.38	14897.51
703.51	14576.86
703.65	14717.29
703.78	14806.23
703.91	14492.60
704.04	14352.16
704.17	14078.32
704.31	14272.59
704.44	14033.85
704.57	13933.21
704.70	13729.58
704.83	13914.48
704.96	14188.33
705.10	13769.37
705.23	13862.99
>>>>>End Processed Spectral Data<<<<<
