SpectraSuite Data File
++++++++++++++++++++++++++++++++++++
Date: Fri Oct 25 10:48:19 EDT 2013
User: price-jones
Dark Spectrum Present: No
Reference Spectrum Present: No
Number of Sampled Component Spectra: 1
Spectrometers: USB2+H05261
Integration Time (usec): 100000 (USB2+H05261)
Spectra Averaged: 1 (USB2+H05261)
Boxcar Smoothing: 0 (USB2+H05261)
Correct for Electrical Dark: No (USB2+H05261)
Strobe/Lamp Enabled: No (USB2+H05261)
Correct for Detector Non-linearity: No (USB2+H05261)
Correct for Stray Light: No (USB2+H05261)
Number of Pixels in Processed Spectrum: 2048
>>>>>Begin Processed Spectral Data<<<<<
365.73	142.77
365.92	142.77
366.12	142.77
366.32	93.62
366.52	53.83
366.72	86.60
366.91	0.00
367.11	49.15
367.31	0.00
367.51	18.72
367.70	133.41
367.90	53.83
368.10	60.85
368.30	21.06
368.49	23.41
368.69	93.62
368.89	84.26
369.09	18.72
369.28	81.92
369.48	56.17
369.68	67.88
369.87	63.19
370.07	28.09
370.27	168.52
370.47	241.08
370.66	374.49
370.86	444.70
371.06	498.53
371.25	552.37
371.45	482.15
371.65	524.28
371.84	489.17
372.04	505.56
372.24	554.71
372.44	550.03
372.63	535.98
372.83	550.03
373.03	524.28
373.22	489.17
373.42	531.30
373.62	571.09
373.81	552.37
374.01	603.86
374.21	599.18
374.40	580.45
374.60	624.92
374.79	589.82
374.99	655.35
375.19	678.76
375.38	641.31
375.58	685.78
375.78	685.78
375.97	662.37
376.17	690.46
376.37	704.50
376.56	657.69
376.76	606.20
376.95	629.60
377.15	706.84
377.35	795.78
377.54	685.78
377.74	718.54
377.93	695.14
378.13	704.50
378.33	685.78
378.52	645.99
378.72	755.99
378.91	734.93
379.11	676.41
379.31	777.06
379.50	706.84
379.70	737.27
379.89	704.50
380.09	662.37
380.28	732.59
380.48	784.08
380.68	720.88
380.87	739.61
381.07	784.08
381.26	695.14
381.46	744.29
381.65	739.61
381.85	688.12
382.04	699.82
382.24	814.51
382.43	723.23
382.63	732.59
382.83	777.06
383.02	812.17
383.22	711.52
383.41	734.93
383.61	772.38
383.80	868.34
384.00	875.36
384.19	802.80
384.39	840.25
384.58	765.36
384.78	894.08
384.97	840.25
385.17	777.06
385.36	823.87
385.56	891.74
385.75	809.83
385.95	821.53
386.14	837.91
386.34	903.45
386.53	858.98
386.72	877.70
386.92	959.62
387.11	950.26
387.31	933.87
387.50	898.77
387.70	929.19
387.89	896.43
388.09	938.55
388.28	983.02
388.48	1001.75
388.67	1039.20
388.86	964.30
389.06	1013.45
389.25	1027.50
389.45	983.02
389.64	1004.09
389.84	1076.65
390.03	1074.31
390.22	1093.03
390.42	1095.37
390.61	1048.56
390.81	1055.58
391.00	1062.60
391.19	1179.63
391.39	1174.95
391.58	1207.72
391.78	1107.07
391.97	1139.84
392.16	1097.71
392.36	1123.46
392.55	1093.03
392.75	1001.75
392.94	929.19
393.13	1097.71
393.33	1034.52
393.52	1039.20
393.71	1217.08
393.91	1062.60
394.10	1132.82
394.29	1247.51
394.49	1188.99
394.68	1214.74
394.88	1179.63
395.07	1334.11
395.26	1338.79
395.46	1331.76
395.65	1261.55
395.84	1242.82
396.04	1231.12
396.23	1238.14
396.42	1179.63
396.62	1231.12
396.81	1336.45
397.00	1261.55
397.19	1350.49
397.39	1392.62
397.58	1500.28
397.77	1453.47
397.97	1479.22
398.16	1451.13
398.35	1568.16
398.55	1474.54
398.74	1497.94
398.93	1600.93
399.12	1638.38
399.32	1521.35
399.51	1479.22
399.70	1577.52
399.90	1607.95
400.09	1633.69
400.28	1687.53
400.47	1577.52
400.67	1701.57
400.86	1657.10
401.05	1708.59
401.24	1832.64
401.44	1748.38
401.63	1710.93
401.82	1816.26
402.01	1741.36
402.21	1762.42
402.40	1844.34
402.59	1806.89
402.78	1865.41
402.97	1933.28
403.17	1764.76
403.36	1984.77
403.55	2010.52
403.74	1921.58
403.93	1973.07
404.13	1973.07
404.32	1963.71
404.51	1907.54
404.70	2003.50
404.89	1970.73
405.09	2083.08
405.28	1977.75
405.47	1970.73
405.66	2132.23
405.85	1975.41
406.05	2115.84
406.24	2062.01
406.43	2167.34
406.62	2101.80
406.81	2216.49
407.00	2094.78
407.20	2078.40
407.39	2148.61
407.58	2167.34
407.77	2312.45
407.96	2310.11
408.15	2352.24
408.34	2385.01
408.54	2363.94
408.73	2434.16
408.92	2389.69
409.11	2448.20
409.30	2513.74
409.49	2387.35
409.68	2445.86
409.87	2368.62
410.07	2455.22
410.26	2441.18
410.45	2490.33
410.64	2541.82
410.83	2726.72
411.02	2595.65
411.21	2808.64
411.40	2581.61
411.59	2656.51
411.78	2689.28
411.98	2719.70
412.17	2818.00
412.36	2874.18
412.55	2813.32
412.74	2633.10
412.93	2869.50
413.12	2836.73
413.31	3105.89
413.50	3033.33
413.69	2899.92
413.88	3049.72
414.07	3016.95
414.26	3049.72
414.45	3009.93
414.64	3016.95
414.83	3265.05
415.02	3232.28
415.22	3133.98
415.41	3211.22
415.60	3204.19
415.79	3187.81
415.98	3293.13
416.17	3307.18
416.36	3410.16
416.55	3300.16
416.74	3421.86
416.93	3435.91
417.12	3283.77
417.31	3513.14
417.50	3361.01
417.69	3496.76
417.88	3625.49
418.07	3545.91
418.26	3637.19
418.45	3632.51
418.64	3772.94
418.83	3784.65
419.02	3726.13
419.21	3684.00
419.39	3658.26
419.58	3616.13
419.77	3571.66
419.96	3768.26
420.15	3880.61
420.34	3847.84
420.53	3901.67
420.72	3960.19
420.91	3941.46
421.10	3946.14
421.29	3964.87
421.48	3889.97
421.67	3955.51
421.86	3857.20
422.05	3941.46
422.24	3943.80
422.43	3882.95
422.61	4128.70
422.80	4093.60
422.99	4117.00
423.18	4095.94
423.37	4063.17
423.56	4086.58
423.75	4088.92
423.94	4112.32
424.13	3801.03
424.32	3971.89
424.50	4170.83
424.69	4128.70
424.88	4203.60
425.07	4133.39
425.26	4016.36
425.45	4044.45
425.64	4011.68
425.83	4063.17
426.01	4079.55
426.20	4290.20
426.39	4018.70
426.58	4018.70
426.77	4156.79
426.96	4170.83
427.15	4170.83
427.33	4304.25
427.52	4117.00
427.71	4322.97
427.90	4390.84
428.09	4421.27
428.28	4348.72
428.46	4285.52
428.65	4283.18
428.84	4524.26
429.03	4528.94
429.22	4329.99
429.40	4145.09
429.59	4313.61
429.78	4166.15
429.97	4119.34
430.16	4065.51
430.34	4077.21
430.53	4177.86
430.72	4264.46
430.91	4351.06
431.10	4550.00
431.28	4826.18
431.47	4805.12
431.66	4833.21
431.85	4582.77
432.03	4704.48
432.22	4788.74
432.41	4819.16
432.60	4924.49
432.79	4835.55
432.97	4929.17
433.16	4798.10
433.35	4807.46
433.54	4774.69
433.72	4856.61
433.91	4945.55
434.10	4924.49
434.28	4770.01
434.47	5069.60
434.66	5097.69
434.85	4994.70
435.03	5069.60
435.22	5132.79
435.41	5387.91
435.59	5228.76
435.78	5413.66
435.97	5444.09
436.16	5373.87
436.34	5460.47
436.53	5345.78
436.72	5472.17
436.90	5181.95
437.09	5387.91
437.28	5284.93
437.46	5313.02
437.65	5476.85
437.84	5474.51
438.02	5341.10
438.21	5268.55
438.40	5434.72
438.58	5612.60
438.77	5586.86
438.96	5738.99
439.14	5795.17
439.33	5762.40
439.52	5853.68
439.70	5600.90
439.89	5907.51
440.08	5729.63
440.26	5893.47
440.45	5764.74
440.63	6019.86
440.82	6200.08
441.01	6202.42
441.19	6225.82
441.38	6443.49
441.57	6389.66
441.75	6349.87
441.94	6555.84
442.12	6544.14
442.31	6633.08
442.50	6586.27
442.68	6527.75
442.87	6511.37
443.05	6576.91
443.24	6642.44
443.43	6623.72
443.61	6640.10
443.80	6813.30
443.98	6633.08
444.17	6387.32
444.35	6677.55
444.54	6825.00
444.73	6773.51
444.91	6588.61
445.10	6569.88
445.28	6600.31
445.47	6513.71
445.65	6356.90
445.84	6913.94
446.02	6902.24
446.21	6801.60
446.39	6717.34
446.58	6909.26
446.77	7117.57
446.95	6839.05
447.14	6960.75
447.32	7019.27
447.51	6733.72
447.69	6869.47
447.88	6967.77
448.06	6913.94
448.25	6843.73
448.43	6951.39
448.62	7061.40
448.80	6733.72
448.99	7021.61
449.17	7239.28
449.36	7075.44
449.54	7213.53
449.73	7272.04
449.91	7412.48
450.10	7473.33
450.28	7384.39
450.46	7419.50
450.65	7417.16
450.83	7566.95
451.02	7370.35
451.20	7541.21
451.39	7644.19
451.57	7681.64
451.76	7482.69
451.94	7499.08
452.13	7676.96
452.31	7393.75
452.49	7419.50
452.68	7316.51
452.86	7569.29
453.05	7756.54
453.23	7438.22
453.42	7412.48
453.60	7665.25
453.78	7707.38
453.97	7513.12
454.15	7616.10
454.34	7627.81
454.52	7845.48
454.70	7744.83
454.89	7854.84
455.07	7761.22
455.26	8035.06
455.44	7985.91
455.62	8079.53
455.81	7934.42
455.99	8156.77
456.17	8152.09
456.36	8215.28
456.54	8226.98
456.73	8184.85
456.91	8449.33
457.09	8531.25
457.28	8554.66
457.46	8390.82
457.64	8411.89
457.83	8332.31
458.01	8276.13
458.19	8470.40
458.38	8381.46
458.56	8510.19
458.74	8730.20
458.93	8418.91
459.11	8552.32
459.29	8482.10
459.48	8592.11
459.66	8664.66
459.84	8758.28
460.03	8739.56
460.21	8568.70
460.39	8718.50
460.57	8793.39
460.76	8748.92
460.94	9090.64
461.12	8968.93
461.31	8910.42
461.49	8851.91
461.67	8994.68
461.85	9123.41
462.04	8879.99
462.22	9500.23
462.40	9430.02
462.59	9116.39
462.77	9064.89
462.95	9170.22
463.13	9088.30
463.32	8973.61
463.50	9542.36
463.68	9291.93
463.86	9291.93
464.05	9291.93
464.23	9067.24
464.41	9331.72
464.59	9202.99
464.78	9563.43
464.96	9455.76
465.14	9427.68
465.32	9535.34
465.50	9598.54
465.69	9563.43
465.87	9610.24
466.05	9427.68
466.23	9619.60
466.41	9460.45
466.60	9678.12
466.78	9530.66
466.96	9366.82
467.14	9767.06
467.32	9760.03
467.51	9750.67
467.69	9652.37
467.87	9713.22
468.05	9820.89
468.23	9785.78
468.41	9860.68
468.60	9755.35
468.78	9830.25
468.96	9846.63
469.14	10012.81
469.32	10176.65
469.50	9909.83
469.69	10080.69
469.87	10183.67
470.05	9916.85
470.23	10202.40
470.41	10289.00
470.59	10183.67
470.77	10345.17
470.95	10272.61
471.14	10366.23
471.32	10340.49
471.50	10782.85
471.68	10619.01
471.86	10530.07
472.04	10611.99
472.22	10792.21
472.40	10764.12
472.58	10801.57
472.77	10876.47
472.95	10951.37
473.13	11194.78
473.31	10953.71
473.49	11014.56
473.67	11012.22
473.85	11246.27
474.03	11328.19
474.21	11391.39
474.39	11339.90
474.57	11412.45
474.75	11417.13
474.93	11346.92
475.12	11468.62
475.30	11639.48
475.48	11761.19
475.66	11843.11
475.84	11524.80
476.02	11751.83
476.20	11693.32
476.38	11969.50
476.56	12262.07
476.74	12238.66
476.92	12294.83
477.10	12198.87
477.28	12486.76
477.46	12304.20
477.64	12486.76
477.82	12898.69
478.00	13006.36
478.18	13029.76
478.36	12947.84
478.54	13055.51
478.72	13289.56
478.90	13214.66
479.08	13657.03
479.26	13572.77
479.44	13671.07
479.62	13638.30
479.80	13668.73
479.98	13788.10
480.16	14073.64
480.34	14083.00
480.52	14284.29
480.70	14235.14
480.88	14085.34
481.06	14139.18
481.24	14331.10
481.41	14789.85
481.59	14815.59
481.77	14721.97
481.95	15014.54
482.13	14913.89
482.31	15000.49
482.49	15442.85
482.67	15255.61
482.85	15484.98
483.03	15676.91
483.21	15796.28
483.39	15990.54
483.57	15749.46
483.74	15971.82
483.92	16100.55
484.10	16098.20
484.28	16196.51
484.46	16631.85
484.64	17064.85
484.82	16287.79
485.00	16631.85
485.18	17041.44
485.35	17018.04
485.53	16460.99
485.71	16681.00
485.89	16957.18
486.07	16872.92
486.25	17280.18
486.43	17326.99
486.61	17486.14
486.78	17542.32
486.96	17933.18
487.14	18078.30
487.32	18197.67
487.50	18548.75
487.68	18724.29
487.85	18780.46
488.03	19000.47
488.21	19257.93
488.39	19220.48
488.57	18892.80
488.75	19386.66
488.92	19587.94
489.10	19744.76
489.28	20004.56
489.46	20299.47
489.64	20238.61
489.81	20594.37
489.99	20748.85
490.17	20805.02
490.35	21067.16
490.53	20964.18
490.70	21355.05
490.88	21242.70
491.06	21759.96
491.24	21429.94
491.41	21191.21
491.59	21521.23
491.77	21160.78
491.95	21357.39
492.13	21951.88
492.30	22057.21
492.48	22497.23
492.66	22258.49
492.84	22520.63
493.01	23047.26
493.19	22494.89
493.37	22995.76
493.54	22965.34
493.72	23206.41
493.90	23529.41
494.08	23473.23
494.25	23784.52
494.43	24030.28
494.61	24079.43
494.79	24254.97
494.96	24163.69
495.14	24030.28
495.32	24339.23
495.49	24336.89
495.67	24421.15
495.85	24910.32
496.02	24617.75
496.20	24884.58
496.38	25195.87
496.55	25266.08
496.73	25671.00
496.91	25441.62
497.09	26008.03
497.26	25891.01
497.44	25862.92
497.62	25998.67
497.79	26015.05
497.97	25825.47
498.14	25986.97
498.32	26082.93
498.50	26494.86
498.67	26852.97
498.85	26757.00
499.03	26654.02
499.20	27091.70
499.38	27197.02
499.56	27140.85
499.73	27456.82
499.91	27185.32
500.08	27716.62
500.26	27295.33
500.44	27164.26
500.61	27702.58
500.79	27346.82
500.97	27772.80
501.14	28273.67
501.32	27634.71
501.49	27929.61
501.67	28283.03
501.84	28325.16
502.02	28336.87
502.20	28896.25
502.37	28489.00
502.55	28886.89
502.72	29343.30
502.90	28519.43
503.07	28816.68
503.25	28912.64
503.43	28987.53
503.60	28793.27
503.78	28929.02
503.95	28858.81
504.13	29270.74
504.30	29724.80
504.48	29102.22
504.65	30078.22
504.83	29846.51
505.01	30054.82
505.18	29940.13
505.36	30382.49
505.53	30349.73
505.71	30614.21
505.88	30635.27
506.06	30331.00
506.23	30504.20
506.41	29942.47
506.58	31033.16
506.76	30506.54
506.93	31236.79
507.11	30967.63
507.28	30960.61
507.46	30937.20
507.63	31019.12
507.81	31089.34
507.98	31335.09
508.16	31197.00
508.33	31660.43
508.50	31725.96
508.68	31704.90
508.85	32060.66
509.03	32086.40
509.20	31770.43
509.38	32404.72
509.55	32549.83
509.73	32180.03
509.90	32547.49
510.08	32299.39
510.25	32259.60
510.42	32048.96
510.60	32425.78
510.77	32858.78
510.95	33305.82
511.12	32821.33
511.30	33013.26
511.47	33376.04
511.64	33261.35
511.82	33338.59
511.99	33008.58
512.17	33352.63
512.34	32910.27
512.51	33825.42
512.69	33514.13
512.86	33809.04
513.04	34017.35
513.21	34043.09
513.38	34045.43
513.56	33769.25
513.73	33479.02
513.90	34015.01
514.08	33933.09
514.25	34148.42
514.43	34277.15
514.60	34068.84
514.77	34075.86
514.95	34291.19
515.12	34806.11
515.29	34438.64
515.47	34871.64
515.64	34881.00
515.81	35054.20
515.99	34466.73
516.16	34548.65
516.33	34181.18
516.51	34476.09
516.68	34232.68
516.85	34094.58
517.03	34733.55
517.20	34974.63
517.37	35222.72
517.54	35091.65
517.72	35407.62
517.89	34960.58
518.06	34941.86
518.24	35185.27
518.41	35091.65
518.58	35557.42
518.75	35576.14
518.93	36154.26
519.10	35761.05
519.27	36030.21
519.45	35627.63
519.62	36369.58
519.79	36105.10
519.96	36587.25
520.14	36912.59
520.31	36655.13
520.48	36797.90
520.65	36563.85
520.83	37038.98
521.00	36978.12
521.17	36650.45
521.34	37048.34
521.52	37132.60
521.69	37359.63
521.86	37275.37
522.03	37378.36
522.20	37493.04
522.38	37092.81
522.55	37357.29
522.72	37322.18
522.89	37401.76
523.07	37862.85
523.24	37474.32
523.41	37900.29
523.58	37684.97
523.75	38223.29
523.92	37869.87
524.10	38546.28
524.27	38286.48
524.44	38162.43
524.61	38513.52
524.78	38632.88
524.96	38632.88
525.13	38511.17
525.30	39028.43
525.47	39246.10
525.64	38820.13
525.81	38761.61
525.98	38246.69
526.16	38354.36
526.33	38286.48
526.50	38806.08
526.67	38433.94
526.84	38169.46
527.01	38457.34
527.18	38686.71
527.36	38930.13
527.53	39407.60
527.70	39356.11
527.87	39154.82
528.04	39438.03
528.21	39206.31
528.38	39117.37
528.55	39831.24
528.72	40013.80
528.89	39852.30
529.07	39941.24
529.24	39522.29
529.41	40273.60
529.58	39868.69
529.75	39517.60
529.92	39945.92
530.09	40147.21
530.26	40512.33
530.43	40243.17
530.60	40226.79
530.77	40076.99
530.94	40718.30
531.11	40170.61
531.28	41160.66
531.46	40318.07
531.63	40566.16
531.80	40409.35
531.97	40601.27
532.14	40524.04
532.31	40278.28
532.48	40437.44
532.65	40898.52
532.82	40407.01
532.99	40545.10
533.16	40643.40
533.33	40685.53
533.50	41031.93
533.67	41177.04
533.84	41062.36
534.01	41043.63
534.18	41493.02
534.35	41607.70
534.52	41516.42
534.69	41345.56
534.86	41567.91
535.03	41329.18
535.20	41832.39
535.37	41439.18
535.54	41998.57
535.71	42003.25
535.88	41457.91
536.05	41832.39
536.22	41909.63
536.38	42003.25
536.55	41804.31
536.72	41752.82
536.89	41422.80
537.06	41481.31
537.23	41661.54
537.40	42302.84
537.57	42169.43
537.74	42373.06
537.91	42396.46
538.08	42199.86
538.25	42326.25
538.42	42597.75
538.59	42234.97
538.75	42211.56
538.92	42380.08
539.09	42632.86
539.26	42270.08
539.43	42480.72
539.60	42326.25
539.77	42391.78
539.94	42651.58
540.11	42384.76
540.28	42543.92
540.44	42260.71
540.61	42618.81
540.78	42417.53
540.95	42433.91
541.12	42892.66
541.29	42899.68
541.46	42735.84
541.62	43005.00
541.79	43213.31
541.96	42691.37
542.13	42883.30
542.30	43316.29
542.47	43126.71
542.63	43065.86
542.80	43077.56
542.97	43274.16
543.14	43880.36
543.31	43714.19
543.48	44116.76
543.64	44018.46
543.81	43821.85
543.98	44194.00
544.15	43920.15
544.32	44013.77
544.48	44376.56
544.65	43962.28
544.82	44243.15
544.99	43849.94
545.16	43761.00
545.32	43831.21
545.49	44339.11
545.66	44357.83
545.83	44020.80
546.00	44636.36
546.16	44186.97
546.33	43971.64
546.50	44130.80
546.67	44076.97
546.83	44088.67
547.00	44685.51
547.17	44748.70
547.34	44109.74
547.50	44147.18
547.67	44641.04
547.84	44502.95
548.00	44793.17
548.17	44622.31
548.34	44446.77
548.51	44975.73
548.67	44765.09
548.84	44666.78
549.01	45076.38
549.18	44954.67
549.34	44982.76
549.51	44914.88
549.68	44861.05
549.84	44868.07
550.01	44968.71
550.18	45092.76
550.34	44933.60
550.51	45050.63
550.68	45031.91
550.84	44371.88
551.01	45148.93
551.18	45155.96
551.34	45071.70
551.51	45434.48
551.68	45296.39
551.84	45411.07
552.01	45439.16
552.18	45495.33
552.34	45198.09
552.51	45352.56
552.68	45291.71
552.84	45605.34
553.01	45832.37
553.18	45645.13
553.34	45338.52
553.51	45392.35
553.67	45804.28
553.84	45703.64
554.01	46010.25
554.17	45841.73
554.34	45986.85
554.51	45415.76
554.67	46038.34
554.84	46036.00
555.00	45703.64
555.17	45319.79
555.33	46021.95
555.50	45942.38
555.67	46003.23
555.83	45762.15
556.00	46127.28
556.16	46265.37
556.33	45937.69
556.50	46085.15
556.66	46155.36
556.83	45897.91
556.99	46241.96
557.16	46014.93
557.32	46057.06
557.49	46307.50
557.65	45729.39
557.82	46094.51
557.98	46033.66
558.15	45869.82
558.32	46415.16
558.48	46160.05
558.65	46087.49
558.81	46391.76
558.98	46391.76
559.14	45991.53
559.31	46344.95
559.47	46536.87
559.64	46286.43
559.80	46719.43
559.97	46508.79
560.13	46316.86
560.30	46274.73
560.46	46501.76
560.63	46347.29
560.79	46513.47
560.96	46773.27
561.12	46630.49
561.29	46497.08
561.45	46518.15
561.61	46445.59
561.78	46241.96
561.94	46302.82
562.11	46763.90
562.27	46010.25
562.44	46571.98
562.60	47072.85
562.77	46522.83
562.93	46340.27
563.10	46843.48
563.26	46260.69
563.42	46660.92
563.59	46696.03
563.75	46316.86
563.92	46763.90
564.08	47131.37
564.24	47232.01
564.41	46791.99
564.57	46967.53
564.74	46686.67
564.90	46801.35
565.07	46476.02
565.23	46607.09
565.39	46644.54
565.56	46909.02
565.72	46588.36
565.88	46848.16
566.05	46927.74
566.21	46866.89
566.38	46728.80
566.54	46934.76
566.70	47161.79
566.87	47157.11
567.03	47054.13
567.19	47023.70
567.36	46857.52
567.52	46925.40
567.68	46909.02
567.85	46890.29
568.01	46726.46
568.17	46876.25
568.34	47129.03
568.50	47189.88
568.66	46843.48
568.83	46794.33
568.99	46820.08
569.15	46777.95
569.32	47093.92
569.48	46684.33
569.64	46983.91
569.81	47199.24
569.97	47026.04
570.13	46880.93
570.30	46422.19
570.46	46857.52
570.62	46883.27
570.78	46490.06
570.95	46937.10
571.11	47210.95
571.27	47002.64
571.43	46560.28
571.60	47206.26
571.76	47178.18
571.92	46920.72
572.09	47351.38
572.25	47049.45
572.41	47091.58
572.57	47232.01
572.74	47482.45
572.90	47459.04
573.06	47114.98
573.22	47255.42
573.38	47215.63
573.55	46944.12
573.71	47140.73
573.87	46656.24
574.03	46925.40
574.20	47194.56
574.36	46904.34
574.52	47105.62
574.68	47004.98
574.84	47276.48
575.01	47082.22
575.17	47061.15
575.33	47136.05
575.49	47091.58
575.65	47356.06
575.82	47587.77
575.98	46803.69
576.14	47667.35
576.30	47407.55
576.46	47138.39
576.62	47304.57
576.79	47133.71
576.95	46740.50
577.11	47023.70
577.27	47253.08
577.43	47208.61
577.59	47351.38
577.75	46581.34
577.92	46976.89
578.08	46859.87
578.24	47007.32
578.40	47140.73
578.56	47210.95
578.72	46916.04
578.88	47014.34
579.04	46986.25
579.21	47189.88
579.37	47096.26
579.53	47100.94
579.69	46747.52
579.85	47374.78
580.01	47215.63
580.17	46976.89
580.33	47377.12
580.49	47033.07
580.65	47449.68
580.82	47555.00
580.98	47325.63
581.14	47182.86
581.30	47398.19
581.46	47625.22
581.62	47072.85
581.78	47107.96
581.94	47566.71
582.10	47405.21
582.26	47437.98
582.42	47105.62
582.58	47767.99
582.74	46806.03
582.90	47543.30
583.06	47391.17
583.22	47573.73
583.38	47576.07
583.54	47557.35
583.70	47311.59
583.86	47559.69
584.02	47192.22
584.18	47714.16
584.34	47173.50
584.50	47276.48
584.66	47070.51
584.82	47381.80
584.98	47508.19
585.14	47004.98
585.30	47140.73
585.46	47714.16
585.62	46892.63
585.78	47131.37
585.94	46883.27
586.10	47096.26
586.26	47012.00
586.42	47676.71
586.58	47313.93
586.74	47304.57
586.90	47002.64
587.06	47229.67
587.22	47526.92
587.38	46972.21
587.54	47665.01
587.70	47367.76
587.86	47260.10
588.02	47402.87
588.18	47068.17
588.34	47459.04
588.49	47154.77
588.65	46663.26
588.81	46990.94
588.97	46930.08
589.13	46817.74
589.29	46848.16
589.45	47356.06
589.61	47580.75
589.77	47498.83
589.93	47213.29
590.08	47152.43
590.24	47419.25
590.40	47143.07
590.56	47346.70
590.72	47365.42
590.88	47285.84
591.04	47215.63
591.20	47753.95
591.35	47636.92
591.51	48175.25
591.67	47494.15
591.83	47243.71
591.99	47517.56
592.15	47196.90
592.31	47468.40
592.46	47796.08
592.62	47327.97
592.78	47466.06
592.94	47592.45
593.10	47229.67
593.26	47131.37
593.41	47349.04
593.57	47058.81
593.73	47374.78
593.89	47442.66
594.05	47517.56
594.20	47243.71
594.36	48200.99
594.52	47885.02
594.68	46979.23
594.84	47522.24
594.99	47861.61
595.15	47372.44
595.31	47737.57
595.47	47379.46
595.62	47402.87
595.78	47414.57
595.94	47718.84
596.10	47650.97
596.25	47730.54
596.41	47283.50
596.57	47693.10
596.73	47763.31
596.88	47370.10
597.04	47833.53
597.20	47351.38
597.36	47552.66
597.51	47875.66
597.67	47407.55
597.83	47515.22
597.99	47522.24
598.14	47185.20
598.30	47505.85
598.46	47386.49
598.61	47330.31
598.77	47124.35
598.93	47449.68
599.09	47365.42
599.24	47704.80
599.40	47522.24
599.56	47756.29
599.71	47452.02
599.87	47632.24
600.03	47463.72
600.18	47271.80
600.34	47313.93
600.50	47033.07
600.65	47440.32
600.81	47681.39
600.97	47650.97
601.12	47962.26
601.28	48079.28
601.44	47185.20
601.59	47185.20
601.75	47213.29
601.91	47313.93
602.06	47215.63
602.22	47655.65
602.37	47311.59
602.53	47292.86
602.69	47988.00
602.84	47517.56
603.00	47353.72
603.16	47543.30
603.31	47503.51
603.47	47480.11
603.62	47377.12
603.78	47388.83
603.94	47543.30
604.09	47739.91
604.25	47508.19
604.40	47253.08
604.56	47194.56
604.71	47114.98
604.87	47512.88
605.03	47353.72
605.18	47157.11
605.34	47491.81
605.49	47187.54
605.65	47152.43
605.80	47327.97
605.96	47082.22
606.12	47489.47
606.27	47517.56
606.43	47028.38
606.58	47288.18
606.74	47173.50
606.89	47269.46
607.05	47232.01
607.20	47239.03
607.36	47512.88
607.51	47669.69
607.67	47468.40
607.82	47255.42
607.98	47147.75
608.13	46859.87
608.29	46843.48
608.44	46808.37
608.60	46705.39
608.75	46618.79
608.91	46719.43
609.06	46829.44
609.22	47004.98
609.37	46801.35
609.53	47334.99
609.68	46789.65
609.84	46831.78
609.99	47047.11
610.15	46883.27
610.30	47136.05
610.46	46232.60
610.61	46869.23
610.76	46684.33
610.92	46316.86
611.07	46946.47
611.23	46813.05
611.38	46590.70
611.54	46567.30
611.69	46777.95
611.84	46258.35
612.00	46656.24
612.15	46604.75
612.31	47012.00
612.46	46686.67
612.62	46784.97
612.77	46047.70
612.92	46930.08
613.08	46665.60
613.23	46469.00
613.39	46536.87
613.54	45839.39
613.69	46134.30
613.85	46211.54
614.00	46597.73
614.15	46698.37
614.31	46562.62
614.46	46686.67
614.62	46653.90
614.77	45881.52
614.92	45916.63
615.08	46178.77
615.23	46183.45
615.38	46246.65
615.54	46223.24
615.69	45897.91
615.84	45581.93
616.00	45720.02
616.15	46209.20
616.30	46279.41
616.46	46117.92
616.61	45495.33
616.76	46307.50
616.92	45443.84
617.07	45661.51
617.22	46153.02
617.37	45961.10
617.53	46120.26
617.68	45560.87
617.83	46169.41
617.99	45776.20
618.14	46188.13
618.29	45923.65
618.45	45567.89
618.60	45923.65
618.75	45642.79
618.90	45705.98
619.06	45411.07
619.21	45387.67
619.36	45827.69
619.51	45684.92
619.67	45858.12
619.82	45921.31
619.97	45284.68
620.12	45205.11
620.28	45298.73
620.43	45457.88
620.58	45645.13
620.73	45406.39
620.89	45167.66
621.04	45677.90
621.19	45155.96
621.34	45015.52
621.49	44636.36
621.65	44737.00
621.80	44851.69
621.95	45209.79
622.10	45181.70
622.25	45017.86
622.41	44949.99
622.56	44655.08
622.71	45081.06
622.86	44629.34
623.01	45432.14
623.16	45008.50
623.32	45577.25
623.47	45235.53
623.62	45085.74
623.77	44767.43
623.92	45029.57
624.07	44528.69
624.23	44414.01
624.38	44547.42
624.53	44781.47
624.68	45015.52
624.83	44814.24
624.98	44746.36
625.13	44526.35
625.29	44259.53
625.44	44341.45
625.59	44456.14
625.74	44526.35
625.89	43756.32
626.04	44011.43
626.19	44165.91
626.34	44222.08
626.49	44210.38
626.65	43903.77
626.80	44224.42
626.95	43782.06
627.10	43786.74
627.25	43442.68
627.40	43562.05
627.55	43545.67
627.70	43613.54
627.85	43718.87
628.00	44271.23
628.15	44259.53
628.30	43749.29
628.45	43672.06
628.60	43627.59
628.76	44308.68
628.91	43370.13
629.06	43737.59
629.21	43749.29
629.36	43814.83
629.51	42958.19
629.66	43735.25
629.81	43620.56
629.96	43796.10
630.11	43206.29
630.26	44109.74
630.41	43709.50
630.56	43494.18
630.71	42946.49
630.86	43302.25
631.01	43470.77
631.16	43229.69
631.31	43009.68
631.46	42887.98
631.61	42866.91
631.76	42726.48
631.91	43220.33
632.06	43110.33
632.21	43178.20
632.36	43363.11
632.51	43028.41
632.66	43459.07
632.81	42674.99
632.96	42883.30
633.10	42691.37
633.25	42834.14
633.40	43306.93
633.55	43140.75
633.70	43126.71
633.85	42749.88
634.00	42986.28
634.15	42897.34
634.30	42810.74
634.45	42660.94
634.60	42550.94
634.75	43054.15
634.90	42822.44
635.05	42555.62
635.19	42782.65
635.34	43070.54
635.49	43056.50
635.64	42492.43
635.79	42464.34
635.94	42476.04
636.09	42377.74
636.24	42658.60
636.39	42169.43
636.53	42319.23
636.68	42405.83
636.83	42244.33
636.98	42139.00
637.13	42122.62
637.28	42511.15
637.43	42459.66
637.57	42440.93
637.72	42209.22
637.87	42288.80
638.02	41958.78
638.17	42438.59
638.32	42136.66
638.46	41881.55
638.61	42057.09
638.76	41921.34
638.91	41982.19
639.06	41914.31
639.20	41668.56
639.35	42457.32
639.50	42024.32
639.65	41993.89
639.80	41928.36
639.94	42012.62
640.09	41486.00
640.24	41212.15
640.39	41694.30
640.54	41291.73
640.68	41179.39
640.83	41539.83
640.98	41521.10
641.13	41247.26
641.27	41720.05
641.42	41675.58
641.57	41897.93
641.72	41478.97
641.86	41146.62
642.01	40816.60
642.16	41123.21
642.31	40987.46
642.45	41209.81
642.60	40957.03
642.75	40652.76
642.90	41240.24
643.04	41174.70
643.19	41387.69
643.34	41516.42
643.48	40924.27
643.63	41364.29
643.78	40964.06
643.93	40905.54
644.07	40589.57
644.22	41022.57
644.37	40844.69
644.51	40669.15
644.66	41071.72
644.81	40830.65
644.95	40931.29
645.10	40769.79
645.25	41109.17
645.39	40872.78
645.54	40928.95
645.69	40634.04
645.83	40683.19
645.98	41078.74
646.13	40514.67
646.27	40519.35
646.42	40425.73
646.57	40779.15
646.71	40133.17
646.86	40664.47
647.00	40435.10
647.15	40142.53
647.30	40362.54
647.44	40648.08
647.59	40343.81
647.74	40191.68
647.88	40271.26
648.03	40058.27
648.17	40151.89
648.32	39929.54
648.47	39924.86
648.61	40058.27
648.76	40645.74
648.90	39882.73
649.05	40294.66
649.20	39894.43
649.34	40088.70
649.49	39976.35
649.63	39688.46
649.78	40002.10
649.92	39955.29
650.07	39779.74
650.21	39302.28
650.36	39952.94
650.51	39550.37
650.65	40009.12
650.80	39880.39
650.94	40240.83
651.09	39791.45
651.23	39627.61
651.38	39686.12
651.52	39599.52
651.67	39817.19
651.81	40023.16
651.96	39393.56
652.10	39395.90
652.25	39206.31
652.39	39480.16
652.54	39374.83
652.68	39737.62
652.83	39248.44
652.97	39503.56
653.12	39442.71
653.26	39615.91
653.41	39353.77
653.55	38803.74
653.70	39196.95
653.84	39133.76
653.99	39367.81
654.13	39370.15
654.27	38873.96
654.42	39019.07
654.56	39007.37
654.71	39473.13
654.85	38927.79
655.00	38948.85
655.14	38780.34
655.29	38759.27
655.43	38663.31
655.57	38522.88
655.72	38403.51
655.86	38410.53
656.01	38036.05
656.15	37984.55
656.30	38405.85
656.44	38396.49
656.58	38178.82
656.73	38401.17
656.87	38312.23
657.01	37689.65
657.16	38092.22
657.30	38373.08
657.45	38295.85
657.59	38328.61
657.73	38092.22
657.88	38464.36
658.02	38010.30
658.16	37968.17
658.31	38532.24
658.45	38408.19
658.60	38040.73
658.74	38010.30
658.88	38045.41
659.03	38433.94
659.17	37797.31
659.31	38373.08
659.46	37553.90
659.60	37787.95
659.74	37659.22
659.89	37544.53
660.03	37413.46
660.17	37773.91
660.32	37748.16
660.46	37886.25
660.60	38010.30
660.74	37804.33
660.89	37490.70
661.03	36978.12
661.17	37268.35
661.32	37383.04
661.46	37083.45
661.60	37144.30
661.74	37158.34
661.89	37244.94
662.03	37008.55
662.17	36875.14
662.31	36804.92
662.46	37191.11
662.60	37354.95
662.74	36980.46
662.88	36825.99
663.03	36973.44
663.17	36367.24
663.31	36364.90
663.45	36872.80
663.60	36594.28
663.74	36664.49
663.88	36191.70
664.02	36205.75
664.17	36510.02
664.31	36425.76
664.45	36180.00
664.59	36278.30
664.73	36112.13
664.88	36341.50
665.02	35913.18
665.16	35910.84
665.30	36278.30
665.44	35971.69
665.59	35723.60
665.73	35700.19
665.87	35215.70
666.01	35648.70
666.15	35634.66
666.29	35405.28
666.44	35693.17
666.58	35817.22
666.72	36030.21
666.86	35864.03
667.00	35938.93
667.14	35541.03
667.28	35227.40
667.43	34911.43
667.57	35105.70
667.71	35267.19
667.85	34890.37
667.99	34824.83
668.13	34651.63
668.27	35012.07
668.41	34810.79
668.56	34665.67
668.70	34855.26
668.84	34728.87
668.98	34440.98
669.12	34710.14
669.26	34808.45
669.40	34464.39
669.54	34340.34
669.68	34429.28
669.82	33963.51
669.96	34167.14
670.10	33687.33
670.25	34015.01
670.39	33937.77
670.53	34171.82
670.67	33654.56
670.81	33689.67
670.95	34483.11
671.09	33701.37
671.23	33827.76
671.37	33986.92
671.51	33586.69
671.65	33422.85
671.79	33364.34
671.93	33170.07
672.07	33413.49
672.21	33200.50
672.35	33022.62
672.49	32910.27
672.63	33151.35
672.77	32800.27
672.91	32774.52
673.05	33186.46
673.19	32978.15
673.33	32741.75
673.47	32577.92
673.61	32187.05
673.75	32414.08
673.89	32210.45
674.03	32217.47
674.17	32203.43
674.31	31894.48
674.45	31648.72
674.59	31983.42
674.73	32446.85
674.87	32257.26
675.01	31945.97
675.15	32074.70
675.29	32027.89
675.43	31847.67
675.56	31868.73
675.70	31541.06
675.84	31407.65
675.98	30604.84
676.12	31339.77
676.26	31222.75
676.40	30976.99
676.54	31194.66
676.68	31042.53
676.82	30771.02
676.96	30382.49
677.10	30501.86
677.23	30162.48
677.37	30574.42
677.51	30462.07
677.65	30026.73
677.79	30085.25
677.93	30132.06
678.07	30094.61
678.21	29818.42
678.34	29696.72
678.48	29621.82
678.62	29378.40
678.76	29289.46
678.90	29479.05
679.04	29769.27
679.18	29427.56
679.31	29032.00
679.45	29326.91
679.59	28741.78
679.73	29109.24
679.87	29046.05
680.00	29167.76
680.14	28854.12
680.28	28404.74
680.42	28498.36
680.56	28376.66
680.70	28236.22
680.83	28177.71
680.97	28325.16
681.11	27915.57
681.25	27725.99
681.39	28088.77
681.52	27976.42
681.66	27686.20
681.80	27957.70
681.94	27360.86
682.07	27274.26
682.21	27496.61
682.35	27393.63
682.49	27384.27
682.62	27101.06
682.76	26927.86
682.90	26902.12
683.04	27379.59
683.17	27037.87
683.31	26820.20
683.45	26672.74
683.59	26408.26
683.72	26455.08
683.86	26274.85
684.00	25778.66
684.13	26380.18
684.27	26155.49
684.41	25865.26
684.55	25818.45
684.68	25727.17
684.82	25663.97
684.96	25298.85
685.09	25415.88
685.23	25621.84
685.37	25387.79
685.50	25504.82
685.64	25228.63
685.78	25291.83
685.91	25308.21
686.05	25177.14
686.19	24957.13
686.32	25010.96
686.46	24559.24
686.60	24041.98
686.73	24006.87
686.87	24056.03
687.01	23690.90
687.14	23967.09
687.28	23491.96
687.42	23747.08
687.55	23639.41
687.69	23653.45
687.82	23454.51
687.96	23412.38
688.10	23662.82
688.23	23660.48
688.37	23063.64
688.50	23096.41
688.64	23080.02
688.78	23012.15
688.91	22775.75
689.05	22864.69
689.18	22876.40
689.32	22391.91
689.46	22691.49
689.59	22754.69
689.73	22663.41
689.86	22361.48
690.00	22232.75
690.13	22321.69
690.27	21994.01
690.41	22237.43
690.54	21926.14
690.68	21579.74
690.81	21727.19
690.95	21687.40
691.08	21642.93
691.22	21582.08
691.35	21640.59
691.49	21729.53
691.62	21661.66
691.76	21757.62
691.89	21600.80
692.03	21043.76
692.16	21483.78
692.30	21252.06
692.43	20964.18
692.57	20879.92
692.70	20870.56
692.84	21001.63
692.97	20540.54
693.11	20587.35
693.24	20325.21
693.38	20503.09
693.51	19992.86
693.65	20346.28
693.78	20208.19
693.92	19864.13
694.05	19819.66
694.19	19840.72
694.32	19995.20
694.45	20100.52
694.59	19742.42
694.72	19360.91
694.86	19531.77
694.99	19054.30
695.13	19185.37
695.26	19192.39
695.39	19164.31
695.53	19328.14
695.66	19309.42
695.80	18787.48
695.93	18789.82
696.07	18724.29
696.20	18684.50
696.33	18831.95
696.47	18787.48
696.60	18284.26
696.73	18398.95
696.87	18663.43
697.00	18412.99
697.14	18115.75
697.27	18061.91
697.40	18054.89
697.54	17884.03
697.67	18043.19
697.80	17748.28
697.94	17685.09
698.07	17848.93
698.21	17366.78
698.34	17642.96
698.47	17287.20
698.61	17252.09
698.74	17118.68
698.87	17137.40
699.01	17128.04
699.14	16968.88
699.27	17015.69
699.40	17195.92
699.54	16702.06
699.67	16648.23
699.80	16650.57
699.94	16856.54
700.07	16496.10
700.20	16418.86
700.34	16341.62
700.47	16442.26
700.60	16695.04
700.73	16350.98
700.87	16458.65
701.00	16056.08
701.13	15695.63
701.26	15932.03
701.40	15899.26
701.53	15700.31
701.66	15637.12
701.79	15599.67
701.93	15461.58
702.06	15344.55
702.19	15386.68
702.32	15033.26
702.46	15180.71
702.59	15190.08
702.72	15494.35
702.85	15164.33
702.99	14841.34
703.12	15208.80
703.25	15143.27
703.38	14839.00
703.51	14761.76
703.65	14532.39
703.78	14597.92
703.91	14888.15
704.04	14295.99
704.17	14424.72
704.31	14487.92
704.44	14221.10
704.57	14494.94
704.70	14050.24
704.83	14244.50
704.96	14359.19
705.10	14078.32
705.23	14284.29
>>>>>End Processed Spectral Data<<<<<
