SpectraSuite Data File
++++++++++++++++++++++++++++++++++++
Date: Fri Oct 25 11:34:49 EDT 2013
User: price-jones
Dark Spectrum Present: No
Reference Spectrum Present: No
Number of Sampled Component Spectra: 1
Spectrometers: USB2+H05261
Integration Time (usec): 100000 (USB2+H05261)
Spectra Averaged: 1 (USB2+H05261)
Boxcar Smoothing: 0 (USB2+H05261)
Correct for Electrical Dark: No (USB2+H05261)
Strobe/Lamp Enabled: No (USB2+H05261)
Correct for Detector Non-linearity: No (USB2+H05261)
Correct for Stray Light: No (USB2+H05261)
Number of Pixels in Processed Spectrum: 2048
>>>>>Begin Processed Spectral Data<<<<<
365.73	348.74
365.92	348.74
366.12	348.74
366.32	194.26
366.52	187.24
366.72	227.03
366.91	180.22
367.11	177.88
367.31	145.11
367.51	95.96
367.70	201.29
367.90	205.97
368.10	159.16
368.30	234.05
368.49	191.92
368.69	145.11
368.89	252.78
369.09	124.05
369.28	177.88
369.48	201.29
369.68	222.35
369.87	259.80
370.07	292.57
370.27	227.03
370.47	276.18
370.66	470.45
370.86	505.56
371.06	561.73
371.25	564.07
371.45	531.30
371.65	594.50
371.84	601.52
372.04	496.19
372.24	545.34
372.44	575.77
372.63	561.73
372.83	631.94
373.03	528.96
373.22	589.82
373.42	571.09
373.62	575.77
373.81	638.97
374.01	732.59
374.21	676.41
374.40	650.67
374.60	585.13
374.79	643.65
374.99	582.79
375.19	676.41
375.38	697.48
375.58	636.63
375.78	683.44
375.97	653.01
376.17	669.39
376.37	723.23
376.56	594.50
376.76	636.63
376.95	622.58
377.15	662.37
377.35	578.11
377.54	660.03
377.74	730.25
377.93	650.67
378.13	713.86
378.33	718.54
378.52	755.99
378.72	725.57
378.91	727.91
379.11	739.61
379.31	690.46
379.50	751.31
379.70	760.67
379.89	791.10
380.09	744.29
380.28	732.59
380.48	737.27
380.68	671.73
380.87	674.07
381.07	664.71
381.26	725.57
381.46	798.12
381.65	713.86
381.85	779.40
382.04	779.40
382.24	727.91
382.43	751.31
382.63	784.08
382.83	727.91
383.02	854.30
383.22	812.17
383.41	753.65
383.61	795.78
383.80	793.44
384.00	760.67
384.19	809.83
384.39	849.61
384.58	748.97
384.78	882.38
384.97	793.44
385.17	847.27
385.36	849.61
385.56	760.67
385.75	746.63
385.95	830.89
386.14	805.14
386.34	816.85
386.53	793.44
386.72	866.00
386.92	903.45
387.11	851.96
387.31	842.59
387.50	821.53
387.70	779.40
387.89	835.57
388.09	898.77
388.28	858.98
388.48	866.00
388.67	966.64
388.86	976.00
389.06	882.38
389.25	915.15
389.45	858.98
389.64	922.17
389.84	926.85
390.03	1015.79
390.22	873.02
390.42	898.77
390.61	931.53
390.81	926.85
391.00	940.90
391.19	908.13
391.39	924.51
391.58	957.28
391.78	1006.43
391.97	1020.47
392.16	938.55
392.36	990.05
392.55	987.71
392.75	1050.90
392.94	973.66
393.13	1034.52
393.33	983.02
393.52	1025.15
393.71	1111.75
393.91	1067.28
394.10	961.96
394.29	1135.16
394.49	1064.94
394.68	1125.80
394.88	992.39
395.07	1025.15
395.26	1046.22
395.46	1121.12
395.65	1181.97
395.84	1116.44
396.04	1259.21
396.23	1188.99
396.42	1156.22
396.62	1188.99
396.81	1163.25
397.00	1254.53
397.19	1165.59
397.39	1128.14
397.58	1252.19
397.77	1224.10
397.97	1270.91
398.16	1268.57
398.35	1270.91
398.55	1179.63
398.74	1275.59
398.93	1329.42
399.12	1219.42
399.32	1270.91
399.51	1390.28
399.70	1455.81
399.90	1266.23
400.09	1345.81
400.28	1315.38
400.47	1245.16
400.67	1362.19
400.86	1282.61
401.05	1434.75
401.24	1352.83
401.44	1423.05
401.63	1497.94
401.82	1378.58
402.01	1355.17
402.21	1399.64
402.40	1418.36
402.59	1376.24
402.78	1425.39
402.97	1380.92
403.17	1511.99
403.36	1504.96
403.55	1530.71
403.74	1589.22
403.93	1575.18
404.13	1523.69
404.32	1582.20
404.51	1507.30
404.70	1472.20
404.89	1568.16
405.09	1586.88
405.28	1727.32
405.47	1582.20
405.66	1682.85
405.85	1598.59
406.05	1703.91
406.24	1636.03
406.43	1643.06
406.62	1710.93
406.81	1724.97
407.00	1657.10
407.20	1631.35
407.39	1776.47
407.58	1753.06
407.77	1811.57
407.96	1837.32
408.15	1757.74
408.34	1778.81
408.54	1799.87
408.73	1844.34
408.92	1785.83
409.11	1818.60
409.30	1937.96
409.49	1790.51
409.68	1959.03
409.87	1933.28
410.07	1954.35
410.26	2019.88
410.45	1839.66
410.64	1977.75
410.83	2026.90
411.02	2125.21
411.21	2209.47
411.40	2099.46
411.59	2066.69
411.78	2057.33
411.98	2127.55
412.17	2143.93
412.36	2118.18
412.55	2115.84
412.74	2143.93
412.93	2195.42
413.12	2190.74
413.31	2471.61
413.50	2312.45
413.69	2303.09
413.88	2392.03
414.07	2277.34
414.26	2385.01
414.45	2305.43
414.64	2406.07
414.83	2478.63
415.02	2431.82
415.22	2565.23
415.41	2485.65
415.60	2614.38
415.79	2548.84
415.98	2588.63
416.17	2546.50
416.36	2612.04
416.55	2558.21
416.74	2684.59
416.93	2548.84
417.12	2574.59
417.31	2689.28
417.50	2640.12
417.69	2829.71
417.88	2789.92
418.07	2780.56
418.26	2696.30
418.45	2743.11
418.64	2986.52
418.83	3000.57
419.02	2979.50
419.21	2911.63
419.39	2939.71
419.58	2984.18
419.77	2864.82
419.96	2803.96
420.15	3019.29
420.34	3009.93
420.53	2930.35
420.72	3014.61
420.91	3155.04
421.10	2981.84
421.29	3082.49
421.48	3073.12
421.67	3075.46
421.86	3143.34
422.05	3082.49
422.24	3220.58
422.43	3204.19
422.61	3122.27
422.80	3236.96
422.99	3227.60
423.18	3295.47
423.37	3171.43
423.56	3183.13
423.75	3246.32
423.94	3169.09
424.13	2958.44
424.32	3138.66
424.50	3239.30
424.69	3281.43
424.88	3288.45
425.07	3187.81
425.26	3201.85
425.45	3143.34
425.64	3290.79
425.83	3211.22
426.01	3260.37
426.20	3412.50
426.39	3353.99
426.58	3435.91
426.77	3262.71
426.96	3283.77
427.15	3375.05
427.33	3269.73
427.52	3351.65
427.71	3328.24
427.90	3492.08
428.09	3485.06
428.28	3445.27
428.46	3644.21
428.65	3393.78
428.84	3515.48
429.03	3569.32
429.22	3471.01
429.40	3515.48
429.59	3611.45
429.78	3522.51
429.97	3475.70
430.16	3503.78
430.34	3609.11
430.53	3552.93
430.72	3733.15
430.91	3660.60
431.10	3707.41
431.28	3815.07
431.47	3847.84
431.66	3868.91
431.85	3829.12
432.03	3843.16
432.22	3985.93
432.41	3810.39
432.60	3882.95
432.79	3857.20
432.97	4081.89
433.16	3978.91
433.35	3880.61
433.54	3946.14
433.72	3971.89
433.91	3974.23
434.10	3901.67
434.28	3941.46
434.47	4126.36
434.66	4114.66
434.85	4154.45
435.03	4149.77
435.22	3976.57
435.41	4138.07
435.59	4133.39
435.78	4154.45
435.97	4203.60
436.16	4215.30
436.34	4112.32
436.53	4119.34
436.72	4337.01
436.90	4234.03
437.09	4360.42
437.28	4189.56
437.46	4421.27
437.65	4297.22
437.84	4250.41
438.02	4362.76
438.21	4514.89
438.40	4329.99
438.58	4458.72
438.77	4500.85
438.96	4599.15
439.14	4608.51
439.33	4690.43
439.52	4667.03
439.70	4798.10
439.89	4882.36
440.08	4744.27
440.26	4716.18
440.45	4692.77
440.63	4830.87
440.82	4826.18
441.01	4823.84
441.19	4964.28
441.38	4943.21
441.57	5025.13
441.75	4999.38
441.94	5179.61
442.12	5046.20
442.31	5256.84
442.50	5193.65
442.68	5158.54
442.87	4985.34
443.05	5156.20
443.24	5327.06
443.43	5226.42
443.61	5252.16
443.80	5413.66
443.98	5203.01
444.17	5111.73
444.35	5254.50
444.54	5310.68
444.73	5303.65
444.91	5376.21
445.10	5284.93
445.28	5334.08
445.47	5193.65
445.65	5322.38
445.84	5596.22
446.02	5392.59
446.21	5305.99
446.39	5336.42
446.58	5416.00
446.77	5387.91
446.95	5502.60
447.14	5348.12
447.32	5561.11
447.51	5317.70
447.69	5509.62
447.88	5554.09
448.06	5486.22
448.25	5504.94
448.43	5514.30
448.62	5518.98
448.80	5540.05
448.99	5706.23
449.17	5614.95
449.36	5530.69
449.54	5778.78
449.73	5832.62
449.91	5682.82
450.10	5547.07
450.28	5947.30
450.46	5886.45
450.65	5710.91
450.83	5757.72
451.02	5778.78
451.20	6078.37
451.39	5951.98
451.57	5818.57
451.76	5731.97
451.94	5870.06
452.13	5959.00
452.31	5753.04
452.49	5844.32
452.68	5856.02
452.86	5996.45
453.05	6083.05
453.23	5998.79
453.42	5968.37
453.60	5874.74
453.78	6043.26
453.97	5991.77
454.15	6057.31
454.34	6003.47
454.52	6169.65
454.70	6125.18
454.89	6078.37
455.07	6146.25
455.26	6221.14
455.44	6319.45
455.62	6326.47
455.81	6291.36
455.99	6459.88
456.17	6286.68
456.36	6464.56
456.54	6525.41
456.73	6427.11
456.91	6448.18
457.09	6621.38
457.28	6665.85
457.46	6394.34
457.64	6532.44
457.83	6630.74
458.01	6581.59
458.19	6696.27
458.38	6693.93
458.56	6883.52
458.74	6637.76
458.93	6801.60
459.11	6855.43
459.29	6829.68
459.48	6895.22
459.66	6773.51
459.84	6937.35
460.03	7054.37
460.21	6904.58
460.39	6974.80
460.57	7012.24
460.76	7007.56
460.94	7082.46
461.12	6979.48
461.31	7045.01
461.49	7007.56
461.67	7204.17
461.85	7239.28
462.04	7056.72
462.22	7321.20
462.40	7478.01
462.59	7222.89
462.77	7288.43
462.95	7358.64
463.13	7417.16
463.32	7365.67
463.50	7456.95
463.68	7527.16
463.86	7461.63
464.05	7293.11
464.23	7438.22
464.41	7581.00
464.59	7344.60
464.78	7641.85
464.96	7751.85
465.14	7501.42
465.32	7747.17
465.50	7815.05
465.69	7625.47
465.87	7691.00
466.05	7641.85
466.23	7742.49
466.41	7691.00
466.60	7948.46
466.78	7742.49
466.96	7784.62
467.14	7728.45
467.32	7913.35
467.51	7847.82
467.69	7669.94
467.87	7819.73
468.05	8142.72
468.23	7964.84
468.41	7997.61
468.60	7796.32
468.78	8119.32
468.96	7864.20
469.14	8210.60
469.32	8145.06
469.50	7786.96
469.69	8231.66
469.87	8329.97
470.05	8217.62
470.23	8280.82
470.41	8259.75
470.59	8571.04
470.77	8313.58
470.95	8304.22
471.14	8533.59
471.32	8353.37
471.50	8542.96
471.68	8315.92
471.86	8575.72
472.04	8564.02
472.22	8769.99
472.40	8578.06
472.58	8702.11
472.77	8674.03
472.95	8945.53
473.13	9177.24
473.31	8952.55
473.49	8784.03
473.67	8943.19
473.85	8959.57
474.03	9078.94
474.21	9287.25
474.39	9174.90
474.57	9153.84
474.75	9387.89
474.93	9565.77
475.12	9296.61
475.30	9406.61
475.48	9341.08
475.66	9462.79
475.84	9736.63
476.02	9584.49
476.20	9738.97
476.38	9830.25
476.56	9933.23
476.74	9977.70
476.92	10015.15
477.10	10092.39
477.28	10139.20
477.46	10129.84
477.64	10258.57
477.82	10427.09
478.00	10427.09
478.18	10272.61
478.36	10785.19
478.54	10576.88
478.72	10817.96
478.90	10806.25
479.08	10895.19
479.26	10871.79
479.44	11047.33
479.62	11136.27
479.80	11356.28
479.98	11255.64
480.16	11630.12
480.34	11293.08
480.52	11489.69
480.70	11412.45
480.88	11503.73
481.06	11543.52
481.24	11765.87
481.41	11698.00
481.59	12088.87
481.77	12255.04
481.95	12208.23
482.13	12294.83
482.31	12306.54
482.49	12409.52
482.67	12372.07
482.85	12540.59
483.03	12739.54
483.21	12847.20
483.39	13039.12
483.57	13036.78
483.74	13001.68
483.92	13259.13
484.10	13015.72
484.28	13418.29
484.46	13497.87
484.64	13689.79
484.82	13715.54
485.00	13823.20
485.18	14078.32
485.35	14286.63
485.53	13977.68
485.71	14101.73
485.89	14459.83
486.07	14761.76
486.25	14544.09
486.43	14633.03
486.61	14850.70
486.78	14593.24
486.96	15009.86
487.14	15206.46
487.32	15042.62
487.50	15082.41
487.68	15300.08
487.85	15508.39
488.03	15609.03
488.21	16018.63
488.39	15805.64
488.57	16009.26
488.75	16278.43
488.92	16299.49
489.10	16552.27
489.28	16741.85
489.46	16737.17
489.64	16503.12
489.81	17041.44
489.99	17170.17
490.17	17088.25
490.35	17521.25
490.53	17411.25
490.70	17474.44
490.88	17490.82
491.06	17759.98
491.24	17804.46
491.41	17888.71
491.59	18036.17
491.77	18192.98
491.95	18066.60
492.13	18541.72
492.30	18258.52
492.48	18572.15
492.66	18541.72
492.84	18792.16
493.01	18988.77
493.19	18930.25
493.37	18679.82
493.54	19208.78
493.72	19349.21
493.90	18998.13
494.08	19810.29
494.25	19719.01
494.43	19812.63
494.61	20084.14
494.79	19988.18
494.96	20002.22
495.14	20353.30
495.32	20486.71
495.49	20379.04
495.67	20400.11
495.85	20470.33
496.02	20779.28
496.20	21350.37
496.38	20919.71
496.55	20971.20
496.73	21710.81
496.91	21355.05
497.09	21635.91
497.26	21282.49
497.44	21509.52
497.62	21928.48
497.79	21982.31
497.97	21858.26
498.14	22249.13
498.32	22335.73
498.50	22452.76
498.67	22391.91
498.85	22382.54
499.03	22750.01
499.20	22562.76
499.38	22799.16
499.56	22679.79
499.73	23056.62
499.91	23229.82
500.08	23339.82
500.26	23051.94
500.44	23536.43
500.61	23026.19
500.79	23527.06
500.97	23721.33
501.14	23843.04
501.32	23803.25
501.49	23403.02
501.67	24072.41
501.84	24009.22
502.02	24140.29
502.20	24098.16
502.37	23910.91
502.55	24292.42
502.72	24259.65
502.90	24620.10
503.07	24231.57
503.25	24680.95
503.43	24458.60
503.60	24524.13
503.78	24613.07
503.95	24882.24
504.13	24936.07
504.30	24922.02
504.48	25062.46
504.65	24922.02
504.83	25266.08
505.01	25422.90
505.18	25551.63
505.36	25853.56
505.53	25696.74
505.71	25834.83
505.88	25579.71
506.06	25694.40
506.23	25867.60
506.41	25844.20
506.58	25755.26
506.76	25872.28
506.93	26096.97
507.11	26541.68
507.28	26630.62
507.46	26466.78
507.63	26712.53
507.81	26796.79
507.98	26635.30
508.16	26661.04
508.33	26960.63
508.50	27292.99
508.68	27323.41
508.85	27433.42
509.03	26995.74
509.20	27360.86
509.38	27414.69
509.55	27491.93
509.73	27833.65
509.90	27564.49
510.08	27805.56
510.25	27749.39
510.42	28048.98
510.60	27805.56
510.77	27953.02
510.95	28151.96
511.12	27903.87
511.30	28123.88
511.47	28243.24
511.64	28102.81
511.82	28577.94
511.99	28315.80
512.17	28491.34
512.34	28938.38
512.51	29104.56
512.69	29209.89
512.86	29034.35
513.04	28961.79
513.21	29397.13
513.38	29188.82
513.56	29160.73
513.73	29193.50
513.90	29127.97
514.08	29188.82
514.25	29448.62
514.43	29785.66
514.60	29677.99
514.77	29876.94
514.95	29905.02
515.12	29605.44
515.29	29813.74
515.47	29881.62
515.64	29816.08
515.81	30106.31
515.99	30043.12
516.16	30146.10
516.33	30319.30
516.51	30415.26
516.68	30291.21
516.85	30494.84
517.03	30637.61
517.20	30562.72
517.37	30895.07
517.54	31292.96
517.72	30700.81
517.89	31253.17
518.06	31150.19
518.24	30841.24
518.41	30930.18
518.58	31407.65
518.75	31133.81
518.93	31484.89
519.10	31255.51
519.27	31285.94
519.45	31531.70
519.62	31721.28
519.79	31805.54
519.96	31789.16
520.14	32032.57
520.31	31697.88
520.48	32460.89
520.65	31672.13
520.83	32287.69
521.00	32334.50
521.17	32357.91
521.34	32254.92
521.52	32397.70
521.69	32559.19
521.86	32582.60
522.03	32921.98
522.20	32708.99
522.38	32795.59
522.55	32835.38
522.72	32699.62
522.89	32807.29
523.07	33153.69
523.24	33242.63
523.41	33221.56
523.58	32947.72
523.75	33603.07
523.92	33177.09
524.10	33507.11
524.27	33280.08
524.44	33429.87
524.61	33750.52
524.78	33930.75
524.96	33841.81
525.13	33734.14
525.30	34560.35
525.47	34169.48
525.64	33984.58
525.81	33914.36
525.98	34000.96
526.16	33972.88
526.33	34403.53
526.50	34249.06
526.67	34064.16
526.84	34309.91
527.01	34422.26
527.18	34071.18
527.36	34267.78
527.53	34417.58
527.70	34895.05
527.87	35353.79
528.04	34787.38
528.21	34703.12
528.38	34820.15
528.55	35482.52
528.72	34983.99
528.89	35290.60
529.07	34778.02
529.24	34665.67
529.41	35147.82
529.58	35763.39
529.75	35168.89
529.92	35311.66
530.09	35295.28
530.26	35641.68
530.43	35552.74
530.60	35386.56
530.77	35447.41
530.94	35578.48
531.11	35634.66
531.28	35997.44
531.46	35550.40
531.63	35655.72
531.80	35903.82
531.97	36130.85
532.14	35784.45
532.31	36044.25
532.48	36133.19
532.65	36257.24
532.82	36388.31
532.99	36180.00
533.16	35814.88
533.33	36552.15
533.50	36610.66
533.67	36133.19
533.84	36542.78
534.01	36460.87
534.18	36453.84
534.35	36884.50
534.52	36713.64
534.69	36928.97
534.86	37380.70
535.03	36725.35
535.20	36816.63
535.37	36938.33
535.54	37434.53
535.71	36563.85
535.88	37151.32
536.05	36968.76
536.22	37675.60
536.38	37118.56
536.55	37015.57
536.72	37067.06
536.89	37050.68
537.06	37020.25
537.23	37284.73
537.40	37450.91
537.57	37628.79
537.74	37464.96
537.91	37734.12
538.08	38188.18
538.25	37621.77
538.42	37645.18
538.59	38000.94
538.75	37551.56
538.92	38539.26
539.09	38429.26
539.26	38113.28
539.43	37970.51
539.60	38038.39
539.77	38024.34
539.94	38197.54
540.11	38010.30
540.28	38075.84
540.44	38054.77
540.61	38373.08
540.78	38417.55
540.95	38572.03
541.12	38106.26
541.29	38054.77
541.46	38565.01
541.62	38277.12
541.79	38562.67
541.96	38504.15
542.13	38838.85
542.30	38572.03
542.47	39044.82
542.63	38918.43
542.80	39051.84
542.97	39435.69
543.14	39683.78
543.31	38873.96
543.48	39398.24
543.64	39828.90
543.81	39564.42
543.98	39601.86
544.15	39501.22
544.32	39913.16
544.48	40172.96
544.65	39878.05
544.82	39676.76
544.99	39419.30
545.16	39751.66
545.32	39601.86
545.49	40196.36
545.66	40133.17
545.83	39889.75
546.00	40013.80
546.16	39646.33
546.33	40208.06
546.50	39988.05
546.67	39859.32
546.83	40126.14
547.00	40280.62
547.17	39442.71
547.34	40020.82
547.50	40404.67
547.67	40804.90
547.84	40243.17
548.00	40608.29
548.17	40549.78
548.34	40828.30
548.51	40854.05
548.67	40596.59
548.84	40273.60
549.01	40652.76
549.18	40797.88
549.34	41085.76
549.51	41443.87
549.68	40545.10
549.84	41022.57
550.01	41095.13
550.18	40950.01
550.34	40889.16
550.51	40849.37
550.68	41043.63
550.84	40828.30
551.01	41111.51
551.18	40741.71
551.34	41010.87
551.51	41385.35
551.68	41022.57
551.84	41212.15
552.01	41036.61
552.18	41525.78
552.34	41043.63
552.51	41593.66
552.68	41425.14
552.84	41687.28
553.01	41584.30
553.18	41486.00
553.34	41249.60
553.51	41488.34
553.67	41853.46
553.84	41883.89
554.01	42012.62
554.17	41703.67
554.34	42082.83
554.51	41738.77
554.67	41860.48
554.84	42239.65
555.00	42389.44
555.17	41923.68
555.33	42092.19
555.50	41603.02
555.67	42043.04
555.83	41619.41
556.00	41614.72
556.16	42351.99
556.33	42457.32
556.50	42286.46
556.66	42726.48
556.83	41642.81
556.99	42564.98
557.16	42363.70
557.32	42651.58
557.49	42380.08
557.65	42462.00
557.82	42951.17
557.98	43089.26
558.15	42635.20
558.32	42658.60
558.48	42483.06
558.65	42866.91
558.81	42955.85
558.98	42059.43
559.14	42068.79
559.31	42298.16
559.47	42415.19
559.64	43044.79
559.80	42841.17
559.97	42993.30
560.13	42990.96
560.30	42686.69
560.46	43056.50
560.63	43070.54
560.79	42876.27
560.96	43236.72
561.12	43166.50
561.29	42880.95
561.45	42738.18
561.61	43133.73
561.78	43145.44
561.94	42967.55
562.11	43320.98
562.27	43337.36
562.44	42887.98
562.60	43325.66
562.77	43119.69
562.93	42827.12
563.10	43407.58
563.26	42768.61
563.42	43704.82
563.59	43014.37
563.75	43344.38
563.92	43126.71
564.08	43302.25
564.24	43360.76
564.41	43267.14
564.57	43292.89
564.74	43288.21
564.90	43693.12
565.07	43367.79
565.23	43311.61
565.39	43430.98
565.56	43718.87
565.72	43154.80
565.88	43398.21
566.05	43548.01
566.21	43391.19
566.38	43517.58
566.54	43805.47
566.70	43957.60
566.87	43655.67
567.03	43550.35
567.19	43400.55
567.36	43805.47
567.52	43533.96
567.68	44013.77
567.85	44271.23
568.01	43941.22
568.17	43683.76
568.34	43702.48
568.50	43423.96
568.66	43494.18
568.83	43674.40
568.99	43278.85
569.15	44105.06
569.32	43920.15
569.48	43959.94
569.64	44198.68
569.81	44282.94
569.97	43817.17
570.13	43938.88
570.30	43913.13
570.46	44067.61
570.62	43835.89
570.78	43812.49
570.95	43693.12
571.11	44526.35
571.27	43807.81
571.43	43856.96
571.60	44116.76
571.76	43798.44
571.92	44048.88
572.09	44053.56
572.25	44009.09
572.41	44264.21
572.57	44362.51
572.74	44460.82
572.90	44055.90
573.06	44041.86
573.22	44306.34
573.38	44531.03
573.55	44278.25
573.71	44442.09
573.87	43934.20
574.03	44055.90
574.20	44706.57
574.36	44243.15
574.52	44442.09
574.68	43840.57
574.84	44261.87
575.01	44540.39
575.17	44612.95
575.33	44208.04
575.49	44327.41
575.65	44446.77
575.82	44570.82
575.98	44409.32
576.14	44442.09
576.30	44381.24
576.46	44385.92
576.62	44421.03
576.79	44397.62
576.95	44212.72
577.11	44954.67
577.27	44126.12
577.43	44451.45
577.59	44545.08
577.75	44374.22
577.92	44261.87
578.08	44161.23
578.24	44442.09
578.40	44655.08
578.56	44844.66
578.72	44037.18
578.88	44516.99
579.04	44360.17
579.21	44343.79
579.37	44477.20
579.53	44170.59
579.69	44287.62
579.85	44509.97
580.01	44905.52
580.17	44493.58
580.33	44739.34
580.49	44678.49
580.65	44949.99
580.82	44580.18
580.98	44201.02
581.14	44329.75
581.30	44788.49
581.46	44341.45
581.62	44374.22
581.78	44086.33
581.94	44708.91
582.10	44486.56
582.26	44715.93
582.42	44729.98
582.58	44917.22
582.74	44865.73
582.90	44772.11
583.06	44783.81
583.22	44205.70
583.38	44715.93
583.54	44666.78
583.70	44746.36
583.86	44839.98
584.02	44659.76
584.18	44931.26
584.34	45081.06
584.50	44837.64
584.66	45202.77
584.82	44676.15
584.98	45209.79
585.14	45301.07
585.30	44301.66
585.46	44889.13
585.62	44737.00
585.78	44818.92
585.94	44385.92
586.10	44444.43
586.26	44589.55
586.42	43973.98
586.58	44378.90
586.74	45013.18
586.90	44566.14
587.06	44533.37
587.22	44748.70
587.38	44706.57
587.54	44552.10
587.70	45282.34
587.86	44650.40
588.02	44587.21
588.18	44622.31
588.34	45165.32
588.49	45092.76
588.65	44893.82
588.81	44563.80
588.97	44989.78
589.13	45153.62
589.29	44685.51
589.45	45141.91
589.61	45212.13
589.77	44966.37
589.93	44470.18
590.08	45202.77
590.24	45116.17
590.40	45338.52
590.56	45097.44
590.72	45394.69
590.88	44858.71
591.04	45172.34
591.20	45256.60
591.35	45010.84
591.51	45186.38
591.67	45184.04
591.83	45137.23
591.99	45265.96
592.15	45153.62
592.31	45081.06
592.46	45120.85
592.62	45095.10
592.78	45478.95
592.94	45530.44
593.10	45373.63
593.26	45532.78
593.41	45961.10
593.57	45762.15
593.73	45432.14
593.89	45663.85
594.05	45514.06
594.20	45652.15
594.36	45492.99
594.52	45633.42
594.68	45387.67
594.84	45401.71
594.99	45738.75
595.15	45570.23
595.31	45434.48
595.47	45612.36
595.62	45310.43
595.78	45607.68
595.94	45848.75
596.10	45628.74
596.25	45500.01
596.41	45860.46
596.57	45036.59
596.73	45640.45
596.88	45282.34
597.04	45607.68
597.20	45483.63
597.36	45921.31
597.51	45766.84
597.67	45242.56
597.83	45333.84
597.99	45525.76
598.14	45305.75
598.30	45490.65
598.46	45638.11
598.61	45610.02
598.77	45691.94
598.93	45352.56
599.09	45734.07
599.24	45935.35
599.40	45956.42
599.56	45998.55
599.71	45958.76
599.87	45993.87
600.03	45827.69
600.18	46333.24
600.34	45790.24
600.50	45495.33
600.65	45448.52
600.81	45874.50
600.97	45614.70
601.12	45317.45
601.28	45544.48
601.44	45228.51
601.59	45661.51
601.75	45818.33
601.91	45804.28
602.06	45911.95
602.22	45684.92
602.37	45603.00
602.53	45567.89
602.69	46155.36
602.84	45336.18
603.00	45275.32
603.16	45481.29
603.31	45603.00
603.47	45586.61
603.62	45750.45
603.78	45586.61
603.94	46110.89
604.09	45579.59
604.25	45626.40
604.40	45413.41
604.56	45549.17
604.71	45411.07
604.87	45352.56
605.03	45504.70
605.18	45457.88
605.34	45780.88
605.49	45333.84
605.65	45251.92
605.80	45626.40
605.96	45354.90
606.12	45385.33
606.27	45661.51
606.43	45153.62
606.58	45570.23
606.74	45474.27
606.89	45727.05
607.05	45720.02
607.20	45511.72
607.36	45387.67
607.51	45673.21
607.67	45345.54
607.82	45593.64
607.98	45350.22
608.13	45586.61
608.29	46054.72
608.44	45406.39
608.60	45275.32
608.75	45654.49
608.91	45488.31
609.06	44884.45
609.22	45727.05
609.37	44842.32
609.53	45448.52
609.68	45308.09
609.84	45226.17
609.99	45209.79
610.15	45521.08
610.30	45141.91
610.46	45099.78
610.61	45392.35
610.76	45003.82
610.92	44856.37
611.07	44814.24
611.23	45216.81
611.38	45113.83
611.54	45048.29
611.69	45415.76
611.84	44954.67
612.00	44641.04
612.15	44786.15
612.31	45137.23
612.46	44917.22
612.62	45057.65
612.77	45081.06
612.92	45132.55
613.08	44914.88
613.23	45137.23
613.39	44720.62
613.54	44772.11
613.69	45242.56
613.85	44973.39
614.00	45041.27
614.15	45123.19
614.31	44608.27
614.46	44650.40
614.62	44266.55
614.77	44952.33
614.92	45074.04
615.08	44835.30
615.23	44739.34
615.38	44896.16
615.54	44837.64
615.69	45097.44
615.84	44507.63
616.00	44430.39
616.15	44818.92
616.30	44832.96
616.46	44442.09
616.61	44879.77
616.76	44671.46
616.92	44495.92
617.07	44931.26
617.22	44748.70
617.37	44133.14
617.53	45067.02
617.68	44882.11
617.83	44718.28
617.99	44961.69
618.14	44779.13
618.29	44404.64
618.45	44692.53
618.60	44390.60
618.75	44388.26
618.90	44570.82
619.06	44566.14
619.21	44509.97
619.36	44622.31
619.51	44002.07
619.67	43922.49
619.82	44458.48
619.97	44498.26
620.12	44357.83
620.28	44552.10
620.43	44605.93
620.58	44362.51
620.73	44442.09
620.89	44205.70
621.04	44580.18
621.19	44229.10
621.34	44369.54
621.49	43995.05
621.65	43938.88
621.80	44257.19
621.95	44369.54
622.10	44392.94
622.25	44285.28
622.41	43676.74
622.56	43777.38
622.71	43966.96
622.86	43606.52
623.01	43885.04
623.16	43990.37
623.32	43716.53
623.47	44058.24
623.62	43753.97
623.77	44233.78
623.92	44404.64
624.07	43943.56
624.23	43772.70
624.38	43819.51
624.53	43725.89
624.68	43030.75
624.83	43386.51
624.98	43487.15
625.13	43264.80
625.29	43227.35
625.44	43274.16
625.59	43051.81
625.74	43480.13
625.89	43622.90
626.04	43295.23
626.19	43445.02
626.34	43669.72
626.49	43150.12
626.65	42794.36
626.80	43117.35
626.95	42831.80
627.10	42864.57
627.25	43349.06
627.40	43395.87
627.55	42974.58
627.70	42876.27
627.85	42820.10
628.00	43262.46
628.15	43271.82
628.30	42691.37
628.45	42623.50
628.60	42422.21
628.76	42976.92
628.91	43065.86
629.06	42422.21
629.21	42644.56
629.36	42873.93
629.51	43157.14
629.66	43126.71
629.81	42866.91
629.96	42462.00
630.11	42642.22
630.26	43171.18
630.41	42398.80
630.56	42960.53
630.71	42799.04
630.86	42557.96
631.01	42337.95
631.16	42588.39
631.31	42426.89
631.46	42714.78
631.61	42843.51
631.76	42499.45
631.91	42335.61
632.06	42913.72
632.21	42553.28
632.36	42368.38
632.51	42019.64
632.66	42703.07
632.81	42270.08
632.96	42244.33
633.10	42330.93
633.25	42534.56
633.40	42281.78
633.55	42637.54
633.70	42387.10
633.85	42085.17
634.00	42120.28
634.15	41872.18
634.30	42117.94
634.45	42155.39
634.60	42089.85
634.75	41970.49
634.90	42117.94
635.05	41947.08
635.19	42227.95
635.34	42234.97
635.49	41869.84
635.64	41909.63
635.79	42312.20
635.94	42321.57
636.09	42389.44
636.24	42005.59
636.39	41710.69
636.53	41972.83
636.68	41523.44
636.83	41869.84
636.98	41631.11
637.13	41258.96
637.28	41539.83
637.43	41572.60
637.57	41713.03
637.72	41186.41
637.87	41340.88
638.02	41755.16
638.17	41104.49
638.32	41167.68
638.46	41177.04
638.61	41448.55
638.76	41357.27
638.91	41230.88
639.06	41155.98
639.20	41006.19
639.35	40889.16
639.50	41045.97
639.65	41045.97
639.80	41776.22
639.94	41099.81
640.09	41256.62
640.24	41134.92
640.39	40746.39
640.54	40402.33
640.68	40755.75
640.83	41364.29
640.98	41270.67
641.13	41029.59
641.27	41368.97
641.42	40985.12
641.57	40854.05
641.72	41088.10
641.86	40879.80
642.01	40690.21
642.16	40364.88
642.31	40446.80
642.45	41088.10
642.60	40563.82
642.75	40912.56
642.90	40868.09
643.04	40575.53
643.19	40474.88
643.34	40282.96
643.48	40421.05
643.63	40346.15
643.78	40727.66
643.93	40793.20
644.07	40898.52
644.22	40444.46
644.37	40353.18
644.51	40879.80
644.66	40399.99
644.81	40453.82
644.95	40409.35
645.10	40407.01
645.25	40156.57
645.39	40128.48
645.54	40315.73
645.69	39723.57
645.83	39917.84
645.98	40039.54
646.13	39585.48
646.27	40301.68
646.42	39906.13
646.57	40004.44
646.71	40161.25
646.86	40545.10
647.00	40217.43
647.15	40449.14
647.30	39831.24
647.44	40271.26
647.59	40030.18
647.74	39821.87
647.88	39990.39
648.03	40032.52
648.17	40502.97
648.32	39852.30
648.47	40210.40
648.61	39793.79
648.76	39569.10
648.90	39744.64
649.05	39679.10
649.20	39660.38
649.34	39948.26
649.49	39959.97
649.63	39529.31
649.78	39468.45
649.92	39833.58
650.07	40018.48
650.21	39908.47
650.36	39730.59
650.51	39838.26
650.65	39826.56
650.80	39484.84
650.94	39695.49
651.09	39580.80
651.23	39028.43
651.38	39110.35
651.52	39082.27
651.67	39218.02
651.81	39522.29
651.96	39601.86
652.10	39398.24
652.25	38632.88
652.39	39363.13
652.54	39278.87
652.68	39009.71
652.83	39098.65
652.97	39196.95
653.12	39519.95
653.26	38719.48
653.41	39426.32
653.55	39112.69
653.70	39435.69
653.84	39269.51
653.99	39166.52
654.13	39225.04
654.27	39033.11
654.42	38675.01
654.56	38480.75
654.71	38085.20
654.85	38679.69
655.00	38637.56
655.14	38792.04
655.29	39342.06
655.43	38923.11
655.57	38476.07
655.72	38213.93
655.86	38899.70
656.01	38611.82
656.15	38705.44
656.30	38621.18
656.44	38473.73
656.58	38466.70
656.73	38955.88
656.87	37998.60
657.01	38022.00
657.16	38438.62
657.30	38726.50
657.45	38607.14
657.59	37993.92
657.73	37542.19
657.88	38050.09
658.02	38663.31
658.16	38548.62
658.31	38167.12
658.45	38162.43
658.60	37853.48
658.74	37991.58
658.88	38244.35
659.03	37614.75
659.17	37467.30
659.31	37703.69
659.46	37900.29
659.60	37734.12
659.74	37984.55
659.89	37610.07
660.03	37167.71
660.17	37675.60
660.32	37502.40
660.46	37537.51
660.60	37347.93
660.74	37343.25
660.89	37598.37
661.03	37193.45
661.17	37067.06
661.32	37123.24
661.46	37099.83
661.60	36947.70
661.74	36905.57
661.89	37361.97
662.03	37043.66
662.17	37003.87
662.31	37144.30
662.46	37247.29
662.60	36547.47
662.74	36470.23
662.88	36266.60
663.03	36706.62
663.17	36329.80
663.31	36275.96
663.45	36664.49
663.60	36517.04
663.74	36180.00
663.88	36636.41
664.02	36477.25
664.17	36416.40
664.31	36297.03
664.45	36086.38
664.59	36217.45
664.73	36112.13
664.88	35737.64
665.02	35519.97
665.16	35791.47
665.30	35971.69
665.44	35737.64
665.59	35660.40
665.73	35421.67
665.87	34714.83
666.01	35901.48
666.15	35580.82
666.29	35119.74
666.44	35906.16
666.58	35585.50
666.72	35569.12
666.86	35529.33
667.00	35248.47
667.14	35215.70
667.28	35409.96
667.43	35103.35
667.57	35037.82
667.71	35510.61
667.85	35395.92
667.99	35115.06
668.13	34815.47
668.27	34780.36
668.41	34635.25
668.56	33888.62
668.70	33968.19
668.84	34242.04
668.98	33935.43
669.12	34281.83
669.26	34178.84
669.40	34635.25
669.54	34188.21
669.68	34057.14
669.82	34314.59
669.96	33633.50
670.10	33607.75
670.25	33706.05
670.39	33830.10
670.53	33827.76
670.67	34061.82
670.81	33867.55
670.95	33720.10
671.09	33914.36
671.23	33802.02
671.37	33717.76
671.51	33050.70
671.65	32992.19
671.79	32978.15
671.93	33095.18
672.07	33633.50
672.21	32875.16
672.35	33106.88
672.49	32985.17
672.63	32758.14
672.77	32751.12
672.91	32716.01
673.05	32673.88
673.19	32528.77
673.33	32453.87
673.47	32156.62
673.61	32187.05
673.75	32016.19
673.89	31894.48
674.03	31838.31
674.17	31630.00
674.31	31597.23
674.45	31377.22
674.59	31997.46
674.73	31651.06
674.87	31796.18
675.01	31791.50
675.15	31335.09
675.29	31447.44
675.43	31248.49
675.56	31285.94
675.70	31103.38
675.84	30960.61
675.98	30300.58
676.12	31014.44
676.26	31112.74
676.40	30539.31
676.54	30551.01
676.68	30319.30
676.82	30139.08
676.96	30405.90
677.10	30906.77
677.23	30359.09
677.37	30204.61
677.51	30455.05
677.65	29989.28
677.79	30038.44
677.93	29544.58
678.07	29867.58
678.21	29425.22
678.34	29333.93
678.48	29324.57
678.62	29369.04
678.76	28947.75
678.90	29008.60
679.04	29118.60
679.18	29252.02
679.31	28606.03
679.45	28945.41
679.59	28861.15
679.73	28856.46
679.87	28622.41
680.00	28446.87
680.14	28547.51
680.28	28507.72
680.42	28266.65
680.56	27969.40
680.70	27723.65
680.83	27805.56
680.97	28053.66
681.11	28137.92
681.25	27791.52
681.39	27524.70
681.52	27541.08
681.66	27292.99
681.80	26972.33
681.94	26822.54
682.07	26991.06
682.21	26724.24
682.35	27028.51
682.49	26651.68
682.62	26834.24
682.76	26719.56
682.90	26703.17
683.04	26387.20
683.17	26408.26
683.31	26363.79
683.45	26125.06
683.59	25773.98
683.72	25584.40
683.86	25841.85
684.00	25532.90
684.13	25563.33
684.27	25359.70
684.41	25294.17
684.55	25689.72
684.68	25720.15
684.82	25418.22
684.96	25046.07
685.09	25022.67
685.23	25268.42
685.37	25247.36
685.50	25233.32
685.64	24959.47
685.78	24753.51
685.91	24379.02
686.05	24444.56
686.19	24041.98
686.32	24201.14
686.46	23915.59
686.60	23775.16
686.73	23859.42
686.87	23775.16
687.01	23819.63
687.14	23711.97
687.28	23576.22
687.42	23424.08
687.55	23204.07
687.69	23489.62
687.82	23250.88
687.96	23183.01
688.10	23133.86
688.23	23124.49
688.37	23349.18
688.50	22728.94
688.64	22609.58
688.78	22640.00
688.91	22654.05
689.05	22803.84
689.18	22480.85
689.32	22003.38
689.46	22366.16
689.59	21774.00
689.73	22295.94
689.86	22576.81
690.00	22045.51
690.13	22005.72
690.27	22031.46
690.41	21930.82
690.54	21778.68
690.68	21570.38
690.81	21333.98
690.95	21399.52
691.08	21191.21
691.22	21170.15
691.35	20903.32
691.49	21088.23
691.62	20879.92
691.76	20599.05
691.89	20585.01
692.03	20243.29
692.16	20357.98
692.30	20676.29
692.43	20397.77
692.57	20020.94
692.70	20475.01
692.84	20100.52
692.97	19803.27
693.11	19765.82
693.24	19857.10
693.38	19573.90
693.51	19824.34
693.65	19510.71
693.78	19374.95
693.92	19246.23
694.05	19323.46
694.19	19487.30
694.32	19014.51
694.45	19517.73
694.59	19438.15
694.72	19463.90
694.86	18831.95
694.99	18927.91
695.13	18466.83
695.26	18317.03
695.39	18274.90
695.53	18436.40
695.66	18345.12
695.80	18120.43
695.93	18085.32
696.07	18171.92
696.20	17722.54
696.33	17642.96
696.47	17544.66
696.60	17516.57
696.73	17797.43
696.87	17675.73
697.00	17657.00
697.14	17500.19
697.27	17429.97
697.40	17233.36
697.54	17476.78
697.67	17249.75
697.80	17357.41
697.94	17411.25
698.07	16945.48
698.21	16758.24
698.34	16732.49
698.47	16456.31
698.61	16229.27
698.74	16477.37
698.87	16458.65
699.01	16318.22
699.14	16383.75
699.27	16116.93
699.40	16126.29
699.54	16109.91
699.67	16156.72
699.80	16037.35
699.94	15763.51
700.07	15791.59
700.20	15880.53
700.34	15400.72
700.47	15466.26
700.60	15999.90
700.73	15328.17
700.87	15407.75
701.00	15316.47
701.13	15197.10
701.26	14913.89
701.40	15166.67
701.53	14911.55
701.66	15047.30
701.79	14736.01
701.93	14803.89
702.06	14324.08
702.19	14789.85
702.32	14525.36
702.46	14656.43
702.59	14590.90
702.72	14333.44
702.85	14476.21
702.99	14375.57
703.12	14223.44
703.25	14005.77
703.38	14106.41
703.51	13907.46
703.65	13853.63
703.78	13392.55
703.91	13596.17
704.04	13811.50
704.17	13488.51
704.31	13589.15
704.44	13411.27
704.57	13448.72
704.70	13394.89
704.83	13158.49
704.96	13338.71
705.10	13097.64
705.23	13177.22
>>>>>End Processed Spectral Data<<<<<
