SpectraSuite Data File
++++++++++++++++++++++++++++++++++++
Date: Fri Oct 25 10:43:39 EDT 2013
User: price-jones
Dark Spectrum Present: No
Reference Spectrum Present: No
Number of Sampled Component Spectra: 1
Spectrometers: USB2+H05261
Integration Time (usec): 100000 (USB2+H05261)
Spectra Averaged: 1 (USB2+H05261)
Boxcar Smoothing: 0 (USB2+H05261)
Correct for Electrical Dark: No (USB2+H05261)
Strobe/Lamp Enabled: No (USB2+H05261)
Correct for Detector Non-linearity: No (USB2+H05261)
Correct for Stray Light: No (USB2+H05261)
Number of Pixels in Processed Spectrum: 2048
>>>>>Begin Processed Spectral Data<<<<<
365.73	191.92
365.92	191.92
366.12	191.92
366.32	25.75
366.52	0.00
366.72	60.85
366.91	0.00
367.11	0.00
367.31	56.17
367.51	42.13
367.70	65.54
367.90	0.00
368.10	0.00
368.30	25.75
368.49	0.00
368.69	58.51
368.89	79.58
369.09	32.77
369.28	93.62
369.48	0.00
369.68	79.58
369.87	88.94
370.07	105.32
370.27	72.56
370.47	117.03
370.66	362.78
370.86	477.47
371.06	454.06
371.25	566.41
371.45	486.83
371.65	519.60
371.84	393.21
372.04	500.87
372.24	447.04
372.44	472.79
372.63	440.02
372.83	489.17
373.03	514.92
373.22	447.04
373.42	531.30
373.62	533.64
373.81	533.64
374.01	575.77
374.21	564.07
374.40	568.75
374.60	667.05
374.79	608.54
374.99	524.28
375.19	507.90
375.38	599.18
375.58	564.07
375.78	559.39
375.97	660.03
376.17	730.25
376.37	622.58
376.56	606.20
376.76	566.41
376.95	636.63
377.15	634.29
377.35	638.97
377.54	674.07
377.74	681.10
377.93	653.01
378.13	727.91
378.33	739.61
378.52	543.00
378.72	641.31
378.91	636.63
379.11	620.24
379.31	653.01
379.50	695.14
379.70	739.61
379.89	690.46
380.09	772.38
380.28	695.14
380.48	730.25
380.68	704.50
380.87	664.71
381.07	723.23
381.26	746.63
381.46	709.18
381.65	713.86
381.85	763.01
382.04	737.27
382.24	704.50
382.43	613.22
382.63	660.03
382.83	784.08
383.02	763.01
383.22	695.14
383.41	727.91
383.61	732.59
383.80	779.40
384.00	863.66
384.19	739.61
384.39	816.85
384.58	723.23
384.78	692.80
384.97	809.83
385.17	798.12
385.36	795.78
385.56	856.64
385.75	826.21
385.95	779.40
386.14	760.67
386.34	826.21
386.53	908.13
386.72	880.04
386.92	898.77
387.11	905.79
387.31	903.45
387.50	910.47
387.70	924.51
387.89	849.61
388.09	840.25
388.28	840.25
388.48	847.27
388.67	957.28
388.86	898.77
389.06	973.66
389.25	954.94
389.45	999.41
389.64	933.87
389.84	1015.79
390.03	1053.24
390.22	968.98
390.42	938.55
390.61	1067.28
390.81	1027.50
391.00	961.96
391.19	1156.22
391.39	968.98
391.58	1109.41
391.78	1104.73
391.97	1149.20
392.16	1076.65
392.36	1146.86
392.55	1008.77
392.75	1043.88
392.94	997.07
393.13	978.34
393.33	964.30
393.52	1015.79
393.71	1167.93
393.91	1090.69
394.10	1210.06
394.29	1231.12
394.49	1238.14
394.68	1179.63
394.88	1193.67
395.07	1247.51
395.26	1247.51
395.46	1310.70
395.65	1299.00
395.84	1263.89
396.04	1261.55
396.23	1207.72
396.42	1076.65
396.62	1247.51
396.81	1231.12
397.00	1254.53
397.19	1287.29
397.39	1418.36
397.58	1453.47
397.77	1329.42
397.97	1437.09
398.16	1507.30
398.35	1575.18
398.55	1418.36
398.74	1551.78
398.93	1556.46
399.12	1437.09
399.32	1495.60
399.51	1537.73
399.70	1610.29
399.90	1558.80
400.09	1614.97
400.28	1626.67
400.47	1607.95
400.67	1621.99
400.86	1657.10
401.05	1650.08
401.24	1659.44
401.44	1706.25
401.63	1701.57
401.82	1724.97
402.01	1732.00
402.21	1720.29
402.40	1806.89
402.59	1685.19
402.78	1685.19
402.97	1734.34
403.17	1872.43
403.36	1783.49
403.55	1820.94
403.74	1912.22
403.93	1952.01
404.13	1842.00
404.32	1834.98
404.51	1902.86
404.70	1994.14
404.89	1959.03
405.09	1895.83
405.28	2008.18
405.47	1991.80
405.66	1916.90
405.85	2057.33
406.05	1959.03
406.24	2054.99
406.43	2017.54
406.62	2153.29
406.81	2181.38
407.00	2214.15
407.20	2050.31
407.39	2190.74
407.58	2115.84
407.77	2253.94
407.96	2150.95
408.15	2265.64
408.34	2242.23
408.54	2312.45
408.73	2359.26
408.92	2345.22
409.11	2235.21
409.30	2363.94
409.49	2349.90
409.68	2406.07
409.87	2359.26
410.07	2331.17
410.26	2459.90
410.45	2396.71
410.64	2504.37
410.83	2387.35
411.02	2511.39
411.21	2506.71
411.40	2649.49
411.59	2726.72
411.78	2595.65
411.98	2623.74
412.17	2640.12
412.36	2677.57
412.55	2614.38
412.74	2771.19
412.93	2738.43
413.12	2637.78
413.31	2949.08
413.50	2794.60
413.69	2850.77
413.88	2909.29
414.07	2946.73
414.26	2925.67
414.45	3061.42
414.64	3089.51
414.83	3119.93
415.02	3014.61
415.22	3087.17
415.41	3063.76
415.60	3122.27
415.79	3253.34
415.98	3251.00
416.17	3325.90
416.36	3358.67
416.55	3262.71
416.74	3269.73
416.93	3321.22
417.12	3272.07
417.31	3386.76
417.50	3382.07
417.69	3602.08
417.88	3445.27
418.07	3613.79
418.26	3463.99
418.45	3496.76
418.64	3639.53
418.83	3618.47
419.02	3531.87
419.21	3513.14
419.39	3742.52
419.58	3672.30
419.77	3513.14
419.96	3676.98
420.15	3815.07
420.34	3726.13
420.53	3770.60
420.72	3915.72
420.91	3887.63
421.10	3861.88
421.29	3866.56
421.48	3854.86
421.67	3913.38
421.86	3899.33
422.05	3887.63
422.24	3950.82
422.43	3730.81
422.61	3927.42
422.80	3999.98
422.99	3838.48
423.18	3904.01
423.37	4011.68
423.56	3805.71
423.75	4117.00
423.94	3941.46
424.13	3733.15
424.32	3836.14
424.50	4175.52
424.69	4070.19
424.88	4191.90
425.07	3997.64
425.26	3882.95
425.45	3880.61
425.64	3955.51
425.83	3983.59
426.01	3962.53
426.20	4128.70
426.39	4175.52
426.58	3969.55
426.77	4058.49
426.96	4007.00
427.15	4032.74
427.33	4046.79
427.52	4175.52
427.71	4145.09
427.90	4182.54
428.09	4184.88
428.28	4222.33
428.46	4231.69
428.65	4184.88
428.84	4227.01
429.03	4358.08
429.22	4257.43
429.40	4227.01
429.59	3936.78
429.78	4035.08
429.97	3997.64
430.16	4044.45
430.34	4091.26
430.53	4121.68
430.72	4346.37
430.91	4306.59
431.10	4327.65
431.28	4493.83
431.47	4667.03
431.66	4734.90
431.85	4667.03
432.03	4503.19
432.22	4695.11
432.41	4671.71
432.60	4587.45
432.79	4641.28
432.97	4784.06
433.16	4718.52
433.35	4559.36
433.54	4664.69
433.72	4718.52
433.91	4711.50
434.10	4788.74
434.28	4812.14
434.47	4784.06
434.66	4887.04
434.85	5048.54
435.03	5125.77
435.22	4887.04
435.41	5240.46
435.59	5228.76
435.78	5247.48
435.97	5205.35
436.16	5277.91
436.34	5163.22
436.53	5064.92
436.72	5474.51
436.90	5163.22
437.09	5256.84
437.28	5142.16
437.46	5387.91
437.65	5139.82
437.84	5195.99
438.02	5057.90
438.21	5144.50
438.40	5090.67
438.58	5547.07
438.77	5284.93
438.96	5607.92
439.14	5624.31
439.33	5661.76
439.52	5760.06
439.70	5830.27
439.89	5542.39
440.08	5626.65
440.26	5612.60
440.45	5584.52
440.63	6001.13
440.82	6120.50
441.01	5895.81
441.19	6129.86
441.38	6022.20
441.57	6150.93
441.75	6211.78
441.94	6333.49
442.12	6417.75
442.31	6654.14
442.50	6422.43
442.68	6455.20
442.87	6434.13
443.05	6413.07
443.24	6537.12
443.43	6551.16
443.61	6595.63
443.80	6799.26
443.98	6370.94
444.17	6260.93
444.35	6700.95
444.54	6827.34
444.73	6672.87
444.91	6623.72
445.10	6555.84
445.28	6586.27
445.47	6403.71
445.65	6595.63
445.84	6579.25
446.02	6733.72
446.21	6520.73
446.39	6656.48
446.58	6813.30
446.77	6647.12
446.95	6537.12
447.14	6796.92
447.32	6967.77
447.51	6792.23
447.69	6930.33
447.88	6604.99
448.06	6747.76
448.25	6726.70
448.43	6860.11
448.62	6871.81
448.80	6834.36
448.99	6906.92
449.17	6836.70
449.36	6942.03
449.54	7040.33
449.73	7143.32
449.91	7307.15
450.10	7279.07
450.28	7382.05
450.46	7286.09
450.65	7391.41
450.83	7358.64
451.02	7213.53
451.20	7290.77
451.39	7356.30
451.57	7316.51
451.76	7302.47
451.94	7398.43
452.13	7541.21
452.31	7204.17
452.49	7103.53
452.68	7358.64
452.86	7307.15
453.05	7449.93
453.23	7506.10
453.42	7475.67
453.60	7304.81
453.78	7478.01
453.97	7454.61
454.15	7410.14
454.34	7363.33
454.52	7672.28
454.70	7545.89
454.89	7639.51
455.07	7691.00
455.26	7744.83
455.44	7808.03
455.62	7702.70
455.81	7880.58
455.99	7786.96
456.17	7761.22
456.36	7927.39
456.54	7976.55
456.73	8067.83
456.91	8222.30
457.09	8053.78
457.28	8156.77
457.46	8023.36
457.64	8100.59
457.83	8163.79
458.01	8105.28
458.19	8397.84
458.38	8175.49
458.56	8306.56
458.74	8304.22
458.93	8311.24
459.11	8521.89
459.29	8468.06
459.48	8346.35
459.66	8358.05
459.84	8585.08
460.03	8659.98
460.21	8592.11
460.39	8603.81
460.57	8463.38
460.76	8791.05
460.94	8739.56
461.12	8725.52
461.31	8884.67
461.49	8751.26
461.67	8833.18
461.85	9006.38
462.04	8926.80
462.22	9453.42
462.40	9132.77
462.59	9027.45
462.77	8884.67
462.95	9132.77
463.13	9198.31
463.32	9186.60
463.50	9053.19
463.68	9231.07
463.86	9041.49
464.05	9092.98
464.23	9041.49
464.41	9184.26
464.59	9193.62
464.78	9401.93
464.96	9174.90
465.14	9146.81
465.32	9305.97
465.50	9364.48
465.69	9322.35
465.87	9261.50
466.05	9317.67
466.23	9289.59
466.41	9228.73
466.60	9308.31
466.78	9254.48
466.96	9195.96
467.14	9324.69
467.32	9600.88
467.51	9769.40
467.69	9210.01
467.87	9554.07
468.05	9666.41
468.23	9617.26
468.41	9614.92
468.60	9537.68
468.78	9750.67
468.96	9696.84
469.14	9942.60
469.32	9912.17
469.50	9570.45
469.69	9984.73
469.87	9867.70
470.05	9928.55
470.23	9961.32
470.41	9963.66
470.59	9980.04
470.77	9961.32
470.95	9832.59
471.14	10097.07
471.32	10129.84
471.50	10394.32
471.68	10382.62
471.86	10562.84
472.04	10434.11
472.22	10801.57
472.40	10319.42
472.58	10619.01
472.77	10658.80
472.95	10696.25
473.13	10853.06
473.31	10619.01
473.49	10490.28
473.67	10684.55
473.85	11012.22
474.03	11052.01
474.21	11068.39
474.39	11276.70
474.57	10988.82
474.75	11192.44
474.93	11314.15
475.12	11272.02
475.30	11564.59
475.48	11269.68
475.66	11470.97
475.84	11482.67
476.02	11744.81
476.20	11527.14
476.38	11840.77
476.56	12072.48
476.74	12042.06
476.92	12072.48
477.10	11950.78
477.28	12248.02
477.46	12269.09
477.64	12322.92
477.82	12659.96
478.00	12751.24
478.18	12793.37
478.36	12755.92
478.54	12791.03
478.72	12989.97
478.90	12989.97
479.08	13158.49
479.26	13195.94
479.44	13406.59
479.62	13209.98
479.80	13415.95
479.98	13327.01
480.16	13694.47
480.34	13881.72
480.52	13818.52
480.70	14047.90
480.88	13818.52
481.06	13760.01
481.24	13977.68
481.41	14455.15
481.59	14649.41
481.77	14672.82
481.95	14686.86
482.13	14932.62
482.31	14654.09
482.49	15087.09
482.67	15119.86
482.85	15386.68
483.03	15351.57
483.21	15473.28
483.39	15894.58
483.57	15302.42
483.74	15740.10
483.92	15695.63
484.10	15709.68
484.28	15913.30
484.46	16240.98
484.64	16521.84
484.82	16175.44
485.00	16563.97
485.18	16329.92
485.35	16507.80
485.53	16409.50
485.71	16390.77
485.89	16542.91
486.07	16421.20
486.25	16788.66
486.43	16861.22
486.61	17151.45
486.78	17043.78
486.96	17387.84
487.14	17987.02
487.32	17963.61
487.50	18279.58
487.68	18511.30
487.85	18604.92
488.03	18700.88
488.21	18792.16
488.39	18686.84
488.57	18597.90
488.75	19047.28
488.92	19335.17
489.10	19491.98
489.28	19585.60
489.46	19672.20
489.64	19775.19
489.81	20212.87
489.99	20299.47
490.17	20741.83
490.35	20755.87
490.53	20580.33
490.70	20596.71
490.88	20725.44
491.06	21240.36
491.24	21062.48
491.41	21076.52
491.59	21149.08
491.77	20982.90
491.95	21245.04
492.13	21633.57
492.30	21930.82
492.48	22024.44
492.66	22047.85
492.84	21809.11
493.01	22129.77
493.19	22242.11
493.37	22242.11
493.54	22618.94
493.72	22501.91
493.90	23030.87
494.08	23475.57
494.25	23234.50
494.43	23594.94
494.61	23901.55
494.79	23978.79
494.96	23597.28
495.14	23513.02
495.32	23941.34
495.49	24079.43
495.67	24025.60
495.85	24414.13
496.02	24531.15
496.20	24989.90
496.38	24687.97
496.55	24566.26
496.73	25450.99
496.91	25146.72
497.09	25245.02
497.26	25041.39
497.44	25252.04
497.62	25291.83
497.79	25446.30
497.97	25469.71
498.14	25614.82
498.32	25748.23
498.50	25867.60
498.67	26455.08
498.85	26441.03
499.03	26218.68
499.20	26735.94
499.38	26499.55
499.56	26771.05
499.73	26691.47
499.91	26689.13
500.08	26946.59
500.26	26829.56
500.44	26794.45
500.61	27276.60
500.79	27040.21
500.97	27199.37
501.14	27276.60
501.32	27040.21
501.49	27239.15
501.67	27257.88
501.84	27997.49
502.02	27690.88
502.20	27915.57
502.37	28142.60
502.55	28294.74
502.72	28261.97
502.90	28290.06
503.07	28276.01
503.25	28704.33
503.43	28383.68
503.60	28374.31
503.78	28357.93
503.95	28451.55
504.13	28627.09
504.30	28713.69
504.48	29003.92
504.65	29453.30
504.83	28964.13
505.01	29273.08
505.18	29235.63
505.36	29724.80
505.53	29902.68
505.71	29806.72
505.88	29708.42
506.06	29556.28
506.23	29731.83
506.41	29886.30
506.58	30064.18
506.76	30216.32
506.93	30199.93
507.11	30267.81
507.28	30061.84
507.46	30136.74
507.63	30019.71
507.81	30607.19
507.98	30527.61
508.16	30511.22
508.33	30976.99
508.50	30843.58
508.68	31108.06
508.85	31402.97
509.03	31480.21
509.20	31456.80
509.38	31580.85
509.55	31402.97
509.73	31742.35
509.90	31873.42
510.08	31622.98
510.25	31782.13
510.42	31728.30
510.60	31887.46
510.77	32046.62
510.95	32533.45
511.12	32196.41
511.30	32699.62
511.47	32357.91
511.64	32842.40
511.82	32704.31
511.99	32425.78
512.17	32458.55
512.34	32486.64
512.51	32886.87
512.69	32917.29
512.86	32954.74
513.04	33156.03
513.21	33319.87
513.38	32837.72
513.56	33223.90
513.73	32929.00
513.90	33507.11
514.08	33294.12
514.25	33467.32
514.43	33563.28
514.60	33392.42
514.77	33481.36
514.95	34052.45
515.12	33666.27
515.29	34232.68
515.47	34466.73
515.64	34586.10
515.81	34195.23
515.99	34335.66
516.16	34146.08
516.33	33692.01
516.51	34017.35
516.68	33596.05
516.85	33792.65
517.03	33565.62
517.20	33940.11
517.37	34810.79
517.54	34726.53
517.72	34419.92
517.89	34082.88
518.06	34085.22
518.24	34307.57
518.41	34539.29
518.58	34625.89
518.75	34906.75
518.93	35215.70
519.10	35091.65
519.27	35627.63
519.45	35435.71
519.62	35555.08
519.79	35709.55
519.96	35583.16
520.14	36102.76
520.31	35002.71
520.48	35894.46
520.65	35920.20
520.83	36051.27
521.00	36329.80
521.17	35981.06
521.34	36566.19
521.52	36617.68
521.69	36472.57
521.86	36758.11
522.03	37085.79
522.20	36835.35
522.38	36706.62
522.55	37160.69
522.72	37071.75
522.89	36407.03
523.07	36980.46
523.24	36683.22
523.41	37373.67
523.58	37343.25
523.75	37488.36
523.92	37532.83
524.10	37544.53
524.27	37525.81
524.44	37666.24
524.61	37703.69
524.78	37902.64
524.96	37640.50
525.13	38132.01
525.30	37755.18
525.47	38110.94
525.64	37649.86
525.81	37762.20
525.98	37682.62
526.16	37759.86
526.33	37352.61
526.50	38054.77
526.67	37556.24
526.84	37291.76
527.01	37778.59
527.18	38171.80
527.36	38459.68
527.53	38712.46
527.70	38511.17
527.87	38721.82
528.04	38600.12
528.21	38658.63
528.38	38710.12
528.55	39243.76
528.72	39438.03
528.89	39482.50
529.07	38955.88
529.24	38754.59
529.41	39512.92
529.58	38983.96
529.75	39283.55
529.92	39360.79
530.09	39173.55
530.26	39124.40
530.43	39686.12
530.60	39651.02
530.77	39232.06
530.94	39594.84
531.11	39395.90
531.28	39882.73
531.46	39597.18
531.63	39702.51
531.80	39782.09
531.97	39732.93
532.14	39365.47
532.31	39400.58
532.48	40165.93
532.65	40105.08
532.82	40037.20
532.99	40119.12
533.16	39789.11
533.33	40130.83
533.50	39948.26
533.67	40402.33
533.84	39988.05
534.01	40556.80
534.18	40603.61
534.35	40779.15
534.52	40678.51
534.69	41195.77
534.86	40762.77
535.03	40559.14
535.20	40907.88
535.37	41188.75
535.54	41200.45
535.71	41048.32
535.88	41153.64
536.05	40891.50
536.22	41177.04
536.38	40987.46
536.55	41486.00
536.72	41015.55
536.89	40996.82
537.06	41446.21
537.23	41031.93
537.40	41326.84
537.57	40989.80
537.74	40926.61
537.91	41944.74
538.08	41804.31
538.25	41322.16
538.42	41471.95
538.59	41738.77
538.75	41509.40
538.92	41181.73
539.09	41851.12
539.26	41488.34
539.43	41497.70
539.60	41750.48
539.77	41757.50
539.94	41855.80
540.11	41713.03
540.28	41551.53
540.44	42148.37
540.61	41518.76
540.78	41982.19
540.95	42003.25
541.12	41954.10
541.29	42005.59
541.46	42007.94
541.62	42157.73
541.79	42440.93
541.96	41811.33
542.13	41860.48
542.30	42300.50
542.47	42464.34
542.63	42277.10
542.80	42309.86
542.97	42920.74
543.14	42775.63
543.31	42883.30
543.48	42887.98
543.64	43182.88
543.81	42974.58
543.98	43143.09
544.15	43012.02
544.32	43182.88
544.48	43693.12
544.65	43196.93
544.82	43267.14
544.99	42539.24
545.16	43517.58
545.32	43379.49
545.49	43477.79
545.66	43632.27
545.83	43384.17
546.00	43786.74
546.16	43161.82
546.33	43152.46
546.50	43489.49
546.67	43445.02
546.83	43089.26
547.00	44034.84
547.17	43430.98
547.34	43227.35
547.50	43562.05
547.67	43856.96
547.84	43969.30
548.00	43995.05
548.17	44074.63
548.34	43672.06
548.51	44231.44
548.67	44577.84
548.84	44177.61
549.01	43875.68
549.18	44083.99
549.34	44591.89
549.51	44081.65
549.68	44016.11
549.84	44081.65
550.01	44046.54
550.18	44165.91
550.34	44308.68
550.51	44399.96
550.68	44184.63
550.84	43866.32
551.01	44626.99
551.18	44280.60
551.34	44245.49
551.51	44692.53
551.68	44210.38
551.84	44388.26
552.01	44423.37
552.18	44680.83
552.34	44018.46
552.51	44545.08
552.68	44383.58
552.84	45001.48
553.01	44753.38
553.18	44491.24
553.34	44575.50
553.51	44573.16
553.67	44622.31
553.84	44959.35
554.01	44825.94
554.17	45310.43
554.34	45064.67
554.51	45134.89
554.67	45387.67
554.84	44713.59
555.00	44697.21
555.17	45134.89
555.33	45062.33
555.50	45104.46
555.67	45247.24
555.83	44807.22
556.00	44928.92
556.16	45769.18
556.33	45118.51
556.50	45378.31
556.66	45429.80
556.83	44996.80
556.99	45406.39
557.16	45368.94
557.32	45155.96
557.49	45591.30
557.65	45261.28
557.82	45170.00
557.98	45390.01
558.15	45586.61
558.32	45612.36
558.48	45024.89
558.65	45230.85
558.81	44877.43
558.98	45237.87
559.14	45258.94
559.31	45485.97
559.47	45347.88
559.64	45500.01
559.80	45186.38
559.97	45368.94
560.13	44964.03
560.30	45635.77
560.46	45434.48
560.63	45614.70
560.79	45497.67
560.96	46466.66
561.12	45567.89
561.29	45249.58
561.45	45745.77
561.61	45471.93
561.78	45675.55
561.94	45858.12
562.11	45530.44
562.27	45509.38
562.44	45794.92
562.60	45914.29
562.77	45841.73
562.93	45820.67
563.10	46302.82
563.26	45591.30
563.42	46052.38
563.59	45495.33
563.75	45933.01
563.92	45783.22
564.08	45804.28
564.24	46045.36
564.41	46014.93
564.57	46000.89
564.74	45996.21
564.90	45902.59
565.07	46036.00
565.23	45977.48
565.39	45890.88
565.56	45736.41
565.72	45539.80
565.88	45670.87
566.05	45591.30
566.21	45656.83
566.38	46087.49
566.54	45949.40
566.70	46094.51
566.87	45975.14
567.03	46052.38
567.19	46574.32
567.36	46513.47
567.52	45834.71
567.68	46534.53
567.85	45808.96
568.01	45797.26
568.17	45895.56
568.34	46380.06
568.50	46106.21
568.66	46150.68
568.83	46260.69
568.99	45900.25
569.15	46115.58
569.32	45727.05
569.48	46103.87
569.64	46419.84
569.81	45815.99
569.97	45790.24
570.13	45942.38
570.30	45902.59
570.46	45858.12
570.62	45560.87
570.78	45584.27
570.95	45633.42
571.11	45727.05
571.27	46036.00
571.43	46354.31
571.60	46443.25
571.76	46211.54
571.92	45874.50
572.09	46232.60
572.25	46230.26
572.41	46550.91
572.57	46550.91
572.74	46822.42
572.90	46595.38
573.06	46190.47
573.22	46197.49
573.38	46340.27
573.55	46370.69
573.71	46405.80
573.87	46314.52
574.03	46007.91
574.20	46085.15
574.36	46237.28
574.52	46305.16
574.68	46401.12
574.84	46185.79
575.01	46167.07
575.17	46010.25
575.33	45888.54
575.49	46082.81
575.65	46157.70
575.82	46490.06
575.98	45834.71
576.14	46480.70
576.30	46415.16
576.46	45825.35
576.62	46129.62
576.79	46244.30
576.95	46609.43
577.11	46344.95
577.27	46323.88
577.43	46171.75
577.59	46342.61
577.75	45598.32
577.92	45907.27
578.08	45888.54
578.24	46153.02
578.40	46026.63
578.56	46010.25
578.72	46237.28
578.88	46810.71
579.04	46621.13
579.21	46176.43
579.37	46148.34
579.53	46401.12
579.69	46197.49
579.85	46335.59
580.01	46321.54
580.17	45886.20
580.33	46073.45
580.49	46340.27
580.65	46649.22
580.82	46314.52
580.98	46323.88
581.14	45961.10
581.30	46258.35
581.46	46323.88
581.62	46646.88
581.78	46454.95
581.94	46660.92
582.10	45855.78
582.26	46337.93
582.42	46590.70
582.58	46337.93
582.74	46047.70
582.90	46504.10
583.06	46768.58
583.22	46773.27
583.38	46791.99
583.54	46515.81
583.70	46279.41
583.86	46461.97
584.02	46387.08
584.18	46621.13
584.34	46309.84
584.50	46508.79
584.66	46220.90
584.82	45928.33
584.98	46632.83
585.14	46651.56
585.30	46473.68
585.46	46433.89
585.62	46213.88
585.78	46377.72
585.94	46162.39
586.10	46288.77
586.26	46092.17
586.42	46417.50
586.58	46574.32
586.74	46693.69
586.90	46529.85
587.06	46653.90
587.22	46667.94
587.38	46373.03
587.54	46607.09
587.70	46440.91
587.86	46131.96
588.02	46000.89
588.18	46426.87
588.34	46291.12
588.49	45947.06
588.65	45759.81
588.81	45928.33
588.97	46146.00
589.13	45813.65
589.29	45933.01
589.45	46436.23
589.61	46019.61
589.77	46520.49
589.93	46443.25
590.08	46607.09
590.24	46436.23
590.40	46862.21
590.56	46691.35
590.72	46522.83
590.88	46316.86
591.04	46412.82
591.20	46927.74
591.35	46796.67
591.51	46923.06
591.67	46115.58
591.83	46396.44
591.99	46571.98
592.15	46705.39
592.31	46316.86
592.46	46525.17
592.62	46232.60
592.78	46698.37
592.94	46658.58
593.10	46869.23
593.26	46628.15
593.41	46548.57
593.57	46532.19
593.73	46223.24
593.89	46461.97
594.05	46361.33
594.20	46871.57
594.36	46373.03
594.52	46742.84
594.68	46602.41
594.84	46473.68
594.99	47079.88
595.15	46408.14
595.31	46401.12
595.47	46579.00
595.62	46258.35
595.78	46623.47
595.94	46808.37
596.10	46770.93
596.25	46983.91
596.41	46628.15
596.57	46461.97
596.73	46358.99
596.88	46511.13
597.04	46913.70
597.20	46241.96
597.36	46513.47
597.51	46719.43
597.67	46401.12
597.83	46562.62
597.99	46885.61
598.14	46377.72
598.30	46490.06
598.46	46459.63
598.61	46679.64
598.77	46103.87
598.93	46841.14
599.09	46520.49
599.24	46969.87
599.40	46773.27
599.56	46876.25
599.71	46768.58
599.87	46607.09
600.03	46351.97
600.18	46375.37
600.34	46024.29
600.50	46483.04
600.65	46461.97
600.81	46600.07
600.97	46658.58
601.12	47049.45
601.28	46742.84
601.44	45839.39
601.59	46356.65
601.75	46485.38
601.91	46412.82
602.06	46162.39
602.22	46759.22
602.37	46787.31
602.53	46319.20
602.69	46623.47
602.84	46511.13
603.00	46223.24
603.16	46499.42
603.31	46541.55
603.47	46618.79
603.62	46209.20
603.78	46284.09
603.94	46681.98
604.09	46815.40
604.25	46424.53
604.40	46550.91
604.56	46614.11
604.71	46211.54
604.87	46728.80
605.03	46504.10
605.18	46274.73
605.34	46497.08
605.49	46003.23
605.65	46672.62
605.80	46312.18
605.96	46508.79
606.12	46335.59
606.27	46625.81
606.43	46295.80
606.58	46443.25
606.74	46356.65
606.89	46211.54
607.05	46485.38
607.20	46256.01
607.36	46220.90
607.51	46431.55
607.67	46569.64
607.82	46178.77
607.98	46050.04
608.13	45949.40
608.29	46021.95
608.44	46064.08
608.60	45827.69
608.75	46415.16
608.91	46382.40
609.06	46185.79
609.22	46017.27
609.37	45904.93
609.53	46321.54
609.68	46087.49
609.84	46333.24
609.99	45628.74
610.15	45523.42
610.30	45710.66
610.46	45361.92
610.61	45689.60
610.76	46206.86
610.92	45879.18
611.07	45713.00
611.23	46012.59
611.38	45928.33
611.54	45778.54
611.69	45462.57
611.84	45588.95
612.00	45202.77
612.15	45574.91
612.31	46047.70
612.46	45174.68
612.62	46209.20
612.77	45839.39
612.92	45818.33
613.08	45539.80
613.23	45502.35
613.39	45549.17
613.54	45116.17
613.69	45338.52
613.85	45153.62
614.00	45659.17
614.15	45731.73
614.31	45179.36
614.46	46068.76
614.62	45434.48
614.77	45502.35
614.92	44999.14
615.08	45230.85
615.23	44715.93
615.38	45120.85
615.54	45174.68
615.69	44893.82
615.84	45181.70
616.00	45368.94
616.15	45535.12
616.30	45214.47
616.46	44531.03
616.61	44996.80
616.76	45184.04
616.92	44982.76
617.07	44884.45
617.22	44554.44
617.37	44704.23
617.53	45333.84
617.68	44973.39
617.83	44985.10
617.99	44767.43
618.14	45324.47
618.29	44524.01
618.45	44561.46
618.60	44561.46
618.75	44423.37
618.90	44456.14
619.06	44748.70
619.21	44655.08
619.36	44552.10
619.51	44542.74
619.67	44762.75
619.82	44699.55
619.97	44788.49
620.12	44135.48
620.28	44126.12
620.43	44425.71
620.58	44678.49
620.73	44467.84
620.89	44350.81
621.04	44615.29
621.19	44100.37
621.34	44580.18
621.49	44119.10
621.65	43887.39
621.80	44311.02
621.95	44491.24
622.10	44275.91
622.25	44264.21
622.41	44116.76
622.56	43863.98
622.71	44446.77
622.86	43665.03
623.01	44076.97
623.16	44184.63
623.32	43892.07
623.47	43915.47
623.62	44013.77
623.77	43693.12
623.92	44142.50
624.07	43966.96
624.23	43306.93
624.38	43737.59
624.53	43620.56
624.68	43746.95
624.83	43580.78
624.98	43756.32
625.13	43468.43
625.29	43566.73
625.44	43590.14
625.59	42887.98
625.74	43119.69
625.89	43639.29
626.04	43276.51
626.19	43122.03
626.34	43430.98
626.49	43416.94
626.65	43171.18
626.80	43215.65
626.95	42941.81
627.10	43100.97
627.25	43503.54
627.40	43473.11
627.55	42607.11
627.70	42621.16
627.85	42948.83
628.00	42932.45
628.15	42726.48
628.30	43159.48
628.45	43264.80
628.60	42677.33
628.76	43253.10
628.91	42916.06
629.06	42866.91
629.21	42904.36
629.36	42614.13
629.51	42630.52
629.66	42490.09
629.81	42457.32
629.96	42632.86
630.11	42370.72
630.26	43122.03
630.41	42686.69
630.56	42583.71
630.71	42164.75
630.86	42656.26
631.01	42239.65
631.16	42506.47
631.31	41989.21
631.46	42284.12
631.61	42237.31
631.76	42529.87
631.91	42712.44
632.06	42403.49
632.21	42316.89
632.36	42019.64
632.51	42017.30
632.66	42270.08
632.81	42007.94
632.96	41713.03
633.10	42377.74
633.25	42108.58
633.40	41727.07
633.55	41926.02
633.70	41907.29
633.85	41876.86
634.00	42342.63
634.15	41612.38
634.30	41556.21
634.45	41799.63
634.60	41563.23
634.75	41687.28
634.90	41375.99
635.05	42061.77
635.19	41591.32
635.34	41780.90
635.49	41769.20
635.64	41546.85
635.79	41691.96
635.94	41172.36
636.09	41413.44
636.24	41310.46
636.39	41043.63
636.53	41832.39
636.68	41490.68
636.83	41539.83
636.98	41556.21
637.13	41207.47
637.28	41577.28
637.43	41312.80
637.57	41205.13
637.72	41464.93
637.87	41336.20
638.02	41305.77
638.17	41549.19
638.32	41205.13
638.46	40966.40
638.61	41254.28
638.76	40524.04
638.91	41230.88
639.06	40893.84
639.20	41247.26
639.35	41104.49
639.50	40708.94
639.65	40851.71
639.80	40821.28
639.94	40779.15
640.09	40858.73
640.24	40318.07
640.39	40790.86
640.54	40563.82
640.68	40294.66
640.83	40486.59
640.98	40250.19
641.13	40238.49
641.27	40701.92
641.42	40163.59
641.57	40444.46
641.72	40442.12
641.86	40549.78
642.01	39906.13
642.16	40322.75
642.31	39861.66
642.45	40542.76
642.60	40055.93
642.75	40243.17
642.90	40421.05
643.04	40449.14
643.19	40243.17
643.34	40521.69
643.48	40575.53
643.63	40250.19
643.78	40458.50
643.93	40390.62
644.07	39990.39
644.22	39934.22
644.37	40247.85
644.51	39800.81
644.66	39952.94
644.81	39929.54
644.95	39859.32
645.10	40025.50
645.25	39983.37
645.39	40044.23
645.54	39665.06
645.69	39957.63
645.83	39655.70
645.98	39819.53
646.13	39711.87
646.27	39367.81
646.42	39559.73
646.57	39805.49
646.71	39257.81
646.86	39519.95
647.00	39332.70
647.15	39501.22
647.30	39412.28
647.44	39522.29
647.59	39402.92
647.74	39054.18
647.88	39210.99
648.03	39105.67
648.17	39318.66
648.32	39309.30
648.47	39395.90
648.61	38782.68
648.76	39426.32
648.90	39070.56
649.05	38930.13
649.20	39414.62
649.34	38667.99
649.49	38785.02
649.63	38850.55
649.78	39182.91
649.92	39047.16
650.07	39655.70
650.21	39194.61
650.36	39316.32
650.51	39098.65
650.65	39770.38
650.80	39810.17
650.94	39405.26
651.09	39150.14
651.23	38305.21
651.38	39079.92
651.52	38345.00
651.67	38501.81
651.81	38625.86
651.96	38848.21
652.10	38600.12
652.25	38710.12
652.39	38609.48
652.54	38761.61
652.68	38218.61
652.83	38536.92
652.97	39098.65
653.12	38569.69
653.26	38253.72
653.41	38249.03
653.55	38345.00
653.70	38651.61
653.84	38087.54
653.99	38164.78
654.13	38143.71
654.27	38181.16
654.42	38429.26
654.56	38122.65
654.71	38672.67
654.85	37811.35
655.00	38576.71
655.14	37792.63
655.29	37722.41
655.43	37799.65
655.57	37303.46
655.72	37516.45
655.86	37457.93
656.01	37359.63
656.15	37338.57
656.30	37153.66
656.44	37453.25
656.58	37364.31
656.73	37560.92
656.87	37404.10
657.01	37368.99
657.16	37420.48
657.30	36781.52
657.45	37031.96
657.59	37450.91
657.73	37581.98
657.88	37862.85
658.02	37589.00
658.16	37462.61
658.31	37668.58
658.45	37488.36
658.60	37291.76
658.74	37750.50
658.88	36957.06
659.03	37132.60
659.17	36935.99
659.31	37156.00
659.46	36591.94
659.60	37174.73
659.74	36683.22
659.89	37146.64
660.03	36638.75
660.17	37067.06
660.32	37020.25
660.46	36783.86
660.60	37038.98
660.74	36603.64
660.89	36802.58
661.03	36409.37
661.17	36636.41
661.32	36229.15
661.46	36540.44
661.60	36292.35
661.74	36074.68
661.89	36252.56
662.03	36144.89
662.17	36720.66
662.31	35819.56
662.46	36676.19
662.60	36332.14
662.74	36048.93
662.88	36030.21
663.03	35849.99
663.17	36299.37
663.31	35924.88
663.45	36018.50
663.60	35955.31
663.74	35449.75
663.88	35702.53
664.02	35564.44
664.17	35976.37
664.31	35342.09
664.45	35302.30
664.59	35379.54
664.73	35463.80
664.88	35274.21
665.02	34855.26
665.16	34838.87
665.30	35028.46
665.44	35086.97
665.59	34888.03
665.73	35124.42
665.87	34799.08
666.01	34955.90
666.15	34890.37
666.29	34932.50
666.44	34834.19
666.58	35077.61
666.72	34796.74
666.86	34499.50
667.00	34871.64
667.14	33825.42
667.28	34270.12
667.43	34455.03
667.57	34157.78
667.71	34038.41
667.85	34380.13
667.99	34642.27
668.13	34040.75
668.27	34232.68
668.41	34632.91
668.56	33614.77
668.70	33933.09
668.84	33996.28
668.98	33544.56
669.12	33703.71
669.26	33041.34
669.40	32961.76
669.54	33574.98
669.68	33282.42
669.82	33462.64
669.96	33198.16
670.10	33099.86
670.25	33551.58
670.39	33146.67
670.53	32840.06
670.67	33228.59
670.81	33228.59
670.95	33181.77
671.09	32664.52
671.23	32921.98
671.37	32950.06
671.51	32910.27
671.65	32844.74
671.79	32507.70
671.93	32437.48
672.07	32503.02
672.21	32542.81
672.35	32348.54
672.49	32357.91
672.63	32416.42
672.77	31880.44
672.91	31835.97
673.05	31983.42
673.19	31842.99
673.33	31653.40
673.47	31999.80
673.61	31552.76
673.75	31545.74
673.89	31615.96
674.03	31421.69
674.17	31417.01
674.31	31161.89
674.45	31337.43
674.59	31278.92
674.73	31559.78
674.87	31014.44
675.01	31157.21
675.15	30965.29
675.29	31264.88
675.43	31021.46
675.56	30899.75
675.70	30974.65
675.84	30492.50
675.98	29708.42
676.12	30405.90
676.26	30597.82
676.40	30398.88
676.54	30408.24
676.68	30670.38
676.82	29598.41
676.96	29956.52
677.10	30029.07
677.23	29832.47
677.37	29898.00
677.51	29865.24
677.65	29558.63
677.79	29537.56
677.93	29214.57
678.07	29221.59
678.21	28650.50
678.34	28903.28
678.48	28961.79
678.62	28577.94
678.76	28811.99
678.90	28751.14
679.04	28542.83
679.18	28734.76
679.31	28481.98
679.45	27983.44
679.59	28308.78
679.73	28409.42
679.87	27964.72
680.00	27882.80
680.14	28158.99
680.28	27534.06
680.42	27555.13
680.56	27578.53
680.70	27866.42
680.83	27882.80
680.97	27428.74
681.11	27651.09
681.25	27674.49
681.39	27199.37
681.52	27175.96
681.66	27061.27
681.80	26862.33
681.94	26878.71
682.07	26937.23
682.21	26410.60
682.35	26782.75
682.49	26443.37
682.62	26307.62
682.76	26225.70
682.90	26494.86
683.04	26125.06
683.17	26160.17
683.31	25912.07
683.45	25745.89
683.59	25916.75
683.72	25905.05
683.86	25481.41
684.00	25926.11
684.13	25542.27
684.27	25766.96
684.41	25448.64
684.55	25228.63
684.68	25153.74
684.82	24645.84
684.96	24905.64
685.09	25123.31
685.23	24283.06
685.37	24669.25
685.50	24744.14
685.64	24727.76
685.78	24531.15
685.91	24159.01
686.05	24360.30
686.19	23758.78
686.32	24100.50
686.46	23440.47
686.60	23386.63
686.73	23218.11
686.87	23110.45
687.01	23304.71
687.14	23365.57
687.28	22909.16
687.42	23147.90
687.55	22855.33
687.69	23243.86
687.82	23117.47
687.96	23171.30
688.10	22953.63
688.23	22604.89
688.37	22878.74
688.50	22544.04
688.64	22581.49
688.78	22483.19
688.91	22204.66
689.05	22120.40
689.18	21991.67
689.32	21921.46
689.46	22607.23
689.59	22101.68
689.73	22431.69
689.86	21572.72
690.00	21876.99
690.13	21942.52
690.27	21701.45
690.41	21333.98
690.54	21046.10
690.68	21324.62
690.81	21469.73
690.95	21132.70
691.08	21064.82
691.22	21266.11
691.35	20884.60
691.49	21046.10
691.62	21062.48
691.76	21001.63
691.89	20865.88
692.03	20884.60
692.16	20306.49
692.30	20657.57
692.43	20456.28
692.57	20287.76
692.70	19971.79
692.84	20025.62
692.97	19805.61
693.11	19941.36
693.24	19969.45
693.38	19676.88
693.51	19711.99
693.65	19943.70
693.78	19599.65
693.92	19407.72
694.05	19531.77
694.19	19295.38
694.32	19199.41
694.45	19281.33
694.59	19150.26
694.72	18890.46
694.86	18785.14
694.99	18771.10
695.13	18925.57
695.26	18689.18
695.39	18654.07
695.53	18810.89
695.66	18831.95
695.80	18759.39
695.93	18281.92
696.07	18424.70
696.20	18508.96
696.33	18291.29
696.47	18143.83
696.60	17933.18
696.73	17834.88
696.87	17930.84
697.00	17647.64
697.14	17664.02
697.27	17336.35
697.40	17373.80
697.54	17268.47
697.67	17106.98
697.80	17191.23
697.94	17001.65
698.07	17380.82
698.21	17226.34
698.34	17268.47
698.47	17006.33
698.61	16919.73
698.74	16882.28
698.87	16837.81
699.01	16393.11
699.14	16547.59
699.27	16456.31
699.40	16582.70
699.54	16212.89
699.67	16280.77
699.80	16046.71
699.94	16063.10
700.07	16142.67
700.20	16255.02
700.34	16065.44
700.47	16035.01
700.60	16142.67
700.73	15974.16
700.87	15782.23
701.00	15761.17
701.13	15660.52
701.26	15459.24
701.40	15550.52
701.53	15019.22
701.66	15468.60
701.79	15161.99
701.93	15129.22
702.06	14906.87
702.19	14780.48
702.32	15009.86
702.46	14817.93
702.59	14743.03
702.72	14780.48
702.85	14860.06
702.99	14717.29
703.12	14487.92
703.25	14373.23
703.38	14452.81
703.51	14188.33
703.65	14125.13
703.78	14335.78
703.91	13809.16
704.04	13741.29
704.17	14160.24
704.31	14150.88
704.44	13703.84
704.57	14036.19
704.70	13671.07
704.83	13720.22
704.96	14038.53
705.10	13631.28
705.23	13645.32
>>>>>End Processed Spectral Data<<<<<
