SpectraSuite Data File
++++++++++++++++++++++++++++++++++++
Date: Fri Oct 25 10:48:14 EDT 2013
User: price-jones
Dark Spectrum Present: No
Reference Spectrum Present: No
Number of Sampled Component Spectra: 1
Spectrometers: USB2+H05261
Integration Time (usec): 100000 (USB2+H05261)
Spectra Averaged: 1 (USB2+H05261)
Boxcar Smoothing: 0 (USB2+H05261)
Correct for Electrical Dark: No (USB2+H05261)
Strobe/Lamp Enabled: No (USB2+H05261)
Correct for Detector Non-linearity: No (USB2+H05261)
Correct for Stray Light: No (USB2+H05261)
Number of Pixels in Processed Spectrum: 2048
>>>>>Begin Processed Spectral Data<<<<<
365.73	74.90
365.92	74.90
366.12	74.90
366.32	53.83
366.52	37.45
366.72	77.24
366.91	0.00
367.11	23.41
367.31	77.24
367.51	58.51
367.70	0.00
367.90	60.85
368.10	39.79
368.30	7.02
368.49	9.36
368.69	112.35
368.89	53.83
369.09	60.85
369.28	60.85
369.48	88.94
369.68	53.83
369.87	138.09
370.07	93.62
370.27	110.01
370.47	168.52
370.66	353.42
370.86	395.55
371.06	376.83
371.25	430.66
371.45	433.00
371.65	430.66
371.84	456.40
372.04	547.69
372.24	435.34
372.44	435.34
372.63	521.94
372.83	552.37
373.03	524.28
373.22	498.53
373.42	463.43
373.62	603.86
373.81	620.24
374.01	496.19
374.21	561.73
374.40	538.32
374.60	571.09
374.79	596.84
374.99	540.66
375.19	521.94
375.38	592.16
375.58	592.16
375.78	545.34
375.97	538.32
376.17	657.69
376.37	557.05
376.56	631.94
376.76	543.00
376.95	596.84
377.15	669.39
377.35	699.82
377.54	573.43
377.74	636.63
377.93	622.58
378.13	664.71
378.33	627.26
378.52	543.00
378.72	716.20
378.91	627.26
379.11	615.56
379.31	620.24
379.50	559.39
379.70	648.33
379.89	697.48
380.09	667.05
380.28	660.03
380.48	592.16
380.68	683.44
380.87	622.58
381.07	671.73
381.26	767.70
381.46	613.22
381.65	727.91
381.85	674.07
382.04	624.92
382.24	627.26
382.43	704.50
382.63	627.26
382.83	617.90
383.02	718.54
383.22	765.36
383.41	746.63
383.61	683.44
383.80	725.57
384.00	706.84
384.19	772.38
384.39	812.17
384.58	802.80
384.78	755.99
384.97	763.01
385.17	781.74
385.36	814.51
385.56	812.17
385.75	758.33
385.95	788.76
386.14	894.08
386.34	779.40
386.53	868.34
386.72	828.55
386.92	842.59
387.11	798.12
387.31	819.19
387.50	873.02
387.70	877.70
387.89	844.93
388.09	840.25
388.28	816.85
388.48	882.38
388.67	774.72
388.86	887.06
389.06	933.87
389.25	929.19
389.45	898.77
389.64	940.90
389.84	947.92
390.03	943.24
390.22	945.58
390.42	1032.18
390.61	894.08
390.81	912.81
391.00	978.34
391.19	978.34
391.39	968.98
391.58	1027.50
391.78	1064.94
391.97	1032.18
392.16	987.71
392.36	950.26
392.55	1055.58
392.75	947.92
392.94	926.85
393.13	933.87
393.33	1025.15
393.52	1060.26
393.71	976.00
393.91	1064.94
394.10	1018.13
394.29	1050.90
394.49	1086.01
394.68	1130.48
394.88	1118.78
395.07	1139.84
395.26	1111.75
395.46	1118.78
395.65	1207.72
395.84	1076.65
396.04	1249.85
396.23	1088.35
396.42	1111.75
396.62	1081.33
396.81	1245.16
397.00	1088.35
397.19	1179.63
397.39	1200.69
397.58	1242.82
397.77	1320.06
397.97	1284.95
398.16	1266.23
398.35	1439.43
398.55	1357.51
398.74	1287.29
398.93	1387.94
399.12	1336.45
399.32	1345.81
399.51	1397.30
399.70	1483.90
399.90	1380.92
400.09	1502.62
400.28	1444.11
400.47	1401.98
400.67	1486.24
400.86	1511.99
401.05	1502.62
401.24	1629.01
401.44	1530.71
401.63	1474.54
401.82	1537.73
402.01	1430.07
402.21	1610.29
402.40	1619.65
402.59	1675.82
402.78	1563.48
402.97	1675.82
403.17	1638.38
403.36	1722.63
403.55	1659.44
403.74	1720.29
403.93	1664.12
404.13	1750.72
404.32	1715.61
404.51	1717.95
404.70	1666.46
404.89	1732.00
405.09	1785.83
405.28	1853.70
405.47	1799.87
405.66	1888.81
405.85	1860.73
406.05	1748.38
406.24	1842.00
406.43	1820.94
406.62	1877.11
406.81	1994.14
407.00	1900.52
407.20	1792.85
407.39	1842.00
407.58	1926.26
407.77	1987.11
407.96	2005.84
408.15	2012.86
408.34	1966.05
408.54	2120.53
408.73	2139.25
408.92	1975.41
409.11	2139.25
409.30	2211.81
409.49	2146.27
409.68	2230.53
409.87	2176.70
410.07	2174.36
410.26	2181.38
410.45	2237.55
410.64	2165.00
410.83	2260.96
411.02	2333.51
411.21	2279.68
411.40	2375.64
411.59	2324.15
411.78	2356.92
411.98	2356.92
412.17	2328.83
412.36	2499.69
412.55	2541.82
412.74	2523.10
412.93	2478.63
413.12	2483.31
413.31	2576.93
413.50	2541.82
413.69	2616.72
413.88	2679.91
414.07	2621.40
414.26	2738.43
414.45	2745.45
414.64	2605.02
414.83	2684.59
415.02	2696.30
415.22	2932.69
415.41	2827.37
415.60	2745.45
415.79	2939.71
415.98	3026.31
416.17	3061.42
416.36	3026.31
416.55	2949.08
416.74	3012.27
416.93	3117.59
417.12	3070.78
417.31	3141.00
417.50	3080.14
417.69	3227.60
417.88	3030.99
418.07	3234.62
418.26	3171.43
418.45	3169.09
418.64	3323.56
418.83	3281.43
419.02	3199.51
419.21	3204.19
419.39	3321.22
419.58	3246.32
419.77	3370.37
419.96	3386.76
420.15	3321.22
420.34	3311.86
420.53	3323.56
420.72	3391.44
420.91	3426.54
421.10	3574.00
421.29	3555.27
421.48	3571.66
421.67	3578.68
421.86	3557.61
422.05	3588.04
422.24	3419.52
422.43	3499.10
422.61	3435.91
422.80	3595.06
422.99	3513.14
423.18	3485.06
423.37	3625.49
423.56	3723.79
423.75	3595.06
423.94	3630.17
424.13	3400.80
424.32	3501.44
424.50	3653.58
424.69	3737.84
424.88	3728.47
425.07	3723.79
425.26	3452.29
425.45	3595.06
425.64	3632.51
425.83	3599.74
426.01	3798.69
426.20	3695.71
426.39	3754.22
426.58	3662.94
426.77	3653.58
426.96	3597.40
427.15	3723.79
427.33	3854.86
427.52	3740.18
427.71	3859.54
427.90	3611.45
428.09	3707.41
428.28	3948.48
428.46	3805.71
428.65	3929.76
428.84	3967.21
429.03	3964.87
429.22	3962.53
429.40	3801.03
429.59	4002.32
429.78	3744.86
429.97	3728.47
430.16	3763.58
430.34	3906.35
430.53	3988.27
430.72	3936.78
430.91	4091.26
431.10	4021.04
431.28	4184.88
431.47	4327.65
431.66	4322.97
431.85	4095.94
432.03	4208.28
432.22	4358.08
432.41	4285.52
432.60	4442.34
432.79	4262.12
432.97	4346.37
433.16	4334.67
433.35	4367.44
433.54	4241.05
433.72	4273.82
433.91	4315.95
434.10	4222.33
434.28	4341.69
434.47	4388.50
434.66	4599.15
434.85	4662.35
435.03	4521.92
435.22	4496.17
435.41	4594.47
435.59	4711.50
435.78	4681.07
435.97	4718.52
436.16	4774.69
436.34	4744.27
436.53	4697.46
436.72	4795.76
436.90	4688.09
437.09	4858.95
437.28	4643.62
437.46	4830.87
437.65	4674.05
437.84	4760.65
438.02	4664.69
438.21	4849.59
438.40	4823.84
438.58	5006.41
438.77	4954.91
438.96	4968.96
439.14	5268.55
439.33	5163.22
439.52	5233.44
439.70	5231.10
439.89	5263.86
440.08	5186.63
440.26	5359.83
440.45	5280.25
440.63	5432.38
440.82	5394.93
441.01	5366.85
441.19	5631.33
441.38	5523.66
441.57	5565.79
441.75	5563.45
441.94	5668.78
442.12	5666.44
442.31	5921.56
442.50	5818.57
442.68	5713.25
442.87	5877.09
443.05	5867.72
443.24	5933.26
443.43	5865.38
443.61	6036.24
443.80	6150.93
443.98	5788.14
444.17	5605.58
444.35	5998.79
444.54	6148.59
444.73	6129.86
444.91	5942.62
445.10	6073.69
445.28	5881.77
445.47	6066.67
445.65	5809.21
445.84	6155.61
446.02	5970.71
446.21	6225.82
446.39	5980.07
446.58	6134.54
446.77	6171.99
446.95	6179.01
447.14	6157.95
447.32	6183.70
447.51	6202.42
447.69	6038.58
447.88	6150.93
448.06	6073.69
448.25	6186.04
448.43	6118.16
448.62	6289.02
448.80	6282.00
448.99	6310.08
449.17	6363.92
449.36	6340.51
449.54	6431.79
449.73	6354.55
449.91	6483.28
450.10	6494.99
450.28	6661.16
450.46	6710.32
450.65	6579.25
450.83	6537.12
451.02	6626.06
451.20	6698.61
451.39	6602.65
451.57	6569.88
451.76	6546.48
451.94	6696.27
452.13	6712.66
452.31	6686.91
452.49	6497.33
452.68	6810.96
452.86	6537.12
453.05	6710.32
453.23	6761.81
453.42	6813.30
453.60	6773.51
453.78	6846.07
453.97	6679.89
454.15	6855.43
454.34	6743.08
454.52	7000.54
454.70	6918.62
454.89	6839.05
455.07	6995.86
455.26	7040.33
455.44	7012.24
455.62	7279.07
455.81	7033.31
455.99	7124.59
456.17	7246.30
456.36	7307.15
456.54	7323.54
456.73	7370.35
456.91	7534.18
457.09	7485.03
457.28	7562.27
457.46	7478.01
457.64	7665.25
457.83	7482.69
458.01	7470.99
458.19	7494.40
458.38	7487.37
458.56	7644.19
458.74	7583.34
458.93	7545.89
459.11	7779.94
459.29	7606.74
459.48	7777.60
459.66	7754.19
459.84	7716.75
460.03	7859.52
460.21	7868.88
460.39	7852.50
460.57	7850.16
460.76	7915.69
460.94	7992.93
461.12	7978.89
461.31	7887.61
461.49	7906.33
461.67	7936.76
461.85	8126.34
462.04	7955.48
462.22	8575.72
462.40	8418.91
462.59	8161.45
462.77	8339.33
462.95	8407.20
463.13	8311.24
463.32	8154.43
463.50	8552.32
463.68	8521.89
463.86	8386.14
464.05	8308.90
464.23	8241.03
464.41	8552.32
464.59	8203.58
464.78	8475.08
464.96	8472.74
465.14	8187.19
465.32	8606.15
465.50	8512.53
465.69	8566.36
465.87	8458.70
466.05	8650.62
466.23	8311.24
466.41	8580.40
466.60	8582.74
466.78	8575.72
466.96	8554.66
467.14	8585.08
467.32	8702.11
467.51	8755.94
467.69	8622.53
467.87	8559.34
468.05	8777.01
468.23	8669.34
468.41	8662.32
468.60	8753.60
468.78	8774.67
468.96	8968.93
469.14	8748.92
469.32	9060.21
469.50	8676.37
469.69	8912.76
469.87	9228.73
470.05	9055.53
470.23	9135.11
470.41	9151.49
470.59	9160.86
470.77	9029.79
470.95	9116.39
471.14	9465.13
471.32	9195.96
471.50	9547.05
471.68	9448.74
471.86	9643.01
472.04	9612.58
472.22	9692.16
472.40	9469.81
472.58	9692.16
472.77	9703.86
472.95	9813.87
473.13	9898.13
473.31	9797.48
473.49	9982.38
473.67	9853.66
473.85	9949.62
474.03	10160.27
474.21	10057.28
474.39	10136.86
474.57	10209.42
474.75	10417.72
474.93	10260.91
475.12	10403.68
475.30	10387.30
475.48	10410.70
475.66	10408.36
475.84	10452.83
476.02	10604.97
476.20	10532.41
476.38	10803.91
476.56	11122.23
476.74	11082.44
476.92	10817.96
477.10	10824.98
477.28	11147.97
477.46	11185.42
477.64	11377.34
477.82	11463.94
478.00	11597.35
478.18	11541.18
478.36	11501.39
478.54	11606.72
478.72	11831.41
478.90	11864.18
479.08	12107.59
479.26	12138.02
479.44	12243.34
479.62	12390.80
479.80	12540.59
479.98	12418.88
480.16	12526.55
480.34	12671.66
480.52	12915.08
480.70	12849.54
480.88	12849.54
481.06	13048.49
481.24	13004.02
481.41	13128.06
481.59	13518.93
481.77	13528.30
481.95	13247.43
482.13	13488.51
482.31	13474.46
482.49	13657.03
482.67	14099.39
482.85	13846.61
483.03	14169.60
483.21	14438.76
483.39	14090.02
483.57	14207.05
483.74	14359.19
483.92	14595.58
484.10	14363.87
484.28	14796.87
484.46	15117.52
484.64	15206.46
484.82	14963.04
485.00	15012.20
485.18	15199.44
485.35	15559.88
485.53	15059.01
485.71	15147.95
485.89	15484.98
486.07	15419.45
486.25	15810.32
486.43	15920.32
486.61	16037.35
486.78	16304.17
486.96	16271.40
487.14	16706.74
487.32	16411.84
487.50	17053.14
487.68	16842.50
487.85	17252.09
488.03	17348.05
488.21	17493.16
488.39	17532.95
488.57	17575.08
488.75	17671.04
488.92	17645.30
489.10	17806.80
489.28	18125.11
489.46	18118.09
489.64	18485.55
489.81	19014.51
489.99	18864.72
490.17	18717.26
490.35	18920.89
490.53	19042.60
490.70	18981.74
490.88	18953.66
491.06	19330.48
491.24	19428.79
491.41	19344.53
491.59	19260.27
491.77	19789.23
491.95	19515.39
492.13	19955.41
492.30	20402.45
492.48	20467.98
492.66	20409.47
492.84	20655.23
493.01	20776.94
493.19	20484.37
493.37	20748.85
493.54	21165.46
493.72	21231.00
493.90	21207.59
494.08	21535.27
494.25	21830.18
494.43	21792.73
494.61	21942.52
494.79	22061.89
494.96	21713.15
495.14	21961.25
495.32	22232.75
495.49	21891.03
495.67	22478.50
495.85	22647.02
496.02	22548.72
496.20	22576.81
496.38	22820.22
496.55	23208.75
496.73	23154.92
496.91	23290.67
497.09	23396.00
497.26	23742.39
497.44	23112.79
497.62	23709.63
497.79	23899.21
497.97	23903.89
498.14	23936.66
498.32	24540.52
498.50	23847.72
498.67	24538.18
498.85	24376.68
499.03	24694.99
499.20	24992.24
499.38	24528.81
499.56	24563.92
499.73	25226.29
499.91	24891.60
500.08	25010.96
500.26	24800.32
500.44	24905.64
500.61	25013.31
500.79	25238.00
500.97	25689.72
501.14	25832.49
501.32	25844.20
501.49	25394.81
501.67	25734.19
501.84	25956.54
502.02	25855.90
502.20	26141.44
502.37	26237.41
502.55	26459.76
502.72	26403.58
502.90	26434.01
503.07	26658.70
503.25	26375.50
503.43	26281.88
503.60	26398.90
503.78	26808.50
503.95	26473.80
504.13	26466.78
504.30	27056.59
504.48	26857.65
504.65	27023.83
504.83	27321.07
505.01	27793.86
505.18	27302.35
505.36	28121.54
505.53	27721.30
505.71	27864.08
505.88	27861.74
506.06	27850.03
506.23	28105.15
506.41	27735.35
506.58	27910.89
506.76	28095.79
506.93	27971.74
507.11	28144.94
507.28	28371.97
507.46	28580.28
507.63	28547.51
507.81	28479.64
507.98	28451.55
508.16	28613.05
508.33	28540.49
508.50	29209.89
508.68	29167.76
508.85	29212.23
509.03	28739.44
509.20	29441.60
509.38	29355.00
509.55	29390.11
509.73	29511.81
509.90	29703.74
510.08	29659.27
510.25	29879.28
510.42	29951.84
510.60	30288.87
510.77	29883.96
510.95	30342.70
511.12	30249.08
511.30	30382.49
511.47	30586.12
511.64	30883.37
511.82	30639.95
511.99	30590.80
512.17	30766.34
512.34	30466.75
512.51	30735.92
512.69	30918.48
512.86	30829.54
513.04	30953.58
513.21	31178.28
513.38	31299.98
513.56	31585.53
513.73	31625.32
513.90	31288.28
514.08	31096.36
514.25	31693.19
514.43	31564.46
514.60	31381.90
514.77	31784.48
514.95	31887.46
515.12	31833.63
515.29	32119.17
515.47	32360.25
515.64	32367.27
515.81	31821.92
515.99	32182.37
516.16	32165.98
516.33	32109.81
516.51	32041.93
516.68	31952.99
516.85	31962.36
517.03	32456.21
517.20	32233.86
517.37	32493.66
517.54	32772.18
517.72	32545.15
517.89	32795.59
518.06	32460.89
518.24	32687.92
518.41	32533.45
518.58	32868.14
518.75	33259.01
518.93	33118.58
519.10	32870.48
519.27	33532.86
519.45	33481.36
519.62	33834.78
519.79	33666.27
519.96	33677.97
520.14	33654.56
520.31	33439.23
520.48	34125.01
520.65	33476.68
520.83	34244.38
521.00	33825.42
521.17	33951.81
521.34	33984.58
521.52	34450.35
521.69	34562.69
521.86	34366.09
522.03	34459.71
522.20	34455.03
522.38	34848.24
522.55	34799.08
522.72	34373.11
522.89	35115.06
523.07	34663.33
523.24	34794.40
523.41	35063.57
523.58	35274.21
523.75	35344.43
523.92	34983.99
524.10	35409.96
524.27	35541.03
524.44	35831.26
524.61	35552.74
524.78	35597.21
524.96	35882.75
525.13	35995.10
525.30	36046.59
525.47	36325.11
525.64	35791.47
525.81	36364.90
525.98	35835.94
526.16	36264.26
526.33	35637.00
526.50	36210.43
526.67	35711.89
526.84	36123.83
527.01	36123.83
527.18	36549.81
527.36	36435.12
527.53	36882.16
527.70	36655.13
527.87	36701.94
528.04	36507.68
528.21	37102.17
528.38	36849.39
528.55	37097.49
528.72	37109.19
528.89	37516.45
529.07	36854.08
529.24	36692.58
529.41	37118.56
529.58	36957.06
529.75	37137.28
529.92	37549.21
530.09	37366.65
530.26	37462.61
530.43	37656.88
530.60	37710.71
530.77	37284.73
530.94	38183.50
531.11	37378.36
531.28	37954.13
531.46	37982.21
531.63	38043.07
531.80	37720.07
531.97	37996.26
532.14	38295.85
532.31	37708.37
532.48	37783.27
532.65	38120.31
532.82	38239.67
532.99	38094.56
533.16	37893.27
533.33	38476.07
533.50	38618.84
533.67	38211.59
533.84	38316.91
534.01	38183.50
534.18	38529.90
534.35	38529.90
534.52	38651.61
534.69	38808.42
534.86	38401.17
535.03	38312.23
535.20	38801.40
535.37	39140.78
535.54	39288.23
535.71	38974.60
535.88	39058.86
536.05	38782.68
536.22	39007.37
536.38	38866.94
536.55	39140.78
536.72	39147.80
536.89	39159.50
537.06	38862.26
537.23	39543.35
537.40	39203.97
537.57	39332.70
537.74	39508.24
537.91	39868.69
538.08	39737.62
538.25	39218.02
538.42	39412.28
538.59	39981.03
538.75	39325.68
538.92	39585.48
539.09	39791.45
539.26	39831.24
539.43	39634.63
539.60	39702.51
539.77	39768.04
539.94	40107.42
540.11	39681.44
540.28	40329.77
540.44	40306.37
540.61	39835.92
540.78	39555.05
540.95	39833.58
541.12	39871.03
541.29	40304.02
541.46	40252.53
541.62	40184.66
541.79	40641.06
541.96	40037.20
542.13	40325.09
542.30	40238.49
542.47	40692.55
542.63	40863.41
542.80	40552.12
542.97	40722.98
543.14	41322.16
543.31	41116.19
543.48	41099.81
543.64	41474.29
543.81	41399.40
543.98	41095.13
544.15	41017.89
544.32	41422.80
544.48	41722.39
544.65	41483.66
544.82	41280.03
544.99	41198.11
545.16	41432.16
545.32	41251.94
545.49	41661.54
545.66	41780.90
545.83	41621.75
546.00	41773.88
546.16	41450.89
546.33	41701.32
546.50	40868.09
546.67	42293.48
546.83	41289.39
547.00	41186.41
547.17	42059.43
547.34	41701.32
547.50	42094.53
547.67	42094.53
547.84	42061.77
548.00	42120.28
548.17	42054.75
548.34	41846.44
548.51	42562.64
548.67	42394.12
548.84	42183.48
549.01	42660.94
549.18	42504.13
549.34	42651.58
549.51	42511.15
549.68	42770.95
549.84	42784.99
550.01	42965.21
550.18	42384.76
550.34	41930.70
550.51	42279.44
550.68	42291.14
550.84	42384.76
551.01	42958.19
551.18	42787.33
551.34	42674.99
551.51	42607.11
551.68	42415.19
551.84	43026.07
552.01	42789.67
552.18	42682.01
552.34	42583.71
552.51	43117.35
552.68	42724.14
552.84	43065.86
553.01	43634.61
553.18	43199.27
553.34	43068.20
553.51	43222.67
553.67	42937.13
553.84	43454.39
554.01	43435.66
554.17	43412.26
554.34	43480.13
554.51	43566.73
554.67	43262.46
554.84	43044.79
555.00	43461.41
555.17	42981.60
555.33	43629.93
555.50	43735.25
555.67	43566.73
555.83	43845.26
556.00	43636.95
556.16	43782.06
556.33	43292.89
556.50	43672.06
556.66	43854.62
556.83	43503.54
556.99	43711.84
557.16	44182.29
557.32	43501.20
557.49	43856.96
557.65	44041.86
557.82	43246.08
557.98	43702.48
558.15	43800.79
558.32	43962.28
558.48	43613.54
558.65	44105.06
558.81	43548.01
558.98	43793.76
559.14	43611.20
559.31	43875.68
559.47	43959.94
559.64	44301.66
559.80	44320.38
559.97	44114.42
560.13	44053.56
560.30	44203.36
560.46	44119.10
560.63	43859.30
560.79	44062.93
560.96	44545.08
561.12	43995.05
561.29	44088.67
561.45	44259.53
561.61	44034.84
561.78	44009.09
561.94	43831.21
562.11	44353.15
562.27	44203.36
562.44	44315.70
562.60	44470.18
562.77	44488.90
562.93	44252.51
563.10	44547.42
563.26	43889.73
563.42	44137.82
563.59	43807.81
563.75	44552.10
563.92	44083.99
564.08	44346.13
564.24	44898.50
564.41	44657.42
564.57	44367.20
564.74	44201.02
564.90	44371.88
565.07	44662.10
565.23	44385.92
565.39	44559.12
565.56	44479.54
565.72	44685.51
565.88	44634.02
566.05	44699.55
566.21	44570.82
566.38	44170.59
566.54	44425.71
566.70	44388.26
566.87	44727.64
567.03	44985.10
567.19	44973.39
567.36	44421.03
567.52	44509.97
567.68	45045.95
567.85	44732.32
568.01	44816.58
568.17	44456.14
568.34	45052.97
568.50	44896.16
568.66	44430.39
568.83	44697.21
568.99	44165.91
569.15	44800.19
569.32	44762.75
569.48	44444.43
569.64	44685.51
569.81	44238.47
569.97	44882.11
570.13	44559.12
570.30	44304.00
570.46	44524.01
570.62	44509.97
570.78	44701.89
570.95	44790.83
571.11	45055.31
571.27	44795.51
571.43	44711.25
571.60	44725.30
571.76	44762.75
571.92	44844.66
572.09	44650.40
572.25	44598.91
572.41	44699.55
572.57	44861.05
572.74	45209.79
572.90	45247.24
573.06	45200.43
573.22	45179.36
573.38	44875.09
573.55	44720.62
573.71	45085.74
573.87	44947.65
574.03	44919.56
574.20	45043.61
574.36	44645.72
574.52	44626.99
574.68	44875.09
574.84	45059.99
575.01	44797.85
575.17	44718.28
575.33	44746.36
575.49	44790.83
575.65	45453.20
575.82	45434.48
575.98	44900.84
576.14	45237.87
576.30	45127.87
576.46	44769.77
576.62	44924.24
576.79	44692.53
576.95	44271.23
577.11	45127.87
577.27	44971.05
577.43	44685.51
577.59	44886.79
577.75	44858.71
577.92	45069.36
578.08	45111.49
578.24	44641.04
578.40	44837.64
578.56	45294.05
578.72	45205.11
578.88	45413.41
579.04	45347.88
579.21	44816.58
579.37	44896.16
579.53	44931.26
579.69	44949.99
579.85	45193.40
580.01	45106.80
580.17	45237.87
580.33	45420.44
580.49	45586.61
580.65	45689.60
580.82	45097.44
580.98	44935.95
581.14	44495.92
581.30	45703.64
581.46	45347.88
581.62	45280.00
581.78	44957.01
581.94	45382.99
582.10	44907.86
582.26	45429.80
582.42	45652.15
582.58	45099.78
582.74	45052.97
582.90	45261.28
583.06	45663.85
583.22	45006.16
583.38	45628.74
583.54	45478.95
583.70	45371.28
583.86	45251.92
584.02	45106.80
584.18	45315.11
584.34	45511.72
584.50	45155.96
584.66	44753.38
584.82	45008.50
584.98	45776.20
585.14	45319.79
585.30	45067.02
585.46	44985.10
585.62	44760.40
585.78	45172.34
585.94	44514.65
586.10	44690.19
586.26	45106.80
586.42	45504.70
586.58	45588.95
586.74	45226.17
586.90	45104.46
587.06	45483.63
587.22	45216.81
587.38	45172.34
587.54	45572.57
587.70	45167.66
587.86	45375.97
588.02	45167.66
588.18	45081.06
588.34	45207.45
588.49	45043.61
588.65	45132.55
588.81	45174.68
588.97	45258.94
589.13	44624.65
589.29	45490.65
589.45	45251.92
589.61	45270.64
589.77	45642.79
589.93	45436.82
590.08	45811.31
590.24	45411.07
590.40	45436.82
590.56	45759.81
590.72	45588.95
590.88	45069.36
591.04	45429.80
591.20	45801.94
591.35	45443.84
591.51	45930.67
591.67	45727.05
591.83	45240.21
591.99	45170.00
592.15	45422.78
592.31	45144.25
592.46	45429.80
592.62	45312.77
592.78	45635.77
592.94	45729.39
593.10	45235.53
593.26	45401.71
593.41	45663.85
593.57	45296.39
593.73	45460.23
593.89	45315.11
594.05	45177.02
594.20	45371.28
594.36	45951.74
594.52	45734.07
594.68	45478.95
594.84	45743.43
594.99	45841.73
595.15	45460.23
595.31	45439.16
595.47	45294.05
595.62	45378.31
595.78	45478.95
595.94	45462.57
596.10	45897.91
596.25	45631.08
596.41	45832.37
596.57	45289.37
596.73	45993.87
596.88	45265.96
597.04	45736.41
597.20	45521.08
597.36	45666.19
597.51	45776.20
597.67	45766.84
597.83	45806.62
597.99	45645.13
598.14	45895.56
598.30	45687.26
598.46	45621.72
598.61	45298.73
598.77	45394.69
598.93	45521.08
599.09	45907.27
599.24	45797.26
599.40	45542.14
599.56	45911.95
599.71	45600.66
599.87	45991.53
600.03	45675.55
600.18	45574.91
600.34	45766.84
600.50	45366.60
600.65	45549.17
600.81	46054.72
600.97	45324.47
601.12	45610.02
601.28	45876.84
601.44	45464.91
601.59	45408.73
601.75	45364.26
601.91	45773.86
602.06	45062.33
602.22	45886.20
602.37	45560.87
602.53	45855.78
602.69	45940.04
602.84	45317.45
603.00	45605.34
603.16	45738.75
603.31	45324.47
603.47	45731.73
603.62	45275.32
603.78	45684.92
603.94	45450.86
604.09	45560.87
604.25	45640.45
604.40	45492.99
604.56	45607.68
604.71	45312.77
604.87	45277.66
605.03	45591.30
605.18	45656.83
605.34	45759.81
605.49	45256.60
605.65	45507.04
605.80	45471.93
605.96	45691.94
606.12	45652.15
606.27	45200.43
606.43	45031.91
606.58	45382.99
606.74	44949.99
606.89	45036.59
607.05	45118.51
607.20	45151.27
607.36	45780.88
607.51	45715.34
607.67	45315.11
607.82	45256.60
607.98	45500.01
608.13	44949.99
608.29	44872.75
608.44	45083.40
608.60	44531.03
608.75	44797.85
608.91	44800.19
609.06	44650.40
609.22	45308.09
609.37	44849.35
609.53	45104.46
609.68	45177.02
609.84	45052.97
609.99	45071.70
610.15	45020.20
610.30	45095.10
610.46	44772.11
610.61	45132.55
610.76	45282.34
610.92	44624.65
611.07	44641.04
611.23	44720.62
611.38	44985.10
611.54	44547.42
611.69	44669.12
611.84	45359.58
612.00	45319.79
612.15	44910.20
612.31	45177.02
612.46	44772.11
612.62	44975.73
612.77	44884.45
612.92	45041.27
613.08	44650.40
613.23	45092.76
613.39	44554.44
613.54	44491.24
613.69	44191.65
613.85	45172.34
614.00	44966.37
614.15	44968.71
614.31	44912.54
614.46	44781.47
614.62	44769.77
614.77	44589.55
614.92	44311.02
615.08	44512.31
615.23	44479.54
615.38	44238.47
615.54	44430.39
615.69	44470.18
615.84	43636.95
616.00	44554.44
616.15	44032.50
616.30	44439.75
616.46	44388.26
616.61	44311.02
616.76	44308.68
616.92	44093.35
617.07	43753.97
617.22	43976.33
617.37	43948.24
617.53	44622.31
617.68	43973.98
617.83	44275.91
617.99	44212.72
618.14	44105.06
618.29	44325.07
618.45	44046.54
618.60	44135.48
618.75	44020.80
618.90	43990.37
619.06	43482.47
619.21	44091.01
619.36	44163.57
619.51	44016.11
619.67	43777.38
619.82	43943.56
619.97	43863.98
620.12	43430.98
620.28	43716.53
620.43	43782.06
620.58	44016.11
620.73	43515.24
620.89	43753.97
621.04	43615.88
621.19	43508.22
621.34	43938.88
621.49	43253.10
621.65	43349.06
621.80	43585.46
621.95	43260.12
622.10	43526.94
622.25	43119.69
622.41	43100.97
622.56	43676.74
622.71	43899.09
622.86	43267.14
623.01	43232.04
623.16	43562.05
623.32	43604.18
623.47	43847.60
623.62	43693.12
623.77	43077.56
623.92	43318.64
624.07	42642.22
624.23	42997.98
624.38	42808.40
624.53	42895.00
624.68	43210.97
624.83	43522.26
624.98	43536.30
625.13	42932.45
625.29	42948.83
625.44	42845.85
625.59	42604.77
625.74	42249.01
625.89	42277.10
626.04	42965.21
626.19	42838.83
626.34	42965.21
626.49	42450.30
626.65	42635.20
626.80	42520.51
626.95	42595.41
627.10	42230.29
627.25	42745.20
627.40	42101.56
627.55	41991.55
627.70	42143.69
627.85	42127.30
628.00	41900.27
628.15	42333.27
628.30	41666.22
628.45	42422.21
628.60	41970.49
628.76	42454.98
628.91	42356.67
629.06	42550.94
629.21	41888.57
629.36	42197.52
629.51	42071.13
629.66	41933.04
629.81	41977.51
629.96	42211.56
630.11	41607.70
630.26	42115.60
630.41	41921.34
630.56	42120.28
630.71	41897.93
630.86	41734.09
631.01	41762.18
631.16	41794.95
631.31	41825.37
631.46	41574.94
631.61	41808.99
631.76	41240.24
631.91	42019.64
632.06	41773.88
632.21	41778.56
632.36	42068.79
632.51	41647.49
632.66	41694.30
632.81	40992.14
632.96	41394.71
633.10	41404.08
633.25	41258.96
633.40	41071.72
633.55	41736.43
633.70	41490.68
633.85	41294.07
634.00	41471.95
634.15	41261.30
634.30	40928.95
634.45	41518.76
634.60	41247.26
634.75	40804.90
634.90	41003.85
635.05	41542.17
635.19	41549.19
635.34	41486.00
635.49	41064.70
635.64	40690.21
635.79	40708.94
635.94	40940.65
636.09	41352.58
636.24	40776.81
636.39	40765.11
636.53	40900.86
636.68	40872.78
636.83	40854.05
636.98	41010.87
637.13	40481.91
637.28	40919.59
637.43	40657.45
637.57	41146.62
637.72	40685.53
637.87	40708.94
638.02	40664.47
638.17	40336.79
638.32	40444.46
638.46	40105.08
638.61	40861.07
638.76	40371.90
638.91	40900.86
639.06	41076.40
639.20	40912.56
639.35	40622.34
639.50	40268.92
639.65	40463.18
639.80	40474.88
639.94	40809.58
640.09	40165.93
640.24	40147.21
640.39	40074.65
640.54	39854.64
640.68	40121.46
640.83	40109.76
640.98	39992.73
641.13	40240.83
641.27	40032.52
641.42	39959.97
641.57	40306.37
641.72	40100.40
641.86	39725.91
642.01	39924.86
642.16	39742.30
642.31	39936.56
642.45	39833.58
642.60	39409.94
642.75	39349.09
642.90	39643.99
643.04	39831.24
643.19	40196.36
643.34	40093.38
643.48	39704.85
643.63	39955.29
643.78	39608.89
643.93	39379.51
644.07	39208.65
644.22	39391.22
644.37	39208.65
644.51	39234.40
644.66	39480.16
644.81	39358.45
644.95	39592.50
645.10	39564.42
645.25	39651.02
645.39	39803.15
645.54	39274.19
645.69	39517.60
645.83	39049.50
645.98	39339.72
646.13	39075.24
646.27	39328.02
646.42	38995.67
646.57	39049.50
646.71	38995.67
646.86	39068.22
647.00	39225.04
647.15	39173.55
647.30	39255.46
647.44	39246.10
647.59	38902.04
647.74	38527.56
647.88	38939.49
648.03	38719.48
648.17	38796.72
648.32	38642.24
648.47	39491.86
648.61	38899.70
648.76	38731.18
648.90	38609.48
649.05	38431.60
649.20	39096.31
649.34	38927.79
649.49	38532.24
649.63	38990.98
649.78	38967.58
649.92	38567.35
650.07	38937.15
650.21	38548.62
650.36	38890.34
650.51	38623.52
650.65	39100.99
650.80	39061.20
650.94	38623.52
651.09	38644.59
651.23	38253.72
651.38	38218.61
651.52	38316.91
651.67	38169.46
651.81	38094.56
651.96	38363.72
652.10	38457.34
652.25	38155.41
652.39	38176.48
652.54	37886.25
652.68	38532.24
652.83	38183.50
652.97	38478.41
653.12	38361.38
653.26	37656.88
653.41	38024.34
653.55	37511.77
653.70	37654.54
653.84	38195.20
653.99	38319.25
654.13	37691.99
654.27	37923.70
654.42	37825.40
654.56	37680.28
654.71	37900.29
654.85	38099.24
655.00	37869.87
655.14	37151.32
655.29	37361.97
655.43	37832.42
655.57	37371.33
655.72	37008.55
655.86	36957.06
656.01	37258.99
656.15	37628.79
656.30	37455.59
656.44	37373.67
656.58	36933.65
656.73	37125.58
656.87	36921.95
657.01	36844.71
657.16	37202.82
657.30	37092.81
657.45	36954.72
657.59	37181.75
657.73	36940.68
657.88	37268.35
658.02	36655.13
658.16	37574.96
658.31	37078.77
658.45	37085.79
658.60	37184.09
658.74	37071.75
658.88	36748.75
659.03	37109.19
659.17	36582.57
659.31	36844.71
659.46	36587.25
659.60	36715.98
659.74	36662.15
659.89	36442.14
660.03	36423.42
660.17	36582.57
660.32	36666.83
660.46	36437.46
660.60	36297.03
660.74	36545.12
660.89	36240.86
661.03	36100.42
661.17	36201.07
661.32	36149.57
661.46	36095.74
661.60	35641.68
661.74	35737.64
661.89	36067.66
662.03	36264.26
662.17	35777.43
662.31	35737.64
662.46	36341.50
662.60	35681.47
662.74	35728.28
662.88	35981.06
663.03	35658.06
663.17	35468.48
663.31	35260.17
663.45	35461.46
663.60	35821.90
663.74	35150.17
663.88	35360.81
664.02	35257.83
664.17	35281.24
664.31	35056.54
664.45	35101.01
664.59	35150.17
664.73	34913.77
664.88	34763.98
665.02	34806.11
665.16	34902.07
665.30	34803.77
665.44	34794.40
665.59	34312.25
665.73	34714.83
665.87	34440.98
666.01	34389.49
666.15	34600.14
666.29	34567.37
666.44	34494.82
666.58	34635.25
666.72	34162.46
666.86	34422.26
667.00	34668.02
667.14	33846.49
667.28	34181.18
667.43	34192.89
667.57	34260.76
667.71	34209.27
667.85	33780.95
667.99	33649.88
668.13	33605.41
668.27	33741.16
668.41	33600.73
668.56	33413.49
668.70	33462.64
668.84	33434.55
668.98	33371.36
669.12	33769.25
669.26	33834.78
669.40	33184.12
669.54	33120.92
669.68	33340.93
669.82	33516.47
669.96	33406.47
670.10	32816.65
670.25	32996.87
670.39	33184.12
670.53	32753.46
670.67	32879.85
670.81	33333.91
670.95	32753.46
671.09	32737.07
671.23	33170.07
671.37	32563.87
671.51	32360.25
671.65	32814.31
671.79	32360.25
671.93	32594.30
672.07	32329.82
672.21	32521.74
672.35	31960.02
672.49	31938.95
672.63	32245.56
672.77	31812.56
672.91	31735.32
673.05	31667.45
673.19	31491.91
673.33	31662.77
673.47	31653.40
673.61	31388.92
673.75	31091.68
673.89	31321.05
674.03	31026.14
674.17	31126.78
674.31	31194.66
674.45	31166.57
674.59	30981.67
674.73	30998.06
674.87	31112.74
675.01	31250.83
675.15	30771.02
675.29	30862.30
675.43	30759.32
675.56	30855.28
675.70	30850.60
675.84	30295.89
675.98	29443.94
676.12	30600.16
676.26	30033.75
676.40	30171.85
676.54	30082.91
676.68	29898.00
676.82	29635.86
676.96	29551.60
677.10	29710.76
677.23	29862.90
677.37	29600.76
677.51	29556.28
677.65	29436.92
677.79	28882.21
677.93	29483.73
678.07	29132.65
678.21	28833.06
678.34	29022.64
678.48	28290.06
678.62	28926.68
678.76	28774.55
678.90	28751.14
679.04	28407.08
679.18	28222.18
679.31	28451.55
679.45	28362.61
679.59	28065.36
679.73	28259.63
679.87	27995.15
680.00	28013.87
680.14	27861.74
680.28	27962.38
680.42	27620.66
680.56	27784.50
680.70	27594.92
680.83	27604.28
680.97	27260.22
681.11	26850.63
681.25	27147.87
681.39	27229.79
681.52	27295.33
681.66	27264.90
681.80	26775.73
681.94	26810.84
682.07	26787.43
682.21	26586.15
682.35	26295.92
682.49	26471.46
682.62	26686.79
682.76	26136.76
682.90	26078.25
683.04	26120.38
683.17	25930.80
683.31	25539.93
683.45	26146.12
683.59	25645.25
683.72	25598.44
683.86	25734.19
684.00	25474.39
684.13	25633.55
684.27	25184.16
684.41	25135.01
684.55	25106.93
684.68	25060.12
684.82	24821.38
684.96	24622.44
685.09	24868.19
685.23	24734.78
685.37	24734.78
685.50	24603.71
685.64	25076.50
685.78	24276.04
685.91	24484.34
686.05	24692.65
686.19	24215.18
686.32	24205.82
686.46	23974.11
686.60	23491.96
686.73	23672.18
686.87	23377.27
687.01	23374.93
687.14	23150.24
687.28	23447.49
687.42	23197.05
687.55	23002.78
687.69	22944.27
687.82	22855.33
687.96	23243.86
688.10	22815.54
688.23	23077.68
688.37	22689.15
688.50	22427.01
688.64	22471.48
688.78	22277.22
688.91	22258.49
689.05	22317.01
689.18	22012.74
689.32	21963.59
689.46	21989.33
689.59	22263.18
689.73	22167.21
689.86	21673.36
690.00	21823.16
690.13	22192.96
690.27	21766.98
690.41	21680.38
690.54	21678.04
690.68	21635.91
690.81	21223.98
690.95	21333.98
691.08	21151.42
691.22	21062.48
691.35	21163.12
691.49	21097.59
691.62	21074.18
691.76	20886.94
691.89	20809.70
692.03	20535.86
692.16	20545.22
692.30	20826.09
692.43	20372.02
692.57	20224.57
692.70	20149.67
692.84	20334.57
692.97	19744.76
693.11	19861.79
693.24	19812.63
693.38	19859.45
693.51	19669.86
693.65	19934.34
693.78	19548.15
693.92	19618.37
694.05	19211.12
694.19	19358.57
694.32	19342.19
694.45	19449.85
694.59	19197.07
694.72	19161.97
694.86	18845.99
694.99	18525.34
695.13	18436.40
695.26	18300.65
695.39	18586.19
695.53	18916.21
695.66	18424.70
695.80	18391.93
695.93	18412.99
696.07	18284.26
696.20	18162.56
696.33	18363.84
696.47	18185.96
696.60	18026.81
696.73	17865.31
696.87	17989.36
697.00	17930.84
697.14	17706.15
697.27	17689.77
697.40	17507.21
697.54	17591.47
697.67	17366.78
697.80	17542.32
697.94	17469.76
698.07	17291.88
698.21	16886.97
698.34	17331.67
698.47	16877.60
698.61	16673.98
698.74	16489.07
698.87	16959.52
699.01	16542.91
699.14	16491.41
699.27	16425.88
699.40	16573.33
699.54	16130.97
699.67	16248.00
699.80	16360.34
699.94	16353.32
700.07	16341.62
700.20	16255.02
700.34	15976.50
700.47	15807.98
700.60	15793.94
700.73	15995.22
700.87	15618.39
701.00	15796.28
701.13	15751.81
701.26	15468.60
701.40	15480.30
701.53	15288.38
701.66	15279.02
701.79	15089.43
701.93	14958.36
702.06	15171.35
702.19	15059.01
702.32	14855.38
702.46	15030.92
702.59	14717.29
702.72	14885.81
702.85	14918.57
702.99	14686.86
703.12	14553.45
703.25	14635.37
703.38	14403.66
703.51	14520.68
703.65	14551.11
703.78	14361.53
703.91	13994.06
704.04	14214.07
704.17	14150.88
704.31	14029.17
704.44	13886.40
704.57	13851.29
704.70	13902.78
704.83	13949.59
704.96	13764.69
705.10	13841.93
705.23	13666.39
>>>>>End Processed Spectral Data<<<<<
