SpectraSuite Data File
++++++++++++++++++++++++++++++++++++
Date: Fri Oct 25 10:47:20 EDT 2013
User: price-jones
Dark Spectrum Present: No
Reference Spectrum Present: No
Number of Sampled Component Spectra: 1
Spectrometers: USB2+H05261
Integration Time (usec): 100000 (USB2+H05261)
Spectra Averaged: 1 (USB2+H05261)
Boxcar Smoothing: 0 (USB2+H05261)
Correct for Electrical Dark: No (USB2+H05261)
Strobe/Lamp Enabled: No (USB2+H05261)
Correct for Detector Non-linearity: No (USB2+H05261)
Correct for Stray Light: No (USB2+H05261)
Number of Pixels in Processed Spectrum: 2048
>>>>>Begin Processed Spectral Data<<<<<
365.73	168.52
365.92	168.52
366.12	168.52
366.32	102.98
366.52	14.04
366.72	128.73
366.91	0.00
367.11	23.41
367.31	0.00
367.51	0.00
367.70	9.36
367.90	37.45
368.10	0.00
368.30	98.30
368.49	16.38
368.69	79.58
368.89	53.83
369.09	72.56
369.28	0.00
369.48	49.15
369.68	74.90
369.87	60.85
370.07	126.39
370.27	140.43
370.47	215.33
370.66	332.36
370.86	437.68
371.06	416.62
371.25	510.24
371.45	524.28
371.65	524.28
371.84	440.02
372.04	418.96
372.24	395.55
372.44	386.19
372.63	437.68
372.83	428.32
373.03	507.90
373.22	463.43
373.42	498.53
373.62	503.22
373.81	470.45
374.01	470.45
374.21	547.69
374.40	603.86
374.60	510.24
374.79	517.26
374.99	521.94
375.19	564.07
375.38	547.69
375.58	538.32
375.78	568.75
375.97	573.43
376.17	594.50
376.37	566.41
376.56	624.92
376.76	594.50
376.95	543.00
377.15	636.63
377.35	559.39
377.54	566.41
377.74	580.45
377.93	629.60
378.13	685.78
378.33	650.67
378.52	524.28
378.72	636.63
378.91	681.10
379.11	610.88
379.31	606.20
379.50	613.22
379.70	678.76
379.89	643.65
380.09	685.78
380.28	585.13
380.48	641.31
380.68	678.76
380.87	681.10
381.07	603.86
381.26	688.12
381.46	660.03
381.65	617.90
381.85	692.80
382.04	657.69
382.24	617.90
382.43	690.46
382.63	709.18
382.83	636.63
383.02	727.91
383.22	667.05
383.41	634.29
383.61	732.59
383.80	737.27
384.00	737.27
384.19	753.65
384.39	723.23
384.58	702.16
384.78	730.25
384.97	716.20
385.17	753.65
385.36	741.95
385.56	802.80
385.75	795.78
385.95	746.63
386.14	821.53
386.34	730.25
386.53	819.19
386.72	812.17
386.92	777.06
387.11	767.70
387.31	791.10
387.50	760.67
387.70	770.04
387.89	791.10
388.09	828.55
388.28	781.74
388.48	875.36
388.67	805.14
388.86	919.83
389.06	861.32
389.25	884.72
389.45	777.06
389.64	821.53
389.84	861.32
390.03	889.40
390.22	931.53
390.42	819.19
390.61	844.93
390.81	830.89
391.00	912.81
391.19	976.00
391.39	891.74
391.58	858.98
391.78	917.49
391.97	936.21
392.16	922.17
392.36	964.30
392.55	971.32
392.75	976.00
392.94	922.17
393.13	903.45
393.33	952.60
393.52	1057.92
393.71	1011.11
393.91	931.53
394.10	1107.07
394.29	1025.15
394.49	1039.20
394.68	1060.26
394.88	1125.80
395.07	1137.50
395.26	1132.82
395.46	1149.20
395.65	1109.41
395.84	1048.56
396.04	1193.67
396.23	1090.69
396.42	1048.56
396.62	1219.42
396.81	1193.67
397.00	1198.35
397.19	1121.12
397.39	1102.39
397.58	1198.35
397.77	1198.35
397.97	1277.93
398.16	1205.38
398.35	1203.04
398.55	1181.97
398.74	1179.63
398.93	1334.11
399.12	1322.40
399.32	1289.64
399.51	1301.34
399.70	1310.70
399.90	1329.42
400.09	1348.15
400.28	1376.24
400.47	1336.45
400.67	1409.00
400.86	1495.60
401.05	1273.25
401.24	1324.74
401.44	1533.05
401.63	1437.09
401.82	1469.86
402.01	1432.41
402.21	1451.13
402.40	1577.52
402.59	1462.83
402.78	1446.45
402.97	1575.18
403.17	1600.93
403.36	1514.33
403.55	1556.46
403.74	1596.25
403.93	1600.93
404.13	1591.56
404.32	1507.30
404.51	1575.18
404.70	1598.59
404.89	1682.85
405.09	1715.61
405.28	1680.50
405.47	1612.63
405.66	1776.47
405.85	1799.87
406.05	1701.57
406.24	1736.68
406.43	1675.82
406.62	1722.63
406.81	1832.64
407.00	1743.70
407.20	1703.91
407.39	1717.95
407.58	1755.40
407.77	1809.23
407.96	1816.26
408.15	1912.22
408.34	1898.17
408.54	1947.33
408.73	1905.20
408.92	1891.15
409.11	1961.37
409.30	1900.52
409.49	1879.45
409.68	1921.58
409.87	2024.56
410.07	1947.33
410.26	1947.33
410.45	2085.42
410.64	2211.81
410.83	2073.71
411.02	2097.12
411.21	2162.66
411.40	2207.13
411.59	2195.42
411.78	2270.32
411.98	2167.34
412.17	2289.04
412.36	2242.23
412.55	2335.85
412.74	2417.77
412.93	2312.45
413.12	2377.98
413.31	2296.07
413.50	2422.45
413.69	2466.92
413.88	2424.80
414.07	2525.44
414.26	2518.42
414.45	2574.59
414.64	2661.19
414.83	2544.16
415.02	2640.12
415.22	2754.81
415.41	2794.60
415.60	2757.15
415.79	2658.85
415.98	2801.62
416.17	2874.18
416.36	2761.83
416.55	2656.51
416.74	2808.64
416.93	2972.48
417.12	2789.92
417.31	2897.58
417.50	2967.80
417.69	3049.72
417.88	3007.59
418.07	2960.78
418.26	3012.27
418.45	3073.12
418.64	3101.21
418.83	3049.72
419.02	3056.74
419.21	3117.59
419.39	3084.83
419.58	3124.62
419.77	3119.93
419.96	3077.80
420.15	3220.58
420.34	3201.85
420.53	3293.13
420.72	3232.28
420.91	3304.84
421.10	3281.43
421.29	3258.03
421.48	3281.43
421.67	3372.71
421.86	3262.71
422.05	3300.16
422.24	3424.20
422.43	3251.00
422.61	3337.60
422.80	3421.86
422.99	3372.71
423.18	3428.88
423.37	3566.98
423.56	3454.63
423.75	3398.46
423.94	3368.03
424.13	3119.93
424.32	3424.20
424.50	3442.93
424.69	3531.87
424.88	3569.32
425.07	3520.17
425.26	3375.05
425.45	3269.73
425.64	3545.91
425.83	3468.67
426.01	3548.25
426.20	3520.17
426.39	3651.24
426.58	3520.17
426.77	3583.36
426.96	3487.40
427.15	3487.40
427.33	3590.38
427.52	3772.94
427.71	3623.15
427.90	3751.88
428.09	3796.35
428.28	3557.61
428.46	3588.04
428.65	3618.47
428.84	3716.77
429.03	3819.75
429.22	3669.96
429.40	3740.18
429.59	3794.01
429.78	3559.95
429.97	3574.00
430.16	3527.19
430.34	3761.24
430.53	3847.84
430.72	3744.86
430.91	3801.03
431.10	3765.92
431.28	3911.04
431.47	3995.29
431.66	3971.89
431.85	3864.22
432.03	4014.02
432.22	4145.09
432.41	4133.39
432.60	4180.20
432.79	4032.74
432.97	4035.08
433.16	4201.26
433.35	4156.79
433.54	4105.30
433.72	4201.26
433.91	4238.71
434.10	4208.28
434.28	4149.77
434.47	4329.99
434.66	4402.55
434.85	4280.84
435.03	4311.27
435.22	4332.33
435.41	4447.02
435.59	4411.91
435.78	4400.21
435.97	4484.47
436.16	4463.40
436.34	4461.06
436.53	4517.23
436.72	4674.05
436.90	4402.55
437.09	4573.41
437.28	4568.73
437.46	4416.59
437.65	4636.60
437.84	4521.92
438.02	4482.13
438.21	4608.51
438.40	4547.66
438.58	4835.55
438.77	4765.33
438.96	4748.95
439.14	4861.29
439.33	4905.76
439.52	4856.61
439.70	4936.19
439.89	5240.46
440.08	5046.20
440.26	4985.34
440.45	5029.81
440.63	4964.28
440.82	5228.76
441.01	5231.10
441.19	5027.47
441.38	5221.74
441.57	5296.63
441.75	5324.72
441.94	5430.04
442.12	5383.23
442.31	5425.36
442.50	5474.51
442.68	5549.41
442.87	5528.35
443.05	5434.72
443.24	5558.77
443.43	5558.77
443.61	5731.97
443.80	5776.44
443.98	5425.36
444.17	5401.96
444.35	5664.10
444.54	5689.84
444.73	5715.59
444.91	5570.48
445.10	5713.25
445.28	5722.61
445.47	5521.32
445.65	5727.29
445.84	5664.10
446.02	5783.46
446.21	5699.20
446.39	5708.57
446.58	5778.78
446.77	5792.83
446.95	5701.54
447.14	5935.60
447.32	5977.73
447.51	5877.09
447.69	5781.12
447.88	5947.30
448.06	5762.40
448.25	5872.40
448.43	5888.79
448.62	5748.36
448.80	5856.02
448.99	6024.54
449.17	5982.41
449.36	5973.05
449.54	5870.06
449.73	6235.19
449.91	6202.42
450.10	6005.81
450.28	6286.68
450.46	6319.45
450.65	6136.88
450.83	6345.19
451.02	6286.68
451.20	6216.46
451.39	6200.08
451.57	6293.70
451.76	6258.59
451.94	6387.32
452.13	6314.77
452.31	6420.09
452.49	6338.17
452.68	6319.45
452.86	6511.37
453.05	6417.75
453.23	6527.75
453.42	6289.02
453.60	6438.81
453.78	6551.16
453.97	6272.64
454.15	6518.39
454.34	6466.90
454.52	6600.31
454.70	6406.05
454.89	6490.31
455.07	6581.59
455.26	6766.49
455.44	6764.15
455.62	6628.40
455.81	6619.04
455.99	6836.70
456.17	6960.75
456.36	6839.05
456.54	6958.41
456.73	6867.13
456.91	7073.10
457.09	7110.55
457.28	7157.36
457.46	6963.09
457.64	7208.85
457.83	7162.04
458.01	7030.97
458.19	7206.51
458.38	6963.09
458.56	7159.70
458.74	7229.91
458.93	7206.51
459.11	7243.96
459.29	7412.48
459.48	7447.58
459.66	7314.17
459.84	7375.03
460.03	7550.57
460.21	7398.43
460.39	7461.63
460.57	7344.60
460.76	7550.57
460.94	7421.84
461.12	7538.87
461.31	7695.68
461.49	7562.27
461.67	7339.92
461.85	7779.94
462.04	7524.82
462.22	8018.68
462.40	7840.79
462.59	7850.16
462.77	7779.94
462.95	7857.18
463.13	7915.69
463.32	7903.99
463.50	7957.82
463.68	7997.61
463.86	7929.74
464.05	7733.13
464.23	7936.76
464.41	8074.85
464.59	7798.66
464.78	8177.83
464.96	8114.64
465.14	8016.33
465.32	8088.89
465.50	8212.94
465.69	8100.59
465.87	8044.42
466.05	7969.52
466.23	8159.11
466.41	8276.13
466.60	8341.67
466.78	8067.83
466.96	8156.77
467.14	7948.46
467.32	8182.51
467.51	8393.16
467.69	7999.95
467.87	8390.82
468.05	8205.92
468.23	8189.53
468.41	8332.31
468.60	8299.54
468.78	8414.23
468.96	8458.70
469.14	8718.50
469.32	8681.05
469.50	8606.15
469.69	8608.49
469.87	8678.71
470.05	8641.26
470.23	8858.93
470.41	8779.35
470.59	8809.78
470.77	8568.70
470.95	8877.65
471.14	8746.58
471.32	8877.65
471.50	9088.30
471.68	8971.27
471.86	8990.00
472.04	8982.98
472.22	9467.47
472.40	8945.53
472.58	9231.07
472.77	9315.33
472.95	9458.10
473.13	9715.56
473.31	9385.55
473.49	9554.07
473.67	9322.35
473.85	9446.40
474.03	9612.58
474.21	9799.82
474.39	9710.88
474.57	9928.55
474.75	9834.93
474.93	9748.33
475.12	9872.38
475.30	9956.64
475.48	9956.64
475.66	10174.31
475.84	10064.30
476.02	10059.62
476.20	10251.55
476.38	10335.81
476.56	10361.55
476.74	10471.56
476.92	10436.45
477.10	10527.73
477.28	10710.29
477.46	10595.61
477.64	10775.83
477.82	10979.45
478.00	11257.98
478.18	11110.52
478.36	11234.57
478.54	11449.90
478.72	11239.25
478.90	11412.45
479.08	11459.26
479.26	11707.36
479.44	11747.15
479.62	11714.38
479.80	11822.05
479.98	11880.56
480.16	12058.44
480.34	12107.59
480.52	12276.11
480.70	12243.34
480.88	12102.91
481.06	12362.71
481.24	12336.96
481.41	12758.26
481.59	12617.83
481.77	12601.44
481.95	12725.49
482.13	13025.08
482.31	12971.25
482.49	13268.50
482.67	13128.06
482.85	13287.22
483.03	13497.87
483.21	13476.80
483.39	13521.27
483.57	13792.78
483.74	14045.55
483.92	13881.72
484.10	13965.98
484.28	13928.53
484.46	14462.17
484.64	14642.39
484.82	14216.41
485.00	14176.62
485.18	14963.04
485.35	14899.85
485.53	14705.59
485.71	14860.06
485.89	15073.05
486.07	15009.86
486.25	15311.78
486.43	15241.57
486.61	15346.89
486.78	15559.88
486.96	15641.80
487.14	15962.45
487.32	15854.79
487.50	16112.25
487.68	16369.71
487.85	16390.77
488.03	16496.10
488.21	16418.86
488.39	16575.67
488.57	16945.48
488.75	16868.24
488.92	17432.31
489.10	17151.45
489.28	17589.13
489.46	17682.75
489.64	17467.42
489.81	17764.67
489.99	18022.12
490.17	18071.28
490.35	18349.80
490.53	18174.26
490.70	18246.82
490.88	18345.12
491.06	18752.37
491.24	18625.98
491.41	18518.32
491.59	18712.58
491.77	18963.02
491.95	19166.65
492.13	19154.94
492.30	19604.33
492.48	19690.93
492.66	19616.03
492.84	19585.60
493.01	19784.55
493.19	19707.31
493.37	19948.39
493.54	20355.64
493.72	20465.64
493.90	20367.34
494.08	20599.05
494.25	20875.24
494.43	21067.16
494.61	21226.32
494.79	20737.15
494.96	20950.14
495.14	21256.75
495.32	21282.49
495.49	21483.78
495.67	21598.46
495.85	21568.04
496.02	21937.84
496.20	21699.11
496.38	21975.29
496.55	21956.57
496.73	22464.46
496.91	22422.33
497.09	22398.93
497.26	22618.94
497.44	22576.81
497.62	22705.54
497.79	22965.34
497.97	22867.03
498.14	23150.24
498.32	23035.55
498.50	23161.94
498.67	23337.48
498.85	23269.61
499.03	23988.15
499.20	23793.89
499.38	23758.78
499.56	23634.73
499.73	24123.90
499.91	23782.18
500.08	23974.11
500.26	23840.70
500.44	24222.20
500.61	24231.57
500.79	24322.85
500.97	24622.44
501.14	24645.84
501.32	24950.11
501.49	24648.18
501.67	24898.62
501.84	24957.13
502.02	24718.40
502.20	25167.78
502.37	25043.73
502.55	25135.01
502.72	25598.44
502.90	25401.83
503.07	25034.37
503.25	25895.69
503.43	25504.82
503.60	26118.04
503.78	26022.08
503.95	25947.18
504.13	25898.03
504.30	25802.07
504.48	25640.57
504.65	26249.11
504.83	26602.53
505.01	26686.79
505.18	26302.94
505.36	26904.46
505.53	26438.69
505.71	26981.70
505.88	27005.10
506.06	26799.13
506.23	26918.50
506.41	26703.17
506.58	27136.17
506.76	27206.39
506.93	27372.57
507.11	27204.05
507.28	27475.55
507.46	27440.44
507.63	27484.91
507.81	27751.73
507.98	27426.40
508.16	27997.49
508.33	27728.33
508.50	28407.08
508.68	28191.75
508.85	28603.69
509.03	28315.80
509.20	28252.61
509.38	28898.59
509.55	28444.53
509.73	28498.36
509.90	28891.57
510.08	28245.58
510.25	28400.06
510.42	29095.20
510.60	29296.49
510.77	29116.26
510.95	29432.24
511.12	29373.72
511.30	29378.40
511.47	29373.72
511.64	29766.93
511.82	29596.07
511.99	29387.77
512.17	29804.38
512.34	29596.07
512.51	29450.96
512.69	29991.62
512.86	30174.19
513.04	30078.22
513.21	30354.41
513.38	30057.16
513.56	30082.91
513.73	30043.12
513.90	30169.51
514.08	30075.88
514.25	30768.68
514.43	30291.21
514.60	30630.59
514.77	30656.34
514.95	31199.34
515.12	30817.83
515.29	30974.65
515.47	31243.81
515.64	31381.90
515.81	31311.69
515.99	31323.39
516.16	31152.53
516.33	31232.11
516.51	31384.24
516.68	31325.73
516.85	31325.73
517.03	31290.62
517.20	31859.37
517.37	31433.39
517.54	31417.01
517.72	31470.84
517.89	31765.75
518.06	31740.00
518.24	31985.76
518.41	31634.68
518.58	31894.48
518.75	31442.76
518.93	32360.25
519.10	32250.24
519.27	32299.39
519.45	32329.82
519.62	32830.69
519.79	32793.25
519.96	32748.78
520.14	32907.93
520.31	33050.70
520.48	33097.52
520.65	32720.69
520.83	32868.14
521.00	32940.70
521.17	33329.23
521.34	32858.78
521.52	33329.23
521.69	33383.06
521.86	33474.34
522.03	33701.37
522.20	33420.51
522.38	33806.70
522.55	34354.38
522.72	33497.75
522.89	33778.61
523.07	33933.09
523.24	33996.28
523.41	33834.78
523.58	33802.02
523.75	34366.09
523.92	34380.13
524.10	34787.38
524.27	34452.69
524.44	34377.79
524.61	34419.92
524.78	34487.79
524.96	35150.17
525.13	34663.33
525.30	34593.12
525.47	34944.20
525.64	34555.67
525.81	34892.71
525.98	35199.32
526.16	34852.92
526.33	34955.90
526.50	35166.55
526.67	35093.99
526.84	35222.72
527.01	35299.96
527.18	34768.66
527.36	35194.64
527.53	35545.72
527.70	35594.87
527.87	36004.46
528.04	35248.47
528.21	35796.15
528.38	35868.71
528.55	35775.09
528.72	36055.95
528.89	35857.01
529.07	36217.45
529.24	35751.68
529.41	36240.86
529.58	36084.04
529.75	36112.13
529.92	36259.58
530.09	36313.41
530.26	36329.80
530.43	36278.30
530.60	35763.39
530.77	36339.16
530.94	36545.12
531.11	36584.91
531.28	36322.77
531.46	36926.63
531.63	36638.75
531.80	36470.23
531.97	36505.34
532.14	36905.57
532.31	36463.21
532.48	36816.63
532.65	36882.16
532.82	37053.02
532.99	37076.43
533.16	36739.39
533.33	37361.97
533.50	37364.31
533.67	37120.90
533.84	37036.64
534.01	37399.42
534.18	37060.04
534.35	37907.32
534.52	37223.88
534.69	37518.79
534.86	37909.66
535.03	37689.65
535.20	37954.13
535.37	38174.14
535.54	37940.08
535.71	38033.71
535.88	37860.51
536.05	37867.53
536.22	38141.37
536.38	37581.98
536.55	38146.05
536.72	38260.74
536.89	37975.19
537.06	37996.26
537.23	38162.43
537.40	38581.39
537.57	38277.12
537.74	38419.89
537.91	39044.82
538.08	39033.11
538.25	38387.13
538.42	38869.28
538.59	38810.76
538.75	38305.21
538.92	38478.41
539.09	38906.73
539.26	38979.28
539.43	38941.83
539.60	38719.48
539.77	38670.33
539.94	38962.90
540.11	38567.35
540.28	38789.70
540.44	38745.23
540.61	38749.91
540.78	39241.42
540.95	38944.17
541.12	38990.98
541.29	39225.04
541.46	38712.46
541.62	39084.61
541.79	39688.46
541.96	38747.57
542.13	38920.77
542.30	39051.84
542.47	39487.18
542.63	39599.52
542.80	39613.57
542.97	39772.72
543.14	40320.41
543.31	39842.94
543.48	40165.93
543.64	40580.21
543.81	39901.45
543.98	39969.33
544.15	40182.32
544.32	40079.33
544.48	40418.71
544.65	40554.46
544.82	40044.23
544.99	39959.97
545.16	39812.51
545.32	40367.22
545.49	40790.86
545.66	40423.39
545.83	40650.42
546.00	40823.62
546.16	40392.97
546.33	40374.24
546.50	40311.05
546.67	41060.02
546.83	40495.95
547.00	40617.66
547.17	40645.74
547.34	40727.66
547.50	40910.22
547.67	41221.52
547.84	40388.28
548.00	41137.26
548.17	41060.02
548.34	40814.26
548.51	41088.10
548.67	41373.65
548.84	41193.43
549.01	41383.01
549.18	41177.04
549.34	41373.65
549.51	41385.35
549.68	41303.43
549.84	41596.00
550.01	41621.75
550.18	41221.52
550.34	41673.24
550.51	41511.74
550.68	41184.07
550.84	40945.33
551.01	41291.73
551.18	41383.01
551.34	41752.82
551.51	41986.87
551.68	41710.69
551.84	41893.25
552.01	41600.68
552.18	41755.16
552.34	41886.23
552.51	42094.53
552.68	41956.44
552.84	41921.34
553.01	41991.55
553.18	42127.30
553.34	42478.38
553.51	41755.16
553.67	41886.23
553.84	42616.47
554.01	42124.96
554.17	42153.05
554.34	42422.21
554.51	42199.86
554.67	42256.03
554.84	42326.25
555.00	42225.60
555.17	42326.25
555.33	42637.54
555.50	42054.75
555.67	42099.22
555.83	42281.78
556.00	42670.31
556.16	42895.00
556.33	42756.91
556.50	42150.71
556.66	43026.07
556.83	42405.83
556.99	42520.51
557.16	42789.67
557.32	42740.52
557.49	42803.72
557.65	42443.27
557.82	42564.98
557.98	42689.03
558.15	42527.53
558.32	42735.84
558.48	42958.19
558.65	42483.06
558.81	42497.11
558.98	42972.24
559.14	42855.21
559.31	42583.71
559.47	42997.98
559.64	43079.90
559.80	43260.12
559.97	43480.13
560.13	42799.04
560.30	42972.24
560.46	42789.67
560.63	43292.89
560.79	42864.57
560.96	43772.70
561.12	43152.46
561.29	42946.49
561.45	43178.20
561.61	43157.14
561.78	43229.69
561.94	43276.51
562.11	43152.46
562.27	43070.54
562.44	43360.76
562.60	43452.05
562.77	43814.83
562.93	43168.84
563.10	43796.10
563.26	43007.34
563.42	43246.08
563.59	43182.88
563.75	43370.13
563.92	43239.06
564.08	43901.43
564.24	43665.03
564.41	43342.04
564.57	43468.43
564.74	43508.22
564.90	43562.05
565.07	43491.83
565.23	43395.87
565.39	43281.19
565.56	43587.80
565.72	43405.23
565.88	43828.87
566.05	43164.16
566.21	43402.89
566.38	43414.60
566.54	43311.61
566.70	43761.00
566.87	44116.76
567.03	43782.06
567.19	43819.51
567.36	43555.03
567.52	43676.74
567.68	43798.44
567.85	43365.45
568.01	43819.51
568.17	43365.45
568.34	43828.87
568.50	43889.73
568.66	43440.34
568.83	43917.81
568.99	43585.46
569.15	43676.74
569.32	43978.67
569.48	43707.16
569.64	44247.83
569.81	43718.87
569.97	43550.35
570.13	43597.16
570.30	43267.14
570.46	43636.95
570.62	43859.30
570.78	43351.40
570.95	43423.96
571.11	44100.37
571.27	43707.16
571.43	44191.65
571.60	43910.79
571.76	43739.93
571.92	43356.08
572.09	44130.80
572.25	44074.63
572.41	43718.87
572.57	43990.37
572.74	44392.94
572.90	44055.90
573.06	43800.79
573.22	44144.84
573.38	44336.77
573.55	43859.30
573.71	43859.30
573.87	44107.40
574.03	44257.19
574.20	44198.68
574.36	43768.02
574.52	44254.85
574.68	44032.50
574.84	43786.74
575.01	44198.68
575.17	43997.39
575.33	44004.41
575.49	43906.11
575.65	44437.41
575.82	44514.65
575.98	43915.47
576.14	44416.35
576.30	44243.15
576.46	44002.07
576.62	43700.14
576.79	43997.39
576.95	43934.20
577.11	43587.80
577.27	44229.10
577.43	44479.54
577.59	44287.62
577.75	44250.17
577.92	44051.22
578.08	43952.92
578.24	44081.65
578.40	44093.35
578.56	44219.74
578.72	44509.97
578.88	44421.03
579.04	44491.24
579.21	44201.02
579.37	44046.54
579.53	43700.14
579.69	43983.35
579.85	43742.27
580.01	44484.22
580.17	44306.34
580.33	44360.17
580.49	44399.96
580.65	44432.73
580.82	44353.15
580.98	44275.91
581.14	44109.74
581.30	44399.96
581.46	44308.68
581.62	44563.80
581.78	44318.04
581.94	44582.52
582.10	44402.30
582.26	44577.84
582.42	44458.48
582.58	44308.68
582.74	43721.21
582.90	44158.89
583.06	44444.43
583.22	44395.28
583.38	44514.65
583.54	44612.95
583.70	44261.87
583.86	44554.44
584.02	43892.07
584.18	44346.13
584.34	44676.15
584.50	44481.88
584.66	44081.65
584.82	44243.15
584.98	44659.76
585.14	44612.95
585.30	44383.58
585.46	44261.87
585.62	43971.64
585.78	44472.52
585.94	43873.34
586.10	44559.12
586.26	44266.55
586.42	44238.47
586.58	44385.92
586.74	44201.02
586.90	44425.71
587.06	44832.96
587.22	44304.00
587.38	44451.45
587.54	44168.25
587.70	44671.46
587.86	44397.62
588.02	44395.28
588.18	44514.65
588.34	44439.75
588.49	44034.84
588.65	43943.56
588.81	44322.72
588.97	44093.35
589.13	44137.82
589.29	44210.38
589.45	44149.53
589.61	44463.16
589.77	44484.22
589.93	44662.10
590.08	44910.20
590.24	44683.17
590.40	45146.59
590.56	44624.65
590.72	45045.95
590.88	44086.33
591.04	44587.21
591.20	44985.10
591.35	44931.26
591.51	45179.36
591.67	44608.27
591.83	44856.37
591.99	44554.44
592.15	44568.48
592.31	44414.01
592.46	44364.85
592.62	44343.79
592.78	44734.66
592.94	44657.42
593.10	44339.11
593.26	44699.55
593.41	44900.84
593.57	45111.49
593.73	44830.62
593.89	44835.30
594.05	44304.00
594.20	44732.32
594.36	44903.18
594.52	44865.73
594.68	44603.59
594.84	44734.66
594.99	45375.97
595.15	44786.15
595.31	45258.94
595.47	44538.05
595.62	44868.07
595.78	44903.18
595.94	44821.26
596.10	44851.69
596.25	44818.92
596.41	44772.11
596.57	44423.37
596.73	44814.24
596.88	44360.17
597.04	44432.73
597.20	44624.65
597.36	44676.15
597.51	44746.36
597.67	44872.75
597.83	44825.94
597.99	45280.00
598.14	44460.82
598.30	44903.18
598.46	44463.16
598.61	44872.75
598.77	44374.22
598.93	44624.65
599.09	44854.03
599.24	44910.20
599.40	44755.72
599.56	44889.13
599.71	44830.62
599.87	44858.71
600.03	44474.86
600.18	44751.04
600.34	44575.50
600.50	44603.59
600.65	45001.48
600.81	44786.15
600.97	44844.66
601.12	45397.03
601.28	44865.73
601.44	45062.33
601.59	44622.31
601.75	44268.89
601.91	44886.79
602.06	44444.43
602.22	44552.10
602.37	44849.35
602.53	45275.32
602.69	45172.34
602.84	44729.98
603.00	44896.16
603.16	44847.00
603.31	44725.30
603.47	44966.37
603.62	44563.80
603.78	45188.72
603.94	44893.82
604.09	45329.16
604.25	45038.93
604.40	44938.29
604.56	45249.58
604.71	44697.21
604.87	44521.67
605.03	44935.95
605.18	44816.58
605.34	44790.83
605.49	44779.13
605.65	44451.45
605.80	44823.60
605.96	44643.38
606.12	45031.91
606.27	44844.66
606.43	44357.83
606.58	45036.59
606.74	44327.41
606.89	44905.52
607.05	44582.52
607.20	44596.57
607.36	44938.29
607.51	44500.61
607.67	45045.95
607.82	44734.66
607.98	44624.65
608.13	44729.98
608.29	44257.19
608.44	44191.65
608.60	43847.60
608.75	44381.24
608.91	44266.55
609.06	44140.16
609.22	44729.98
609.37	44289.96
609.53	44907.86
609.68	44479.54
609.84	44350.81
609.99	44559.12
610.15	44598.91
610.30	44198.68
610.46	43721.21
610.61	43934.20
610.76	44208.04
610.92	44004.41
611.07	44004.41
611.23	43885.04
611.38	44002.07
611.54	43966.96
611.69	44243.15
611.84	43934.20
612.00	44055.90
612.15	43959.94
612.31	44409.32
612.46	44271.23
612.62	44170.59
612.77	44189.31
612.92	44348.47
613.08	43892.07
613.23	44095.69
613.39	43761.00
613.54	43674.40
613.69	43709.50
613.85	44212.72
614.00	44172.93
614.15	44355.49
614.31	43758.66
614.46	44357.83
614.62	43962.28
614.77	43707.16
614.92	43697.80
615.08	43508.22
615.23	43817.17
615.38	43679.08
615.54	43044.79
615.69	43498.86
615.84	43206.29
616.00	43365.45
616.15	43892.07
616.30	43543.33
616.46	43206.29
616.61	43206.29
616.76	43363.11
616.92	43157.14
617.07	43496.52
617.22	43463.75
617.37	43351.40
617.53	43950.58
617.68	43529.28
617.83	43555.03
617.99	43365.45
618.14	43473.11
618.29	43232.04
618.45	43414.60
618.60	43353.74
618.75	43730.57
618.90	43185.22
619.06	43533.96
619.21	43152.46
619.36	43353.74
619.51	43047.13
619.67	42944.15
619.82	43166.50
619.97	43129.05
620.12	42986.28
620.28	42359.02
620.43	42686.69
620.58	42813.08
620.73	42934.79
620.89	42848.19
621.04	42934.79
621.19	42782.65
621.34	43035.43
621.49	42714.78
621.65	42618.81
621.80	42646.90
621.95	42284.12
622.10	42637.54
622.25	42440.93
622.41	42679.67
622.56	42583.71
622.71	42698.39
622.86	42852.87
623.01	42873.93
623.16	42583.71
623.32	42911.38
623.47	43388.85
623.62	42878.61
623.77	42569.66
623.92	42752.23
624.07	41890.91
624.23	42029.00
624.38	42396.46
624.53	42316.89
624.68	42497.11
624.83	42389.44
624.98	42366.04
625.13	42064.11
625.29	42490.09
625.44	42120.28
625.59	41853.46
625.74	41694.30
625.89	41654.51
626.04	41970.49
626.19	42206.88
626.34	41825.37
626.49	42263.05
626.65	42101.56
626.80	41806.65
626.95	41858.14
627.10	42312.20
627.25	41663.88
627.40	41916.65
627.55	41394.71
627.70	41322.16
627.85	41797.29
628.00	41841.76
628.15	42169.43
628.30	41684.94
628.45	42103.90
628.60	41923.68
628.76	41727.07
628.91	41944.74
629.06	41778.56
629.21	41780.90
629.36	41542.17
629.51	41160.66
629.66	41478.97
629.81	41324.50
629.96	41666.22
630.11	41691.96
630.26	41134.92
630.41	41448.55
630.56	41432.16
630.71	41380.67
630.86	41172.36
631.01	41364.29
631.16	41013.21
631.31	41322.16
631.46	41041.29
631.61	41174.70
631.76	40985.12
631.91	40823.62
632.06	41034.27
632.21	41013.21
632.36	41251.94
632.51	40755.75
632.66	40994.48
632.81	40711.28
632.96	41308.11
633.10	41165.34
633.25	40348.50
633.40	40774.47
633.55	40821.28
633.70	40772.13
633.85	40744.05
634.00	41336.20
634.15	40493.61
634.30	40680.85
634.45	40715.96
634.60	40547.44
634.75	40662.13
634.90	40741.71
635.05	40582.55
635.19	40470.20
635.34	41078.74
635.49	40371.90
635.64	40744.05
635.79	40198.70
635.94	40196.36
636.09	40491.27
636.24	40112.10
636.39	39728.25
636.53	39812.51
636.68	40144.87
636.83	40226.79
636.98	40442.12
637.13	39920.18
637.28	40182.32
637.43	40231.47
637.57	40329.77
637.72	40383.60
637.87	40329.77
638.02	39555.05
638.17	40009.12
638.32	39693.15
638.46	40046.57
638.61	39515.26
638.76	39643.99
638.91	39910.82
639.06	39852.30
639.20	39651.02
639.35	39842.94
639.50	39903.79
639.65	39999.76
639.80	39896.77
639.94	39732.93
640.09	39838.26
640.24	39618.25
640.39	39569.10
640.54	39571.44
640.68	39480.16
640.83	39646.33
640.98	39718.89
641.13	39875.71
641.27	39871.03
641.42	39405.26
641.57	39625.27
641.72	39051.84
641.86	39175.89
642.01	38965.24
642.16	39321.00
642.31	38916.09
642.45	39323.34
642.60	39145.46
642.75	38899.70
642.90	38822.47
643.04	38932.47
643.19	39159.50
643.34	39049.50
643.48	39168.87
643.63	39215.68
643.78	38693.74
643.93	38639.90
644.07	38293.50
644.22	38983.96
644.37	38597.77
644.51	38806.08
644.66	38567.35
644.81	39452.07
644.95	38836.51
645.10	39058.86
645.25	39138.44
645.39	39065.88
645.54	38836.51
645.69	38675.01
645.83	38731.18
645.98	38410.53
646.13	38621.18
646.27	38780.34
646.42	38911.41
646.57	38415.21
646.71	38518.20
646.86	38920.77
647.00	38607.14
647.15	39058.86
647.30	38937.15
647.44	38731.18
647.59	38778.00
647.74	38581.39
647.88	38899.70
648.03	38508.83
648.17	38263.08
648.32	38148.39
648.47	37900.29
648.61	37806.67
648.76	38560.33
648.90	38321.59
649.05	38242.01
649.20	38220.95
649.34	38199.88
649.49	38389.47
649.63	38579.05
649.78	38040.73
649.92	37830.08
650.07	38251.38
650.21	37879.23
650.36	38192.86
650.51	38139.03
650.65	38234.99
650.80	38759.27
650.94	38553.30
651.09	38469.04
651.23	37862.85
651.38	37689.65
651.52	37738.80
651.67	37958.81
651.81	38054.77
651.96	37560.92
652.10	37663.90
652.25	37612.41
652.39	37589.00
652.54	37600.71
652.68	38005.62
652.83	37825.40
652.97	37942.42
653.12	37701.35
653.26	37642.84
653.41	37535.17
653.55	37331.54
653.70	37308.14
653.84	37076.43
653.99	37811.35
654.13	37567.94
654.27	37092.81
654.42	37654.54
654.56	37420.48
654.71	37790.29
654.85	37357.29
655.00	37347.93
655.14	37067.06
655.29	36547.47
655.43	36928.97
655.57	36622.36
655.72	36528.74
655.86	36980.46
656.01	37200.47
656.15	36648.11
656.30	36591.94
656.44	36875.14
656.58	36966.42
656.73	36931.31
656.87	36638.75
657.01	36842.37
657.16	36388.31
657.30	36004.46
657.45	36910.25
657.59	36503.00
657.73	36481.93
657.88	36027.87
658.02	36528.74
658.16	36488.95
658.31	36631.72
658.45	36772.16
658.60	36617.68
658.74	36680.88
658.88	36376.61
659.03	35964.67
659.17	35831.26
659.31	36278.30
659.46	35871.05
659.60	36184.68
659.74	36109.78
659.89	35854.67
660.03	35908.50
660.17	36147.23
660.32	35761.05
660.46	36046.59
660.60	36165.96
660.74	35550.40
660.89	35915.52
661.03	35461.46
661.17	35676.79
661.32	35131.44
661.46	35456.78
661.60	35491.88
661.74	35784.45
661.89	35503.59
662.03	35302.30
662.17	35754.02
662.31	35281.24
662.46	34960.58
662.60	35405.28
662.74	35222.72
662.88	35040.16
663.03	34813.13
663.17	35152.51
663.31	34838.87
663.45	34939.52
663.60	34726.53
663.74	34611.84
663.88	34611.84
664.02	34235.02
664.17	34969.94
664.31	34380.13
664.45	34789.72
664.59	34941.86
664.73	34890.37
664.88	34710.14
665.02	33921.38
665.16	34251.40
665.30	34185.86
665.44	34553.33
665.59	33944.79
665.73	33893.30
665.87	33834.78
666.01	34178.84
666.15	33654.56
666.29	33879.25
666.44	33858.19
666.58	34000.96
666.72	34417.58
666.86	33888.62
667.00	34134.37
667.14	34125.01
667.28	33851.17
667.43	33394.76
667.57	33408.81
667.71	33411.15
667.85	33514.13
667.99	33156.03
668.13	33474.34
668.27	32985.17
668.41	33127.94
668.56	33188.80
668.70	33156.03
668.84	33106.88
668.98	33223.90
669.12	32933.68
669.26	33092.83
669.40	32804.95
669.54	32833.04
669.68	32580.26
669.82	32694.94
669.96	32800.27
670.10	32343.86
670.25	32547.49
670.39	32989.85
670.53	32964.10
670.67	32701.96
670.81	32435.14
670.95	32526.42
671.09	32662.18
671.23	32294.71
671.37	32528.77
671.51	32151.94
671.65	31819.58
671.79	32119.17
671.93	32077.04
672.07	32212.79
672.21	31592.55
672.35	31873.42
672.49	31943.63
672.63	31391.26
672.77	31192.32
672.91	31695.53
673.05	31337.43
673.19	31098.70
673.33	30794.43
673.47	31594.89
673.61	30883.37
673.75	31000.40
673.89	30754.64
674.03	31012.10
674.17	31243.81
674.31	30951.24
674.45	30558.03
674.59	30789.75
674.73	30981.67
674.87	30827.20
675.01	30284.19
675.15	31042.53
675.29	30551.01
675.43	30422.28
675.56	30445.69
675.70	30265.47
675.84	30480.80
675.98	28687.95
676.12	29919.07
676.26	29720.12
676.40	29783.32
676.54	29687.36
676.68	29352.66
676.82	29240.31
676.96	29240.31
677.10	29469.69
677.23	29029.66
677.37	29504.79
677.51	29249.67
677.65	29296.49
677.79	28519.43
677.93	28666.88
678.07	28498.36
678.21	28545.17
678.34	28250.27
678.48	28662.20
678.62	28636.45
678.76	28425.81
678.90	28259.63
679.04	28561.56
679.18	28254.95
679.31	28158.99
679.45	27742.37
679.59	27728.33
679.73	27592.58
679.87	27674.49
680.00	27452.14
680.14	27538.74
680.28	27325.75
680.42	27260.22
680.56	27351.50
680.70	27051.91
680.83	27168.94
680.97	26597.85
681.11	26820.20
681.25	26707.85
681.39	26977.01
681.52	27171.28
681.66	26665.72
681.80	26349.75
681.94	26274.85
682.07	26052.50
682.21	26384.86
682.35	26497.20
682.49	25954.20
682.62	26134.42
682.76	25865.26
682.90	25853.56
683.04	25858.24
683.17	25806.75
683.31	25902.71
683.45	25900.37
683.59	25366.73
683.72	25170.12
683.86	25118.63
684.00	25179.48
684.13	25230.98
684.27	25312.89
684.41	25097.56
684.55	25097.56
684.68	24912.66
684.82	24561.58
684.96	24423.49
685.09	24395.40
685.23	24577.97
685.37	24561.58
685.50	24381.36
685.64	24039.64
685.78	24027.94
685.91	24149.65
686.05	23990.49
686.19	23789.20
686.32	23939.00
686.46	23641.75
686.60	23257.90
686.73	23541.11
686.87	23564.51
687.01	23283.65
687.14	23101.09
687.28	23035.55
687.42	22953.63
687.55	22946.61
687.69	23002.78
687.82	22546.38
687.96	22581.49
688.10	22703.20
688.23	22735.96
688.37	22450.42
688.50	22139.13
688.64	22080.61
688.78	22104.02
688.91	21827.84
689.05	22272.54
689.18	22040.82
689.32	21455.69
689.46	21954.22
689.59	22216.36
689.73	22099.34
689.86	21841.88
690.00	21666.34
690.13	21724.85
690.27	21490.80
690.41	21207.59
690.54	21179.51
690.68	21149.08
690.81	21156.10
690.95	20826.09
691.08	21001.63
691.22	20549.90
691.35	20903.32
691.49	21156.10
691.62	20765.23
691.76	20748.85
691.89	20568.63
692.03	20376.70
692.16	20109.88
692.30	20100.52
692.43	20170.74
692.57	19754.12
692.70	19852.42
692.84	19660.50
692.97	19793.91
693.11	19693.27
693.24	19503.68
693.38	19592.62
693.51	19414.74
693.65	19487.30
693.78	19262.61
693.92	19288.35
694.05	19281.33
694.19	18953.66
694.32	19110.47
694.45	18707.90
694.59	18836.63
694.72	19042.60
694.86	18867.06
694.99	19005.15
695.13	18600.24
695.26	18422.36
695.39	18190.64
695.53	18317.03
695.66	18080.64
695.80	18143.83
695.93	18207.03
696.07	17755.30
696.20	17996.38
696.33	18024.47
696.47	17785.73
696.60	18026.81
696.73	17720.20
696.87	17647.64
697.00	17673.39
697.14	18092.34
697.27	17727.22
697.40	17259.11
697.54	17406.56
697.67	17369.12
697.80	17039.10
697.94	17256.77
698.07	17121.02
698.21	16854.20
698.34	16996.97
698.47	16893.99
698.61	16542.91
698.74	16610.78
698.87	16720.79
699.01	16170.76
699.14	16332.26
699.27	16297.15
699.40	16285.45
699.54	16137.99
699.67	15618.39
699.80	16070.12
699.94	15976.50
700.07	15833.72
700.20	15903.94
700.34	15889.90
700.47	15662.86
700.60	15709.68
700.73	15929.69
700.87	15557.54
701.00	15337.53
701.13	15569.24
701.26	15419.45
701.40	15220.50
701.53	15152.63
701.66	14911.55
701.79	14977.09
701.93	14696.22
702.06	14703.25
702.19	14604.94
702.32	14984.11
702.46	14539.41
702.59	14712.61
702.72	14820.27
702.85	14523.02
702.99	14525.36
703.12	14670.48
703.25	14527.71
703.38	14413.02
703.51	14394.29
703.65	14274.93
703.78	14061.94
703.91	13830.23
704.04	14141.52
704.17	13937.89
704.31	13654.69
704.44	13509.57
704.57	13509.57
704.70	13635.96
704.83	13628.94
704.96	13797.46
705.10	13685.11
705.23	13858.31
>>>>>End Processed Spectral Data<<<<<
