SpectraSuite Data File
++++++++++++++++++++++++++++++++++++
Date: Fri Oct 25 10:43:51 EDT 2013
User: price-jones
Dark Spectrum Present: No
Reference Spectrum Present: No
Number of Sampled Component Spectra: 1
Spectrometers: USB2+H05261
Integration Time (usec): 100000 (USB2+H05261)
Spectra Averaged: 1 (USB2+H05261)
Boxcar Smoothing: 0 (USB2+H05261)
Correct for Electrical Dark: No (USB2+H05261)
Strobe/Lamp Enabled: No (USB2+H05261)
Correct for Detector Non-linearity: No (USB2+H05261)
Correct for Stray Light: No (USB2+H05261)
Number of Pixels in Processed Spectrum: 2048
>>>>>Begin Processed Spectral Data<<<<<
365.73	84.26
365.92	84.26
366.12	84.26
366.32	0.00
366.52	0.00
366.72	9.36
366.91	63.19
367.11	14.04
367.31	51.49
367.51	9.36
367.70	14.04
367.90	7.02
368.10	105.32
368.30	60.85
368.49	0.00
368.69	86.60
368.89	35.11
369.09	11.70
369.28	65.54
369.48	32.77
369.68	30.43
369.87	105.32
370.07	74.90
370.27	135.75
370.47	147.45
370.66	313.63
370.86	421.30
371.06	465.77
371.25	575.77
371.45	433.00
371.65	440.02
371.84	486.83
372.04	449.38
372.24	411.93
372.44	526.62
372.63	486.83
372.83	500.87
373.03	517.26
373.22	566.41
373.42	517.26
373.62	479.81
373.81	491.51
374.01	589.82
374.21	592.16
374.40	599.18
374.60	575.77
374.79	573.43
374.99	575.77
375.19	645.99
375.38	624.92
375.58	559.39
375.78	580.45
375.97	685.78
376.17	692.80
376.37	657.69
376.56	568.75
376.76	550.03
376.95	589.82
377.15	566.41
377.35	662.37
377.54	589.82
377.74	648.33
377.93	664.71
378.13	723.23
378.33	732.59
378.52	671.73
378.72	669.39
378.91	622.58
379.11	636.63
379.31	564.07
379.50	674.07
379.70	711.52
379.89	734.93
380.09	676.41
380.28	716.20
380.48	758.33
380.68	746.63
380.87	622.58
381.07	732.59
381.26	690.46
381.46	702.16
381.65	709.18
381.85	678.76
382.04	624.92
382.24	702.16
382.43	634.29
382.63	667.05
382.83	751.31
383.02	706.84
383.22	744.29
383.41	681.10
383.61	676.41
383.80	746.63
384.00	634.29
384.19	760.67
384.39	791.10
384.58	688.12
384.78	901.11
384.97	858.98
385.17	786.42
385.36	873.02
385.56	770.04
385.75	809.83
385.95	844.93
386.14	805.14
386.34	912.81
386.53	823.87
386.72	795.78
386.92	919.83
387.11	891.74
387.31	896.43
387.50	877.70
387.70	926.85
387.89	898.77
388.09	849.61
388.28	828.55
388.48	889.40
388.67	987.71
388.86	973.66
389.06	940.90
389.25	919.83
389.45	919.83
389.64	1001.75
389.84	1039.20
390.03	1050.90
390.22	994.73
390.42	922.17
390.61	1015.79
390.81	945.58
391.00	1107.07
391.19	1025.15
391.39	1165.59
391.58	1111.75
391.78	1046.22
391.97	1036.86
392.16	1022.81
392.36	1008.77
392.55	1086.01
392.75	983.02
392.94	1015.79
393.13	1011.11
393.33	1025.15
393.52	1055.58
393.71	1100.05
393.91	1125.80
394.10	1146.86
394.29	1158.57
394.49	1188.99
394.68	1193.67
394.88	1165.59
395.07	1268.57
395.26	1238.14
395.46	1214.74
395.65	1212.40
395.84	1200.69
396.04	1273.25
396.23	1242.82
396.42	1142.18
396.62	1238.14
396.81	1224.10
397.00	1254.53
397.19	1277.93
397.39	1338.79
397.58	1341.13
397.77	1373.89
397.97	1394.96
398.16	1390.28
398.35	1451.13
398.55	1502.62
398.74	1451.13
398.93	1586.88
399.12	1519.01
399.32	1556.46
399.51	1453.47
399.70	1558.80
399.90	1600.93
400.09	1685.19
400.28	1638.38
400.47	1617.31
400.67	1645.40
400.86	1675.82
401.05	1671.14
401.24	1778.81
401.44	1673.48
401.63	1715.61
401.82	1701.57
402.01	1708.59
402.21	1757.74
402.40	1842.00
402.59	1771.79
402.78	1722.63
402.97	1832.64
403.17	1774.13
403.36	1753.06
403.55	1750.72
403.74	1977.75
403.93	1928.60
404.13	1839.66
404.32	1757.74
404.51	1870.09
404.70	1909.88
404.89	1952.01
405.09	2017.54
405.28	1977.75
405.47	1954.35
405.66	1959.03
405.85	1963.71
406.05	1977.75
406.24	2008.18
406.43	2038.61
406.62	2111.16
406.81	2155.63
407.00	2085.42
407.20	2043.29
407.39	1959.03
407.58	2113.50
407.77	2265.64
407.96	2356.92
408.15	2232.87
408.34	2214.15
408.54	2286.70
408.73	2326.49
408.92	2303.09
409.11	2366.28
409.30	2361.60
409.49	2293.72
409.68	2300.75
409.87	2275.00
410.07	2354.58
410.26	2361.60
410.45	2476.29
410.64	2429.48
410.83	2457.56
411.02	2548.84
411.21	2466.92
411.40	2588.63
411.59	2590.97
411.78	2626.08
411.98	2686.94
412.17	2609.70
412.36	2700.98
412.55	2787.58
412.74	2719.70
412.93	2700.98
413.12	2785.24
413.31	2930.35
413.50	2757.15
413.69	2771.19
413.88	2923.33
414.07	2810.98
414.26	2953.76
414.45	2853.11
414.64	3021.63
414.83	3082.49
415.02	2963.12
415.22	3108.23
415.41	3183.13
415.60	3070.78
415.79	3208.87
415.98	3190.15
416.17	3269.73
416.36	3215.90
416.55	3279.09
416.74	3323.56
416.93	3234.62
417.12	3372.71
417.31	3342.28
417.50	3377.39
417.69	3454.63
417.88	3391.44
418.07	3372.71
418.26	3597.40
418.45	3361.01
418.64	3585.70
418.83	3602.08
419.02	3548.25
419.21	3627.83
419.39	3651.24
419.58	3552.93
419.77	3569.32
419.96	3543.57
420.15	3574.00
420.34	3693.37
420.53	3714.43
420.72	3824.44
420.91	3843.16
421.10	3880.61
421.29	3873.59
421.48	3756.56
421.67	3939.12
421.86	3906.35
422.05	3896.99
422.24	3751.88
422.43	3798.69
422.61	3758.90
422.80	3801.03
422.99	4028.06
423.18	3798.69
423.37	3955.51
423.56	3908.69
423.75	3866.56
423.94	3978.91
424.13	3751.88
424.32	3824.44
424.50	4088.92
424.69	4056.15
424.88	4051.47
425.07	3939.12
425.26	3878.27
425.45	4091.26
425.64	4018.70
425.83	3978.91
426.01	4124.02
426.20	3927.42
426.39	4131.05
426.58	4109.98
426.77	3784.65
426.96	4032.74
427.15	4016.36
427.33	4065.51
427.52	4121.68
427.71	4224.67
427.90	4088.92
428.09	4177.86
428.28	4273.82
428.46	4156.79
428.65	4163.81
428.84	4177.86
429.03	4304.25
429.22	4138.07
429.40	4112.32
429.59	4313.61
429.78	3955.51
429.97	3882.95
430.16	4039.76
430.34	4107.64
430.53	4112.32
430.72	4112.32
430.91	4156.79
431.10	4252.75
431.28	4528.94
431.47	4723.20
431.66	4601.49
431.85	4685.75
432.03	4634.26
432.22	4830.87
432.41	4601.49
432.60	4748.95
432.79	4746.61
432.97	4734.90
433.16	4732.56
433.35	4620.22
433.54	4741.93
433.72	4865.97
433.91	4791.08
434.10	4762.99
434.28	4741.93
434.47	4856.61
434.66	4856.61
434.85	4954.91
435.03	5006.41
435.22	4940.87
435.41	5181.95
435.59	5057.90
435.78	5130.45
435.97	5121.09
436.16	5317.70
436.34	5198.33
436.53	5184.29
436.72	5294.29
436.90	5149.18
437.09	5287.27
437.28	5224.08
437.46	5280.25
437.65	5191.31
437.84	5165.56
438.02	5184.29
438.21	5062.58
438.40	5214.71
438.58	5247.48
438.77	5504.94
438.96	5420.68
439.14	5535.37
439.33	5465.15
439.52	5490.90
439.70	5643.03
439.89	5678.14
440.08	5619.63
440.26	5724.95
440.45	5781.12
440.63	5769.42
440.82	6129.86
441.01	5944.96
441.19	6005.81
441.38	6120.50
441.57	6129.86
441.75	6129.86
441.94	6204.76
442.12	6333.49
442.31	6417.75
442.50	6300.72
442.68	6328.81
442.87	6335.83
443.05	6279.66
443.24	6525.41
443.43	6579.25
443.61	6518.39
443.80	6633.08
443.98	6509.03
444.17	6375.62
444.35	6497.33
444.54	6583.93
444.73	6581.59
444.91	6403.71
445.10	6389.66
445.28	6382.64
445.47	6370.94
445.65	6520.73
445.84	6541.80
446.02	6396.68
446.21	6567.54
446.39	6492.65
446.58	6635.42
446.77	6696.27
446.95	6473.92
447.14	6665.85
447.32	6651.80
447.51	6740.74
447.69	6750.10
447.88	6815.64
448.06	6466.90
448.25	6691.59
448.43	6815.64
448.62	6757.13
448.80	6677.55
448.99	6689.25
449.17	6902.24
449.36	6911.60
449.54	7073.10
449.73	7119.91
449.91	7108.21
450.10	7007.56
450.28	7360.98
450.46	7248.64
450.65	7293.11
450.83	7258.00
451.02	7108.21
451.20	7318.86
451.39	7375.03
451.57	7222.89
451.76	7328.22
451.94	7267.36
452.13	7309.49
452.31	7293.11
452.49	7248.64
452.68	7229.91
452.86	7173.74
453.05	7449.93
453.23	7353.96
453.42	7414.82
453.60	7372.69
453.78	7478.01
453.97	7400.77
454.15	7403.11
454.34	7590.36
454.52	7623.12
454.70	7564.61
454.89	7541.21
455.07	7564.61
455.26	7515.46
455.44	7819.73
455.62	7803.35
455.81	7726.11
455.99	7969.52
456.17	7712.07
456.36	7751.85
456.54	7810.37
456.73	7946.12
456.91	8236.35
457.09	8301.88
457.28	8271.45
457.46	8009.31
457.64	8042.08
457.83	8252.73
458.01	8140.38
458.19	8306.56
458.38	8109.96
458.56	8084.21
458.74	8102.93
458.93	8215.28
459.11	8248.05
459.29	8226.98
459.48	8257.41
459.66	8458.70
459.84	8552.32
460.03	8465.72
460.21	8439.97
460.39	8690.41
460.57	8554.66
460.76	8470.40
460.94	8716.16
461.12	8702.11
461.31	8601.47
461.49	8711.47
461.67	8699.77
461.85	8868.29
462.04	8741.90
462.22	8737.22
462.40	9104.68
462.59	8753.60
462.77	8840.20
462.95	9015.74
463.13	8777.01
463.32	8940.85
463.50	9057.87
463.68	9135.11
463.86	9027.45
464.05	8894.04
464.23	8992.34
464.41	9071.92
464.59	9158.52
464.78	9074.26
464.96	9064.89
465.14	9036.81
465.32	9048.51
465.50	9254.48
465.69	9235.75
465.87	9301.29
466.05	9149.15
466.23	9240.44
466.41	9242.78
466.60	9432.36
466.78	9146.81
466.96	9238.09
467.14	9205.33
467.32	9357.46
467.51	9320.01
467.69	9282.56
467.87	9411.29
468.05	9467.47
468.23	9226.39
468.41	9434.70
468.60	9589.17
468.78	9769.40
468.96	9476.83
469.14	9776.42
469.32	9647.69
469.50	9579.81
469.69	9692.16
469.87	9839.61
470.05	9771.74
470.23	9673.43
470.41	9816.21
470.59	10132.18
470.77	9811.53
470.95	10197.71
471.14	10171.97
471.32	9991.75
471.50	10377.94
471.68	10190.69
471.86	10483.26
472.04	10431.77
472.22	10590.92
472.40	10080.69
472.58	10319.42
472.77	10340.49
472.95	10668.16
473.13	10644.76
473.31	10757.10
473.49	10663.48
473.67	10602.63
473.85	10860.09
474.03	10843.70
474.21	11222.87
474.39	11211.17
474.57	11035.63
474.75	10918.60
474.93	11026.26
475.12	11213.51
475.30	11136.27
475.48	11208.83
475.66	11344.58
475.84	11321.17
476.02	11578.63
476.20	11506.07
476.38	11548.20
476.56	11875.88
476.74	11707.36
476.92	11597.35
477.10	12074.82
477.28	12177.81
477.46	12248.02
477.64	12070.14
477.82	12512.50
478.00	12674.00
478.18	12472.71
478.36	12695.07
478.54	12475.06
478.72	12716.13
478.90	12737.20
479.08	13004.02
479.26	13109.34
479.44	13205.30
479.62	13184.24
479.80	13289.56
479.98	13380.84
480.16	13837.25
480.34	13657.03
480.52	13694.47
480.70	13731.92
480.88	13692.13
481.06	13621.92
481.24	13947.25
481.41	14136.84
481.59	14546.43
481.77	14567.49
481.95	14420.04
482.13	14726.65
482.31	14633.03
482.49	14925.60
482.67	14977.09
482.85	15257.95
483.03	15054.33
483.21	15346.89
483.39	15531.80
483.57	15307.10
483.74	15599.67
483.92	15733.08
484.10	15421.79
484.28	15913.30
484.46	16137.99
484.64	16657.59
484.82	15903.94
485.00	16152.04
485.18	16407.16
485.35	16561.63
485.53	16133.31
485.71	16112.25
485.89	16369.71
486.07	16278.43
486.25	16580.36
486.43	16849.52
486.61	16776.96
486.78	17319.96
486.96	17446.35
487.14	17951.91
487.32	17745.94
487.50	17872.33
487.68	18178.94
487.85	18525.34
488.03	18555.77
488.21	18480.87
488.39	18504.28
488.57	18600.24
488.75	18675.13
488.92	19166.65
489.10	19112.81
489.28	19660.50
489.46	19728.38
489.64	19922.64
489.81	20456.28
489.99	20196.48
490.17	20306.49
490.35	20425.86
490.53	19997.54
490.70	20688.00
490.88	20849.49
491.06	20830.77
491.24	20837.79
491.41	20683.31
491.59	20922.05
491.77	20819.07
491.95	21298.88
492.13	21411.22
492.30	21741.24
492.48	21909.75
492.66	21675.70
492.84	21865.28
493.01	22185.94
493.19	22050.19
493.37	22228.07
493.54	22284.24
493.72	22588.51
493.90	22780.43
494.08	22754.69
494.25	23087.04
494.43	23410.04
494.61	23468.55
494.79	23669.84
494.96	23524.72
495.14	23742.39
495.32	23798.57
495.49	23878.15
495.67	24016.24
495.85	24496.05
496.02	24215.18
496.20	24194.12
496.38	24563.92
496.55	24849.47
496.73	25081.18
496.91	24720.74
497.09	25333.96
497.26	25394.81
497.44	25060.12
497.62	25338.64
497.79	25675.68
497.97	25319.92
498.14	25348.00
498.32	25523.54
498.50	25415.88
498.67	26157.83
498.85	26045.48
499.03	26115.70
499.20	26258.47
499.38	26377.84
499.56	26298.26
499.73	26588.49
499.91	26986.38
500.08	26434.01
500.26	26639.98
500.44	26787.43
500.61	26654.02
500.79	26672.74
500.97	26588.49
501.14	27351.50
501.32	26944.25
501.49	26977.01
501.67	27072.98
501.84	27545.76
502.02	27524.70
502.20	27695.56
502.37	27337.46
502.55	27880.46
502.72	28397.72
502.90	28100.47
503.07	27861.74
503.25	28517.09
503.43	27955.36
503.60	28100.47
503.78	28390.70
503.95	28170.69
504.13	28669.22
504.30	28512.41
504.48	28723.05
504.65	28919.66
504.83	29336.27
505.01	29453.30
505.18	29177.12
505.36	29275.42
505.53	29448.62
505.71	29759.91
505.88	29951.84
506.06	29390.11
506.23	29530.54
506.41	29633.52
506.58	30080.56
506.76	30024.39
506.93	30312.28
507.11	30068.86
507.28	30000.99
507.46	30471.43
507.63	29912.05
507.81	30026.73
507.98	30199.93
508.16	30616.55
508.33	30352.07
508.50	30558.03
508.68	31009.76
508.85	31681.49
509.03	30923.16
509.20	31166.57
509.38	31328.07
509.55	31047.21
509.73	31124.44
509.90	31510.63
510.08	31700.22
510.25	31304.67
510.42	31711.92
510.60	31527.02
510.77	31585.53
510.95	31922.57
511.12	32116.83
511.30	32091.09
511.47	32580.26
511.64	32376.63
511.82	32456.21
511.99	31936.61
512.17	32582.60
512.34	32142.58
512.51	32739.41
512.69	33106.88
512.86	32699.62
513.04	33158.37
513.21	33092.83
513.38	32587.28
513.56	32697.28
513.73	32865.80
513.90	32868.14
514.08	32971.13
514.25	33514.13
514.43	33216.88
514.60	33340.93
514.77	33298.80
514.95	33787.97
515.12	33366.68
515.29	33977.56
515.47	34143.74
515.64	34277.15
515.81	33970.54
515.99	34038.41
516.16	33897.98
516.33	33769.25
516.51	33596.05
516.68	33233.27
516.85	33205.18
517.03	33607.75
517.20	33890.96
517.37	34490.13
517.54	34471.41
517.72	34459.71
517.89	34291.19
518.06	34000.96
518.24	34113.31
518.41	34799.08
518.58	34555.67
518.75	34656.31
518.93	34780.36
519.10	34902.07
519.27	34864.62
519.45	35407.62
519.62	35447.41
519.79	35646.36
519.96	35529.33
520.14	35218.04
520.31	35541.03
520.48	35363.15
520.65	35246.13
520.83	36107.44
521.00	36140.21
521.17	36046.59
521.34	36219.79
521.52	36126.17
521.69	36219.79
521.86	36381.29
522.03	36554.49
522.20	36849.39
522.38	36540.44
522.55	36500.65
522.72	36388.31
522.89	36306.39
523.07	36769.82
523.24	36343.84
523.41	37034.30
523.58	36699.60
523.75	37490.70
523.92	37134.94
524.10	36847.05
524.27	37282.39
524.44	37418.14
524.61	37474.32
524.78	37118.56
524.96	37249.63
525.13	37670.92
525.30	37661.56
525.47	38033.71
525.64	37467.30
525.81	37790.29
525.98	37376.01
526.16	37525.81
526.33	37586.66
526.50	37902.64
526.67	36903.23
526.84	37766.88
527.01	37514.11
527.18	37926.04
527.36	38075.84
527.53	38565.01
527.70	38476.07
527.87	38506.49
528.04	38206.90
528.21	38604.80
528.38	38918.43
528.55	39070.56
528.72	39159.50
528.89	39255.46
529.07	39304.62
529.24	38909.07
529.41	38712.46
529.58	38878.64
529.75	38700.76
529.92	38990.98
530.09	38972.26
530.26	39229.72
530.43	39150.14
530.60	39072.90
530.77	39215.68
530.94	39838.26
531.11	38857.57
531.28	39672.08
531.46	39779.74
531.63	39739.96
531.80	39922.52
531.97	39576.12
532.14	39604.20
532.31	39246.10
532.48	39515.26
532.65	39861.66
532.82	39875.71
532.99	39716.55
533.16	39819.53
533.33	40023.16
533.50	40357.86
533.67	40165.93
533.84	39969.33
534.01	40053.59
534.18	39737.62
534.35	40385.94
534.52	40243.17
534.69	40509.99
534.86	40540.42
535.03	40655.11
535.20	41048.32
535.37	41186.41
535.54	41003.85
535.71	41015.55
535.88	40704.26
536.05	41053.00
536.22	40825.96
536.38	40573.19
536.55	40552.12
536.72	40889.16
536.89	40570.85
537.06	40882.14
537.23	41467.27
537.40	41172.36
537.57	41448.55
537.74	41265.99
537.91	41490.68
538.08	41284.71
538.25	41251.94
538.42	41642.81
538.59	41462.59
538.75	41146.62
538.92	41670.90
539.09	41109.17
539.26	41331.52
539.43	41411.10
539.60	41635.79
539.77	41329.18
539.94	41413.44
540.11	41097.47
540.28	41830.05
540.44	41787.92
540.61	41764.52
540.78	41652.17
540.95	41408.76
541.12	41687.28
541.29	41729.41
541.46	41848.78
541.62	41745.80
541.79	42223.26
541.96	41476.63
542.13	41998.57
542.30	41778.56
542.47	42117.94
542.63	41841.76
542.80	41764.52
542.97	42539.24
543.14	42710.10
543.31	42780.31
543.48	42632.86
543.64	43217.99
543.81	42777.97
543.98	42770.95
544.15	42745.20
544.32	43192.25
544.48	43426.30
544.65	43119.69
544.82	43222.67
544.99	42780.31
545.16	42703.07
545.32	43023.73
545.49	43716.53
545.66	43672.06
545.83	42911.38
546.00	43311.61
546.16	42899.68
546.33	43351.40
546.50	43248.42
546.67	43409.92
546.83	43201.61
547.00	42951.17
547.17	43072.88
547.34	43627.59
547.50	43302.25
547.67	43786.74
547.84	43606.52
548.00	43484.81
548.17	43875.68
548.34	43356.08
548.51	44027.82
548.67	43702.48
548.84	43782.06
549.01	44399.96
549.18	43805.47
549.34	43985.69
549.51	44074.63
549.68	43971.64
549.84	43997.39
550.01	44257.19
550.18	43768.02
550.34	43863.98
550.51	44041.86
550.68	44023.14
550.84	43826.53
551.01	44449.11
551.18	43899.09
551.34	44395.28
551.51	44404.64
551.68	44264.21
551.84	44144.84
552.01	44273.57
552.18	44526.35
552.34	43894.41
552.51	44341.45
552.68	44114.42
552.84	44481.88
553.01	44804.88
553.18	44154.21
553.34	44444.43
553.51	44533.37
553.67	44877.43
553.84	44992.12
554.01	44765.09
554.17	45111.49
554.34	44697.21
554.51	44774.45
554.67	44631.68
554.84	44779.13
555.00	44690.19
555.17	44619.97
555.33	44615.29
555.50	44896.16
555.67	44891.48
555.83	44568.48
556.00	44814.24
556.16	45043.61
556.33	45240.21
556.50	44596.57
556.66	44865.73
556.83	44524.01
556.99	45415.76
557.16	45455.54
557.32	45291.71
557.49	45027.23
557.65	44898.50
557.82	45125.53
557.98	45425.12
558.15	45212.13
558.32	45181.70
558.48	44933.60
558.65	45399.37
558.81	45078.72
558.98	45329.16
559.14	45195.74
559.31	44875.09
559.47	45092.76
559.64	45305.75
559.80	45254.26
559.97	45125.53
560.13	45118.51
560.30	45577.25
560.46	45214.47
560.63	45434.48
560.79	45752.79
560.96	45633.42
561.12	45333.84
561.29	45500.01
561.45	45310.43
561.61	45359.58
561.78	45427.46
561.94	45177.02
562.11	45165.32
562.27	45221.49
562.44	45179.36
562.60	45191.06
562.77	45904.93
562.93	45462.57
563.10	45710.66
563.26	45186.38
563.42	45797.26
563.59	45595.98
563.75	45846.41
563.92	46012.59
564.08	45818.33
564.24	45710.66
564.41	45497.67
564.57	46094.51
564.74	45488.31
564.90	45736.41
565.07	46024.29
565.23	45886.20
565.39	45776.20
565.56	45909.61
565.72	45408.73
565.88	45738.75
566.05	45432.14
566.21	45773.86
566.38	45666.19
566.54	45490.65
566.70	45673.21
566.87	46005.57
567.03	45745.77
567.19	46021.95
567.36	46185.79
567.52	45975.14
567.68	46227.92
567.85	46143.66
568.01	45855.78
568.17	45970.46
568.34	46045.36
568.50	46057.06
568.66	46113.23
568.83	45799.60
568.99	45603.00
569.15	45890.88
569.32	45794.92
569.48	45949.40
569.64	45951.74
569.81	46305.16
569.97	45478.95
570.13	46136.64
570.30	45572.57
570.46	45649.81
570.62	45375.97
570.78	45563.21
570.95	45769.18
571.11	45780.88
571.27	45497.67
571.43	45619.38
571.60	46176.43
571.76	46024.29
571.92	46143.66
572.09	46265.37
572.25	45923.65
572.41	46288.77
572.57	46316.86
572.74	46087.49
572.90	46216.22
573.06	46110.89
573.22	46146.00
573.38	46096.85
573.55	46136.64
573.71	46534.53
573.87	46108.55
574.03	46258.35
574.20	45603.00
574.36	45944.72
574.52	45989.19
574.68	46232.60
574.84	46059.40
575.01	45925.99
575.17	45947.06
575.33	45851.09
575.49	46459.63
575.65	46256.01
575.82	46028.98
575.98	45909.61
576.14	46197.49
576.30	46216.22
576.46	46082.81
576.62	45993.87
576.79	45752.79
576.95	46202.18
577.11	45865.14
577.27	46366.01
577.43	46230.26
577.59	45963.44
577.75	45710.66
577.92	45553.85
578.08	45883.86
578.24	45855.78
578.40	45858.12
578.56	46256.01
578.72	46270.05
578.88	46476.02
579.04	46326.22
579.21	45801.94
579.37	46033.66
579.53	46382.40
579.69	45701.30
579.85	45923.65
580.01	46071.10
580.17	46384.74
580.33	46127.28
580.49	45851.09
580.65	46026.63
580.82	45778.54
580.98	45935.35
581.14	46148.34
581.30	46265.37
581.46	46146.00
581.62	46185.79
581.78	46120.26
581.94	46361.33
582.10	46216.22
582.26	46190.47
582.42	46253.67
582.58	46564.96
582.74	46417.50
582.90	46614.11
583.06	46492.40
583.22	46550.91
583.38	46103.87
583.54	46857.52
583.70	46241.96
583.86	46579.00
584.02	46241.96
584.18	46461.97
584.34	46328.56
584.50	46082.81
584.66	46405.80
584.82	46007.91
584.98	46333.24
585.14	46253.67
585.30	46138.98
585.46	46487.72
585.62	45886.20
585.78	46141.32
585.94	45467.25
586.10	45954.08
586.26	45776.20
586.42	46291.12
586.58	46309.84
586.74	46614.11
586.90	46227.92
587.06	46347.29
587.22	46136.64
587.38	46485.38
587.54	46614.11
587.70	46602.41
587.86	46096.85
588.02	46253.67
588.18	46396.44
588.34	46253.67
588.49	45947.06
588.65	45364.26
588.81	45586.61
588.97	45488.31
589.13	45853.44
589.29	46010.25
589.45	46134.30
589.61	45984.51
589.77	46593.04
589.93	45780.88
590.08	46532.19
590.24	46712.41
590.40	46574.32
590.56	46415.16
590.72	46557.94
590.88	45975.14
591.04	45904.93
591.20	46698.37
591.35	46838.80
591.51	47213.29
591.67	46344.95
591.83	46562.62
591.99	46232.60
592.15	46323.88
592.31	46536.87
592.46	46380.06
592.62	46328.56
592.78	46150.68
592.94	46831.78
593.10	46583.68
593.26	46506.44
593.41	46176.43
593.57	45937.69
593.73	46115.58
593.89	46319.20
594.05	46370.69
594.20	46660.92
594.36	46358.99
594.52	46461.97
594.68	46368.35
594.84	46220.90
594.99	46263.03
595.15	46073.45
595.31	46424.53
595.47	46419.84
595.62	46445.59
595.78	46527.51
595.94	46632.83
596.10	46511.13
596.25	46410.48
596.41	46349.63
596.57	46340.27
596.73	46232.60
596.88	46347.29
597.04	46415.16
597.20	46471.34
597.36	46398.78
597.51	46536.87
597.67	46478.36
597.83	46251.33
597.99	46586.02
598.14	46148.34
598.30	46349.63
598.46	46391.76
598.61	46497.08
598.77	46401.12
598.93	46525.17
599.09	46501.76
599.24	47208.61
599.40	46354.31
599.56	46777.95
599.71	46539.21
599.87	46419.84
600.03	46567.30
600.18	46396.44
600.34	46649.22
600.50	46223.24
600.65	46426.87
600.81	46204.52
600.97	46810.71
601.12	46700.71
601.28	46244.30
601.44	46452.61
601.59	46239.62
601.75	46192.81
601.91	46085.15
602.06	46511.13
602.22	46351.97
602.37	46440.91
602.53	46518.15
602.69	46824.76
602.84	46822.42
603.00	46363.67
603.16	46452.61
603.31	46511.13
603.47	46246.65
603.62	46153.02
603.78	46431.55
603.94	46216.22
604.09	46213.88
604.25	46527.51
604.40	46337.93
604.56	46787.31
604.71	46316.86
604.87	46342.61
605.03	46019.61
605.18	46192.81
605.34	46384.74
605.49	46087.49
605.65	46314.52
605.80	46344.95
605.96	46527.51
606.12	46263.03
606.27	46763.90
606.43	46096.85
606.58	46513.47
606.74	46319.20
606.89	46164.73
607.05	46101.53
607.20	46110.89
607.36	46511.13
607.51	46314.52
607.67	46134.30
607.82	46637.51
607.98	46127.28
608.13	45979.82
608.29	45794.92
608.44	45872.16
608.60	45717.68
608.75	45996.21
608.91	45937.69
609.06	45818.33
609.22	46169.41
609.37	45815.99
609.53	46101.53
609.68	45865.14
609.84	45797.26
609.99	45684.92
610.15	45439.16
610.30	46253.67
610.46	45537.46
610.61	45748.11
610.76	45668.53
610.92	45808.96
611.07	45628.74
611.23	45736.41
611.38	45467.25
611.54	45638.11
611.69	45553.85
611.84	45464.91
612.00	45535.12
612.15	45361.92
612.31	45778.54
612.46	45734.07
612.62	45865.14
612.77	45375.97
612.92	45598.32
613.08	44959.35
613.23	45249.58
613.39	45207.45
613.54	44797.85
613.69	45254.26
613.85	45240.21
614.00	45502.35
614.15	45375.97
614.31	45235.53
614.46	45621.72
614.62	45390.01
614.77	45312.77
614.92	45043.61
615.08	44921.90
615.23	45031.91
615.38	45331.50
615.54	44884.45
615.69	45181.70
615.84	44917.22
616.00	45361.92
616.15	44690.19
616.30	44662.10
616.46	44767.43
616.61	45141.91
616.76	45158.30
616.92	44683.17
617.07	44666.78
617.22	44893.82
617.37	44657.42
617.53	45184.04
617.68	44987.44
617.83	44797.85
617.99	44664.44
618.14	45064.67
618.29	44699.55
618.45	44030.16
618.60	44067.61
618.75	43971.64
618.90	44175.27
619.06	44301.66
619.21	44608.27
619.36	44896.16
619.51	44715.93
619.67	44465.50
619.82	44371.88
619.97	44697.21
620.12	43894.41
620.28	43941.22
620.43	43990.37
620.58	44453.79
620.73	44123.78
620.89	44404.64
621.04	44741.68
621.19	44156.55
621.34	44179.95
621.49	43887.39
621.65	43929.51
621.80	44385.92
621.95	43966.96
622.10	44325.07
622.25	44112.08
622.41	44128.46
622.56	44083.99
622.71	44051.22
622.86	44219.74
623.01	44196.34
623.16	44147.18
623.32	44350.81
623.47	43440.34
623.62	44170.59
623.77	43824.19
623.92	43981.01
624.07	43999.73
624.23	43267.14
624.38	43639.29
624.53	43674.40
624.68	43665.03
624.83	43863.98
624.98	43641.63
625.13	43454.39
625.29	43274.16
625.44	43047.13
625.59	43325.66
625.74	43660.35
625.89	43278.85
626.04	43084.58
626.19	43517.58
626.34	43016.71
626.49	43168.84
626.65	43182.88
626.80	43599.50
626.95	43058.84
627.10	43297.57
627.25	42670.31
627.40	43093.94
627.55	42705.41
627.70	42501.79
627.85	42934.79
628.00	42724.14
628.15	43166.50
628.30	43107.99
628.45	42969.90
628.60	42742.86
628.76	42934.79
628.91	42611.79
629.06	42033.68
629.21	42424.55
629.36	42199.86
629.51	42127.30
629.66	42768.61
629.81	42185.82
629.96	42494.77
630.11	42780.31
630.26	42895.00
630.41	42953.51
630.56	42419.87
630.71	42225.60
630.86	42068.79
631.01	42164.75
631.16	42417.53
631.31	42071.13
631.46	41933.04
631.61	41937.72
631.76	42368.38
631.91	42281.78
632.06	42232.63
632.21	42050.06
632.36	41968.15
632.51	41930.70
632.66	41979.85
632.81	41935.38
632.96	41748.14
633.10	41762.18
633.25	41603.02
633.40	42019.64
633.55	42005.59
633.70	42141.35
633.85	41715.37
634.00	42143.69
634.15	41801.97
634.30	42085.17
634.45	41860.48
634.60	41736.43
634.75	41659.20
634.90	41586.64
635.05	41617.07
635.19	41656.85
635.34	42167.09
635.49	41701.32
635.64	41324.50
635.79	41497.70
635.94	41373.65
636.09	41539.83
636.24	41006.19
636.39	40968.74
636.53	41261.30
636.68	41006.19
636.83	41165.34
636.98	41364.29
637.13	41148.96
637.28	41897.93
637.43	41216.83
637.57	41591.32
637.72	41383.01
637.87	41155.98
638.02	41193.43
638.17	41109.17
638.32	41132.57
638.46	41181.73
638.61	40706.60
638.76	40872.78
638.91	41130.23
639.06	41125.55
639.20	41275.35
639.35	41390.03
639.50	40884.48
639.65	41181.73
639.80	40722.98
639.94	40570.85
640.09	40741.71
640.24	40971.08
640.39	40821.28
640.54	40528.72
640.68	40622.34
640.83	40453.82
640.98	40133.17
641.13	40327.43
641.27	40872.78
641.42	40287.64
641.57	40507.65
641.72	40474.88
641.86	40203.38
642.01	40243.17
642.16	40250.19
642.31	39812.51
642.45	40294.66
642.60	40011.46
642.75	39735.27
642.90	40390.62
643.04	40182.32
643.19	40245.51
643.34	40521.69
643.48	40093.38
643.63	39871.03
643.78	39742.30
643.93	40243.17
644.07	40304.02
644.22	39718.89
644.37	39604.20
644.51	39934.22
644.66	39943.58
644.81	40013.80
644.95	39742.30
645.10	39723.57
645.25	40257.21
645.39	39812.51
645.54	39964.65
645.69	39667.40
645.83	39737.62
645.98	39777.40
646.13	39707.19
646.27	39580.80
646.42	39035.45
646.57	39384.19
646.71	39536.33
646.86	39548.03
647.00	39297.59
647.15	39232.06
647.30	39105.67
647.44	39510.58
647.59	39185.25
647.74	39154.82
647.88	39246.10
648.03	39475.48
648.17	39358.45
648.32	39147.80
648.47	39140.78
648.61	39068.22
648.76	39625.27
648.90	39145.46
649.05	39276.53
649.20	39318.66
649.34	39168.87
649.49	38983.96
649.63	38768.63
649.78	39042.48
649.92	39220.36
650.07	39159.50
650.21	38787.36
650.36	39005.03
650.51	39140.78
650.65	39416.96
650.80	39463.77
650.94	39033.11
651.09	39056.52
651.23	38604.80
651.38	38466.70
651.52	38340.32
651.67	38698.42
651.81	38330.95
651.96	38817.78
652.10	38380.10
652.25	38452.66
652.39	38361.38
652.54	38569.69
652.68	38663.31
652.83	38426.92
652.97	38892.68
653.12	38679.69
653.26	38132.01
653.41	37986.89
653.55	38319.25
653.70	38300.53
653.84	38260.74
653.99	37926.04
654.13	38059.45
654.27	37813.70
654.42	38153.07
654.56	38209.25
654.71	38249.03
654.85	38143.71
655.00	38054.77
655.14	37591.34
655.29	37570.28
655.43	37567.94
655.57	37357.29
655.72	37357.29
655.86	37383.04
656.01	37141.96
656.15	36800.24
656.30	37418.14
656.44	37406.44
656.58	37254.31
656.73	37392.40
656.87	37233.24
657.01	37308.14
657.16	37471.98
657.30	37408.78
657.45	37020.25
657.59	37387.72
657.73	37502.40
657.88	37794.97
658.02	37483.68
658.16	38061.79
658.31	37270.69
658.45	37457.93
658.60	37376.01
658.74	37277.71
658.88	37104.51
659.03	37181.75
659.17	37230.90
659.31	36816.63
659.46	37085.79
659.60	37214.52
659.74	37134.94
659.89	36804.92
660.03	36833.01
660.17	37146.64
660.32	36914.93
660.46	36935.99
660.60	36723.01
660.74	36533.42
660.89	36268.94
661.03	36095.74
661.17	36334.48
661.32	36414.05
661.46	36484.27
661.60	36320.43
661.74	35845.30
661.89	35950.63
662.03	36683.22
662.17	36290.01
662.31	36194.04
662.46	36573.21
662.60	36231.49
662.74	36062.97
662.88	36158.94
663.03	35798.49
663.17	36044.25
663.31	35367.84
663.45	35662.74
663.60	35770.41
663.74	35398.26
663.88	35550.40
664.02	34892.71
664.17	36072.34
664.31	35548.06
664.45	34937.18
664.59	35405.28
664.73	35412.31
664.88	34981.65
665.02	35091.65
665.16	35023.78
665.30	34944.20
665.44	35150.17
665.59	34616.52
665.73	34841.21
665.87	34665.67
666.01	34614.18
666.15	34639.93
666.29	35014.41
666.44	34712.49
666.58	34714.83
666.72	34796.74
666.86	35040.16
667.00	34630.57
667.14	34377.79
667.28	34211.61
667.43	33970.54
667.57	34398.85
667.71	34616.52
667.85	34298.21
667.99	34848.24
668.13	34345.02
668.27	34010.32
668.41	34368.43
668.56	34263.10
668.70	34167.14
668.84	33511.79
668.98	33790.31
669.12	33420.51
669.26	33708.40
669.40	33467.32
669.54	33125.60
669.68	33507.11
669.82	33481.36
669.96	33181.77
670.10	33263.69
670.25	33476.68
670.39	33062.41
670.53	32797.93
670.67	32985.17
670.81	33163.05
670.95	33013.26
671.09	32751.12
671.23	32664.52
671.37	32844.74
671.51	32648.13
671.65	32453.87
671.79	32540.47
671.93	32629.41
672.07	32556.85
672.21	32346.20
672.35	32692.60
672.49	32315.78
672.63	32268.97
672.77	32444.51
672.91	32063.00
673.05	31578.51
673.19	32018.53
673.33	31943.63
673.47	31803.20
673.61	31812.56
673.75	31889.80
673.89	31264.88
674.03	31283.60
674.17	31541.06
674.31	31374.88
674.45	31442.76
674.59	31023.80
674.73	31662.77
674.87	31309.35
675.01	30654.00
675.15	31330.41
675.29	30555.69
675.43	30829.54
675.56	30918.48
675.70	30623.57
675.84	30602.50
675.98	29872.26
676.12	30223.34
676.26	30810.81
676.40	30253.76
676.54	30221.00
676.68	30244.40
676.82	29600.76
676.96	29869.92
677.10	29909.71
677.23	30279.51
677.37	29670.97
677.51	29907.37
677.65	29139.67
677.79	29242.65
677.93	29062.43
678.07	29102.22
678.21	29050.73
678.34	28631.77
678.48	28697.31
678.62	28762.84
678.76	28643.48
678.90	28278.35
679.04	27955.36
679.18	28493.68
679.31	28102.81
679.45	27817.27
679.59	27861.74
679.73	28477.30
679.87	28025.57
680.00	28519.43
680.14	28060.68
680.28	28137.92
680.42	27938.97
680.56	27435.76
680.70	27288.31
680.83	27566.83
680.97	27330.44
681.11	27632.36
681.25	27185.32
681.39	27274.26
681.52	27094.04
681.66	27042.55
681.80	27077.66
681.94	26998.08
682.07	26991.06
682.21	26316.98
682.35	26424.65
682.49	26649.34
682.62	26466.78
682.76	26448.05
682.90	26340.39
683.04	25916.75
683.17	26206.98
683.31	25809.09
683.45	25841.85
683.59	26160.17
683.72	26305.28
683.86	25883.98
684.00	25766.96
684.13	25392.47
684.27	25177.14
684.41	25465.03
684.55	25216.93
684.68	25415.88
684.82	25097.56
684.96	24854.15
685.09	24762.87
685.23	25092.88
685.37	24833.08
685.50	24929.05
685.64	24606.05
685.78	24236.25
685.91	24269.01
686.05	24123.90
686.19	23875.80
686.32	23754.10
686.46	23613.66
686.60	23068.32
686.73	23288.33
686.87	23311.74
687.01	23232.16
687.14	23033.21
687.28	22925.55
687.42	23187.69
687.55	23171.30
687.69	23342.16
687.82	23049.60
687.96	23356.21
688.10	22609.58
688.23	22904.48
688.37	22457.44
688.50	22464.46
688.64	22527.66
688.78	22396.59
688.91	22197.64
689.05	22295.94
689.18	22181.26
689.32	21671.02
689.46	22419.99
689.59	22249.13
689.73	22331.05
689.86	22164.87
690.00	21736.56
690.13	21528.25
690.27	21591.44
690.41	21376.11
690.54	21018.01
690.68	20952.48
690.81	20980.56
690.95	21135.04
691.08	21200.57
691.22	21165.46
691.35	20985.24
691.49	20947.79
691.62	20898.64
691.76	20961.84
691.89	20692.68
692.03	20819.07
692.16	20498.41
692.30	20219.89
692.43	20095.84
692.57	20137.97
692.70	20540.54
692.84	20037.33
692.97	19995.20
693.11	19646.46
693.24	19896.89
693.38	19693.27
693.51	19728.38
693.65	19681.56
693.78	19616.03
693.92	19690.93
694.05	19630.07
694.19	19405.38
694.32	19522.41
694.45	18904.51
694.59	18906.85
694.72	19126.86
694.86	18946.64
694.99	18642.37
695.13	18754.71
695.26	18705.56
695.39	18686.84
695.53	18609.60
695.66	18541.72
695.80	18714.92
695.93	18476.19
696.07	18565.13
696.20	18455.12
696.33	18534.70
696.47	18202.35
696.60	18066.60
696.73	17675.73
696.87	17869.99
697.00	17867.65
697.14	17647.64
697.27	17666.36
697.40	17284.86
697.54	17319.96
697.67	17252.09
697.80	17703.81
697.94	16996.97
698.07	17329.33
698.21	16786.32
698.34	17184.21
698.47	17170.17
698.61	16695.04
698.74	16688.02
698.87	16636.53
699.01	16456.31
699.14	16610.78
699.27	16229.27
699.40	16149.70
699.54	16383.75
699.67	16402.47
699.80	15955.43
699.94	16229.27
700.07	16327.58
700.20	16123.95
700.34	15854.79
700.47	15735.42
700.60	16128.63
700.73	16072.46
700.87	15829.04
701.00	15613.71
701.13	15318.81
701.26	15442.85
701.40	15501.37
701.53	15014.54
701.66	15379.66
701.79	15059.01
701.93	15201.78
702.06	15070.71
702.19	14820.27
702.32	14796.87
702.46	14897.51
702.59	14850.70
702.72	14764.10
702.85	15082.41
702.99	14787.50
703.12	14731.33
703.25	14651.75
703.38	14565.15
703.51	14560.47
703.65	14370.89
703.78	14239.82
703.91	13965.98
704.04	13895.76
704.17	14066.62
704.31	13703.84
704.44	14071.30
704.57	14031.51
704.70	13886.40
704.83	13834.91
704.96	13596.17
705.10	13661.71
705.23	13764.69
>>>>>End Processed Spectral Data<<<<<
