SpectraSuite Data File
++++++++++++++++++++++++++++++++++++
Date: Fri Oct 25 10:46:58 EDT 2013
User: price-jones
Dark Spectrum Present: No
Reference Spectrum Present: No
Number of Sampled Component Spectra: 1
Spectrometers: USB2+H05261
Integration Time (usec): 100000 (USB2+H05261)
Spectra Averaged: 1 (USB2+H05261)
Boxcar Smoothing: 0 (USB2+H05261)
Correct for Electrical Dark: No (USB2+H05261)
Strobe/Lamp Enabled: No (USB2+H05261)
Correct for Detector Non-linearity: No (USB2+H05261)
Correct for Stray Light: No (USB2+H05261)
Number of Pixels in Processed Spectrum: 2048
>>>>>Begin Processed Spectral Data<<<<<
365.73	138.09
365.92	138.09
366.12	138.09
366.32	35.11
366.52	0.00
366.72	91.28
366.91	44.47
367.11	42.13
367.31	7.02
367.51	37.45
367.70	44.47
367.90	44.47
368.10	77.24
368.30	0.00
368.49	0.00
368.69	56.17
368.89	100.64
369.09	14.04
369.28	93.62
369.48	11.70
369.68	63.19
369.87	131.07
370.07	93.62
370.27	163.84
370.47	224.69
370.66	311.29
370.86	416.62
371.06	444.70
371.25	533.64
371.45	442.36
371.65	456.40
371.84	479.81
372.04	451.72
372.24	496.19
372.44	557.05
372.63	545.34
372.83	547.69
373.03	580.45
373.22	447.04
373.42	463.43
373.62	594.50
373.81	610.88
374.01	599.18
374.21	554.71
374.40	510.24
374.60	533.64
374.79	498.53
374.99	573.43
375.19	580.45
375.38	543.00
375.58	524.28
375.78	641.31
375.97	521.94
376.17	627.26
376.37	571.09
376.56	592.16
376.76	631.94
376.95	578.11
377.15	573.43
377.35	653.01
377.54	685.78
377.74	613.22
377.93	655.35
378.13	725.57
378.33	674.07
378.52	634.29
378.72	603.86
378.91	697.48
379.11	608.54
379.31	657.69
379.50	594.50
379.70	709.18
379.89	716.20
380.09	671.73
380.28	622.58
380.48	636.63
380.68	699.82
380.87	655.35
381.07	702.16
381.26	713.86
381.46	730.25
381.65	795.78
381.85	770.04
382.04	739.61
382.24	788.76
382.43	779.40
382.63	580.45
382.83	720.88
383.02	739.61
383.22	770.04
383.41	723.23
383.61	753.65
383.80	786.42
384.00	784.08
384.19	781.74
384.39	781.74
384.58	830.89
384.78	823.87
384.97	763.01
385.17	758.33
385.36	781.74
385.56	809.83
385.75	741.95
385.95	847.27
386.14	809.83
386.34	903.45
386.53	858.98
386.72	755.99
386.92	924.51
387.11	814.51
387.31	901.11
387.50	917.49
387.70	854.30
387.89	840.25
388.09	875.36
388.28	940.90
388.48	880.04
388.67	847.27
388.86	901.11
389.06	863.66
389.25	873.02
389.45	957.28
389.64	903.45
389.84	985.37
390.03	973.66
390.22	971.32
390.42	961.96
390.61	947.92
390.81	1015.79
391.00	1020.47
391.19	1020.47
391.39	1013.45
391.58	1067.28
391.78	1036.86
391.97	1090.69
392.16	1006.43
392.36	985.37
392.55	1027.50
392.75	966.64
392.94	1046.22
393.13	1064.94
393.33	961.96
393.52	978.34
393.71	1111.75
393.91	1050.90
394.10	1004.09
394.29	1071.97
394.49	1111.75
394.68	1118.78
394.88	1135.16
395.07	1231.12
395.26	1200.69
395.46	1282.61
395.65	1170.27
395.84	1184.31
396.04	1210.06
396.23	1114.10
396.42	1196.01
396.62	1322.40
396.81	1207.72
397.00	1114.10
397.19	1245.16
397.39	1306.02
397.58	1322.40
397.77	1348.15
397.97	1348.15
398.16	1451.13
398.35	1401.98
398.55	1430.07
398.74	1411.34
398.93	1411.34
399.12	1357.51
399.32	1455.81
399.51	1411.34
399.70	1605.61
399.90	1453.47
400.09	1537.73
400.28	1519.01
400.47	1612.63
400.67	1563.48
400.86	1621.99
401.05	1490.92
401.24	1631.35
401.44	1596.25
401.63	1685.19
401.82	1652.42
402.01	1638.38
402.21	1708.59
402.40	1680.50
402.59	1605.61
402.78	1664.12
402.97	1710.93
403.17	1687.53
403.36	1638.38
403.55	1785.83
403.74	1750.72
403.93	1664.12
404.13	1769.44
404.32	1764.76
404.51	1806.89
404.70	1830.30
404.89	1886.47
405.09	1944.99
405.28	1886.47
405.47	1914.56
405.66	1863.07
405.85	1898.17
406.05	1865.41
406.24	1830.30
406.43	1952.01
406.62	1987.11
406.81	2059.67
407.00	2026.90
407.20	1970.73
407.39	2022.22
407.58	2064.35
407.77	2024.56
407.96	2143.93
408.15	2204.78
408.34	2172.02
408.54	2232.87
408.73	2235.21
408.92	2218.83
409.11	2307.77
409.30	2104.14
409.49	2157.97
409.68	2207.13
409.87	2279.68
410.07	2286.70
410.26	2169.68
410.45	2361.60
410.64	2200.10
410.83	2394.37
411.02	2452.88
411.21	2567.57
411.40	2471.61
411.59	2581.61
411.78	2527.78
411.98	2640.12
412.17	2518.42
412.36	2581.61
412.55	2654.17
412.74	2626.08
412.93	2668.21
413.12	2614.38
413.31	2750.13
413.50	2534.80
413.69	2708.00
413.88	2862.48
414.07	2761.83
414.26	2846.09
414.45	2785.24
414.64	2761.83
414.83	2787.58
415.02	2895.24
415.22	3033.33
415.41	3084.83
415.60	2909.29
415.79	3110.57
415.98	3007.59
416.17	3059.08
416.36	3089.51
416.55	3162.06
416.74	3115.25
416.93	3143.34
417.12	3152.70
417.31	3239.30
417.50	3220.58
417.69	3344.63
417.88	3318.88
418.07	3316.54
418.26	3300.16
418.45	3295.47
418.64	3368.03
418.83	3536.55
419.02	3363.35
419.21	3515.48
419.39	3475.70
419.58	3365.69
419.77	3365.69
419.96	3510.80
420.15	3588.04
420.34	3616.13
420.53	3688.68
420.72	3693.37
420.91	3641.87
421.10	3700.39
421.29	3688.68
421.48	3634.85
421.67	3719.11
421.86	3714.43
422.05	3562.30
422.24	3779.97
422.43	3705.07
422.61	3705.07
422.80	3709.75
422.99	3880.61
423.18	3824.44
423.37	3782.31
423.56	3847.84
423.75	3805.71
423.94	3747.20
424.13	3705.07
424.32	3681.66
424.50	3906.35
424.69	3857.20
424.88	3850.18
425.07	3854.86
425.26	3691.02
425.45	3765.92
425.64	3765.92
425.83	3845.50
426.01	3899.33
426.20	3913.38
426.39	3826.78
426.58	3779.97
426.77	3777.62
426.96	3978.91
427.15	3868.91
427.33	3988.27
427.52	4037.42
427.71	4002.32
427.90	3908.69
428.09	3934.44
428.28	3983.59
428.46	4119.34
428.65	4161.47
428.84	4156.79
429.03	4168.49
429.22	4023.38
429.40	4102.96
429.59	3978.91
429.78	3847.84
429.97	3911.04
430.16	3859.54
430.34	4065.51
430.53	3913.38
430.72	3964.87
430.91	4070.19
431.10	4119.34
431.28	4386.16
431.47	4507.87
431.66	4552.34
431.85	4318.29
432.03	4418.93
432.22	4557.02
432.41	4435.32
432.60	4503.19
432.79	4524.26
432.97	4606.17
433.16	4498.51
433.35	4566.39
433.54	4454.04
433.72	4510.21
433.91	4573.41
434.10	4580.43
434.28	4557.02
434.47	4753.63
434.66	4655.33
434.85	4657.67
435.03	4952.57
435.22	4702.14
435.41	4922.15
435.59	4847.25
435.78	4896.40
435.97	5032.15
436.16	4894.06
436.34	5076.62
436.53	4875.34
436.72	5100.03
436.90	4912.78
437.09	4887.04
437.28	4973.64
437.46	4847.25
437.65	4973.64
437.84	5029.81
438.02	4994.70
438.21	5032.15
438.40	4798.10
438.58	5125.77
438.77	5165.56
438.96	5303.65
439.14	5425.36
439.33	5444.09
439.52	5589.20
439.70	5432.38
439.89	5488.56
440.08	5460.47
440.26	5591.54
440.45	5526.00
440.63	5605.58
440.82	5769.42
441.01	5685.16
441.19	5827.93
441.38	5865.38
441.57	5834.96
441.75	5975.39
441.94	6139.23
442.12	5923.90
442.31	6232.85
442.50	6221.14
442.68	6099.44
442.87	6181.35
443.05	6174.33
443.24	6183.70
443.43	6370.94
443.61	6087.73
443.80	6260.93
443.98	6057.31
444.17	5973.05
444.35	6221.14
444.54	6300.72
444.73	6174.33
444.91	6169.65
445.10	6413.07
445.28	6319.45
445.47	6108.80
445.65	6200.08
445.84	6246.89
446.02	6326.47
446.21	6274.98
446.39	6296.04
446.58	6422.43
446.77	6237.53
446.95	6317.11
447.14	6614.35
447.32	6686.91
447.51	6265.61
447.69	6403.71
447.88	6494.99
448.06	6303.06
448.25	6459.88
448.43	6597.97
448.62	6576.91
448.80	6509.03
448.99	6593.29
449.17	6579.25
449.36	6679.89
449.54	6642.44
449.73	6726.70
449.91	6867.13
450.10	6906.92
450.28	6909.26
450.46	6794.58
450.65	7054.37
450.83	6902.24
451.02	6836.70
451.20	7070.76
451.39	6974.80
451.57	6864.79
451.76	6939.69
451.94	7112.89
452.13	7075.44
452.31	6932.67
452.49	6757.13
452.68	6780.53
452.86	7117.57
453.05	7028.63
453.23	7052.03
453.42	6906.92
453.60	7101.19
453.78	7234.60
453.97	7260.34
454.15	7211.19
454.34	7089.48
454.52	7314.17
454.70	7407.80
454.89	7225.23
455.07	7190.13
455.26	7328.22
455.44	7508.44
455.62	7604.40
455.81	7400.77
455.99	7543.55
456.17	7548.23
456.36	7651.21
456.54	7744.83
456.73	7651.21
456.91	7754.19
457.09	7894.63
457.28	7936.76
457.46	7812.71
457.64	7819.73
457.83	7819.73
458.01	7805.69
458.19	7964.84
458.38	7765.90
458.56	8016.33
458.74	8049.10
458.93	7822.07
459.11	7882.92
459.29	8149.75
459.48	8124.00
459.66	7969.52
459.84	8067.83
460.03	8226.98
460.21	8009.31
460.39	8259.75
460.57	8276.13
460.76	8372.10
460.94	8432.95
461.12	8360.39
461.31	8528.91
461.49	8409.54
461.67	8339.33
461.85	8407.20
462.04	8585.08
462.22	8807.44
462.40	8765.31
462.59	8674.03
462.77	8688.07
462.95	8617.85
463.13	8535.93
463.32	8615.51
463.50	8812.12
463.68	8645.94
463.86	8854.25
464.05	8681.05
464.23	8585.08
464.41	8816.80
464.59	8620.19
464.78	8861.27
464.96	8840.20
465.14	8645.94
465.32	8912.76
465.50	8901.06
465.69	8877.65
465.87	8968.93
466.05	8751.26
466.23	8739.56
466.41	9062.55
466.60	9233.41
466.78	8697.43
466.96	8931.48
467.14	8879.99
467.32	9207.67
467.51	9165.54
467.69	8922.12
467.87	9097.66
468.05	9186.60
468.23	9156.18
468.41	9085.96
468.60	9242.78
468.78	9315.33
468.96	9217.03
469.14	9317.67
469.32	9359.80
469.50	9158.52
469.69	9516.62
469.87	9507.26
470.05	9500.23
470.23	9579.81
470.41	9542.36
470.59	9755.35
470.77	9633.64
470.95	9689.82
471.14	9848.97
471.32	9654.71
471.50	9940.26
471.68	10122.82
471.86	10064.30
472.04	9942.60
472.22	10036.22
472.40	9886.42
472.58	9980.04
472.77	10099.41
472.95	10026.86
473.13	10630.71
473.31	10204.74
473.49	10216.44
473.67	10232.82
473.85	10574.54
474.03	10476.24
474.21	10640.08
474.39	10635.39
474.57	10607.31
474.75	10721.99
474.93	10850.72
475.12	10705.61
475.30	10890.51
475.48	11272.02
475.66	10970.09
475.84	11049.67
476.02	11136.27
476.20	10881.15
476.38	11279.04
476.56	11653.53
476.74	11349.26
476.92	11215.85
477.10	11407.77
477.28	11641.82
477.46	11508.41
477.64	11812.68
477.82	11899.28
478.00	12442.29
478.18	12116.95
478.36	12271.43
478.54	12533.57
478.72	12203.55
478.90	12463.35
479.08	12631.87
479.26	12659.96
479.44	12489.10
479.62	13032.10
479.80	12800.39
479.98	13121.04
480.16	13298.92
480.34	13170.19
480.52	13121.04
480.70	13186.58
480.88	13392.55
481.06	13687.45
481.24	13516.59
481.41	13577.45
481.59	14083.00
481.77	14197.69
481.95	13944.91
482.13	14347.48
482.31	14195.35
482.49	14223.44
482.67	14445.79
482.85	14277.27
483.03	14501.96
483.21	14810.91
483.39	15122.20
483.57	15054.33
483.74	15213.48
483.92	15082.41
484.10	15150.29
484.28	15358.60
484.46	15461.58
484.64	15669.89
484.82	15531.80
485.00	15737.76
485.18	15955.43
485.35	16191.83
485.53	15693.29
485.71	15822.02
485.89	15964.79
486.07	16196.51
486.25	16393.11
486.43	16587.38
486.61	16772.28
486.78	16823.77
486.96	17085.91
487.14	17336.35
487.32	17259.11
487.50	17254.43
487.68	17853.61
487.85	17958.93
488.03	18118.09
488.21	18047.87
488.39	17956.59
488.57	18223.41
488.75	18251.50
488.92	18607.26
489.10	18773.44
489.28	18787.48
489.46	18934.93
489.64	18902.17
489.81	19721.35
489.99	19555.18
490.17	19744.76
490.35	19690.93
490.53	19590.28
490.70	19803.27
490.88	19646.46
491.06	20304.15
491.24	20121.59
491.41	20161.37
491.59	20627.14
491.77	20428.20
491.95	20608.42
492.13	20830.77
492.30	20936.09
492.48	20980.56
492.66	21212.28
492.84	21380.79
493.01	21305.90
493.19	21135.04
493.37	21701.45
493.54	21731.87
493.72	22118.06
493.90	21748.26
494.08	22293.60
494.25	22644.68
494.43	22520.63
494.61	22923.21
494.79	22937.25
494.96	22785.12
495.14	22848.31
495.32	22965.34
495.49	23131.51
495.67	23370.25
495.85	23241.52
496.02	23543.45
496.20	23723.67
496.38	23990.49
496.55	23985.81
496.73	24292.42
496.91	24175.39
497.09	24100.50
497.26	24238.59
497.44	24329.87
497.62	24589.67
497.79	24533.50
497.97	24505.41
498.14	24959.47
498.32	25078.84
498.50	25099.90
498.67	25493.12
498.85	25495.46
499.03	25713.13
499.20	25528.22
499.38	25324.60
499.56	25598.44
499.73	25818.45
499.91	25703.76
500.08	26132.08
500.26	25703.76
500.44	26401.24
500.61	26080.59
500.79	25872.28
500.97	26373.16
501.14	26534.65
501.32	26522.95
501.49	26632.96
501.67	26691.47
501.84	26775.73
502.02	26944.25
502.20	26890.41
502.37	26939.57
502.55	27285.97
502.72	27143.19
502.90	27388.95
503.07	27239.15
503.25	27489.59
503.43	27400.65
503.60	27714.28
503.78	27690.88
503.95	27630.02
504.13	27943.66
504.30	27683.86
504.48	28191.75
504.65	28276.01
504.83	28292.40
505.01	28437.51
505.18	27960.04
505.36	28687.95
505.53	28371.97
505.71	28896.25
505.88	29296.49
506.06	28704.33
506.23	28830.72
506.41	28811.99
506.58	29291.80
506.76	28854.12
506.93	29575.01
507.11	29312.87
507.28	29371.38
507.46	29376.06
507.63	29132.65
507.81	29715.44
507.98	29406.49
508.16	29577.35
508.33	29685.01
508.50	29965.88
508.68	30132.06
508.85	30181.21
509.03	30223.34
509.20	30377.81
509.38	30487.82
509.55	30766.34
509.73	30843.58
509.90	30684.42
510.08	30728.89
510.25	30499.52
510.42	31019.12
510.60	30939.54
510.77	31297.64
510.95	31344.45
511.12	31000.40
511.30	31470.84
511.47	31613.62
511.64	31213.38
511.82	31775.11
511.99	31601.91
512.17	31955.33
512.34	31761.07
512.51	31744.69
512.69	31934.27
512.86	32299.39
513.04	32526.42
513.21	32210.45
513.38	32198.75
513.56	32318.12
513.73	32517.06
513.90	32180.03
514.08	32507.70
514.25	32655.15
514.43	32376.63
514.60	32856.44
514.77	32474.93
514.95	33099.86
515.12	32552.17
515.29	33057.73
515.47	33277.74
515.64	33198.16
515.81	33266.03
515.99	32863.46
516.16	33486.04
516.33	33331.57
516.51	32985.17
516.68	32713.67
516.85	32603.66
517.03	33106.88
517.20	33254.33
517.37	33780.95
517.54	33804.36
517.72	33743.50
517.89	34071.18
518.06	33764.57
518.24	33584.35
518.41	33528.17
518.58	34267.78
518.75	34169.48
518.93	34043.09
519.10	34326.30
519.27	34836.53
519.45	34487.79
519.62	34501.84
519.79	34232.68
519.96	34649.29
520.14	34871.64
520.31	34490.13
520.48	35014.41
520.65	34326.30
520.83	35339.75
521.00	35208.68
521.17	35049.52
521.34	34923.13
521.52	35419.33
521.69	35644.02
521.86	35730.62
522.03	35903.82
522.20	35534.01
522.38	35658.06
522.55	35997.44
522.72	35475.50
522.89	35686.15
523.07	36123.83
523.24	35538.69
523.41	36339.16
523.58	36119.15
523.75	36194.04
523.92	36657.47
524.10	36332.14
524.27	36472.57
524.44	36666.83
524.61	36933.65
524.78	36797.90
524.96	36961.74
525.13	36807.26
525.30	36828.33
525.47	37010.89
525.64	37013.23
525.81	36811.95
525.98	36966.42
526.16	36898.55
526.33	36589.59
526.50	37237.92
526.67	37015.57
526.84	36905.57
527.01	37055.36
527.18	37195.79
527.36	37581.98
527.53	37584.32
527.70	38176.48
527.87	37645.18
528.04	37881.57
528.21	37904.98
528.38	37610.07
528.55	38124.99
528.72	37897.95
528.89	38087.54
529.07	37874.55
529.24	38237.33
529.41	38146.05
529.58	37750.50
529.75	37722.41
529.92	38043.07
530.09	38382.45
530.26	38347.34
530.43	38635.22
530.60	38483.09
530.77	38930.13
530.94	38632.88
531.11	38911.41
531.28	38401.17
531.46	39009.71
531.63	39084.61
531.80	39117.37
531.97	38981.62
532.14	38792.04
532.31	38480.75
532.48	39414.62
532.65	39185.25
532.82	39264.83
532.99	39318.66
533.16	39218.02
533.33	38895.02
533.50	39611.23
533.67	39533.99
533.84	38969.92
534.01	39229.72
534.18	39077.58
534.35	39985.71
534.52	39765.70
534.69	39878.05
534.86	39784.43
535.03	39995.07
535.20	40161.25
535.37	40624.68
535.54	40486.59
535.71	40336.79
535.88	40091.04
536.05	40154.23
536.22	39978.69
536.38	39936.56
536.55	39868.69
536.72	40399.99
536.89	40505.31
537.06	40243.17
537.23	40556.80
537.40	40236.15
537.57	40390.62
537.74	40217.43
537.91	40720.64
538.08	40762.77
538.25	40142.53
538.42	40760.43
538.59	40823.62
538.75	40596.59
538.92	40950.01
539.09	41069.38
539.26	40636.38
539.43	40884.48
539.60	40818.94
539.77	41057.68
539.94	41429.82
540.11	41060.02
540.28	41006.19
540.44	40879.80
540.61	40765.11
540.78	40517.01
540.95	40837.67
541.12	41050.66
541.29	41317.48
541.46	41163.00
541.62	41226.20
541.79	41640.47
541.96	40886.82
542.13	40858.73
542.30	41284.71
542.47	41394.71
542.63	41757.50
542.80	41787.92
542.97	41998.57
543.14	41963.46
543.31	42096.88
543.48	42555.62
543.64	42548.60
543.81	42564.98
543.98	42595.41
544.15	41989.21
544.32	42370.72
544.48	42375.40
544.65	42457.32
544.82	42277.10
544.99	42342.63
545.16	42380.08
545.32	42169.43
545.49	42740.52
545.66	42216.24
545.83	42836.48
546.00	42679.67
546.16	42618.81
546.33	42595.41
546.50	42520.51
546.67	42824.78
546.83	42103.90
547.00	42241.99
547.17	42691.37
547.34	42513.49
547.50	42705.41
547.67	43264.80
547.84	43035.43
548.00	43414.60
548.17	43414.60
548.34	43278.85
548.51	43524.60
548.67	43306.93
548.84	43845.26
549.01	42789.67
549.18	43227.35
549.34	43138.41
549.51	43430.98
549.68	43274.16
549.84	43510.56
550.01	43409.92
550.18	43672.06
550.34	43737.59
550.51	43459.07
550.68	43566.73
550.84	42981.60
551.01	43372.47
551.18	43517.58
551.34	43452.05
551.51	43690.78
551.68	44140.16
551.84	43658.01
552.01	43789.08
552.18	43873.34
552.34	43594.82
552.51	43697.80
552.68	43636.95
552.84	44282.94
553.01	43922.49
553.18	43753.97
553.34	43845.26
553.51	43665.03
553.67	44184.63
553.84	44215.06
554.01	44360.17
554.17	44383.58
554.34	44472.52
554.51	44081.65
554.67	44034.84
554.84	44388.26
555.00	44004.41
555.17	44051.22
555.33	44257.19
555.50	44362.51
555.67	44577.84
555.83	44091.01
556.00	44325.07
556.16	44760.40
556.33	44610.61
556.50	44135.48
556.66	44788.49
556.83	44364.85
556.99	44851.69
557.16	44734.66
557.32	44587.21
557.49	44706.57
557.65	43828.87
557.82	44715.93
557.98	44954.67
558.15	44580.18
558.32	44907.86
558.48	44416.35
558.65	44657.42
558.81	44524.01
558.98	45090.42
559.14	44879.77
559.31	44715.93
559.47	44966.37
559.64	44870.41
559.80	44746.36
559.97	45069.36
560.13	44715.93
560.30	44973.39
560.46	45462.57
560.63	45029.57
560.79	45380.65
560.96	44940.63
561.12	45518.74
561.29	45010.84
561.45	44982.76
561.61	45127.87
561.78	45067.02
561.94	45268.30
562.11	45092.76
562.27	44914.88
562.44	45137.23
562.60	45336.18
562.77	45020.20
562.93	45518.74
563.10	45425.12
563.26	44954.67
563.42	45387.67
563.59	45240.21
563.75	45270.64
563.92	45649.81
564.08	45209.79
564.24	45331.50
564.41	45535.12
564.57	45586.61
564.74	44891.48
564.90	45731.73
565.07	45317.45
565.23	45244.90
565.39	45446.18
565.56	45350.22
565.72	44985.10
565.88	44980.42
566.05	45343.20
566.21	45448.52
566.38	45179.36
566.54	45380.65
566.70	45855.78
566.87	45563.21
567.03	45544.48
567.19	45757.47
567.36	45415.76
567.52	45654.49
567.68	45565.55
567.85	45095.10
568.01	45745.77
568.17	45359.58
568.34	45446.18
568.50	45689.60
568.66	45497.67
568.83	45801.94
568.99	45478.95
569.15	45448.52
569.32	45942.38
569.48	45233.19
569.64	45902.59
569.81	45893.22
569.97	45694.28
570.13	45764.49
570.30	45429.80
570.46	45137.23
570.62	45024.89
570.78	45511.72
570.95	45247.24
571.11	45586.61
571.27	45404.05
571.43	45509.38
571.60	45661.51
571.76	45603.00
571.92	45799.60
572.09	45326.81
572.25	45581.93
572.41	45666.19
572.57	45743.43
572.74	46082.81
572.90	46078.13
573.06	45638.11
573.22	45565.55
573.38	45776.20
573.55	45734.07
573.71	46024.29
573.87	45806.62
574.03	45574.91
574.20	45607.68
574.36	45736.41
574.52	45801.94
574.68	45544.48
574.84	45907.27
575.01	45825.35
575.17	46050.04
575.33	45535.12
575.49	45565.55
575.65	46440.91
575.82	46323.88
575.98	45823.01
576.14	45984.51
576.30	46017.27
576.46	46000.89
576.62	45235.53
576.79	45305.75
576.95	45839.39
577.11	45698.96
577.27	45886.20
577.43	45734.07
577.59	45551.51
577.75	45940.04
577.92	45502.35
578.08	45390.01
578.24	45731.73
578.40	45766.84
578.56	45937.69
578.72	45731.73
578.88	46171.75
579.04	45708.32
579.21	45818.33
579.37	46087.49
579.53	45815.99
579.69	45825.35
579.85	45872.16
580.01	46305.16
580.17	45965.78
580.33	46382.40
580.49	45869.82
580.65	45780.88
580.82	45815.99
580.98	46113.23
581.14	45645.13
581.30	45989.19
581.46	46071.10
581.62	46089.83
581.78	45961.10
581.94	45942.38
582.10	45883.86
582.26	45785.56
582.42	46265.37
582.58	46333.24
582.74	45731.73
582.90	46040.68
583.06	46078.13
583.22	46277.07
583.38	46452.61
583.54	45963.44
583.70	45743.43
583.86	45954.08
584.02	45783.22
584.18	46366.01
584.34	46209.20
584.50	46216.22
584.66	45935.35
584.82	46220.90
584.98	46377.72
585.14	45944.72
585.30	45911.95
585.46	45659.17
585.62	45830.03
585.78	45823.01
585.94	45930.67
586.10	46012.59
586.26	45839.39
586.42	46412.82
586.58	46160.05
586.74	45982.16
586.90	46017.27
587.06	45633.42
587.22	46124.94
587.38	45755.13
587.54	46480.70
587.70	46307.50
587.86	46190.47
588.02	46181.11
588.18	46225.58
588.34	46124.94
588.49	45724.71
588.65	45640.45
588.81	45654.49
588.97	45752.79
589.13	45488.31
589.29	45514.06
589.45	45881.52
589.61	45610.02
589.77	45977.48
589.93	46567.30
590.08	45916.63
590.24	46328.56
590.40	46061.74
590.56	46621.13
590.72	46522.83
590.88	45771.52
591.04	46026.63
591.20	46625.81
591.35	46426.87
591.51	46630.49
591.67	46101.53
591.83	46141.32
591.99	46256.01
592.15	45925.99
592.31	46040.68
592.46	46532.19
592.62	46190.47
592.78	46546.23
592.94	46209.20
593.10	46506.44
593.26	46045.36
593.41	46469.00
593.57	45993.87
593.73	46251.33
593.89	46021.95
594.05	46319.20
594.20	46410.48
594.36	46012.59
594.52	46536.87
594.68	46052.38
594.84	46232.60
594.99	46031.32
595.15	45485.97
595.31	46653.90
595.47	46541.55
595.62	46148.34
595.78	46506.44
595.94	46728.80
596.10	46902.00
596.25	46295.80
596.41	46267.71
596.57	46199.83
596.73	45947.06
596.88	46085.15
597.04	46483.04
597.20	46494.74
597.36	46248.99
597.51	46838.80
597.67	46522.83
597.83	46396.44
597.99	46518.15
598.14	46223.24
598.30	46466.66
598.46	46185.79
598.61	46419.84
598.77	46131.96
598.93	46492.40
599.09	46480.70
599.24	46581.34
599.40	46508.79
599.56	46693.69
599.71	46857.52
599.87	46724.11
600.03	46237.28
600.18	46419.84
600.34	45865.14
600.50	46263.03
600.65	46279.41
600.81	46581.34
600.97	46284.09
601.12	47049.45
601.28	46803.69
601.44	46824.76
601.59	46059.40
601.75	46239.62
601.91	46543.89
602.06	46101.53
602.22	46162.39
602.37	46164.73
602.53	46190.47
602.69	46571.98
602.84	46202.18
603.00	46150.68
603.16	46363.67
603.31	46321.54
603.47	45961.10
603.62	46157.70
603.78	46693.69
603.94	46073.45
604.09	46281.75
604.25	46321.54
604.40	46401.12
604.56	46124.94
604.71	46302.82
604.87	45776.20
605.03	46494.74
605.18	46611.77
605.34	46096.85
605.49	45970.46
605.65	46459.63
605.80	46340.27
605.96	46232.60
606.12	46190.47
606.27	46717.09
606.43	45965.78
606.58	46195.15
606.74	46026.63
606.89	46312.18
607.05	46258.35
607.20	46323.88
607.36	46298.14
607.51	46394.10
607.67	46146.00
607.82	46167.07
607.98	46005.57
608.13	46007.91
608.29	45794.92
608.44	45668.53
608.60	45642.79
608.75	45581.93
608.91	45511.72
609.06	45275.32
609.22	46096.85
609.37	45610.02
609.53	45904.93
609.68	45961.10
609.84	45743.43
609.99	45897.91
610.15	45675.55
610.30	45783.22
610.46	45158.30
610.61	45741.09
610.76	45413.41
610.92	46288.77
611.07	45558.53
611.23	45738.75
611.38	46096.85
611.54	45727.05
611.69	45537.46
611.84	45294.05
612.00	45429.80
612.15	45448.52
612.31	45745.77
612.46	45586.61
612.62	45610.02
612.77	45401.71
612.92	45490.65
613.08	45027.23
613.23	45361.92
613.39	45495.33
613.54	44926.58
613.69	44879.77
613.85	45148.93
614.00	45595.98
614.15	45137.23
614.31	45130.21
614.46	45563.21
614.62	45127.87
614.77	45294.05
614.92	45322.13
615.08	45249.58
615.23	44914.88
615.38	45188.72
615.54	44774.45
615.69	44708.91
615.84	45050.63
616.00	44954.67
616.15	44617.63
616.30	44861.05
616.46	45024.89
616.61	44910.20
616.76	44697.21
616.92	44823.60
617.07	44414.01
617.22	44254.85
617.37	44428.05
617.53	45490.65
617.68	44582.52
617.83	45319.79
617.99	45172.34
618.14	45048.29
618.29	44624.65
618.45	44507.63
618.60	44699.55
618.75	44957.01
618.90	44608.27
619.06	44765.09
619.21	44505.29
619.36	45076.38
619.51	44479.54
619.67	44739.34
619.82	44542.74
619.97	45001.48
620.12	44470.18
620.28	44016.11
620.43	44020.80
620.58	44516.99
620.73	43992.71
620.89	44580.18
621.04	44364.85
621.19	44395.28
621.34	44065.27
621.49	44055.90
621.65	43995.05
621.80	44467.84
621.95	43966.96
622.10	44112.08
622.25	43650.99
622.41	43945.90
622.56	44025.48
622.71	43793.76
622.86	43737.59
623.01	43658.01
623.16	43676.74
623.32	44133.14
623.47	43744.61
623.62	43704.82
623.77	44013.77
623.92	43679.08
624.07	43931.86
624.23	43482.47
624.38	43395.87
624.53	43236.72
624.68	43714.19
624.83	43840.57
624.98	43112.67
625.13	43484.81
625.29	44020.80
625.44	43402.89
625.59	42937.13
625.74	42852.87
625.89	43070.54
626.04	42880.95
626.19	43196.93
626.34	43157.14
626.49	43409.92
626.65	43688.44
626.80	43416.94
626.95	43180.54
627.10	43203.95
627.25	42927.77
627.40	42651.58
627.55	42403.49
627.70	42710.10
627.85	42340.29
628.00	42583.71
628.15	42862.23
628.30	42391.78
628.45	42990.96
628.60	43012.02
628.76	42843.51
628.91	43075.22
629.06	42934.79
629.21	43115.01
629.36	42541.58
629.51	43117.35
629.66	42316.89
629.81	42225.60
629.96	42298.16
630.11	42586.05
630.26	42815.42
630.41	42909.04
630.56	43199.27
630.71	42637.54
630.86	42567.32
631.01	41989.21
631.16	42742.86
631.31	42209.22
631.46	41813.67
631.61	42363.70
631.76	42567.32
631.91	42328.59
632.06	42204.54
632.21	42010.28
632.36	42117.94
632.51	41865.16
632.66	42176.45
632.81	41689.62
632.96	41750.48
633.10	41989.21
633.25	42080.49
633.40	41933.04
633.55	42291.14
633.70	42031.34
633.85	41500.04
634.00	41933.04
634.15	42167.09
634.30	42061.77
634.45	42150.71
634.60	42124.96
634.75	41532.81
634.90	41574.94
635.05	41949.42
635.19	41446.21
635.34	41858.14
635.49	41588.98
635.64	41848.78
635.79	41851.12
635.94	41338.54
636.09	41394.71
636.24	41064.70
636.39	41256.62
636.53	41268.33
636.68	41287.05
636.83	41347.90
636.98	41516.42
637.13	40844.69
637.28	41226.20
637.43	41544.51
637.57	41467.27
637.72	41584.30
637.87	41727.07
638.02	41200.45
638.17	41291.73
638.32	40891.50
638.46	41001.50
638.61	40940.65
638.76	40610.64
638.91	40828.30
639.06	40971.08
639.20	41408.76
639.35	41298.75
639.50	40882.14
639.65	41289.39
639.80	41219.17
639.94	40598.93
640.09	40701.92
640.24	40919.59
640.39	40767.45
640.54	40514.67
640.68	41113.85
640.83	40975.76
640.98	40823.62
641.13	40720.64
641.27	41067.04
641.42	40671.49
641.57	41354.93
641.72	40776.81
641.86	40259.55
642.01	39941.24
642.16	40179.98
642.31	40030.18
642.45	40287.64
642.60	39847.62
642.75	40212.74
642.90	40362.54
643.04	40156.57
643.19	40105.08
643.34	39945.92
643.48	40161.25
643.63	40474.88
643.78	40016.14
643.93	40074.65
644.07	40060.61
644.22	40217.43
644.37	40121.46
644.51	40102.74
644.66	40158.91
644.81	40034.86
644.95	40016.14
645.10	39941.24
645.25	39990.39
645.39	39756.34
645.54	39920.18
645.69	39775.06
645.83	39583.14
645.98	39819.53
646.13	39784.43
646.27	39754.00
646.42	39864.00
646.57	39955.29
646.71	39592.50
646.86	39271.85
647.00	39777.40
647.15	39765.70
647.30	39988.05
647.44	39386.54
647.59	39466.11
647.74	38995.67
647.88	39501.22
648.03	39573.78
648.17	39601.86
648.32	38789.70
648.47	39236.74
648.61	38979.28
648.76	39426.32
648.90	39243.76
649.05	39562.08
649.20	39580.80
649.34	39358.45
649.49	39323.34
649.63	39349.09
649.78	39311.64
649.92	39246.10
650.07	39571.44
650.21	39196.95
650.36	39016.73
650.51	38946.51
650.65	39344.41
650.80	39201.63
650.94	38941.83
651.09	39077.58
651.23	38218.61
651.38	38555.64
651.52	38731.18
651.67	39047.16
651.81	38801.40
651.96	38785.02
652.10	38658.63
652.25	38497.13
652.39	38700.76
652.54	38838.85
652.68	38609.48
652.83	38738.21
652.97	39021.41
653.12	38684.37
653.26	38700.76
653.41	38646.93
653.55	38375.42
653.70	37984.55
653.84	38948.85
653.99	38087.54
654.13	38586.07
654.27	38251.38
654.42	38209.25
654.56	38242.01
654.71	37722.41
654.85	38143.71
655.00	38143.71
655.14	38054.77
655.29	38019.66
655.43	37933.06
655.57	37794.97
655.72	37731.78
655.86	37518.79
656.01	37261.33
656.15	37771.57
656.30	37926.04
656.44	37722.41
656.58	37607.73
656.73	37455.59
656.87	37448.57
657.01	37457.93
657.16	37869.87
657.30	37298.78
657.45	37273.03
657.59	37411.12
657.73	37439.21
657.88	37640.50
658.02	37256.65
658.16	37420.48
658.31	37874.55
658.45	37696.67
658.60	37385.38
658.74	37170.05
658.88	37600.71
659.03	37539.85
659.17	36966.42
659.31	37106.85
659.46	36629.38
659.60	37120.90
659.74	36940.68
659.89	36833.01
660.03	36715.98
660.17	36898.55
660.32	36928.97
660.46	36891.52
660.60	36928.97
660.74	36617.68
660.89	36950.04
661.03	36559.17
661.17	36486.61
661.32	36191.70
661.46	35908.50
661.60	35917.86
661.74	36596.62
661.89	36538.10
662.03	36556.83
662.17	35950.63
662.31	35864.03
662.46	36364.90
662.60	36505.34
662.74	36596.62
662.88	36304.05
663.03	36236.17
663.17	35697.85
663.31	35512.95
663.45	35859.35
663.60	35791.47
663.74	35878.07
663.88	35386.56
664.02	35847.64
664.17	35838.28
664.31	35793.81
664.45	35695.51
664.59	35391.24
664.73	35314.00
664.88	35625.29
665.02	34925.47
665.16	35274.21
665.30	35365.49
665.44	35491.88
665.59	35152.51
665.73	34810.79
665.87	34707.80
666.01	35096.33
666.15	34829.51
666.29	35374.86
666.44	34728.87
666.58	34410.56
666.72	34951.22
666.86	34869.30
667.00	35192.30
667.14	34417.58
667.28	34438.64
667.43	33951.81
667.57	33926.07
667.71	33984.58
667.85	34609.50
667.99	34288.85
668.13	34375.45
668.27	34370.77
668.41	34216.29
668.56	34239.70
668.70	34258.42
668.84	33738.82
668.98	34258.42
669.12	33991.60
669.26	34181.18
669.40	33462.64
669.54	33413.49
669.68	33731.80
669.82	33905.00
669.96	33392.42
670.10	33509.45
670.25	33371.36
670.39	33710.74
670.53	33443.91
670.67	33123.26
670.81	33582.01
670.95	33502.43
671.09	33273.06
671.23	33181.77
671.37	33163.05
671.51	32643.45
671.65	32762.82
671.79	32458.55
671.93	32439.82
672.07	33001.55
672.21	32896.23
672.35	32163.64
672.49	32381.31
672.63	32507.70
672.77	32252.58
672.91	32435.14
673.05	32355.57
673.19	31969.38
673.33	31789.16
673.47	31899.16
673.61	31941.29
673.75	32109.81
673.89	31770.43
674.03	31227.43
674.17	31269.56
674.31	31824.26
674.45	31395.95
674.59	31702.56
674.73	31590.21
674.87	31318.71
675.01	31393.61
675.15	31803.20
675.29	31473.18
675.43	31182.96
675.56	31342.11
675.70	31164.23
675.84	30859.96
675.98	29862.90
676.12	30686.76
676.26	30340.36
676.40	30614.21
676.54	30213.98
676.68	30590.80
676.82	29933.11
676.96	29741.19
677.10	30260.79
677.23	29743.53
677.37	29982.26
677.51	29713.10
677.65	29619.48
677.79	29200.52
677.93	29972.90
678.07	29542.24
678.21	29362.02
678.34	29303.51
678.48	29380.74
678.62	28961.79
678.76	29120.95
678.90	29013.28
679.04	29240.31
679.18	28620.07
679.31	28247.93
679.45	28484.32
679.59	28428.15
679.73	28046.64
679.87	28208.14
680.00	28379.00
680.14	28119.20
680.28	27707.26
680.42	27681.52
680.56	28037.28
680.70	28088.77
680.83	27800.88
680.97	27379.59
681.11	27344.48
681.25	27412.35
681.39	27180.64
681.52	27419.38
681.66	27454.48
681.80	27014.46
681.94	26820.20
682.07	27063.61
682.21	26890.41
682.35	26761.69
682.49	26682.11
682.62	26843.60
682.76	26700.83
682.90	26410.60
683.04	26195.28
683.17	26389.54
683.31	26260.81
683.45	26153.15
683.59	26148.46
683.72	25951.86
683.86	25668.66
684.00	25614.82
684.13	25893.35
684.27	25408.86
684.41	25521.20
684.55	25207.57
684.68	25860.58
684.82	25373.75
684.96	25193.53
685.09	25184.16
685.23	25130.33
685.37	25076.50
685.50	24807.34
685.64	24870.53
685.78	24458.60
685.91	24795.64
686.05	24304.12
686.19	24442.21
686.32	24484.34
686.46	23953.04
686.60	24105.18
686.73	23889.85
686.87	23573.88
687.01	23683.88
687.14	23335.14
687.28	23590.26
687.42	23491.96
687.55	23084.70
687.69	23276.63
687.82	23241.52
687.96	23377.27
688.10	22904.48
688.23	22890.44
688.37	23145.56
688.50	22391.91
688.64	22771.07
688.78	22759.37
688.91	22775.75
689.05	22586.17
689.18	22445.74
689.32	22237.43
689.46	22377.86
689.59	22427.01
689.73	22504.25
689.86	22150.83
690.00	22008.06
690.13	22288.92
690.27	21832.52
690.41	21891.03
690.54	21392.50
690.68	21661.66
690.81	21617.19
690.95	21415.90
691.08	21455.69
691.22	21064.82
691.35	21156.10
691.49	21483.78
691.62	21083.55
691.76	21184.19
691.89	21184.19
692.03	20807.36
692.16	20741.83
692.30	20407.13
692.43	20533.52
692.57	20360.32
692.70	20741.83
692.84	20456.28
692.97	20304.15
693.11	20013.92
693.24	19929.66
693.38	20027.96
693.51	19737.74
693.65	19880.51
693.78	20168.40
693.92	20030.30
694.05	19814.98
694.19	19688.59
694.32	19260.27
694.45	19454.53
694.59	19566.88
694.72	19211.12
694.86	19452.19
694.99	18958.34
695.13	19058.98
695.26	18892.80
695.39	18878.76
695.53	18539.38
695.66	18750.03
695.80	18738.33
695.93	18347.46
696.07	18361.50
696.20	18377.89
696.33	18387.25
696.47	18494.91
696.60	18286.61
696.73	17900.42
696.87	17848.93
697.00	18001.06
697.14	17862.97
697.27	18209.37
697.40	17764.67
697.54	17724.88
697.67	17523.59
697.80	17418.27
697.94	17453.37
698.07	17628.92
698.21	17240.39
698.34	17401.88
698.47	17310.60
698.61	16929.09
698.74	16765.26
698.87	16891.65
699.01	16739.51
699.14	16896.33
699.27	16526.52
699.40	16685.68
699.54	16519.50
699.67	16130.97
699.80	16395.45
699.94	16395.45
700.07	16180.12
700.20	16381.41
700.34	15777.55
700.47	15967.13
700.60	16053.73
700.73	16294.81
700.87	16037.35
701.00	15676.91
701.13	15800.96
701.26	15754.15
701.40	15662.86
701.53	15328.17
701.66	15297.74
701.79	15126.88
701.93	15035.60
702.06	15150.29
702.19	15035.60
702.32	14981.77
702.46	14951.34
702.59	15087.09
702.72	15007.52
702.85	14782.82
702.99	14998.15
703.12	14766.44
703.25	14803.89
703.38	14892.83
703.51	14499.62
703.65	14403.66
703.78	14548.77
703.91	14623.67
704.04	14434.08
704.17	14328.76
704.31	14167.26
704.44	13872.36
704.57	14040.87
704.70	13841.93
704.83	13958.96
704.96	13900.44
705.10	14087.68
705.23	13998.74
>>>>>End Processed Spectral Data<<<<<
