SpectraSuite Data File
++++++++++++++++++++++++++++++++++++
Date: Fri Oct 25 10:43:18 EDT 2013
User: price-jones
Dark Spectrum Present: No
Reference Spectrum Present: No
Number of Sampled Component Spectra: 1
Spectrometers: USB2+H05261
Integration Time (usec): 100000 (USB2+H05261)
Spectra Averaged: 1 (USB2+H05261)
Boxcar Smoothing: 0 (USB2+H05261)
Correct for Electrical Dark: No (USB2+H05261)
Strobe/Lamp Enabled: No (USB2+H05261)
Correct for Detector Non-linearity: No (USB2+H05261)
Correct for Stray Light: No (USB2+H05261)
Number of Pixels in Processed Spectrum: 2048
>>>>>Begin Processed Spectral Data<<<<<
365.73	156.82
365.92	156.82
366.12	156.82
366.32	18.72
366.52	18.72
366.72	30.43
366.91	16.38
367.11	49.15
367.31	72.56
367.51	0.00
367.70	58.51
367.90	16.38
368.10	77.24
368.30	44.47
368.49	86.60
368.69	9.36
368.89	102.98
369.09	46.81
369.28	79.58
369.48	60.85
369.68	95.96
369.87	184.90
370.07	168.52
370.27	131.07
370.47	166.18
370.66	425.98
370.86	334.70
371.06	362.78
371.25	440.02
371.45	409.59
371.65	463.43
371.84	341.72
372.04	484.49
372.24	507.90
372.44	468.11
372.63	500.87
372.83	524.28
373.03	484.49
373.22	533.64
373.42	554.71
373.62	545.34
373.81	470.45
374.01	596.84
374.21	585.13
374.40	531.30
374.60	540.66
374.79	575.77
374.99	557.05
375.19	592.16
375.38	594.50
375.58	545.34
375.78	624.92
375.97	505.56
376.17	582.79
376.37	596.84
376.56	613.22
376.76	557.05
376.95	601.52
377.15	608.54
377.35	636.63
377.54	648.33
377.74	730.25
377.93	641.31
378.13	638.97
378.33	629.60
378.52	641.31
378.72	716.20
378.91	678.76
379.11	676.41
379.31	650.67
379.50	692.80
379.70	723.23
379.89	636.63
380.09	603.86
380.28	669.39
380.48	763.01
380.68	620.24
380.87	683.44
381.07	720.88
381.26	723.23
381.46	695.14
381.65	671.73
381.85	617.90
382.04	732.59
382.24	678.76
382.43	690.46
382.63	636.63
382.83	702.16
383.02	727.91
383.22	744.29
383.41	737.27
383.61	770.04
383.80	828.55
384.00	704.50
384.19	819.19
384.39	713.86
384.58	816.85
384.78	734.93
384.97	774.72
385.17	699.82
385.36	748.97
385.56	856.64
385.75	833.23
385.95	774.72
386.14	919.83
386.34	786.42
386.53	828.55
386.72	894.08
386.92	819.19
387.11	854.30
387.31	903.45
387.50	901.11
387.70	858.98
387.89	828.55
388.09	915.15
388.28	851.96
388.48	844.93
388.67	858.98
388.86	1011.11
389.06	929.19
389.25	866.00
389.45	957.28
389.64	931.53
389.84	889.40
390.03	957.28
390.22	973.66
390.42	1006.43
390.61	1095.37
390.81	1015.79
391.00	1001.75
391.19	1118.78
391.39	994.73
391.58	1018.13
391.78	990.05
391.97	997.07
392.16	997.07
392.36	1039.20
392.55	922.17
392.75	1053.24
392.94	1013.45
393.13	1022.81
393.33	997.07
393.52	1076.65
393.71	983.02
393.91	1039.20
394.10	1062.60
394.29	1125.80
394.49	1186.65
394.68	1228.78
394.88	1240.48
395.07	1310.70
395.26	1170.27
395.46	1193.67
395.65	1191.33
395.84	1221.76
396.04	1261.55
396.23	1135.16
396.42	1111.75
396.62	1132.82
396.81	1221.76
397.00	1214.74
397.19	1231.12
397.39	1303.68
397.58	1296.66
397.77	1315.38
397.97	1397.30
398.16	1336.45
398.35	1413.68
398.55	1460.49
398.74	1380.92
398.93	1448.79
399.12	1394.96
399.32	1439.43
399.51	1481.56
399.70	1497.94
399.90	1528.37
400.09	1497.94
400.28	1544.75
400.47	1516.67
400.67	1621.99
400.86	1647.74
401.05	1739.02
401.24	1708.59
401.44	1685.19
401.63	1701.57
401.82	1757.74
402.01	1640.72
402.21	1631.35
402.40	1785.83
402.59	1720.29
402.78	1673.48
402.97	1750.72
403.17	1750.72
403.36	1881.79
403.55	1727.32
403.74	1797.53
403.93	1858.39
404.13	1853.70
404.32	1837.32
404.51	1851.36
404.70	1926.26
404.89	1893.49
405.09	2010.52
405.28	2010.52
405.47	1888.81
405.66	2062.01
405.85	1980.09
406.05	2017.54
406.24	2125.21
406.43	1949.67
406.62	2043.29
406.81	2080.74
407.00	2008.18
407.20	1935.62
407.39	1994.14
407.58	2181.38
407.77	2228.19
407.96	2195.42
408.15	2249.25
408.34	2211.81
408.54	2242.23
408.73	2242.23
408.92	2328.83
409.11	2317.13
409.30	2305.43
409.49	2146.27
409.68	2209.47
409.87	2270.32
410.07	2303.09
410.26	2326.49
410.45	2436.50
410.64	2345.22
410.83	2459.90
411.02	2544.16
411.21	2581.61
411.40	2593.31
411.59	2616.72
411.78	2635.44
411.98	2539.48
412.17	2595.65
412.36	2656.51
412.55	2689.28
412.74	2658.85
412.93	2696.30
413.12	2679.91
413.31	2829.71
413.50	2789.92
413.69	2616.72
413.88	2906.95
414.07	2867.16
414.26	2883.54
414.45	2946.73
414.64	2885.88
414.83	3038.02
415.02	2991.20
415.22	3103.55
415.41	3070.78
415.60	3038.02
415.79	3094.19
415.98	3145.68
416.17	3187.81
416.36	3070.78
416.55	3304.84
416.74	3229.94
416.93	3272.07
417.12	3201.85
417.31	3253.34
417.50	3353.99
417.69	3375.05
417.88	3449.95
418.07	3431.23
418.26	3386.76
418.45	3330.58
418.64	3616.13
418.83	3473.36
419.02	3606.77
419.21	3557.61
419.39	3566.98
419.58	3552.93
419.77	3396.12
419.96	3534.21
420.15	3588.04
420.34	3627.83
420.53	3522.51
420.72	3768.26
420.91	3669.96
421.10	3803.37
421.29	3861.88
421.48	3712.09
421.67	3840.82
421.86	3674.64
422.05	3791.67
422.24	3751.88
422.43	3772.94
422.61	3911.04
422.80	3857.20
422.99	3892.31
423.18	3871.25
423.37	3901.67
423.56	3751.88
423.75	3833.80
423.94	3826.78
424.13	3644.21
424.32	3662.94
424.50	3794.01
424.69	3918.06
424.88	4074.87
425.07	3775.28
425.26	3843.16
425.45	4002.32
425.64	3929.76
425.83	3997.64
426.01	3929.76
426.20	3990.61
426.39	3936.78
426.58	3836.14
426.77	3915.72
426.96	3873.59
427.15	4095.94
427.33	4053.81
427.52	3889.97
427.71	3985.93
427.90	4093.60
428.09	4177.86
428.28	4098.28
428.46	4292.54
428.65	4044.45
428.84	4238.71
429.03	4297.22
429.22	4133.39
429.40	4159.13
429.59	4208.28
429.78	3920.40
429.97	3953.16
430.16	3868.91
430.34	4107.64
430.53	4170.83
430.72	4285.52
430.91	4109.98
431.10	4266.80
431.28	4454.04
431.47	4552.34
431.66	4491.49
431.85	4498.51
432.03	4521.92
432.22	4601.49
432.41	4578.09
432.60	4685.75
432.79	4739.58
432.97	4641.28
433.16	4624.90
433.35	4517.23
433.54	4531.28
433.72	4812.14
433.91	4664.69
434.10	4788.74
434.28	4751.29
434.47	4826.18
434.66	4781.71
434.85	4727.88
435.03	4936.19
435.22	4856.61
435.41	4975.98
435.59	5109.39
435.78	4985.34
435.97	5095.35
436.16	5032.15
436.34	5179.61
436.53	5076.62
436.72	5280.25
436.90	4938.53
437.09	5093.01
437.28	4964.28
437.46	5093.01
437.65	5137.48
437.84	5184.29
438.02	5069.60
438.21	5135.14
438.40	5193.65
438.58	5329.40
438.77	5423.02
438.96	5305.99
439.14	5427.70
439.33	5448.77
439.52	5439.40
439.70	5486.22
439.89	5586.86
440.08	5675.80
440.26	5617.29
440.45	5537.71
440.63	5790.49
440.82	5832.62
441.01	5818.57
441.19	5912.19
441.38	6045.60
441.57	5987.09
441.75	6038.58
441.94	6066.67
442.12	6193.06
442.31	6258.59
442.50	6188.38
442.68	6073.69
442.87	6115.82
443.05	6263.27
443.24	6359.24
443.43	6251.57
443.61	6377.96
443.80	6710.32
443.98	6216.46
444.17	6176.67
444.35	6349.87
444.54	6586.27
444.73	6417.75
444.91	6342.85
445.10	6349.87
445.28	6392.00
445.47	6331.15
445.65	6253.91
445.84	6340.51
446.02	6324.13
446.21	6305.40
446.39	6504.35
446.58	6473.92
446.77	6525.41
446.95	6401.37
447.14	6494.99
447.32	6609.67
447.51	6509.03
447.69	6396.68
447.88	6560.52
448.06	6541.80
448.25	6530.09
448.43	6471.58
448.62	6656.48
448.80	6691.59
448.99	6778.19
449.17	6668.19
449.36	6796.92
449.54	6902.24
449.73	6991.18
449.91	7052.03
450.10	7028.63
450.28	7040.33
450.46	7021.61
450.65	7194.81
450.83	7162.04
451.02	7243.96
451.20	7124.59
451.39	7185.44
451.57	7206.51
451.76	7087.14
451.94	7115.23
452.13	7201.83
452.31	7185.44
452.49	7021.61
452.68	7037.99
452.86	7073.10
453.05	7187.79
453.23	7220.55
453.42	7274.38
453.60	7229.91
453.78	7419.50
453.97	7105.87
454.15	7250.98
454.34	7288.43
454.52	7489.71
454.70	7417.16
454.89	7492.05
455.07	7506.10
455.26	7672.28
455.44	7639.51
455.62	7524.82
455.81	7660.57
455.99	7723.77
456.17	7655.89
456.36	7712.07
456.54	7789.30
456.73	7892.29
456.91	7866.54
457.09	8011.65
457.28	8189.53
457.46	7782.28
457.64	8049.10
457.83	7920.37
458.01	7737.81
458.19	8145.06
458.38	7971.86
458.56	8290.18
458.74	8203.58
458.93	8107.62
459.11	8119.32
459.29	8086.55
459.48	8180.17
459.66	8219.96
459.84	8177.83
460.03	8475.08
460.21	8425.93
460.39	8400.18
460.57	8266.77
460.76	8259.75
460.94	8446.99
461.12	8519.55
461.31	8407.20
461.49	8603.81
461.67	8301.88
461.85	8755.94
462.04	8397.84
462.22	9125.75
462.40	8800.41
462.59	8659.98
462.77	8652.96
462.95	9018.08
463.13	8854.25
463.32	8720.84
463.50	8786.37
463.68	8709.13
463.86	8779.35
464.05	8706.79
464.23	8781.69
464.41	8964.25
464.59	8863.61
464.78	9062.55
464.96	8851.91
465.14	8697.43
465.32	9090.64
465.50	9102.34
465.69	9163.20
465.87	9170.22
466.05	8936.17
466.23	9153.84
466.41	9177.24
466.60	9455.76
466.78	8936.17
466.96	9179.58
467.14	9097.66
467.32	9359.80
467.51	9242.78
467.69	9109.36
467.87	9467.47
468.05	9448.74
468.23	9458.10
468.41	9153.84
468.60	9490.87
468.78	9472.15
468.96	9312.99
469.14	9701.52
469.32	9736.63
469.50	9261.50
469.69	9628.96
469.87	9659.39
470.05	9888.76
470.23	9645.35
470.41	9687.48
470.59	9638.33
470.77	9753.01
470.95	9944.94
471.14	9966.00
471.32	9963.66
471.50	10134.52
471.68	9987.07
471.86	10335.81
472.04	10176.65
472.22	10494.96
472.40	10019.83
472.58	10204.74
472.77	10256.23
472.95	10237.50
473.13	10764.12
473.31	10345.17
473.49	10349.85
473.67	10303.04
473.85	10403.68
474.03	10661.14
474.21	10654.12
474.39	10686.89
474.57	10920.94
474.75	11066.05
474.93	10925.62
475.12	10960.73
475.30	11204.14
475.48	11023.92
475.66	11152.65
475.84	11077.76
476.02	11300.11
476.20	11199.46
476.38	11541.18
476.56	11391.39
476.74	11520.12
476.92	11470.97
477.10	11735.45
477.28	12006.95
477.46	11646.51
477.64	11803.32
477.82	12095.89
478.00	12376.75
478.18	12156.74
478.36	12463.35
478.54	12493.78
478.72	12535.91
478.90	12524.21
479.08	12781.67
479.26	12938.48
479.44	12975.93
479.62	13027.42
479.80	13104.66
479.98	13266.16
480.16	13305.95
480.34	13329.35
480.52	13497.87
480.70	13738.94
480.88	13394.89
481.06	13727.24
481.24	13991.72
481.41	13926.19
481.59	14022.15
481.77	14073.64
481.95	14078.32
482.13	14073.64
482.31	14464.51
482.49	14792.19
482.67	14754.74
482.85	14679.84
483.03	14892.83
483.21	15066.03
483.39	15157.31
483.57	14869.42
483.74	14970.07
483.92	15487.32
484.10	15325.83
484.28	15660.52
484.46	15990.54
484.64	16203.53
484.82	15679.25
485.00	15716.70
485.18	16306.51
485.35	16187.14
485.53	15889.90
485.71	15639.46
485.89	16102.89
486.07	16187.14
486.25	16549.93
486.43	16659.93
486.61	16709.08
486.78	17095.27
486.96	17135.06
487.14	17212.30
487.32	17308.26
487.50	17722.54
487.68	17717.86
487.85	17961.27
488.03	18071.28
488.21	18464.49
488.39	18314.69
488.57	18525.34
488.75	18583.85
488.92	19005.15
489.10	19381.98
489.28	19206.44
489.46	19311.76
489.64	19784.55
489.81	19838.38
489.99	19915.62
490.17	19903.92
490.35	19878.17
490.53	19796.25
490.70	20002.22
490.88	20152.01
491.06	20692.68
491.24	20428.20
491.41	20580.33
491.59	20500.75
491.77	20418.83
491.95	20798.00
492.13	20945.45
492.30	21467.39
492.48	21530.59
492.66	21556.33
492.84	21621.87
493.01	21680.38
493.19	21921.46
493.37	22080.61
493.54	22113.38
493.72	21919.12
493.90	22558.08
494.08	22508.93
494.25	22616.60
494.43	23065.98
494.61	22993.42
494.79	23438.12
494.96	22860.01
495.14	23112.79
495.32	23225.14
495.49	23264.92
495.67	23468.55
495.85	23414.72
496.02	23747.08
496.20	24006.87
496.38	23861.76
496.55	24034.96
496.73	24725.42
496.91	24683.29
497.09	24594.35
497.26	25207.57
497.44	24542.86
497.62	24814.36
497.79	25235.66
497.97	24720.74
498.14	25008.62
498.32	25062.46
498.50	25158.42
498.67	25663.97
498.85	25591.42
499.03	25797.38
499.20	25668.66
499.38	25853.56
499.56	26057.18
499.73	26059.52
499.91	26331.03
500.08	26361.45
500.26	26054.84
500.44	26206.98
500.61	26492.52
500.79	26445.71
500.97	26476.14
501.14	26841.26
501.32	26602.53
501.49	26661.04
501.67	26862.33
501.84	26995.74
502.02	27335.12
502.20	27164.26
502.37	27541.08
502.55	27445.12
502.72	27733.01
502.90	27351.50
503.07	27520.02
503.25	27653.43
503.43	27791.52
503.60	27866.42
503.78	27765.78
503.95	27885.14
504.13	28074.73
504.30	28376.66
504.48	28137.92
504.65	28334.53
504.83	28589.64
505.01	28622.41
505.18	28467.94
505.36	29362.02
505.53	28919.66
505.71	29223.93
505.88	29443.94
506.06	28905.62
506.23	29151.37
506.41	29041.37
506.58	29235.63
506.76	29469.69
506.93	30043.12
507.11	29652.25
507.28	29542.24
507.46	29460.32
507.63	29493.09
507.81	29799.70
507.98	29968.22
508.16	30094.61
508.33	30260.79
508.50	30253.76
508.68	30141.42
508.85	30508.88
509.03	30230.36
509.20	30387.18
509.38	30979.33
509.55	31335.09
509.73	30799.11
509.90	31103.38
510.08	31063.59
510.25	31150.19
510.42	31365.52
510.60	31229.77
510.77	31477.86
510.95	31594.89
511.12	31505.95
511.30	31819.58
511.47	32123.85
511.64	31599.57
511.82	31861.71
511.99	31835.97
512.17	31711.92
512.34	31971.72
512.51	32290.03
512.69	32065.34
512.86	32079.38
513.04	32613.02
513.21	32746.44
513.38	32694.94
513.56	32512.38
513.73	32275.99
513.90	32790.91
514.08	32620.05
514.25	32755.80
514.43	32456.21
514.60	32594.30
514.77	32767.50
514.95	33104.54
515.12	33460.30
515.29	33092.83
515.47	33706.05
515.64	33558.60
515.81	33076.45
515.99	33479.02
516.16	33362.00
516.33	33268.37
516.51	33624.14
516.68	33050.70
516.85	33085.81
517.03	33034.32
517.20	33399.44
517.37	33853.51
517.54	34153.10
517.72	33771.59
517.89	33411.15
518.06	33432.21
518.24	33762.23
518.41	33888.62
518.58	34080.54
518.75	33998.62
518.93	34237.36
519.10	34061.82
519.27	34558.01
519.45	34628.23
519.62	34820.15
519.79	34712.49
519.96	34834.19
520.14	34923.13
520.31	34625.89
520.48	35098.67
520.65	34829.51
520.83	35140.80
521.00	35569.12
521.17	35725.94
521.34	35702.53
521.52	35510.61
521.69	35842.96
521.86	35810.20
522.03	35929.56
522.20	35803.17
522.38	36039.57
522.55	36023.19
522.72	36250.22
522.89	35608.91
523.07	36247.88
523.24	36236.17
523.41	36456.18
523.58	36070.00
523.75	36615.34
523.92	36769.82
524.10	36687.90
524.27	36751.09
524.44	36797.90
524.61	37249.63
524.78	36795.56
524.96	37177.07
525.13	36818.97
525.30	37031.96
525.47	37099.83
525.64	37158.34
525.81	37710.71
525.98	36968.76
526.16	37368.99
526.33	36793.22
526.50	37013.23
526.67	36481.93
526.84	36573.21
527.01	37099.83
527.18	37181.75
527.36	37855.82
527.53	37993.92
527.70	38534.58
527.87	38054.77
528.04	37736.46
528.21	38122.65
528.38	37865.19
528.55	38129.67
528.72	38429.26
528.89	38759.27
529.07	38106.26
529.24	37991.58
529.41	38548.62
529.58	38249.03
529.75	38419.89
529.92	38375.42
530.09	38548.62
530.26	38557.99
530.43	39007.37
530.60	38979.28
530.77	38593.09
530.94	39185.25
531.11	38581.39
531.28	38904.38
531.46	39016.73
531.63	39318.66
531.80	38808.42
531.97	39105.67
532.14	38955.88
532.31	38597.77
532.48	38873.96
532.65	39140.78
532.82	39119.71
532.99	38932.47
533.16	39150.14
533.33	39435.69
533.50	39688.46
533.67	39344.41
533.84	39395.90
534.01	39676.76
534.18	39428.66
534.35	39667.40
534.52	39122.05
534.69	39859.32
534.86	39817.19
535.03	39789.11
535.20	39908.47
535.37	40353.18
535.54	40692.55
535.71	40374.24
535.88	40105.08
536.05	40142.53
536.22	40229.13
536.38	40254.87
536.55	39966.99
536.72	39873.37
536.89	39878.05
537.06	40158.91
537.23	40900.86
537.40	40257.21
537.57	40278.28
537.74	40629.36
537.91	40832.99
538.08	40706.60
538.25	40849.37
538.42	40425.73
538.59	41064.70
538.75	40584.89
538.92	40774.47
539.09	40957.03
539.26	40935.97
539.43	40767.45
539.60	41010.87
539.77	40549.78
539.94	40514.67
540.11	40477.22
540.28	40896.18
540.44	40879.80
540.61	41237.90
540.78	40872.78
540.95	40982.78
541.12	40620.00
541.29	40790.86
541.46	41516.42
541.62	41544.51
541.79	41420.46
541.96	40964.06
542.13	41478.97
542.30	41525.78
542.47	41287.05
542.63	41181.73
542.80	41696.64
542.97	41963.46
543.14	42195.18
543.31	42377.74
543.48	41759.84
543.64	42433.91
543.81	42232.63
543.98	42094.53
544.15	42649.24
544.32	42150.71
544.48	42562.64
544.65	42705.41
544.82	42492.43
544.99	42260.71
545.16	42291.14
545.32	42501.79
545.49	42333.27
545.66	42710.10
545.83	42700.73
546.00	43269.48
546.16	42810.74
546.33	42555.62
546.50	42300.50
546.67	43145.44
546.83	42501.79
547.00	42810.74
547.17	42955.85
547.34	42876.27
547.50	42712.44
547.67	43077.56
547.84	42815.42
548.00	42761.59
548.17	42958.19
548.34	43189.91
548.51	43796.10
548.67	42880.95
548.84	43175.86
549.01	42822.44
549.18	43482.47
549.34	43854.62
549.51	43189.91
549.68	43445.02
549.84	43227.35
550.01	43576.09
550.18	43370.13
550.34	43461.41
550.51	43508.22
550.68	43147.78
550.84	43002.66
551.01	43456.73
551.18	43753.97
551.34	43449.70
551.51	43784.40
551.68	43508.22
551.84	43384.17
552.01	43531.62
552.18	43746.95
552.34	43901.43
552.51	43945.90
552.68	43868.66
552.84	43718.87
553.01	44053.56
553.18	43690.78
553.34	44020.80
553.51	43744.61
553.67	43892.07
553.84	44058.24
554.01	44306.34
554.17	43873.34
554.34	44491.24
554.51	44170.59
554.67	44402.30
554.84	44060.58
555.00	43971.64
555.17	44308.68
555.33	44289.96
555.50	44547.42
555.67	44292.30
555.83	44683.17
556.00	44622.31
556.16	44619.97
556.33	44575.50
556.50	44406.98
556.66	44034.84
556.83	44313.36
556.99	44683.17
557.16	44435.07
557.32	44624.65
557.49	44491.24
557.65	44535.71
557.82	44650.40
557.98	44315.70
558.15	44264.21
558.32	44385.92
558.48	44107.40
558.65	44655.08
558.81	44516.99
558.98	44425.71
559.14	44638.70
559.31	44652.74
559.47	44552.10
559.64	44643.38
559.80	45027.23
559.97	44879.77
560.13	44196.34
560.30	44889.13
560.46	44765.09
560.63	45123.19
560.79	44961.69
560.96	45132.55
561.12	44884.45
561.29	44428.05
561.45	44722.96
561.61	45179.36
561.78	44851.69
561.94	44715.93
562.11	44648.06
562.27	44474.86
562.44	45013.18
562.60	45287.03
562.77	45413.41
562.93	45017.86
563.10	45235.53
563.26	45074.04
563.42	45319.79
563.59	45188.72
563.75	44992.12
563.92	45223.83
564.08	44931.26
564.24	45158.30
564.41	45191.06
564.57	45165.32
564.74	44959.35
564.90	45125.53
565.07	45371.28
565.23	45434.48
565.39	45432.14
565.56	45139.57
565.72	44739.34
565.88	44999.14
566.05	44945.31
566.21	44729.98
566.38	44818.92
566.54	45368.94
566.70	45654.49
566.87	45385.33
567.03	45535.12
567.19	45785.56
567.36	45518.74
567.52	45226.17
567.68	45322.13
567.85	45289.37
568.01	45198.09
568.17	44765.09
568.34	45221.49
568.50	45399.37
568.66	45467.25
568.83	45319.79
568.99	45174.68
569.15	44975.73
569.32	45258.94
569.48	45354.90
569.64	45645.13
569.81	45626.40
569.97	45982.16
570.13	45251.92
570.30	45500.01
570.46	45137.23
570.62	44690.19
570.78	44505.29
570.95	45319.79
571.11	45387.67
571.27	45565.55
571.43	45565.55
571.60	45006.16
571.76	45647.47
571.92	45713.00
572.09	45296.39
572.25	45738.75
572.41	45312.77
572.57	45687.26
572.74	45720.02
572.90	45710.66
573.06	45762.15
573.22	45839.39
573.38	45729.39
573.55	45532.78
573.71	45832.37
573.87	45256.60
574.03	45605.34
574.20	45563.21
574.36	45404.05
574.52	45689.60
574.68	45593.64
574.84	45626.40
575.01	45352.56
575.17	45485.97
575.33	45357.24
575.49	45214.47
575.65	45815.99
575.82	45818.33
575.98	45588.95
576.14	45904.93
576.30	45841.73
576.46	45399.37
576.62	45298.73
576.79	45401.71
576.95	45305.75
577.11	45373.63
577.27	45855.78
577.43	45647.47
577.59	45251.92
577.75	45357.24
577.92	45151.27
578.08	45354.90
578.24	45535.12
578.40	45500.01
578.56	45748.11
578.72	45380.65
578.88	45989.19
579.04	45947.06
579.21	45415.76
579.37	45275.32
579.53	45521.08
579.69	45441.50
579.85	45631.08
580.01	45661.51
580.17	45408.73
580.33	45347.88
580.49	45666.19
580.65	45563.21
580.82	45572.57
580.98	45626.40
581.14	45186.38
581.30	46113.23
581.46	45804.28
581.62	46000.89
581.78	45251.92
581.94	45815.99
582.10	45504.70
582.26	46092.17
582.42	45385.33
582.58	45556.19
582.74	45446.18
582.90	45769.18
583.06	45811.31
583.22	46211.54
583.38	46057.06
583.54	45820.67
583.70	45518.74
583.86	45464.91
584.02	45745.77
584.18	45771.52
584.34	45708.32
584.50	45471.93
584.66	45790.24
584.82	45642.79
584.98	45776.20
585.14	45930.67
585.30	45818.33
585.46	45750.45
585.62	45858.12
585.78	45801.94
585.94	45497.67
586.10	45368.94
586.26	45436.82
586.42	45778.54
586.58	45823.01
586.74	45462.57
586.90	45717.68
587.06	45441.50
587.22	45991.53
587.38	45900.25
587.54	45776.20
587.70	45668.53
587.86	45944.72
588.02	45797.26
588.18	45687.26
588.34	45071.70
588.49	45184.04
588.65	45324.47
588.81	45614.70
588.97	44924.24
589.13	45034.25
589.29	45530.44
589.45	45375.97
589.61	45441.50
589.77	45881.52
589.93	45975.14
590.08	45769.18
590.24	45890.88
590.40	45834.71
590.56	45610.02
590.72	46122.60
590.88	45392.35
591.04	45844.07
591.20	45766.84
591.35	46178.77
591.51	46050.04
591.67	46047.70
591.83	45593.64
591.99	45530.44
592.15	45897.91
592.31	45848.75
592.46	45656.83
592.62	45446.18
592.78	46260.69
592.94	45755.13
593.10	46223.24
593.26	46239.62
593.41	45528.10
593.57	45736.41
593.73	45514.06
593.89	45794.92
594.05	46138.98
594.20	46047.70
594.36	46124.94
594.52	45918.97
594.68	45862.80
594.84	45453.20
594.99	45958.76
595.15	45394.69
595.31	46129.62
595.47	46012.59
595.62	45940.04
595.78	46040.68
595.94	46050.04
596.10	45858.12
596.25	46164.73
596.41	45991.53
596.57	46064.08
596.73	45771.52
596.88	45874.50
597.04	45638.11
597.20	45698.96
597.36	45993.87
597.51	46071.10
597.67	45925.99
597.83	45401.71
597.99	45886.20
598.14	45642.79
598.30	45584.27
598.46	45827.69
598.61	45785.56
598.77	45621.72
598.93	45942.38
599.09	46295.80
599.24	46164.73
599.40	46131.96
599.56	46115.58
599.71	46337.93
599.87	45914.29
600.03	45586.61
600.18	45607.68
600.34	45544.48
600.50	46155.36
600.65	45984.51
600.81	45659.17
600.97	46185.79
601.12	45989.19
601.28	45949.40
601.44	45195.74
601.59	45909.61
601.75	45598.32
601.91	45982.16
602.06	45961.10
602.22	46131.96
602.37	46099.19
602.53	45799.60
602.69	45815.99
602.84	45542.14
603.00	46087.49
603.16	45792.58
603.31	45462.57
603.47	45869.82
603.62	45495.33
603.78	45617.04
603.94	45876.84
604.09	45881.52
604.25	46031.32
604.40	46096.85
604.56	45986.85
604.71	46143.66
604.87	45649.81
605.03	45228.51
605.18	45734.07
605.34	45748.11
605.49	45385.33
605.65	45928.33
605.80	45563.21
605.96	46096.85
606.12	45521.08
606.27	46043.02
606.43	45528.10
606.58	45591.30
606.74	45457.88
606.89	45277.66
607.05	45202.77
607.20	45567.89
607.36	45851.09
607.51	45713.00
607.67	46101.53
607.82	45523.42
607.98	45815.99
608.13	45289.37
608.29	45261.28
608.44	45315.11
608.60	45310.43
608.75	45120.85
608.91	45668.53
609.06	45212.13
609.22	45324.47
609.37	45184.04
609.53	45338.52
609.68	45488.31
609.84	45301.07
609.99	45029.57
610.15	45029.57
610.30	45317.45
610.46	45450.86
610.61	45460.23
610.76	45280.00
610.92	45368.94
611.07	45352.56
611.23	45455.54
611.38	45612.36
611.54	45022.54
611.69	45144.25
611.84	45062.33
612.00	45144.25
612.15	44737.00
612.31	45366.60
612.46	45113.83
612.62	45223.83
612.77	45050.63
612.92	45036.59
613.08	44917.22
613.23	44865.73
613.39	44360.17
613.54	44631.68
613.69	44622.31
613.85	44493.58
614.00	44671.46
614.15	44898.50
614.31	44729.98
614.46	44783.81
614.62	44746.36
614.77	44470.18
614.92	44886.79
615.08	44608.27
615.23	44432.73
615.38	44343.79
615.54	44362.51
615.69	44683.17
615.84	44371.88
616.00	44615.29
616.15	44467.84
616.30	44594.23
616.46	44435.07
616.61	43931.86
616.76	43676.74
616.92	43833.55
617.07	44156.55
617.22	44037.18
617.37	44186.97
617.53	44449.11
617.68	44676.15
617.83	44231.44
617.99	44009.09
618.14	44397.62
618.29	44128.46
618.45	43723.55
618.60	43927.17
618.75	43845.26
618.90	43995.05
619.06	43952.92
619.21	43882.70
619.36	43983.35
619.51	43856.96
619.67	43615.88
619.82	43835.89
619.97	43805.47
620.12	43220.33
620.28	43423.96
620.43	44011.43
620.58	43423.96
620.73	43515.24
620.89	43686.10
621.04	43866.32
621.19	43999.73
621.34	43959.94
621.49	43131.39
621.65	43585.46
621.80	44147.18
621.95	43669.72
622.10	43557.37
622.25	43161.82
622.41	43529.28
622.56	43662.69
622.71	43833.55
622.86	43217.99
623.01	43349.06
623.16	43187.56
623.32	43005.00
623.47	43262.46
623.62	43278.85
623.77	43049.47
623.92	43100.97
624.07	42525.19
624.23	43002.66
624.38	42806.06
624.53	43159.48
624.68	43030.75
624.83	43405.23
624.98	42955.85
625.13	42969.90
625.29	42691.37
625.44	42838.83
625.59	42525.19
625.74	42667.97
625.89	42904.36
626.04	42412.85
626.19	42300.50
626.34	43030.75
626.49	42742.86
626.65	43168.84
626.80	42684.35
626.95	42749.88
627.10	42635.20
627.25	42045.38
627.40	42239.65
627.55	42504.13
627.70	41949.42
627.85	42354.33
628.00	42443.27
628.15	42511.15
628.30	42249.01
628.45	42902.02
628.60	42483.06
628.76	41865.16
628.91	42454.98
629.06	42026.66
629.21	42199.86
629.36	41923.68
629.51	41916.65
629.66	42139.00
629.81	41879.21
629.96	41736.43
630.11	42033.68
630.26	41893.25
630.41	41986.87
630.56	41965.81
630.71	41865.16
630.86	41663.88
631.01	41909.63
631.16	41598.34
631.31	41357.27
631.46	41373.65
631.61	42024.32
631.76	41476.63
631.91	42061.77
632.06	41780.90
632.21	41532.81
632.36	41621.75
632.51	41296.41
632.66	41504.72
632.81	41043.63
632.96	41345.56
633.10	41188.75
633.25	41120.87
633.40	40837.67
633.55	41502.38
633.70	41455.57
633.85	41418.12
634.00	41567.91
634.15	41273.01
634.30	40992.14
634.45	40872.78
634.60	40917.25
634.75	41045.97
634.90	40634.04
635.05	41516.42
635.19	41029.59
635.34	41160.66
635.49	41022.57
635.64	40903.20
635.79	40907.88
635.94	41289.39
636.09	40748.73
636.24	40582.55
636.39	40554.46
636.53	40753.41
636.68	40727.66
636.83	40526.38
636.98	40624.68
637.13	41109.17
637.28	40645.74
637.43	40978.10
637.57	41462.59
637.72	40832.99
637.87	40407.01
638.02	40905.54
638.17	40699.58
638.32	40353.18
638.46	40252.53
638.61	40423.39
638.76	40512.33
638.91	40341.47
639.06	40381.26
639.20	40453.82
639.35	40144.87
639.50	40165.93
639.65	40172.96
639.80	40215.08
639.94	40081.67
640.09	40009.12
640.24	40318.07
640.39	39171.21
640.54	40046.57
640.68	40282.96
640.83	40006.78
640.98	39976.35
641.13	39913.16
641.27	39838.26
641.42	40102.74
641.57	40062.95
641.72	39985.71
641.86	39854.64
642.01	39737.62
642.16	39768.04
642.31	39648.68
642.45	39707.19
642.60	39416.96
642.75	39658.04
642.90	39393.56
643.04	39718.89
643.19	39945.92
643.34	39522.29
643.48	39819.53
643.63	39140.78
643.78	39859.32
643.93	39758.68
644.07	39318.66
644.22	39047.16
644.37	38990.98
644.51	39047.16
644.66	39096.31
644.81	39386.54
644.95	39810.17
645.10	39419.30
645.25	39150.14
645.39	39236.74
645.54	39309.30
645.69	39208.65
645.83	38937.15
645.98	38859.91
646.13	38831.83
646.27	39192.27
646.42	39175.89
646.57	39192.27
646.71	39232.06
646.86	39379.51
647.00	38838.85
647.15	39037.80
647.30	39070.56
647.44	39079.92
647.59	38883.32
647.74	38319.25
647.88	38394.15
648.03	38600.12
648.17	38787.36
648.32	38646.93
648.47	38646.93
648.61	38555.64
648.76	38913.75
648.90	38234.99
649.05	38490.11
649.20	39147.80
649.34	38836.51
649.49	37909.66
649.63	38623.52
649.78	38293.50
649.92	38359.04
650.07	38719.48
650.21	38581.39
650.36	38586.07
650.51	38354.36
650.65	38972.26
650.80	38696.08
650.94	38415.21
651.09	38291.16
651.23	37640.50
651.38	37755.18
651.52	37834.76
651.67	37532.83
651.81	38171.80
651.96	37645.18
652.10	38115.62
652.25	38492.45
652.39	37696.67
652.54	38349.68
652.68	37890.93
652.83	38415.21
652.97	38178.82
653.12	37790.29
653.26	37701.35
653.41	37874.55
653.55	38117.96
653.70	38281.80
653.84	38014.98
653.99	37411.12
654.13	37783.27
654.27	37928.38
654.42	37947.11
654.56	37699.01
654.71	37581.98
654.85	37670.92
655.00	37743.48
655.14	37357.29
655.29	37251.97
655.43	37216.86
655.57	36769.82
655.72	36739.39
655.86	37104.51
656.01	36793.22
656.15	36713.64
656.30	36613.00
656.44	36945.36
656.58	36952.38
656.73	37069.40
656.87	36896.20
657.01	36641.09
657.16	36655.13
657.30	36844.71
657.45	36622.36
657.59	36727.69
657.73	36629.38
657.88	37015.57
658.02	36648.11
658.16	37062.38
658.31	36786.20
658.45	36645.77
658.60	36795.56
658.74	37097.49
658.88	36645.77
659.03	36662.15
659.17	36322.77
659.31	36177.66
659.46	36306.39
659.60	36517.04
659.74	36147.23
659.89	36357.88
660.03	36184.68
660.17	36575.55
660.32	36287.67
660.46	36280.64
660.60	35924.88
660.74	36364.90
660.89	36233.83
661.03	35789.13
661.17	36177.66
661.32	35482.52
661.46	35772.75
661.60	35594.87
661.74	35548.06
661.89	35665.08
662.03	35943.61
662.17	35615.93
662.31	36240.86
662.46	35969.35
662.60	35644.02
662.74	35419.33
662.88	35744.66
663.03	35248.47
663.17	35227.40
663.31	35365.49
663.45	35117.40
663.60	35393.58
663.74	34731.21
663.88	35351.45
664.02	34981.65
664.17	34925.47
664.31	34738.23
664.45	35096.33
664.59	35482.52
664.73	34850.58
664.88	34448.00
665.02	33961.17
665.16	34197.57
665.30	34284.17
665.44	34438.64
665.59	34246.72
665.73	34471.41
665.87	34220.97
666.01	34249.06
666.15	34588.44
666.29	34146.08
666.44	34300.55
666.58	34075.86
666.72	34110.97
666.86	34141.39
667.00	34080.54
667.14	33802.02
667.28	33926.07
667.43	33780.95
667.57	34253.74
667.71	33607.75
667.85	33883.94
667.99	33621.80
668.13	33752.87
668.27	33443.91
668.41	33720.10
668.56	33127.94
668.70	33455.62
668.84	32985.17
668.98	33261.35
669.12	33408.81
669.26	33092.83
669.40	33027.30
669.54	33163.05
669.68	32875.16
669.82	32559.19
669.96	32629.41
670.10	33144.33
670.25	32830.69
670.39	32769.84
670.53	32924.32
670.67	32222.16
670.81	32187.05
670.95	32362.59
671.09	32446.85
671.23	32329.82
671.37	32140.24
671.51	32343.86
671.65	32144.92
671.79	31714.26
671.93	32343.86
672.07	31695.53
672.21	31866.39
672.35	31545.74
672.49	31683.83
672.63	31744.69
672.77	31353.82
672.91	31810.22
673.05	31789.16
673.19	31119.76
673.33	31515.31
673.47	31180.62
673.61	31173.60
673.75	30827.20
673.89	30967.63
674.03	31208.70
674.17	30738.26
674.31	30476.12
674.45	30911.46
674.59	31229.77
674.73	30958.27
674.87	30892.73
675.01	30375.47
675.15	30405.90
675.29	30735.92
675.43	30546.33
675.56	30419.94
675.70	30576.76
675.84	30426.96
675.98	29418.19
676.12	30333.34
676.26	30429.30
676.40	29429.90
676.54	29883.96
676.68	30129.72
676.82	29118.60
676.96	29776.30
677.10	29638.20
677.23	29584.37
677.37	29432.24
677.51	29589.05
677.65	28926.68
677.79	28769.86
677.93	29008.60
678.07	28917.32
678.21	28259.63
678.34	28631.77
678.48	28287.71
678.62	28334.53
678.76	28119.20
678.90	28144.94
679.04	28290.06
679.18	28196.43
679.31	27859.40
679.45	27814.93
679.59	27580.87
679.73	27990.47
679.87	27782.16
680.00	27569.17
680.14	27517.68
680.28	27267.24
680.42	27517.68
680.56	27683.86
680.70	26993.40
680.83	27344.48
680.97	27161.92
681.11	27075.32
681.25	26941.91
681.39	26939.57
681.52	26925.52
681.66	26389.54
681.80	26211.66
681.94	26497.20
682.07	26345.07
682.21	25935.48
682.35	26260.81
682.49	26094.63
682.62	25991.65
682.76	25607.80
682.90	25996.33
683.04	25610.14
683.17	25837.17
683.31	25591.42
683.45	25282.47
683.59	25563.33
683.72	25460.35
683.86	25404.17
684.00	25245.02
684.13	24786.27
684.27	24943.09
684.41	24552.22
684.55	24767.55
684.68	24713.72
684.82	24732.44
684.96	24884.58
685.09	24582.65
685.23	24336.89
685.37	24666.91
685.50	24458.60
685.64	24372.00
685.78	24126.24
685.91	23992.83
686.05	23763.46
686.19	23931.98
686.32	23386.63
686.46	23428.76
686.60	22925.55
686.73	23157.26
686.87	22948.95
687.01	22782.77
687.14	22834.27
687.28	22789.80
687.42	23033.21
687.55	22637.66
687.69	22775.75
687.82	22831.93
687.96	22401.27
688.10	22553.40
688.23	22553.40
688.37	22469.14
688.50	22693.83
688.64	22129.77
688.78	21947.20
688.91	22075.93
689.05	21813.79
689.18	21888.69
689.32	21757.62
689.46	21940.18
689.59	21792.73
689.73	22012.74
689.86	21422.92
690.00	21539.95
690.13	21336.32
690.27	21561.02
690.41	21032.05
690.54	21205.25
690.68	21294.19
690.81	21027.37
690.95	21326.96
691.08	20964.18
691.22	21043.76
691.35	20493.73
691.49	20725.44
691.62	20439.90
691.76	20484.37
691.89	20496.07
692.03	20573.31
692.16	20594.37
692.30	20114.56
692.43	20027.96
692.57	19618.37
692.70	19747.10
692.84	19583.26
692.97	19400.70
693.11	19241.54
693.24	19325.80
693.38	19690.93
693.51	19646.46
693.65	19295.38
693.78	19330.48
693.92	19271.97
694.05	19033.24
694.19	19374.95
694.32	19112.81
694.45	19115.16
694.59	18707.90
694.72	18883.44
694.86	18789.82
694.99	18803.86
695.13	18317.03
695.26	18394.27
695.39	18497.25
695.53	18504.28
695.66	18457.46
695.80	18417.68
695.93	17926.16
696.07	17961.27
696.20	18291.29
696.33	18181.28
696.47	17912.12
696.60	17937.87
696.73	17947.23
696.87	17577.42
697.00	17685.09
697.14	17462.74
697.27	17451.03
697.40	16999.31
697.54	17331.67
697.67	17076.55
697.80	17301.24
697.94	16898.67
698.07	16978.25
698.21	16952.50
698.34	17158.47
698.47	17055.48
698.61	16575.67
698.74	16662.27
698.87	16404.81
699.01	16198.85
699.14	16346.30
699.27	16453.97
699.40	16168.42
699.54	16063.10
699.67	16084.16
699.80	15861.81
699.94	15852.45
700.07	16152.04
700.20	16287.79
700.34	15934.37
700.47	15597.33
700.60	15674.57
700.73	15927.35
700.87	15620.74
701.00	15384.34
701.13	15208.80
701.26	15276.68
701.40	15119.86
701.53	15199.44
701.66	15126.88
701.79	14995.81
701.93	15122.20
702.06	14607.28
702.19	14843.68
702.32	14569.83
702.46	14523.02
702.59	14640.05
702.72	14626.01
702.85	14888.15
702.99	14630.69
703.12	14406.00
703.25	14394.29
703.38	14305.35
703.51	14286.63
703.65	13984.70
703.78	13949.59
703.91	14141.52
704.04	13942.57
704.17	13743.63
704.31	13734.26
704.44	13715.54
704.57	13633.62
704.70	13472.12
704.83	13626.60
704.96	13741.29
705.10	13591.49
705.23	13511.91
>>>>>End Processed Spectral Data<<<<<
