SpectraSuite Data File
++++++++++++++++++++++++++++++++++++
Date: Fri Oct 25 11:33:38 EDT 2013
User: price-jones
Dark Spectrum Present: No
Reference Spectrum Present: No
Number of Sampled Component Spectra: 1
Spectrometers: USB2+H05261
Integration Time (usec): 100000 (USB2+H05261)
Spectra Averaged: 1 (USB2+H05261)
Boxcar Smoothing: 0 (USB2+H05261)
Correct for Electrical Dark: No (USB2+H05261)
Strobe/Lamp Enabled: No (USB2+H05261)
Correct for Detector Non-linearity: No (USB2+H05261)
Correct for Stray Light: No (USB2+H05261)
Number of Pixels in Processed Spectrum: 2048
>>>>>Begin Processed Spectral Data<<<<<
365.73	297.25
365.92	297.25
366.12	297.25
366.32	203.63
366.52	189.58
366.72	194.26
366.91	166.18
367.11	175.54
367.31	166.18
367.51	135.75
367.70	175.54
367.90	234.05
368.10	250.44
368.30	187.24
368.49	149.79
368.69	159.16
368.89	182.56
369.09	191.92
369.28	175.54
369.48	224.69
369.68	224.69
369.87	264.48
370.07	276.18
370.27	227.03
370.47	322.99
370.66	477.47
370.86	531.30
371.06	571.09
371.25	575.77
371.45	547.69
371.65	507.90
371.84	573.43
372.04	557.05
372.24	615.56
372.44	512.58
372.63	566.41
372.83	566.41
373.03	578.11
373.22	589.82
373.42	601.52
373.62	587.47
373.81	662.37
374.01	617.90
374.21	674.07
374.40	638.97
374.60	676.41
374.79	561.73
374.99	634.29
375.19	662.37
375.38	667.05
375.58	702.16
375.78	629.60
375.97	681.10
376.17	608.54
376.37	613.22
376.56	596.84
376.76	627.26
376.95	695.14
377.15	697.48
377.35	713.86
377.54	636.63
377.74	713.86
377.93	629.60
378.13	751.31
378.33	683.44
378.52	720.88
378.72	678.76
378.91	746.63
379.11	730.25
379.31	664.71
379.50	718.54
379.70	746.63
379.89	688.12
380.09	697.48
380.28	716.20
380.48	748.97
380.68	692.80
380.87	795.78
381.07	760.67
381.26	770.04
381.46	777.06
381.65	730.25
381.85	737.27
382.04	748.97
382.24	777.06
382.43	751.31
382.63	772.38
382.83	802.80
383.02	809.83
383.22	861.32
383.41	779.40
383.61	779.40
383.80	844.93
384.00	760.67
384.19	779.40
384.39	837.91
384.58	755.99
384.78	826.21
384.97	835.57
385.17	791.10
385.36	837.91
385.56	793.44
385.75	800.46
385.95	861.32
386.14	800.46
386.34	903.45
386.53	795.78
386.72	917.49
386.92	791.10
387.11	844.93
387.31	894.08
387.50	891.74
387.70	875.36
387.89	793.44
388.09	905.79
388.28	873.02
388.48	828.55
388.67	950.26
388.86	917.49
389.06	966.64
389.25	924.51
389.45	936.21
389.64	1041.54
389.84	1008.77
390.03	976.00
390.22	894.08
390.42	936.21
390.61	917.49
390.81	983.02
391.00	947.92
391.19	957.28
391.39	1008.77
391.58	1025.15
391.78	1001.75
391.97	1053.24
392.16	1032.18
392.36	1074.31
392.55	968.98
392.75	1069.62
392.94	1029.84
393.13	1034.52
393.33	1013.45
393.52	1055.58
393.71	1135.16
393.91	1118.78
394.10	1048.56
394.29	1060.26
394.49	1018.13
394.68	1086.01
394.88	1114.10
395.07	1158.57
395.26	1135.16
395.46	1188.99
395.65	1114.10
395.84	1203.04
396.04	1240.48
396.23	1280.27
396.42	1177.29
396.62	1282.61
396.81	1200.69
397.00	1235.80
397.19	1205.38
397.39	1228.78
397.58	1329.42
397.77	1203.04
397.97	1226.44
398.16	1207.72
398.35	1350.49
398.55	1224.10
398.74	1369.21
398.93	1301.34
399.12	1270.91
399.32	1252.19
399.51	1277.93
399.70	1352.83
399.90	1441.77
400.09	1380.92
400.28	1385.60
400.47	1390.28
400.67	1451.13
400.86	1390.28
401.05	1416.02
401.24	1385.60
401.44	1399.64
401.63	1511.99
401.82	1341.13
402.01	1425.39
402.21	1582.20
402.40	1441.77
402.59	1563.48
402.78	1521.35
402.97	1474.54
403.17	1544.75
403.36	1558.80
403.55	1535.39
403.74	1596.25
403.93	1668.80
404.13	1591.56
404.32	1605.61
404.51	1577.52
404.70	1596.25
404.89	1659.44
405.09	1727.32
405.28	1664.12
405.47	1650.08
405.66	1624.33
405.85	1769.44
406.05	1650.08
406.24	1696.89
406.43	1788.17
406.62	1771.79
406.81	1827.96
407.00	1774.13
407.20	1790.51
407.39	1757.74
407.58	1858.39
407.77	1956.69
407.96	1879.45
408.15	1987.11
408.34	1935.62
408.54	1921.58
408.73	1832.64
408.92	1907.54
409.11	1991.80
409.30	1996.48
409.49	2043.29
409.68	1994.14
409.87	2019.88
410.07	2146.27
410.26	2092.44
410.45	2010.52
410.64	2139.25
410.83	2146.27
411.02	2113.50
411.21	2338.20
411.40	2260.96
411.59	2253.94
411.78	2244.57
411.98	2235.21
412.17	2249.25
412.36	2286.70
412.55	2363.94
412.74	2399.05
412.93	2307.77
413.12	2410.75
413.31	2417.77
413.50	2431.82
413.69	2300.75
413.88	2490.33
414.07	2492.67
414.26	2497.35
414.45	2443.52
414.64	2513.74
414.83	2492.67
415.02	2607.36
415.22	2644.81
415.41	2672.89
415.60	2576.93
415.79	2745.45
415.98	2745.45
416.17	2794.60
416.36	2736.09
416.55	2803.96
416.74	2780.56
416.93	2862.48
417.12	2757.15
417.31	2885.88
417.50	2876.52
417.69	2986.52
417.88	3000.57
418.07	2888.22
418.26	3019.29
418.45	3005.25
418.64	3103.55
418.83	3110.57
419.02	2993.55
419.21	3026.31
419.39	3171.43
419.58	3162.06
419.77	3054.40
419.96	3180.79
420.15	3112.91
420.34	3211.22
420.53	3176.11
420.72	3211.22
420.91	3197.17
421.10	3087.17
421.29	3335.26
421.48	3283.77
421.67	3225.26
421.86	3379.73
422.05	3269.73
422.24	3281.43
422.43	3517.83
422.61	3363.35
422.80	3314.20
422.99	3421.86
423.18	3314.20
423.37	3578.68
423.56	3389.10
423.75	3492.08
423.94	3398.46
424.13	3201.85
424.32	3269.73
424.50	3445.27
424.69	3492.08
424.88	3517.83
425.07	3471.01
425.26	3520.17
425.45	3377.39
425.64	3351.65
425.83	3461.65
426.01	3618.47
426.20	3524.85
426.39	3482.72
426.58	3403.14
426.77	3489.74
426.96	3634.85
427.15	3454.63
427.33	3590.38
427.52	3501.44
427.71	3667.62
427.90	3754.22
428.09	3691.02
428.28	3824.44
428.46	3669.96
428.65	3768.26
428.84	3847.84
429.03	3908.69
429.22	3698.05
429.40	3817.41
429.59	3698.05
429.78	3761.24
429.97	3538.89
430.16	3829.12
430.34	3854.86
430.53	4004.66
430.72	3950.82
430.91	3868.91
431.10	3859.54
431.28	3838.48
431.47	3981.25
431.66	4053.81
431.85	3950.82
432.03	3997.64
432.22	4126.36
432.41	4147.43
432.60	4084.23
432.79	3992.95
432.97	4142.75
433.16	4124.02
433.35	4098.28
433.54	4163.81
433.72	4196.58
433.91	4077.21
434.10	4322.97
434.28	4098.28
434.47	4243.39
434.66	4241.05
434.85	4292.54
435.03	4489.15
435.22	4512.55
435.41	4388.50
435.59	4381.48
435.78	4409.57
435.97	4442.34
436.16	4262.12
436.34	4477.44
436.53	4404.89
436.72	4486.81
436.90	4437.66
437.09	4535.96
437.28	4554.68
437.46	4540.64
437.65	4596.81
437.84	4704.48
438.02	4709.16
438.21	4692.77
438.40	4681.07
438.58	4688.09
438.77	4833.21
438.96	4828.53
439.14	4865.97
439.33	4983.00
439.52	4807.46
439.70	5029.81
439.89	5170.24
440.08	5032.15
440.26	5228.76
440.45	4997.04
440.63	5018.11
440.82	5100.03
441.01	5217.05
441.19	5188.97
441.38	5345.78
441.57	5191.31
441.75	5301.31
441.94	5322.38
442.12	5416.00
442.31	5437.06
442.50	5380.89
442.68	5500.26
442.87	5462.81
443.05	5533.03
443.24	5605.58
443.43	5432.38
443.61	5458.13
443.80	5743.67
443.98	5408.98
444.17	5195.99
444.35	5666.44
444.54	5523.66
444.73	5696.86
444.91	5640.69
445.10	5729.63
445.28	5778.78
445.47	5724.95
445.65	5657.07
445.84	5600.90
446.02	5783.46
446.21	5687.50
446.39	5731.97
446.58	5757.72
446.77	5729.63
446.95	5610.26
447.14	5774.10
447.32	5713.25
447.51	5795.17
447.69	5680.48
447.88	5844.32
448.06	5874.74
448.25	5818.57
448.43	5881.77
448.62	5872.40
448.80	5647.71
448.99	5898.15
449.17	5987.09
449.36	5893.47
449.54	5902.83
449.73	6050.28
449.91	6246.89
450.10	6047.94
450.28	6129.86
450.46	6153.27
450.65	6204.76
450.83	6073.69
451.02	6237.53
451.20	6125.18
451.39	6024.54
451.57	6174.33
451.76	6195.40
451.94	6282.00
452.13	6396.68
452.31	6232.85
452.49	6200.08
452.68	6291.36
452.86	6354.55
453.05	6335.83
453.23	6553.50
453.42	6480.94
453.60	6466.90
453.78	6527.75
453.97	6382.64
454.15	6487.96
454.34	6403.71
454.52	6480.94
454.70	6504.35
454.89	6614.35
455.07	6644.78
455.26	6677.55
455.44	6909.26
455.62	6684.57
455.81	6813.30
455.99	6654.14
456.17	6956.07
456.36	6736.06
456.54	6913.94
456.73	6834.36
456.91	7136.29
457.09	7075.44
457.28	7126.93
457.46	6843.73
457.64	7098.84
457.83	7129.27
458.01	6853.09
458.19	7421.84
458.38	7021.61
458.56	7356.30
458.74	7157.36
458.93	7290.77
459.11	7260.34
459.29	7246.30
459.48	7468.65
459.66	7309.49
459.84	7407.80
460.03	7604.40
460.21	7396.09
460.39	7358.64
460.57	7368.01
460.76	7536.52
460.94	7630.15
461.12	7515.46
461.31	7515.46
461.49	7604.40
461.67	7576.31
461.85	7613.76
462.04	7421.84
462.22	8116.98
462.40	7819.73
462.59	7658.23
462.77	7840.79
462.95	7801.01
463.13	7707.38
463.32	7726.11
463.50	7815.05
463.68	8063.15
463.86	7754.19
464.05	8177.83
464.23	7896.97
464.41	8025.70
464.59	7737.81
464.78	8299.54
464.96	7967.18
465.14	7983.57
465.32	8042.08
465.50	8259.75
465.69	8248.05
465.87	7995.27
466.05	8257.41
466.23	8161.45
466.41	8086.55
466.60	8346.35
466.78	8121.66
466.96	8128.68
467.14	8243.37
467.32	8201.24
467.51	8416.57
467.69	8219.96
467.87	8301.88
468.05	8465.72
468.23	8325.29
468.41	8374.44
468.60	8456.36
468.78	8463.38
468.96	8456.36
469.14	8599.13
469.32	8711.47
469.50	8395.50
469.69	8648.28
469.87	8865.95
470.05	8709.13
470.23	8837.86
470.41	8589.77
470.59	8954.89
470.77	8823.82
470.95	9006.38
471.14	9135.11
471.32	8891.70
471.50	9301.29
471.68	9100.00
471.86	9081.28
472.04	9298.95
472.22	9432.36
472.40	9085.96
472.58	9240.44
472.77	9310.65
472.95	9753.01
473.13	9715.56
473.31	9474.49
473.49	9362.14
473.67	9523.64
473.85	9364.48
474.03	9619.60
474.21	9832.59
474.39	9818.55
474.57	9874.72
474.75	10181.33
474.93	9982.38
475.12	9975.36
475.30	9961.32
475.48	9966.00
475.66	10085.37
475.84	9923.87
476.02	10300.70
476.20	10382.62
476.38	10548.79
476.56	10808.59
476.74	10581.56
476.92	10527.73
477.10	10501.98
477.28	10501.98
477.46	10590.92
477.64	10965.41
477.82	11101.16
478.00	11236.91
478.18	11173.72
478.36	11573.95
478.54	11545.86
478.72	11452.24
478.90	11470.97
479.08	11772.89
479.26	11850.13
479.44	11648.85
479.62	11683.95
479.80	12039.72
479.98	11882.90
480.16	12189.51
480.34	12060.78
480.52	12430.59
480.70	12259.73
480.88	12098.23
481.06	12287.81
481.24	12498.46
481.41	12674.00
481.59	12634.21
481.77	12821.45
481.95	12931.46
482.13	13191.26
482.31	12987.63
482.49	13500.21
482.67	13317.65
482.85	13437.02
483.03	13760.01
483.21	13448.72
483.39	14050.24
483.57	13855.97
483.74	13902.78
483.92	14106.41
484.10	13776.39
484.28	14342.80
484.46	14579.20
484.64	14897.51
484.82	14534.73
485.00	14726.65
485.18	14808.57
485.35	15059.01
485.53	15049.64
485.71	14979.43
485.89	15318.81
486.07	15676.91
486.25	15637.12
486.43	15513.07
486.61	15786.91
486.78	15763.51
486.96	16086.50
487.14	16280.77
487.32	16353.32
487.50	16542.91
487.68	16496.10
487.85	16734.83
488.03	16891.65
488.21	17081.23
488.39	17252.09
488.57	17352.73
488.75	17240.39
488.92	17455.72
489.10	17631.26
489.28	17502.53
489.46	17823.18
489.64	17923.82
489.81	18352.14
489.99	18022.12
490.17	18441.08
490.35	18607.26
490.53	18714.92
490.70	18857.70
490.88	18661.09
491.06	18808.54
491.24	19360.91
491.41	19276.65
491.59	19293.04
491.77	19552.84
491.95	19241.54
492.13	19407.72
492.30	19424.11
492.48	19836.04
492.66	20023.28
492.84	19943.70
493.01	20297.13
493.19	19967.11
493.37	20425.86
493.54	20421.17
493.72	20875.24
493.90	20559.27
494.08	21085.89
494.25	20821.41
494.43	21022.69
494.61	21111.63
494.79	21280.15
494.96	21233.34
495.14	21715.49
495.32	21553.99
495.49	21902.73
495.67	21802.09
495.85	22218.71
496.02	21958.91
496.20	22394.25
496.38	22429.35
496.55	22574.47
496.73	23009.81
496.91	22717.24
497.09	22852.99
497.26	22850.65
497.44	23040.23
497.62	22995.76
497.79	23484.94
497.97	23274.29
498.14	23805.59
498.32	23903.89
498.50	23674.52
498.67	24093.47
498.85	24128.58
499.03	24264.33
499.20	24114.54
499.38	24184.76
499.56	24428.17
499.73	24673.93
499.91	24503.07
500.08	24678.61
500.26	24442.21
500.44	24835.42
500.61	24966.49
500.79	24891.60
500.97	25364.39
501.14	25558.65
501.32	25458.01
501.49	25390.13
501.67	25535.24
501.84	25530.56
502.02	25673.34
502.20	25699.08
502.37	25764.62
502.55	25708.44
502.72	26134.42
502.90	25912.07
503.07	25539.93
503.25	26061.87
503.43	26225.70
503.60	26394.22
503.78	26588.49
503.95	27133.83
504.13	26569.76
504.30	26960.63
504.48	26396.56
504.65	27161.92
504.83	26867.01
505.01	27367.88
505.18	27154.90
505.36	27498.95
505.53	27206.39
505.71	27143.19
505.88	27534.06
506.06	27290.65
506.23	28074.73
506.41	27831.31
506.58	27931.95
506.76	27990.47
506.93	28002.17
507.11	27871.10
507.28	28386.02
507.46	28425.81
507.63	28493.68
507.81	28680.92
507.98	28215.16
508.16	28744.12
508.33	28966.47
508.50	29130.31
508.68	28526.45
508.85	28973.49
509.03	28725.39
509.20	29130.31
509.38	29071.79
509.55	29610.12
509.73	29029.66
509.90	29673.31
510.08	29614.80
510.25	29788.00
510.42	29633.52
510.60	29731.83
510.77	30038.44
510.95	30256.11
511.12	30047.80
511.30	30127.38
511.47	30012.69
511.64	30426.96
511.82	30639.95
511.99	30216.32
512.17	30719.53
512.34	30600.16
512.51	30752.30
512.69	30911.46
512.86	30883.37
513.04	31199.34
513.21	30939.54
513.38	31290.62
513.56	31161.89
513.73	31356.16
513.90	31494.25
514.08	31180.62
514.25	31496.59
514.43	32044.27
514.60	31744.69
514.77	31924.91
514.95	31840.65
515.12	31529.36
515.29	32212.79
515.47	32385.99
515.64	32091.09
515.81	32053.64
515.99	32187.05
516.16	32313.44
516.33	32610.68
516.51	32388.33
516.68	32271.31
516.85	32540.47
517.03	32985.17
517.20	33015.60
517.37	32708.99
517.54	32821.33
517.72	33195.82
517.89	33427.53
518.06	33448.60
518.24	33106.88
518.41	33228.59
518.58	33104.54
518.75	33422.85
518.93	33539.88
519.10	33340.93
519.27	33551.58
519.45	33731.80
519.62	33823.08
519.79	33684.99
519.96	33846.49
520.14	33834.78
520.31	33518.81
520.48	33883.94
520.65	34132.03
520.83	34256.08
521.00	34443.32
521.17	34080.54
521.34	34169.48
521.52	34625.89
521.69	34604.82
521.86	35014.41
522.03	34920.79
522.20	35227.40
522.38	35524.65
522.55	34955.90
522.72	35070.59
522.89	35370.18
523.07	35379.54
523.24	34869.30
523.41	35531.67
523.58	35295.28
523.75	35372.52
523.92	35316.34
524.10	35660.40
524.27	35819.56
524.44	35466.14
524.61	36172.98
524.78	35945.95
524.96	36275.96
525.13	36210.43
525.30	36531.08
525.47	36385.97
525.64	36130.85
525.81	36135.53
525.98	36669.17
526.16	36638.75
526.33	36610.66
526.50	36884.50
526.67	36629.38
526.84	37003.87
527.01	36744.07
527.18	36924.29
527.36	36804.92
527.53	36891.52
527.70	37333.89
527.87	37361.97
528.04	36734.71
528.21	37268.35
528.38	37436.87
528.55	37439.21
528.72	37275.37
528.89	37710.71
529.07	36818.97
529.24	37067.06
529.41	37895.61
529.58	37404.10
529.75	37593.68
529.92	37645.18
530.09	38007.96
530.26	37979.87
530.43	38132.01
530.60	37469.64
530.77	37343.25
530.94	38136.69
531.11	37862.85
531.28	38134.35
531.46	38335.63
531.63	38052.43
531.80	38445.64
531.97	38478.41
532.14	38649.27
532.31	38562.67
532.48	38539.26
532.65	39019.07
532.82	38553.30
532.99	38714.80
533.16	38562.67
533.33	38796.72
533.50	38759.27
533.67	38857.57
533.84	38981.62
534.01	38932.47
534.18	39124.40
534.35	39695.49
534.52	39229.72
534.69	39203.97
534.86	39601.86
535.03	39494.20
535.20	39541.01
535.37	39667.40
535.54	40011.46
535.71	39901.45
535.88	39882.73
536.05	39805.49
536.22	39875.71
536.38	39878.05
536.55	39990.39
536.72	39969.33
536.89	39477.82
537.06	39995.07
537.23	40060.61
537.40	39629.95
537.57	39966.99
537.74	39908.47
537.91	40643.40
538.08	40493.61
538.25	40177.64
538.42	40390.62
538.59	40470.20
538.75	40322.75
538.92	40165.93
539.09	40432.75
539.26	40404.67
539.43	40477.22
539.60	40868.09
539.77	40662.13
539.94	41570.25
540.11	40933.63
540.28	40598.93
540.44	41240.24
540.61	40879.80
540.78	40996.82
540.95	41064.70
541.12	40720.64
541.29	41127.89
541.46	41275.35
541.62	40875.12
541.79	41392.37
541.96	40877.46
542.13	40961.72
542.30	41579.62
542.47	41530.47
542.63	41902.61
542.80	41556.21
542.97	41617.07
543.14	42155.39
543.31	41818.35
543.48	41757.50
543.64	42569.66
543.81	42087.51
543.98	42115.60
544.15	42251.35
544.32	42183.48
544.48	42548.60
544.65	42408.17
544.82	42155.39
544.99	42202.20
545.16	42714.78
545.32	42286.46
545.49	42852.87
545.66	42883.30
545.83	42770.95
546.00	42890.32
546.16	42794.36
546.33	42703.07
546.50	42553.28
546.67	42651.58
546.83	42546.26
547.00	42525.19
547.17	42394.12
547.34	42932.45
547.50	43503.54
547.67	43363.11
547.84	43075.22
548.00	43440.34
548.17	43536.30
548.34	43283.53
548.51	43536.30
548.67	43372.47
548.84	43337.36
549.01	43185.22
549.18	43232.04
549.34	43449.70
549.51	44062.93
549.68	43435.66
549.84	43658.01
550.01	43721.21
550.18	43489.49
550.34	43735.25
550.51	43522.26
550.68	44002.07
550.84	43606.52
551.01	43957.60
551.18	43746.95
551.34	44259.53
551.51	43819.51
551.68	44432.73
551.84	43648.65
552.01	43934.20
552.18	44182.29
552.34	43746.95
552.51	43863.98
552.68	43683.76
552.84	44212.72
553.01	44133.14
553.18	44240.81
553.34	44320.38
553.51	44154.21
553.67	44423.37
553.84	44488.90
554.01	44507.63
554.17	44217.40
554.34	44147.18
554.51	45167.66
554.67	44594.23
554.84	44912.54
555.00	44776.79
555.17	44603.59
555.33	44996.80
555.50	44912.54
555.67	44617.63
555.83	45064.67
556.00	45233.19
556.16	45006.16
556.33	45272.98
556.50	45116.17
556.66	44811.90
556.83	45081.06
556.99	45184.04
557.16	45752.79
557.32	45247.24
557.49	45045.95
557.65	44912.54
557.82	45001.48
557.98	45298.73
558.15	45303.41
558.32	45621.72
558.48	45397.03
558.65	45588.95
558.81	45715.34
558.98	45303.41
559.14	45488.31
559.31	45280.00
559.47	45422.78
559.64	45256.60
559.80	45303.41
559.97	45705.98
560.13	45495.33
560.30	45380.65
560.46	45801.94
560.63	45897.91
560.79	45804.28
560.96	45949.40
561.12	46115.58
561.29	45701.30
561.45	46197.49
561.61	45471.93
561.78	45748.11
561.94	45951.74
562.11	45911.95
562.27	45705.98
562.44	45361.92
562.60	46185.79
562.77	45949.40
562.93	46204.52
563.10	46543.89
563.26	45972.80
563.42	46440.91
563.59	46155.36
563.75	45893.22
563.92	45652.15
564.08	45769.18
564.24	46529.85
564.41	45942.38
564.57	45879.18
564.74	46007.91
564.90	46021.95
565.07	46082.81
565.23	46171.75
565.39	46302.82
565.56	46284.09
565.72	45956.42
565.88	46344.95
566.05	46237.28
566.21	46244.30
566.38	45937.69
566.54	46553.26
566.70	46471.34
566.87	46445.59
567.03	46195.15
567.19	46644.54
567.36	46525.17
567.52	46497.08
567.68	46763.90
567.85	46862.21
568.01	46656.24
568.17	46536.87
568.34	46960.51
568.50	46777.95
568.66	46588.36
568.83	46487.72
568.99	46759.22
569.15	46616.45
569.32	46670.28
569.48	46820.08
569.64	46602.41
569.81	46656.24
569.97	46679.64
570.13	46997.96
570.30	46476.02
570.46	46791.99
570.62	46958.17
570.78	47129.03
570.95	46740.50
571.11	47117.32
571.27	46749.86
571.43	46859.87
571.60	46777.95
571.76	46829.44
571.92	46520.49
572.09	46550.91
572.25	46862.21
572.41	47304.57
572.57	46670.28
572.74	47021.36
572.90	46782.63
573.06	46773.27
573.22	46813.05
573.38	47150.09
573.55	47063.49
573.71	47494.15
573.87	47026.04
574.03	46848.16
574.20	47150.09
574.36	47189.88
574.52	47232.01
574.68	46934.76
574.84	47606.50
575.01	46691.35
575.17	47100.94
575.33	47466.06
575.49	47159.45
575.65	47349.04
575.82	47295.21
575.98	47344.36
576.14	47086.90
576.30	47248.39
576.46	47091.58
576.62	47131.37
576.79	46953.49
576.95	46618.79
577.11	47023.70
577.27	47285.84
577.43	47091.58
577.59	47271.80
577.75	47463.72
577.92	47126.69
578.08	47552.66
578.24	47297.55
578.40	47276.48
578.56	47391.17
578.72	47171.16
578.88	47449.68
579.04	47400.53
579.21	47100.94
579.37	47297.55
579.53	47391.17
579.69	47164.14
579.85	47171.16
580.01	47136.05
580.17	47213.29
580.33	47489.47
580.49	47538.62
580.65	47309.25
580.82	47206.26
580.98	47058.81
581.14	47159.45
581.30	47243.71
581.46	47271.80
581.62	47056.47
581.78	46749.86
581.94	47447.34
582.10	47119.66
582.26	47531.60
582.42	47625.22
582.58	47625.22
582.74	47409.89
582.90	47185.20
583.06	47721.18
583.22	47379.46
583.38	47653.31
583.54	47381.80
583.70	48093.33
583.86	47236.69
584.02	47386.49
584.18	47510.53
584.34	47583.09
584.50	47508.19
584.66	47543.30
584.82	47800.76
584.98	47866.30
585.14	47533.94
585.30	47302.23
585.46	47559.69
585.62	47365.42
585.78	47688.42
585.94	47009.66
586.10	47164.14
586.26	47187.54
586.42	47501.17
586.58	47213.29
586.74	47452.02
586.90	47599.47
587.06	47536.28
587.22	47756.29
587.38	47398.19
587.54	47833.53
587.70	47838.21
587.86	47854.59
588.02	47580.75
588.18	47693.10
588.34	47243.71
588.49	47693.10
588.65	47386.49
588.81	47634.58
588.97	47679.05
589.13	47351.38
589.29	47660.33
589.45	47805.44
589.61	48067.58
589.77	48147.16
589.93	47526.92
590.08	48018.43
590.24	48046.52
590.40	48247.80
590.56	48196.31
590.72	48385.89
590.88	47859.27
591.04	47973.96
591.20	47892.04
591.35	47849.91
591.51	48575.48
591.67	48233.76
591.83	48264.19
591.99	47852.25
592.15	47765.65
592.31	47803.10
592.46	47854.59
592.62	48081.63
592.78	48212.70
592.94	48311.00
593.10	47880.34
593.26	48514.62
593.41	48219.72
593.57	47777.36
593.73	48048.86
593.89	48271.21
594.05	48514.62
594.20	48018.43
594.36	48339.08
594.52	48566.12
594.68	48212.70
594.84	48163.54
594.99	48325.04
595.15	48102.69
595.31	48484.20
595.47	48186.95
595.62	48261.85
595.78	48397.60
595.94	47962.26
596.10	47861.61
596.25	48795.49
596.41	48519.31
596.57	48151.84
596.73	48566.12
596.88	48416.32
597.04	48090.99
597.20	48219.72
597.36	48409.30
597.51	48577.82
597.67	48161.20
597.83	48205.67
597.99	48165.88
598.14	48460.79
598.30	48198.65
598.46	47997.37
598.61	48561.44
598.77	47962.26
598.93	48456.11
599.09	48142.48
599.24	48671.44
599.40	48516.96
599.56	48708.89
599.71	48692.50
599.87	48956.99
600.03	48406.96
600.18	48528.67
600.34	48381.21
600.50	48301.64
600.65	48465.47
600.81	48582.50
600.97	48032.47
601.12	48811.87
601.28	48404.62
601.44	48369.51
601.59	48488.88
601.75	48416.32
601.91	48615.27
602.06	48184.61
602.22	48357.81
602.37	48350.79
602.53	48399.94
602.69	48367.17
602.84	48285.25
603.00	48299.30
603.16	47990.34
603.31	48577.82
603.47	48175.25
603.62	48308.66
603.78	48690.16
603.94	48090.99
604.09	48500.58
604.25	48025.45
604.40	48942.94
604.56	48479.52
604.71	48643.35
604.87	48343.77
605.03	48175.25
605.18	48435.05
605.34	48287.59
605.49	48046.52
605.65	48633.99
605.80	48182.27
605.96	48257.17
606.12	48364.83
606.27	48264.19
606.43	48102.69
606.58	48685.48
606.74	48039.50
606.89	48296.95
607.05	48355.47
607.20	48432.71
607.36	48296.95
607.51	48509.94
607.67	48172.91
607.82	48175.25
607.98	48175.25
608.13	48289.93
608.29	48193.97
608.44	48303.98
608.60	48374.19
608.75	48334.40
608.91	48147.16
609.06	47800.76
609.22	48509.94
609.37	48404.62
609.53	48409.30
609.68	48116.73
609.84	47959.92
609.99	48259.51
610.15	48308.66
610.30	48336.74
610.46	48072.26
610.61	48467.81
610.76	47988.00
610.92	47950.56
611.07	47868.64
611.23	47650.97
611.38	48151.84
611.54	48292.27
611.69	48224.40
611.84	48067.58
612.00	47845.23
612.15	47725.86
612.31	48048.86
612.46	47423.93
612.62	47721.18
612.77	47828.85
612.92	47969.28
613.08	47882.68
613.23	47875.66
613.39	47353.72
613.54	47660.33
613.69	48027.79
613.85	47473.09
614.00	47789.06
614.15	48142.48
614.31	47716.50
614.46	47363.08
614.62	47641.60
614.77	47803.10
614.92	47934.17
615.08	47510.53
615.23	47702.46
615.38	48025.45
615.54	47587.77
615.69	47700.12
615.84	47718.84
616.00	47674.37
616.15	47526.92
616.30	47868.64
616.46	47143.07
616.61	47512.88
616.76	47538.62
616.92	47449.68
617.07	47339.68
617.22	47311.59
617.37	47299.89
617.53	47421.59
617.68	47435.64
617.83	47110.30
617.99	47758.63
618.14	47931.83
618.29	47388.83
618.45	46911.36
618.60	46976.89
618.75	47131.37
618.90	46932.42
619.06	47084.56
619.21	46990.94
619.36	47407.55
619.51	47173.50
619.67	47386.49
619.82	47299.89
619.97	47157.11
620.12	47351.38
620.28	47098.60
620.43	47405.21
620.58	47379.46
620.73	47318.61
620.89	47306.91
621.04	47313.93
621.19	46672.62
621.34	47290.52
621.49	46710.07
621.65	46700.71
621.80	46986.25
621.95	47051.79
622.10	47023.70
622.25	47173.50
622.41	46803.69
622.56	47173.50
622.71	47047.11
622.86	46958.17
623.01	46665.60
623.16	46967.53
623.32	46899.65
623.47	46904.34
623.62	46754.54
623.77	46766.24
623.92	46916.04
624.07	46824.76
624.23	46583.68
624.38	46799.01
624.53	46440.91
624.68	46487.72
624.83	46307.50
624.98	46506.44
625.13	45965.78
625.29	46712.41
625.44	46330.90
625.59	46429.21
625.74	46185.79
625.89	46155.36
626.04	45748.11
626.19	46387.08
626.34	46066.42
626.49	46113.23
626.65	46253.67
626.80	46059.40
626.95	45827.69
627.10	45902.59
627.25	46162.39
627.40	46007.91
627.55	46431.55
627.70	45982.16
627.85	46263.03
628.00	45808.96
628.15	46040.68
628.30	45340.86
628.45	45572.57
628.60	45886.20
628.76	46054.72
628.91	45869.82
629.06	45497.67
629.21	45588.95
629.36	45918.97
629.51	45467.25
629.66	45996.21
629.81	45457.88
629.96	45659.17
630.11	45904.93
630.26	45799.60
630.41	45621.72
630.56	45577.25
630.71	45797.26
630.86	45563.21
631.01	45387.67
631.16	45324.47
631.31	45235.53
631.46	45361.92
631.61	45570.23
631.76	45172.34
631.91	45170.00
632.06	45682.58
632.21	45853.44
632.36	45680.24
632.51	45155.96
632.66	45317.45
632.81	45001.48
632.96	45413.41
633.10	45364.26
633.25	45148.93
633.40	45010.84
633.55	45516.40
633.70	45425.12
633.85	44847.00
634.00	44360.17
634.15	44687.85
634.30	44725.30
634.45	44868.07
634.60	45258.94
634.75	45024.89
634.90	44935.95
635.05	45223.83
635.19	44755.72
635.34	44994.46
635.49	44619.97
635.64	44928.92
635.79	44516.99
635.94	44924.24
636.09	44839.98
636.24	44325.07
636.39	44907.86
636.53	44790.83
636.68	44126.12
636.83	44226.76
636.98	44692.53
637.13	44575.50
637.28	44161.23
637.43	44177.61
637.57	44861.05
637.72	44327.41
637.87	44390.60
638.02	44285.28
638.17	44479.54
638.32	44016.11
638.46	44296.98
638.61	44032.50
638.76	43910.79
638.91	43922.49
639.06	43515.24
639.20	43971.64
639.35	44098.03
639.50	43772.70
639.65	43894.41
639.80	44446.77
639.94	44832.96
640.09	44091.01
640.24	44191.65
640.39	43796.10
640.54	43950.58
640.68	43955.26
640.83	44147.18
640.98	43924.83
641.13	43545.67
641.27	44215.06
641.42	43463.75
641.57	44233.78
641.72	43800.79
641.86	43454.39
642.01	43260.12
642.16	43131.39
642.31	43288.21
642.45	43751.63
642.60	43421.62
642.75	43054.15
642.90	43660.35
643.04	43585.46
643.19	43728.23
643.34	43267.14
643.48	43075.22
643.63	43152.46
643.78	43253.10
643.93	43697.80
644.07	43168.84
644.22	43264.80
644.37	43320.98
644.51	43374.81
644.66	43056.50
644.81	43753.97
644.95	43681.42
645.10	43019.05
645.25	43178.20
645.39	43442.68
645.54	42703.07
645.69	42841.17
645.83	42382.42
645.98	42653.92
646.13	42836.48
646.27	42705.41
646.42	42291.14
646.57	42890.32
646.71	43086.92
646.86	43093.94
647.00	43016.71
647.15	43201.61
647.30	42911.38
647.44	42698.39
647.59	43054.15
647.74	42155.39
647.88	42623.50
648.03	43412.26
648.17	43175.86
648.32	43040.11
648.47	42955.85
648.61	42759.25
648.76	42553.28
648.90	42653.92
649.05	42504.13
649.20	42539.24
649.34	42359.02
649.49	42794.36
649.63	42543.92
649.78	42625.84
649.92	42464.34
650.07	42665.63
650.21	42543.92
650.36	42665.63
650.51	42351.99
650.65	42291.14
650.80	42454.98
650.94	42497.11
651.09	42127.30
651.23	41991.55
651.38	41853.46
651.52	41687.28
651.67	42094.53
651.81	41476.63
651.96	42216.24
652.10	41750.48
652.25	41764.52
652.39	42120.28
652.54	42078.15
652.68	41670.90
652.83	42007.94
652.97	41848.78
653.12	41935.38
653.26	41989.21
653.41	41528.13
653.55	42190.50
653.70	42000.91
653.84	41911.97
653.99	41771.54
654.13	41806.65
654.27	41427.48
654.42	41989.21
654.56	41268.33
654.71	41455.57
654.85	41944.74
655.00	41722.39
655.14	41687.28
655.29	41806.65
655.43	42085.17
655.57	41200.45
655.72	41092.79
655.86	41647.49
656.01	41198.11
656.15	41298.75
656.30	40935.97
656.44	41291.73
656.58	41785.58
656.73	41652.17
656.87	41158.32
657.01	40397.65
657.16	41134.92
657.30	41083.42
657.45	41453.23
657.59	40727.66
657.73	40697.24
657.88	41088.10
658.02	41010.87
658.16	40861.07
658.31	40830.65
658.45	41095.13
658.60	40751.07
658.74	41083.42
658.88	40856.39
659.03	40568.51
659.17	40540.42
659.31	40840.01
659.46	40666.81
659.60	40964.06
659.74	40385.94
659.89	40350.84
660.03	39864.00
660.17	40392.97
660.32	40072.31
660.46	40254.87
660.60	39786.77
660.74	40519.35
660.89	40498.29
661.03	40013.80
661.17	39571.44
661.32	39641.65
661.46	39931.88
661.60	39955.29
661.74	39686.12
661.89	39622.93
662.03	39964.65
662.17	39566.76
662.31	39686.12
662.46	39194.61
662.60	39414.62
662.74	39264.83
662.88	39131.42
663.03	39285.89
663.17	38969.92
663.31	39297.59
663.45	39070.56
663.60	39416.96
663.74	39269.51
663.88	39154.82
664.02	39105.67
664.17	39524.63
664.31	38871.62
664.45	39110.35
664.59	38742.89
664.73	38541.60
664.88	38747.57
665.02	38031.36
665.16	38272.44
665.30	38298.19
665.44	38738.21
665.59	38455.00
665.73	38506.49
665.87	37879.23
666.01	38335.63
666.15	38352.02
666.29	38017.32
666.44	38576.71
666.58	38122.65
666.72	37928.38
666.86	38073.49
667.00	38043.07
667.14	37645.18
667.28	38017.32
667.43	37680.28
667.57	37956.47
667.71	37874.55
667.85	37675.60
667.99	37612.41
668.13	37310.48
668.27	37151.32
668.41	36781.52
668.56	37249.63
668.70	37038.98
668.84	37102.17
668.98	36648.11
669.12	36430.44
669.26	37041.32
669.40	37048.34
669.54	37230.90
669.68	36854.08
669.82	36205.75
669.96	36257.24
670.10	35995.10
670.25	36180.00
670.39	35952.97
670.53	36774.50
670.67	36545.12
670.81	36568.53
670.95	36032.55
671.09	35976.37
671.23	36013.82
671.37	36102.76
671.51	35662.74
671.65	35969.35
671.79	35777.43
671.93	36048.93
672.07	36107.44
672.21	35763.39
672.35	34988.67
672.49	35367.84
672.63	35543.38
672.77	35030.80
672.91	35349.11
673.05	34934.84
673.19	34876.32
673.33	35096.33
673.47	34771.00
673.61	34548.65
673.75	34747.59
673.89	34635.25
674.03	34146.08
674.17	34155.44
674.31	34113.31
674.45	33897.98
674.59	34024.37
674.73	34115.65
674.87	33919.04
675.01	33652.22
675.15	33537.54
675.29	33497.75
675.43	33558.60
675.56	33565.62
675.70	33195.82
675.84	33411.15
675.98	32718.35
676.12	33280.08
676.26	33497.75
676.40	32884.53
676.54	33149.01
676.68	32907.93
676.82	32261.94
676.96	32711.33
677.10	32891.55
677.23	32818.99
677.37	32348.54
677.51	32488.98
677.65	32016.19
677.79	32109.81
677.93	32273.65
678.07	32088.74
678.21	31906.18
678.34	31477.86
678.48	31728.30
678.62	31438.08
678.76	31414.67
678.90	31381.90
679.04	31489.57
679.18	31503.61
679.31	31026.14
679.45	31311.69
679.59	30965.29
679.73	31023.80
679.87	30803.79
680.00	30817.83
680.14	30352.07
680.28	30604.84
680.42	30356.75
680.56	30328.66
680.70	30059.50
680.83	29883.96
680.97	29439.26
681.11	30000.99
681.25	30008.01
681.39	29415.85
681.52	29961.20
681.66	29057.75
681.80	28870.51
681.94	29081.16
682.07	28751.14
682.21	29326.91
682.35	28781.57
682.49	28961.79
682.62	29022.64
682.76	28797.95
682.90	28959.45
683.04	28690.29
683.17	28460.91
683.31	28107.49
683.45	28044.30
683.59	27967.06
683.72	27751.73
683.86	27583.21
684.00	27697.90
684.13	27384.27
684.27	27337.46
684.41	27489.59
684.55	27070.64
684.68	27447.46
684.82	27374.91
684.96	27042.55
685.09	27166.60
685.23	27182.98
685.37	27583.21
685.50	27257.88
685.64	26799.13
685.78	26850.63
685.91	26424.65
686.05	26052.50
686.19	26075.91
686.32	25855.90
686.46	26059.52
686.60	25755.26
686.73	25893.35
686.87	25603.12
687.01	25675.68
687.14	25750.57
687.28	25572.69
687.42	25256.72
687.55	25216.93
687.69	25010.96
687.82	24933.73
687.96	25130.33
688.10	24774.57
688.23	24898.62
688.37	24900.96
688.50	25216.93
688.64	24774.57
688.78	24753.51
688.91	24341.57
689.05	24603.71
689.18	24306.46
689.32	23754.10
689.46	23330.46
689.59	23882.83
689.73	24081.77
689.86	24063.05
690.00	23873.46
690.13	23676.86
690.27	23381.95
690.41	23667.50
690.54	22981.72
690.68	23630.05
690.81	23372.59
690.95	23094.07
691.08	22937.25
691.22	22473.82
691.35	22611.92
691.49	22780.43
691.62	22614.26
691.76	22396.59
691.89	22300.62
692.03	22047.85
692.16	22094.66
692.30	22104.02
692.43	22136.79
692.57	21844.22
692.70	21785.71
692.84	21549.31
692.97	21689.74
693.11	21556.33
693.24	21018.01
693.38	21310.58
693.51	20910.35
693.65	21429.94
693.78	20807.36
693.92	20849.49
694.05	20692.68
694.19	20713.74
694.32	20823.75
694.45	20734.81
694.59	20788.64
694.72	20727.78
694.86	20379.04
694.99	20180.10
695.13	20369.68
695.26	20006.90
695.39	19749.44
695.53	19576.24
695.66	19843.06
695.80	19508.37
695.93	19906.26
696.07	19438.15
696.20	19126.86
696.33	19199.41
696.47	18906.85
696.60	18831.95
696.73	18944.30
696.87	18883.44
697.00	19253.25
697.14	18967.70
697.27	18661.09
697.40	18752.37
697.54	18565.13
697.67	18359.16
697.80	18579.17
697.94	18347.46
698.07	18417.68
698.21	18132.13
698.34	17942.55
698.47	18200.01
698.61	17839.56
698.74	17617.21
698.87	17804.46
699.01	17462.74
699.14	17635.94
699.27	17565.72
699.40	17488.48
699.54	17448.69
699.67	17163.15
699.80	17282.52
699.94	17036.76
700.07	16980.59
700.20	16971.22
700.34	16676.32
700.47	16879.94
700.60	16723.13
700.73	16973.56
700.87	16599.08
701.00	16397.79
701.13	16161.40
701.26	16210.55
701.40	16376.73
701.53	16287.79
701.66	15985.86
701.79	16112.25
701.93	15634.78
702.06	15758.83
702.19	15550.52
702.32	15634.78
702.46	15510.73
702.59	15735.42
702.72	15529.45
702.85	15562.22
702.99	15719.04
703.12	15239.23
703.25	15225.18
703.38	15068.37
703.51	15033.26
703.65	14808.57
703.78	14946.66
703.91	14672.82
704.04	14647.07
704.17	14469.19
704.31	14604.94
704.44	14363.87
704.57	14604.94
704.70	14258.54
704.83	14120.45
704.96	14396.64
705.10	13937.89
705.23	13907.46
>>>>>End Processed Spectral Data<<<<<
