SpectraSuite Data File
++++++++++++++++++++++++++++++++++++
Date: Fri Oct 25 10:47:16 EDT 2013
User: price-jones
Dark Spectrum Present: No
Reference Spectrum Present: No
Number of Sampled Component Spectra: 1
Spectrometers: USB2+H05261
Integration Time (usec): 100000 (USB2+H05261)
Spectra Averaged: 1 (USB2+H05261)
Boxcar Smoothing: 0 (USB2+H05261)
Correct for Electrical Dark: No (USB2+H05261)
Strobe/Lamp Enabled: No (USB2+H05261)
Correct for Detector Non-linearity: No (USB2+H05261)
Correct for Stray Light: No (USB2+H05261)
Number of Pixels in Processed Spectrum: 2048
>>>>>Begin Processed Spectral Data<<<<<
365.73	166.18
365.92	166.18
366.12	166.18
366.32	49.15
366.52	60.85
366.72	65.54
366.91	0.00
367.11	72.56
367.31	63.19
367.51	11.70
367.70	53.83
367.90	0.00
368.10	88.94
368.30	95.96
368.49	0.00
368.69	67.88
368.89	142.77
369.09	102.98
369.28	88.94
369.48	98.30
369.68	100.64
369.87	135.75
370.07	70.22
370.27	173.20
370.47	152.13
370.66	351.08
370.86	404.91
371.06	411.93
371.25	475.13
371.45	421.30
371.65	421.30
371.84	414.27
372.04	409.59
372.24	484.49
372.44	447.04
372.63	468.11
372.83	519.60
373.03	531.30
373.22	510.24
373.42	484.49
373.62	407.25
373.81	458.74
374.01	454.06
374.21	477.47
374.40	472.79
374.60	538.32
374.79	472.79
374.99	580.45
375.19	571.09
375.38	589.82
375.58	528.96
375.78	571.09
375.97	512.58
376.17	667.05
376.37	503.22
376.56	531.30
376.76	552.37
376.95	456.40
377.15	566.41
377.35	613.22
377.54	720.88
377.74	601.52
377.93	533.64
378.13	578.11
378.33	538.32
378.52	601.52
378.72	613.22
378.91	615.56
379.11	559.39
379.31	594.50
379.50	636.63
379.70	493.85
379.89	667.05
380.09	587.47
380.28	699.82
380.48	704.50
380.68	594.50
380.87	667.05
381.07	671.73
381.26	662.37
381.46	573.43
381.65	664.71
381.85	636.63
382.04	594.50
382.24	739.61
382.43	664.71
382.63	697.48
382.83	653.01
383.02	683.44
383.22	730.25
383.41	683.44
383.61	697.48
383.80	791.10
384.00	709.18
384.19	650.67
384.39	774.72
384.58	643.65
384.78	660.03
384.97	741.95
385.17	758.33
385.36	702.16
385.56	720.88
385.75	716.20
385.95	725.57
386.14	753.65
386.34	765.36
386.53	800.46
386.72	753.65
386.92	723.23
387.11	767.70
387.31	856.64
387.50	826.21
387.70	744.29
387.89	816.85
388.09	791.10
388.28	814.51
388.48	819.19
388.67	856.64
388.86	870.68
389.06	842.59
389.25	854.30
389.45	842.59
389.64	826.21
389.84	898.77
390.03	961.96
390.22	835.57
390.42	873.02
390.61	851.96
390.81	840.25
391.00	929.19
391.19	891.74
391.39	912.81
391.58	947.92
391.78	978.34
391.97	961.96
392.16	947.92
392.36	957.28
392.55	964.30
392.75	912.81
392.94	940.90
393.13	945.58
393.33	945.58
393.52	940.90
393.71	983.02
393.91	1020.47
394.10	1057.92
394.29	901.11
394.49	980.68
394.68	992.39
394.88	990.05
395.07	1170.27
395.26	1036.86
395.46	1034.52
395.65	1146.86
395.84	1020.47
396.04	1111.75
396.23	1151.54
396.42	1055.58
396.62	1088.35
396.81	1109.41
397.00	1034.52
397.19	1132.82
397.39	1121.12
397.58	1121.12
397.77	1214.74
397.97	1132.82
398.16	1170.27
398.35	1078.99
398.55	1263.89
398.74	1219.42
398.93	1198.35
399.12	1217.08
399.32	1284.95
399.51	1191.33
399.70	1273.25
399.90	1277.93
400.09	1247.51
400.28	1355.17
400.47	1331.76
400.67	1263.89
400.86	1345.81
401.05	1418.36
401.24	1455.81
401.44	1336.45
401.63	1359.85
401.82	1544.75
402.01	1411.34
402.21	1383.26
402.40	1380.92
402.59	1490.92
402.78	1341.13
402.97	1507.30
403.17	1453.47
403.36	1413.68
403.55	1488.58
403.74	1575.18
403.93	1535.39
404.13	1610.29
404.32	1600.93
404.51	1533.05
404.70	1600.93
404.89	1584.54
405.09	1671.14
405.28	1528.37
405.47	1542.41
405.66	1577.52
405.85	1720.29
406.05	1666.46
406.24	1657.10
406.43	1675.82
406.62	1638.38
406.81	1762.42
407.00	1703.91
407.20	1708.59
407.39	1760.08
407.58	1668.80
407.77	1825.62
407.96	1781.15
408.15	1888.81
408.34	1732.00
408.54	1860.73
408.73	1776.47
408.92	1877.11
409.11	1919.24
409.30	1900.52
409.49	1912.22
409.68	1886.47
409.87	1921.58
410.07	1961.37
410.26	2026.90
410.45	1980.09
410.64	1996.48
410.83	2101.80
411.02	2113.50
411.21	2200.10
411.40	2202.44
411.59	2275.00
411.78	2115.84
411.98	2242.23
412.17	2228.19
412.36	2134.57
412.55	2249.25
412.74	2312.45
412.93	2275.00
413.12	2193.08
413.31	2445.86
413.50	2392.03
413.69	2473.95
413.88	2483.31
414.07	2457.56
414.26	2464.58
414.45	2483.31
414.64	2492.67
414.83	2539.48
415.02	2656.51
415.22	2555.86
415.41	2684.59
415.60	2693.96
415.79	2733.75
415.98	2665.87
416.17	2619.06
416.36	2558.21
416.55	2548.84
416.74	2778.22
416.93	2696.30
417.12	2810.98
417.31	2820.35
417.50	2796.94
417.69	2932.69
417.88	2897.58
418.07	2867.16
418.26	2867.16
418.45	2979.50
418.64	3002.91
418.83	3042.70
419.02	2972.48
419.21	3110.57
419.39	3038.02
419.58	3019.29
419.77	3052.06
419.96	3087.17
420.15	3176.11
420.34	3115.25
420.53	3148.02
420.72	3243.98
420.91	3248.66
421.10	3176.11
421.29	3365.69
421.48	3143.34
421.67	3204.19
421.86	3232.28
422.05	3269.73
422.24	3225.26
422.43	3206.53
422.61	3276.75
422.80	3356.33
422.99	3318.88
423.18	3335.26
423.37	3410.16
423.56	3424.20
423.75	3262.71
423.94	3332.92
424.13	3162.06
424.32	3251.00
424.50	3356.33
424.69	3419.52
424.88	3454.63
425.07	3447.61
425.26	3389.10
425.45	3398.46
425.64	3398.46
425.83	3447.61
426.01	3515.48
426.20	3449.95
426.39	3456.97
426.58	3431.23
426.77	3508.46
426.96	3466.33
427.15	3361.01
427.33	3520.17
427.52	3555.27
427.71	3655.92
427.90	3499.10
428.09	3522.51
428.28	3555.27
428.46	3499.10
428.65	3606.77
428.84	3751.88
429.03	3693.37
429.22	3585.70
429.40	3665.28
429.59	3723.79
429.78	3595.06
429.97	3599.74
430.16	3686.34
430.34	3583.36
430.53	3768.26
430.72	3786.99
430.91	3630.17
431.10	3850.18
431.28	3875.93
431.47	3859.54
431.66	4051.47
431.85	3906.35
432.03	3889.97
432.22	4014.02
432.41	4044.45
432.60	4140.41
432.79	4173.18
432.97	4030.40
433.16	3969.55
433.35	4004.66
433.54	4030.40
433.72	4147.43
433.91	4067.85
434.10	4191.90
434.28	3990.61
434.47	4306.59
434.66	4362.76
434.85	4311.27
435.03	4248.07
435.22	4285.52
435.41	4386.16
435.59	4259.78
435.78	4290.20
435.97	4245.73
436.16	4505.53
436.34	4402.55
436.53	4554.68
436.72	4472.76
436.90	4360.42
437.09	4482.13
437.28	4404.89
437.46	4437.66
437.65	4557.02
437.84	4526.60
438.02	4519.57
438.21	4517.23
438.40	4477.44
438.58	4617.88
438.77	4730.22
438.96	4528.94
439.14	4709.16
439.33	4847.25
439.52	4748.95
439.70	4800.44
439.89	4980.66
440.08	5085.98
440.26	4858.95
440.45	4940.87
440.63	5111.73
440.82	5149.18
441.01	5132.79
441.19	5181.95
441.38	5245.14
441.57	5226.42
441.75	5275.57
441.94	5490.90
442.12	5329.40
442.31	5369.19
442.50	5621.97
442.68	5310.68
442.87	5294.29
443.05	5308.34
443.24	5565.79
443.43	5551.75
443.61	5586.86
443.80	5568.13
443.98	5509.62
444.17	5210.03
444.35	5518.98
444.54	5727.29
444.73	5724.95
444.91	5654.73
445.10	5589.20
445.28	5685.16
445.47	5551.75
445.65	5626.65
445.84	5577.50
446.02	5523.66
446.21	5628.99
446.39	5570.48
446.58	5802.19
446.77	5813.89
446.95	5631.33
447.14	5549.41
447.32	5706.23
447.51	5521.32
447.69	5516.64
447.88	5846.66
448.06	5703.89
448.25	5659.42
448.43	5785.80
448.62	5652.39
448.80	5673.46
448.99	5909.85
449.17	5893.47
449.36	6071.35
449.54	6066.67
449.73	5947.30
449.91	6108.80
450.10	6129.86
450.28	6094.76
450.46	6162.63
450.65	5851.34
450.83	5973.05
451.02	6015.18
451.20	6148.59
451.39	6171.99
451.57	6052.63
451.76	5994.11
451.94	6036.24
452.13	6225.82
452.31	6162.63
452.49	6010.50
452.68	6160.29
452.86	6298.38
453.05	6370.94
453.23	6324.13
453.42	6221.14
453.60	6244.55
453.78	6345.19
453.97	6340.51
454.15	6225.82
454.34	6462.22
454.52	6392.00
454.70	6478.60
454.89	6394.34
455.07	6450.52
455.26	6497.33
455.44	6588.61
455.62	6539.46
455.81	6595.63
455.99	6590.95
456.17	6752.45
456.36	6672.87
456.54	6942.03
456.73	6829.68
456.91	6885.86
457.09	6979.48
457.28	7145.66
457.46	6857.77
457.64	6930.33
457.83	6958.41
458.01	6988.84
458.19	7152.68
458.38	6766.49
458.56	7019.27
458.74	6953.73
458.93	7023.95
459.11	7133.95
459.29	7166.72
459.48	7220.55
459.66	7253.32
459.84	7248.64
460.03	7569.29
460.21	7229.91
460.39	7389.07
460.57	7468.65
460.76	7426.52
460.94	7400.77
461.12	7445.24
461.31	7473.33
461.49	7489.71
461.67	7316.51
461.85	7559.93
462.04	7602.06
462.22	8018.68
462.40	7604.40
462.59	7499.08
462.77	7637.17
462.95	7637.17
463.13	7705.04
463.32	7571.63
463.50	7613.76
463.68	7705.04
463.86	7779.94
464.05	7651.21
464.23	7749.51
464.41	7985.91
464.59	7644.19
464.78	7955.48
464.96	8004.63
465.14	7772.92
465.32	7934.42
465.50	7798.66
465.69	8135.70
465.87	7892.29
466.05	7974.21
466.23	8009.31
466.41	8105.28
466.60	8365.07
466.78	7967.18
466.96	8116.98
467.14	8049.10
467.32	8133.36
467.51	8081.87
467.69	7896.97
467.87	8145.06
468.05	8236.35
468.23	8226.98
468.41	8280.82
468.60	8325.29
468.78	8259.75
468.96	8152.09
469.14	8299.54
469.32	8369.76
469.50	8402.52
469.69	8432.95
469.87	8608.49
470.05	8620.19
470.23	8596.79
470.41	8442.31
470.59	8662.32
470.77	8662.32
470.95	8798.07
471.14	8744.24
471.32	8594.45
471.50	8938.51
471.68	8943.19
471.86	8858.93
472.04	8887.01
472.22	9202.99
472.40	8985.32
472.58	9069.58
472.77	9397.25
472.95	9165.54
473.13	9514.28
473.31	9041.49
473.49	9207.67
473.67	9282.56
473.85	9312.99
474.03	9610.24
474.21	9373.85
474.39	9593.86
474.57	9387.89
474.75	9713.22
474.93	9633.64
475.12	9551.73
475.30	9809.19
475.48	9778.76
475.66	9806.84
475.84	9888.76
476.02	9966.00
476.20	10134.52
476.38	10094.73
476.56	10546.45
476.74	10363.89
476.92	10099.41
477.10	10319.42
477.28	10586.24
477.46	10473.90
477.64	10623.69
477.82	10775.83
478.00	10904.56
478.18	10785.19
478.36	11169.04
478.54	11164.36
478.72	11197.12
478.90	10991.16
479.08	11510.75
479.26	11452.24
479.44	11304.79
479.62	11269.68
479.80	11784.60
479.98	11798.64
480.16	11903.96
480.34	11843.11
480.52	11974.18
480.70	11950.78
480.88	11964.82
481.06	11978.86
481.24	12156.74
481.41	12446.97
481.59	12442.29
481.77	12503.14
481.95	12676.34
482.13	12697.41
482.31	12676.34
482.49	13001.68
482.67	12996.99
482.85	13200.62
483.03	13224.03
483.21	13369.14
483.39	13392.55
483.57	13570.43
483.74	13668.73
483.92	13820.86
484.10	13708.52
484.28	13867.67
484.46	14295.99
484.64	14272.59
484.82	14150.88
485.00	14476.21
485.18	14417.70
485.35	14293.65
485.53	14501.96
485.71	14581.54
485.89	14892.83
486.07	14731.33
486.25	14803.89
486.43	15049.64
486.61	15412.43
486.78	15351.57
486.96	15489.67
487.14	15641.80
487.32	15697.97
487.50	15807.98
487.68	15779.89
487.85	16196.51
488.03	16318.22
488.21	16475.03
488.39	16372.05
488.57	16568.65
488.75	16903.35
488.92	16730.15
489.10	16915.05
489.28	17114.00
489.46	17338.69
489.64	17273.15
489.81	17635.94
489.99	17642.96
490.17	17996.38
490.35	18129.79
490.53	17877.01
490.70	18314.69
490.88	18157.88
491.06	18321.71
491.24	18225.75
491.41	18398.95
491.59	18457.46
491.77	18656.41
491.95	18836.63
492.13	18977.06
492.30	19173.67
492.48	18953.66
492.66	19417.08
492.84	19405.38
493.01	20086.48
493.19	19463.90
493.37	19887.53
493.54	19908.60
493.72	20130.95
493.90	20177.76
494.08	20072.43
494.25	20252.66
494.43	20320.53
494.61	20865.88
494.79	20727.78
494.96	20737.15
495.14	20837.79
495.32	20929.07
495.49	21270.79
495.67	21273.13
495.85	21137.38
496.02	21727.19
496.20	21413.56
496.38	21778.68
496.55	21884.01
496.73	22497.23
496.91	22228.07
497.09	22237.43
497.26	22221.05
497.44	22008.06
497.62	22253.81
497.79	22745.33
497.97	22419.99
498.14	22611.92
498.32	23070.66
498.50	23023.85
498.67	23096.41
498.85	22946.61
499.03	23470.89
499.20	23246.20
499.38	23520.04
499.56	23131.51
499.73	23836.02
499.91	23580.90
500.08	23861.76
500.26	23840.70
500.44	23906.23
500.61	23765.80
500.79	23873.46
500.97	23910.91
501.14	24503.07
501.32	24479.66
501.49	24524.13
501.67	24903.30
501.84	24636.48
502.02	24840.11
502.20	24966.49
502.37	25146.72
502.55	24919.68
502.72	25202.89
502.90	25369.07
503.07	24835.42
503.25	25263.74
503.43	25008.62
503.60	25710.78
503.78	25535.24
503.95	25788.02
504.13	25532.90
504.30	25458.01
504.48	25633.55
504.65	25951.86
504.83	26272.51
505.01	26099.31
505.18	25970.58
505.36	26382.52
505.53	26314.64
505.71	26403.58
505.88	26787.43
506.06	26754.66
506.23	26742.96
506.41	26443.37
506.58	26986.38
506.76	26581.46
506.93	27070.64
507.11	27101.06
507.28	27271.92
507.46	26909.14
507.63	27009.78
507.81	27180.64
507.98	27243.84
508.16	27206.39
508.33	27410.01
508.50	27786.84
508.68	27896.85
508.85	28222.18
509.03	27564.49
509.20	28114.52
509.38	28044.30
509.55	28589.64
509.73	28364.95
509.90	28437.51
510.08	28135.58
510.25	28226.86
510.42	28435.17
510.60	28435.17
510.77	28723.05
510.95	28966.47
511.12	28769.86
511.30	28926.68
511.47	29460.32
511.64	29050.73
511.82	29259.04
511.99	29240.31
512.17	29308.19
512.34	29315.21
512.51	29301.17
512.69	29558.63
512.86	29404.15
513.04	29860.55
513.21	29773.95
513.38	29832.47
513.56	30033.75
513.73	29867.58
513.90	30176.53
514.08	29886.30
514.25	30096.95
514.43	30302.92
514.60	30005.67
514.77	29895.66
514.95	30555.69
515.12	30457.39
515.29	30506.54
515.47	30541.65
515.64	30810.81
515.81	30501.86
515.99	30918.48
516.16	31218.07
516.33	31005.08
516.51	31115.08
516.68	30955.93
516.85	30553.35
517.03	30895.07
517.20	31241.47
517.37	31098.70
517.54	31449.78
517.72	31573.83
517.89	31592.55
518.06	31222.75
518.24	31559.78
518.41	31365.52
518.58	31587.87
518.75	31613.62
518.93	31871.07
519.10	31770.43
519.27	31679.15
519.45	32217.47
519.62	32294.71
519.79	32556.85
519.96	32121.51
520.14	33062.41
520.31	32261.94
520.48	32479.61
520.65	32442.17
520.83	32690.26
521.00	32844.74
521.17	33006.23
521.34	33027.30
521.52	33106.88
521.69	32989.85
521.86	33127.94
522.03	33205.18
522.20	33078.79
522.38	33226.24
522.55	33263.69
522.72	33134.96
522.89	33312.84
523.07	33692.01
523.24	33469.66
523.41	33745.84
523.58	33455.62
523.75	33975.22
523.92	33979.90
524.10	33958.83
524.27	34223.31
524.44	33865.21
524.61	34398.85
524.78	34256.08
524.96	34443.32
525.13	34338.00
525.30	34328.64
525.47	34459.71
525.64	34401.19
525.81	34787.38
525.98	34478.43
526.16	34581.42
526.33	34499.50
526.50	34852.92
526.67	34457.37
526.84	34761.64
527.01	34590.78
527.18	35047.18
527.36	34550.99
527.53	35119.74
527.70	35597.21
527.87	35388.90
528.04	35431.03
528.21	35487.20
528.38	35321.02
528.55	35573.80
528.72	35622.95
528.89	36086.38
529.07	35393.58
529.24	35398.26
529.41	35627.63
529.58	35725.94
529.75	35868.71
529.92	35852.33
530.09	35936.59
530.26	36067.66
530.43	36271.28
530.60	35583.16
530.77	36053.61
530.94	36165.96
531.11	36077.02
531.28	36268.94
531.46	36233.83
531.63	36285.33
531.80	36245.54
531.97	36327.45
532.14	36442.14
532.31	36404.69
532.48	36470.23
532.65	36634.06
532.82	36753.43
532.99	36591.94
533.16	36121.49
533.33	37156.00
533.50	36854.08
533.67	36788.54
533.84	37130.26
534.01	37308.14
534.18	36999.19
534.35	37406.44
534.52	37097.49
534.69	37429.85
534.86	37247.29
535.03	37502.40
535.20	37923.70
535.37	37727.10
535.54	37420.48
535.71	37556.24
535.88	37825.40
536.05	37628.79
536.22	37919.02
536.38	37762.20
536.55	38094.56
536.72	38019.66
536.89	37841.78
537.06	37879.23
537.23	37855.82
537.40	37970.51
537.57	37919.02
537.74	37818.38
537.91	38277.12
538.08	38213.93
538.25	37907.32
538.42	38342.66
538.59	38366.06
538.75	38082.86
538.92	38455.00
539.09	38639.90
539.26	38209.25
539.43	38391.81
539.60	38153.07
539.77	38260.74
539.94	38300.53
540.11	38375.42
540.28	38492.45
540.44	38855.23
540.61	38897.36
540.78	38405.85
540.95	38682.03
541.12	38838.85
541.29	38801.40
541.46	38672.67
541.62	39012.05
541.79	38880.98
541.96	38478.41
542.13	39072.90
542.30	39370.15
542.47	38562.67
542.63	38866.94
542.80	38871.62
542.97	39791.45
543.14	39770.38
543.31	39681.44
543.48	39587.82
543.64	39871.03
543.81	39529.31
543.98	39667.40
544.15	39552.71
544.32	39655.70
544.48	40364.88
544.65	40208.06
544.82	39646.33
544.99	39641.65
545.16	39941.24
545.32	40020.82
545.49	39936.56
545.66	40402.33
545.83	40086.36
546.00	40275.94
546.16	40217.43
546.33	39936.56
546.50	39456.75
546.67	40446.80
546.83	39711.87
547.00	40507.65
547.17	40311.05
547.34	40376.58
547.50	40229.13
547.67	40411.69
547.84	40957.03
548.00	40500.63
548.17	40697.24
548.34	40755.75
548.51	41165.34
548.67	40734.68
548.84	41254.28
549.01	41258.96
549.18	40528.72
549.34	41008.53
549.51	41235.56
549.68	41317.48
549.84	41132.57
550.01	41261.30
550.18	40889.16
550.34	41425.14
550.51	41060.02
550.68	40783.83
550.84	40896.18
551.01	41048.32
551.18	41036.61
551.34	41216.83
551.51	41518.76
551.68	41464.93
551.84	41598.34
552.01	40992.14
552.18	41624.09
552.34	40760.43
552.51	41558.55
552.68	41378.33
552.84	41385.35
553.01	41841.76
553.18	41268.33
553.34	41614.72
553.51	41394.71
553.67	41701.32
553.84	42026.66
554.01	41708.35
554.17	42246.67
554.34	42019.64
554.51	41881.55
554.67	41909.63
554.84	41832.39
555.00	41830.05
555.17	41888.57
555.33	41734.09
555.50	42234.97
555.67	42202.20
555.83	42316.89
556.00	42181.13
556.16	42244.33
556.33	42412.85
556.50	42340.29
556.66	42876.27
556.83	42511.15
556.99	42094.53
557.16	42431.57
557.32	42520.51
557.49	42244.33
557.65	41904.95
557.82	42417.53
557.98	42150.71
558.15	42389.44
558.32	42560.30
558.48	42583.71
558.65	42677.33
558.81	42307.52
558.98	42361.36
559.14	42333.27
559.31	42632.86
559.47	43035.43
559.64	42866.91
559.80	43587.80
559.97	43147.78
560.13	42377.74
560.30	42543.92
560.46	42546.26
560.63	42534.56
560.79	42836.48
560.96	43143.09
561.12	42972.24
561.29	42911.38
561.45	43119.69
561.61	42674.99
561.78	43040.11
561.94	42895.00
562.11	42965.21
562.27	42981.60
562.44	42777.97
562.60	43372.47
562.77	43007.34
562.93	43164.16
563.10	42990.96
563.26	42735.84
563.42	43012.02
563.59	42693.71
563.75	43051.81
563.92	43320.98
564.08	43276.51
564.24	43129.05
564.41	43222.67
564.57	42784.99
564.74	43377.15
564.90	43393.53
565.07	43636.95
565.23	43335.02
565.39	43255.44
565.56	43182.88
565.72	43255.44
565.88	43311.61
566.05	43192.25
566.21	43220.33
566.38	43187.56
566.54	43229.69
566.70	43320.98
566.87	43761.00
567.03	43255.44
567.19	43538.65
567.36	43178.20
567.52	42990.96
567.68	43400.55
567.85	43337.36
568.01	43735.25
568.17	43257.78
568.34	43304.59
568.50	43665.03
568.66	43318.64
568.83	43632.27
568.99	43339.70
569.15	43070.54
569.32	43973.98
569.48	43313.95
569.64	43882.70
569.81	43634.61
569.97	43302.25
570.13	43274.16
570.30	43026.07
570.46	43592.48
570.62	43412.26
570.78	43505.88
570.95	43543.33
571.11	43812.49
571.27	43569.07
571.43	43714.19
571.60	43779.72
571.76	43489.49
571.92	43597.16
572.09	43971.64
572.25	43838.23
572.41	43807.81
572.57	43943.56
572.74	43945.90
572.90	43576.09
573.06	43522.26
573.22	43737.59
573.38	43871.00
573.55	43611.20
573.71	43922.49
573.87	43536.30
574.03	43543.33
574.20	43924.83
574.36	43421.62
574.52	43756.32
574.68	43739.93
574.84	43819.51
575.01	43798.44
575.17	44151.87
575.33	43725.89
575.49	43903.77
575.65	44264.21
575.82	44275.91
575.98	43927.17
576.14	44236.12
576.30	43777.38
576.46	43737.59
576.62	43522.26
576.79	43679.08
576.95	43557.37
577.11	43405.23
577.27	43793.76
577.43	43763.34
577.59	43952.92
577.75	43873.34
577.92	43798.44
578.08	43744.61
578.24	43833.55
578.40	43697.80
578.56	43477.79
578.72	44116.76
578.88	44360.17
579.04	44048.88
579.21	43983.35
579.37	43234.38
579.53	43833.55
579.69	43543.33
579.85	43634.61
580.01	43674.40
580.17	44048.88
580.33	44608.27
580.49	44091.01
580.65	44006.75
580.82	44018.46
580.98	44058.24
581.14	44018.46
581.30	44287.62
581.46	43669.72
581.62	44149.53
581.78	44060.58
581.94	44332.09
582.10	43929.51
582.26	44423.37
582.42	44133.14
582.58	44114.42
582.74	43847.60
582.90	43999.73
583.06	44119.10
583.22	43927.17
583.38	44144.84
583.54	44069.95
583.70	43959.94
583.86	44032.50
584.02	43730.57
584.18	44074.63
584.34	44388.26
584.50	44041.86
584.66	44004.41
584.82	43833.55
584.98	44224.42
585.14	44121.44
585.30	43913.13
585.46	43964.62
585.62	44296.98
585.78	44091.01
585.94	43562.05
586.10	43737.59
586.26	43711.84
586.42	44102.71
586.58	44201.02
586.74	44074.63
586.90	43976.33
587.06	44306.34
587.22	44442.09
587.38	43856.96
587.54	44355.49
587.70	44172.93
587.86	43889.73
588.02	43838.23
588.18	44126.12
588.34	44093.35
588.49	44002.07
588.65	43969.30
588.81	43831.21
588.97	44540.39
589.13	43639.29
589.29	44238.47
589.45	44215.06
589.61	44402.30
589.77	44362.51
589.93	43943.56
590.08	44390.60
590.24	44582.52
590.40	44322.72
590.56	44502.95
590.72	44243.15
590.88	43955.26
591.04	44350.81
591.20	44732.32
591.35	44259.53
591.51	45067.02
591.67	44341.45
591.83	44233.78
591.99	44294.64
592.15	44336.77
592.31	44184.63
592.46	44149.53
592.62	44552.10
592.78	44388.26
592.94	44580.18
593.10	44055.90
593.26	44388.26
593.41	44336.77
593.57	44289.96
593.73	44664.44
593.89	44381.24
594.05	44322.72
594.20	44362.51
594.36	44617.63
594.52	44048.88
594.68	44545.08
594.84	44402.30
594.99	44870.41
595.15	44928.92
595.31	44516.99
595.47	44575.50
595.62	44889.13
595.78	44914.88
595.94	44617.63
596.10	44395.28
596.25	44512.31
596.41	44060.58
596.57	44659.76
596.73	44910.20
596.88	44561.46
597.04	44229.10
597.20	44566.14
597.36	44390.60
597.51	44753.38
597.67	44512.31
597.83	44678.49
597.99	45085.74
598.14	44240.81
598.30	44516.99
598.46	44498.26
598.61	44542.74
598.77	44435.07
598.93	44474.86
599.09	44502.95
599.24	44896.16
599.40	44673.81
599.56	44949.99
599.71	44509.97
599.87	44772.11
600.03	44528.69
600.18	44149.53
600.34	44809.56
600.50	44325.07
600.65	44402.30
600.81	44945.31
600.97	44947.65
601.12	44872.75
601.28	44942.97
601.44	44683.17
601.59	44488.90
601.75	44032.50
601.91	44804.88
602.06	44783.81
602.22	44559.12
602.37	44149.53
602.53	44671.46
602.69	44666.78
602.84	44718.28
603.00	44402.30
603.16	44062.93
603.31	44161.23
603.47	44374.22
603.62	44435.07
603.78	44306.34
603.94	44210.38
604.09	44589.55
604.25	44790.83
604.40	44800.19
604.56	44626.99
604.71	44350.81
604.87	44121.44
605.03	44713.59
605.18	44779.13
605.34	44367.20
605.49	44741.68
605.65	44624.65
605.80	44449.11
605.96	44837.64
606.12	44666.78
606.27	44732.32
606.43	44296.98
606.58	44395.28
606.74	44353.15
606.89	44189.31
607.05	44266.55
607.20	44252.51
607.36	44142.50
607.51	44128.46
607.67	44378.90
607.82	43903.77
607.98	43758.66
608.13	44191.65
608.29	44371.88
608.44	44240.81
608.60	43938.88
608.75	44151.87
608.91	44168.25
609.06	44161.23
609.22	45298.73
609.37	44065.27
609.53	44093.35
609.68	44261.87
609.84	43896.75
609.99	44238.47
610.15	43845.26
610.30	44144.84
610.46	44039.52
610.61	43936.54
610.76	44416.35
610.92	43934.20
611.07	43676.74
611.23	43929.51
611.38	44275.91
611.54	43854.62
611.69	43915.47
611.84	43643.97
612.00	43531.62
612.15	43985.69
612.31	44130.80
612.46	44006.75
612.62	44053.56
612.77	43817.17
612.92	44020.80
613.08	43255.44
613.23	43601.84
613.39	43501.20
613.54	43313.95
613.69	43723.55
613.85	43683.76
614.00	43978.67
614.15	43943.56
614.31	43852.28
614.46	43861.64
614.62	43917.81
614.77	44079.31
614.92	43915.47
615.08	43545.67
615.23	43650.99
615.38	43599.50
615.54	43229.69
615.69	43370.13
615.84	42939.47
616.00	43540.99
616.15	43306.93
616.30	43157.14
616.46	43122.03
616.61	43445.02
616.76	43505.88
616.92	43269.48
617.07	42969.90
617.22	43365.45
617.37	42768.61
617.53	42944.15
617.68	43225.01
617.83	43140.75
617.99	43407.58
618.14	43157.14
618.29	43171.18
618.45	42841.17
618.60	43194.59
618.75	43264.80
618.90	43594.82
619.06	43538.65
619.21	43115.01
619.36	43126.71
619.51	42749.88
619.67	42993.30
619.82	43175.86
619.97	43285.87
620.12	42595.41
620.28	42539.24
620.43	42703.07
620.58	42225.60
620.73	43012.02
620.89	42941.81
621.04	42932.45
621.19	42567.32
621.34	42658.60
621.49	42628.18
621.65	42447.96
621.80	42185.82
621.95	42473.70
622.10	42478.38
622.25	42494.77
622.41	41904.95
622.56	42462.00
622.71	42340.29
622.86	42499.45
623.01	42621.16
623.16	42550.94
623.32	42696.05
623.47	42745.20
623.62	42567.32
623.77	42260.71
623.92	42246.67
624.07	42473.70
624.23	41881.55
624.38	41998.57
624.53	41841.76
624.68	42160.07
624.83	42368.38
624.98	42251.35
625.13	42326.25
625.29	42504.13
625.44	42478.38
625.59	42129.64
625.74	41661.54
625.89	41202.79
626.04	41689.62
626.19	41785.58
626.34	41918.99
626.49	42162.41
626.65	42129.64
626.80	42012.62
626.95	41844.10
627.10	41614.72
627.25	41663.88
627.40	41706.01
627.55	41532.81
627.70	40992.14
627.85	41064.70
628.00	41528.13
628.15	41624.09
628.30	41904.95
628.45	41588.98
628.60	41359.61
628.76	41544.51
628.91	41556.21
629.06	41570.25
629.21	41553.87
629.36	40999.16
629.51	41202.79
629.66	41104.49
629.81	40835.33
629.96	41593.66
630.11	41722.39
630.26	41418.12
630.41	41336.20
630.56	40942.99
630.71	41277.69
630.86	41116.19
631.01	40999.16
631.16	41483.66
631.31	40594.25
631.46	40390.62
631.61	41151.30
631.76	40879.80
631.91	40643.40
632.06	40875.12
632.21	40818.94
632.36	41071.72
632.51	40708.94
632.66	40781.49
632.81	40318.07
632.96	40999.16
633.10	40418.71
633.25	40720.64
633.40	40439.78
633.55	40896.18
633.70	40697.24
633.85	40652.76
634.00	40605.95
634.15	40554.46
634.30	40463.18
634.45	40463.18
634.60	40524.04
634.75	40620.00
634.90	40748.73
635.05	39913.16
635.19	40671.49
635.34	40926.61
635.49	40671.49
635.64	40013.80
635.79	40205.72
635.94	40467.86
636.09	40037.20
636.24	40163.59
636.39	40112.10
636.53	39538.67
636.68	39859.32
636.83	39964.65
636.98	40084.01
637.13	39672.08
637.28	39931.88
637.43	40184.66
637.57	40512.33
637.72	39786.77
637.87	39889.75
638.02	40334.45
638.17	39814.85
638.32	39608.89
638.46	39203.97
638.61	39878.05
638.76	39321.00
638.91	39356.11
639.06	39604.20
639.20	39955.29
639.35	39922.52
639.50	39611.23
639.65	39962.31
639.80	39653.36
639.94	39487.18
640.09	39702.51
640.24	39335.04
640.39	39145.46
640.54	39594.84
640.68	39489.52
640.83	39576.12
640.98	39491.86
641.13	39313.98
641.27	39716.55
641.42	39423.98
641.57	39173.55
641.72	39667.40
641.86	39248.44
642.01	39056.52
642.16	39627.61
642.31	38684.37
642.45	39278.87
642.60	39033.11
642.75	39028.43
642.90	38738.21
643.04	39281.21
643.19	38541.60
643.34	39208.65
643.48	38787.36
643.63	38766.29
643.78	38843.53
643.93	38487.77
644.07	38134.35
644.22	38892.68
644.37	38609.48
644.51	38630.54
644.66	38600.12
644.81	38930.13
644.95	38911.41
645.10	38831.83
645.25	38749.91
645.39	38815.44
645.54	39206.31
645.69	38763.95
645.83	38382.45
645.98	38321.59
646.13	38455.00
646.27	38738.21
646.42	38195.20
646.57	38700.76
646.71	38572.03
646.86	38328.61
647.00	38263.08
647.15	38447.98
647.30	38689.06
647.44	38625.86
647.59	38635.22
647.74	37951.79
647.88	38387.13
648.03	37869.87
648.17	38555.64
648.32	37825.40
648.47	37984.55
648.61	37647.52
648.76	38382.45
648.90	37790.29
649.05	38487.77
649.20	38258.40
649.34	38176.48
649.49	38087.54
649.63	37942.42
649.78	37879.23
649.92	37666.24
650.07	38195.20
650.21	37853.48
650.36	37954.13
650.51	37574.96
650.65	38249.03
650.80	38199.88
650.94	37729.44
651.09	37830.08
651.23	37603.05
651.38	37951.79
651.52	37764.54
651.67	37668.58
651.81	37336.23
651.96	37160.69
652.10	37270.69
652.25	37773.91
652.39	37226.22
652.54	37691.99
652.68	37359.63
652.83	37474.32
652.97	37762.20
653.12	37521.13
653.26	37518.79
653.41	37160.69
653.55	37013.23
653.70	37404.10
653.84	36858.76
653.99	37551.56
654.13	37436.87
654.27	37273.03
654.42	37242.60
654.56	36945.36
654.71	37347.93
654.85	36989.83
655.00	37015.57
655.14	37062.38
655.29	36907.91
655.43	36828.33
655.57	37326.86
655.72	36809.61
655.86	36898.55
656.01	37097.49
656.15	36615.34
656.30	36582.57
656.44	36837.69
656.58	36730.03
656.73	36833.01
656.87	36528.74
657.01	36465.55
657.16	36477.25
657.30	36680.88
657.45	36091.06
657.59	36325.11
657.73	36086.38
657.88	36814.29
658.02	36126.17
658.16	36177.66
658.31	36388.31
658.45	36395.33
658.60	36280.64
658.74	35964.67
658.88	36261.92
659.03	36360.22
659.17	35974.03
659.31	36053.61
659.46	36105.10
659.60	36231.49
659.74	35871.05
659.89	35321.02
660.03	35606.57
660.17	35751.68
660.32	35697.85
660.46	35990.42
660.60	35805.52
660.74	36151.91
660.89	36046.59
661.03	35398.26
661.17	35321.02
661.32	34988.67
661.46	35480.18
661.60	35016.75
661.74	35353.79
661.89	35178.25
662.03	35384.22
662.17	35220.38
662.31	35173.57
662.46	35391.24
662.60	35138.46
662.74	34965.26
662.88	35115.06
663.03	34665.67
663.17	34768.66
663.31	34754.61
663.45	35189.95
663.60	34684.40
663.74	34871.64
663.88	34403.53
664.02	34174.16
664.17	34485.45
664.31	34651.63
664.45	34244.38
664.59	34820.15
664.73	34728.87
664.88	34382.47
665.02	34412.90
665.16	34593.12
665.30	34623.54
665.44	34019.69
665.59	34242.04
665.73	33495.41
665.87	33928.41
666.01	34113.31
666.15	34054.79
666.29	33951.81
666.44	33965.85
666.58	33865.21
666.72	33652.22
666.86	34019.69
667.00	33727.12
667.14	33242.63
667.28	33542.22
667.43	33472.00
667.57	33422.85
667.71	33294.12
667.85	33074.11
667.99	33338.59
668.13	33401.79
668.27	32872.82
668.41	33495.41
668.56	33078.79
668.70	33064.75
668.84	32938.36
668.98	33060.07
669.12	32842.40
669.26	32486.64
669.40	32797.93
669.54	33102.20
669.68	32505.36
669.82	32701.96
669.96	32545.15
670.10	32346.20
670.25	32622.39
670.39	32395.35
670.53	32566.21
670.67	32252.58
670.81	32322.80
670.95	32226.84
671.09	32566.21
671.23	32236.20
671.37	32210.45
671.51	32037.25
671.65	32027.89
671.79	31936.61
671.93	31969.38
672.07	32053.64
672.21	31889.80
672.35	31260.20
672.49	31875.76
672.63	31660.43
672.77	31370.20
672.91	31166.57
673.05	31035.50
673.19	31047.21
673.33	30728.89
673.47	30773.36
673.61	30756.98
673.75	30890.39
673.89	30869.33
674.03	30829.54
674.17	30799.11
674.31	30735.92
674.45	30326.32
674.59	30632.93
674.73	30714.85
674.87	30286.53
675.01	30569.74
675.15	30464.41
675.29	30696.13
675.43	30221.00
675.56	30417.60
675.70	30340.36
675.84	29823.11
675.98	29252.02
676.12	29706.08
676.26	29600.76
676.40	29603.10
676.54	29511.81
676.68	29572.67
676.82	29099.88
676.96	29380.74
677.10	29046.05
677.23	29113.92
677.37	28996.90
677.51	29228.61
677.65	29036.69
677.79	28720.71
677.93	28577.94
678.07	28816.68
678.21	28011.53
678.34	28247.93
678.48	28126.22
678.62	28212.82
678.76	27985.79
678.90	28259.63
679.04	28259.63
679.18	28002.17
679.31	27564.49
679.45	27723.65
679.59	27550.45
679.73	27679.18
679.87	27484.91
680.00	27576.19
680.14	27349.16
680.28	27524.70
680.42	27166.60
680.56	27187.66
680.70	27058.93
680.83	27175.96
680.97	26789.77
681.11	27080.00
681.25	26918.50
681.39	26677.43
681.52	26628.27
681.66	26368.48
681.80	26602.53
681.94	26345.07
682.07	26672.74
682.21	25858.24
682.35	26312.30
682.49	25663.97
682.62	26244.43
682.76	25942.50
682.90	25692.06
683.04	25727.17
683.17	25844.20
683.31	25603.12
683.45	25689.72
683.59	25579.71
683.72	25127.99
683.86	25174.80
684.00	24952.45
684.13	25116.29
684.27	24601.37
684.41	24915.00
684.55	25125.65
684.68	25167.78
684.82	24273.70
684.96	24765.21
685.09	24559.24
685.23	24594.35
685.37	24353.27
685.50	24409.45
685.64	24088.79
685.78	23873.46
685.91	23824.31
686.05	23583.24
686.19	23552.81
686.32	23864.10
686.46	23206.41
686.60	23138.54
686.73	23342.16
686.87	22948.95
687.01	23089.38
687.14	22855.33
687.28	22785.12
687.42	22895.12
687.55	22909.16
687.69	22733.62
687.82	22242.11
687.96	22515.95
688.10	22944.27
688.23	22284.24
688.37	22181.26
688.50	22019.76
688.64	22005.72
688.78	22118.06
688.91	22019.76
689.05	22148.49
689.18	22017.42
689.32	21888.69
689.46	21589.10
689.59	21795.07
689.73	22188.28
689.86	21727.19
690.00	21181.85
690.13	21673.36
690.27	21364.41
690.41	21586.76
690.54	20931.41
690.68	20753.53
690.81	20847.15
690.95	21025.03
691.08	20589.69
691.22	20486.71
691.35	20980.56
691.49	20776.94
691.62	20692.68
691.76	20526.50
691.89	20126.27
692.03	20238.61
692.16	20081.80
692.30	20161.37
692.43	20084.14
692.57	19655.82
692.70	19744.76
692.84	19873.49
692.97	19597.31
693.11	19552.84
693.24	19697.95
693.38	19314.10
693.51	19215.80
693.65	19489.64
693.78	19222.82
693.92	19466.24
694.05	19389.00
694.19	19562.20
694.32	19094.09
694.45	19007.49
694.59	19087.07
694.72	18782.80
694.86	18897.49
694.99	19054.30
695.13	18597.90
695.26	18387.25
695.39	18202.35
695.53	18281.92
695.66	17994.04
695.80	18118.09
695.93	17846.58
696.07	17729.56
696.20	17802.11
696.33	17640.62
696.47	17834.88
696.60	17715.51
696.73	17860.63
696.87	17745.94
697.00	17706.15
697.14	17376.14
697.27	17202.94
697.40	17500.19
697.54	17053.14
697.67	16978.25
697.80	17034.42
697.94	16823.77
698.07	16830.79
698.21	16971.22
698.34	16767.60
698.47	16720.79
698.61	16645.89
698.74	16617.80
698.87	16411.84
699.01	16269.06
699.14	16327.58
699.27	16163.74
699.40	16262.04
699.54	15882.88
699.67	15817.34
699.80	15967.13
699.94	15953.09
700.07	15939.05
700.20	15915.64
700.34	15578.61
700.47	15632.44
700.60	15843.09
700.73	15812.66
700.87	15475.62
701.00	15110.50
701.13	15384.34
701.26	15262.63
701.40	15227.53
701.53	15274.34
701.66	14810.91
701.79	14925.60
701.93	14813.25
702.06	14473.87
702.19	14824.95
702.32	14733.67
702.46	14438.76
702.59	14555.79
702.72	14438.76
702.85	14693.88
702.99	14604.94
703.12	14684.52
703.25	14513.66
703.38	14504.30
703.51	14167.26
703.65	14146.20
703.78	14071.30
703.91	14050.24
704.04	14085.34
704.17	14164.92
704.31	13919.17
704.44	13612.56
704.57	13394.89
704.70	13638.30
704.83	13549.36
704.96	13444.04
705.10	13673.41
705.23	13818.52
>>>>>End Processed Spectral Data<<<<<
