SpectraSuite Data File
++++++++++++++++++++++++++++++++++++
Date: Fri Oct 25 10:44:42 EDT 2013
User: price-jones
Dark Spectrum Present: No
Reference Spectrum Present: No
Number of Sampled Component Spectra: 1
Spectrometers: USB2+H05261
Integration Time (usec): 100000 (USB2+H05261)
Spectra Averaged: 1 (USB2+H05261)
Boxcar Smoothing: 0 (USB2+H05261)
Correct for Electrical Dark: No (USB2+H05261)
Strobe/Lamp Enabled: No (USB2+H05261)
Correct for Detector Non-linearity: No (USB2+H05261)
Correct for Stray Light: No (USB2+H05261)
Number of Pixels in Processed Spectrum: 2048
>>>>>Begin Processed Spectral Data<<<<<
365.73	140.43
365.92	140.43
366.12	140.43
366.32	105.32
366.52	0.00
366.72	63.19
366.91	70.22
367.11	28.09
367.31	23.41
367.51	0.00
367.70	88.94
367.90	114.69
368.10	2.34
368.30	49.15
368.49	44.47
368.69	114.69
368.89	11.70
369.09	44.47
369.28	88.94
369.48	23.41
369.68	126.39
369.87	145.11
370.07	42.13
370.27	152.13
370.47	175.54
370.66	271.50
370.86	379.17
371.06	411.93
371.25	440.02
371.45	416.62
371.65	468.11
371.84	435.34
372.04	421.30
372.24	372.15
372.44	486.83
372.63	479.81
372.83	505.56
373.03	428.32
373.22	463.43
373.42	573.43
373.62	489.17
373.81	510.24
374.01	608.54
374.21	519.60
374.40	524.28
374.60	533.64
374.79	498.53
374.99	538.32
375.19	528.96
375.38	514.92
375.58	575.77
375.78	512.58
375.97	622.58
376.17	617.90
376.37	550.03
376.56	585.13
376.76	550.03
376.95	538.32
377.15	526.62
377.35	557.05
377.54	641.31
377.74	629.60
377.93	622.58
378.13	608.54
378.33	650.67
378.52	610.88
378.72	622.58
378.91	650.67
379.11	568.75
379.31	594.50
379.50	608.54
379.70	699.82
379.89	543.00
380.09	638.97
380.28	664.71
380.48	627.26
380.68	608.54
380.87	613.22
381.07	671.73
381.26	660.03
381.46	613.22
381.65	683.44
381.85	624.92
382.04	683.44
382.24	704.50
382.43	606.20
382.63	641.31
382.83	678.76
383.02	664.71
383.22	664.71
383.41	629.60
383.61	706.84
383.80	711.52
384.00	753.65
384.19	669.39
384.39	772.38
384.58	734.93
384.78	786.42
384.97	758.33
385.17	746.63
385.36	690.46
385.56	730.25
385.75	786.42
385.95	814.51
386.14	671.73
386.34	830.89
386.53	833.23
386.72	753.65
386.92	734.93
387.11	851.96
387.31	819.19
387.50	847.27
387.70	835.57
387.89	765.36
388.09	774.72
388.28	798.12
388.48	912.81
388.67	849.61
388.86	814.51
389.06	807.48
389.25	950.26
389.45	805.14
389.64	896.43
389.84	849.61
390.03	854.30
390.22	903.45
390.42	889.40
390.61	898.77
390.81	905.79
391.00	1027.50
391.19	1069.62
391.39	976.00
391.58	983.02
391.78	917.49
391.97	978.34
392.16	978.34
392.36	1057.92
392.55	1013.45
392.75	959.62
392.94	940.90
393.13	903.45
393.33	950.26
393.52	976.00
393.71	1013.45
393.91	999.41
394.10	938.55
394.29	1013.45
394.49	1107.07
394.68	1027.50
394.88	1238.14
395.07	1153.88
395.26	1160.91
395.46	1114.10
395.65	1078.99
395.84	1181.97
396.04	1242.82
396.23	1064.94
396.42	1008.77
396.62	1008.77
396.81	1090.69
397.00	1153.88
397.19	1158.57
397.39	1149.20
397.58	1284.95
397.77	1193.67
397.97	1259.21
398.16	1256.87
398.35	1359.85
398.55	1226.44
398.74	1268.57
398.93	1315.38
399.12	1247.51
399.32	1287.29
399.51	1320.06
399.70	1359.85
399.90	1350.49
400.09	1413.68
400.28	1465.18
400.47	1338.79
400.67	1313.04
400.86	1432.41
401.05	1514.33
401.24	1458.15
401.44	1558.80
401.63	1526.03
401.82	1523.69
402.01	1533.05
402.21	1362.19
402.40	1551.78
402.59	1481.56
402.78	1516.67
402.97	1673.48
403.17	1572.84
403.36	1626.67
403.55	1593.90
403.74	1671.14
403.93	1739.02
404.13	1682.85
404.32	1694.55
404.51	1652.42
404.70	1699.23
404.89	1699.23
405.09	1739.02
405.28	1750.72
405.47	1666.46
405.66	1755.40
405.85	1778.81
406.05	1802.21
406.24	1753.06
406.43	1668.80
406.62	1797.53
406.81	1804.55
407.00	1891.15
407.20	1741.36
407.39	1837.32
407.58	1952.01
407.77	1933.28
407.96	2024.56
408.15	1956.69
408.34	1900.52
408.54	1973.07
408.73	1895.83
408.92	1949.67
409.11	2045.63
409.30	2043.29
409.49	2132.23
409.68	2073.71
409.87	2174.36
410.07	2242.23
410.26	2115.84
410.45	2160.31
410.64	2127.55
410.83	2101.80
411.02	2221.17
411.21	2172.02
411.40	2256.28
411.59	2272.66
411.78	2354.58
411.98	2209.47
412.17	2445.86
412.36	2392.03
412.55	2471.61
412.74	2413.09
412.93	2406.07
413.12	2485.65
413.31	2600.34
413.50	2459.90
413.69	2565.23
413.88	2492.67
414.07	2576.93
414.26	2647.15
414.45	2597.99
414.64	2548.84
414.83	2712.68
415.02	2686.94
415.22	2885.88
415.41	2775.88
415.60	2848.43
415.79	2939.71
415.98	2829.71
416.17	2892.90
416.36	2773.53
416.55	2850.77
416.74	2853.11
416.93	2813.32
417.12	2925.67
417.31	2913.97
417.50	2860.13
417.69	3042.70
417.88	2972.48
418.07	2869.50
418.26	2920.99
418.45	3082.49
418.64	3281.43
418.83	3255.69
419.02	3169.09
419.21	3173.77
419.39	3166.74
419.58	3087.17
419.77	3080.14
419.96	3173.77
420.15	3293.13
420.34	3304.84
420.53	3403.14
420.72	3403.14
420.91	3426.54
421.10	3475.70
421.29	3499.10
421.48	3478.04
421.67	3424.20
421.86	3438.25
422.05	3365.69
422.24	3513.14
422.43	3440.59
422.61	3417.18
422.80	3545.91
422.99	3499.10
423.18	3543.57
423.37	3698.05
423.56	3576.34
423.75	3400.80
423.94	3400.80
424.13	3410.16
424.32	3368.03
424.50	3578.68
424.69	3543.57
424.88	3522.51
425.07	3522.51
425.26	3487.40
425.45	3557.61
425.64	3545.91
425.83	3599.74
426.01	3555.27
426.20	3548.25
426.39	3585.70
426.58	3667.62
426.77	3548.25
426.96	3557.61
427.15	3562.30
427.33	3726.13
427.52	3620.81
427.71	3779.97
427.90	3574.00
428.09	3749.54
428.28	3730.81
428.46	3786.99
428.65	3669.96
428.84	3719.11
429.03	3796.35
429.22	3686.34
429.40	3801.03
429.59	3765.92
429.78	3574.00
429.97	3583.36
430.16	3630.17
430.34	3719.11
430.53	3836.14
430.72	3962.53
430.91	3967.21
431.10	3871.25
431.28	4030.40
431.47	4156.79
431.66	4086.58
431.85	4109.98
432.03	4147.43
432.22	4276.16
432.41	4262.12
432.60	4166.15
432.79	4287.86
432.97	4238.71
433.16	4180.20
433.35	4287.86
433.54	4166.15
433.72	4222.33
433.91	4177.86
434.10	4397.87
434.28	4304.25
434.47	4425.95
434.66	4489.15
434.85	4395.53
435.03	4561.70
435.22	4477.44
435.41	4594.47
435.59	4564.04
435.78	4554.68
435.97	4624.90
436.16	4540.64
436.34	4482.13
436.53	4641.28
436.72	4791.08
436.90	4425.95
437.09	4725.54
437.28	4550.00
437.46	4603.83
437.65	4685.75
437.84	4695.11
438.02	4772.35
438.21	4629.58
438.40	4664.69
438.58	4837.89
438.77	4903.42
438.96	4912.78
439.14	4858.95
439.33	5125.77
439.52	5093.01
439.70	4947.89
439.89	5174.92
440.08	5195.99
440.26	5046.20
440.45	5111.73
440.63	5324.72
440.82	5537.71
441.01	5366.85
441.19	5352.81
441.38	5301.31
441.57	5352.81
441.75	5476.85
441.94	5652.39
442.12	5689.84
442.31	5511.96
442.50	5858.36
442.68	5617.29
442.87	5650.05
443.05	5774.10
443.24	5792.83
443.43	5771.76
443.61	5792.83
443.80	5792.83
443.98	5617.29
444.17	5526.00
444.35	5738.99
444.54	5919.21
444.73	5856.02
444.91	5715.59
445.10	5778.78
445.28	5771.76
445.47	5795.17
445.65	5661.76
445.84	5874.74
446.02	5856.02
446.21	5949.64
446.39	5914.53
446.58	5748.36
446.77	5987.09
446.95	5823.25
447.14	5980.07
447.32	6115.82
447.51	5949.64
447.69	5893.47
447.88	5935.60
448.06	6008.16
448.25	6003.47
448.43	5956.66
448.62	6111.14
448.80	5956.66
448.99	6113.48
449.17	6136.88
449.36	6019.86
449.54	6113.48
449.73	6338.17
449.91	6422.43
450.10	6352.21
450.28	6277.32
450.46	6352.21
450.65	6612.01
450.83	6593.29
451.02	6303.06
451.20	6637.76
451.39	6513.71
451.57	6525.41
451.76	6452.86
451.94	6387.32
452.13	6387.32
452.31	6413.07
452.49	6431.79
452.68	6368.60
452.86	6518.39
453.05	6593.29
453.23	6623.72
453.42	6586.27
453.60	6586.27
453.78	6574.56
453.97	6392.00
454.15	6548.82
454.34	6534.78
454.52	6810.96
454.70	6729.04
454.89	6693.93
455.07	6810.96
455.26	6855.43
455.44	6984.16
455.62	6991.18
455.81	7054.37
455.99	7040.33
456.17	6956.07
456.36	6918.62
456.54	7075.44
456.73	7045.01
456.91	7325.88
457.09	7148.00
457.28	7445.24
457.46	7166.72
457.64	7295.45
457.83	7293.11
458.01	7253.32
458.19	7414.82
458.38	7302.47
458.56	7339.92
458.74	7250.98
458.93	7468.65
459.11	7293.11
459.29	7470.99
459.48	7543.55
459.66	7372.69
459.84	7492.05
460.03	7728.45
460.21	7592.70
460.39	7597.38
460.57	7641.85
460.76	7838.45
460.94	7712.07
461.12	7840.79
461.31	7796.32
461.49	7922.71
461.67	7913.35
461.85	7922.71
462.04	7927.39
462.22	8121.66
462.40	7962.50
462.59	8044.42
462.77	8009.31
462.95	8196.56
463.13	8049.10
463.32	8112.30
463.50	8039.74
463.68	8042.08
463.86	8035.06
464.05	8095.91
464.23	7950.80
464.41	8245.71
464.59	8138.04
464.78	8166.13
464.96	8308.90
465.14	8159.11
465.32	8344.01
465.50	8552.32
465.69	8336.99
465.87	8184.85
466.05	8070.17
466.23	8205.92
466.41	8372.10
466.60	8432.95
466.78	8306.56
466.96	8454.02
467.14	8379.12
467.32	8585.08
467.51	8482.10
467.69	8374.44
467.87	8458.70
468.05	8802.75
468.23	8641.26
468.41	8425.93
468.60	8582.74
468.78	8610.83
468.96	8800.41
469.14	8683.39
469.32	8901.06
469.50	8594.45
469.69	8744.24
469.87	8856.59
470.05	8952.55
470.23	9153.84
470.41	8978.30
470.59	8851.91
470.77	8954.89
470.95	9034.47
471.14	9177.24
471.32	9022.77
471.50	9116.39
471.68	9275.54
471.86	9212.35
472.04	9048.51
472.22	9472.15
472.40	9312.99
472.58	9394.91
472.77	9465.13
472.95	9502.58
473.13	9874.72
473.31	9327.03
473.49	9741.31
473.67	9425.34
473.85	9774.08
474.03	9973.02
474.21	10080.69
474.39	9933.23
474.57	10092.39
474.75	10085.37
474.93	9998.77
475.12	10272.61
475.30	10183.67
475.48	10162.61
475.66	10169.63
475.84	10267.93
476.02	10216.44
476.20	10157.92
476.38	10408.36
476.56	10836.68
476.74	10656.46
476.92	10607.31
477.10	10539.43
477.28	11147.97
477.46	10960.73
477.64	11112.86
477.82	11103.50
478.00	11119.89
478.18	11382.03
478.36	11295.43
478.54	11555.22
478.72	11440.54
478.90	11346.92
479.08	11976.52
479.26	11871.20
479.44	12039.72
479.62	11885.24
479.80	12088.87
479.98	12161.42
480.16	12566.34
480.34	12400.16
480.52	12393.14
480.70	12388.46
480.88	12468.03
481.06	12521.87
481.24	12580.38
481.41	12758.26
481.59	13090.62
481.77	13107.00
481.95	13144.45
482.13	13221.69
482.31	13256.79
482.49	13717.88
482.67	13549.36
482.85	13654.69
483.03	13556.38
483.21	13661.71
483.39	13748.31
483.57	13830.23
483.74	14104.07
483.92	14167.26
484.10	14178.97
484.28	14256.20
484.46	14504.30
484.64	14843.68
484.82	14377.91
485.00	14679.84
485.18	15281.36
485.35	15110.50
485.53	15023.90
485.71	15035.60
485.89	15400.72
486.07	15138.58
486.25	15393.70
486.43	15648.82
486.61	15461.58
486.78	15805.64
486.96	16119.27
487.14	15934.37
487.32	16208.21
487.50	16379.07
487.68	16500.78
487.85	16776.96
488.03	16886.97
488.21	17069.53
488.39	17043.78
488.57	17277.83
488.75	17411.25
488.92	17619.55
489.10	17572.74
489.28	17865.31
489.46	17818.50
489.64	17942.55
489.81	18162.56
489.99	18347.46
490.17	18420.02
490.35	18642.37
490.53	18703.22
490.70	18874.08
490.88	18754.71
491.06	19349.21
491.24	18977.06
491.41	18988.77
491.59	19353.89
491.77	19101.11
491.95	19407.72
492.13	19307.08
492.30	19852.42
492.48	20016.26
492.66	19594.96
492.84	19906.26
493.01	19793.91
493.19	20161.37
493.37	20369.68
493.54	20744.17
493.72	20746.51
493.90	20716.08
494.08	20844.81
494.25	20823.75
494.43	21074.18
494.61	21153.76
494.79	21167.80
494.96	21497.82
495.14	21366.75
495.32	21886.35
495.49	22136.79
495.67	21710.81
495.85	22136.79
496.02	22026.78
496.20	22396.59
496.38	22183.60
496.55	22588.51
496.73	22794.48
496.91	22588.51
497.09	23026.19
497.26	22628.30
497.44	22963.00
497.62	23002.78
497.79	23304.71
497.97	22981.72
498.14	23332.80
498.32	23225.14
498.50	23550.47
498.67	23845.38
498.85	24006.87
499.03	24135.60
499.20	23803.25
499.38	24067.73
499.56	24287.74
499.73	24362.64
499.91	24299.44
500.08	24486.68
500.26	24416.47
500.44	24421.15
500.61	24692.65
500.79	24882.24
500.97	24793.29
501.14	25025.01
501.32	25193.53
501.49	25015.65
501.67	25497.80
501.84	25249.70
502.02	25331.62
502.20	25298.85
502.37	25855.90
502.55	25465.03
502.72	25991.65
502.90	26195.28
503.07	25785.68
503.25	25724.83
503.43	25418.22
503.60	25965.90
503.78	26377.84
503.95	25902.71
504.13	26389.54
504.30	26623.59
504.48	26391.88
504.65	26614.23
504.83	26855.31
505.01	27220.43
505.18	26813.18
505.36	27007.44
505.53	26944.25
505.71	27166.60
505.88	27496.61
506.06	27016.80
506.23	27117.45
506.41	27292.99
506.58	27395.97
506.76	27697.90
506.93	27730.67
507.11	27655.77
507.28	27627.68
507.46	27735.35
507.63	27620.66
507.81	27789.18
507.98	27999.83
508.16	28173.03
508.33	28081.75
508.50	28374.31
508.68	28606.03
508.85	28917.32
509.03	28940.72
509.20	28882.21
509.38	29097.54
509.55	28566.24
509.73	28957.11
509.90	29029.66
510.08	29163.08
510.25	28828.38
510.42	29113.92
510.60	29322.23
510.77	29479.05
510.95	29736.51
511.12	29575.01
511.30	29773.95
511.47	29961.20
511.64	29998.65
511.82	30272.49
511.99	30134.40
512.17	30003.33
512.34	30043.12
512.51	30120.35
512.69	30560.37
512.86	30110.99
513.04	30866.98
513.21	30658.68
513.38	30260.79
513.56	30625.91
513.73	30520.59
513.90	30370.79
514.08	30525.27
514.25	30838.90
514.43	30780.39
514.60	31037.84
514.77	30778.04
514.95	31318.71
515.12	31005.08
515.29	31089.34
515.47	31899.16
515.64	31578.51
515.81	31545.74
515.99	31461.48
516.16	31585.53
516.33	31299.98
516.51	31737.66
516.68	31316.37
516.85	31646.38
517.03	31709.58
517.20	31637.02
517.37	32032.57
517.54	32020.87
517.72	32006.83
517.89	32147.26
518.06	31826.60
518.24	31950.65
518.41	31941.29
518.58	31952.99
518.75	32538.13
518.93	32510.04
519.10	32350.88
519.27	32620.05
519.45	32620.05
519.62	32924.32
519.79	32884.53
519.96	32914.95
520.14	32811.97
520.31	33116.24
520.48	33031.98
520.65	32999.21
520.83	33546.90
521.00	33654.56
521.17	33359.66
521.34	33769.25
521.52	33593.71
521.69	33654.56
521.86	34125.01
522.03	33677.97
522.20	34092.24
522.38	34478.43
522.55	33708.40
522.72	33944.79
522.89	33912.02
523.07	34202.25
523.24	34162.46
523.41	34511.20
523.58	34426.94
523.75	34595.46
523.92	34660.99
524.10	34497.16
524.27	35044.84
524.44	34888.03
524.61	34672.70
524.78	35131.44
524.96	35145.48
525.13	34948.88
525.30	35461.46
525.47	35321.02
525.64	35232.08
525.81	35365.49
525.98	35166.55
526.16	35021.44
526.33	35026.12
526.50	35370.18
526.67	35325.71
526.84	35435.71
527.01	35133.78
527.18	35639.34
527.36	35992.76
527.53	35875.73
527.70	36346.18
527.87	36011.48
528.04	35957.65
528.21	35929.56
528.38	36325.11
528.55	36456.18
528.72	36100.42
528.89	36196.38
529.07	36479.59
529.24	35859.35
529.41	36458.52
529.58	36041.91
529.75	36123.83
529.92	36605.98
530.09	36973.44
530.26	36865.78
530.43	36889.18
530.60	36762.79
530.77	36793.22
530.94	36861.10
531.11	36388.31
531.28	36804.92
531.46	37364.31
531.63	37343.25
531.80	36802.58
531.97	37326.86
532.14	37043.66
532.31	37008.55
532.48	36975.78
532.65	37294.10
532.82	37284.73
532.99	37310.48
533.16	37219.20
533.33	37486.02
533.50	37598.37
533.67	37708.37
533.84	37919.02
534.01	37972.85
534.18	37675.60
534.35	37818.38
534.52	37603.05
534.69	38033.71
534.86	37710.71
535.03	38094.56
535.20	38391.81
535.37	38342.66
535.54	38375.42
535.71	38728.84
535.88	38457.34
536.05	38040.73
536.22	38485.43
536.38	38452.66
536.55	38256.06
536.72	38108.60
536.89	38267.76
537.06	38265.42
537.23	38480.75
537.40	38696.08
537.57	38689.06
537.74	38813.10
537.91	39292.91
538.08	38948.85
538.25	38539.26
538.42	39016.73
538.59	39337.38
538.75	38525.22
538.92	38857.57
539.09	39023.75
539.26	38607.14
539.43	38990.98
539.60	39210.99
539.77	38993.32
539.94	39311.64
540.11	39508.24
540.28	39393.56
540.44	39328.02
540.61	39164.18
540.78	39482.50
540.95	39201.63
541.12	38920.77
541.29	39440.37
541.46	39475.48
541.62	39360.79
541.79	39391.22
541.96	39416.96
542.13	39842.94
542.30	39461.43
542.47	39805.49
542.63	39873.37
542.80	39812.51
542.97	40320.41
543.14	40786.18
543.31	40212.74
543.48	40404.67
543.64	40645.74
543.81	40762.77
543.98	40648.08
544.15	40229.13
544.32	40189.34
544.48	41088.10
544.65	40765.11
544.82	40781.49
544.99	40297.00
545.16	40711.28
545.32	40273.60
545.49	40964.06
545.66	40769.79
545.83	41268.33
546.00	41233.22
546.16	41050.66
546.33	41048.32
546.50	40645.74
546.67	41303.43
546.83	40701.92
547.00	40832.99
547.17	41109.17
547.34	41270.67
547.50	40636.38
547.67	41095.13
547.84	41226.20
548.00	41579.62
548.17	41572.60
548.34	41516.42
548.51	41710.69
548.67	41539.83
548.84	41570.25
549.01	41387.69
549.18	41626.43
549.34	41216.83
549.51	41460.25
549.68	41394.71
549.84	41614.72
550.01	42007.94
550.18	41528.13
550.34	42141.35
550.51	41427.48
550.68	41406.42
550.84	42064.11
551.01	41649.83
551.18	41727.07
551.34	42270.08
551.51	41900.27
551.68	41921.34
551.84	42230.29
552.01	42010.28
552.18	41628.77
552.34	41862.82
552.51	42080.49
552.68	42185.82
552.84	42394.12
553.01	42267.73
553.18	42478.38
553.34	42361.36
553.51	42040.70
553.67	42012.62
553.84	42183.48
554.01	42237.31
554.17	42270.08
554.34	42426.89
554.51	42649.24
554.67	42628.18
554.84	42862.23
555.00	42319.23
555.17	42628.18
555.33	42569.66
555.50	42628.18
555.67	42377.74
555.83	42363.70
556.00	42616.47
556.16	43150.12
556.33	42487.74
556.50	42696.05
556.66	43002.66
556.83	42532.22
556.99	43288.21
557.16	43264.80
557.32	43040.11
557.49	43019.05
557.65	43086.92
557.82	42714.78
557.98	43098.62
558.15	43058.84
558.32	43136.07
558.48	42714.78
558.65	42913.72
558.81	42850.53
558.98	42632.86
559.14	43051.81
559.31	43098.62
559.47	43210.97
559.64	43370.13
559.80	43655.67
559.97	43012.02
560.13	42925.42
560.30	42780.31
560.46	43452.05
560.63	43089.26
560.79	43669.72
560.96	43463.75
561.12	43480.13
561.29	43412.26
561.45	42962.87
561.61	43370.13
561.78	43473.11
561.94	43545.67
562.11	43894.41
562.27	43213.31
562.44	43377.15
562.60	43711.84
562.77	43477.79
562.93	43264.80
563.10	43646.31
563.26	43192.25
563.42	43695.46
563.59	43522.26
563.75	43559.71
563.92	43349.06
564.08	43550.35
564.24	43604.18
564.41	43744.61
564.57	44088.67
564.74	43395.87
564.90	43430.98
565.07	43735.25
565.23	43669.72
565.39	43791.42
565.56	43438.00
565.72	43391.19
565.88	43718.87
566.05	43468.43
566.21	43901.43
566.38	43608.86
566.54	43765.68
566.70	44088.67
566.87	44243.15
567.03	44105.06
567.19	44325.07
567.36	43964.62
567.52	43763.34
567.68	44296.98
567.85	44203.36
568.01	43964.62
568.17	43742.27
568.34	43583.12
568.50	43739.93
568.66	43571.41
568.83	43833.55
568.99	43655.67
569.15	44011.43
569.32	43557.37
569.48	44039.52
569.64	44140.16
569.81	44212.72
569.97	43931.86
570.13	44095.69
570.30	43662.69
570.46	43667.37
570.62	44114.42
570.78	43761.00
570.95	43721.21
571.11	43782.06
571.27	43690.78
571.43	43920.15
571.60	43894.41
571.76	43873.34
571.92	44289.96
572.09	43842.92
572.25	44280.60
572.41	44076.97
572.57	44322.72
572.74	44329.75
572.90	43768.02
573.06	44261.87
573.22	44006.75
573.38	43791.42
573.55	44048.88
573.71	44041.86
573.87	44142.50
574.03	44271.23
574.20	44362.51
574.36	44634.02
574.52	44318.04
574.68	43992.71
574.84	44074.63
575.01	44369.54
575.17	44119.10
575.33	43669.72
575.49	44203.36
575.65	44594.23
575.82	44421.03
575.98	44383.58
576.14	44659.76
576.30	44296.98
576.46	44367.20
576.62	44126.12
576.79	43866.32
576.95	44165.91
577.11	44580.18
577.27	44369.54
577.43	44121.44
577.59	44278.25
577.75	43871.00
577.92	44149.53
578.08	43732.91
578.24	43927.17
578.40	44266.55
578.56	44201.02
578.72	43798.44
578.88	44341.45
579.04	44495.92
579.21	44259.53
579.37	44037.18
579.53	44549.76
579.69	44081.65
579.85	44442.09
580.01	44287.62
580.17	44268.89
580.33	44531.03
580.49	44282.94
580.65	44631.68
580.82	44886.79
580.98	44154.21
581.14	44095.69
581.30	44495.92
581.46	44521.67
581.62	44350.81
581.78	43419.28
581.94	44451.45
582.10	43693.12
582.26	44292.30
582.42	44198.68
582.58	44311.02
582.74	44552.10
582.90	44535.71
583.06	44598.91
583.22	44348.47
583.38	44655.08
583.54	44914.88
583.70	44369.54
583.86	44720.62
584.02	44062.93
584.18	44542.74
584.34	44247.83
584.50	44196.34
584.66	44018.46
584.82	44144.84
584.98	44500.61
585.14	44165.91
585.30	44311.02
585.46	44774.45
585.62	43955.26
585.78	44449.11
585.94	43920.15
586.10	44678.49
586.26	44336.77
586.42	44477.20
586.58	44533.37
586.74	44502.95
586.90	43903.77
587.06	44151.87
587.22	44706.57
587.38	44245.49
587.54	44203.36
587.70	44662.10
587.86	44790.83
588.02	44369.54
588.18	44245.49
588.34	44144.84
588.49	43842.92
588.65	43608.86
588.81	43892.07
588.97	44720.62
589.13	44304.00
589.29	44488.90
589.45	44610.61
589.61	44390.60
589.77	44744.02
589.93	44493.58
590.08	44870.41
590.24	44893.82
590.40	44346.13
590.56	44828.28
590.72	44973.39
590.88	44509.97
591.04	44987.44
591.20	44823.60
591.35	45207.45
591.51	45017.86
591.67	44720.62
591.83	44673.81
591.99	44678.49
592.15	44418.69
592.31	45081.06
592.46	44903.18
592.62	44985.10
592.78	44353.15
592.94	45015.52
593.10	44610.61
593.26	44809.56
593.41	44779.13
593.57	44472.52
593.73	44823.60
593.89	44921.90
594.05	44608.27
594.20	45062.33
594.36	45120.85
594.52	44463.16
594.68	44559.12
594.84	45017.86
594.99	44994.46
595.15	44701.89
595.31	44940.63
595.47	44617.63
595.62	44945.31
595.78	44692.53
595.94	44933.60
596.10	45226.17
596.25	44875.09
596.41	45382.99
596.57	44788.49
596.73	44641.04
596.88	44404.64
597.04	45085.74
597.20	45043.61
597.36	44697.21
597.51	45876.84
597.67	44851.69
597.83	44601.25
597.99	44795.51
598.14	44828.28
598.30	44802.53
598.46	44809.56
598.61	44711.25
598.77	44514.65
598.93	44975.73
599.09	44573.16
599.24	45282.34
599.40	44767.43
599.56	45233.19
599.71	44847.00
599.87	44959.35
600.03	44818.92
600.18	44619.97
600.34	44896.16
600.50	44516.99
600.65	44713.59
600.81	44631.68
600.97	45240.21
601.12	44825.94
601.28	44823.60
601.44	44708.91
601.59	45085.74
601.75	44783.81
601.91	44837.64
602.06	44634.02
602.22	44891.48
602.37	44556.78
602.53	44940.63
602.69	45184.04
602.84	44669.12
603.00	44519.33
603.16	44552.10
603.31	44828.28
603.47	44425.71
603.62	44545.08
603.78	45102.12
603.94	44847.00
604.09	45305.75
604.25	44949.99
604.40	44584.86
604.56	44638.70
604.71	45038.93
604.87	44818.92
605.03	44811.90
605.18	44493.58
605.34	44987.44
605.49	44858.71
605.65	44774.45
605.80	44610.61
605.96	44720.62
606.12	45006.16
606.27	44722.96
606.43	44624.65
606.58	44779.13
606.74	44596.57
606.89	44549.76
607.05	44479.54
607.20	44811.90
607.36	44973.39
607.51	44322.72
607.67	44678.49
607.82	44416.35
607.98	44596.57
608.13	44414.01
608.29	44414.01
608.44	44292.30
608.60	44121.44
608.75	44034.84
608.91	44442.09
609.06	44399.96
609.22	44341.45
609.37	44009.09
609.53	44631.68
609.68	44432.73
609.84	44261.87
609.99	44596.57
610.15	44308.68
610.30	44428.05
610.46	44299.32
610.61	44287.62
610.76	44128.46
610.92	44151.87
611.07	44332.09
611.23	44149.53
611.38	44278.25
611.54	44072.29
611.69	43765.68
611.84	44402.30
612.00	44030.16
612.15	44046.54
612.31	44348.47
612.46	43756.32
612.62	44098.03
612.77	43990.37
612.92	44233.78
613.08	43892.07
613.23	43962.28
613.39	43831.21
613.54	43742.27
613.69	43992.71
613.85	43866.32
614.00	44325.07
614.15	44259.53
614.31	43941.22
614.46	43973.98
614.62	43768.02
614.77	43739.93
614.92	43859.30
615.08	43707.16
615.23	43819.51
615.38	43536.30
615.54	43683.76
615.69	43859.30
615.84	43622.90
616.00	43835.89
616.15	43524.60
616.30	43915.47
616.46	43203.95
616.61	42944.15
616.76	43669.72
616.92	42974.58
617.07	43166.50
617.22	43157.14
617.37	43112.67
617.53	43194.59
617.68	43906.11
617.83	43571.41
617.99	43732.91
618.14	43391.19
618.29	43522.26
618.45	42829.46
618.60	43442.68
618.75	43042.45
618.90	43447.36
619.06	43688.44
619.21	43536.30
619.36	43466.09
619.51	42974.58
619.67	43082.24
619.82	43283.53
619.97	43412.26
620.12	42848.19
620.28	42930.11
620.43	43054.15
620.58	42873.93
620.73	42511.15
620.89	42590.73
621.04	42939.47
621.19	42644.56
621.34	42951.17
621.49	42857.55
621.65	42906.70
621.80	42880.95
621.95	42536.90
622.10	42335.61
622.25	42693.71
622.41	42497.11
622.56	42314.55
622.71	42429.23
622.86	42424.55
623.01	42546.26
623.16	42672.65
623.32	42408.17
623.47	42529.87
623.62	42604.77
623.77	42380.08
623.92	42080.49
624.07	42174.11
624.23	42370.72
624.38	42188.16
624.53	41837.08
624.68	42281.78
624.83	42038.36
624.98	42115.60
625.13	41855.80
625.29	42190.50
625.44	42059.43
625.59	41619.41
625.74	41844.10
625.89	41640.47
626.04	42286.46
626.19	41792.61
626.34	41963.46
626.49	42045.38
626.65	42007.94
626.80	42454.98
626.95	41612.38
627.10	41717.71
627.25	42108.58
627.40	41549.19
627.55	41645.15
627.70	41008.53
627.85	41137.26
628.00	41530.47
628.15	41305.77
628.30	41528.13
628.45	41628.77
628.60	41390.03
628.76	41757.50
628.91	41579.62
629.06	41413.44
629.21	41221.52
629.36	41640.47
629.51	41408.76
629.66	41577.28
629.81	41062.36
629.96	41579.62
630.11	41265.99
630.26	41340.88
630.41	41347.90
630.56	41160.66
630.71	40942.99
630.86	41099.81
631.01	40945.33
631.16	41495.36
631.31	40964.06
631.46	40601.27
631.61	40790.86
631.76	40715.96
631.91	41104.49
632.06	40950.01
632.21	41226.20
632.36	41518.76
632.51	40802.56
632.66	40985.12
632.81	40460.84
632.96	40954.69
633.10	40320.41
633.25	40325.09
633.40	41029.59
633.55	41041.29
633.70	40163.59
633.85	40259.55
634.00	40732.34
634.15	40584.89
634.30	40229.13
634.45	40620.00
634.60	41085.76
634.75	40622.34
634.90	40205.72
635.05	40423.39
635.19	40203.38
635.34	40603.61
635.49	40378.92
635.64	40285.30
635.79	40081.67
635.94	40306.37
636.09	40692.55
636.24	39566.76
636.39	40044.23
636.53	39723.57
636.68	39786.77
636.83	40336.79
636.98	40189.34
637.13	39950.60
637.28	40407.01
637.43	39920.18
637.57	40182.32
637.72	40058.27
637.87	39847.62
638.02	39990.39
638.17	39730.59
638.32	39871.03
638.46	39915.50
638.61	39676.76
638.76	39938.90
638.91	40004.44
639.06	39864.00
639.20	39941.24
639.35	40098.06
639.50	39978.69
639.65	40079.33
639.80	40060.61
639.94	39964.65
640.09	39744.64
640.24	39522.29
640.39	39140.78
640.54	39290.57
640.68	39360.79
640.83	39592.50
640.98	39489.52
641.13	39316.32
641.27	39538.67
641.42	39400.58
641.57	39365.47
641.72	39180.57
641.86	38888.00
642.01	39264.83
642.16	39028.43
642.31	38501.81
642.45	39482.50
642.60	39292.91
642.75	39023.75
642.90	39089.29
643.04	39012.05
643.19	38801.40
643.34	39105.67
643.48	38644.59
643.63	38972.26
643.78	38672.67
643.93	38679.69
644.07	38684.37
644.22	38522.88
644.37	38536.92
644.51	38780.34
644.66	38871.62
644.81	38880.98
644.95	39117.37
645.10	38656.29
645.25	38852.89
645.39	39147.80
645.54	38724.16
645.69	38820.13
645.83	38443.30
645.98	38838.85
646.13	38712.46
646.27	38625.86
646.42	38618.84
646.57	38651.61
646.71	38625.86
646.86	38279.46
647.00	38546.28
647.15	38733.53
647.30	38550.96
647.44	38370.74
647.59	38459.68
647.74	38164.78
647.88	38244.35
648.03	38279.46
648.17	38616.50
648.32	38106.26
648.47	38366.06
648.61	38244.35
648.76	37937.74
648.90	38073.49
649.05	38263.08
649.20	37958.81
649.34	37743.48
649.49	38176.48
649.63	37940.08
649.78	37497.72
649.92	37909.66
650.07	38375.42
650.21	37869.87
650.36	37546.87
650.51	37710.71
650.65	38382.45
650.80	38553.30
650.94	38110.94
651.09	37993.92
651.23	37471.98
651.38	37928.38
651.52	37186.43
651.67	37612.41
651.81	37841.78
651.96	37799.65
652.10	37392.40
652.25	37085.79
652.39	37596.03
652.54	37303.46
652.68	38185.84
652.83	37071.75
652.97	37696.67
653.12	37544.53
653.26	37546.87
653.41	37523.47
653.55	37069.40
653.70	37069.40
653.84	37258.99
653.99	37287.07
654.13	37256.65
654.27	37053.02
654.42	37060.04
654.56	37031.96
654.71	37137.28
654.85	37380.70
655.00	37071.75
655.14	37111.53
655.29	36634.06
655.43	36987.49
655.57	36613.00
655.72	36718.32
655.86	36444.48
656.01	36161.28
656.15	36435.12
656.30	36545.12
656.44	36821.31
656.58	36753.43
656.73	36538.10
656.87	36559.17
657.01	36568.53
657.16	36580.23
657.30	36524.06
657.45	36533.42
657.59	36528.74
657.73	35962.33
657.88	36797.90
658.02	36659.81
658.16	36847.05
658.31	36943.02
658.45	36259.58
658.60	35981.06
658.74	36622.36
658.88	36357.88
659.03	36308.73
659.17	35882.75
659.31	35786.79
659.46	35952.97
659.60	35903.82
659.74	35990.42
659.89	35768.07
660.03	35796.15
660.17	35873.39
660.32	35770.41
660.46	35878.07
660.60	35861.69
660.74	35672.10
660.89	35885.09
661.03	35620.61
661.17	35573.80
661.32	35409.96
661.46	35159.53
661.60	35590.19
661.74	35789.13
661.89	35367.84
662.03	35817.22
662.17	34948.88
662.31	35358.47
662.46	35194.64
662.60	35016.75
662.74	35220.38
662.88	35182.93
663.03	34525.24
663.17	34534.60
663.31	34525.24
663.45	34747.59
663.60	34892.71
663.74	34986.33
663.88	34937.18
664.02	34749.93
664.17	34504.18
664.31	34778.02
664.45	34438.64
664.59	34403.53
664.73	34466.73
664.88	34726.53
665.02	34148.42
665.16	34363.75
665.30	34071.18
665.44	33752.87
665.59	34071.18
665.73	33977.56
665.87	33972.88
666.01	33897.98
666.15	33869.89
666.29	33670.95
666.44	33830.10
666.58	33851.17
666.72	33883.94
666.86	33523.49
667.00	33769.25
667.14	33532.86
667.28	33443.91
667.43	32926.66
667.57	33612.43
667.71	33385.40
667.85	33160.71
667.99	33287.10
668.13	33008.58
668.27	33034.32
668.41	33369.02
668.56	32783.88
668.70	33097.52
668.84	33076.45
668.98	32734.73
669.12	32793.25
669.26	32734.73
669.40	32774.52
669.54	32421.10
669.68	32751.12
669.82	32259.60
669.96	32854.10
670.10	32315.78
670.25	32510.04
670.39	32320.46
670.53	32301.73
670.67	32301.73
670.81	32519.40
670.95	32393.01
671.09	32114.49
671.23	32013.85
671.37	32004.49
671.51	31831.29
671.65	31899.16
671.79	31445.10
671.93	31276.58
672.07	31798.52
672.21	31651.06
672.35	31700.22
672.49	31594.89
672.63	31606.59
672.77	31246.15
672.91	31814.90
673.05	31679.15
673.19	30976.99
673.33	30923.16
673.47	31360.84
673.61	30953.58
673.75	30799.11
673.89	30504.20
674.03	30515.90
674.17	30543.99
674.31	30602.50
674.45	30951.24
674.59	30616.55
674.73	30962.95
674.87	30539.31
675.01	30309.94
675.15	30534.63
675.29	30342.70
675.43	30050.14
675.56	29816.08
675.70	30043.12
675.84	29518.84
675.98	29003.92
676.12	29926.09
676.26	29544.58
676.40	29303.51
676.54	29490.75
676.68	29535.22
676.82	29425.22
676.96	29649.91
677.10	29151.37
677.23	29081.16
677.37	29113.92
677.51	28851.78
677.65	28922.00
677.79	28290.06
677.93	28716.03
678.07	28603.69
678.21	28301.76
678.34	28091.11
678.48	27950.68
678.62	27924.93
678.76	27651.09
678.90	27828.97
679.04	28144.94
679.18	27583.21
679.31	27580.87
679.45	27517.68
679.59	27632.36
679.73	27229.79
679.87	27393.63
680.00	27388.95
680.14	27342.14
680.28	27192.34
680.42	27094.04
680.56	27220.43
680.70	27019.14
680.83	26841.26
680.97	26930.20
681.11	26998.08
681.25	26429.33
681.39	26394.22
681.52	26637.64
681.66	26267.83
681.80	26958.29
681.94	26183.57
682.07	26434.01
682.21	26270.17
682.35	25853.56
682.49	25998.67
682.62	25998.67
682.76	25830.15
682.90	25570.35
683.04	25565.67
683.17	25460.35
683.31	25163.10
683.45	25331.62
683.59	25378.43
683.72	24882.24
683.86	24793.29
684.00	25008.62
684.13	24957.13
684.27	24716.06
684.41	24943.09
684.55	24741.80
684.68	24376.68
684.82	24678.61
684.96	24575.62
685.09	24507.75
685.23	24404.77
685.37	24313.48
685.50	24088.79
685.64	24236.25
685.78	24081.77
685.91	23915.59
686.05	23810.27
686.19	23454.51
686.32	23421.74
686.46	23178.33
686.60	23470.89
686.73	22937.25
686.87	22888.10
687.01	23087.04
687.14	22707.88
687.28	22773.41
687.42	22822.56
687.55	22948.95
687.69	22939.59
687.82	22632.98
687.96	22710.22
688.10	22459.78
688.23	22195.30
688.37	22305.31
688.50	22199.98
688.64	22047.85
688.78	22246.79
688.91	22092.32
689.05	21752.94
689.18	21862.94
689.32	21675.70
689.46	21720.17
689.59	21671.02
689.73	21708.47
689.86	21500.16
690.00	21397.18
690.13	21565.70
690.27	21263.77
690.41	21151.42
690.54	21191.21
690.68	20917.37
690.81	20980.56
690.95	20650.55
691.08	20959.50
691.22	20636.50
691.35	20819.07
691.49	20821.41
691.62	20556.93
691.76	20325.21
691.89	20247.97
692.03	19847.74
692.16	20348.62
692.30	19992.86
692.43	19913.28
692.57	19946.05
692.70	19871.15
692.84	19768.16
692.97	19599.65
693.11	19424.11
693.24	19627.73
693.38	19489.64
693.51	19400.70
693.65	19524.75
693.78	19461.55
693.92	19435.81
694.05	19264.95
694.19	18937.27
694.32	18974.72
694.45	18625.98
694.59	18747.69
694.72	18321.71
694.86	18317.03
694.99	18164.90
695.13	18478.53
695.26	18508.96
695.39	18244.48
695.53	18436.40
695.66	18148.51
695.80	18387.25
695.93	18347.46
696.07	18033.83
696.20	17710.83
696.33	17755.30
696.47	17809.14
696.60	17668.70
696.73	17350.39
696.87	17748.28
697.00	17432.31
697.14	17380.82
697.27	17467.42
697.40	17509.55
697.54	17170.17
697.67	16975.91
697.80	17046.12
697.94	16950.16
698.07	16627.17
698.21	16861.22
698.34	16299.49
698.47	16664.61
698.61	16500.78
698.74	16266.72
698.87	16154.38
699.01	16009.26
699.14	16018.63
699.27	15964.79
699.40	16013.95
699.54	16063.10
699.67	16030.33
699.80	15822.02
699.94	15571.58
700.07	15946.07
700.20	15817.34
700.34	15726.06
700.47	15536.48
700.60	15730.74
700.73	15754.15
700.87	15580.95
701.00	15314.13
701.13	15461.58
701.26	15391.36
701.40	15129.22
701.53	15059.01
701.66	15119.86
701.79	15073.05
701.93	14831.97
702.06	14956.02
702.19	14600.26
702.32	14583.88
702.46	14663.46
702.59	14476.21
702.72	14633.03
702.85	14759.42
702.99	14551.11
703.12	14022.15
703.25	14167.26
703.38	14120.45
703.51	14097.05
703.65	14221.10
703.78	14160.24
703.91	13715.54
704.04	13776.39
704.17	13748.31
704.31	14019.81
704.44	13528.30
704.57	13706.18
704.70	13673.41
704.83	13460.42
704.96	13664.05
705.10	13701.50
705.23	13497.87
>>>>>End Processed Spectral Data<<<<<
