SpectraSuite Data File
++++++++++++++++++++++++++++++++++++
Date: Fri Oct 25 10:48:29 EDT 2013
User: price-jones
Dark Spectrum Present: No
Reference Spectrum Present: No
Number of Sampled Component Spectra: 1
Spectrometers: USB2+H05261
Integration Time (usec): 100000 (USB2+H05261)
Spectra Averaged: 1 (USB2+H05261)
Boxcar Smoothing: 0 (USB2+H05261)
Correct for Electrical Dark: No (USB2+H05261)
Strobe/Lamp Enabled: No (USB2+H05261)
Correct for Detector Non-linearity: No (USB2+H05261)
Correct for Stray Light: No (USB2+H05261)
Number of Pixels in Processed Spectrum: 2048
>>>>>Begin Processed Spectral Data<<<<<
365.73	63.19
365.92	63.19
366.12	63.19
366.32	98.30
366.52	46.81
366.72	60.85
366.91	56.17
367.11	49.15
367.31	0.00
367.51	65.54
367.70	60.85
367.90	63.19
368.10	28.09
368.30	72.56
368.49	23.41
368.69	67.88
368.89	63.19
369.09	81.92
369.28	74.90
369.48	44.47
369.68	128.73
369.87	70.22
370.07	79.58
370.27	168.52
370.47	208.31
370.66	425.98
370.86	444.70
371.06	475.13
371.25	528.96
371.45	514.92
371.65	465.77
371.84	484.49
372.04	451.72
372.24	477.47
372.44	430.66
372.63	533.64
372.83	589.82
373.03	505.56
373.22	538.32
373.42	573.43
373.62	587.47
373.81	533.64
374.01	699.82
374.21	547.69
374.40	510.24
374.60	631.94
374.79	559.39
374.99	592.16
375.19	596.84
375.38	587.47
375.58	540.66
375.78	596.84
375.97	613.22
376.17	617.90
376.37	596.84
376.56	638.97
376.76	573.43
376.95	671.73
377.15	624.92
377.35	676.41
377.54	657.69
377.74	641.31
377.93	706.84
378.13	706.84
378.33	685.78
378.52	622.58
378.72	660.03
378.91	699.82
379.11	648.33
379.31	690.46
379.50	676.41
379.70	662.37
379.89	706.84
380.09	681.10
380.28	788.76
380.48	732.59
380.68	716.20
380.87	678.76
381.07	720.88
381.26	746.63
381.46	725.57
381.65	739.61
381.85	683.44
382.04	690.46
382.24	763.01
382.43	695.14
382.63	842.59
382.83	716.20
383.02	718.54
383.22	795.78
383.41	732.59
383.61	730.25
383.80	713.86
384.00	821.53
384.19	835.57
384.39	826.21
384.58	809.83
384.78	828.55
384.97	802.80
385.17	781.74
385.36	894.08
385.56	828.55
385.75	868.34
385.95	873.02
386.14	882.38
386.34	884.72
386.53	868.34
386.72	894.08
386.92	866.00
387.11	851.96
387.31	856.64
387.50	933.87
387.70	945.58
387.89	896.43
388.09	933.87
388.28	931.53
388.48	891.74
388.67	987.71
388.86	992.39
389.06	940.90
389.25	1018.13
389.45	1006.43
389.64	983.02
389.84	1071.97
390.03	1036.86
390.22	1018.13
390.42	1057.92
390.61	1095.37
390.81	1001.75
391.00	1048.56
391.19	1057.92
391.39	1177.29
391.58	1050.90
391.78	1057.92
391.97	1053.24
392.16	1008.77
392.36	1078.99
392.55	1109.41
392.75	1111.75
392.94	1006.43
393.13	985.37
393.33	1078.99
393.52	1043.88
393.71	1074.31
393.91	1177.29
394.10	1233.46
394.29	1284.95
394.49	1107.07
394.68	1235.80
394.88	1177.29
395.07	1275.59
395.26	1327.08
395.46	1252.19
395.65	1299.00
395.84	1172.61
396.04	1320.06
396.23	1270.91
396.42	1240.48
396.62	1231.12
396.81	1228.78
397.00	1217.08
397.19	1289.64
397.39	1357.51
397.58	1437.09
397.77	1411.34
397.97	1497.94
398.16	1387.94
398.35	1406.66
398.55	1502.62
398.74	1441.77
398.93	1507.30
399.12	1502.62
399.32	1483.90
399.51	1481.56
399.70	1551.78
399.90	1500.28
400.09	1629.01
400.28	1600.93
400.47	1680.50
400.67	1722.63
400.86	1706.25
401.05	1687.53
401.24	1834.98
401.44	1732.00
401.63	1685.19
401.82	1764.76
402.01	1732.00
402.21	1797.53
402.40	1767.10
402.59	1776.47
402.78	1804.55
402.97	1755.40
403.17	1774.13
403.36	1799.87
403.55	1795.19
403.74	1905.20
403.93	1916.90
404.13	1827.96
404.32	1952.01
404.51	1933.28
404.70	1891.15
404.89	1830.30
405.09	2050.31
405.28	2026.90
405.47	2010.52
405.66	2026.90
405.85	1984.77
406.05	2045.63
406.24	2069.03
406.43	2003.50
406.62	2001.16
406.81	2165.00
407.00	2085.42
407.20	2033.93
407.39	2071.37
407.58	2129.89
407.77	2200.10
407.96	2155.63
408.15	2235.21
408.34	2207.13
408.54	2263.30
408.73	2361.60
408.92	2324.15
409.11	2321.81
409.30	2214.15
409.49	2225.85
409.68	2284.36
409.87	2333.51
410.07	2359.26
410.26	2415.43
410.45	2394.37
410.64	2363.94
410.83	2534.80
411.02	2455.22
411.21	2644.81
411.40	2670.55
411.59	2565.23
411.78	2665.87
411.98	2525.44
412.17	2672.89
412.36	2684.59
412.55	2710.34
412.74	2787.58
412.93	2750.13
413.12	2647.15
413.31	2892.90
413.50	2843.75
413.69	2848.43
413.88	2979.50
414.07	2895.24
414.26	3063.76
414.45	3012.27
414.64	3002.91
414.83	3047.38
415.02	3016.95
415.22	3129.30
415.41	3148.02
415.60	3192.49
415.79	3199.51
415.98	3232.28
416.17	3183.13
416.36	3201.85
416.55	3176.11
416.74	3274.41
416.93	3251.00
417.12	3318.88
417.31	3365.69
417.50	3351.65
417.69	3396.12
417.88	3414.84
418.07	3440.59
418.26	3466.33
418.45	3433.57
418.64	3705.07
418.83	3602.08
419.02	3482.72
419.21	3688.68
419.39	3604.42
419.58	3382.07
419.77	3435.91
419.96	3676.98
420.15	3674.64
420.34	3639.53
420.53	3721.45
420.72	3782.31
420.91	3805.71
421.10	3822.09
421.29	3873.59
421.48	3742.52
421.67	3882.95
421.86	3833.80
422.05	3845.50
422.24	3784.65
422.43	3763.58
422.61	3850.18
422.80	3946.14
422.99	3896.99
423.18	3894.65
423.37	4180.20
423.56	3964.87
423.75	3911.04
423.94	3889.97
424.13	3618.47
424.32	3772.94
424.50	3946.14
424.69	4105.30
424.88	4030.40
425.07	3934.44
425.26	3904.01
425.45	3967.21
425.64	4018.70
425.83	3957.85
426.01	4067.85
426.20	4004.66
426.39	4189.56
426.58	4004.66
426.77	4063.17
426.96	4016.36
427.15	3971.89
427.33	4257.43
427.52	4067.85
427.71	4091.26
427.90	4060.83
428.09	4280.84
428.28	4215.30
428.46	4119.34
428.65	4194.24
428.84	4292.54
429.03	4311.27
429.22	4016.36
429.40	4152.11
429.59	4191.90
429.78	3925.08
429.97	3918.06
430.16	4072.53
430.34	4248.07
430.53	4227.01
430.72	4269.14
430.91	4255.09
431.10	4428.29
431.28	4566.39
431.47	4645.96
431.66	4786.40
431.85	4559.36
432.03	4688.09
432.22	4641.28
432.41	4615.54
432.60	4713.84
432.79	4727.88
432.97	4697.46
433.16	4873.00
433.35	4781.71
433.54	4732.56
433.72	4643.62
433.91	4652.98
434.10	4863.63
434.28	4840.23
434.47	4936.19
434.66	4938.53
434.85	4978.32
435.03	4926.83
435.22	4865.97
435.41	5135.14
435.59	5078.96
435.78	5331.74
435.97	5226.42
436.16	5203.01
436.34	4901.08
436.53	5224.08
436.72	5231.10
436.90	5062.58
437.09	5287.27
437.28	5102.37
437.46	5217.05
437.65	5345.78
437.84	5287.27
438.02	5142.16
438.21	5308.34
438.40	5219.39
438.58	5254.50
438.77	5607.92
438.96	5526.00
439.14	5638.35
439.33	5689.84
439.52	5596.22
439.70	5432.38
439.89	5600.90
440.08	5757.72
440.26	5668.78
440.45	5612.60
440.63	5966.03
440.82	6064.33
441.01	5884.11
441.19	5893.47
441.38	6183.70
441.57	6221.14
441.75	6359.24
441.94	6333.49
442.12	6377.96
442.31	6429.45
442.50	6387.32
442.68	6253.91
442.87	6179.01
443.05	6225.82
443.24	6537.12
443.43	6516.05
443.61	6572.22
443.80	6754.79
443.98	6413.07
444.17	6265.61
444.35	6511.37
444.54	6567.54
444.73	6452.86
444.91	6506.69
445.10	6429.45
445.28	6436.47
445.47	6403.71
445.65	6450.52
445.84	6548.82
446.02	6707.98
446.21	6612.01
446.39	6623.72
446.58	6642.44
446.77	6649.46
446.95	6583.93
447.14	6747.76
447.32	6925.65
447.51	6745.42
447.69	6635.42
447.88	6722.02
448.06	6897.56
448.25	6796.92
448.43	6710.32
448.62	6853.09
448.80	6544.14
448.99	6981.82
449.17	6892.88
449.36	6785.21
449.54	6932.67
449.73	6998.20
449.91	7241.62
450.10	7157.36
450.28	7426.52
450.46	7169.06
450.65	7077.78
450.83	7187.79
451.02	7112.89
451.20	7372.69
451.39	7279.07
451.57	7225.23
451.76	7222.89
451.94	7358.64
452.13	7386.73
452.31	7213.53
452.49	7136.29
452.68	7356.30
452.86	7103.53
453.05	7452.27
453.23	7372.69
453.42	7255.66
453.60	7253.32
453.78	7421.84
453.97	7321.20
454.15	7346.94
454.34	7548.23
454.52	7529.50
454.70	7571.63
454.89	7585.68
455.07	7611.42
455.26	7630.15
455.44	7892.29
455.62	7831.43
455.81	7789.30
455.99	7892.29
456.17	7831.43
456.36	7789.30
456.54	7955.48
456.73	7761.22
456.91	8285.50
457.09	8182.51
457.28	8362.73
457.46	8161.45
457.64	8503.17
457.83	8161.45
458.01	7974.21
458.19	8226.98
458.38	8278.47
458.56	8545.30
458.74	8304.22
458.93	8229.32
459.11	8386.14
459.29	8264.43
459.48	8362.73
459.66	8248.05
459.84	8575.72
460.03	8573.38
460.21	8334.65
460.39	8505.51
460.57	8510.19
460.76	8643.60
460.94	8772.33
461.12	8816.80
461.31	8657.64
461.49	8713.81
461.67	8662.32
461.85	8889.35
462.04	8903.40
462.22	9071.92
462.40	8908.08
462.59	9025.11
462.77	9074.26
462.95	9074.26
463.13	8898.72
463.32	9029.79
463.50	9001.70
463.68	9123.41
463.86	8978.30
464.05	9011.06
464.23	8943.19
464.41	9163.20
464.59	9043.83
464.78	9369.16
464.96	9167.88
465.14	9050.85
465.32	9315.33
465.50	9369.16
465.69	9149.15
465.87	9394.91
466.05	9195.96
466.23	9022.77
466.41	9139.79
466.60	9493.21
466.78	9472.15
466.96	9380.87
467.14	9528.32
467.32	9287.25
467.51	9659.39
467.69	9303.63
467.87	9397.25
468.05	9579.81
468.23	9523.64
468.41	9404.27
468.60	9490.87
468.78	9547.05
468.96	9610.24
469.14	9893.44
469.32	9633.64
469.50	9647.69
469.69	9834.93
469.87	9673.43
470.05	9844.29
470.23	9989.41
470.41	10108.77
470.59	10061.96
470.77	10026.86
470.95	9928.55
471.14	10211.76
471.32	10073.67
471.50	10256.23
471.68	10509.01
471.86	10553.48
472.04	10654.12
472.22	10630.71
472.40	10272.61
472.58	10511.35
472.77	10509.01
472.95	10782.85
473.13	10675.18
473.31	10567.52
473.49	10586.24
473.67	10736.04
473.85	10782.85
474.03	11030.94
474.21	11098.82
474.39	10972.43
474.57	11206.48
474.75	11159.67
474.93	11154.99
475.12	11143.29
475.30	11360.96
475.48	11398.41
475.66	11463.94
475.84	11272.02
476.02	11562.25
476.20	11477.99
476.38	11700.34
476.56	12343.99
476.74	11943.75
476.92	11864.18
477.10	12016.31
477.28	12259.73
477.46	12025.67
477.64	12343.99
477.82	12397.82
478.00	12549.95
478.18	12428.24
478.36	12531.23
478.54	12718.47
478.72	13046.15
478.90	13085.94
479.08	13312.97
479.26	13198.28
479.44	13254.45
479.62	13472.12
479.80	13404.25
479.98	13631.28
480.16	13610.22
480.34	13593.83
480.52	13795.12
480.70	13685.11
480.88	13804.48
481.06	13846.61
481.24	14183.65
481.41	14476.21
481.59	14654.09
481.77	14492.60
481.95	14569.83
482.13	14527.71
482.31	14523.02
482.49	14993.47
482.67	15243.91
482.85	14890.49
483.03	15229.87
483.21	15274.34
483.39	15325.83
483.57	15569.24
483.74	15573.92
483.92	15829.04
484.10	15857.13
484.28	15899.26
484.46	16353.32
484.64	16278.43
484.82	16219.91
485.00	16372.05
485.18	16294.81
485.35	16606.10
485.53	16416.52
485.71	16439.92
485.89	16479.71
486.07	16496.10
486.25	16477.37
486.43	17046.12
486.61	17226.34
486.78	17261.45
486.96	17603.17
487.14	17687.43
487.32	18118.09
487.50	17991.70
487.68	18272.56
487.85	18621.30
488.03	18707.90
488.21	18827.27
488.39	18630.66
488.57	18939.62
488.75	18939.62
488.92	19257.93
489.10	19405.38
489.28	19426.45
489.46	19969.45
489.64	19672.20
489.81	20173.08
489.99	20367.34
490.17	20287.76
490.35	20493.73
490.53	20229.25
490.70	20648.21
490.88	20592.03
491.06	20594.37
491.24	20863.54
491.41	21055.46
491.59	20938.43
491.77	21109.29
491.95	21315.26
492.13	21446.33
492.30	21844.22
492.48	21675.70
492.66	21671.02
492.84	22008.06
493.01	22333.39
493.19	22143.81
493.37	22331.05
493.54	22403.61
493.72	22909.16
493.90	22735.96
494.08	23056.62
494.25	23498.98
494.43	23398.34
494.61	23213.43
494.79	23454.51
494.96	23761.12
495.14	23550.47
495.32	23915.59
495.49	24105.18
495.67	24051.34
495.85	24013.90
496.02	24514.77
496.20	24786.27
496.38	24774.57
496.55	24383.70
496.73	25170.12
496.91	25238.00
497.09	24947.77
497.26	25366.73
497.44	25230.98
497.62	25542.27
497.79	25741.21
497.97	25631.21
498.14	26038.46
498.32	25883.98
498.50	25991.65
498.67	26452.73
498.85	26169.53
499.03	26455.08
499.20	26291.24
499.38	26780.41
499.56	26445.71
499.73	26469.12
499.91	26677.43
500.08	26712.53
500.26	26408.26
500.44	26637.64
500.61	27204.05
500.79	26698.49
500.97	27070.64
501.14	28048.98
501.32	27428.74
501.49	27674.49
501.67	27503.64
501.84	27590.24
502.02	27789.18
502.20	27730.67
502.37	27681.52
502.55	28173.03
502.72	28329.84
502.90	28325.16
503.07	28540.49
503.25	28196.43
503.43	28154.30
503.60	28474.96
503.78	28704.33
503.95	28584.96
504.13	28519.43
504.30	28732.42
504.48	28903.28
504.65	29167.76
504.83	29422.87
505.01	29404.15
505.18	29221.59
505.36	29511.81
505.53	29802.04
505.71	30012.69
505.88	29785.66
506.06	29575.01
506.23	30022.05
506.41	30019.71
506.58	29979.92
506.76	29750.55
506.93	30075.88
507.11	30366.11
507.28	30567.40
507.46	29996.31
507.63	30370.79
507.81	30618.89
507.98	30225.68
508.16	30824.86
508.33	31168.91
508.50	31512.97
508.68	31208.70
508.85	31468.50
509.03	31566.81
509.20	31342.11
509.38	31531.70
509.55	31665.11
509.73	31674.47
509.90	31648.72
510.08	31871.07
510.25	31885.12
510.42	31747.03
510.60	32025.55
510.77	32194.07
510.95	32133.21
511.12	31974.06
511.30	32505.36
511.47	32870.48
511.64	32589.62
511.82	32708.99
511.99	32486.64
512.17	32755.80
512.34	32336.84
512.51	32776.86
512.69	33352.63
512.86	32837.72
513.04	33174.75
513.21	32910.27
513.38	33064.75
513.56	33163.05
513.73	32751.12
513.90	33376.04
514.08	33301.14
514.25	33464.98
514.43	33336.25
514.60	33560.94
514.77	33670.95
514.95	33764.57
515.12	33979.90
515.29	33965.85
515.47	34565.03
515.64	34405.88
515.81	33724.78
515.99	34202.25
516.16	34160.12
516.33	33900.32
516.51	33883.94
516.68	33883.94
516.85	33654.56
517.03	34185.86
517.20	34267.78
517.37	34927.81
517.54	35019.10
517.72	34841.21
517.89	34202.25
518.06	34459.71
518.24	34534.60
518.41	34766.32
518.58	35047.18
518.75	34937.18
518.93	35140.80
519.10	35199.32
519.27	35484.86
519.45	35484.86
519.62	35770.41
519.79	35604.23
519.96	35775.09
520.14	36271.28
520.31	35803.17
520.48	35952.97
520.65	36072.34
520.83	36074.68
521.00	36114.47
521.17	36451.50
521.34	36205.75
521.52	36655.13
521.69	37076.43
521.86	36889.18
522.03	36758.11
522.20	36687.90
522.38	36788.54
522.55	37146.64
522.72	36512.36
522.89	36601.30
523.07	37287.07
523.24	36879.82
523.41	37336.23
523.58	36879.82
523.75	37638.15
523.92	37507.08
524.10	37806.67
524.27	37488.36
524.44	37710.71
524.61	38017.32
524.78	37553.90
524.96	38064.13
525.13	37944.76
525.30	37975.19
525.47	38120.31
525.64	37897.95
525.81	37848.80
525.98	37748.16
526.16	37984.55
526.33	37912.00
526.50	38160.09
526.67	37495.38
526.84	37972.85
527.01	38080.52
527.18	38026.68
527.36	38859.91
527.53	38497.13
527.70	38969.92
527.87	38998.01
528.04	38515.86
528.21	39037.80
528.38	38787.36
528.55	39068.22
528.72	39138.44
528.89	39620.59
529.07	39604.20
529.24	38988.64
529.41	39438.03
529.58	39084.61
529.75	38998.01
529.92	39854.64
530.09	39477.82
530.26	39709.53
530.43	39775.06
530.60	39608.89
530.77	39562.08
530.94	39948.26
531.11	39936.56
531.28	39828.90
531.46	39667.40
531.63	39981.03
531.80	39974.01
531.97	39573.78
532.14	40147.21
532.31	39274.19
532.48	39587.82
532.65	40481.91
532.82	40112.10
532.99	40437.44
533.16	40203.38
533.33	40547.44
533.50	40559.14
533.67	40488.93
533.84	40847.03
534.01	40484.25
534.18	40105.08
534.35	41132.57
534.52	40926.61
534.69	41064.70
534.86	40914.90
535.03	40348.50
535.20	41188.75
535.37	41268.33
535.54	41319.82
535.71	41298.75
535.88	40945.33
536.05	41413.44
536.22	41207.47
536.38	41076.40
536.55	40959.38
536.72	41383.01
536.89	40931.29
537.06	41390.03
537.23	41546.85
537.40	41563.23
537.57	41794.95
537.74	41411.10
537.91	41570.25
538.08	41591.32
538.25	41338.54
538.42	41909.63
538.59	42291.14
538.75	41481.31
538.92	41661.54
539.09	41886.23
539.26	41916.65
539.43	41656.85
539.60	41757.50
539.77	41956.44
539.94	42150.71
540.11	41970.49
540.28	41820.69
540.44	42024.32
540.61	42047.72
540.78	41729.41
540.95	41890.91
541.12	42230.29
541.29	42389.44
541.46	42005.59
541.62	42742.86
541.79	42572.00
541.96	42113.26
542.13	42340.29
542.30	42462.00
542.47	42354.33
542.63	42564.98
542.80	42824.78
542.97	43302.25
543.14	43412.26
543.31	42808.40
543.48	43339.70
543.64	43196.93
543.81	43377.15
543.98	43185.22
544.15	43168.84
544.32	43171.18
544.48	43805.47
544.65	43384.17
544.82	43351.40
544.99	43255.44
545.16	43421.62
545.32	43299.91
545.49	43438.00
545.66	43550.35
545.83	43985.69
546.00	43679.08
546.16	43770.36
546.33	43730.57
546.50	43185.22
546.67	43751.63
546.83	43690.78
547.00	43356.08
547.17	43489.49
547.34	43920.15
547.50	43501.20
547.67	44212.72
547.84	43924.83
548.00	43796.10
548.17	44156.55
548.34	44196.34
548.51	44650.40
548.67	44432.73
548.84	44842.32
549.01	44318.04
549.18	44498.26
549.34	44320.38
549.51	44538.05
549.68	44271.23
549.84	44945.31
550.01	44573.16
550.18	44149.53
550.34	44467.84
550.51	44357.83
550.68	44294.64
550.84	43948.24
551.01	44926.58
551.18	44734.66
551.34	44465.50
551.51	45059.99
551.68	44809.56
551.84	44790.83
552.01	44814.24
552.18	44818.92
552.34	44339.11
552.51	44832.96
552.68	44942.97
552.84	45109.14
553.01	45078.72
553.18	45069.36
553.34	44996.80
553.51	44924.24
553.67	45214.47
553.84	45308.09
554.01	44945.31
554.17	45235.53
554.34	45275.32
554.51	45132.55
554.67	45387.67
554.84	45322.13
555.00	45174.68
555.17	44928.92
555.33	45654.49
555.50	45357.24
555.67	45071.70
555.83	45464.91
556.00	45404.05
556.16	45928.33
556.33	45724.71
556.50	45397.03
556.66	45364.26
556.83	45270.64
556.99	46251.33
557.16	45413.41
557.32	45670.87
557.49	45642.79
557.65	45614.70
557.82	45687.26
557.98	45621.72
558.15	45471.93
558.32	45883.86
558.48	45509.38
558.65	45579.59
558.81	45450.86
558.98	45741.09
559.14	45553.85
559.31	45523.42
559.47	45808.96
559.64	45949.40
559.80	46223.24
559.97	46087.49
560.13	45930.67
560.30	45766.84
560.46	45832.37
560.63	46071.10
560.79	46064.08
560.96	46218.56
561.12	46309.84
561.29	46258.35
561.45	46089.83
561.61	46258.35
561.78	46244.30
561.94	46064.08
562.11	45961.10
562.27	46094.51
562.44	45893.22
562.60	46553.26
562.77	46733.48
562.93	46167.07
563.10	46487.72
563.26	46005.57
563.42	46234.94
563.59	45970.46
563.75	46279.41
563.92	46663.26
564.08	46291.12
564.24	46672.62
564.41	46651.56
564.57	46450.27
564.74	46354.31
564.90	46581.34
565.07	46394.10
565.23	46529.85
565.39	46227.92
565.56	46401.12
565.72	45937.69
565.88	46080.47
566.05	46443.25
566.21	46127.28
566.38	46038.34
566.54	46380.06
566.70	46363.67
566.87	46571.98
567.03	46445.59
567.19	46726.46
567.36	46735.82
567.52	46653.90
567.68	46452.61
567.85	46270.05
568.01	46707.73
568.17	46401.12
568.34	46227.92
568.50	46499.42
568.66	46047.70
568.83	46258.35
568.99	46211.54
569.15	46546.23
569.32	46415.16
569.48	46590.70
569.64	46354.31
569.81	46342.61
569.97	46541.55
570.13	46567.30
570.30	46527.51
570.46	46248.99
570.62	45867.48
570.78	45808.96
570.95	46162.39
571.11	46459.63
571.27	46288.77
571.43	46464.32
571.60	46770.93
571.76	46843.48
571.92	46637.51
572.09	46415.16
572.25	46681.98
572.41	46681.98
572.57	46820.08
572.74	47302.23
572.90	46216.22
573.06	46773.27
573.22	46541.55
573.38	47131.37
573.55	46571.98
573.71	46457.29
573.87	46777.95
574.03	46897.31
574.20	46946.47
574.36	46340.27
574.52	47042.43
574.68	46862.21
574.84	46836.46
575.01	46642.20
575.17	46478.36
575.33	46658.58
575.49	46560.28
575.65	47166.48
575.82	46646.88
575.98	46600.07
576.14	46784.97
576.30	46855.18
576.46	46726.46
576.62	46834.12
576.79	46787.31
576.95	46192.81
577.11	46504.10
577.27	46918.38
577.43	46796.67
577.59	46560.28
577.75	46457.29
577.92	46122.60
578.08	46410.48
578.24	46057.06
578.40	46562.62
578.56	46719.43
578.72	46894.97
578.88	46906.68
579.04	46923.06
579.21	46277.07
579.37	46707.73
579.53	46698.37
579.69	46817.74
579.85	46553.26
580.01	46864.55
580.17	47012.00
580.33	46789.65
580.49	46759.22
580.65	46616.45
580.82	47009.66
580.98	46588.36
581.14	46745.18
581.30	46913.70
581.46	46983.91
581.62	46712.41
581.78	46841.14
581.94	47166.48
582.10	46972.21
582.26	47014.34
582.42	47143.07
582.58	46609.43
582.74	46789.65
582.90	47126.69
583.06	46813.05
583.22	46885.61
583.38	46791.99
583.54	47171.16
583.70	46787.31
583.86	46588.36
584.02	46899.65
584.18	47552.66
584.34	47129.03
584.50	46911.36
584.66	46948.81
584.82	46946.47
584.98	46841.14
585.14	46988.60
585.30	46902.00
585.46	47004.98
585.62	46705.39
585.78	47398.19
585.94	46824.76
586.10	46909.02
586.26	46658.58
586.42	46789.65
586.58	46649.22
586.74	47126.69
586.90	47047.11
587.06	46742.84
587.22	47152.43
587.38	46710.07
587.54	47178.18
587.70	47290.52
587.86	46983.91
588.02	46429.21
588.18	46902.00
588.34	46614.11
588.49	46202.18
588.65	46651.56
588.81	46337.93
588.97	46190.47
589.13	46253.67
589.29	46457.29
589.45	46499.42
589.61	46965.19
589.77	46742.84
589.93	46791.99
590.08	46983.91
590.24	47274.14
590.40	47313.93
590.56	47330.31
590.72	46857.52
590.88	47021.36
591.04	47505.85
591.20	47271.80
591.35	47033.07
591.51	47096.26
591.67	47044.77
591.83	47334.99
591.99	47047.11
592.15	46824.76
592.31	47044.77
592.46	47210.95
592.62	46705.39
592.78	47285.84
592.94	47311.59
593.10	47044.77
593.26	47103.28
593.41	47173.50
593.57	46869.23
593.73	47147.75
593.89	47070.51
594.05	46710.07
594.20	46721.77
594.36	47194.56
594.52	47283.50
594.68	47124.35
594.84	47271.80
594.99	47517.56
595.15	46803.69
595.31	47367.76
595.47	46869.23
595.62	46827.10
595.78	47360.74
595.94	47571.39
596.10	47356.06
596.25	47304.57
596.41	47583.09
596.57	47110.30
596.73	47646.29
596.88	46965.19
597.04	47227.33
597.20	46925.40
597.36	47339.68
597.51	47475.43
597.67	46806.03
597.83	47442.66
597.99	47330.31
598.14	46852.84
598.30	46990.94
598.46	46813.05
598.61	47276.48
598.77	47325.63
598.93	46951.15
599.09	47505.85
599.24	47334.99
599.40	47281.16
599.56	47379.46
599.71	47049.45
599.87	47494.15
600.03	46899.65
600.18	47547.98
600.34	46600.07
600.50	47100.94
600.65	47049.45
600.81	47285.84
600.97	47187.54
601.12	47442.66
601.28	47512.88
601.44	46749.86
601.59	47356.06
601.75	47122.01
601.91	47061.15
602.06	47494.15
602.22	47028.38
602.37	47079.88
602.53	47049.45
602.69	47587.77
602.84	46906.68
603.00	47234.35
603.16	47028.38
603.31	47278.82
603.47	46784.97
603.62	46705.39
603.78	47330.31
603.94	46836.46
604.09	47325.63
604.25	46890.29
604.40	46801.35
604.56	47173.50
604.71	47370.10
604.87	47114.98
605.03	46543.89
605.18	46728.80
605.34	47079.88
605.49	46742.84
605.65	46937.10
605.80	46775.61
605.96	46986.25
606.12	47129.03
606.27	47086.90
606.43	46625.81
606.58	47065.83
606.74	46937.10
606.89	46401.12
607.05	47070.51
607.20	46974.55
607.36	47009.66
607.51	47274.14
607.67	46972.21
607.82	46768.58
607.98	46897.31
608.13	46855.18
608.29	46478.36
608.44	46342.61
608.60	46452.61
608.75	46293.46
608.91	46452.61
609.06	46408.14
609.22	46567.30
609.37	46518.15
609.53	46436.23
609.68	46639.86
609.84	46389.42
609.99	46658.58
610.15	46791.99
610.30	46436.23
610.46	46050.04
610.61	46131.96
610.76	46469.00
610.92	46628.15
611.07	46387.08
611.23	46351.97
611.38	46464.32
611.54	46281.75
611.69	46387.08
611.84	46059.40
612.00	46511.13
612.15	46021.95
612.31	46424.53
612.46	46248.99
612.62	46415.16
612.77	46651.56
612.92	46263.03
613.08	46134.30
613.23	46171.75
613.39	45635.77
613.54	46024.29
613.69	45841.73
613.85	46323.88
614.00	45940.04
614.15	46241.96
614.31	45638.11
614.46	46487.72
614.62	45813.65
614.77	46248.99
614.92	45808.96
615.08	45755.13
615.23	45680.24
615.38	45968.12
615.54	45556.19
615.69	45769.18
615.84	45757.47
616.00	45911.95
616.15	45539.80
616.30	45787.90
616.46	45713.00
616.61	45645.13
616.76	45322.13
616.92	45059.99
617.07	45291.71
617.22	45509.38
617.37	45399.37
617.53	45652.15
617.68	45516.40
617.83	45691.94
617.99	45567.89
618.14	45584.27
618.29	45708.32
618.45	45230.85
618.60	45750.45
618.75	45441.50
618.90	45308.09
619.06	45502.35
619.21	45247.24
619.36	45638.11
619.51	45083.40
619.67	44765.09
619.82	45345.54
619.97	45581.93
620.12	45127.87
620.28	45029.57
620.43	44835.30
620.58	44844.66
620.73	44690.19
620.89	45158.30
621.04	45106.80
621.19	44971.05
621.34	44809.56
621.49	44973.39
621.65	44863.39
621.80	45050.63
621.95	44868.07
622.10	45113.83
622.25	44746.36
622.41	45167.66
622.56	44643.38
622.71	44783.81
622.86	44690.19
623.01	44737.00
623.16	44741.68
623.32	44598.91
623.47	45095.10
623.62	44872.75
623.77	44215.06
623.92	44690.19
624.07	44149.53
624.23	44069.95
624.38	44130.80
624.53	44547.42
624.68	44275.91
624.83	44107.40
624.98	44666.78
625.13	44182.29
625.29	44285.28
625.44	44252.51
625.59	44266.55
625.74	44069.95
625.89	44109.74
626.04	43913.13
626.19	44268.89
626.34	44105.06
626.49	43913.13
626.65	43894.41
626.80	44170.59
626.95	43985.69
627.10	43660.35
627.25	43578.43
627.40	43587.80
627.55	43278.85
627.70	43196.93
627.85	43746.95
628.00	43599.50
628.15	43976.33
628.30	44112.08
628.45	43454.39
628.60	43430.98
628.76	43629.93
628.91	43669.72
629.06	43442.68
629.21	43124.37
629.36	43021.39
629.51	43501.20
629.66	43225.01
629.81	43459.07
629.96	43269.48
630.11	43438.00
630.26	43562.05
630.41	43250.76
630.56	43225.01
630.71	43316.29
630.86	43618.22
631.01	42981.60
631.16	43365.45
631.31	42602.43
631.46	42387.10
631.61	43452.05
631.76	42927.77
631.91	42909.04
632.06	42813.08
632.21	42976.92
632.36	43203.95
632.51	42717.12
632.66	42953.51
632.81	42541.58
632.96	42824.78
633.10	42941.81
633.25	42347.31
633.40	42593.07
633.55	42878.61
633.70	43318.64
633.85	42366.04
634.00	42866.91
634.15	42717.12
634.30	42635.20
634.45	42548.60
634.60	42665.63
634.75	42349.65
634.90	42323.91
635.05	42536.90
635.19	42880.95
635.34	42550.94
635.49	42368.38
635.64	42227.95
635.79	42405.83
635.94	41991.55
636.09	42405.83
636.24	42131.98
636.39	41902.61
636.53	42033.68
636.68	41579.62
636.83	41830.05
636.98	42326.25
637.13	41565.57
637.28	41921.34
637.43	42511.15
637.57	42721.80
637.72	42089.85
637.87	42101.56
638.02	42012.62
638.17	42260.71
638.32	41766.86
638.46	41731.75
638.61	41680.26
638.76	41621.75
638.91	41607.70
639.06	41577.28
639.20	41434.50
639.35	42288.80
639.50	41453.23
639.65	42059.43
639.80	41991.55
639.94	41549.19
640.09	41394.71
640.24	41565.57
640.39	41406.42
640.54	41177.04
640.68	41202.79
640.83	41265.99
640.98	41265.99
641.13	41198.11
641.27	41727.07
641.42	40858.73
641.57	41205.13
641.72	40924.27
641.86	40907.88
642.01	41053.00
642.16	41270.67
642.31	40278.28
642.45	41366.63
642.60	40753.41
642.75	41029.59
642.90	41228.54
643.04	40465.52
643.19	41146.62
643.34	41053.00
643.48	40985.12
643.63	41181.73
643.78	40697.24
643.93	40903.20
644.07	40575.53
644.22	40847.03
644.37	40385.94
644.51	40100.40
644.66	40741.71
644.81	40634.04
644.95	40669.15
645.10	40311.05
645.25	40889.16
645.39	40470.20
645.54	40797.88
645.69	40514.67
645.83	40591.91
645.98	40149.55
646.13	40299.34
646.27	40336.79
646.42	39826.56
646.57	40666.81
646.71	40545.10
646.86	40051.25
647.00	40481.91
647.15	39981.03
647.30	40437.44
647.44	40268.92
647.59	40250.19
647.74	40299.34
647.88	40112.10
648.03	39608.89
648.17	40261.90
648.32	39517.60
648.47	39742.30
648.61	39908.47
648.76	40037.20
648.90	40020.82
649.05	39683.78
649.20	40282.96
649.34	39920.18
649.49	39683.78
649.63	39702.51
649.78	39784.43
649.92	39487.18
650.07	39746.98
650.21	39431.01
650.36	39407.60
650.51	39517.60
650.65	40128.48
650.80	39992.73
650.94	39847.62
651.09	39665.06
651.23	39648.68
651.38	39665.06
651.52	39218.02
651.67	39573.78
651.81	39791.45
651.96	39398.24
652.10	38925.45
652.25	39189.93
652.39	39328.02
652.54	39641.65
652.68	39562.08
652.83	39393.56
652.97	39541.01
653.12	39105.67
653.26	39115.03
653.41	39330.36
653.55	38866.94
653.70	39330.36
653.84	38958.22
653.99	38834.17
654.13	39283.55
654.27	38962.90
654.42	38852.89
654.56	38712.46
654.71	38700.76
654.85	38700.76
655.00	38836.51
655.14	38735.87
655.29	38052.43
655.43	38370.74
655.57	38253.72
655.72	37940.08
655.86	38122.65
656.01	38181.16
656.15	37715.39
656.30	38326.27
656.44	38155.41
656.58	37799.65
656.73	37715.39
656.87	38033.71
657.01	38036.05
657.16	37996.26
657.30	37713.05
657.45	38162.43
657.59	38162.43
657.73	38120.31
657.88	37951.79
658.02	37858.17
658.16	37954.13
658.31	38560.33
658.45	38183.50
658.60	38232.65
658.74	38291.16
658.88	37799.65
659.03	37647.52
659.17	37387.72
659.31	37862.85
659.46	37542.19
659.60	37881.57
659.74	37586.66
659.89	37556.24
660.03	37844.12
660.17	37743.48
660.32	37951.79
660.46	37677.94
660.60	37790.29
660.74	37376.01
660.89	37479.00
661.03	36790.88
661.17	37024.93
661.32	36945.36
661.46	37347.93
661.60	36694.92
661.74	37088.13
661.89	36875.14
662.03	37001.53
662.17	37017.91
662.31	36914.93
662.46	36727.69
662.60	36746.41
662.74	36715.98
662.88	36692.58
663.03	36505.34
663.17	36697.26
663.31	36369.58
663.45	36844.71
663.60	37074.09
663.74	36423.42
663.88	35798.49
664.02	36004.46
664.17	36245.54
664.31	35791.47
664.45	36268.94
664.59	36067.66
664.73	36313.41
664.88	36196.38
665.02	35873.39
665.16	35985.74
665.30	36006.80
665.44	36032.55
665.59	35929.56
665.73	35796.15
665.87	35384.22
666.01	35637.00
666.15	35414.65
666.29	35379.54
666.44	35550.40
666.58	35227.40
666.72	35304.64
666.86	35175.91
667.00	35498.91
667.14	35180.59
667.28	34677.38
667.43	34904.41
667.57	34724.19
667.71	34960.58
667.85	34890.37
667.99	34499.50
668.13	35012.07
668.27	34738.23
668.41	34855.26
668.56	34384.81
668.70	34501.84
668.84	34469.07
668.98	34094.58
669.12	34450.35
669.26	34642.27
669.40	33972.88
669.54	34167.14
669.68	34253.74
669.82	34349.70
669.96	33687.33
670.10	33729.46
670.25	33921.38
670.39	33977.56
670.53	33797.34
670.67	33706.05
670.81	33717.76
670.95	33722.44
671.09	34082.88
671.23	34015.01
671.37	33579.67
671.51	33237.95
671.65	33689.67
671.79	32826.01
671.93	33560.94
672.07	33324.55
672.21	33289.44
672.35	32870.48
672.49	32889.21
672.63	32957.08
672.77	32816.65
672.91	32917.29
673.05	33067.09
673.19	32865.80
673.33	32587.28
673.47	32252.58
673.61	32336.84
673.75	32182.37
673.89	31906.18
674.03	31725.96
674.17	32091.09
674.31	32165.98
674.45	32032.57
674.59	32006.83
674.73	32350.88
674.87	31896.82
675.01	32086.40
675.15	31948.31
675.29	31566.81
675.43	32044.27
675.56	31667.45
675.70	31819.58
675.84	31269.56
675.98	30452.71
676.12	30824.86
676.26	31297.64
676.40	30817.83
676.54	31042.53
676.68	31405.31
676.82	29923.75
676.96	30403.56
677.10	30345.05
677.23	30265.47
677.37	30436.33
677.51	30249.08
677.65	30476.12
677.79	29682.67
677.93	29991.62
678.07	29853.53
678.21	29577.35
678.34	29713.10
678.48	29727.14
678.62	29338.62
678.76	29205.20
678.90	29317.55
679.04	29373.72
679.18	29722.46
679.31	29156.05
679.45	28491.34
679.59	28362.61
679.73	28444.53
679.87	29270.74
680.00	28971.15
680.14	28734.76
680.28	28147.28
680.42	28161.33
680.56	28498.36
680.70	28133.24
680.83	28177.71
680.97	28004.51
681.11	28018.55
681.25	27606.62
681.39	28044.30
681.52	27936.63
681.66	27742.37
681.80	27826.63
681.94	27594.92
682.07	27136.17
682.21	27295.33
682.35	27040.21
682.49	27105.74
682.62	27140.85
682.76	26920.84
682.90	27026.17
683.04	27075.32
683.17	26490.18
683.31	26471.46
683.45	26780.41
683.59	26635.30
683.72	25947.18
683.86	25996.33
684.00	25977.61
684.13	26192.94
684.27	26377.84
684.41	26071.23
684.55	26122.72
684.68	25371.41
684.82	25418.22
684.96	25392.47
685.09	25230.98
685.23	25158.42
685.37	25525.88
685.50	25446.30
685.64	24961.81
685.78	25245.02
685.91	24933.73
686.05	24854.15
686.19	24645.84
686.32	24655.20
686.46	24428.17
686.60	23857.08
686.73	23428.76
686.87	23875.80
687.01	23667.50
687.14	23587.92
687.28	23686.22
687.42	23627.71
687.55	23201.73
687.69	23690.90
687.82	23435.78
687.96	23396.00
688.10	23498.98
688.23	23325.78
688.37	23227.48
688.50	22799.16
688.64	23002.78
688.78	23117.47
688.91	22682.13
689.05	22916.19
689.18	22494.89
689.32	22029.12
689.46	22867.03
689.59	22462.12
689.73	22354.46
689.86	22548.72
690.00	22618.94
690.13	22302.96
690.27	22263.18
690.41	22082.95
690.54	22012.74
690.68	21694.43
690.81	21490.80
690.95	21647.61
691.08	21516.54
691.22	21610.17
691.35	21549.31
691.49	21177.17
691.62	21401.86
691.76	21474.42
691.89	21177.17
692.03	21120.99
692.16	21212.28
692.30	20980.56
692.43	21186.53
692.57	20966.52
692.70	20798.00
692.84	20868.22
692.97	20688.00
693.11	20252.66
693.24	20383.73
693.38	20095.84
693.51	19971.79
693.65	20072.43
693.78	20173.08
693.92	20126.27
694.05	19545.81
694.19	19758.80
694.32	19819.66
694.45	19747.10
694.59	19580.92
694.72	19377.30
694.86	19339.85
694.99	19260.27
695.13	18988.77
695.26	19234.52
695.39	18766.42
695.53	19007.49
695.66	19236.86
695.80	18977.06
695.93	18766.42
696.07	18396.61
696.20	18420.02
696.33	18494.91
696.47	18267.88
696.60	18352.14
696.73	18530.02
696.87	18363.84
697.00	18160.22
697.14	18092.34
697.27	18225.75
697.40	18188.30
697.54	18001.06
697.67	17848.93
697.80	17893.40
697.94	17858.29
698.07	17558.70
698.21	17701.47
698.34	17490.82
698.47	17235.70
698.61	17202.94
698.74	17174.85
698.87	17413.59
699.01	17099.95
699.14	16893.99
699.27	16798.02
699.40	16669.30
699.54	16659.93
699.67	16681.00
699.80	16603.76
699.94	16482.05
700.07	16526.52
700.20	16355.66
700.34	16250.34
700.47	16397.79
700.60	16264.38
700.73	16163.74
700.87	15988.20
701.00	16079.48
701.13	15932.03
701.26	15758.83
701.40	15896.92
701.53	15817.34
701.66	15770.53
701.79	15531.80
701.93	15222.84
702.06	15281.36
702.19	15248.59
702.32	15639.46
702.46	15199.44
702.59	15344.55
702.72	15218.16
702.85	15019.22
702.99	15091.77
703.12	15054.33
703.25	14883.47
703.38	14703.25
703.51	14932.62
703.65	14878.79
703.78	14356.85
703.91	14548.77
704.04	14499.62
704.17	14654.09
704.31	14541.75
704.44	14118.11
704.57	14272.59
704.70	13914.48
704.83	14223.44
704.96	14031.51
705.10	14314.72
705.23	14143.86
>>>>>End Processed Spectral Data<<<<<
