SpectraSuite Data File
++++++++++++++++++++++++++++++++++++
Date: Fri Oct 25 11:34:42 EDT 2013
User: price-jones
Dark Spectrum Present: No
Reference Spectrum Present: No
Number of Sampled Component Spectra: 1
Spectrometers: USB2+H05261
Integration Time (usec): 100000 (USB2+H05261)
Spectra Averaged: 1 (USB2+H05261)
Boxcar Smoothing: 0 (USB2+H05261)
Correct for Electrical Dark: No (USB2+H05261)
Strobe/Lamp Enabled: No (USB2+H05261)
Correct for Detector Non-linearity: No (USB2+H05261)
Correct for Stray Light: No (USB2+H05261)
Number of Pixels in Processed Spectrum: 2048
>>>>>Begin Processed Spectral Data<<<<<
365.73	297.25
365.92	297.25
366.12	297.25
366.32	175.54
366.52	114.69
366.72	210.65
366.91	133.41
367.11	177.88
367.31	215.33
367.51	184.90
367.70	182.56
367.90	191.92
368.10	152.13
368.30	196.60
368.49	154.48
368.69	184.90
368.89	159.16
369.09	236.39
369.28	173.20
369.48	173.20
369.68	248.10
369.87	262.14
370.07	248.10
370.27	283.20
370.47	402.57
370.66	479.81
370.86	510.24
371.06	519.60
371.25	561.73
371.45	547.69
371.65	594.50
371.84	592.16
372.04	573.43
372.24	418.96
372.44	585.13
372.63	650.67
372.83	610.88
373.03	608.54
373.22	629.60
373.42	629.60
373.62	653.01
373.81	596.84
374.01	655.35
374.21	615.56
374.40	599.18
374.60	636.63
374.79	547.69
374.99	685.78
375.19	596.84
375.38	655.35
375.58	641.31
375.78	624.92
375.97	634.29
376.17	610.88
376.37	636.63
376.56	711.52
376.76	669.39
376.95	638.97
377.15	620.24
377.35	664.71
377.54	636.63
377.74	676.41
377.93	699.82
378.13	692.80
378.33	706.84
378.52	718.54
378.72	660.03
378.91	636.63
379.11	622.58
379.31	767.70
379.50	713.86
379.70	606.20
379.89	685.78
380.09	779.40
380.28	650.67
380.48	772.38
380.68	674.07
380.87	777.06
381.07	697.48
381.26	814.51
381.46	716.20
381.65	774.72
381.85	793.44
382.04	800.46
382.24	788.76
382.43	781.74
382.63	664.71
382.83	755.99
383.02	758.33
383.22	786.42
383.41	720.88
383.61	718.54
383.80	791.10
384.00	816.85
384.19	772.38
384.39	753.65
384.58	851.96
384.78	788.76
384.97	830.89
385.17	837.91
385.36	873.02
385.56	844.93
385.75	772.38
385.95	819.19
386.14	753.65
386.34	772.38
386.53	877.70
386.72	826.21
386.92	866.00
387.11	856.64
387.31	884.72
387.50	788.76
387.70	830.89
387.89	947.92
388.09	915.15
388.28	861.32
388.48	873.02
388.67	896.43
388.86	926.85
389.06	858.98
389.25	884.72
389.45	922.17
389.64	896.43
389.84	905.79
390.03	903.45
390.22	908.13
390.42	912.81
390.61	968.98
390.81	924.51
391.00	1020.47
391.19	915.15
391.39	915.15
391.58	992.39
391.78	1032.18
391.97	961.96
392.16	968.98
392.36	1018.13
392.55	936.21
392.75	1025.15
392.94	1039.20
393.13	1104.73
393.33	1048.56
393.52	1100.05
393.71	992.39
393.91	1078.99
394.10	1062.60
394.29	1015.79
394.49	1060.26
394.68	1086.01
394.88	1116.44
395.07	1125.80
395.26	1067.28
395.46	1104.73
395.65	1139.84
395.84	1160.91
396.04	1247.51
396.23	1107.07
396.42	1093.03
396.62	1144.52
396.81	1172.61
397.00	1151.54
397.19	1207.72
397.39	1219.42
397.58	1172.61
397.77	1212.40
397.97	1259.21
398.16	1172.61
398.35	1219.42
398.55	1233.46
398.74	1200.69
398.93	1320.06
399.12	1289.64
399.32	1303.68
399.51	1261.55
399.70	1329.42
399.90	1310.70
400.09	1329.42
400.28	1317.72
400.47	1317.72
400.67	1303.68
400.86	1315.38
401.05	1380.92
401.24	1369.21
401.44	1217.08
401.63	1427.73
401.82	1341.13
402.01	1313.04
402.21	1441.77
402.40	1423.05
402.59	1315.38
402.78	1434.75
402.97	1401.98
403.17	1483.90
403.36	1394.96
403.55	1413.68
403.74	1502.62
403.93	1469.86
404.13	1542.41
404.32	1500.28
404.51	1500.28
404.70	1493.26
404.89	1666.46
405.09	1685.19
405.28	1600.93
405.47	1540.07
405.66	1631.35
405.85	1720.29
406.05	1694.55
406.24	1640.72
406.43	1661.78
406.62	1666.46
406.81	1832.64
407.00	1710.93
407.20	1661.78
407.39	1727.32
407.58	1729.66
407.77	1741.36
407.96	1753.06
408.15	1788.17
408.34	1811.57
408.54	1863.07
408.73	1900.52
408.92	1863.07
409.11	1900.52
409.30	1900.52
409.49	1928.60
409.68	1872.43
409.87	1961.37
410.07	1966.05
410.26	1930.94
410.45	2010.52
410.64	2003.50
410.83	2141.59
411.02	2047.97
411.21	1963.71
411.40	1952.01
411.59	2120.53
411.78	2054.99
411.98	2134.57
412.17	2099.46
412.36	2092.44
412.55	2104.14
412.74	2263.30
412.93	2207.13
413.12	2298.41
413.31	2230.53
413.50	2340.54
413.69	2289.04
413.88	2272.66
414.07	2363.94
414.26	2438.84
414.45	2431.82
414.64	2464.58
414.83	2487.99
415.02	2457.56
415.22	2527.78
415.41	2602.68
415.60	2532.46
415.79	2448.20
415.98	2590.97
416.17	2579.27
416.36	2731.41
416.55	2689.28
416.74	2712.68
416.93	2637.78
417.12	2682.25
417.31	2719.70
417.50	2764.17
417.69	2822.69
417.88	2778.22
418.07	2818.00
418.26	2743.11
418.45	2799.28
418.64	2813.32
418.83	2815.66
419.02	2792.26
419.21	2909.29
419.39	3028.65
419.58	2970.14
419.77	2942.05
419.96	2967.80
420.15	3005.25
420.34	2967.80
420.53	3045.04
420.72	3152.70
420.91	3056.74
421.10	3192.49
421.29	3054.40
421.48	2993.55
421.67	3152.70
421.86	3255.69
422.05	3124.62
422.24	3087.17
422.43	3098.87
422.61	3166.74
422.80	3274.41
422.99	3393.78
423.18	3173.77
423.37	3297.81
423.56	3190.15
423.75	3222.92
423.94	3112.91
424.13	3005.25
424.32	3159.72
424.50	3215.90
424.69	3253.34
424.88	3283.77
425.07	3272.07
425.26	3356.33
425.45	3243.98
425.64	3321.22
425.83	3335.26
426.01	3396.12
426.20	3260.37
426.39	3225.26
426.58	3351.65
426.77	3375.05
426.96	3494.42
427.15	3339.94
427.33	3478.04
427.52	3405.48
427.71	3459.31
427.90	3384.41
428.09	3426.54
428.28	3569.32
428.46	3602.08
428.65	3522.51
428.84	3681.66
429.03	3527.19
429.22	3447.61
429.40	3499.10
429.59	3585.70
429.78	3499.10
429.97	3482.72
430.16	3597.40
430.34	3700.39
430.53	3536.55
430.72	3709.75
430.91	3660.60
431.10	3695.71
431.28	3667.62
431.47	3777.62
431.66	3791.67
431.85	3845.50
432.03	3740.18
432.22	3988.27
432.41	3859.54
432.60	3826.78
432.79	3918.06
432.97	3847.84
433.16	3957.85
433.35	3786.99
433.54	3824.44
433.72	3962.53
433.91	3976.57
434.10	4044.45
434.28	3957.85
434.47	4124.02
434.66	4114.66
434.85	4203.60
435.03	4065.51
435.22	4114.66
435.41	4348.72
435.59	4133.39
435.78	4322.97
435.97	4170.83
436.16	4133.39
436.34	4070.19
436.53	4341.69
436.72	4208.28
436.90	4173.18
437.09	4311.27
437.28	4264.46
437.46	4194.24
437.65	4423.61
437.84	4318.29
438.02	4355.74
438.21	4395.53
438.40	4257.43
438.58	4519.57
438.77	4521.92
438.96	4484.47
439.14	4596.81
439.33	4613.20
439.52	4643.62
439.70	4650.64
439.89	4816.82
440.08	4854.27
440.26	4737.24
440.45	4723.20
440.63	4758.31
440.82	5046.20
441.01	4751.29
441.19	4931.51
441.38	4954.91
441.57	5043.85
441.75	4936.19
441.94	5167.90
442.12	4961.94
442.31	5067.26
442.50	5132.79
442.68	5085.98
442.87	5296.63
443.05	5144.50
443.24	5130.45
443.43	5263.86
443.61	5228.76
443.80	5427.70
443.98	5186.63
444.17	5008.75
444.35	5280.25
444.54	5263.86
444.73	5331.74
444.91	5327.06
445.10	5348.12
445.28	5465.15
445.47	5303.65
445.65	5268.55
445.84	5385.57
446.02	5444.09
446.21	5406.64
446.39	5413.66
446.58	5502.60
446.77	5371.53
446.95	5301.31
447.14	5469.83
447.32	5348.12
447.51	5355.15
447.69	5345.78
447.88	5467.49
448.06	5502.60
448.25	5495.58
448.43	5486.22
448.62	5526.00
448.80	5572.82
448.99	5469.83
449.17	5661.76
449.36	5600.90
449.54	5652.39
449.73	5790.49
449.91	5502.60
450.10	5769.42
450.28	5820.91
450.46	5706.23
450.65	5809.21
450.83	5806.87
451.02	5720.27
451.20	5865.38
451.39	5813.89
451.57	5823.25
451.76	5907.51
451.94	5954.32
452.13	5902.83
452.31	5933.26
452.49	5905.17
452.68	6118.16
452.86	6071.35
453.05	6012.84
453.23	6134.54
453.42	6113.48
453.60	5818.57
453.78	6106.46
453.97	5928.58
454.15	6001.13
454.34	5963.68
454.52	6321.79
454.70	6256.25
454.89	6282.00
455.07	6083.05
455.26	6296.04
455.44	6293.70
455.62	6200.08
455.81	6366.26
455.99	6420.09
456.17	6530.09
456.36	6492.65
456.54	6490.31
456.73	6471.58
456.91	6729.04
457.09	6682.23
457.28	6705.63
457.46	6548.82
457.64	6869.47
457.83	6902.24
458.01	6483.28
458.19	6850.75
458.38	6745.42
458.56	6775.85
458.74	6848.41
458.93	6813.30
459.11	6939.69
459.29	6817.98
459.48	6974.80
459.66	6944.37
459.84	7035.65
460.03	7140.97
460.21	7045.01
460.39	7009.90
460.57	7082.46
460.76	7045.01
460.94	7178.42
461.12	7070.76
461.31	7089.48
461.49	7075.44
461.67	7096.50
461.85	7309.49
462.04	7311.83
462.22	7571.63
462.40	7222.89
462.59	7375.03
462.77	7258.00
462.95	7398.43
463.13	7253.32
463.32	7545.89
463.50	7506.10
463.68	7541.21
463.86	7494.40
464.05	7302.47
464.23	7424.18
464.41	7485.03
464.59	7470.99
464.78	7653.55
464.96	7550.57
465.14	7463.97
465.32	7588.02
465.50	7700.36
465.69	7772.92
465.87	7527.16
466.05	7838.45
466.23	7803.35
466.41	7531.84
466.60	7889.95
466.78	7810.37
466.96	7744.83
467.14	7866.54
467.32	7826.75
467.51	7894.63
467.69	7698.02
467.87	7763.56
468.05	7723.77
468.23	7932.08
468.41	7721.43
468.60	8065.49
468.78	8013.99
468.96	8013.99
469.14	8135.70
469.32	8259.75
469.50	8189.53
469.69	8140.38
469.87	8173.15
470.05	8320.60
470.23	8311.24
470.41	8128.68
470.59	8477.42
470.77	8430.61
470.95	8531.25
471.14	8561.68
471.32	8138.04
471.50	8449.33
471.68	8496.14
471.86	8538.27
472.04	8589.77
472.22	8615.51
472.40	8472.74
472.58	8716.16
472.77	8887.01
472.95	8662.32
473.13	9212.35
473.31	8821.48
473.49	9048.51
473.67	8823.82
473.85	8966.59
474.03	8978.30
474.21	9366.82
474.39	9399.59
474.57	9116.39
474.75	9289.59
474.93	9221.71
475.12	9385.55
475.30	9848.97
475.48	9509.60
475.66	9563.43
475.84	9296.61
476.02	9579.81
476.20	9778.76
476.38	9680.46
476.56	9998.77
476.74	10031.54
476.92	9909.83
477.10	10031.54
477.28	9832.59
477.46	9994.09
477.64	10160.27
477.82	10326.44
478.00	10626.03
478.18	10586.24
478.36	10600.29
478.54	10630.71
478.72	10855.40
478.90	10867.11
479.08	11016.90
479.26	10986.47
479.44	11201.80
479.62	11077.76
479.80	10974.77
479.98	11204.14
480.16	11459.26
480.34	11222.87
480.52	11639.48
480.70	11627.78
480.88	11548.20
481.06	11709.70
481.24	11815.02
481.41	11943.75
481.59	12102.91
481.77	12182.49
481.95	12322.92
482.13	12159.08
482.31	12325.26
482.49	12634.21
482.67	12479.74
482.85	12617.83
483.03	12629.53
483.21	12973.59
483.39	13202.96
483.57	12936.14
483.74	13132.75
483.92	13270.84
484.10	13373.82
484.28	13483.83
484.46	13467.44
484.64	13738.94
484.82	13495.53
485.00	13640.64
485.18	14080.66
485.35	14408.34
485.53	14097.05
485.71	14406.00
485.89	14326.42
486.07	14431.74
486.25	14595.58
486.43	14597.92
486.61	14883.47
486.78	14895.17
486.96	14766.44
487.14	15122.20
487.32	15440.51
487.50	15522.43
487.68	15461.58
487.85	15700.31
488.03	15735.42
488.21	15915.64
488.39	16081.82
488.57	15908.62
488.75	15859.47
488.92	16362.69
489.10	16580.36
489.28	16472.69
489.46	16652.91
489.64	16723.13
489.81	17170.17
489.99	17029.74
490.17	17277.83
490.35	17427.63
490.53	17589.13
490.70	17387.84
490.88	17621.89
491.06	18101.70
491.24	17984.68
491.41	17743.60
491.59	18010.42
491.77	18108.72
491.95	18417.68
492.13	18405.97
492.30	18705.56
492.48	18387.25
492.66	18787.48
492.84	18752.37
493.01	19063.66
493.19	18932.59
493.37	19253.25
493.54	19187.71
493.72	19356.23
493.90	19480.28
494.08	19543.47
494.25	19641.78
494.43	19723.69
494.61	19866.47
494.79	20018.60
494.96	20081.80
495.14	20339.26
495.32	20313.51
495.49	20629.48
495.67	20601.40
495.85	20287.76
496.02	20716.08
496.20	21109.29
496.38	21195.89
496.55	20999.29
496.73	21762.30
496.91	21277.81
497.09	21474.42
497.26	21900.39
497.44	21479.10
497.62	21776.34
497.79	22370.84
497.97	21750.60
498.14	22008.06
498.32	22380.20
498.50	22043.17
498.67	22649.36
498.85	22480.85
499.03	22567.45
499.20	22799.16
499.38	22745.33
499.56	22963.00
499.73	23049.60
499.91	23019.17
500.08	23047.26
500.26	23255.56
500.44	23122.15
500.61	23400.68
500.79	23372.59
500.97	23627.71
501.14	23997.51
501.32	23534.09
501.49	23672.18
501.67	23562.17
501.84	24130.92
502.02	23819.63
502.20	24271.36
502.37	24379.02
502.55	24257.31
502.72	24606.05
502.90	24559.24
503.07	24105.18
503.25	24748.82
503.43	24357.96
503.60	24767.55
503.78	24889.26
503.95	25109.27
504.13	25057.78
504.30	24982.88
504.48	25034.37
504.65	25549.29
504.83	25310.55
505.01	25369.07
505.18	25497.80
505.36	25628.87
505.53	25556.31
505.71	25738.87
505.88	25944.84
506.06	25706.10
506.23	26366.13
506.41	25986.97
506.58	26244.43
506.76	25940.16
506.93	26658.70
507.11	26281.88
507.28	26597.85
507.46	26324.01
507.63	26455.08
507.81	26916.16
507.98	26677.43
508.16	26635.30
508.33	26717.22
508.50	27007.44
508.68	26897.44
508.85	27328.10
509.03	26981.70
509.20	27655.77
509.38	27395.97
509.55	27428.74
509.73	27667.47
509.90	27630.02
510.08	27580.87
510.25	28004.51
510.42	27728.33
510.60	27885.14
510.77	28250.27
510.95	28437.51
511.12	28369.63
511.30	28147.28
511.47	28615.39
511.64	28481.98
511.82	28503.04
511.99	28641.14
512.17	28931.36
512.34	28496.02
512.51	28732.42
512.69	28898.59
512.86	28687.95
513.04	29333.93
513.21	29013.28
513.38	29312.87
513.56	29214.57
513.73	29469.69
513.90	29308.19
514.08	29317.55
514.25	29450.96
514.43	29968.22
514.60	29762.25
514.77	30038.44
514.95	29949.50
515.12	29516.50
515.29	29443.94
515.47	29991.62
515.64	30108.65
515.81	30181.21
515.99	30452.71
516.16	30518.25
516.33	30333.34
516.51	30654.00
516.68	30490.16
516.85	30321.64
517.03	30345.05
517.20	30754.64
517.37	30794.43
517.54	31072.95
517.72	30532.29
517.89	30930.18
518.06	31157.21
518.24	30876.35
518.41	31089.34
518.58	31414.67
518.75	30775.70
518.93	31412.33
519.10	31058.91
519.27	31833.63
519.45	31386.58
519.62	31772.77
519.79	32119.17
519.96	32051.30
520.14	31763.41
520.31	31407.65
520.48	32081.72
520.65	31868.73
520.83	32105.13
521.00	32503.02
521.17	31950.65
521.34	32718.35
521.52	32748.78
521.69	32388.33
521.86	32837.72
522.03	32533.45
522.20	32882.19
522.38	33125.60
522.55	32730.05
522.72	33048.36
522.89	33071.77
523.07	33195.82
523.24	33057.73
523.41	33366.68
523.58	33331.57
523.75	33572.64
523.92	33294.12
524.10	33385.40
524.27	33343.27
524.44	33619.46
524.61	33872.23
524.78	33986.92
524.96	34101.61
525.13	34087.56
525.30	33949.47
525.47	34293.53
525.64	33888.62
525.81	34274.80
525.98	34288.85
526.16	34213.95
526.33	34316.93
526.50	34267.78
526.67	34146.08
526.84	34588.44
527.01	34464.39
527.18	34745.25
527.36	34778.02
527.53	34342.68
527.70	34892.71
527.87	34974.63
528.04	34700.78
528.21	34951.22
528.38	35072.93
528.55	35119.74
528.72	35131.44
528.89	35189.95
529.07	35122.08
529.24	35222.72
529.41	35370.18
529.58	34857.60
529.75	34869.30
529.92	35325.71
530.09	35669.76
530.26	35456.78
530.43	35622.95
530.60	35405.28
530.77	35494.22
530.94	35751.68
531.11	35950.63
531.28	35871.05
531.46	35517.63
531.63	35800.83
531.80	35917.86
531.97	36245.54
532.14	36219.79
532.31	36446.82
532.48	36046.59
532.65	36077.02
532.82	36142.55
532.99	36301.71
533.16	35978.72
533.33	36233.83
533.50	36676.19
533.67	36362.56
533.84	36409.37
534.01	36587.25
534.18	36542.78
534.35	36975.78
534.52	37090.47
534.69	36875.14
534.86	37280.05
535.03	37254.31
535.20	37340.91
535.37	37111.53
535.54	37266.01
535.71	37380.70
535.88	37404.10
536.05	36933.65
536.22	37670.92
536.38	37446.23
536.55	37020.25
536.72	37308.14
536.89	37315.16
537.06	37640.50
537.23	37397.08
537.40	37656.88
537.57	37612.41
537.74	37603.05
537.91	37811.35
538.08	37790.29
538.25	37680.28
538.42	38134.35
538.59	38047.75
538.75	37813.70
538.92	37949.45
539.09	38220.95
539.26	37944.76
539.43	37907.32
539.60	38419.89
539.77	38108.60
539.94	38522.88
540.11	38527.56
540.28	38337.98
540.44	38714.80
540.61	38417.55
540.78	38529.90
540.95	38665.65
541.12	38504.15
541.29	38274.78
541.46	38745.23
541.62	38586.07
541.79	39082.27
541.96	38724.16
542.13	38829.49
542.30	38934.81
542.47	39084.61
542.63	38799.06
542.80	38738.21
542.97	39447.39
543.14	39388.88
543.31	39330.36
543.48	39299.94
543.64	39864.00
543.81	39658.04
543.98	39524.63
544.15	39821.87
544.32	39742.30
544.48	40034.86
544.65	39854.64
544.82	40133.17
544.99	39889.75
545.16	39763.36
545.32	39693.15
545.49	40196.36
545.66	40088.70
545.83	40318.07
546.00	40212.74
546.16	39889.75
546.33	40500.63
546.50	39896.77
546.67	40439.78
546.83	39981.03
547.00	40353.18
547.17	40151.89
547.34	40261.90
547.50	40556.80
547.67	40781.49
547.84	40861.07
548.00	40809.58
548.17	41034.27
548.34	40671.49
548.51	41340.88
548.67	40830.65
548.84	40816.60
549.01	40734.68
549.18	40561.48
549.34	40840.01
549.51	41134.92
549.68	41060.02
549.84	40875.12
550.01	41319.82
550.18	40917.25
550.34	40477.22
550.51	41338.54
550.68	41413.44
550.84	41500.04
551.01	41310.46
551.18	40898.52
551.34	41434.50
551.51	41588.98
551.68	41415.78
551.84	41556.21
552.01	41390.03
552.18	41053.00
552.34	41153.64
552.51	41722.39
552.68	41495.36
552.84	41677.92
553.01	41317.48
553.18	41392.37
553.34	41455.57
553.51	41425.14
553.67	41638.13
553.84	41862.82
554.01	41689.62
554.17	41670.90
554.34	42192.84
554.51	41996.23
554.67	42253.69
554.84	42141.35
555.00	41984.53
555.17	41851.12
555.33	42209.22
555.50	42054.75
555.67	42412.85
555.83	42464.34
556.00	42319.23
556.16	42834.14
556.33	42686.69
556.50	42363.70
556.66	42440.93
556.83	42326.25
556.99	42639.88
557.16	42295.82
557.32	42787.33
557.49	42508.81
557.65	42286.46
557.82	42623.50
557.98	42628.18
558.15	42583.71
558.32	42534.56
558.48	42534.56
558.65	42504.13
558.81	42850.53
558.98	42719.46
559.14	42831.80
559.31	42836.48
559.47	42827.12
559.64	42497.11
559.80	42674.99
559.97	43030.75
560.13	42632.86
560.30	43030.75
560.46	43201.61
560.63	42988.62
560.79	43386.51
560.96	43789.08
561.12	43002.66
561.29	43037.77
561.45	43419.28
561.61	43225.01
561.78	42822.44
561.94	43313.95
562.11	43243.74
562.27	42937.13
562.44	43463.75
562.60	43147.78
562.77	43227.35
562.93	43187.56
563.10	43564.39
563.26	43517.58
563.42	43686.10
563.59	42974.58
563.75	43611.20
563.92	43384.17
564.08	43395.87
564.24	43491.83
564.41	43695.46
564.57	43620.56
564.74	43379.49
564.90	43674.40
565.07	43391.19
565.23	43915.47
565.39	43739.93
565.56	43438.00
565.72	42995.64
565.88	43840.57
566.05	43650.99
566.21	43707.16
566.38	43779.72
566.54	44189.31
566.70	43711.84
566.87	43489.49
567.03	43709.50
567.19	43952.92
567.36	43725.89
567.52	43807.81
567.68	44147.18
567.85	44163.57
568.01	44182.29
568.17	44060.58
568.34	43796.10
568.50	44172.93
568.66	43746.95
568.83	43899.09
568.99	43992.71
569.15	44030.16
569.32	43779.72
569.48	43952.92
569.64	44582.52
569.81	44025.48
569.97	44128.46
570.13	44250.17
570.30	43955.26
570.46	44250.17
570.62	44259.53
570.78	44245.49
570.95	43765.68
571.11	44259.53
571.27	44093.35
571.43	43838.23
571.60	44126.12
571.76	44289.96
571.92	44135.48
572.09	43784.40
572.25	44299.32
572.41	44109.74
572.57	44175.27
572.74	44582.52
572.90	44367.20
573.06	44287.62
573.22	44088.67
573.38	44512.31
573.55	44318.04
573.71	44809.56
573.87	44559.12
574.03	44807.22
574.20	45207.45
574.36	44257.19
574.52	44205.70
574.68	44091.01
574.84	44418.69
575.01	44451.45
575.17	44575.50
575.33	44268.89
575.49	44376.56
575.65	44865.73
575.82	44568.48
575.98	44308.68
576.14	44512.31
576.30	45085.74
576.46	44676.15
576.62	44673.81
576.79	44311.02
576.95	44058.24
577.11	44210.38
577.27	44402.30
577.43	44348.47
577.59	44362.51
577.75	44652.74
577.92	44474.86
578.08	44612.95
578.24	44477.20
578.40	44339.11
578.56	44741.68
578.72	44392.94
578.88	44814.24
579.04	44495.92
579.21	44114.42
579.37	44367.20
579.53	44811.90
579.69	44222.08
579.85	44491.24
580.01	44535.71
580.17	44465.50
580.33	44875.09
580.49	44683.17
580.65	44650.40
580.82	44605.93
580.98	44446.77
581.14	44601.25
581.30	44643.38
581.46	44334.43
581.62	44896.16
581.78	44346.13
581.94	45195.74
582.10	44828.28
582.26	44999.14
582.42	44807.22
582.58	44718.28
582.74	44973.39
582.90	44687.85
583.06	44561.46
583.22	44645.72
583.38	44779.13
583.54	44835.30
583.70	45022.54
583.86	44875.09
584.02	44549.76
584.18	44964.03
584.34	45116.17
584.50	45158.30
584.66	44863.39
584.82	44804.88
584.98	45301.07
585.14	44758.06
585.30	44912.54
585.46	44952.33
585.62	44701.89
585.78	45326.81
585.94	44282.94
586.10	44652.74
586.26	44495.92
586.42	44856.37
586.58	44837.64
586.74	44442.09
586.90	44737.00
587.06	44676.15
587.22	45123.19
587.38	44729.98
587.54	44861.05
587.70	45184.04
587.86	44996.80
588.02	44619.97
588.18	44690.19
588.34	44868.07
588.49	45237.87
588.65	44863.39
588.81	44957.01
588.97	44748.70
589.13	44683.17
589.29	44896.16
589.45	45359.58
589.61	45113.83
589.77	45333.84
589.93	45064.67
590.08	44992.12
590.24	44854.03
590.40	45228.51
590.56	45507.04
590.72	45280.00
590.88	44760.40
591.04	45008.50
591.20	45294.05
591.35	45219.15
591.51	45764.49
591.67	45455.54
591.83	45577.25
591.99	45322.13
592.15	45317.45
592.31	44938.29
592.46	45441.50
592.62	45439.16
592.78	45635.77
592.94	45727.05
593.10	45617.04
593.26	45787.90
593.41	45399.37
593.57	45408.73
593.73	45109.14
593.89	46349.63
594.05	45762.15
594.20	45546.82
594.36	45635.77
594.52	45418.10
594.68	45752.79
594.84	45413.41
594.99	45773.86
595.15	45406.39
595.31	45731.73
595.47	45595.98
595.62	45631.08
595.78	45090.42
595.94	45331.50
596.10	45523.42
596.25	45769.18
596.41	45780.88
596.57	45722.37
596.73	45621.72
596.88	45542.14
597.04	45214.47
597.20	45958.76
597.36	45717.68
597.51	45806.62
597.67	45546.82
597.83	45560.87
597.99	45546.82
598.14	45380.65
598.30	45387.67
598.46	45397.03
598.61	46131.96
598.77	45539.80
598.93	45780.88
599.09	45516.40
599.24	46195.15
599.40	45876.84
599.56	45769.18
599.71	45928.33
599.87	45694.28
600.03	45783.22
600.18	45968.12
600.34	45808.96
600.50	45661.51
600.65	45635.77
600.81	46089.83
600.97	45944.72
601.12	46178.77
601.28	45841.73
601.44	45869.82
601.59	45532.78
601.75	45638.11
601.91	46073.45
602.06	45708.32
602.22	45612.36
602.37	45918.97
602.53	45860.46
602.69	46218.56
602.84	45474.27
603.00	45982.16
603.16	45766.84
603.31	45647.47
603.47	45942.38
603.62	45617.04
603.78	45944.72
603.94	45710.66
604.09	45841.73
604.25	45455.54
604.40	45525.76
604.56	45476.61
604.71	46120.26
604.87	45272.98
605.03	45418.10
605.18	45209.79
605.34	45895.56
605.49	45607.68
605.65	45937.69
605.80	45778.54
605.96	45748.11
606.12	45303.41
606.27	45401.71
606.43	45368.94
606.58	46050.04
606.74	45544.48
606.89	45429.80
607.05	45443.84
607.20	45808.96
607.36	45474.27
607.51	45837.05
607.67	45345.54
607.82	45638.11
607.98	45666.19
608.13	45340.86
608.29	45315.11
608.44	45759.81
608.60	45591.30
608.75	45621.72
608.91	45219.15
609.06	45251.92
609.22	45380.65
609.37	45179.36
609.53	45736.41
609.68	45673.21
609.84	45329.16
609.99	45610.02
610.15	45600.66
610.30	45595.98
610.46	45160.64
610.61	45296.39
610.76	45223.83
610.92	44776.79
611.07	45371.28
611.23	45083.40
611.38	45343.20
611.54	45357.24
611.69	45071.70
611.84	45188.72
612.00	45191.06
612.15	44807.22
612.31	44861.05
612.46	45387.67
612.62	45127.87
612.77	45151.27
612.92	45574.91
613.08	45429.80
613.23	45216.81
613.39	45338.52
613.54	44982.76
613.69	45202.77
613.85	45170.00
614.00	44809.56
614.15	45071.70
614.31	44921.90
614.46	45336.18
614.62	44811.90
614.77	45013.18
614.92	44811.90
615.08	44975.73
615.23	44580.18
615.38	45069.36
615.54	45059.99
615.69	44605.93
615.84	44952.33
616.00	44987.44
616.15	44739.34
616.30	45090.42
616.46	44741.68
616.61	44795.51
616.76	44851.69
616.92	45242.56
617.07	44715.93
617.22	44552.10
617.37	44535.71
617.53	44566.14
617.68	44753.38
617.83	44575.50
617.99	44884.45
618.14	44966.37
618.29	44563.80
618.45	44465.50
618.60	44615.29
618.75	44388.26
618.90	44381.24
619.06	44456.14
619.21	44088.67
619.36	44729.98
619.51	44088.67
619.67	44325.07
619.82	44479.54
619.97	44617.63
620.12	44116.76
620.28	44196.34
620.43	44278.25
620.58	44545.08
620.73	44465.50
620.89	44692.53
621.04	44446.77
621.19	44304.00
621.34	44364.85
621.49	44442.09
621.65	43936.54
621.80	44474.86
621.95	44203.36
622.10	44549.76
622.25	44561.46
622.41	44175.27
622.56	44165.91
622.71	43978.67
622.86	43915.47
623.01	44196.34
623.16	44198.68
623.32	44156.55
623.47	43997.39
623.62	43894.41
623.77	43784.40
623.92	44030.16
624.07	43856.96
624.23	44030.16
624.38	44004.41
624.53	43576.09
624.68	43789.08
624.83	43772.70
624.98	43728.23
625.13	43358.42
625.29	43545.67
625.44	43763.34
625.59	43838.23
625.74	43423.96
625.89	43693.12
626.04	43540.99
626.19	43826.53
626.34	43246.08
626.49	43693.12
626.65	43040.11
626.80	43157.14
626.95	43164.16
627.10	42906.70
627.25	43199.27
627.40	43414.60
627.55	42958.19
627.70	43030.75
627.85	43405.23
628.00	43416.94
628.15	43065.86
628.30	43005.00
628.45	42848.19
628.60	42419.87
628.76	43625.25
628.91	42883.30
629.06	42792.01
629.21	42794.36
629.36	42747.54
629.51	42377.74
629.66	43405.23
629.81	42726.48
629.96	43075.22
630.11	42735.84
630.26	42792.01
630.41	42969.90
630.56	42586.05
630.71	42707.76
630.86	42728.82
631.01	42557.96
631.16	42440.93
631.31	42351.99
631.46	42157.73
631.61	43023.73
631.76	42454.98
631.91	42895.00
632.06	43107.99
632.21	42525.19
632.36	42838.83
632.51	42359.02
632.66	42808.40
632.81	42511.15
632.96	42398.80
633.10	42501.79
633.25	42436.25
633.40	42579.03
633.55	42515.83
633.70	42380.08
633.85	42124.96
634.00	41942.40
634.15	41869.84
634.30	42024.32
634.45	42164.75
634.60	42113.26
634.75	42316.89
634.90	41556.21
635.05	42351.99
635.19	41867.50
635.34	41832.39
635.49	41808.99
635.64	42253.69
635.79	42162.41
635.94	42113.26
636.09	42199.86
636.24	42038.36
636.39	41890.91
636.53	42164.75
636.68	41745.80
636.83	41619.41
636.98	41596.00
637.13	41603.02
637.28	41935.38
637.43	41724.73
637.57	41818.35
637.72	41455.57
637.87	41425.14
638.02	41958.78
638.17	41811.33
638.32	41647.49
638.46	41317.48
638.61	41078.74
638.76	41483.66
638.91	41397.06
639.06	41642.81
639.20	41104.49
639.35	41298.75
639.50	41429.82
639.65	41289.39
639.80	41638.13
639.94	41668.56
640.09	41418.12
640.24	41727.07
640.39	40989.80
640.54	40690.21
640.68	41165.34
640.83	41375.99
640.98	40999.16
641.13	41015.55
641.27	41357.27
641.42	40961.72
641.57	41153.64
641.72	41013.21
641.86	40699.58
642.01	40800.22
642.16	40889.16
642.31	40617.66
642.45	41027.25
642.60	40858.73
642.75	40851.71
642.90	40950.01
643.04	40432.75
643.19	40755.75
643.34	40741.71
643.48	40100.40
643.63	40133.17
643.78	40542.76
643.93	40886.82
644.07	40259.55
644.22	40765.11
644.37	40535.74
644.51	40849.37
644.66	40556.80
644.81	40451.48
644.95	40926.61
645.10	40428.07
645.25	40821.28
645.39	39739.96
645.54	39906.13
645.69	39990.39
645.83	40074.65
645.98	40531.06
646.13	40350.84
646.27	40147.21
646.42	39428.66
646.57	40561.48
646.71	40135.51
646.86	40006.78
647.00	40254.87
647.15	40137.85
647.30	40030.18
647.44	40439.78
647.59	39950.60
647.74	39929.54
647.88	40156.57
648.03	40395.31
648.17	40531.06
648.32	39845.28
648.47	40500.63
648.61	39786.77
648.76	40170.61
648.90	40011.46
649.05	39906.13
649.20	40034.86
649.34	39927.20
649.49	40121.46
649.63	39981.03
649.78	39917.84
649.92	39936.56
650.07	40098.06
650.21	39957.63
650.36	40182.32
650.51	39669.74
650.65	39927.20
650.80	39966.99
650.94	39690.80
651.09	39576.12
651.23	39498.88
651.38	39264.83
651.52	39213.34
651.67	39339.72
651.81	39803.15
651.96	39526.97
652.10	39239.08
652.25	38911.41
652.39	39133.76
652.54	39391.22
652.68	39274.19
652.83	39173.55
652.97	39583.14
653.12	39166.52
653.26	38663.31
653.41	39171.21
653.55	39040.14
653.70	39250.78
653.84	39325.68
653.99	39285.89
654.13	39414.62
654.27	38712.46
654.42	38958.22
654.56	38574.37
654.71	39372.49
654.85	38925.45
655.00	39346.75
655.14	39100.99
655.29	39082.27
655.43	38799.06
655.57	38639.90
655.72	38574.37
655.86	38806.08
656.01	38775.66
656.15	38644.59
656.30	38717.14
656.44	38511.17
656.58	38731.18
656.73	38405.85
656.87	38644.59
657.01	38553.30
657.16	38663.31
657.30	38586.07
657.45	38368.40
657.59	37830.08
657.73	38003.28
657.88	38380.10
658.02	38614.16
658.16	38822.47
658.31	38820.13
658.45	38497.13
658.60	37867.53
658.74	38405.85
658.88	37860.51
659.03	37912.00
659.17	38143.71
659.31	37902.64
659.46	37567.94
659.60	37996.26
659.74	37909.66
659.89	37532.83
660.03	37689.65
660.17	38403.51
660.32	37467.30
660.46	37589.00
660.60	37160.69
660.74	37537.51
660.89	37565.60
661.03	37507.08
661.17	37273.03
661.32	37230.90
661.46	37457.93
661.60	37074.09
661.74	37041.32
661.89	37333.89
662.03	37450.91
662.17	36973.44
662.31	37172.39
662.46	37062.38
662.60	36926.63
662.74	36575.55
662.88	36875.14
663.03	36460.87
663.17	36481.93
663.31	36505.34
663.45	36566.19
663.60	36659.81
663.74	36655.13
663.88	36683.22
664.02	36407.03
664.17	36842.37
664.31	36341.50
664.45	35978.72
664.59	36191.70
664.73	36282.98
664.88	36231.49
665.02	35852.33
665.16	35831.26
665.30	35938.93
665.44	36144.89
665.59	35826.58
665.73	35536.35
665.87	35770.41
666.01	35761.05
666.15	35358.47
666.29	35658.06
666.44	35702.53
666.58	35988.08
666.72	35402.94
666.86	35594.87
667.00	35218.04
667.14	35285.92
667.28	35412.31
667.43	35189.95
667.57	35218.04
667.71	35264.85
667.85	35271.87
667.99	34937.18
668.13	35030.80
668.27	34787.38
668.41	34686.74
668.56	34553.33
668.70	34534.60
668.84	34593.12
668.98	34391.83
669.12	34576.73
669.26	34361.40
669.40	34424.60
669.54	34424.60
669.68	34506.52
669.82	34071.18
669.96	33624.14
670.10	33811.38
670.25	33806.70
670.39	33947.13
670.53	33916.70
670.67	33972.88
670.81	34218.63
670.95	33488.38
671.09	33827.76
671.23	33209.86
671.37	33635.84
671.51	33706.05
671.65	33483.70
671.79	33572.64
671.93	33633.50
672.07	33596.05
672.21	33385.40
672.35	33118.58
672.49	33420.51
672.63	33006.23
672.77	32907.93
672.91	32814.31
673.05	33003.89
673.19	32683.24
673.33	32582.60
673.47	32325.14
673.61	32084.06
673.75	32046.62
673.89	32252.58
674.03	32025.55
674.17	31885.12
674.31	31583.19
674.45	31805.54
674.59	31859.37
674.73	31744.69
674.87	31695.53
675.01	31508.29
675.15	31482.55
675.29	31051.89
675.43	31604.25
675.56	30969.97
675.70	31503.61
675.84	31143.17
675.98	30302.92
676.12	31388.92
676.26	31407.65
676.40	31044.87
676.54	30522.93
676.68	30174.19
676.82	30139.08
676.96	30682.08
677.10	30817.83
677.23	30274.83
677.37	30548.67
677.51	30246.74
677.65	30323.98
677.79	29788.00
677.93	30375.47
678.07	29750.55
678.21	29788.00
678.34	29584.37
678.48	29359.68
678.62	29404.15
678.76	29081.16
678.90	29092.86
679.04	29743.53
679.18	29277.76
679.31	29017.96
679.45	28790.93
679.59	28884.55
679.73	28945.41
679.87	28423.47
680.00	28376.66
680.14	28442.19
680.28	28547.51
680.42	28212.82
680.56	28254.95
680.70	28201.11
680.83	28128.56
680.97	27828.97
681.11	28292.40
681.25	27768.12
681.39	27269.58
681.52	27550.45
681.66	27440.44
681.80	27077.66
681.94	27194.68
682.07	27417.04
682.21	26876.37
682.35	26616.57
682.49	27225.11
682.62	26707.85
682.76	27194.68
682.90	26820.20
683.04	26239.75
683.17	26665.72
683.31	26349.75
683.45	26272.51
683.59	25991.65
683.72	25893.35
683.86	25811.43
684.00	25565.67
684.13	25926.11
684.27	25766.96
684.41	25462.69
684.55	25825.47
684.68	25467.37
684.82	25282.47
684.96	25057.78
685.09	25130.33
685.23	25408.86
685.37	25488.43
685.50	24982.88
685.64	25057.78
685.78	24819.04
685.91	24414.13
686.05	24173.05
686.19	24280.72
686.32	24334.55
686.46	23754.10
686.60	24091.13
686.73	24006.87
686.87	23838.36
687.01	24201.14
687.14	24114.54
687.28	23740.05
687.42	23618.35
687.55	23915.59
687.69	23662.82
687.82	23438.12
687.96	23660.48
688.10	22892.78
688.23	23555.15
688.37	23098.75
688.50	23185.35
688.64	22829.59
688.78	22604.89
688.91	22747.67
689.05	22862.35
689.18	22415.31
689.32	22073.59
689.46	22047.85
689.59	22167.21
689.73	22485.53
689.86	22314.67
690.00	22118.06
690.13	22015.08
690.27	22057.21
690.41	22054.87
690.54	21848.90
690.68	21387.82
690.81	21827.84
690.95	21469.73
691.08	21348.03
691.22	21174.83
691.35	21303.56
691.49	21362.07
691.62	21113.97
691.76	20725.44
691.89	20500.75
692.03	20680.97
692.16	20671.61
692.30	20423.51
692.43	20477.35
692.57	20060.73
692.70	20161.37
692.84	20318.19
692.97	19969.45
693.11	19946.05
693.24	20018.60
693.38	19960.09
693.51	19597.31
693.65	19690.93
693.78	19431.13
693.92	19421.77
694.05	19403.04
694.19	19026.21
694.32	19110.47
694.45	19543.47
694.59	19227.50
694.72	19400.70
694.86	18932.59
694.99	18923.23
695.13	18530.02
695.26	18515.98
695.39	18466.83
695.53	18492.57
695.66	18501.93
695.80	18281.92
695.93	18274.90
696.07	18209.37
696.20	18075.96
696.33	17811.48
696.47	17783.39
696.60	17741.26
696.73	17474.44
696.87	17944.89
697.00	17570.40
697.14	17535.29
697.27	17305.92
697.40	17212.30
697.54	17179.53
697.67	17291.88
697.80	17280.18
697.94	16952.50
698.07	17062.51
698.21	16840.15
698.34	17020.38
698.47	16556.95
698.61	16334.60
698.74	16297.15
698.87	16465.67
699.01	16060.76
699.14	16231.62
699.27	16318.22
699.40	16009.26
699.54	15953.09
699.67	16245.66
699.80	15953.09
699.94	15894.58
700.07	15800.96
700.20	16025.65
700.34	15630.10
700.47	15590.31
700.60	15892.24
700.73	15754.15
700.87	15325.83
701.00	15442.85
701.13	15295.40
701.26	15154.97
701.40	14995.81
701.53	14885.81
701.66	15267.31
701.79	14843.68
701.93	14794.53
702.06	14759.42
702.19	14745.38
702.32	14780.48
702.46	14824.95
702.59	14780.48
702.72	14604.94
702.85	14600.26
702.99	14516.00
703.12	14272.59
703.25	14410.68
703.38	14085.34
703.51	13940.23
703.65	14003.43
703.78	13776.39
703.91	13610.22
704.04	13696.82
704.17	13458.08
704.31	13624.26
704.44	13715.54
704.57	13502.55
704.70	13376.16
704.83	13371.48
704.96	13160.83
705.10	12924.44
705.23	13099.98
>>>>>End Processed Spectral Data<<<<<
