SpectraSuite Data File
++++++++++++++++++++++++++++++++++++
Date: Fri Oct 25 10:44:04 EDT 2013
User: price-jones
Dark Spectrum Present: No
Reference Spectrum Present: No
Number of Sampled Component Spectra: 1
Spectrometers: USB2+H05261
Integration Time (usec): 100000 (USB2+H05261)
Spectra Averaged: 1 (USB2+H05261)
Boxcar Smoothing: 0 (USB2+H05261)
Correct for Electrical Dark: No (USB2+H05261)
Strobe/Lamp Enabled: No (USB2+H05261)
Correct for Detector Non-linearity: No (USB2+H05261)
Correct for Stray Light: No (USB2+H05261)
Number of Pixels in Processed Spectrum: 2048
>>>>>Begin Processed Spectral Data<<<<<
365.73	128.73
365.92	128.73
366.12	128.73
366.32	4.68
366.52	0.00
366.72	84.26
366.91	0.00
367.11	0.00
367.31	39.79
367.51	0.00
367.70	0.00
367.90	46.81
368.10	7.02
368.30	32.77
368.49	0.00
368.69	44.47
368.89	42.13
369.09	86.60
369.28	28.09
369.48	14.04
369.68	88.94
369.87	35.11
370.07	91.28
370.27	88.94
370.47	257.46
370.66	374.49
370.86	491.51
371.06	468.11
371.25	498.53
371.45	376.83
371.65	421.30
371.84	435.34
372.04	465.77
372.24	503.22
372.44	519.60
372.63	547.69
372.83	514.92
373.03	472.79
373.22	559.39
373.42	517.26
373.62	561.73
373.81	528.96
374.01	634.29
374.21	580.45
374.40	596.84
374.60	582.79
374.79	601.52
374.99	634.29
375.19	603.86
375.38	643.65
375.58	578.11
375.78	617.90
375.97	617.90
376.17	676.41
376.37	704.50
376.56	594.50
376.76	573.43
376.95	636.63
377.15	610.88
377.35	655.35
377.54	695.14
377.74	739.61
377.93	615.56
378.13	734.93
378.33	648.33
378.52	660.03
378.72	755.99
378.91	720.88
379.11	653.01
379.31	704.50
379.50	688.12
379.70	688.12
379.89	676.41
380.09	671.73
380.28	662.37
380.48	671.73
380.68	800.46
380.87	704.50
381.07	713.86
381.26	774.72
381.46	758.33
381.65	816.85
381.85	723.23
382.04	847.27
382.24	681.10
382.43	671.73
382.63	709.18
382.83	748.97
383.02	760.67
383.22	739.61
383.41	767.70
383.61	828.55
383.80	812.17
384.00	732.59
384.19	774.72
384.39	833.23
384.58	777.06
384.78	826.21
384.97	826.21
385.17	880.04
385.36	849.61
385.56	723.23
385.75	830.89
385.95	840.25
386.14	931.53
386.34	802.80
386.53	870.68
386.72	844.93
386.92	898.77
387.11	842.59
387.31	896.43
387.50	837.91
387.70	889.40
387.89	919.83
388.09	814.51
388.28	847.27
388.48	896.43
388.67	994.73
388.86	929.19
389.06	1060.26
389.25	1029.84
389.45	922.17
389.64	987.71
389.84	1025.15
390.03	1064.94
390.22	999.41
390.42	1064.94
390.61	980.68
390.81	985.37
391.00	1167.93
391.19	1067.28
391.39	1107.07
391.58	1053.24
391.78	1125.80
391.97	1135.16
392.16	1008.77
392.36	1121.12
392.55	1102.39
392.75	997.07
392.94	1053.24
393.13	1078.99
393.33	1032.18
393.52	964.30
393.71	1015.79
393.91	1020.47
394.10	1114.10
394.29	1172.61
394.49	1188.99
394.68	1266.23
394.88	1270.91
395.07	1273.25
395.26	1366.87
395.46	1284.95
395.65	1308.36
395.84	1275.59
396.04	1392.62
396.23	1207.72
396.42	1205.38
396.62	1224.10
396.81	1284.95
397.00	1268.57
397.19	1238.14
397.39	1313.04
397.58	1397.30
397.77	1385.60
397.97	1453.47
398.16	1416.02
398.35	1598.59
398.55	1544.75
398.74	1462.83
398.93	1600.93
399.12	1638.38
399.32	1521.35
399.51	1565.82
399.70	1724.97
399.90	1640.72
400.09	1694.55
400.28	1589.22
400.47	1694.55
400.67	1659.44
400.86	1708.59
401.05	1638.38
401.24	1797.53
401.44	1736.68
401.63	1748.38
401.82	1806.89
402.01	1743.70
402.21	1816.26
402.40	1802.21
402.59	1799.87
402.78	1858.39
402.97	1778.81
403.17	1865.41
403.36	1909.88
403.55	1879.45
403.74	1870.09
403.93	1973.07
404.13	2026.90
404.32	2008.18
404.51	1973.07
404.70	1991.80
404.89	1944.99
405.09	2066.69
405.28	2017.54
405.47	2057.33
405.66	2005.84
405.85	2125.21
406.05	2043.29
406.24	2092.44
406.43	2148.61
406.62	2165.00
406.81	2223.51
407.00	2174.36
407.20	2190.74
407.39	2132.23
407.58	2136.91
407.77	2312.45
407.96	2277.34
408.15	2314.79
408.34	2253.94
408.54	2275.00
408.73	2267.98
408.92	2377.98
409.11	2370.96
409.30	2324.15
409.49	2317.13
409.68	2338.20
409.87	2363.94
410.07	2380.32
410.26	2485.65
410.45	2583.95
410.64	2534.80
410.83	2605.02
411.02	2675.23
411.21	2663.53
411.40	2668.21
411.59	2818.00
411.78	2743.11
411.98	2600.34
412.17	2787.58
412.36	2785.24
412.55	2888.22
412.74	2853.11
412.93	2796.94
413.12	2815.66
413.31	3012.27
413.50	2951.42
413.69	2965.46
413.88	3101.21
414.07	2991.20
414.26	3136.32
414.45	3063.76
414.64	3141.00
414.83	3155.04
415.02	3197.17
415.22	3239.30
415.41	3255.69
415.60	3253.34
415.79	3328.24
415.98	3389.10
416.17	3494.42
416.36	3400.80
416.55	3346.97
416.74	3461.65
416.93	3307.18
417.12	3471.01
417.31	3564.64
417.50	3536.55
417.69	3515.48
417.88	3723.79
418.07	3740.18
418.26	3597.40
418.45	3613.79
418.64	3737.84
418.83	3812.73
419.02	3597.40
419.21	3791.67
419.39	3728.47
419.58	3604.42
419.77	3702.73
419.96	3805.71
420.15	3866.56
420.34	3957.85
420.53	3892.31
420.72	4025.72
420.91	3962.53
421.10	4124.02
421.29	4009.34
421.48	3971.89
421.67	4060.83
421.86	3985.93
422.05	3861.88
422.24	3885.29
422.43	3932.10
422.61	3953.16
422.80	4037.42
422.99	4231.69
423.18	4119.34
423.37	4227.01
423.56	4102.96
423.75	4128.70
423.94	3957.85
424.13	3812.73
424.32	3899.33
424.50	4100.62
424.69	4191.90
424.88	4278.50
425.07	4112.32
425.26	4105.30
425.45	4212.96
425.64	4121.68
425.83	4166.15
426.01	4168.49
426.20	3995.29
426.39	4219.99
426.58	4138.07
426.77	4049.13
426.96	4252.75
427.15	4081.89
427.33	4217.65
427.52	4224.67
427.71	4348.72
427.90	4360.42
428.09	4421.27
428.28	4381.48
428.46	4217.65
428.65	4390.84
428.84	4458.72
429.03	4540.64
429.22	4215.30
429.40	4114.66
429.59	4301.90
429.78	4077.21
429.97	4124.02
430.16	4212.96
430.34	4236.37
430.53	4315.95
430.72	4219.99
430.91	4458.72
431.10	4538.30
431.28	4697.46
431.47	4823.84
431.66	4798.10
431.85	4697.46
432.03	4788.74
432.22	4938.53
432.41	4877.68
432.60	4884.70
432.79	4788.74
432.97	4980.66
433.16	4891.72
433.35	4816.82
433.54	4896.40
433.72	4931.51
433.91	4830.87
434.10	4894.06
434.28	5011.09
434.47	5135.14
434.66	5207.69
434.85	5235.78
435.03	5067.26
435.22	5174.92
435.41	5387.91
435.59	5193.65
435.78	5256.84
435.97	5392.59
436.16	5296.63
436.34	5397.28
436.53	5467.49
436.72	5526.00
436.90	5252.16
437.09	5554.09
437.28	5427.70
437.46	5397.28
437.65	5423.02
437.84	5413.66
438.02	5284.93
438.21	5345.78
438.40	5383.23
438.58	5444.09
438.77	5696.86
438.96	5575.16
439.14	5659.42
439.33	5767.08
439.52	5820.91
439.70	5832.62
439.89	5970.71
440.08	5802.19
440.26	5944.96
440.45	5867.72
440.63	6108.80
440.82	6258.59
441.01	6228.17
441.19	6363.92
441.38	6401.37
441.57	6420.09
441.75	6389.66
441.94	6635.42
442.12	6349.87
442.31	6548.82
442.50	6595.63
442.68	6476.26
442.87	6602.65
443.05	6572.22
443.24	6715.00
443.43	6670.53
443.61	6862.45
443.80	7089.48
443.98	6619.04
444.17	6590.95
444.35	6815.64
444.54	6946.71
444.73	6796.92
444.91	6778.19
445.10	6801.60
445.28	6801.60
445.47	6483.28
445.65	6677.55
445.84	6750.10
446.02	7045.01
446.21	6876.49
446.39	6878.83
446.58	7105.87
446.77	6993.52
446.95	6916.28
447.14	6946.71
447.32	6946.71
447.51	7169.06
447.69	6967.77
447.88	6923.30
448.06	7019.27
448.25	6867.13
448.43	6946.71
448.62	6944.37
448.80	7030.97
448.99	7037.99
449.17	7105.87
449.36	7159.70
449.54	7389.07
449.73	7391.41
449.91	7431.20
450.10	7421.84
450.28	7496.74
450.46	7440.56
450.65	7616.10
450.83	7606.74
451.02	7536.52
451.20	7489.71
451.39	7691.00
451.57	7454.61
451.76	7473.33
451.94	7487.37
452.13	7810.37
452.31	7555.25
452.49	7393.75
452.68	7442.90
452.86	7613.76
453.05	7644.19
453.23	7644.19
453.42	7506.10
453.60	7770.58
453.78	8084.21
453.97	7618.44
454.15	7740.15
454.34	7819.73
454.52	7866.54
454.70	7733.13
454.89	7786.96
455.07	7941.44
455.26	7903.99
455.44	8030.38
455.62	7997.61
455.81	7889.95
455.99	8271.45
456.17	8156.77
456.36	8269.11
456.54	8248.05
456.73	8138.04
456.91	8482.10
457.09	8451.67
457.28	8430.61
457.46	8112.30
457.64	8444.65
457.83	8526.57
458.01	8390.82
458.19	8648.28
458.38	8482.10
458.56	8549.98
458.74	8805.10
458.93	8613.17
459.11	8692.75
459.29	8589.77
459.48	8631.90
459.66	8868.29
459.84	8793.39
460.03	9032.13
460.21	8744.24
460.39	8816.80
460.57	8854.25
460.76	8954.89
460.94	9069.58
461.12	9177.24
461.31	9153.84
461.49	8926.80
461.67	9011.06
461.85	9200.65
462.04	9132.77
462.22	9589.17
462.40	9186.60
462.59	9254.48
462.77	9474.49
462.95	9324.69
463.13	9214.69
463.32	9352.78
463.50	9469.81
463.68	9516.62
463.86	9263.84
464.05	9310.65
464.23	9259.16
464.41	9383.21
464.59	9303.63
464.78	9511.94
464.96	9390.23
465.14	9214.69
465.32	9324.69
465.50	9717.90
465.69	9696.84
465.87	9476.83
466.05	9549.39
466.23	9673.43
466.41	9551.73
466.60	9830.25
466.78	9547.05
466.96	9795.14
467.14	9631.30
467.32	9757.69
467.51	9914.51
467.69	9734.29
467.87	9633.64
468.05	9813.87
468.23	9863.02
468.41	9973.02
468.60	9958.98
468.78	10047.92
468.96	9848.97
469.14	10146.22
469.32	10160.27
469.50	9734.29
469.69	9996.43
469.87	10246.87
470.05	10038.56
470.23	10263.25
470.41	10249.21
470.59	10501.98
470.77	10134.52
470.95	10244.52
471.14	10544.11
471.32	10272.61
471.50	10862.43
471.68	10729.02
471.86	10895.19
472.04	10813.28
472.22	11059.03
472.40	10579.22
472.58	10611.99
472.77	10733.70
472.95	10988.82
473.13	11272.02
473.31	10874.13
473.49	10890.51
473.67	11140.95
473.85	11206.48
474.03	11459.26
474.21	11269.68
474.39	11501.39
474.57	11372.66
474.75	11602.04
474.93	11590.33
475.12	11452.24
475.30	11847.79
475.48	11665.23
475.66	11824.39
475.84	11604.38
476.02	11761.19
476.20	11864.18
476.38	12100.57
476.56	12166.10
476.74	12142.70
476.92	12138.02
477.10	12245.68
477.28	12343.99
477.46	12580.38
477.64	12945.50
477.82	12769.96
478.00	13083.59
478.18	12875.29
478.36	13046.15
478.54	13240.41
478.72	13394.89
478.90	13502.55
479.08	13675.75
479.26	13483.83
479.44	13525.96
479.62	13888.74
479.80	13823.20
479.98	13888.74
480.16	14104.07
480.34	13958.96
480.52	14382.59
480.70	14061.94
480.88	14193.01
481.06	14518.34
481.24	14492.60
481.41	14984.11
481.59	14796.87
481.77	14902.19
481.95	15152.63
482.13	15054.33
482.31	15059.01
482.49	15529.45
482.67	15552.86
482.85	15630.10
483.03	15686.27
483.21	15943.73
483.39	16002.24
483.57	16046.71
483.74	16053.73
483.92	16400.13
484.10	16170.76
484.28	16503.12
484.46	16924.41
484.64	17088.25
484.82	16613.12
485.00	16786.32
485.18	16650.57
485.35	17048.46
485.53	16774.62
485.71	16688.02
485.89	16961.86
486.07	16943.14
486.25	17013.35
486.43	17514.23
486.61	17664.02
486.78	17813.82
486.96	18061.91
487.14	18132.13
487.32	18363.84
487.50	18609.60
487.68	18787.48
487.85	19215.80
488.03	19007.49
488.21	19311.76
488.39	19002.81
488.57	19644.12
488.75	19499.00
488.92	19932.00
489.10	20154.35
489.28	20297.13
489.46	20449.26
489.64	20243.29
489.81	20924.39
489.99	21139.72
490.17	20833.11
490.35	21198.23
490.53	20870.56
490.70	21287.17
490.88	21270.79
491.06	21582.08
491.24	21420.58
491.41	21401.86
491.59	21259.09
491.77	21268.45
491.95	21834.86
492.13	21958.91
492.30	22331.05
492.48	22679.79
492.66	22558.08
492.84	22511.27
493.01	22981.72
493.19	22625.96
493.37	22792.14
493.54	23428.76
493.72	23365.57
493.90	23349.18
494.08	23899.21
494.25	24271.36
494.43	23934.32
494.61	24079.43
494.79	24411.79
494.96	24372.00
495.14	24360.30
495.32	24517.11
495.49	24589.67
495.67	24819.04
495.85	24968.84
496.02	25071.82
496.20	25069.48
496.38	25151.40
496.55	25228.63
496.73	25993.99
496.91	25706.10
497.09	25724.83
497.26	26143.78
497.44	26092.29
497.62	26272.51
497.79	26333.37
497.97	26188.25
498.14	26279.54
498.32	26197.62
498.50	26583.80
498.67	26902.12
498.85	26714.87
499.03	27330.44
499.20	27213.41
499.38	27058.93
499.56	26984.04
499.73	27496.61
499.91	27470.87
500.08	27599.60
500.26	27388.95
500.44	27520.02
500.61	27548.11
500.79	27538.74
500.97	27803.22
501.14	27936.63
501.32	27922.59
501.49	28212.82
501.67	27931.95
501.84	28203.46
502.02	28322.82
502.20	28418.78
502.37	28872.85
502.55	28723.05
502.72	29003.92
502.90	29338.62
503.07	29125.63
503.25	29352.66
503.43	28767.52
503.60	29008.60
503.78	28865.83
503.95	29252.02
504.13	29099.88
504.30	29951.84
504.48	29420.53
504.65	30057.16
504.83	29961.20
505.01	30368.45
505.18	30253.76
505.36	30319.30
505.53	30543.99
505.71	30979.33
505.88	30890.39
506.06	30340.36
506.23	30483.14
506.41	30518.25
506.58	30888.05
506.76	31002.74
506.93	31065.93
507.11	31267.22
507.28	31175.94
507.46	30967.63
507.63	31346.79
507.81	30955.93
507.98	31063.59
508.16	31878.10
508.33	31585.53
508.50	31744.69
508.68	32215.13
508.85	32500.68
509.03	32119.17
509.20	32238.54
509.38	32364.93
509.55	32168.32
509.73	32142.58
509.90	32606.00
510.08	32458.55
510.25	32474.93
510.42	32659.84
510.60	32603.66
510.77	32987.51
510.95	33223.90
511.12	33062.41
511.30	32886.87
511.47	33663.93
511.64	33366.68
511.82	33518.81
511.99	33266.03
512.17	33181.77
512.34	33205.18
512.51	33649.88
512.69	33560.94
512.86	33795.00
513.04	33963.51
513.21	33797.34
513.38	33710.74
513.56	33792.65
513.73	33680.31
513.90	34305.23
514.08	33603.07
514.25	34609.50
514.43	34288.85
514.60	34227.99
514.77	34600.14
514.95	34670.36
515.12	34937.18
515.29	34897.39
515.47	35115.06
515.64	35171.23
515.81	35002.71
515.99	34913.77
516.16	34607.16
516.33	34639.93
516.51	34284.17
516.68	34450.35
516.85	34574.39
517.03	34256.08
517.20	35166.55
517.37	35353.79
517.54	35775.09
517.72	35398.26
517.89	34979.31
518.06	34897.39
518.24	35044.84
518.41	35124.42
518.58	35395.92
518.75	35283.58
518.93	36053.61
519.10	35632.32
519.27	36198.73
519.45	35924.88
519.62	36601.30
519.79	36875.14
519.96	36596.62
520.14	36538.10
520.31	36449.16
520.48	36727.69
520.65	36582.57
520.83	37050.68
521.00	37432.19
521.17	36842.37
521.34	36971.10
521.52	36982.80
521.69	37294.10
521.86	37572.62
522.03	37558.58
522.20	37603.05
522.38	37263.67
522.55	37233.24
522.72	37734.12
522.89	37654.54
523.07	37762.20
523.24	37216.86
523.41	38134.35
523.58	38038.39
523.75	38513.52
523.92	37958.81
524.10	38768.63
524.27	38782.68
524.44	38473.73
524.61	38263.08
524.78	38597.77
524.96	38447.98
525.13	38946.51
525.30	38951.20
525.47	38941.83
525.64	38871.62
525.81	38981.62
525.98	38731.18
526.16	38457.34
526.33	38120.31
526.50	38653.95
526.67	38382.45
526.84	38050.09
527.01	38246.69
527.18	38625.86
527.36	39484.84
527.53	39433.35
527.70	39662.72
527.87	39234.40
528.04	39466.11
528.21	39316.32
528.38	39721.23
528.55	39915.50
528.72	39880.39
528.89	40093.38
529.07	39966.99
529.24	39934.22
529.41	39861.66
529.58	39871.03
529.75	39821.87
529.92	40353.18
530.09	40238.49
530.26	40224.45
530.43	40161.25
530.60	39810.17
530.77	40343.81
530.94	40793.20
531.11	40243.17
531.28	40442.12
531.46	40760.43
531.63	40797.88
531.80	40732.34
531.97	40275.94
532.14	40507.65
532.31	40105.08
532.48	40554.46
532.65	40322.75
532.82	41104.49
532.99	41074.06
533.16	40811.92
533.33	41167.68
533.50	41490.68
533.67	41237.90
533.84	40891.50
534.01	41165.34
534.18	41242.58
534.35	41160.66
534.52	41443.87
534.69	41469.61
534.86	41375.99
535.03	41375.99
535.20	42150.71
535.37	42036.02
535.54	41825.37
535.71	41750.48
535.88	41773.88
536.05	41883.89
536.22	41916.65
536.38	41972.83
536.55	41867.50
536.72	41926.02
536.89	42071.13
537.06	41846.44
537.23	42272.42
537.40	42103.90
537.57	42354.33
537.74	42344.97
537.91	42679.67
538.08	42363.70
538.25	42426.89
538.42	42295.82
538.59	42862.23
538.75	41698.98
538.92	42579.03
539.09	42642.22
539.26	42302.84
539.43	42855.21
539.60	42209.22
539.77	42012.62
539.94	42614.13
540.11	42394.12
540.28	42382.42
540.44	42408.17
540.61	42731.16
540.78	42284.12
540.95	42520.51
541.12	42597.75
541.29	42454.98
541.46	43061.18
541.62	43019.05
541.79	43313.95
541.96	42801.38
542.13	43000.32
542.30	43241.40
542.47	43033.09
542.63	43227.35
542.80	43543.33
542.97	43611.20
543.14	43515.24
543.31	44168.25
543.48	43648.65
543.64	44376.56
543.81	43590.14
543.98	44006.75
544.15	43653.33
544.32	44268.89
544.48	44505.29
544.65	44107.40
544.82	44219.74
544.99	43515.24
545.16	44037.18
545.32	44245.49
545.49	43992.71
545.66	44767.43
545.83	44479.54
546.00	44671.46
546.16	44493.58
546.33	44481.88
546.50	43976.33
546.67	44299.32
546.83	44414.01
547.00	44418.69
547.17	43948.24
547.34	43922.49
547.50	44334.43
547.67	44402.30
547.84	44376.56
548.00	44795.51
548.17	45195.74
548.34	44634.02
548.51	44964.03
548.67	45193.40
548.84	44907.86
549.01	44751.04
549.18	44706.57
549.34	44989.78
549.51	45036.59
549.68	44907.86
549.84	44638.70
550.01	45120.85
550.18	44589.55
550.34	45193.40
550.51	45134.89
550.68	45027.23
550.84	44765.09
551.01	45289.37
551.18	45003.82
551.34	44992.12
551.51	45687.26
551.68	45808.96
551.84	45729.39
552.01	45509.38
552.18	45441.50
552.34	44924.24
552.51	45478.95
552.68	45455.54
552.84	45434.48
553.01	45656.83
553.18	45205.11
553.34	45268.30
553.51	45347.88
553.67	45874.50
553.84	45895.56
554.01	45731.73
554.17	45989.19
554.34	45830.03
554.51	45844.07
554.67	46146.00
554.84	45696.62
555.00	45879.18
555.17	45792.58
555.33	45617.04
555.50	45713.00
555.67	46202.18
555.83	45759.81
556.00	45745.77
556.16	46253.67
556.33	45748.11
556.50	45832.37
556.66	45441.50
556.83	45895.56
556.99	45977.48
557.16	46288.77
557.32	46160.05
557.49	46185.79
557.65	45626.40
557.82	46101.53
557.98	46066.42
558.15	46293.46
558.32	45989.19
558.48	46064.08
558.65	45830.03
558.81	46012.59
558.98	45998.55
559.14	45942.38
559.31	45862.80
559.47	46630.49
559.64	46239.62
559.80	46368.35
559.97	46377.72
560.13	46300.48
560.30	46253.67
560.46	45846.41
560.63	46504.10
560.79	46784.97
560.96	46527.51
561.12	46422.19
561.29	46223.24
561.45	46363.67
561.61	46600.07
561.78	46267.71
561.94	46377.72
562.11	46412.82
562.27	46361.33
562.44	46295.80
562.60	46843.48
562.77	47009.66
562.93	46717.09
563.10	46658.58
563.26	46784.97
563.42	46808.37
563.59	46244.30
563.75	46681.98
563.92	46887.95
564.08	46866.89
564.24	46754.54
564.41	46518.15
564.57	46469.00
564.74	46410.48
564.90	46698.37
565.07	47243.71
565.23	46813.05
565.39	46827.10
565.56	46773.27
565.72	46478.36
565.88	46653.90
566.05	46417.50
566.21	46721.77
566.38	46356.65
566.54	46784.97
566.70	46969.87
566.87	47028.38
567.03	46899.65
567.19	46939.44
567.36	46934.76
567.52	47065.83
567.68	46749.86
567.85	46611.77
568.01	46988.60
568.17	46632.83
568.34	46674.96
568.50	47143.07
568.66	47019.02
568.83	46981.57
568.99	46323.88
569.15	46791.99
569.32	46735.82
569.48	46588.36
569.64	46822.42
569.81	46810.71
569.97	47070.51
570.13	46719.43
570.30	46492.40
570.46	46314.52
570.62	46527.51
570.78	46756.88
570.95	46784.97
571.11	46639.86
571.27	46873.91
571.43	46794.33
571.60	46969.87
571.76	46789.65
571.92	47042.43
572.09	46822.42
572.25	46801.35
572.41	47051.79
572.57	47379.46
572.74	47356.06
572.90	47255.42
573.06	47103.28
573.22	47145.41
573.38	47063.49
573.55	47082.22
573.71	47117.32
573.87	47044.77
574.03	46733.48
574.20	46939.44
574.36	47299.89
574.52	47047.11
574.68	46656.24
574.84	47224.99
575.01	46953.49
575.17	46925.40
575.33	46948.81
575.49	46862.21
575.65	47344.36
575.82	47194.56
575.98	46951.15
576.14	46864.55
576.30	47384.15
576.46	47072.85
576.62	46960.51
576.79	47096.26
576.95	46511.13
577.11	46848.16
577.27	46958.17
577.43	47014.34
577.59	46864.55
577.75	46955.83
577.92	46960.51
578.08	46457.29
578.24	47093.92
578.40	46850.50
578.56	46829.44
578.72	47136.05
578.88	47316.27
579.04	47107.96
579.21	46838.80
579.37	46906.68
579.53	47325.63
579.69	46932.42
579.85	46944.12
580.01	47454.36
580.17	46820.08
580.33	47166.48
580.49	47075.19
580.65	47026.04
580.82	47152.43
580.98	46958.17
581.14	47040.09
581.30	47033.07
581.46	46838.80
581.62	47117.32
581.78	47033.07
581.94	47618.20
582.10	46983.91
582.26	47203.92
582.42	47145.41
582.58	46967.53
582.74	47437.98
582.90	46740.50
583.06	47512.88
583.22	47297.55
583.38	47585.43
583.54	47147.75
583.70	47437.98
583.86	47058.81
584.02	46630.49
584.18	47206.26
584.34	46990.94
584.50	47414.57
584.66	47079.88
584.82	47243.71
584.98	47019.02
585.14	47262.44
585.30	46969.87
585.46	47288.18
585.62	47075.19
585.78	46876.25
585.94	46738.16
586.10	47224.99
586.26	46742.84
586.42	47131.37
586.58	47370.10
586.74	47049.45
586.90	47189.88
587.06	47100.94
587.22	46794.33
587.38	46759.22
587.54	47587.77
587.70	47613.52
587.86	47269.46
588.02	47278.82
588.18	47508.19
588.34	46845.82
588.49	46291.12
588.65	46515.81
588.81	46646.88
588.97	46852.84
589.13	46588.36
589.29	46948.81
589.45	47166.48
589.61	46672.62
589.77	47023.70
589.93	47342.02
590.08	47524.58
590.24	47379.46
590.40	47529.26
590.56	47468.40
590.72	47145.41
590.88	46600.07
591.04	47278.82
591.20	47555.00
591.35	47269.46
591.51	47206.26
591.67	47248.39
591.83	47515.22
591.99	47522.24
592.15	47180.52
592.31	47194.56
592.46	47248.39
592.62	47320.95
592.78	47276.48
592.94	47505.85
593.10	47264.78
593.26	47578.41
593.41	47026.04
593.57	47035.41
593.73	47110.30
593.89	47452.02
594.05	47241.37
594.20	47105.62
594.36	47365.42
594.52	47009.66
594.68	47016.68
594.84	46948.81
594.99	46976.89
595.15	47365.42
595.31	47676.71
595.47	47222.65
595.62	47683.73
595.78	47400.53
595.94	47512.88
596.10	47056.47
596.25	47395.85
596.41	47313.93
596.57	47070.51
596.73	47430.96
596.88	47107.96
597.04	47208.61
597.20	46923.06
597.36	47349.04
597.51	47456.70
597.67	47227.33
597.83	47227.33
597.99	47550.32
598.14	47473.09
598.30	46803.69
598.46	47065.83
598.61	47035.41
598.77	46988.60
598.93	47707.14
599.09	47288.18
599.24	47440.32
599.40	47547.98
599.56	47199.24
599.71	47089.24
599.87	47358.40
600.03	47262.44
600.18	47002.64
600.34	47290.52
600.50	47255.42
600.65	47309.25
600.81	47161.79
600.97	47445.00
601.12	47627.56
601.28	47089.24
601.44	47260.10
601.59	47173.50
601.75	46850.50
601.91	47201.58
602.06	47058.81
602.22	47236.69
602.37	46920.72
602.53	46955.83
602.69	47323.29
602.84	47344.36
603.00	47019.02
603.16	47250.74
603.31	47154.77
603.47	47178.18
603.62	47386.49
603.78	47543.30
603.94	47110.30
604.09	47599.47
604.25	47126.69
604.40	46909.02
604.56	47030.72
604.71	47241.37
604.87	46920.72
605.03	47126.69
605.18	46855.18
605.34	46955.83
605.49	46782.63
605.65	47229.67
605.80	46745.18
605.96	46969.87
606.12	47262.44
606.27	47374.78
606.43	47091.58
606.58	47159.45
606.74	46712.41
606.89	46906.68
607.05	46883.27
607.20	47075.19
607.36	47096.26
607.51	47285.84
607.67	46944.12
607.82	46635.17
607.98	46951.15
608.13	46656.24
608.29	46658.58
608.44	46681.98
608.60	46473.68
608.75	46738.16
608.91	46848.16
609.06	46536.87
609.22	46721.77
609.37	46576.66
609.53	47026.04
609.68	46939.44
609.84	46754.54
609.99	46782.63
610.15	46349.63
610.30	46618.79
610.46	45921.31
610.61	46487.72
610.76	46595.38
610.92	46782.63
611.07	46667.94
611.23	46962.85
611.38	46314.52
611.54	46483.04
611.69	46410.48
611.84	45989.19
612.00	46164.73
612.15	45918.97
612.31	46323.88
612.46	46480.70
612.62	46665.60
612.77	46382.40
612.92	46466.66
613.08	45881.52
613.23	46293.46
613.39	46265.37
613.54	46117.92
613.69	46237.28
613.85	46066.42
614.00	45935.35
614.15	46281.75
614.31	46373.03
614.46	46415.16
614.62	46265.37
614.77	45773.86
614.92	46007.91
615.08	45549.17
615.23	45977.48
615.38	45961.10
615.54	45844.07
615.69	45785.56
615.84	45394.69
616.00	45696.62
616.15	45343.20
616.30	45755.13
616.46	45673.21
616.61	45364.26
616.76	45844.07
616.92	45251.92
617.07	45031.91
617.22	45017.86
617.37	45361.92
617.53	45705.98
617.68	45294.05
617.83	45617.04
617.99	45647.47
618.14	45558.53
618.29	45303.41
618.45	45261.28
618.60	45251.92
618.75	45085.74
618.90	45308.09
619.06	45462.57
619.21	45350.22
619.36	46014.93
619.51	45780.88
619.67	45649.81
619.82	45401.71
619.97	45411.07
620.12	45172.34
620.28	44994.46
620.43	45338.52
620.58	45205.11
620.73	45083.40
620.89	45111.49
621.04	45595.98
621.19	45010.84
621.34	45441.50
621.49	44786.15
621.65	44430.39
621.80	45144.25
621.95	44837.64
622.10	45368.94
622.25	44643.38
622.41	44201.02
622.56	44566.14
622.71	44947.65
622.86	44624.65
623.01	44414.01
623.16	44598.91
623.32	44729.98
623.47	44488.90
623.62	44652.74
623.77	44493.58
623.92	44699.55
624.07	44350.81
624.23	44002.07
624.38	44741.68
624.53	44519.33
624.68	44491.24
624.83	44320.38
624.98	44322.72
625.13	43578.43
625.29	43714.19
625.44	44130.80
625.59	43571.41
625.74	43519.92
625.89	43473.11
626.04	43625.25
626.19	44051.22
626.34	44259.53
626.49	44172.93
626.65	44222.08
626.80	44133.14
626.95	44055.90
627.10	43674.40
627.25	43662.69
627.40	43028.41
627.55	43384.17
627.70	43358.42
627.85	43187.56
628.00	43524.60
628.15	43234.38
628.30	43260.12
628.45	43468.43
628.60	43777.38
628.76	43742.27
628.91	43686.10
629.06	42899.68
629.21	43650.99
629.36	43217.99
629.51	43377.15
629.66	43103.31
629.81	42684.35
629.96	43585.46
630.11	43278.85
630.26	43302.25
630.41	43274.16
630.56	43295.23
630.71	43093.94
630.86	43007.34
631.01	42770.95
631.16	43388.85
631.31	42579.03
631.46	42295.82
631.61	42541.58
631.76	42997.98
631.91	43243.74
632.06	42735.84
632.21	43122.03
632.36	43019.05
632.51	42497.11
632.66	43159.48
632.81	42810.74
632.96	42658.60
633.10	42518.17
633.25	42731.16
633.40	42946.49
633.55	42738.18
633.70	42960.53
633.85	42583.71
634.00	42223.26
634.15	42066.45
634.30	42471.36
634.45	42628.18
634.60	42047.72
634.75	42347.31
634.90	42733.50
635.05	42366.04
635.19	41926.02
635.34	42824.78
635.49	41813.67
635.64	42499.45
635.79	41701.32
635.94	42078.15
636.09	42103.90
636.24	42127.30
636.39	41469.61
636.53	41914.31
636.68	42075.81
636.83	42162.41
636.98	42258.37
637.13	41434.50
637.28	42047.72
637.43	42267.73
637.57	41954.10
637.72	41998.57
637.87	41486.00
638.02	41642.81
638.17	42099.22
638.32	41607.70
638.46	41909.63
638.61	41860.48
638.76	41553.87
638.91	41762.18
639.06	41652.17
639.20	41797.29
639.35	42157.73
639.50	41647.49
639.65	41240.24
639.80	41298.75
639.94	41408.76
640.09	41530.47
640.24	41862.82
640.39	41116.19
640.54	41062.36
640.68	41315.14
640.83	41422.80
640.98	41324.50
641.13	41436.84
641.27	41408.76
641.42	40601.27
641.57	41198.11
641.72	41067.04
641.86	41057.68
642.01	40818.94
642.16	41186.41
642.31	40371.90
642.45	41446.21
642.60	40870.43
642.75	40570.85
642.90	40580.21
643.04	41010.87
643.19	40706.60
643.34	40807.24
643.48	40662.13
643.63	40509.99
643.78	40601.27
643.93	40931.29
644.07	40641.06
644.22	40664.47
644.37	40254.87
644.51	40580.21
644.66	40521.69
644.81	40385.94
644.95	40793.20
645.10	40484.25
645.25	40364.88
645.39	40299.34
645.54	40896.18
645.69	40343.81
645.83	40233.81
645.98	40542.76
646.13	40582.55
646.27	40528.72
646.42	39931.88
646.57	40165.93
646.71	39721.23
646.86	39751.66
647.00	40013.80
647.15	40390.62
647.30	40034.86
647.44	39732.93
647.59	39952.94
647.74	39655.70
647.88	39826.56
648.03	39852.30
648.17	39878.05
648.32	40030.18
648.47	39847.62
648.61	39421.64
648.76	39934.22
648.90	39409.94
649.05	39346.75
649.20	39533.99
649.34	39927.20
649.49	39842.94
649.63	40179.98
649.78	39725.91
649.92	39409.94
650.07	39744.64
650.21	39573.78
650.36	39358.45
650.51	39651.02
650.65	40243.17
650.80	40172.96
650.94	40037.20
651.09	39508.24
651.23	39639.31
651.38	39400.58
651.52	39194.61
651.67	39054.18
651.81	39000.35
651.96	39440.37
652.10	38960.56
652.25	39129.08
652.39	39187.59
652.54	39405.26
652.68	39445.05
652.83	39278.87
652.97	39688.46
653.12	39346.75
653.26	38710.12
653.41	38653.95
653.55	38693.74
653.70	39098.65
653.84	38946.51
653.99	39206.31
654.13	39260.15
654.27	38660.97
654.42	38618.84
654.56	38726.50
654.71	39164.18
654.85	38939.49
655.00	39077.58
655.14	38466.70
655.29	38319.25
655.43	38581.39
655.57	38096.90
655.72	37972.85
655.86	37942.42
656.01	37631.13
656.15	37418.14
656.30	37610.07
656.44	37935.40
656.58	38059.45
656.73	37977.53
656.87	38295.85
657.01	37928.38
657.16	38253.72
657.30	38038.39
657.45	37787.95
657.59	37352.61
657.73	37818.38
657.88	38389.47
658.02	38382.45
658.16	38487.77
658.31	38192.86
658.45	37759.86
658.60	37607.73
658.74	38003.28
658.88	37830.08
659.03	37776.25
659.17	37488.36
659.31	37614.75
659.46	37392.40
659.60	37764.54
659.74	37390.06
659.89	37350.27
660.03	36926.63
660.17	37574.96
660.32	37308.14
660.46	37696.67
660.60	37350.27
660.74	37109.19
660.89	37404.10
661.03	37024.93
661.17	37221.54
661.32	37001.53
661.46	36650.45
661.60	37095.15
661.74	36854.08
661.89	36945.36
662.03	36982.80
662.17	36704.28
662.31	36898.55
662.46	36879.82
662.60	37188.77
662.74	37029.62
662.88	36409.37
663.03	36598.96
663.17	36046.59
663.31	36025.53
663.45	36259.58
663.60	36290.01
663.74	36493.63
663.88	36481.93
664.02	36025.53
664.17	36318.09
664.31	35945.95
664.45	35948.29
664.59	35901.48
664.73	35625.29
664.88	35580.82
665.02	35264.85
665.16	35620.61
665.30	35414.65
665.44	35505.93
665.59	35054.20
665.73	35267.19
665.87	35255.49
666.01	35531.67
666.15	35264.85
666.29	35555.08
666.44	35477.84
666.58	34979.31
666.72	35021.44
666.86	35070.59
667.00	35044.84
667.14	35173.57
667.28	34862.28
667.43	35044.84
667.57	35211.02
667.71	34773.34
667.85	35091.65
667.99	34976.97
668.13	34485.45
668.27	34536.94
668.41	34794.40
668.56	34438.64
668.70	34651.63
668.84	34433.96
668.98	34085.22
669.12	34075.86
669.26	34295.87
669.40	34345.02
669.54	34199.91
669.68	34316.93
669.82	34017.35
669.96	33748.18
670.10	33317.53
670.25	33635.84
670.39	33701.37
670.53	33392.42
670.67	33226.24
670.81	33570.30
670.95	33453.28
671.09	33684.99
671.23	33092.83
671.37	33404.13
671.51	32950.06
671.65	33034.32
671.79	32685.58
671.93	33055.39
672.07	33476.68
672.21	33003.89
672.35	32893.89
672.49	32849.42
672.63	32957.08
672.77	32886.87
672.91	32823.67
673.05	32631.75
673.19	32545.15
673.33	32105.13
673.47	32416.42
673.61	32636.43
673.75	32245.56
673.89	31702.56
674.03	31711.92
674.17	31519.99
674.31	31999.80
674.45	31931.93
674.59	31978.74
674.73	32416.42
674.87	31798.52
675.01	31754.05
675.15	31702.56
675.29	31370.20
675.43	31159.55
675.56	31321.05
675.70	31491.91
675.84	31505.95
675.98	30164.82
676.12	31274.24
676.26	31370.20
676.40	31002.74
676.54	30876.35
676.68	31154.87
676.82	30249.08
676.96	30745.28
677.10	30115.67
677.23	30546.33
677.37	30066.52
677.51	30075.88
677.65	30054.82
677.79	29582.03
677.93	29853.53
678.07	29640.54
678.21	29397.13
678.34	29184.14
678.48	29153.71
678.62	28952.43
678.76	28854.12
678.90	29039.03
679.04	28879.87
679.18	29085.84
679.31	28769.86
679.45	28484.32
679.59	28456.23
679.73	28732.42
679.87	28664.54
680.00	28371.97
680.14	28222.18
680.28	28271.33
680.42	28180.05
680.56	28182.39
680.70	27807.90
680.83	27868.76
680.97	28329.84
681.11	27997.49
681.25	27536.40
681.39	27833.65
681.52	27573.85
681.66	27534.06
681.80	27508.32
681.94	27187.66
682.07	27459.16
682.21	27026.17
682.35	26820.20
682.49	26888.07
682.62	27044.89
682.76	26867.01
682.90	26450.39
683.04	26340.39
683.17	26405.92
683.31	25898.03
683.45	26134.42
683.59	25996.33
683.72	25837.17
683.86	25755.26
684.00	26096.97
684.13	26199.96
684.27	25724.83
684.41	25385.45
684.55	25720.15
684.68	25415.88
684.82	25441.62
684.96	25465.03
685.09	25263.74
685.23	25188.85
685.37	25273.10
685.50	24802.66
685.64	25034.37
685.78	24987.56
685.91	24863.51
686.05	24774.57
686.19	24690.31
686.32	24306.46
686.46	24161.35
686.60	23852.40
686.73	23651.11
686.87	23484.94
687.01	23372.59
687.14	23559.83
687.28	23283.65
687.42	23391.31
687.55	23566.85
687.69	23515.36
687.82	23225.14
687.96	23044.91
688.10	23302.37
688.23	22890.44
688.37	22864.69
688.50	22747.67
688.64	22822.56
688.78	22974.70
688.91	22621.28
689.05	22773.41
689.18	22707.88
689.32	22408.29
689.46	22417.65
689.59	22405.95
689.73	22532.34
689.86	22326.37
690.00	22092.32
690.13	22499.57
690.27	21806.77
690.41	21956.57
690.54	21453.35
690.68	21443.99
690.81	21666.34
690.95	21535.27
691.08	21348.03
691.22	21497.82
691.35	21205.25
691.49	21642.93
691.62	21411.22
691.76	21139.72
691.89	21099.93
692.03	20975.88
692.16	20744.17
692.30	20524.16
692.43	20727.78
692.57	20357.98
692.70	20592.03
692.84	20477.35
692.97	20341.60
693.11	20446.92
693.24	19999.88
693.38	19761.14
693.51	19932.00
693.65	20252.66
693.78	20065.41
693.92	19730.72
694.05	19910.94
694.19	19613.69
694.32	19513.05
694.45	19555.18
694.59	19438.15
694.72	19119.84
694.86	19101.11
694.99	19393.68
695.13	19056.64
695.26	18963.02
695.39	18965.36
695.53	18827.27
695.66	18934.93
695.80	19117.50
695.93	18960.68
696.07	18394.27
696.20	18485.55
696.33	18450.44
696.47	18492.57
696.60	18087.66
696.73	18286.61
696.87	18118.09
697.00	18298.31
697.14	17947.23
697.27	17717.86
697.40	17970.63
697.54	17841.90
697.67	17399.54
697.80	17509.55
697.94	17465.08
698.07	17516.57
698.21	17287.20
698.34	17336.35
698.47	17167.83
698.61	16889.31
698.74	17025.06
698.87	16788.66
699.01	16533.54
699.14	16549.93
699.27	16521.84
699.40	16498.44
699.54	16393.11
699.67	16524.18
699.80	16355.66
699.94	16531.20
700.07	16315.87
700.20	16285.45
700.34	16030.33
700.47	16105.23
700.60	16308.85
700.73	16039.69
700.87	16149.70
701.00	15894.58
701.13	15697.97
701.26	15786.91
701.40	15728.40
701.53	15651.16
701.66	15501.37
701.79	15426.47
701.93	15276.68
702.06	14930.28
702.19	15019.22
702.32	15154.97
702.46	15089.43
702.59	15159.65
702.72	15215.82
702.85	14967.73
702.99	14939.64
703.12	14890.49
703.25	14871.76
703.38	14541.75
703.51	14384.93
703.65	14424.72
703.78	14363.87
703.91	14150.88
704.04	14286.63
704.17	14630.69
704.31	14401.32
704.44	14104.07
704.57	14155.56
704.70	13989.38
704.83	13717.88
704.96	13877.04
705.10	13839.59
705.23	14104.07
>>>>>End Processed Spectral Data<<<<<
