SpectraSuite Data File
++++++++++++++++++++++++++++++++++++
Date: Fri Oct 25 10:48:28 EDT 2013
User: price-jones
Dark Spectrum Present: No
Reference Spectrum Present: No
Number of Sampled Component Spectra: 1
Spectrometers: USB2+H05261
Integration Time (usec): 100000 (USB2+H05261)
Spectra Averaged: 1 (USB2+H05261)
Boxcar Smoothing: 0 (USB2+H05261)
Correct for Electrical Dark: No (USB2+H05261)
Strobe/Lamp Enabled: No (USB2+H05261)
Correct for Detector Non-linearity: No (USB2+H05261)
Correct for Stray Light: No (USB2+H05261)
Number of Pixels in Processed Spectrum: 2048
>>>>>Begin Processed Spectral Data<<<<<
365.73	119.37
365.92	119.37
366.12	119.37
366.32	91.28
366.52	86.60
366.72	65.54
366.91	107.66
367.11	95.96
367.31	0.00
367.51	21.06
367.70	37.45
367.90	93.62
368.10	0.00
368.30	11.70
368.49	70.22
368.69	107.66
368.89	131.07
369.09	114.69
369.28	114.69
369.48	117.03
369.68	105.32
369.87	114.69
370.07	145.11
370.27	131.07
370.47	222.35
370.66	397.89
370.86	437.68
371.06	449.38
371.25	503.22
371.45	447.04
371.65	514.92
371.84	482.15
372.04	472.79
372.24	486.83
372.44	524.28
372.63	566.41
372.83	475.13
373.03	575.77
373.22	491.51
373.42	587.47
373.62	568.75
373.81	613.22
374.01	627.26
374.21	606.20
374.40	519.60
374.60	624.92
374.79	613.22
374.99	641.31
375.19	608.54
375.38	638.97
375.58	655.35
375.78	568.75
375.97	575.77
376.17	631.94
376.37	645.99
376.56	634.29
376.76	641.31
376.95	685.78
377.15	697.48
377.35	608.54
377.54	601.52
377.74	634.29
377.93	662.37
378.13	641.31
378.33	709.18
378.52	664.71
378.72	634.29
378.91	662.37
379.11	763.01
379.31	671.73
379.50	683.44
379.70	718.54
379.89	671.73
380.09	643.65
380.28	671.73
380.48	690.46
380.68	676.41
380.87	725.57
381.07	758.33
381.26	730.25
381.46	784.08
381.65	660.03
381.85	718.54
382.04	704.50
382.24	671.73
382.43	744.29
382.63	753.65
382.83	748.97
383.02	763.01
383.22	758.33
383.41	716.20
383.61	826.21
383.80	760.67
384.00	863.66
384.19	849.61
384.39	849.61
384.58	795.78
384.78	802.80
384.97	798.12
385.17	795.78
385.36	814.51
385.56	849.61
385.75	854.30
385.95	842.59
386.14	851.96
386.34	880.04
386.53	880.04
386.72	880.04
386.92	926.85
387.11	833.23
387.31	887.06
387.50	908.13
387.70	847.27
387.89	917.49
388.09	968.98
388.28	847.27
388.48	901.11
388.67	966.64
388.86	973.66
389.06	973.66
389.25	950.26
389.45	973.66
389.64	964.30
389.84	1015.79
390.03	947.92
390.22	997.07
390.42	1013.45
390.61	994.73
390.81	1055.58
391.00	1088.35
391.19	1090.69
391.39	1004.09
391.58	1128.14
391.78	1083.67
391.97	1041.54
392.16	1114.10
392.36	1050.90
392.55	1071.97
392.75	1060.26
392.94	1053.24
393.13	1139.84
393.33	994.73
393.52	1043.88
393.71	1156.22
393.91	1181.97
394.10	1043.88
394.29	1163.25
394.49	1177.29
394.68	1200.69
394.88	1240.48
395.07	1261.55
395.26	1210.06
395.46	1193.67
395.65	1200.69
395.84	1174.95
396.04	1268.57
396.23	1139.84
396.42	1270.91
396.62	1259.21
396.81	1200.69
397.00	1226.44
397.19	1327.08
397.39	1203.04
397.58	1352.83
397.77	1317.72
397.97	1397.30
398.16	1313.04
398.35	1397.30
398.55	1472.20
398.74	1418.36
398.93	1561.14
399.12	1481.56
399.32	1441.77
399.51	1474.54
399.70	1603.27
399.90	1614.97
400.09	1490.92
400.28	1624.33
400.47	1631.35
400.67	1715.61
400.86	1710.93
401.05	1614.97
401.24	1624.33
401.44	1734.34
401.63	1734.34
401.82	1743.70
402.01	1764.76
402.21	1753.06
402.40	1820.94
402.59	1687.53
402.78	1713.27
402.97	1657.10
403.17	1755.40
403.36	1769.44
403.55	1818.60
403.74	1849.02
403.93	1895.83
404.13	1832.64
404.32	1774.13
404.51	1837.32
404.70	1877.11
404.89	1919.24
405.09	1961.37
405.28	1949.67
405.47	1907.54
405.66	1898.17
405.85	2019.88
406.05	1970.73
406.24	2036.27
406.43	1994.14
406.62	2008.18
406.81	2090.10
407.00	2080.74
407.20	2062.01
407.39	2069.03
407.58	2150.95
407.77	2225.85
407.96	2223.51
408.15	2155.63
408.34	2232.87
408.54	2251.60
408.73	2073.71
408.92	2263.30
409.11	2305.43
409.30	2298.41
409.49	2209.47
409.68	2200.10
409.87	2165.00
410.07	2331.17
410.26	2246.91
410.45	2396.71
410.64	2495.01
410.83	2476.29
411.02	2387.35
411.21	2450.54
411.40	2597.99
411.59	2590.97
411.78	2572.25
411.98	2656.51
412.17	2607.36
412.36	2658.85
412.55	2745.45
412.74	2764.17
412.93	2754.81
413.12	2668.21
413.31	2806.30
413.50	2818.00
413.69	2862.48
413.88	2956.10
414.07	2918.65
414.26	2850.77
414.45	3028.65
414.64	2874.18
414.83	2988.86
415.02	3040.36
415.22	3005.25
415.41	3059.08
415.60	3042.70
415.79	3117.59
415.98	3164.40
416.17	3267.39
416.36	3190.15
416.55	3199.51
416.74	3293.13
416.93	3293.13
417.12	3403.14
417.31	3368.03
417.50	3417.18
417.69	3361.01
417.88	3515.48
418.07	3372.71
418.26	3424.20
418.45	3307.18
418.64	3604.42
418.83	3538.89
419.02	3581.02
419.21	3618.47
419.39	3520.17
419.58	3468.67
419.77	3531.87
419.96	3527.19
420.15	3637.19
420.34	3648.90
420.53	3695.71
420.72	3878.27
420.91	3803.37
421.10	3878.27
421.29	3819.75
421.48	3719.11
421.67	3871.25
421.86	3885.29
422.05	3653.58
422.24	3801.03
422.43	3861.88
422.61	3875.93
422.80	3836.14
422.99	3899.33
423.18	3847.84
423.37	4079.55
423.56	3962.53
423.75	3985.93
423.94	3913.38
424.13	3684.00
424.32	3684.00
424.50	3850.18
424.69	3964.87
424.88	3932.10
425.07	3941.46
425.26	3948.48
425.45	3948.48
425.64	3943.80
425.83	3838.48
426.01	3997.64
426.20	3997.64
426.39	3934.44
426.58	4063.17
426.77	4042.11
426.96	3981.25
427.15	3962.53
427.33	4138.07
427.52	3955.51
427.71	4131.05
427.90	4053.81
428.09	4252.75
428.28	4077.21
428.46	4208.28
428.65	4262.12
428.84	4255.09
429.03	4222.33
429.22	4042.11
429.40	4159.13
429.59	4018.70
429.78	3833.80
429.97	4044.45
430.16	4021.04
430.34	3967.21
430.53	4238.71
430.72	4135.73
430.91	4255.09
431.10	4315.95
431.28	4456.38
431.47	4512.55
431.66	4547.66
431.85	4425.95
432.03	4702.14
432.22	4709.16
432.41	4634.26
432.60	4617.88
432.79	4561.70
432.97	4585.11
433.16	4734.90
433.35	4571.07
433.54	4664.69
433.72	4669.37
433.91	4669.37
434.10	4692.77
434.28	4667.03
434.47	4851.93
434.66	4826.18
434.85	4933.85
435.03	4961.94
435.22	4901.08
435.41	5048.54
435.59	4816.82
435.78	5039.17
435.97	5153.86
436.16	5036.83
436.34	4968.96
436.53	5284.93
436.72	5238.12
436.90	5081.30
437.09	5249.82
437.28	5167.90
437.46	5186.63
437.65	5046.20
437.84	5083.64
438.02	5135.14
438.21	5074.28
438.40	5125.77
438.58	5163.22
438.77	5423.02
438.96	5554.09
439.14	5336.42
439.33	5643.03
439.52	5603.24
439.70	5518.98
439.89	5661.76
440.08	5565.79
440.26	5785.80
440.45	5671.12
440.63	5888.79
440.82	5846.66
441.01	5806.87
441.19	5980.07
441.38	5877.09
441.57	6099.44
441.75	6197.74
441.94	6282.00
442.12	6207.10
442.31	6345.19
442.50	6356.90
442.68	6190.72
442.87	6193.06
443.05	6361.58
443.24	6363.92
443.43	6497.33
443.61	6321.79
443.80	6750.10
443.98	6312.42
444.17	6296.04
444.35	6448.18
444.54	6525.41
444.73	6436.47
444.91	6230.51
445.10	6303.06
445.28	6431.79
445.47	6324.13
445.65	6225.82
445.84	6434.13
446.02	6417.75
446.21	6607.33
446.39	6438.81
446.58	6654.14
446.77	6654.14
446.95	6483.28
447.14	6569.88
447.32	6647.12
447.51	6684.57
447.69	6483.28
447.88	6724.36
448.06	6691.59
448.25	6532.44
448.43	6593.29
448.62	6707.98
448.80	6806.28
448.99	6773.51
449.17	6771.17
449.36	6743.08
449.54	6939.69
449.73	7082.46
449.91	7016.93
450.10	6956.07
450.28	7243.96
450.46	7007.56
450.65	7014.59
450.83	7136.29
451.02	6942.03
451.20	7204.17
451.39	7108.21
451.57	7267.36
451.76	7068.42
451.94	7136.29
452.13	7042.67
452.31	7187.79
452.49	7152.68
452.68	7126.93
452.86	7199.49
453.05	7110.55
453.23	7183.10
453.42	7236.94
453.60	7433.54
453.78	7470.99
453.97	7463.97
454.15	7386.73
454.34	7220.55
454.52	7391.41
454.70	7520.14
454.89	7644.19
455.07	7433.54
455.26	7702.70
455.44	7817.39
455.62	7758.88
455.81	7646.53
455.99	7801.01
456.17	7569.29
456.36	7758.88
456.54	7803.35
456.73	7887.61
456.91	8182.51
457.09	8098.25
457.28	8131.02
457.46	8053.78
457.64	8084.21
457.83	8030.38
458.01	8021.02
458.19	8297.20
458.38	7859.52
458.56	8259.75
458.74	8152.09
458.93	8002.29
459.11	8264.43
459.29	8280.82
459.48	8575.72
459.66	8156.77
459.84	8308.90
460.03	8608.49
460.21	8404.86
460.39	8454.02
460.57	8489.12
460.76	8491.46
460.94	8528.91
461.12	8578.06
461.31	8652.96
461.49	8627.21
461.67	8629.56
461.85	8842.54
462.04	8592.11
462.22	9263.84
462.40	8819.14
462.59	8994.68
462.77	8887.01
462.95	8870.63
463.13	8727.86
463.32	8765.31
463.50	9046.17
463.68	8877.65
463.86	9121.07
464.05	8737.22
464.23	9078.94
464.41	9027.45
464.59	8823.82
464.78	8945.53
464.96	9114.05
465.14	9177.24
465.32	9102.34
465.50	9366.82
465.69	9350.44
465.87	8978.30
466.05	9249.80
466.23	8884.67
466.41	9114.05
466.60	9282.56
466.78	9231.07
466.96	9144.47
467.14	9404.27
467.32	9224.05
467.51	9453.42
467.69	9352.78
467.87	9563.43
468.05	9568.11
468.23	9231.07
468.41	9458.10
468.60	9635.99
468.78	9329.38
468.96	9540.02
469.14	9635.99
469.32	9769.40
469.50	9734.29
469.69	9666.41
469.87	9750.67
470.05	9771.74
470.23	9724.93
470.41	9633.64
470.59	9884.08
470.77	9874.72
470.95	9944.94
471.14	10249.21
471.32	10031.54
471.50	10289.00
471.68	10120.48
471.86	10328.78
472.04	10281.97
472.22	10572.20
472.40	10366.23
472.58	10506.66
472.77	10356.87
472.95	10546.45
473.13	10445.81
473.31	10293.68
473.49	10368.57
473.67	10471.56
473.85	10712.63
474.03	10813.28
474.21	11026.26
474.39	11143.29
474.57	10927.96
474.75	11077.76
474.93	11356.28
475.12	10855.40
475.30	11201.80
475.48	11105.84
475.66	11265.00
475.84	11442.88
476.02	11178.40
476.20	11288.40
476.38	11309.47
476.56	11800.98
476.74	11786.94
476.92	11805.66
477.10	11765.87
477.28	12107.59
477.46	11861.84
477.64	12109.93
477.82	12276.11
478.00	12489.10
478.18	12292.49
478.36	12603.78
478.54	12575.70
478.72	12718.47
478.90	12798.05
479.08	12940.82
479.26	12901.03
479.44	13158.49
479.62	13158.49
479.80	12894.01
479.98	13511.91
480.16	13570.43
480.34	13437.02
480.52	13626.60
480.70	13638.30
480.88	13776.39
481.06	13949.59
481.24	14033.85
481.41	14267.91
481.59	14251.52
481.77	14010.45
481.95	14406.00
482.13	14588.56
482.31	14455.15
482.49	14565.15
482.67	14831.97
482.85	15063.69
483.03	15105.82
483.21	15037.94
483.39	15288.38
483.57	15206.46
483.74	15571.58
483.92	15555.20
484.10	15382.00
484.28	15681.59
484.46	15833.72
484.64	16231.62
484.82	16112.25
485.00	16341.62
485.18	16453.97
485.35	16355.66
485.53	16037.35
485.71	16271.40
485.89	16409.50
486.07	16589.72
486.25	16615.46
486.43	16828.45
486.61	17071.87
486.78	17221.66
486.96	17083.57
487.14	17582.10
487.32	17649.98
487.50	18068.94
487.68	17954.25
487.85	18274.90
488.03	18335.76
488.21	18548.75
488.39	18462.15
488.57	18764.07
488.75	18782.80
488.92	19047.28
489.10	19192.39
489.28	19330.48
489.46	19658.16
489.64	19583.26
489.81	20217.55
489.99	19964.77
490.17	20238.61
490.35	20278.40
490.53	20226.91
490.70	20290.10
490.88	20568.63
491.06	21006.31
491.24	20596.71
491.41	20638.84
491.59	20783.96
491.77	20664.59
491.95	20936.09
492.13	21118.65
492.30	21591.44
492.48	21759.96
492.66	21661.66
492.84	21783.37
493.01	21804.43
493.19	21673.36
493.37	22183.60
493.54	22242.11
493.72	22403.61
493.90	22574.47
494.08	23105.77
494.25	22960.66
494.43	23082.36
494.61	23271.95
494.79	23346.84
494.96	23278.97
495.14	23250.88
495.32	23199.39
495.49	23426.42
495.67	23695.58
495.85	23733.03
496.02	24444.56
496.20	24346.25
496.38	24257.31
496.55	24379.02
496.73	24980.54
496.91	24800.32
497.09	25090.54
497.26	25055.43
497.44	24819.04
497.62	25165.44
497.79	25750.57
497.97	24985.22
498.14	25621.84
498.32	25535.24
498.50	25703.76
498.67	25727.17
498.85	25766.96
499.03	25891.01
499.20	25717.81
499.38	26230.38
499.56	26373.16
499.73	26677.43
499.91	26431.67
500.08	26373.16
500.26	26092.29
500.44	26703.17
500.61	26684.45
500.79	26513.59
500.97	26700.83
501.14	27300.01
501.32	27234.47
501.49	27300.01
501.67	27054.25
501.84	27604.28
502.02	27513.00
502.20	27859.40
502.37	27674.49
502.55	27831.31
502.72	28133.24
502.90	27927.27
503.07	27967.06
503.25	28411.76
503.43	27440.44
503.60	28191.75
503.78	27910.89
503.95	28187.07
504.13	28514.75
504.30	29001.58
504.48	28643.48
504.65	28795.61
504.83	29647.57
505.01	29104.56
505.18	29127.97
505.36	29687.36
505.53	29654.59
505.71	29504.79
505.88	29614.80
506.06	29324.57
506.23	29706.08
506.41	29567.99
506.58	29752.89
506.76	29975.24
506.93	30153.12
507.11	30106.31
507.28	29968.22
507.46	30136.74
507.63	30120.35
507.81	30256.11
507.98	30242.06
508.16	30370.79
508.33	30665.70
508.50	30661.02
508.68	30796.77
508.85	30754.64
509.03	31281.26
509.20	31398.29
509.38	31356.16
509.55	30969.97
509.73	31178.28
509.90	31241.47
510.08	31089.34
510.25	31522.34
510.42	31644.04
510.60	32163.64
510.77	31917.89
510.95	32163.64
511.12	32063.00
511.30	31938.95
511.47	31992.78
511.64	32395.35
511.82	32346.20
511.99	32231.52
512.17	32261.94
512.34	32334.50
512.51	32924.32
512.69	32882.19
512.86	32566.21
513.04	33078.79
513.21	33181.77
513.38	33024.96
513.56	32685.58
513.73	32786.22
513.90	33200.50
514.08	32917.29
514.25	33635.84
514.43	33151.35
514.60	33172.41
514.77	33230.93
514.95	33701.37
515.12	33617.11
515.29	33607.75
515.47	34075.86
515.64	33677.97
515.81	33872.23
515.99	33682.65
516.16	33853.51
516.33	33537.54
516.51	34024.37
516.68	33642.86
516.85	33752.87
517.03	33907.34
517.20	34106.29
517.37	34040.75
517.54	34438.64
517.72	34284.17
517.89	34366.09
518.06	34061.82
518.24	34199.91
518.41	34487.79
518.58	34560.35
518.75	34401.19
518.93	34756.96
519.10	35016.75
519.27	35660.40
519.45	35274.21
519.62	35304.64
519.79	35133.78
519.96	35086.97
520.14	35779.77
520.31	35611.25
520.48	35697.85
520.65	35552.74
520.83	35700.19
521.00	36130.85
521.17	36006.80
521.34	35864.03
521.52	35995.10
521.69	36414.05
521.86	36552.15
522.03	36259.58
522.20	36355.54
522.38	36357.88
522.55	36465.55
522.72	36177.66
522.89	36613.00
523.07	36479.59
523.24	36814.29
523.41	37031.96
523.58	36964.08
523.75	37167.71
523.92	37102.17
524.10	37619.43
524.27	37476.66
524.44	37102.17
524.61	37621.77
524.78	37977.53
524.96	37869.87
525.13	37897.95
525.30	37846.46
525.47	38103.92
525.64	37308.14
525.81	37764.54
525.98	37708.37
526.16	37455.59
526.33	37460.27
526.50	37661.56
526.67	36933.65
526.84	37565.60
527.01	37748.16
527.18	37738.80
527.36	38225.63
527.53	38061.79
527.70	38504.15
527.87	38375.42
528.04	38335.63
528.21	38550.96
528.38	38864.60
528.55	38829.49
528.72	38911.41
528.89	38646.93
529.07	39318.66
529.24	38660.97
529.41	38763.95
529.58	38888.00
529.75	39075.24
529.92	39070.56
530.09	39108.01
530.26	39321.00
530.43	39491.86
530.60	39206.31
530.77	39660.38
530.94	39704.85
531.11	39487.18
531.28	39646.33
531.46	40210.40
531.63	39622.93
531.80	39854.64
531.97	39440.37
532.14	39709.53
532.31	39440.37
532.48	39461.43
532.65	40034.86
532.82	39821.87
532.99	40346.15
533.16	39782.09
533.33	39693.15
533.50	40240.83
533.67	40465.52
533.84	39789.11
534.01	40135.51
534.18	40114.44
534.35	40814.26
534.52	40266.58
534.69	40713.62
534.86	40554.46
535.03	40596.59
535.20	40533.40
535.37	40870.43
535.54	41326.84
535.71	40851.71
535.88	41048.32
536.05	40704.26
536.22	40830.65
536.38	40549.78
536.55	40879.80
536.72	41132.57
536.89	40772.13
537.06	40767.45
537.23	41125.55
537.40	41153.64
537.57	41448.55
537.74	41207.47
537.91	41418.12
538.08	41588.98
538.25	41373.65
538.42	41212.15
538.59	42073.47
538.75	41209.81
538.92	41883.89
539.09	41881.55
539.26	41720.05
539.43	41118.53
539.60	41689.62
539.77	41703.67
539.94	41979.85
540.11	41324.50
540.28	41137.26
540.44	41605.36
540.61	41385.35
540.78	41560.89
540.95	41523.44
541.12	41958.78
541.29	42122.62
541.46	42146.03
541.62	42007.94
541.79	42213.90
541.96	42101.56
542.13	42036.02
542.30	42457.32
542.47	42085.17
542.63	42562.64
542.80	42396.46
542.97	43014.37
543.14	42841.17
543.31	42569.66
543.48	43194.59
543.64	43119.69
543.81	43210.97
543.98	43234.38
544.15	42948.83
544.32	43611.20
544.48	43288.21
544.65	43489.49
544.82	43484.81
544.99	42581.37
545.16	43515.24
545.32	42827.12
545.49	43370.13
545.66	43639.29
545.83	43608.86
546.00	43438.00
546.16	43669.72
546.33	43339.70
546.50	43318.64
546.67	43477.79
546.83	42955.85
547.00	43351.40
547.17	43470.77
547.34	43402.89
547.50	43784.40
547.67	43753.97
547.84	44093.35
548.00	44095.69
548.17	44236.12
548.34	43686.10
548.51	44392.94
548.67	44315.70
548.84	43674.40
549.01	44254.85
549.18	43948.24
549.34	44369.54
549.51	44481.88
549.68	44229.10
549.84	44261.87
550.01	44175.27
550.18	44233.78
550.34	44257.19
550.51	44004.41
550.68	44374.22
550.84	43906.11
551.01	44435.07
551.18	44385.92
551.34	44201.02
551.51	44524.01
551.68	44385.92
551.84	44498.26
552.01	44414.01
552.18	44671.46
552.34	44390.60
552.51	44715.93
552.68	44664.44
552.84	44713.59
553.01	44966.37
553.18	44718.28
553.34	44685.51
553.51	44322.72
553.67	44868.07
553.84	45109.14
554.01	44945.31
554.17	45052.97
554.34	45481.29
554.51	44919.56
554.67	44807.22
554.84	44992.12
555.00	45024.89
555.17	44842.32
555.33	45319.79
555.50	44814.24
555.67	45139.57
555.83	45345.54
556.00	45223.83
556.16	45991.53
556.33	45151.27
556.50	45083.40
556.66	45467.25
556.83	45233.19
556.99	45769.18
557.16	45137.23
557.32	45193.40
557.49	45453.20
557.65	44811.90
557.82	45207.45
557.98	45265.96
558.15	45167.66
558.32	45132.55
558.48	45158.30
558.65	45322.13
558.81	45406.39
558.98	45488.31
559.14	45392.35
559.31	45301.07
559.47	45713.00
559.64	45792.58
559.80	45663.85
559.97	45595.98
560.13	45532.78
560.30	45132.55
560.46	45621.72
560.63	45467.25
560.79	45729.39
560.96	46298.14
561.12	45495.33
561.29	45717.68
561.45	45645.13
561.61	46071.10
561.78	45684.92
561.94	45970.46
562.11	45832.37
562.27	45443.84
562.44	45682.58
562.60	45734.07
562.77	46162.39
562.93	45881.52
563.10	46089.83
563.26	45378.31
563.42	46422.19
563.59	45916.63
563.75	45900.25
563.92	46138.98
564.08	45851.09
564.24	46356.65
564.41	45570.23
564.57	46108.55
564.74	46052.38
564.90	46183.45
565.07	46117.92
565.23	46017.27
565.39	45949.40
565.56	45808.96
565.72	46054.72
565.88	46206.86
566.05	45762.15
566.21	46064.08
566.38	45904.93
566.54	46419.84
566.70	46476.02
566.87	46653.90
567.03	46040.68
567.19	46178.77
567.36	46799.01
567.52	46258.35
567.68	46131.96
567.85	46466.66
568.01	46185.79
568.17	46263.03
568.34	46066.42
568.50	46012.59
568.66	46073.45
568.83	46557.94
568.99	46007.91
569.15	46263.03
569.32	45968.12
569.48	46005.57
569.64	46321.54
569.81	46581.34
569.97	46735.82
570.13	46492.40
570.30	46209.20
570.46	46129.62
570.62	46117.92
570.78	45986.85
570.95	46408.14
571.11	46499.42
571.27	46218.56
571.43	46248.99
571.60	46667.94
571.76	46066.42
571.92	46454.95
572.09	45937.69
572.25	46749.86
572.41	46431.55
572.57	46354.31
572.74	47054.13
572.90	46520.49
573.06	46391.76
573.22	46852.84
573.38	46436.23
573.55	46298.14
573.71	46469.00
573.87	46553.26
574.03	46358.99
574.20	46218.56
574.36	46588.36
574.52	46733.48
574.68	46515.81
574.84	46368.35
575.01	46443.25
575.17	46398.78
575.33	46394.10
575.49	46433.89
575.65	46665.60
575.82	46864.55
575.98	47124.35
576.14	46658.58
576.30	46234.94
576.46	46600.07
576.62	46564.96
576.79	46419.84
576.95	45860.46
577.11	46344.95
577.27	46642.20
577.43	46686.67
577.59	46391.76
577.75	46506.44
577.92	46248.99
578.08	46162.39
578.24	45806.62
578.40	46593.04
578.56	46469.00
578.72	46366.01
578.88	46581.34
579.04	46323.88
579.21	46679.64
579.37	46415.16
579.53	46590.70
579.69	46239.62
579.85	46424.53
580.01	46513.47
580.17	46548.57
580.33	46899.65
580.49	46782.63
580.65	46384.74
580.82	46389.42
580.98	46579.00
581.14	46546.23
581.30	46574.32
581.46	46789.65
581.62	47040.09
581.78	46703.05
581.94	47246.05
582.10	46569.64
582.26	46981.57
582.42	46904.34
582.58	47012.00
582.74	46204.52
582.90	46445.59
583.06	46555.60
583.22	46801.35
583.38	47168.82
583.54	47058.81
583.70	46745.18
583.86	46536.87
584.02	46389.42
584.18	46712.41
584.34	46557.94
584.50	46813.05
584.66	46340.27
584.82	46663.26
584.98	46871.57
585.14	46859.87
585.30	46909.02
585.46	46705.39
585.62	46483.04
585.78	46438.57
585.94	46454.95
586.10	46602.41
586.26	46705.39
586.42	46909.02
586.58	46724.11
586.74	46731.14
586.90	46389.42
587.06	46412.82
587.22	46953.49
587.38	46576.66
587.54	46525.17
587.70	46873.91
587.86	46759.22
588.02	46733.48
588.18	46834.12
588.34	46419.84
588.49	46197.49
588.65	45823.01
588.81	46195.15
588.97	46204.52
589.13	46124.94
589.29	46405.80
589.45	46412.82
589.61	46541.55
589.77	46562.62
589.93	46897.31
590.08	46469.00
590.24	46693.69
590.40	46967.53
590.56	46789.65
590.72	46887.95
590.88	46466.66
591.04	46983.91
591.20	47030.72
591.35	46848.16
591.51	47412.23
591.67	46976.89
591.83	46855.18
591.99	46361.33
592.15	46288.77
592.31	46829.44
592.46	46380.06
592.62	46630.49
592.78	47086.90
592.94	47143.07
593.10	46623.47
593.26	46639.86
593.41	47306.91
593.57	46588.36
593.73	46703.05
593.89	47042.43
594.05	46710.07
594.20	47136.05
594.36	46855.18
594.52	46904.34
594.68	46939.44
594.84	46990.94
594.99	47194.56
595.15	46927.74
595.31	47014.34
595.47	47063.49
595.62	46782.63
595.78	46773.27
595.94	47309.25
596.10	47299.89
596.25	47091.58
596.41	47185.20
596.57	47009.66
596.73	47138.39
596.88	46611.77
597.04	47189.88
597.20	47470.75
597.36	47196.90
597.51	47187.54
597.67	47086.90
597.83	47014.34
597.99	46866.89
598.14	47178.18
598.30	46497.08
598.46	46834.12
598.61	47173.50
598.77	46976.89
598.93	46691.35
599.09	46995.62
599.24	47114.98
599.40	46941.78
599.56	47131.37
599.71	47372.44
599.87	47154.77
600.03	46782.63
600.18	46899.65
600.34	46843.48
600.50	46852.84
600.65	46527.51
600.81	47065.83
600.97	47082.22
601.12	47274.14
601.28	47349.04
601.44	46974.55
601.59	46932.42
601.75	46803.69
601.91	46731.14
602.06	46876.25
602.22	46679.64
602.37	46976.89
602.53	46574.32
602.69	47412.23
602.84	46944.12
603.00	46665.60
603.16	46754.54
603.31	46567.30
603.47	46925.40
603.62	46960.51
603.78	46808.37
603.94	47192.22
604.09	46918.38
604.25	47164.14
604.40	46700.71
604.56	46965.19
604.71	46932.42
604.87	46443.25
605.03	46735.82
605.18	46684.33
605.34	46579.00
605.49	46714.75
605.65	46642.20
605.80	46588.36
605.96	46820.08
606.12	46742.84
606.27	47150.09
606.43	46677.30
606.58	46815.40
606.74	46600.07
606.89	46394.10
607.05	46955.83
607.20	46925.40
607.36	46672.62
607.51	46913.70
607.67	46939.44
607.82	46515.81
607.98	46944.12
608.13	46527.51
608.29	46703.05
608.44	46284.09
608.60	45909.61
608.75	46232.60
608.91	46094.51
609.06	46190.47
609.22	46574.32
609.37	46459.63
609.53	46593.04
609.68	46665.60
609.84	46422.19
609.99	46712.41
610.15	46267.71
610.30	46071.10
610.46	46075.79
610.61	46375.37
610.76	46323.88
610.92	46302.82
611.07	45975.14
611.23	46169.41
611.38	46382.40
611.54	46190.47
611.69	46232.60
611.84	46021.95
612.00	45982.16
612.15	45432.14
612.31	46309.84
612.46	45762.15
612.62	46092.17
612.77	46064.08
612.92	46141.32
613.08	45951.74
613.23	46358.99
613.39	45532.78
613.54	45745.77
613.69	45738.75
613.85	45481.29
614.00	46057.06
614.15	46686.67
614.31	46260.69
614.46	45846.41
614.62	45907.27
614.77	45818.33
614.92	45366.60
615.08	45736.41
615.23	45495.33
615.38	45844.07
615.54	45343.20
615.69	45570.23
615.84	45296.39
616.00	45301.07
616.15	45642.79
616.30	45516.40
616.46	45272.98
616.61	45010.84
616.76	45226.17
616.92	45223.83
617.07	45446.18
617.22	45167.66
617.37	45401.71
617.53	45581.93
617.68	45631.08
617.83	45783.22
617.99	45872.16
618.14	45343.20
618.29	45275.32
618.45	45340.86
618.60	45209.79
618.75	44992.12
618.90	45282.34
619.06	45326.81
619.21	45361.92
619.36	45205.11
619.51	45464.91
619.67	44811.90
619.82	44884.45
619.97	45024.89
620.12	44889.13
620.28	44760.40
620.43	44598.91
620.58	44762.75
620.73	45109.14
620.89	44889.13
621.04	45329.16
621.19	44577.84
621.34	44554.44
621.49	44449.11
621.65	44488.90
621.80	44865.73
621.95	44470.18
622.10	44177.61
622.25	44692.53
622.41	44243.15
622.56	44666.78
622.71	44690.19
622.86	44355.49
623.01	44552.10
623.16	44725.30
623.32	44942.97
623.47	44587.21
623.62	44748.70
623.77	44694.87
623.92	44128.46
624.07	44343.79
624.23	43831.21
624.38	44416.35
624.53	43753.97
624.68	44306.34
624.83	44163.57
624.98	44481.88
625.13	43793.76
625.29	44065.27
625.44	43885.04
625.59	43906.11
625.74	44083.99
625.89	43519.92
626.04	43782.06
626.19	43805.47
626.34	43959.94
626.49	43768.02
626.65	43564.39
626.80	43842.92
626.95	43531.62
627.10	43606.52
627.25	43255.44
627.40	43281.19
627.55	42857.55
627.70	42639.88
627.85	43398.21
628.00	43234.38
628.15	44154.21
628.30	43316.29
628.45	43065.86
628.60	43578.43
628.76	43627.59
628.91	43452.05
629.06	43007.34
629.21	42927.77
629.36	43229.69
629.51	43065.86
629.66	43021.39
629.81	42897.34
629.96	43058.84
630.11	42869.25
630.26	43342.04
630.41	43154.80
630.56	42895.00
630.71	43072.88
630.86	42859.89
631.01	42993.30
631.16	43295.23
631.31	42623.50
631.46	42316.89
631.61	42892.66
631.76	42827.12
631.91	43264.80
632.06	42763.93
632.21	42962.87
632.36	43084.58
632.51	42784.99
632.66	42803.72
632.81	42354.33
632.96	42256.03
633.10	42314.55
633.25	42206.88
633.40	42300.50
633.55	42546.26
633.70	42806.06
633.85	42436.25
634.00	42436.25
634.15	42052.41
634.30	42199.86
634.45	42141.35
634.60	42401.14
634.75	42763.93
634.90	42433.91
635.05	42543.92
635.19	42525.19
635.34	42349.65
635.49	42059.43
635.64	42251.35
635.79	41900.27
635.94	42204.54
636.09	42167.09
636.24	42359.02
636.39	42010.28
636.53	42073.47
636.68	41567.91
636.83	41701.32
636.98	41792.61
637.13	41666.22
637.28	42183.48
637.43	41296.41
637.57	42220.92
637.72	41771.54
637.87	41998.57
638.02	41846.44
638.17	41621.75
638.32	41558.55
638.46	41490.68
638.61	41310.46
638.76	41193.43
638.91	41720.05
639.06	41771.54
639.20	41282.37
639.35	41205.13
639.50	41350.24
639.65	41830.05
639.80	41785.58
639.94	41289.39
640.09	41315.14
640.24	41280.03
640.39	41099.81
640.54	40807.24
640.68	41050.66
640.83	41205.13
640.98	40713.62
641.13	40645.74
641.27	41539.83
641.42	40966.40
641.57	41399.40
641.72	41111.51
641.86	40999.16
642.01	40650.42
642.16	41249.60
642.31	40432.75
642.45	41221.52
642.60	40327.43
642.75	40423.39
642.90	41036.61
643.04	40608.29
643.19	40648.08
643.34	40886.82
643.48	40694.89
643.63	40456.16
643.78	40140.19
643.93	40493.61
644.07	40474.88
644.22	40397.65
644.37	40526.38
644.51	40048.91
644.66	40306.37
644.81	40573.19
644.95	40603.61
645.10	40500.63
645.25	40893.84
645.39	40753.41
645.54	40896.18
645.69	40341.47
645.83	40271.26
645.98	40399.99
646.13	40605.95
646.27	40268.92
646.42	39835.92
646.57	39821.87
646.71	39894.43
646.86	40318.07
647.00	40208.06
647.15	39817.19
647.30	40046.57
647.44	39974.01
647.59	39700.17
647.74	39903.79
647.88	39922.52
648.03	39686.12
648.17	40095.72
648.32	39316.32
648.47	39660.38
648.61	39372.49
648.76	39798.47
648.90	40016.14
649.05	39508.24
649.20	39793.79
649.34	39423.98
649.49	39974.01
649.63	39613.57
649.78	39484.84
649.92	39564.42
650.07	40013.80
650.21	39288.23
650.36	39555.05
650.51	39459.09
650.65	39768.04
650.80	39761.02
650.94	39756.34
651.09	39765.70
651.23	39335.04
651.38	39606.55
651.52	39023.75
651.67	39115.03
651.81	39531.65
651.96	39330.36
652.10	38862.26
652.25	38593.09
652.39	39047.16
652.54	39051.84
652.68	39683.78
652.83	39335.04
652.97	39536.33
653.12	39271.85
653.26	38897.36
653.41	39185.25
653.55	38925.45
653.70	39098.65
653.84	39213.34
653.99	38845.87
654.13	38785.02
654.27	38951.20
654.42	38752.25
654.56	38925.45
654.71	39105.67
654.85	38761.61
655.00	38602.46
655.14	38529.90
655.29	38380.10
655.43	38368.40
655.57	38490.11
655.72	38132.01
655.86	38246.69
656.01	38080.52
656.15	37874.55
656.30	38075.84
656.44	37848.80
656.58	38227.97
656.73	37799.65
656.87	38089.88
657.01	37736.46
657.16	37640.50
657.30	38136.69
657.45	37743.48
657.59	38099.24
657.73	37904.98
657.88	37893.27
658.02	38124.99
658.16	37415.80
658.31	38380.10
658.45	38073.49
658.60	37691.99
658.74	37720.07
658.88	38010.30
659.03	37633.47
659.17	37301.12
659.31	37673.26
659.46	37497.72
659.60	37563.26
659.74	38026.68
659.89	36973.44
660.03	37422.83
660.17	37418.14
660.32	37516.45
660.46	37764.54
660.60	37486.02
660.74	37617.09
660.89	37581.98
661.03	36687.90
661.17	36800.24
661.32	36994.51
661.46	36753.43
661.60	36893.86
661.74	36648.11
661.89	37151.32
662.03	37085.79
662.17	36526.40
662.31	36442.14
662.46	36603.64
662.60	36767.48
662.74	36339.16
662.88	36708.96
663.03	36374.27
663.17	36254.90
663.31	36465.55
663.45	36416.40
663.60	36320.43
663.74	36044.25
663.88	35922.54
664.02	35723.60
664.17	35772.75
664.31	35386.56
664.45	35838.28
664.59	35903.82
664.73	35683.81
664.88	35765.73
665.02	35660.40
665.16	35948.29
665.30	35887.43
665.44	36201.07
665.59	35566.78
665.73	35480.18
665.87	35747.00
666.01	34888.03
666.15	35323.36
666.29	35206.34
666.44	35716.58
666.58	35414.65
666.72	35026.12
666.86	35026.12
667.00	35784.45
667.14	34937.18
667.28	34923.13
667.43	34742.91
667.57	35117.40
667.71	34574.39
667.85	35068.25
667.99	34761.64
668.13	34410.56
668.27	34291.19
668.41	34590.78
668.56	34593.12
668.70	34562.69
668.84	34307.57
668.98	33853.51
669.12	34618.86
669.26	34263.10
669.40	34258.42
669.54	33802.02
669.68	34075.86
669.82	33930.75
669.96	33809.04
670.10	33504.77
670.25	34099.26
670.39	33371.36
670.53	33736.48
670.67	33397.10
670.81	33565.62
670.95	33567.96
671.09	33282.42
671.23	33825.42
671.37	33684.99
671.51	33219.22
671.65	33240.29
671.79	33338.59
671.93	33055.39
672.07	33450.94
672.21	33071.77
672.35	33081.13
672.49	33034.32
672.63	32584.94
672.77	32577.92
672.91	32519.40
673.05	32355.57
673.19	32650.47
673.33	32247.90
673.47	32245.56
673.61	31903.84
673.75	32430.46
673.89	31669.79
674.03	31978.74
674.17	31831.29
674.31	32294.71
674.45	31812.56
674.59	31885.12
674.73	32287.69
674.87	31761.07
675.01	31566.81
675.15	31824.26
675.29	31402.97
675.43	31428.71
675.56	31611.28
675.70	31023.80
675.84	31356.16
675.98	29949.50
676.12	30918.48
676.26	30778.04
676.40	30639.95
676.54	31108.06
676.68	30597.82
676.82	30174.19
676.96	30672.72
677.10	30284.19
677.23	30064.18
677.37	30462.07
677.51	30075.88
677.65	30529.95
677.79	29893.32
677.93	30176.53
678.07	30291.21
678.21	29558.63
678.34	29223.93
678.48	29085.84
678.62	29270.74
678.76	29427.56
678.90	29572.67
679.04	28788.59
679.18	29523.52
679.31	28732.42
679.45	28847.10
679.59	28383.68
679.73	28531.13
679.87	28826.04
680.00	28666.88
680.14	28435.17
680.28	28180.05
680.42	28322.82
680.56	28376.66
680.70	28313.46
680.83	28030.26
680.97	27821.95
681.11	27999.83
681.25	27716.62
681.39	27779.82
681.52	27410.01
681.66	27747.05
681.80	27578.53
681.94	27459.16
682.07	27215.75
682.21	26969.99
682.35	27295.33
682.49	26969.99
682.62	27185.32
682.76	27009.78
682.90	26862.33
683.04	27056.59
683.17	26637.64
683.31	26698.49
683.45	26246.77
683.59	26150.81
683.72	26199.96
683.86	25869.94
684.00	26223.36
684.13	26195.28
684.27	25947.18
684.41	26066.55
684.55	25741.21
684.68	25326.94
684.82	25549.29
684.96	25450.99
685.09	25619.50
685.23	25523.54
685.37	25376.09
685.50	24938.41
685.64	25226.29
685.78	25184.16
685.91	25001.60
686.05	24971.18
686.19	24617.75
686.32	24900.96
686.46	24723.08
686.60	23868.78
686.73	24304.12
686.87	23971.77
687.01	23632.39
687.14	23520.04
687.28	23475.57
687.42	23524.72
687.55	23297.69
687.69	23487.28
687.82	23108.11
687.96	23108.11
688.10	23311.74
688.23	23573.88
688.37	23321.10
688.50	22899.80
688.64	22991.08
688.78	22838.95
688.91	22848.31
689.05	22883.42
689.18	22419.99
689.32	22169.55
689.46	22714.90
689.59	22768.73
689.73	22192.96
689.86	22302.96
690.00	22157.85
690.13	22499.57
690.27	22181.26
690.41	22087.64
690.54	21668.68
690.68	21778.68
690.81	21617.19
690.95	21577.40
691.08	21479.10
691.22	21369.09
691.35	21530.59
691.49	21633.57
691.62	21315.26
691.76	21352.71
691.89	21263.77
692.03	21296.53
692.16	21062.48
692.30	20695.02
692.43	20727.78
692.57	20767.57
692.70	20568.63
692.84	20552.24
692.97	20685.65
693.11	20353.30
693.24	20142.65
693.38	20250.32
693.51	19719.01
693.65	19824.34
693.78	20144.99
693.92	20067.75
694.05	19903.92
694.19	19978.81
694.32	19838.38
694.45	19988.18
694.59	19693.27
694.72	19215.80
694.86	19374.95
694.99	19199.41
695.13	18867.06
695.26	18579.17
695.39	19002.81
695.53	18916.21
695.66	18761.73
695.80	18979.40
695.93	18754.71
696.07	18321.71
696.20	18651.73
696.33	18492.57
696.47	18333.42
696.60	18532.36
696.73	18298.31
696.87	18139.15
697.00	18314.69
697.14	18146.17
697.27	18174.26
697.40	17781.05
697.54	17949.57
697.67	17657.00
697.80	17940.21
697.94	17661.68
698.07	17561.04
698.21	17350.39
698.34	17554.02
698.47	17200.60
698.61	17163.15
698.74	16973.56
698.87	17362.09
699.01	16931.44
699.14	16664.61
699.27	16915.05
699.40	16861.22
699.54	16386.09
699.67	16631.85
699.80	16453.97
699.94	16460.99
700.07	16503.12
700.20	16016.29
700.34	16093.52
700.47	15981.18
700.60	16042.03
700.73	16264.38
700.87	15859.47
701.00	15910.96
701.13	16065.44
701.26	15803.30
701.40	15737.76
701.53	15630.10
701.66	15826.70
701.79	15520.09
701.93	15325.83
702.06	15283.70
702.19	15318.81
702.32	15435.83
702.46	15349.23
702.59	15269.66
702.72	15094.11
702.85	15159.65
702.99	15396.04
703.12	15117.52
703.25	14904.53
703.38	14780.48
703.51	14647.07
703.65	14822.61
703.78	14651.75
703.91	14427.06
704.04	14551.11
704.17	14574.52
704.31	14305.35
704.44	14047.90
704.57	14256.20
704.70	14010.45
704.83	14015.13
704.96	14092.37
705.10	13961.30
705.23	14305.35
>>>>>End Processed Spectral Data<<<<<
