SpectraSuite Data File
++++++++++++++++++++++++++++++++++++
Date: Fri Oct 25 11:33:45 EDT 2013
User: price-jones
Dark Spectrum Present: No
Reference Spectrum Present: No
Number of Sampled Component Spectra: 1
Spectrometers: USB2+H05261
Integration Time (usec): 100000 (USB2+H05261)
Spectra Averaged: 1 (USB2+H05261)
Boxcar Smoothing: 0 (USB2+H05261)
Correct for Electrical Dark: No (USB2+H05261)
Strobe/Lamp Enabled: No (USB2+H05261)
Correct for Detector Non-linearity: No (USB2+H05261)
Correct for Stray Light: No (USB2+H05261)
Number of Pixels in Processed Spectrum: 2048
>>>>>Begin Processed Spectral Data<<<<<
365.73	299.59
365.92	299.59
366.12	299.59
366.32	205.97
366.52	133.41
366.72	252.78
366.91	166.18
367.11	100.64
367.31	152.13
367.51	173.20
367.70	189.58
367.90	161.50
368.10	156.82
368.30	147.45
368.49	142.77
368.69	189.58
368.89	215.33
369.09	140.43
369.28	145.11
369.48	205.97
369.68	341.72
369.87	234.05
370.07	278.52
370.27	278.52
370.47	283.20
370.66	430.66
370.86	503.22
371.06	524.28
371.25	521.94
371.45	538.32
371.65	550.03
371.84	521.94
372.04	575.77
372.24	552.37
372.44	561.73
372.63	620.24
372.83	608.54
373.03	531.30
373.22	599.18
373.42	592.16
373.62	596.84
373.81	629.60
374.01	709.18
374.21	566.41
374.40	578.11
374.60	554.71
374.79	606.20
374.99	634.29
375.19	566.41
375.38	662.37
375.58	650.67
375.78	741.95
375.97	599.18
376.17	746.63
376.37	641.31
376.56	653.01
376.76	664.71
376.95	718.54
377.15	650.67
377.35	734.93
377.54	702.16
377.74	676.41
377.93	692.80
378.13	692.80
378.33	739.61
378.52	674.07
378.72	727.91
378.91	793.44
379.11	702.16
379.31	760.67
379.50	758.33
379.70	671.73
379.89	781.74
380.09	681.10
380.28	690.46
380.48	725.57
380.68	676.41
380.87	720.88
381.07	699.82
381.26	720.88
381.46	741.95
381.65	737.27
381.85	772.38
382.04	732.59
382.24	793.44
382.43	788.76
382.63	706.84
382.83	725.57
383.02	844.93
383.22	842.59
383.41	844.93
383.61	774.72
383.80	849.61
384.00	784.08
384.19	828.55
384.39	779.40
384.58	807.48
384.78	823.87
384.97	795.78
385.17	734.93
385.36	805.14
385.56	814.51
385.75	809.83
385.95	854.30
386.14	819.19
386.34	788.76
386.53	835.57
386.72	877.70
386.92	889.40
387.11	898.77
387.31	882.38
387.50	868.34
387.70	887.06
387.89	823.87
388.09	964.30
388.28	884.72
388.48	889.40
388.67	919.83
388.86	973.66
389.06	940.90
389.25	915.15
389.45	978.34
389.64	905.79
389.84	994.73
390.03	1022.81
390.22	947.92
390.42	968.98
390.61	1027.50
390.81	1025.15
391.00	1039.20
391.19	1036.86
391.39	1015.79
391.58	1069.62
391.78	1135.16
391.97	1053.24
392.16	1081.33
392.36	1062.60
392.55	1116.44
392.75	1071.97
392.94	1104.73
393.13	990.05
393.33	1086.01
393.52	1069.62
393.71	1214.74
393.91	1071.97
394.10	1128.14
394.29	1111.75
394.49	1083.67
394.68	1153.88
394.88	1160.91
395.07	1088.35
395.26	1188.99
395.46	1163.25
395.65	1235.80
395.84	1111.75
396.04	1184.31
396.23	1221.76
396.42	1200.69
396.62	1287.29
396.81	1294.32
397.00	1186.65
397.19	1287.29
397.39	1205.38
397.58	1242.82
397.77	1324.74
397.97	1259.21
398.16	1228.78
398.35	1224.10
398.55	1263.89
398.74	1289.64
398.93	1313.04
399.12	1348.15
399.32	1282.61
399.51	1336.45
399.70	1348.15
399.90	1277.93
400.09	1348.15
400.28	1444.11
400.47	1296.66
400.67	1364.53
400.86	1453.47
401.05	1462.83
401.24	1458.15
401.44	1420.71
401.63	1530.71
401.82	1453.47
402.01	1481.56
402.21	1544.75
402.40	1533.05
402.59	1444.11
402.78	1572.84
402.97	1535.39
403.17	1490.92
403.36	1558.80
403.55	1547.09
403.74	1493.26
403.93	1481.56
404.13	1575.18
404.32	1640.72
404.51	1640.72
404.70	1682.85
404.89	1605.61
405.09	1689.87
405.28	1687.53
405.47	1685.19
405.66	1778.81
405.85	1724.97
406.05	1720.29
406.24	1668.80
406.43	1788.17
406.62	1806.89
406.81	1797.53
407.00	1781.15
407.20	1839.66
407.39	1856.04
407.58	1870.09
407.77	1867.75
407.96	1921.58
408.15	1802.21
408.34	1926.26
408.54	1746.04
408.73	1935.62
408.92	1947.33
409.11	1933.28
409.30	1930.94
409.49	2010.52
409.68	2029.24
409.87	2026.90
410.07	1991.80
410.26	1942.64
410.45	1998.82
410.64	2092.44
410.83	2127.55
411.02	2115.84
411.21	2237.55
411.40	2190.74
411.59	2230.53
411.78	2176.70
411.98	2251.60
412.17	2282.02
412.36	2204.78
412.55	2392.03
412.74	2471.61
412.93	2392.03
413.12	2363.94
413.31	2558.21
413.50	2359.26
413.69	2363.94
413.88	2516.08
414.07	2450.54
414.26	2527.78
414.45	2499.69
414.64	2628.42
414.83	2551.18
415.02	2686.94
415.22	2597.99
415.41	2670.55
415.60	2773.53
415.79	2717.36
415.98	2747.79
416.17	2743.11
416.36	2747.79
416.55	2715.02
416.74	2841.41
416.93	2860.13
417.12	2801.62
417.31	2984.18
417.50	2850.77
417.69	3066.10
417.88	2909.29
418.07	2890.56
418.26	2916.31
418.45	2946.73
418.64	3033.33
418.83	2967.80
419.02	3047.38
419.21	3094.19
419.39	3082.49
419.58	3148.02
419.77	3040.36
419.96	3152.70
420.15	3241.64
420.34	3183.13
420.53	3314.20
420.72	3199.51
420.91	3253.34
421.10	3255.69
421.29	3229.94
421.48	3389.10
421.67	3269.73
421.86	3164.40
422.05	3454.63
422.24	3449.95
422.43	3379.73
422.61	3377.39
422.80	3330.58
422.99	3501.44
423.18	3311.86
423.37	3574.00
423.56	3297.81
423.75	3407.82
423.94	3405.48
424.13	3122.27
424.32	3288.45
424.50	3398.46
424.69	3492.08
424.88	3574.00
425.07	3471.01
425.26	3454.63
425.45	3471.01
425.64	3407.82
425.83	3459.31
426.01	3480.38
426.20	3337.60
426.39	3419.52
426.58	3442.93
426.77	3487.40
426.96	3419.52
427.15	3524.85
427.33	3691.02
427.52	3581.02
427.71	3627.83
427.90	3674.64
428.09	3674.64
428.28	3770.60
428.46	3735.50
428.65	3576.34
428.84	3789.33
429.03	3843.16
429.22	3576.34
429.40	3805.71
429.59	3686.34
429.78	3669.96
429.97	3737.84
430.16	3885.29
430.34	3822.09
430.53	3962.53
430.72	3805.71
430.91	3866.56
431.10	3962.53
431.28	3978.91
431.47	3885.29
431.66	4161.47
431.85	3857.20
432.03	4025.72
432.22	4039.76
432.41	4037.42
432.60	4074.87
432.79	4121.68
432.97	4184.88
433.16	4163.81
433.35	4070.19
433.54	4245.73
433.72	4236.37
433.91	4210.62
434.10	4273.82
434.28	4109.98
434.47	4311.27
434.66	4283.18
434.85	4161.47
435.03	4229.35
435.22	4353.40
435.41	4437.66
435.59	4283.18
435.78	4355.74
435.97	4353.40
436.16	4432.97
436.34	4432.97
436.53	4482.13
436.72	4582.77
436.90	4461.06
437.09	4601.49
437.28	4566.39
437.46	4594.47
437.65	4531.28
437.84	4718.52
438.02	4486.81
438.21	4685.75
438.40	4493.83
438.58	4695.11
438.77	4849.59
438.96	4802.78
439.14	4922.15
439.33	4926.83
439.52	4807.46
439.70	4835.55
439.89	5036.83
440.08	4985.34
440.26	5081.30
440.45	5083.64
440.63	5055.56
440.82	5329.40
441.01	5179.61
441.19	5231.10
441.38	5240.46
441.57	5296.63
441.75	5294.29
441.94	5383.23
442.12	5394.93
442.31	5401.96
442.50	5474.51
442.68	5558.77
442.87	5343.44
443.05	5500.26
443.24	5570.48
443.43	5619.63
443.61	5607.92
443.80	5607.92
443.98	5624.31
444.17	5420.68
444.35	5600.90
444.54	5624.31
444.73	5696.86
444.91	5535.37
445.10	5668.78
445.28	5624.31
445.47	5540.05
445.65	5668.78
445.84	5687.50
446.02	5785.80
446.21	5731.97
446.39	5671.12
446.58	5701.54
446.77	5790.49
446.95	5570.48
447.14	5830.27
447.32	5853.68
447.51	5832.62
447.69	5788.14
447.88	5846.66
448.06	5708.57
448.25	5722.61
448.43	5830.27
448.62	5877.09
448.80	5755.38
448.99	5872.40
449.17	5844.32
449.36	5998.79
449.54	5853.68
449.73	6202.42
449.91	6083.05
450.10	6031.56
450.28	6069.01
450.46	6169.65
450.65	6113.48
450.83	6106.46
451.02	6239.87
451.20	6200.08
451.39	6284.34
451.57	6148.59
451.76	6127.52
451.94	6104.12
452.13	6366.26
452.31	6207.10
452.49	6207.10
452.68	6258.59
452.86	6216.46
453.05	6483.28
453.23	6431.79
453.42	6246.89
453.60	6366.26
453.78	6352.21
453.97	6338.17
454.15	6359.24
454.34	6420.09
454.52	6576.91
454.70	6537.12
454.89	6518.39
455.07	6682.23
455.26	6719.68
455.44	6773.51
455.62	6705.63
455.81	6565.20
455.99	6787.55
456.17	6930.33
456.36	6733.72
456.54	6913.94
456.73	6981.82
456.91	6984.16
457.09	6836.70
457.28	7056.72
457.46	6953.73
457.64	7049.69
457.83	7183.10
458.01	7140.97
458.19	7222.89
458.38	7045.01
458.56	7258.00
458.74	7180.76
458.93	7155.02
459.11	7215.87
459.29	7225.23
459.48	7267.36
459.66	7112.89
459.84	7449.93
460.03	7403.11
460.21	7379.71
460.39	7293.11
460.57	7456.95
460.76	7452.27
460.94	7538.87
461.12	7517.80
461.31	7485.03
461.49	7543.55
461.67	7588.02
461.85	7639.51
462.04	7723.77
462.22	8051.44
462.40	7789.30
462.59	7772.92
462.77	7726.11
462.95	7812.71
463.13	7709.72
463.32	8002.29
463.50	7831.43
463.68	8065.49
463.86	7845.48
464.05	7985.91
464.23	8044.42
464.41	8032.72
464.59	7761.22
464.78	8121.66
464.96	7981.23
465.14	7990.59
465.32	8086.55
465.50	8224.64
465.69	8255.07
465.87	8182.51
466.05	8257.41
466.23	8241.03
466.41	8334.65
466.60	8549.98
466.78	8311.24
466.96	8276.13
467.14	8236.35
467.32	8269.11
467.51	8400.18
467.69	8203.58
467.87	8360.39
468.05	8388.48
468.23	8322.94
468.41	8318.26
468.60	8439.97
468.78	8468.06
468.96	8409.54
469.14	8503.17
469.32	8638.92
469.50	8435.29
469.69	8652.96
469.87	8952.55
470.05	8842.54
470.23	8898.72
470.41	8725.52
470.59	8919.78
470.77	8816.80
470.95	8894.04
471.14	8987.66
471.32	8863.61
471.50	9118.73
471.68	9181.92
471.86	9247.46
472.04	9102.34
472.22	9289.59
472.40	8898.72
472.58	9324.69
472.77	9380.87
472.95	9415.98
473.13	9579.81
473.31	9324.69
473.49	9357.46
473.67	9446.40
473.85	9530.66
474.03	9661.73
474.21	9783.44
474.39	10068.98
474.57	9923.87
474.75	9891.10
474.93	10012.81
475.12	10019.83
475.30	10150.90
475.48	9973.02
475.66	10052.60
475.84	10024.51
476.02	10394.32
476.20	10286.65
476.38	10356.87
476.56	10635.39
476.74	10429.43
476.92	10504.32
477.10	10462.19
477.28	10693.91
477.46	10846.04
477.64	10977.11
477.82	10892.85
478.00	10995.84
478.18	11140.95
478.36	11229.89
478.54	11255.64
478.72	11276.70
478.90	11344.58
479.08	11566.93
479.26	11723.74
479.44	11698.00
479.62	11660.55
479.80	11866.52
479.98	11859.49
480.16	12294.83
480.34	12070.14
480.52	12306.54
480.70	12341.64
480.88	12180.15
481.06	12573.36
481.24	12360.37
481.41	12348.67
481.59	12674.00
481.77	12922.10
481.95	12840.18
482.13	13130.41
482.31	13146.79
482.49	13600.85
482.67	13392.55
482.85	13392.55
483.03	13584.47
483.21	13696.82
483.39	13635.96
483.57	13851.29
483.74	13930.87
483.92	13860.65
484.10	14003.43
484.28	14443.45
484.46	14583.88
484.64	14890.49
484.82	14513.66
485.00	14771.12
485.18	14869.42
485.35	15309.44
485.53	14953.68
485.71	15098.80
485.89	15384.34
486.07	15559.88
486.25	15616.05
486.43	15419.45
486.61	15728.40
486.78	16065.44
486.96	15943.73
487.14	16137.99
487.32	16175.44
487.50	16505.46
487.68	16219.91
487.85	16886.97
488.03	16662.27
488.21	17071.87
488.39	17011.01
488.57	17579.76
488.75	17270.81
488.92	17387.84
489.10	17514.23
489.28	17685.09
489.46	17853.61
489.64	17813.82
489.81	18288.95
489.99	18097.02
490.17	17951.91
490.35	18728.97
490.53	18588.53
490.70	18703.22
490.88	18431.72
491.06	18927.91
491.24	18808.54
491.41	19227.50
491.59	19176.01
491.77	19190.05
491.95	19201.76
492.13	19836.04
492.30	19896.89
492.48	19700.29
492.66	19873.49
492.84	19936.68
493.01	20355.64
493.19	20259.68
493.37	20421.17
493.54	20311.17
493.72	20592.03
493.90	20716.08
494.08	20814.38
494.25	20961.84
494.43	21315.26
494.61	21301.22
494.79	21198.23
494.96	21490.80
495.14	21441.65
495.32	21813.79
495.49	21635.91
495.67	21806.77
495.85	22139.13
496.02	22139.13
496.20	22431.69
496.38	22522.98
496.55	22232.75
496.73	23019.17
496.91	22719.58
497.09	22867.03
497.26	22644.68
497.44	22934.91
497.62	23431.10
497.79	23339.82
497.97	23442.81
498.14	23749.42
498.32	23889.85
498.50	23906.23
498.67	23871.12
498.85	24060.71
499.03	24259.65
499.20	23800.91
499.38	24369.66
499.56	24411.79
499.73	24566.26
499.91	24465.62
500.08	24657.54
500.26	24397.74
500.44	24870.53
500.61	24713.72
500.79	24596.69
500.97	25074.16
501.14	25390.13
501.32	25331.62
501.49	25701.42
501.67	25289.49
501.84	25895.69
502.02	25572.69
502.20	25886.32
502.37	25577.37
502.55	25867.60
502.72	25687.38
502.90	25919.09
503.07	25984.63
503.25	26019.74
503.43	25773.98
503.60	26419.97
503.78	26684.45
503.95	26438.69
504.13	26284.22
504.30	26789.77
504.48	26869.35
504.65	26813.18
504.83	26632.96
505.01	26951.27
505.18	27096.38
505.36	27529.38
505.53	27393.63
505.71	27300.01
505.88	27700.24
506.06	27187.66
506.23	27962.38
506.41	27798.54
506.58	28016.21
506.76	27735.35
506.93	28135.58
507.11	28147.28
507.28	28163.67
507.46	28563.90
507.63	28453.89
507.81	28601.35
507.98	28177.71
508.16	28849.44
508.33	28603.69
508.50	28503.04
508.68	28804.97
508.85	29149.03
509.03	29046.05
509.20	29041.37
509.38	29500.11
509.55	29008.60
509.73	29315.21
509.90	29280.10
510.08	29291.80
510.25	29839.49
510.42	29415.85
510.60	29844.17
510.77	29935.45
510.95	30106.31
511.12	30082.91
511.30	30129.72
511.47	30223.34
511.64	30293.55
511.82	30827.20
511.99	30473.78
512.17	30410.58
512.34	30958.27
512.51	30909.11
512.69	30820.17
512.86	31002.74
513.04	31349.14
513.21	30923.16
513.38	31206.36
513.56	31248.49
513.73	31007.42
513.90	31260.20
514.08	31232.11
514.25	31484.89
514.43	31456.80
514.60	31597.23
514.77	31391.26
514.95	31730.64
515.12	31679.15
515.29	31665.11
515.47	32093.43
515.64	32247.90
515.81	32154.28
515.99	31819.58
516.16	32849.42
516.33	32488.98
516.51	32538.13
516.68	32252.58
516.85	32496.00
517.03	32587.28
517.20	33013.26
517.37	33031.98
517.54	32723.03
517.72	32980.49
517.89	33083.47
518.06	32999.21
518.24	32835.38
518.41	33401.79
518.58	33500.09
518.75	32891.55
518.93	33488.38
519.10	33301.14
519.27	33303.48
519.45	33530.51
519.62	33912.02
519.79	33757.55
519.96	33680.31
520.14	33837.12
520.31	33975.22
520.48	33951.81
520.65	33951.81
520.83	34375.45
521.00	34567.37
521.17	34309.91
521.34	34274.80
521.52	34146.08
521.69	34733.55
521.86	34859.94
522.03	34717.17
522.20	34976.97
522.38	35342.09
522.55	35079.95
522.72	35117.40
522.89	35311.66
523.07	35784.45
523.24	35086.97
523.41	35206.34
523.58	35290.60
523.75	35510.61
523.92	35461.46
524.10	35508.27
524.27	35938.93
524.44	36250.22
524.61	36006.80
524.78	35524.65
524.96	35775.09
525.13	36584.91
525.30	36481.93
525.47	36201.07
525.64	36126.17
525.81	36432.78
525.98	36788.54
526.16	36091.06
526.33	36629.38
526.50	36374.27
526.67	36683.22
526.84	36503.00
527.01	36624.70
527.18	36744.07
527.36	37132.60
527.53	36854.08
527.70	37488.36
527.87	37144.30
528.04	36882.16
528.21	37195.79
528.38	37385.38
528.55	37457.93
528.72	36877.48
528.89	37191.11
529.07	37221.54
529.24	37251.97
529.41	37764.54
529.58	37729.44
529.75	37593.68
529.92	37134.94
530.09	37331.54
530.26	37773.91
530.43	38033.71
530.60	37656.88
530.77	37816.04
530.94	37586.66
531.11	38417.55
531.28	37827.74
531.46	38197.54
531.63	38075.84
531.80	37996.26
531.97	38143.71
532.14	38340.32
532.31	38466.70
532.48	38731.18
532.65	38476.07
532.82	38735.87
532.99	38850.55
533.16	38747.57
533.33	38878.64
533.50	38490.11
533.67	38850.55
533.84	39255.46
534.01	39035.45
534.18	38698.42
534.35	39428.66
534.52	38829.49
534.69	39524.63
534.86	39196.95
535.03	39005.03
535.20	39665.06
535.37	39810.17
535.54	39735.27
535.71	39220.36
535.88	39669.74
536.05	39693.15
536.22	39531.65
536.38	39800.81
536.55	39943.58
536.72	40147.21
536.89	39697.83
537.06	39798.47
537.23	40006.78
537.40	39739.96
537.57	39896.77
537.74	40275.94
537.91	40294.66
538.08	40128.48
538.25	39861.66
538.42	40250.19
538.59	40280.62
538.75	40271.26
538.92	40673.83
539.09	40891.50
539.26	40584.89
539.43	40720.64
539.60	40973.42
539.77	40238.49
539.94	41144.28
540.11	41151.30
540.28	40730.00
540.44	40748.73
540.61	40563.82
540.78	40474.88
540.95	41336.20
541.12	41113.85
541.29	40666.81
541.46	41109.17
541.62	41446.21
541.79	41242.58
541.96	40561.48
542.13	41230.88
542.30	41502.38
542.47	41289.39
542.63	41481.31
542.80	41649.83
542.97	42209.22
543.14	42279.44
543.31	41701.32
543.48	42188.16
543.64	42532.22
543.81	41935.38
543.98	41818.35
544.15	41991.55
544.32	42419.87
544.48	42583.71
544.65	42241.99
544.82	42436.25
544.99	42157.73
545.16	42569.66
545.32	42277.10
545.49	42721.80
545.66	42539.24
545.83	42412.85
546.00	43192.25
546.16	42824.78
546.33	42541.58
546.50	42459.66
546.67	43007.34
546.83	42473.70
547.00	42911.38
547.17	42663.28
547.34	42873.93
547.50	42981.60
547.67	43243.74
547.84	43061.18
548.00	43325.66
548.17	43374.81
548.34	43533.96
548.51	43363.11
548.67	43353.74
548.84	43665.03
549.01	43166.50
549.18	43311.61
549.34	43372.47
549.51	43454.39
549.68	43735.25
549.84	43515.24
550.01	43775.04
550.18	43505.88
550.34	43608.86
550.51	43709.50
550.68	43725.89
550.84	43650.99
551.01	43772.70
551.18	43700.14
551.34	43615.88
551.51	44060.58
551.68	43892.07
551.84	43786.74
552.01	43681.42
552.18	43962.28
552.34	43906.11
552.51	43831.21
552.68	43665.03
552.84	44275.91
553.01	43856.96
553.18	44114.42
553.34	44334.43
553.51	44250.17
553.67	44645.72
553.84	44383.58
554.01	44357.83
554.17	44554.44
554.34	44678.49
554.51	44383.58
554.67	44472.52
554.84	44786.15
555.00	44182.29
555.17	44706.57
555.33	45153.62
555.50	44495.92
555.67	44844.66
555.83	44968.71
556.00	45081.06
556.16	45687.26
556.33	44842.32
556.50	44851.69
556.66	44999.14
556.83	44973.39
556.99	45329.16
557.16	45368.94
557.32	45155.96
557.49	45067.02
557.65	44783.81
557.82	45081.06
557.98	44800.19
558.15	44975.73
558.32	45525.76
558.48	45282.34
558.65	45359.58
558.81	45352.56
558.98	45205.11
559.14	45043.61
559.31	45373.63
559.47	45162.98
559.64	45359.58
559.80	45701.30
559.97	45497.67
560.13	45130.21
560.30	45610.02
560.46	45591.30
560.63	45841.73
560.79	45366.60
560.96	45865.14
561.12	45839.39
561.29	46054.72
561.45	45750.45
561.61	45160.64
561.78	45284.68
561.94	45731.73
562.11	45757.47
562.27	45624.06
562.44	45968.12
562.60	45998.55
562.77	46136.64
562.93	45914.29
563.10	46066.42
563.26	45944.72
563.42	46078.13
563.59	45975.14
563.75	45799.60
563.92	45588.95
564.08	46225.58
564.24	46412.82
564.41	46150.68
564.57	46408.14
564.74	46202.18
564.90	46110.89
565.07	46033.66
565.23	45947.06
565.39	46258.35
565.56	46394.10
565.72	46307.50
565.88	46223.24
566.05	46052.38
566.21	46321.54
566.38	46293.46
566.54	46447.93
566.70	46309.84
566.87	46728.80
567.03	46263.03
567.19	46642.20
567.36	46040.68
567.52	46368.35
567.68	46560.28
567.85	46363.67
568.01	46447.93
568.17	46384.74
568.34	46714.75
568.50	46398.78
568.66	46588.36
568.83	46941.78
568.99	46464.32
569.15	46347.29
569.32	46806.03
569.48	46550.91
569.64	46593.04
569.81	46452.61
569.97	47016.68
570.13	46672.62
570.30	46167.07
570.46	46810.71
570.62	46693.69
570.78	46843.48
570.95	46651.56
571.11	46611.77
571.27	46513.47
571.43	46817.74
571.60	47077.54
571.76	46660.92
571.92	46539.21
572.09	46527.51
572.25	46593.04
572.41	46766.24
572.57	46309.84
572.74	47508.19
572.90	46822.42
573.06	46850.50
573.22	47426.28
573.38	47079.88
573.55	47386.49
573.71	47271.80
573.87	47248.39
574.03	46698.37
574.20	47021.36
574.36	47100.94
574.52	47138.39
574.68	46717.09
574.84	46939.44
575.01	47421.59
575.17	47140.73
575.33	47107.96
575.49	47323.29
575.65	47386.49
575.82	46939.44
575.98	46817.74
576.14	47194.56
576.30	47152.43
576.46	47068.17
576.62	46923.06
576.79	47320.95
576.95	46897.31
577.11	46873.91
577.27	47302.23
577.43	47269.46
577.59	47026.04
577.75	47061.15
577.92	46490.06
578.08	47058.81
578.24	46827.10
578.40	47173.50
578.56	47407.55
578.72	47220.31
578.88	47192.22
579.04	47002.64
579.21	47283.50
579.37	46986.25
579.53	47508.19
579.69	47327.97
579.85	47122.01
580.01	47611.18
580.17	47227.33
580.33	47196.90
580.49	47337.33
580.65	47129.03
580.82	47222.65
580.98	47409.89
581.14	47007.32
581.30	47461.38
581.46	47477.77
581.62	46883.27
581.78	47182.86
581.94	47367.76
582.10	47114.98
582.26	47374.78
582.42	47395.85
582.58	47323.29
582.74	47468.40
582.90	47391.17
583.06	47583.09
583.22	46834.12
583.38	47529.26
583.54	47327.97
583.70	47372.44
583.86	47402.87
584.02	47400.53
584.18	47779.70
584.34	47220.31
584.50	47400.53
584.66	48027.79
584.82	47529.26
584.98	47796.08
585.14	47643.94
585.30	47147.75
585.46	47374.78
585.62	47185.20
585.78	47508.19
585.94	47086.90
586.10	47398.19
586.26	46927.74
586.42	47210.95
586.58	47807.78
586.74	47449.68
586.90	47002.64
587.06	47531.60
587.22	47510.53
587.38	47124.35
587.54	47789.06
587.70	47367.76
587.86	47840.55
588.02	47264.78
588.18	47503.51
588.34	47562.03
588.49	47365.42
588.65	47459.04
588.81	47629.90
588.97	47859.27
589.13	47372.44
589.29	47409.89
589.45	47901.40
589.61	47744.59
589.77	47620.54
589.93	47861.61
590.08	47803.10
590.24	47800.76
590.40	48016.09
590.56	47938.85
590.72	48126.10
590.88	47583.09
591.04	48039.50
591.20	48093.33
591.35	47856.93
591.51	48559.09
591.67	47892.04
591.83	48409.30
591.99	47910.77
592.15	48046.52
592.31	48079.28
592.46	47852.25
592.62	47931.83
592.78	47976.30
592.94	48144.82
593.10	47875.66
593.26	48428.02
593.41	48294.61
593.57	47952.90
593.73	47856.93
593.89	48191.63
594.05	48329.72
594.20	48032.47
594.36	48397.60
594.52	48509.94
594.68	48142.48
594.84	48048.86
594.99	48619.95
595.15	48268.87
595.31	48067.58
595.47	48090.99
595.62	48369.51
595.78	47943.53
595.94	47793.74
596.10	48016.09
596.25	48570.80
596.41	48215.04
596.57	47533.94
596.73	48575.48
596.88	48072.26
597.04	48105.03
597.20	48306.32
597.36	48264.19
597.51	48236.10
597.67	48114.39
597.83	48236.10
597.99	48390.58
598.14	48399.94
598.30	48215.04
598.46	48030.13
598.61	48633.99
598.77	47938.85
598.93	48151.84
599.09	48421.00
599.24	48748.68
599.40	48882.09
599.56	47990.34
599.71	48680.80
599.87	49029.54
600.03	48678.46
600.18	48610.59
600.34	48311.00
600.50	48554.41
600.65	48458.45
600.81	48659.74
600.97	48488.88
601.12	48350.79
601.28	48353.13
601.44	48252.48
601.59	48156.52
601.75	48208.01
601.91	48540.37
602.06	48477.18
602.22	48699.53
602.37	48348.45
602.53	48112.05
602.69	48594.20
602.84	48151.84
603.00	48226.74
603.16	48439.73
603.31	48212.70
603.47	48311.00
603.62	48186.95
603.78	48509.94
603.94	48231.42
604.09	48645.69
604.25	48697.19
604.40	48048.86
604.56	48114.39
604.71	48430.36
604.87	48512.28
605.03	48088.65
605.18	48554.41
605.34	48177.59
605.49	48299.30
605.65	48523.99
605.80	48357.81
605.96	48069.92
606.12	48327.38
606.27	48704.21
606.43	47896.72
606.58	48360.15
606.74	48163.54
606.89	48163.54
607.05	48369.51
607.20	48638.67
607.36	48079.28
607.51	48095.67
607.67	48200.99
607.82	48060.56
607.98	48048.86
608.13	48016.09
608.29	48404.62
608.44	48095.67
608.60	47758.63
608.75	48432.71
608.91	48250.14
609.06	48112.05
609.22	48395.26
609.37	47997.37
609.53	48182.27
609.68	47943.53
609.84	47910.77
609.99	48065.24
610.15	47819.49
610.30	48114.39
610.46	48311.00
610.61	48168.22
610.76	48161.20
610.92	48011.41
611.07	47852.25
611.23	47695.44
611.38	47985.66
611.54	48238.44
611.69	48072.26
611.84	48287.59
612.00	47997.37
612.15	48016.09
612.31	47941.19
612.46	47847.57
612.62	47775.02
612.77	47849.91
612.92	47922.47
613.08	47875.66
613.23	47852.25
613.39	47657.99
613.54	47559.69
613.69	47639.26
613.85	47751.61
614.00	47632.24
614.15	47784.38
614.31	47695.44
614.46	47552.66
614.62	47157.11
614.77	47585.43
614.92	47592.45
615.08	47402.87
615.23	47704.80
615.38	48098.01
615.54	47437.98
615.69	47859.27
615.84	47353.72
616.00	47704.80
616.15	47665.01
616.30	47945.87
616.46	47777.36
616.61	47473.09
616.76	47767.99
616.92	47138.39
617.07	47550.32
617.22	47489.47
617.37	46990.94
617.53	47346.70
617.68	47147.75
617.83	47320.95
617.99	47325.63
618.14	47583.09
618.29	47124.35
618.45	47030.72
618.60	47255.42
618.75	46852.84
618.90	47243.71
619.06	47112.64
619.21	47030.72
619.36	47538.62
619.51	46859.87
619.67	46522.83
619.82	47002.64
619.97	47290.52
620.12	47098.60
620.28	46787.31
620.43	47267.12
620.58	46883.27
620.73	46932.42
620.89	47192.22
621.04	46962.85
621.19	47166.48
621.34	46667.94
621.49	46588.36
621.65	47143.07
621.80	46749.86
621.95	46672.62
622.10	47189.88
622.25	46689.01
622.41	46508.79
622.56	46953.49
622.71	47000.30
622.86	46473.68
623.01	46501.76
623.16	46777.95
623.32	46602.41
623.47	46820.08
623.62	46689.01
623.77	46553.26
623.92	46476.02
624.07	46759.22
624.23	46705.39
624.38	46476.02
624.53	46323.88
624.68	46106.21
624.83	46419.84
624.98	46740.50
625.13	46012.59
625.29	46342.61
625.44	46110.89
625.59	46239.62
625.74	46150.68
625.89	46281.75
626.04	46330.90
626.19	46064.08
626.34	46253.67
626.49	45851.09
626.65	46080.47
626.80	45989.19
626.95	45504.70
627.10	45504.70
627.25	46398.78
627.40	45801.94
627.55	46092.17
627.70	45804.28
627.85	46085.15
628.00	46014.93
628.15	46167.07
628.30	45350.22
628.45	45289.37
628.60	45343.20
628.76	45640.45
628.91	45825.35
629.06	45350.22
629.21	45792.58
629.36	45883.86
629.51	45645.13
629.66	46169.41
629.81	45923.65
629.96	45839.39
630.11	45460.23
630.26	45263.62
630.41	45586.61
630.56	45329.16
630.71	45247.24
630.86	45378.31
631.01	45092.76
631.16	45291.71
631.31	45139.57
631.46	45272.98
631.61	45727.05
631.76	45668.53
631.91	45202.77
632.06	45612.36
632.21	45249.58
632.36	45626.40
632.51	44926.58
632.66	44980.42
632.81	45120.85
632.96	45268.30
633.10	45127.87
633.25	45748.11
633.40	45162.98
633.55	45237.87
633.70	45038.93
633.85	44809.56
634.00	44683.17
634.15	44718.28
634.30	44388.26
634.45	44858.71
634.60	45020.20
634.75	44748.70
634.90	45067.02
635.05	44903.18
635.19	45017.86
635.34	44758.06
635.49	44884.45
635.64	45017.86
635.79	45258.94
635.94	44896.16
636.09	44786.15
636.24	44533.37
636.39	44641.04
636.53	44816.58
636.68	44479.54
636.83	44292.30
636.98	44093.35
637.13	44182.29
637.28	44334.43
637.43	43901.43
637.57	44315.70
637.72	44018.46
637.87	44037.18
638.02	44329.75
638.17	44184.63
638.32	44128.46
638.46	43924.83
638.61	43634.61
638.76	43964.62
638.91	44341.45
639.06	44091.01
639.20	43793.76
639.35	43845.26
639.50	43445.02
639.65	43943.56
639.80	44428.05
639.94	44301.66
640.09	43842.92
640.24	44397.62
640.39	43484.81
640.54	43578.43
640.68	43730.57
640.83	44334.43
640.98	43133.73
641.13	43416.94
641.27	43892.07
641.42	43777.38
641.57	43414.60
641.72	43562.05
641.86	43292.89
642.01	42831.80
642.16	43550.35
642.31	43428.64
642.45	43988.03
642.60	43152.46
642.75	43435.66
642.90	43772.70
643.04	43555.03
643.19	43548.01
643.34	43255.44
643.48	43281.19
643.63	43103.31
643.78	43704.82
643.93	43299.91
644.07	42965.21
644.22	43480.13
644.37	42768.61
644.51	43250.76
644.66	43239.06
644.81	43236.72
644.95	42902.02
645.10	42887.98
645.25	43440.34
645.39	42707.76
645.54	42808.40
645.69	42873.93
645.83	42335.61
645.98	42408.17
646.13	42644.56
646.27	42883.30
646.42	42674.99
646.57	42698.39
646.71	42806.06
646.86	43461.41
647.00	43044.79
647.15	43093.94
647.30	42803.72
647.44	42651.58
647.59	42693.71
647.74	42677.33
647.88	43005.00
648.03	42916.06
648.17	43028.41
648.32	42691.37
648.47	43075.22
648.61	42281.78
648.76	42513.49
648.90	42120.28
649.05	42298.16
649.20	42321.57
649.34	42721.80
649.49	42370.72
649.63	42464.34
649.78	42536.90
649.92	42628.18
650.07	42958.19
650.21	42710.10
650.36	42686.69
650.51	42417.53
650.65	42670.31
650.80	42759.25
650.94	42288.80
651.09	42272.42
651.23	41869.84
651.38	41867.50
651.52	41682.60
651.67	42078.15
651.81	42440.93
651.96	42490.09
652.10	41846.44
652.25	41984.53
652.39	41668.56
652.54	41759.84
652.68	41696.64
652.83	41771.54
652.97	41851.12
653.12	42127.30
653.26	41504.72
653.41	41860.48
653.55	42164.75
653.70	41792.61
653.84	42047.72
653.99	41397.06
654.13	41928.36
654.27	41366.63
654.42	41986.87
654.56	41359.61
654.71	41394.71
654.85	41823.03
655.00	41329.18
655.14	41755.16
655.29	42029.00
655.43	41584.30
655.57	41258.96
655.72	40804.90
655.86	41064.70
656.01	41022.57
656.15	40996.82
656.30	40786.18
656.44	41319.82
656.58	41268.33
656.73	41127.89
656.87	41221.52
657.01	40844.69
657.16	40947.67
657.30	41111.51
657.45	41090.44
657.59	40687.87
657.73	40502.97
657.88	40561.48
658.02	41186.41
658.16	40744.05
658.31	41109.17
658.45	40947.67
658.60	40711.28
658.74	40781.49
658.88	40746.39
659.03	40769.79
659.17	40259.55
659.31	40112.10
659.46	40226.79
659.60	40811.92
659.74	40212.74
659.89	39929.54
660.03	40336.79
660.17	40313.39
660.32	40158.91
660.46	40067.63
660.60	40311.05
660.74	40182.32
660.89	40385.94
661.03	39789.11
661.17	39608.89
661.32	39489.52
661.46	40018.48
661.60	39875.71
661.74	39416.96
661.89	39108.01
662.03	39800.81
662.17	39990.39
662.31	39508.24
662.46	39697.83
662.60	39194.61
662.74	39028.43
662.88	39077.58
663.03	38923.11
663.17	38773.31
663.31	38864.60
663.45	39166.52
663.60	38953.54
663.74	39423.98
663.88	39203.97
664.02	38658.63
664.17	39358.45
664.31	38462.02
664.45	39103.33
664.59	38756.93
664.73	38396.49
664.88	39007.37
665.02	38260.74
665.16	38307.55
665.30	38185.84
665.44	38302.87
665.59	38078.18
665.73	37933.06
665.87	37511.77
666.01	38216.27
666.15	38417.55
666.29	37799.65
666.44	38337.98
666.58	38014.98
666.72	37769.22
666.86	37886.25
667.00	38061.79
667.14	37436.87
667.28	37490.70
667.43	37902.64
667.57	37865.19
667.71	37654.54
667.85	37600.71
667.99	37457.93
668.13	37148.98
668.27	36898.55
668.41	36893.86
668.56	36800.24
668.70	36854.08
668.84	36910.25
668.98	36748.75
669.12	37113.87
669.26	36704.28
669.40	36919.61
669.54	37156.00
669.68	36964.08
669.82	36479.59
669.96	36657.47
670.10	36011.48
670.25	36589.59
670.39	36041.91
670.53	36018.50
670.67	36282.98
670.81	36332.14
670.95	36278.30
671.09	36222.13
671.23	35562.10
671.37	36332.14
671.51	35536.35
671.65	35789.13
671.79	35981.06
671.93	36175.32
672.07	35833.60
672.21	35697.85
672.35	35028.46
672.49	35236.77
672.63	35164.21
672.77	35016.75
672.91	35470.82
673.05	35117.40
673.19	34785.04
673.33	34820.15
673.47	34972.28
673.61	34803.77
673.75	34560.35
673.89	34433.96
674.03	34417.58
674.17	34015.01
674.31	34029.05
674.45	33682.65
674.59	33897.98
674.73	34253.74
674.87	33867.55
675.01	33659.24
675.15	33326.89
675.29	33296.46
675.43	33837.12
675.56	33443.91
675.70	33008.58
675.84	33092.83
675.98	32622.39
676.12	33336.25
676.26	33448.60
676.40	32989.85
676.54	32804.95
676.68	32961.76
676.82	32589.62
676.96	32919.63
677.10	32809.63
677.23	32512.38
677.37	32573.24
677.51	32716.01
677.65	32437.48
677.79	32093.43
677.93	32079.38
678.07	31920.23
678.21	31651.06
678.34	31534.04
678.48	31232.11
678.62	31491.91
678.76	31307.01
678.90	30972.31
679.04	31112.74
679.18	31440.42
679.31	31063.59
679.45	30869.33
679.59	30841.24
679.73	30749.96
679.87	30724.21
680.00	30700.81
680.14	30490.16
680.28	30464.41
680.42	30403.56
680.56	30213.98
680.70	30211.64
680.83	30148.44
680.97	29748.21
681.11	30024.39
681.25	29427.56
681.39	29977.58
681.52	29628.84
681.66	29469.69
681.80	28851.78
681.94	28514.75
682.07	29032.00
682.21	29184.14
682.35	29071.79
682.49	28872.85
682.62	28783.91
682.76	28732.42
682.90	28463.25
683.04	28596.67
683.17	28638.80
683.31	28170.69
683.45	28402.40
683.59	28294.74
683.72	27608.96
683.86	27803.22
684.00	27225.11
684.13	27915.57
684.27	27232.13
684.41	27033.19
684.55	27601.94
684.68	27201.71
684.82	27204.05
684.96	27026.17
685.09	26953.61
685.23	26738.28
685.37	27454.48
685.50	27063.61
685.64	26464.44
685.78	26476.14
685.91	26389.54
686.05	26169.53
686.19	25635.89
686.32	26036.12
686.46	25530.56
686.60	25493.12
686.73	25699.08
686.87	25682.70
687.01	25720.15
687.14	25607.80
687.28	25200.55
687.42	25830.15
687.55	25514.18
687.69	25226.29
687.82	25303.53
687.96	25228.63
688.10	25106.93
688.23	24910.32
688.37	24837.76
688.50	25104.59
688.64	24786.27
688.78	24416.47
688.91	24425.83
689.05	24411.79
689.18	23854.74
689.32	23611.32
689.46	23852.40
689.59	23531.75
689.73	24177.73
689.86	23805.59
690.00	23796.23
690.13	23683.88
690.27	23260.24
690.41	23456.85
690.54	23332.80
690.68	23183.01
690.81	22843.63
690.95	22967.68
691.08	22946.61
691.22	22586.17
691.35	22611.92
691.49	22834.27
691.62	22604.89
691.76	22214.02
691.89	22008.06
692.03	21804.43
692.16	22139.13
692.30	21816.13
692.43	21961.25
692.57	21518.89
692.70	21579.74
692.84	21556.33
692.97	21518.89
693.11	21385.47
693.24	21301.22
693.38	20929.07
693.51	21273.13
693.65	21151.42
693.78	20727.78
693.92	20989.92
694.05	20805.02
694.19	20484.37
694.32	20421.17
694.45	20802.68
694.59	20685.65
694.72	20819.07
694.86	20308.83
694.99	20051.37
695.13	20044.35
695.26	19962.43
695.39	19241.54
695.53	19765.82
695.66	19859.45
695.80	19564.54
695.93	19616.03
696.07	19325.80
696.20	19234.52
696.33	19002.81
696.47	19051.96
696.60	19030.90
696.73	19180.69
696.87	19089.41
697.00	18717.26
697.14	18869.40
697.27	18506.62
697.40	18689.18
697.54	18703.22
697.67	18396.61
697.80	18469.17
697.94	18792.16
698.07	18185.96
698.21	17947.23
698.34	18192.98
698.47	18157.88
698.61	17436.99
698.74	17635.94
698.87	17762.33
699.01	17525.93
699.14	17696.79
699.27	17411.25
699.40	17406.56
699.54	17109.32
699.67	17308.26
699.80	17018.04
699.94	17071.87
700.07	16943.14
700.20	16950.16
700.34	16957.18
700.47	16868.24
700.60	17099.95
700.73	16519.50
700.87	16568.65
701.00	16255.02
701.13	16311.19
701.26	16240.98
701.40	16182.46
701.53	15866.49
701.66	16081.82
701.79	16156.72
701.93	15726.06
702.06	15686.27
702.19	15723.72
702.32	15641.80
702.46	15714.36
702.59	15726.06
702.72	15616.05
702.85	15637.12
702.99	15454.56
703.12	15286.04
703.25	14986.45
703.38	14860.06
703.51	15192.42
703.65	14860.06
703.78	14654.09
703.91	14684.52
704.04	14534.73
704.17	14684.52
704.31	14445.79
704.44	14389.61
704.57	14223.44
704.70	14396.64
704.83	14129.81
704.96	14326.42
705.10	14225.78
705.23	13949.59
>>>>>End Processed Spectral Data<<<<<
