SpectraSuite Data File
++++++++++++++++++++++++++++++++++++
Date: Fri Oct 25 10:47:02 EDT 2013
User: price-jones
Dark Spectrum Present: No
Reference Spectrum Present: No
Number of Sampled Component Spectra: 1
Spectrometers: USB2+H05261
Integration Time (usec): 100000 (USB2+H05261)
Spectra Averaged: 1 (USB2+H05261)
Boxcar Smoothing: 0 (USB2+H05261)
Correct for Electrical Dark: No (USB2+H05261)
Strobe/Lamp Enabled: No (USB2+H05261)
Correct for Detector Non-linearity: No (USB2+H05261)
Correct for Stray Light: No (USB2+H05261)
Number of Pixels in Processed Spectrum: 2048
>>>>>Begin Processed Spectral Data<<<<<
365.73	112.35
365.92	112.35
366.12	112.35
366.32	91.28
366.52	58.51
366.72	30.43
366.91	51.49
367.11	21.06
367.31	23.41
367.51	77.24
367.70	60.85
367.90	81.92
368.10	37.45
368.30	35.11
368.49	28.09
368.69	100.64
368.89	9.36
369.09	86.60
369.28	91.28
369.48	131.07
369.68	42.13
369.87	53.83
370.07	124.05
370.27	149.79
370.47	168.52
370.66	416.62
370.86	388.53
371.06	395.55
371.25	510.24
371.45	440.02
371.65	418.96
371.84	517.26
372.04	461.09
372.24	421.30
372.44	533.64
372.63	526.62
372.83	561.73
373.03	510.24
373.22	524.28
373.42	512.58
373.62	526.62
373.81	519.60
374.01	543.00
374.21	585.13
374.40	489.17
374.60	596.84
374.79	486.83
374.99	573.43
375.19	540.66
375.38	543.00
375.58	594.50
375.78	643.65
375.97	545.34
376.17	641.31
376.37	585.13
376.56	664.71
376.76	538.32
376.95	535.98
377.15	641.31
377.35	589.82
377.54	557.05
377.74	629.60
377.93	594.50
378.13	606.20
378.33	638.97
378.52	631.94
378.72	596.84
378.91	615.56
379.11	681.10
379.31	685.78
379.50	620.24
379.70	636.63
379.89	706.84
380.09	716.20
380.28	643.65
380.48	587.47
380.68	648.33
380.87	671.73
381.07	641.31
381.26	739.61
381.46	685.78
381.65	685.78
381.85	690.46
382.04	613.22
382.24	681.10
382.43	678.76
382.63	716.20
382.83	723.23
383.02	699.82
383.22	723.23
383.41	634.29
383.61	816.85
383.80	734.93
384.00	718.54
384.19	681.10
384.39	753.65
384.58	793.44
384.78	746.63
384.97	741.95
385.17	767.70
385.36	765.36
385.56	821.53
385.75	674.07
385.95	802.80
386.14	856.64
386.34	770.04
386.53	875.36
386.72	770.04
386.92	809.83
387.11	873.02
387.31	835.57
387.50	826.21
387.70	772.38
387.89	823.87
388.09	856.64
388.28	779.40
388.48	748.97
388.67	891.74
388.86	912.81
389.06	882.38
389.25	889.40
389.45	891.74
389.64	924.51
389.84	1041.54
390.03	868.34
390.22	943.24
390.42	940.90
390.61	1013.45
390.81	1022.81
391.00	898.77
391.19	1069.62
391.39	1015.79
391.58	983.02
391.78	1055.58
391.97	987.71
392.16	971.32
392.36	1036.86
392.55	1095.37
392.75	985.37
392.94	961.96
393.13	973.66
393.33	994.73
393.52	1001.75
393.71	1128.14
393.91	1050.90
394.10	1032.18
394.29	1107.07
394.49	1086.01
394.68	1067.28
394.88	1135.16
395.07	1240.48
395.26	1149.20
395.46	1156.22
395.65	1174.95
395.84	1174.95
396.04	1249.85
396.23	1090.69
396.42	1144.52
396.62	1167.93
396.81	1151.54
397.00	1235.80
397.19	1252.19
397.39	1259.21
397.58	1238.14
397.77	1275.59
397.97	1369.21
398.16	1401.98
398.35	1371.55
398.55	1334.11
398.74	1401.98
398.93	1359.85
399.12	1387.94
399.32	1324.74
399.51	1387.94
399.70	1341.13
399.90	1416.02
400.09	1474.54
400.28	1481.56
400.47	1493.26
400.67	1451.13
400.86	1570.50
401.05	1486.24
401.24	1542.41
401.44	1579.86
401.63	1605.61
401.82	1650.08
402.01	1493.26
402.21	1575.18
402.40	1577.52
402.59	1476.88
402.78	1640.72
402.97	1640.72
403.17	1652.42
403.36	1605.61
403.55	1577.52
403.74	1783.49
403.93	1703.91
404.13	1713.27
404.32	1720.29
404.51	1724.97
404.70	1900.52
404.89	1720.29
405.09	1750.72
405.28	1813.92
405.47	1724.97
405.66	1739.02
405.85	1806.89
406.05	1797.53
406.24	1902.86
406.43	1785.83
406.62	1970.73
406.81	2026.90
407.00	1952.01
407.20	1846.68
407.39	1865.41
407.58	1966.05
407.77	1919.24
407.96	2026.90
408.15	2052.65
408.34	2108.82
408.54	2019.88
408.73	2169.68
408.92	2092.44
409.11	2129.89
409.30	2134.57
409.49	2026.90
409.68	2047.97
409.87	2101.80
410.07	2139.25
410.26	2211.81
410.45	2251.60
410.64	2270.32
410.83	2289.04
411.02	2251.60
411.21	2389.69
411.40	2394.37
411.59	2361.60
411.78	2321.81
411.98	2459.90
412.17	2417.77
412.36	2478.63
412.55	2558.21
412.74	2476.29
412.93	2621.40
413.12	2551.18
413.31	2457.56
413.50	2656.51
413.69	2656.51
413.88	2752.47
414.07	2642.46
414.26	2820.35
414.45	2813.32
414.64	2799.28
414.83	2736.09
415.02	2778.22
415.22	2841.41
415.41	2913.97
415.60	3019.29
415.79	2843.75
415.98	2932.69
416.17	3035.67
416.36	3021.63
416.55	3080.14
416.74	2923.33
416.93	2944.39
417.12	3023.97
417.31	3070.78
417.50	3023.97
417.69	3164.40
417.88	3307.18
418.07	3148.02
418.26	3054.40
418.45	3222.92
418.64	3321.22
418.83	3297.81
419.02	3255.69
419.21	3262.71
419.39	3297.81
419.58	3492.08
419.77	3236.96
419.96	3314.20
420.15	3386.76
420.34	3377.39
420.53	3449.95
420.72	3541.23
420.91	3520.17
421.10	3400.80
421.29	3459.31
421.48	3403.14
421.67	3550.59
421.86	3424.20
422.05	3520.17
422.24	3419.52
422.43	3515.48
422.61	3583.36
422.80	3552.93
422.99	3616.13
423.18	3583.36
423.37	3726.13
423.56	3616.13
423.75	3592.72
423.94	3599.74
424.13	3382.07
424.32	3548.25
424.50	3838.48
424.69	3801.03
424.88	3765.92
425.07	3681.66
425.26	3723.79
425.45	3632.51
425.64	3658.26
425.83	3632.51
426.01	3653.58
426.20	3770.60
426.39	3723.79
426.58	3616.13
426.77	3733.15
426.96	3658.26
427.15	3712.09
427.33	3812.73
427.52	3838.48
427.71	3859.54
427.90	3822.09
428.09	3929.76
428.28	3705.07
428.46	3885.29
428.65	3873.59
428.84	3887.63
429.03	4030.40
429.22	3779.97
429.40	3953.16
429.59	3880.61
429.78	3648.90
429.97	3772.94
430.16	3686.34
430.34	3772.94
430.53	3960.19
430.72	3983.59
430.91	4025.72
431.10	4056.15
431.28	4091.26
431.47	4215.30
431.66	4416.59
431.85	4241.05
432.03	4311.27
432.22	4219.99
432.41	4315.95
432.60	4339.35
432.79	4297.22
432.97	4493.83
433.16	4463.40
433.35	4334.67
433.54	4386.16
433.72	4421.27
433.91	4454.04
434.10	4514.89
434.28	4498.51
434.47	4533.62
434.66	4695.11
434.85	4545.32
435.03	4608.51
435.22	4444.68
435.41	4587.45
435.59	4667.03
435.78	4589.79
435.97	4795.76
436.16	4692.77
436.34	4734.90
436.53	4821.50
436.72	4840.23
436.90	4751.29
437.09	4884.70
437.28	4739.58
437.46	4861.29
437.65	4819.16
437.84	4936.19
438.02	4802.78
438.21	4823.84
438.40	4772.35
438.58	4875.34
438.77	5123.43
438.96	4870.65
439.14	5198.33
439.33	5310.68
439.52	5308.34
439.70	5123.43
439.89	5247.48
440.08	5259.18
440.26	5336.42
440.45	5359.83
440.63	5425.36
440.82	5523.66
441.01	5371.53
441.19	5610.26
441.38	5671.12
441.57	5715.59
441.75	5785.80
441.94	5874.74
442.12	5858.36
442.31	5853.68
442.50	5788.14
442.68	5834.96
442.87	5753.04
443.05	5834.96
443.24	5968.37
443.43	5963.68
443.61	5959.00
443.80	6043.26
443.98	5811.55
444.17	5689.84
444.35	5860.70
444.54	6352.21
444.73	6031.56
444.91	5968.37
445.10	5973.05
445.28	6085.39
445.47	5907.51
445.65	6099.44
445.84	6010.50
446.02	6258.59
446.21	6085.39
446.39	6064.33
446.58	6139.23
446.77	6080.71
446.95	6083.05
447.14	6193.06
447.32	6188.38
447.51	6061.99
447.69	6237.53
447.88	6083.05
448.06	6207.10
448.25	6352.21
448.43	6314.77
448.62	6099.44
448.80	6394.34
448.99	6305.40
449.17	6347.53
449.36	6300.72
449.54	6597.97
449.73	6640.10
449.91	6539.46
450.10	6546.48
450.28	6637.76
450.46	6576.91
450.65	6766.49
450.83	6686.91
451.02	6677.55
451.20	6656.48
451.39	6494.99
451.57	6689.25
451.76	6520.73
451.94	6827.34
452.13	6848.41
452.31	6700.95
452.49	6857.77
452.68	6923.30
452.86	6895.22
453.05	6883.52
453.23	6979.48
453.42	6764.15
453.60	6799.26
453.78	7094.16
453.97	6860.11
454.15	6890.54
454.34	6935.01
454.52	6974.80
454.70	7122.25
454.89	6927.99
455.07	6895.22
455.26	7077.78
455.44	7332.90
455.62	7023.95
455.81	7262.68
455.99	7171.40
456.17	7482.69
456.36	7281.41
456.54	7379.71
456.73	7562.27
456.91	7520.14
457.09	7470.99
457.28	7644.19
457.46	7595.04
457.64	7583.34
457.83	7513.12
458.01	7473.33
458.19	7693.34
458.38	7667.60
458.56	7669.94
458.74	7623.12
458.93	7726.11
459.11	7749.51
459.29	7660.57
459.48	7812.71
459.66	7665.25
459.84	7896.97
460.03	7985.91
460.21	7838.45
460.39	8002.29
460.57	7908.67
460.76	7983.57
460.94	8093.57
461.12	8053.78
461.31	8049.10
461.49	7957.82
461.67	8205.92
461.85	8255.07
462.04	8121.66
462.22	8657.64
462.40	8374.44
462.59	8257.41
462.77	8280.82
462.95	8336.99
463.13	8212.94
463.32	8578.06
463.50	8486.78
463.68	8407.20
463.86	8369.76
464.05	8465.72
464.23	8444.65
464.41	8407.20
464.59	8315.92
464.78	8711.47
464.96	8437.63
465.14	8587.43
465.32	8535.93
465.50	8601.47
465.69	8549.98
465.87	8458.70
466.05	8472.74
466.23	8662.32
466.41	8812.12
466.60	8798.07
466.78	8514.87
466.96	8573.38
467.14	8557.00
467.32	8746.58
467.51	8800.41
467.69	8662.32
467.87	8786.37
468.05	8716.16
468.23	8823.82
468.41	8711.47
468.60	8847.22
468.78	8903.40
468.96	8777.01
469.14	9130.43
469.32	9254.48
469.50	8926.80
469.69	9046.17
469.87	9270.86
470.05	9156.18
470.23	9226.39
470.41	9144.47
470.59	9327.03
470.77	9266.18
470.95	9451.08
471.14	9427.68
471.32	9327.03
471.50	9572.79
471.68	9530.66
471.86	9738.97
472.04	9827.91
472.22	9753.01
472.40	9731.95
472.58	9645.35
472.77	9659.39
472.95	9692.16
473.13	10314.74
473.31	9792.80
473.49	9806.84
473.67	9994.09
473.85	10104.09
474.03	10420.06
474.21	10326.44
474.39	10272.61
474.57	10312.40
474.75	10260.91
474.93	10485.60
475.12	10347.51
475.30	10658.80
475.48	10487.94
475.66	10560.50
475.84	10864.77
476.02	10487.94
476.20	10707.95
476.38	11049.67
476.56	11112.86
476.74	11028.60
476.92	11000.52
477.10	11269.68
477.28	11555.22
477.46	11421.81
477.64	11332.87
477.82	11655.87
478.00	11585.65
478.18	11850.13
478.36	11836.09
478.54	11957.80
478.72	12241.00
478.90	12283.13
479.08	12030.35
479.26	12266.75
479.44	12383.77
479.62	12517.18
479.80	12526.55
479.98	12699.75
480.16	12985.29
480.34	12746.56
480.52	12894.01
480.70	12819.11
480.88	12695.07
481.06	12695.07
481.24	13032.10
481.41	13275.52
481.59	13474.46
481.77	13366.80
481.95	13469.78
482.13	13738.94
482.31	13760.01
482.49	13748.31
482.67	13865.33
482.85	14171.94
483.03	14064.28
483.21	14312.38
483.39	14457.49
483.57	14333.44
483.74	14553.45
483.92	14633.03
484.10	14633.03
484.28	14892.83
484.46	15030.92
484.64	15484.98
484.82	15042.62
485.00	15513.07
485.18	15618.39
485.35	15627.76
485.53	15562.22
485.71	15534.14
485.89	15686.27
486.07	15597.33
486.25	15796.28
486.43	16018.63
486.61	15985.86
486.78	16379.07
486.96	16580.36
487.14	16681.00
487.32	16568.65
487.50	16898.67
487.68	17146.76
487.85	17467.42
488.03	17748.28
488.21	17434.65
488.39	17479.12
488.57	17827.86
488.75	17778.71
488.92	18260.86
489.10	18232.77
489.28	18352.14
489.46	18607.26
489.64	18794.50
489.81	18831.95
489.99	18930.25
490.17	19360.91
490.35	19278.99
490.53	19187.71
490.70	19201.76
490.88	19405.38
491.06	19527.09
491.24	19658.16
491.41	19370.27
491.59	19988.18
491.77	19381.98
491.95	19971.79
492.13	20163.72
492.30	20776.94
492.48	20528.84
492.66	20404.79
492.84	20292.44
493.01	21010.99
493.19	21160.78
493.37	20961.84
493.54	21401.86
493.72	21493.14
493.90	21221.64
494.08	21593.78
494.25	21994.01
494.43	22045.51
494.61	22085.30
494.79	22199.98
494.96	22211.68
495.14	22139.13
495.32	22434.03
495.49	22511.27
495.67	22728.94
495.85	22944.27
496.02	22925.55
496.20	22838.95
496.38	23157.26
496.55	23115.13
496.73	23814.95
496.91	23360.89
497.09	23686.22
497.26	23910.91
497.44	23927.30
497.62	24032.62
497.79	24306.46
497.97	23761.12
498.14	24084.11
498.32	24037.30
498.50	24166.03
498.67	24620.10
498.85	24606.05
499.03	25029.69
499.20	24961.81
499.38	24863.51
499.56	25053.09
499.73	24987.56
499.91	25179.48
500.08	25268.42
500.26	25589.08
500.44	25116.29
500.61	25507.16
500.79	25479.07
500.97	25418.22
501.14	25907.39
501.32	26225.70
501.49	25996.33
501.67	26373.16
501.84	26075.91
502.02	26284.22
502.20	26483.16
502.37	26450.39
502.55	26338.05
502.72	26590.83
502.90	26260.81
503.07	26822.54
503.25	26541.68
503.43	26462.10
503.60	26953.61
503.78	26913.82
503.95	27164.26
504.13	27199.37
504.30	27243.84
504.48	27173.62
504.65	27454.48
504.83	27440.44
505.01	27955.36
505.18	27580.87
505.36	28074.73
505.53	28041.96
505.71	28622.41
505.88	28217.50
506.06	28095.79
506.23	28545.17
506.41	27950.68
506.58	28325.16
506.76	28367.29
506.93	28524.11
507.11	28732.42
507.28	28830.72
507.46	28561.56
507.63	28844.76
507.81	28662.20
507.98	28589.64
508.16	29074.13
508.33	29099.88
508.50	29406.49
508.68	29181.80
508.85	29832.47
509.03	29610.12
509.20	29818.42
509.38	29532.88
509.55	29902.68
509.73	30050.14
509.90	29895.66
510.08	30043.12
510.25	30024.39
510.42	30045.46
510.60	30319.30
510.77	30221.00
510.95	30518.25
511.12	30555.69
511.30	30682.08
511.47	31115.08
511.64	30859.96
511.82	30895.07
511.99	30663.36
512.17	31140.83
512.34	31016.78
512.51	31412.33
512.69	31000.40
512.86	31487.23
513.04	31386.58
513.21	31622.98
513.38	31452.12
513.56	31578.51
513.73	31339.77
513.90	31627.66
514.08	31622.98
514.25	31702.56
514.43	32100.45
514.60	31992.78
514.77	31737.66
514.95	32271.31
515.12	31871.07
515.29	32187.05
515.47	32561.53
515.64	32631.75
515.81	32437.48
515.99	32645.79
516.16	32781.54
516.33	32208.11
516.51	33036.66
516.68	32367.27
516.85	32133.21
517.03	32610.68
517.20	32760.48
517.37	32673.88
517.54	33518.81
517.72	33099.86
517.89	33048.36
518.06	32973.47
518.24	32952.40
518.41	33298.80
518.58	33240.29
518.75	33249.65
518.93	33474.34
519.10	33479.02
519.27	33619.46
519.45	33626.48
519.62	33897.98
519.79	33958.83
519.96	34178.84
520.14	34209.27
520.31	33811.38
520.48	34026.71
520.65	34323.96
520.83	34380.13
521.00	34881.00
521.17	34773.34
521.34	34501.84
521.52	34703.12
521.69	34682.06
521.86	34983.99
522.03	34644.61
522.20	34883.34
522.38	35037.82
522.55	35119.74
522.72	35005.05
522.89	35084.63
523.07	35283.58
523.24	34799.08
523.41	35257.83
523.58	35297.62
523.75	35739.98
523.92	35859.35
524.10	36308.73
524.27	35524.65
524.44	35969.35
524.61	35828.92
524.78	36133.19
524.96	36332.14
525.13	36556.83
525.30	36187.02
525.47	36360.22
525.64	36034.89
525.81	36194.04
525.98	36400.01
526.16	36360.22
526.33	35892.12
526.50	36446.82
526.67	36135.53
526.84	36474.91
527.01	36268.94
527.18	36591.94
527.36	36430.44
527.53	36870.46
527.70	37170.05
527.87	37046.00
528.04	36545.12
528.21	37017.91
528.38	36982.80
528.55	37368.99
528.72	37474.32
528.89	37652.20
529.07	37567.94
529.24	37404.10
529.41	37820.72
529.58	37254.31
529.75	37263.67
529.92	37415.80
530.09	37427.51
530.26	37813.70
530.43	37717.73
530.60	37738.80
530.77	37464.96
530.94	37724.75
531.11	38373.08
531.28	38134.35
531.46	37926.04
531.63	38548.62
531.80	37984.55
531.97	37928.38
532.14	38412.87
532.31	38124.99
532.48	38258.40
532.65	38251.38
532.82	38136.69
532.99	38618.84
533.16	38307.55
533.33	38607.14
533.50	38501.81
533.67	38637.56
533.84	38368.40
534.01	38925.45
534.18	38550.96
534.35	39222.70
534.52	38632.88
534.69	39056.52
534.86	38988.64
535.03	38976.94
535.20	39030.77
535.37	39475.48
535.54	39470.79
535.71	39152.48
535.88	39225.04
536.05	39587.82
536.22	39395.90
536.38	39543.35
536.55	39508.24
536.72	39772.72
536.89	39079.92
537.06	39288.23
537.23	39995.07
537.40	39819.53
537.57	39765.70
537.74	39555.05
537.91	40156.57
538.08	40315.73
538.25	39381.85
538.42	40095.72
538.59	40154.23
538.75	39702.51
538.92	40013.80
539.09	40481.91
539.26	39758.68
539.43	39990.39
539.60	40107.42
539.77	40135.51
539.94	40247.85
540.11	39674.42
540.28	39878.05
540.44	40226.79
540.61	40493.61
540.78	40306.37
540.95	40835.33
541.12	40395.31
541.29	40659.79
541.46	40364.88
541.62	40657.45
541.79	41102.15
541.96	40620.00
542.13	40676.17
542.30	40491.27
542.47	40666.81
542.63	40861.07
542.80	40767.45
542.97	40938.31
543.14	41357.27
543.31	41383.01
543.48	41518.76
543.64	42319.23
543.81	41242.58
543.98	41820.69
544.15	41577.28
544.32	41680.26
544.48	41832.39
544.65	41645.15
544.82	41926.02
544.99	41769.20
545.16	41752.82
545.32	41490.68
545.49	41801.97
545.66	42188.16
545.83	41617.07
546.00	41991.55
546.16	42190.50
546.33	42326.25
546.50	41319.82
546.67	41965.81
546.83	42124.96
547.00	42024.32
547.17	42155.39
547.34	41890.91
547.50	42066.45
547.67	42286.46
547.84	42405.83
548.00	42424.55
548.17	42691.37
548.34	41977.51
548.51	42728.82
548.67	42513.49
548.84	42387.10
549.01	42274.76
549.18	42167.09
549.34	42410.51
549.51	42726.48
549.68	42827.12
549.84	42679.67
550.01	42742.86
550.18	42398.80
550.34	43035.43
550.51	42616.47
550.68	42932.45
550.84	42337.95
551.01	42906.70
551.18	42398.80
551.34	43089.26
551.51	43395.87
551.68	43213.31
551.84	43206.29
552.01	42632.86
552.18	42686.69
552.34	43339.70
552.51	43152.46
552.68	43281.19
552.84	43503.54
553.01	43220.33
553.18	43360.76
553.34	43316.29
553.51	43098.62
553.67	42995.64
553.84	43412.26
554.01	43555.03
554.17	43805.47
554.34	43545.67
554.51	43646.31
554.67	43824.19
554.84	43697.80
555.00	43225.01
555.17	43756.32
555.33	43674.40
555.50	43428.64
555.67	43529.28
555.83	43648.65
556.00	43943.56
556.16	44112.08
556.33	43634.61
556.50	43489.49
556.66	43896.75
556.83	43791.42
556.99	44343.79
557.16	44081.65
557.32	44177.61
557.49	44081.65
557.65	44051.22
557.82	43683.76
557.98	44044.20
558.15	43908.45
558.32	44184.63
558.48	43934.20
558.65	43950.58
558.81	43817.17
558.98	44177.61
559.14	44083.99
559.31	43665.03
559.47	43969.30
559.64	44273.57
559.80	44547.42
559.97	44198.68
560.13	44325.07
560.30	44196.34
560.46	44425.71
560.63	44463.16
560.79	44582.52
560.96	44790.83
561.12	44292.30
561.29	44444.43
561.45	44128.46
561.61	44287.62
561.78	44009.09
561.94	44264.21
562.11	44023.14
562.27	44348.47
562.44	44449.11
562.60	44790.83
562.77	44650.40
562.93	44353.15
563.10	44559.12
563.26	44327.41
563.42	44715.93
563.59	44435.07
563.75	44516.99
563.92	45062.33
564.08	44856.37
564.24	45139.57
564.41	45188.72
564.57	44638.70
564.74	44722.96
564.90	45076.38
565.07	44631.68
565.23	44493.58
565.39	44392.94
565.56	44781.47
565.72	44786.15
565.88	44512.31
566.05	44610.61
566.21	44877.43
566.38	44355.49
566.54	44643.38
566.70	45237.87
566.87	45158.30
567.03	44622.31
567.19	45219.15
567.36	44875.09
567.52	44945.31
567.68	44797.85
567.85	44753.38
568.01	44737.00
568.17	44744.02
568.34	45144.25
568.50	44996.80
568.66	44580.18
568.83	45265.96
568.99	44502.95
569.15	44732.32
569.32	44919.56
569.48	44718.28
569.64	45450.86
569.81	44978.07
569.97	44783.81
570.13	45036.59
570.30	44737.00
570.46	44311.02
570.62	44999.14
570.78	45127.87
570.95	44257.19
571.11	44964.03
571.27	44854.03
571.43	45179.36
571.60	44629.34
571.76	44968.71
571.92	45158.30
572.09	44814.24
572.25	44624.65
572.41	44900.84
572.57	44957.01
572.74	45815.99
572.90	45198.09
573.06	45242.56
573.22	45113.83
573.38	44978.07
573.55	45099.78
573.71	45329.16
573.87	45148.93
574.03	45280.00
574.20	45352.56
574.36	44959.35
574.52	45357.24
574.68	45450.86
574.84	45277.66
575.01	44744.02
575.17	44959.35
575.33	45221.49
575.49	44900.84
575.65	45591.30
575.82	45586.61
575.98	45425.12
576.14	45755.13
576.30	45567.89
576.46	45118.51
576.62	44896.16
576.79	44968.71
576.95	44781.47
577.11	44931.26
577.27	45560.87
577.43	45755.13
577.59	45303.41
577.75	45544.48
577.92	45036.59
578.08	45062.33
578.24	45057.65
578.40	45099.78
578.56	45488.31
578.72	45088.08
578.88	45567.89
579.04	45638.11
579.21	45230.85
579.37	45368.94
579.53	45595.98
579.69	44804.88
579.85	45628.74
580.01	45680.24
580.17	45249.58
580.33	45490.65
580.49	45551.51
580.65	45502.35
580.82	45125.53
580.98	45558.53
581.14	45067.02
581.30	45443.84
581.46	45003.82
581.62	45366.60
581.78	45415.76
581.94	45640.45
582.10	45572.57
582.26	45661.51
582.42	45769.18
582.58	44945.31
582.74	45509.38
582.90	45326.81
583.06	45443.84
583.22	45382.99
583.38	45855.78
583.54	45289.37
583.70	45326.81
583.86	45207.45
584.02	45289.37
584.18	45404.05
584.34	45478.95
584.50	45455.54
584.66	45090.42
584.82	45373.63
584.98	45610.02
585.14	45530.44
585.30	45336.18
585.46	45546.82
585.62	45223.83
585.78	44893.82
585.94	45240.21
586.10	45598.32
586.26	45310.43
586.42	45027.23
586.58	45813.65
586.74	45359.58
586.90	45237.87
587.06	45436.82
587.22	45963.44
587.38	45116.17
587.54	45633.42
587.70	45319.79
587.86	45631.08
588.02	45736.41
588.18	45673.21
588.34	45191.06
588.49	45148.93
588.65	45223.83
588.81	45352.56
588.97	45680.24
589.13	44961.69
589.29	45191.06
589.45	45546.82
589.61	45223.83
589.77	45722.37
589.93	45680.24
590.08	45628.74
590.24	45640.45
590.40	45570.23
590.56	45654.49
590.72	45680.24
590.88	45553.85
591.04	45689.60
591.20	46075.79
591.35	45886.20
591.51	45823.01
591.67	45397.03
591.83	45574.91
591.99	45343.20
592.15	45528.10
592.31	45729.39
592.46	45738.75
592.62	45727.05
592.78	45635.77
592.94	45713.00
593.10	45893.22
593.26	45640.45
593.41	45579.59
593.57	45813.65
593.73	45392.35
593.89	45525.76
594.05	45607.68
594.20	45289.37
594.36	46096.85
594.52	45785.56
594.68	45729.39
594.84	45752.79
594.99	45834.71
595.15	45846.41
595.31	46080.47
595.47	45958.76
595.62	45776.20
595.78	45577.25
595.94	45900.25
596.10	45832.37
596.25	45940.04
596.41	46174.09
596.57	45923.65
596.73	46007.91
596.88	45645.13
597.04	45743.43
597.20	45907.27
597.36	45944.72
597.51	46192.81
597.67	45715.34
597.83	45799.60
597.99	46497.08
598.14	45743.43
598.30	46031.32
598.46	45593.64
598.61	45869.82
598.77	45949.40
598.93	45930.67
599.09	45902.59
599.24	45715.34
599.40	45921.31
599.56	45741.09
599.71	45916.63
599.87	46213.88
600.03	45689.60
600.18	45874.50
600.34	45661.51
600.50	46036.00
600.65	45886.20
600.81	45984.51
600.97	45888.54
601.12	45797.26
601.28	45820.67
601.44	45743.43
601.59	46024.29
601.75	45588.95
601.91	45876.84
602.06	45940.04
602.22	45794.92
602.37	45106.80
602.53	45874.50
602.69	45909.61
602.84	45624.06
603.00	45689.60
603.16	45560.87
603.31	45219.15
603.47	45897.91
603.62	45462.57
603.78	45823.01
603.94	46256.01
604.09	45595.98
604.25	45874.50
604.40	45605.34
604.56	45375.97
604.71	45668.53
604.87	45677.90
605.03	45989.19
605.18	45390.01
605.34	45404.05
605.49	45415.76
605.65	45815.99
605.80	45418.10
605.96	45837.05
606.12	45773.86
606.27	46082.81
606.43	45420.44
606.58	45783.22
606.74	45551.51
606.89	45558.53
607.05	45717.68
607.20	45443.84
607.36	45614.70
607.51	45649.81
607.67	45631.08
607.82	45670.87
607.98	45457.88
608.13	45698.96
608.29	45315.11
608.44	45097.44
608.60	45015.52
608.75	44886.79
608.91	45268.30
609.06	45588.95
609.22	45792.58
609.37	44905.52
609.53	45137.23
609.68	45425.12
609.84	45572.57
609.99	45446.18
610.15	45448.52
610.30	45137.23
610.46	44746.36
610.61	45162.98
610.76	45748.11
610.92	45052.97
611.07	44884.45
611.23	45099.78
611.38	45488.31
611.54	44924.24
611.69	45083.40
611.84	44687.85
612.00	45247.24
612.15	44645.72
612.31	45059.99
612.46	44961.69
612.62	45303.41
612.77	45188.72
612.92	45193.40
613.08	44964.03
613.23	44987.44
613.39	44610.61
613.54	44587.21
613.69	45177.02
613.85	44996.80
614.00	44561.46
614.15	45319.79
614.31	45099.78
614.46	45212.13
614.62	44931.26
614.77	44858.71
614.92	44900.84
615.08	44835.30
615.23	44706.57
615.38	44854.03
615.54	44158.89
615.69	44720.62
615.84	44430.39
616.00	44835.30
616.15	44617.63
616.30	44669.12
616.46	44605.93
616.61	44636.36
616.76	44119.10
616.92	44243.15
617.07	44451.45
617.22	44402.30
617.37	43880.36
617.53	44381.24
617.68	44371.88
617.83	44744.02
617.99	44385.92
618.14	44392.94
618.29	44259.53
618.45	44098.03
618.60	44067.61
618.75	43948.24
618.90	43707.16
619.06	44177.61
619.21	44156.55
619.36	44421.03
619.51	43875.68
619.67	44046.54
619.82	43854.62
619.97	44374.22
620.12	43702.48
620.28	43555.03
620.43	43910.79
620.58	44006.75
620.73	43737.59
620.89	44128.46
621.04	44395.28
621.19	43889.73
621.34	43765.68
621.49	43807.81
621.65	43653.33
621.80	43859.30
621.95	43433.32
622.10	43866.32
622.25	43264.80
622.41	43461.41
622.56	43150.12
622.71	43697.80
622.86	43746.95
623.01	43559.71
623.16	43681.42
623.32	43728.23
623.47	43622.90
623.62	43232.04
623.77	43093.94
623.92	43381.83
624.07	43171.18
624.23	42911.38
624.38	42981.60
624.53	42979.26
624.68	43196.93
624.83	43257.78
624.98	42958.19
625.13	43115.01
625.29	42904.36
625.44	43016.71
625.59	43044.79
625.74	43000.32
625.89	42382.42
626.04	42146.03
626.19	42499.45
626.34	42869.25
626.49	42883.30
626.65	42630.52
626.80	42770.95
626.95	42974.58
627.10	42740.52
627.25	42464.34
627.40	42462.00
627.55	42094.53
627.70	42426.89
627.85	42082.83
628.00	42485.40
628.15	42731.16
628.30	42838.83
628.45	42520.51
628.60	42773.29
628.76	42794.36
628.91	42616.47
629.06	42534.56
629.21	42405.83
629.36	42155.39
629.51	42178.79
629.66	41837.08
629.81	42094.53
629.96	42344.97
630.11	42387.10
630.26	42204.54
630.41	42178.79
630.56	42153.05
630.71	42143.69
630.86	42213.90
631.01	41993.89
631.16	42258.37
631.31	42073.47
631.46	41539.83
631.61	42047.72
631.76	42050.06
631.91	42164.75
632.06	42047.72
632.21	41970.49
632.36	42171.77
632.51	41408.76
632.66	41904.95
632.81	41666.22
632.96	41511.74
633.10	41563.23
633.25	41043.63
633.40	41820.69
633.55	41968.15
633.70	41588.98
633.85	41593.66
634.00	41214.49
634.15	41158.32
634.30	41394.71
634.45	41282.37
634.60	41563.23
634.75	41600.68
634.90	41153.64
635.05	41280.03
635.19	41085.76
635.34	41457.91
635.49	41530.47
635.64	41361.95
635.79	41055.34
635.94	41085.76
636.09	41067.04
636.24	40760.43
636.39	40847.03
636.53	41055.34
636.68	40502.97
636.83	40877.46
636.98	40800.22
637.13	40659.79
637.28	41441.53
637.43	41038.95
637.57	41069.38
637.72	41368.97
637.87	41130.23
638.02	40847.03
638.17	40814.26
638.32	40306.37
638.46	40589.57
638.61	40605.95
638.76	40657.45
638.91	40772.13
639.06	40517.01
639.20	40589.57
639.35	41090.44
639.50	40580.21
639.65	40498.29
639.80	40718.30
639.94	40287.64
640.09	40259.55
640.24	40280.62
640.39	40088.70
640.54	40397.65
640.68	40390.62
640.83	40130.83
640.98	40596.59
641.13	39976.35
641.27	40502.97
641.42	40154.23
641.57	40275.94
641.72	40261.90
641.86	40247.85
642.01	40062.95
642.16	39648.68
642.31	39278.87
642.45	39943.58
642.60	39592.50
642.75	39454.41
642.90	40266.58
643.04	39838.26
643.19	40046.57
643.34	40032.52
643.48	40046.57
643.63	39620.59
643.78	39892.09
643.93	39210.99
644.07	39517.60
644.22	39646.33
644.37	39365.47
644.51	39758.68
644.66	39339.72
644.81	39700.17
644.95	39882.73
645.10	39622.93
645.25	39838.26
645.39	39653.36
645.54	39447.39
645.69	39309.30
645.83	38923.11
645.98	38969.92
646.13	39552.71
646.27	39503.56
646.42	39304.62
646.57	39365.47
646.71	39110.35
646.86	39267.17
647.00	39482.50
647.15	39318.66
647.30	39557.39
647.44	39145.46
647.59	39346.75
647.74	39023.75
647.88	38745.23
648.03	39115.03
648.17	38944.17
648.32	38885.66
648.47	38539.26
648.61	38480.75
648.76	39248.44
648.90	38740.55
649.05	38593.09
649.20	38597.77
649.34	38993.32
649.49	38621.18
649.63	39049.50
649.78	38986.30
649.92	38609.48
650.07	39147.80
650.21	38478.41
650.36	38593.09
650.51	38728.84
650.65	39423.98
650.80	38902.04
650.94	38843.53
651.09	38700.76
651.23	38408.19
651.38	38611.82
651.52	38431.60
651.67	38342.66
651.81	38246.69
651.96	38506.49
652.10	38155.41
652.25	38609.48
652.39	38459.68
652.54	38440.96
652.68	38415.21
652.83	38665.65
652.97	38288.82
653.12	38064.13
653.26	38232.65
653.41	38815.44
653.55	38169.46
653.70	37947.11
653.84	38363.72
653.99	38169.46
654.13	38038.39
654.27	38284.14
654.42	38431.60
654.56	38174.14
654.71	38382.45
654.85	37668.58
655.00	37600.71
655.14	38078.18
655.29	37446.23
655.43	37867.53
655.57	37586.66
655.72	37574.96
655.86	37479.00
656.01	37336.23
656.15	37092.81
656.30	37497.72
656.44	37212.18
656.58	37062.38
656.73	36875.14
656.87	37191.11
657.01	37106.85
657.16	37418.14
657.30	37296.44
657.45	37038.98
657.59	37256.65
657.73	37057.70
657.88	37275.37
658.02	36690.24
658.16	37310.48
658.31	37542.19
658.45	37287.07
658.60	37322.18
658.74	37413.46
658.88	36863.44
659.03	37146.64
659.17	36793.22
659.31	37057.70
659.46	37071.75
659.60	36914.93
659.74	36814.29
659.89	36535.76
660.03	36762.79
660.17	36781.52
660.32	36907.91
660.46	36591.94
660.60	36304.05
660.74	36804.92
660.89	36699.60
661.03	36350.86
661.17	36051.27
661.32	35899.14
661.46	35835.94
661.60	36072.34
661.74	36123.83
661.89	36126.17
662.03	36397.67
662.17	36105.10
662.31	35971.69
662.46	36208.09
662.60	36037.23
662.74	35988.08
662.88	35791.47
663.03	35505.93
663.17	35409.96
663.31	35405.28
663.45	36020.84
663.60	35503.59
663.74	35597.21
663.88	35379.54
664.02	35271.87
664.17	35189.95
664.31	34998.03
664.45	35122.08
664.59	35225.06
664.73	35211.02
664.88	35452.09
665.02	34810.79
665.16	35435.71
665.30	34836.53
665.44	34998.03
665.59	34190.55
665.73	34412.90
665.87	34668.02
666.01	34930.16
666.15	34543.97
666.29	34284.17
666.44	34635.25
666.58	34728.87
666.72	34649.29
666.86	34398.85
667.00	34630.57
667.14	34174.16
667.28	34370.77
667.43	34047.77
667.57	34457.37
667.71	34136.71
667.85	33942.45
667.99	34204.59
668.13	34157.78
668.27	33362.00
668.41	33799.68
668.56	33762.23
668.70	33905.00
668.84	33741.16
668.98	33837.12
669.12	33865.21
669.26	33656.90
669.40	33844.15
669.54	32985.17
669.68	33493.07
669.82	33624.14
669.96	33085.81
670.10	32912.61
670.25	33418.17
670.39	33404.13
670.53	33013.26
670.67	33137.30
670.81	33024.96
670.95	32898.57
671.09	32833.04
671.23	33153.69
671.37	32790.91
671.51	32723.03
671.65	32250.24
671.79	32301.73
671.93	32652.81
672.07	32795.59
672.21	32423.44
672.35	32072.36
672.49	32472.59
672.63	32364.93
672.77	31934.27
672.91	31889.80
673.05	31950.65
673.19	31707.24
673.33	31543.40
673.47	31894.48
673.61	31751.71
673.75	31639.36
673.89	31136.15
674.03	31370.20
674.17	31342.11
674.31	31690.85
674.45	31381.90
674.59	31267.22
674.73	31613.62
674.87	31089.34
675.01	31391.26
675.15	31358.50
675.29	31112.74
675.43	31356.16
675.56	30796.77
675.70	30574.42
675.84	30483.14
675.98	29453.30
676.12	30174.19
676.26	30099.29
676.40	30567.40
676.54	30127.38
676.68	30218.66
676.82	29727.14
676.96	30054.82
677.10	29788.00
677.23	29965.88
677.37	29783.32
677.51	29706.08
677.65	29546.92
677.79	29441.60
677.93	29553.94
678.07	29111.58
678.21	29146.69
678.34	29057.75
678.48	28613.05
678.62	28587.30
678.76	28865.83
678.90	28496.02
679.04	28460.91
679.18	28535.81
679.31	28130.90
679.45	28088.77
679.59	28149.62
679.73	27899.19
679.87	28135.58
680.00	27824.29
680.14	27782.16
680.28	27686.20
680.42	27676.83
680.56	27548.11
680.70	27702.58
680.83	27428.74
680.97	27452.14
681.11	27281.28
681.25	26925.52
681.39	27077.66
681.52	27012.12
681.66	27065.96
681.80	27133.83
681.94	26787.43
682.07	26876.37
682.21	26675.09
682.35	26429.33
682.49	26637.64
682.62	26443.37
682.76	26366.13
682.90	26438.69
683.04	26455.08
683.17	26029.10
683.31	25785.68
683.45	25916.75
683.59	25926.11
683.72	25745.89
683.86	25563.33
684.00	25654.61
684.13	25755.26
684.27	25635.89
684.41	25500.14
684.55	25476.73
684.68	25010.96
684.82	24992.24
684.96	25139.69
685.09	24877.55
685.23	24858.83
685.37	24776.91
685.50	24718.40
685.64	24496.05
685.78	24437.53
685.91	24610.73
686.05	24292.42
686.19	24119.22
686.32	24147.31
686.46	23616.01
686.60	23466.21
686.73	23747.08
686.87	23803.25
687.01	23590.26
687.14	23215.77
687.28	23283.65
687.42	23068.32
687.55	23393.65
687.69	23400.68
687.82	22934.91
687.96	23248.54
688.10	23304.71
688.23	22920.87
688.37	22679.79
688.50	22466.80
688.64	22703.20
688.78	22452.76
688.91	22281.90
689.05	22366.16
689.18	22317.01
689.32	21589.10
689.46	22279.56
689.59	21994.01
689.73	22317.01
689.86	21963.59
690.00	21926.14
690.13	22106.36
690.27	21759.96
690.41	21771.66
690.54	21553.99
690.68	21371.43
690.81	21205.25
690.95	21074.18
691.08	20933.75
691.22	21128.02
691.35	21207.59
691.49	21212.28
691.62	21392.50
691.76	21076.52
691.89	20844.81
692.03	20610.76
692.16	20329.89
692.30	20137.97
692.43	20353.30
692.57	19983.49
692.70	20252.66
692.84	20196.48
692.97	20114.56
693.11	19857.10
693.24	19939.02
693.38	19824.34
693.51	19836.04
693.65	19868.81
693.78	19632.41
693.92	19857.10
694.05	19545.81
694.19	19274.31
694.32	19297.72
694.45	19204.10
694.59	18958.34
694.72	18892.80
694.86	19386.66
694.99	18838.97
695.13	18853.02
695.26	18916.21
695.39	18260.86
695.53	18333.42
695.66	18562.79
695.80	18541.72
695.93	18466.83
696.07	18104.04
696.20	18167.24
696.33	18317.03
696.47	18141.49
696.60	17862.97
696.73	18246.82
696.87	18071.28
697.00	17825.52
697.14	17605.51
697.27	17621.89
697.40	17727.22
697.54	17891.06
697.67	17418.27
697.80	17404.22
697.94	17444.01
698.07	17238.05
698.21	17317.62
698.34	17420.61
698.47	17085.91
698.61	16713.77
698.74	16744.19
698.87	16776.96
699.01	16709.08
699.14	16592.06
699.27	16521.84
699.40	16575.67
699.54	16032.67
699.67	16297.15
699.80	16194.17
699.94	16119.27
700.07	15969.48
700.20	16278.43
700.34	16027.99
700.47	16229.27
700.60	15953.09
700.73	15833.72
700.87	15995.22
701.00	15672.23
701.13	15335.19
701.26	15674.57
701.40	15349.23
701.53	15178.37
701.66	15232.21
701.79	15159.65
701.93	15077.73
702.06	15208.80
702.19	15192.42
702.32	15049.64
702.46	14941.98
702.59	14761.76
702.72	14661.12
702.85	14747.72
702.99	14637.71
703.12	14799.21
703.25	14607.28
703.38	14707.93
703.51	14356.85
703.65	14424.72
703.78	14469.19
703.91	14218.75
704.04	13832.57
704.17	14061.94
704.31	14052.58
704.44	14057.26
704.57	13902.78
704.70	13855.97
704.83	13816.18
704.96	13741.29
705.10	13790.44
705.23	14094.71
>>>>>End Processed Spectral Data<<<<<
