SpectraSuite Data File
++++++++++++++++++++++++++++++++++++
Date: Fri Oct 25 10:44:25 EDT 2013
User: price-jones
Dark Spectrum Present: No
Reference Spectrum Present: No
Number of Sampled Component Spectra: 1
Spectrometers: USB2+H05261
Integration Time (usec): 100000 (USB2+H05261)
Spectra Averaged: 1 (USB2+H05261)
Boxcar Smoothing: 0 (USB2+H05261)
Correct for Electrical Dark: No (USB2+H05261)
Strobe/Lamp Enabled: No (USB2+H05261)
Correct for Detector Non-linearity: No (USB2+H05261)
Correct for Stray Light: No (USB2+H05261)
Number of Pixels in Processed Spectrum: 2048
>>>>>Begin Processed Spectral Data<<<<<
365.73	138.09
365.92	138.09
366.12	138.09
366.32	58.51
366.52	86.60
366.72	16.38
366.91	0.00
367.11	37.45
367.31	7.02
367.51	70.22
367.70	98.30
367.90	37.45
368.10	77.24
368.30	56.17
368.49	39.79
368.69	35.11
368.89	98.30
369.09	93.62
369.28	93.62
369.48	67.88
369.68	98.30
369.87	35.11
370.07	11.70
370.27	44.47
370.47	201.29
370.66	388.53
370.86	491.51
371.06	472.79
371.25	423.64
371.45	425.98
371.65	472.79
371.84	440.02
372.04	449.38
372.24	500.87
372.44	463.43
372.63	505.56
372.83	503.22
373.03	505.56
373.22	472.79
373.42	554.71
373.62	535.98
373.81	578.11
374.01	631.94
374.21	559.39
374.40	554.71
374.60	620.24
374.79	601.52
374.99	582.79
375.19	545.34
375.38	589.82
375.58	557.05
375.78	599.18
375.97	638.97
376.17	582.79
376.37	573.43
376.56	606.20
376.76	678.76
376.95	599.18
377.15	653.01
377.35	599.18
377.54	678.76
377.74	606.20
377.93	641.31
378.13	716.20
378.33	629.60
378.52	676.41
378.72	767.70
378.91	601.52
379.11	674.07
379.31	734.93
379.50	678.76
379.70	748.97
379.89	774.72
380.09	716.20
380.28	763.01
380.48	763.01
380.68	674.07
380.87	669.39
381.07	767.70
381.26	770.04
381.46	727.91
381.65	767.70
381.85	653.01
382.04	725.57
382.24	692.80
382.43	744.29
382.63	760.67
382.83	809.83
383.02	692.80
383.22	753.65
383.41	739.61
383.61	695.14
383.80	830.89
384.00	755.99
384.19	802.80
384.39	830.89
384.58	905.79
384.78	786.42
384.97	856.64
385.17	840.25
385.36	812.17
385.56	908.13
385.75	870.68
385.95	807.48
386.14	866.00
386.34	830.89
386.53	882.38
386.72	887.06
386.92	926.85
387.11	866.00
387.31	976.00
387.50	800.46
387.70	863.66
387.89	814.51
388.09	919.83
388.28	912.81
388.48	898.77
388.67	983.02
388.86	1039.20
389.06	1020.47
389.25	903.45
389.45	976.00
389.64	908.13
389.84	1048.56
390.03	1039.20
390.22	1020.47
390.42	1069.62
390.61	1086.01
390.81	924.51
391.00	1062.60
391.19	1139.84
391.39	1057.92
391.58	1093.03
391.78	1095.37
391.97	1093.03
392.16	1076.65
392.36	1055.58
392.55	987.71
392.75	973.66
392.94	1027.50
393.13	1050.90
393.33	1020.47
393.52	994.73
393.71	1083.67
393.91	1097.71
394.10	1107.07
394.29	1233.46
394.49	1156.22
394.68	1238.14
394.88	1256.87
395.07	1327.08
395.26	1247.51
395.46	1287.29
395.65	1240.48
395.84	1294.32
396.04	1313.04
396.23	1181.97
396.42	1163.25
396.62	1254.53
396.81	1254.53
397.00	1203.04
397.19	1366.87
397.39	1373.89
397.58	1493.26
397.77	1458.15
397.97	1497.94
398.16	1530.71
398.35	1561.14
398.55	1514.33
398.74	1514.33
398.93	1633.69
399.12	1554.12
399.32	1507.30
399.51	1568.16
399.70	1675.82
399.90	1687.53
400.09	1636.03
400.28	1734.34
400.47	1654.76
400.67	1732.00
400.86	1741.36
401.05	1748.38
401.24	1689.87
401.44	1827.96
401.63	1823.28
401.82	1746.04
402.01	1771.79
402.21	1820.94
402.40	1888.81
402.59	1685.19
402.78	1764.76
402.97	1799.87
403.17	1844.34
403.36	1781.15
403.55	1949.67
403.74	1935.62
403.93	1872.43
404.13	2001.16
404.32	1980.09
404.51	1839.66
404.70	1902.86
404.89	1959.03
405.09	2054.99
405.28	2111.16
405.47	2059.67
405.66	2083.08
405.85	2136.91
406.05	1870.09
406.24	2113.50
406.43	2150.95
406.62	2139.25
406.81	2111.16
407.00	2153.29
407.20	2129.89
407.39	2174.36
407.58	2270.32
407.77	2162.66
407.96	2253.94
408.15	2387.35
408.34	2345.22
408.54	2347.56
408.73	2317.13
408.92	2370.96
409.11	2328.83
409.30	2331.17
409.49	2452.88
409.68	2422.45
409.87	2471.61
410.07	2289.04
410.26	2504.37
410.45	2441.18
410.64	2429.48
410.83	2595.65
411.02	2511.39
411.21	2661.19
411.40	2715.02
411.59	2668.21
411.78	2679.91
411.98	2647.15
412.17	2663.53
412.36	2733.75
412.55	2913.97
412.74	2911.63
412.93	2808.64
413.12	2895.24
413.31	3030.99
413.50	2946.73
413.69	2890.56
413.88	2995.89
414.07	2998.23
414.26	3045.04
414.45	3105.89
414.64	2988.86
414.83	3162.06
415.02	3073.12
415.22	3215.90
415.41	3150.36
415.60	3162.06
415.79	3398.46
415.98	3339.94
416.17	3356.33
416.36	3262.71
416.55	3316.54
416.74	3356.33
416.93	3260.37
417.12	3400.80
417.31	3405.48
417.50	3358.67
417.69	3520.17
417.88	3494.42
418.07	3478.04
418.26	3571.66
418.45	3618.47
418.64	3770.60
418.83	3684.00
419.02	3705.07
419.21	3707.41
419.39	3686.34
419.58	3768.26
419.77	3700.39
419.96	3758.90
420.15	3817.41
420.34	3761.24
420.53	3878.27
420.72	4002.32
420.91	3962.53
421.10	3779.97
421.29	3943.80
421.48	3932.10
421.67	4049.13
421.86	3976.57
422.05	3859.54
422.24	3920.40
422.43	3962.53
422.61	3794.01
422.80	4095.94
422.99	4198.92
423.18	4065.51
423.37	4168.49
423.56	4081.89
423.75	4065.51
423.94	4007.00
424.13	3854.86
424.32	3777.62
424.50	4095.94
424.69	3990.61
424.88	4119.34
425.07	4149.77
425.26	3967.21
425.45	4011.68
425.64	4191.90
425.83	4177.86
426.01	4154.45
426.20	4145.09
426.39	4133.39
426.58	4081.89
426.77	4035.08
426.96	4060.83
427.15	3967.21
427.33	4084.23
427.52	4091.26
427.71	4234.03
427.90	4325.31
428.09	4262.12
428.28	4414.25
428.46	4184.88
428.65	4184.88
428.84	4339.35
429.03	4435.32
429.22	4208.28
429.40	4217.65
429.59	4201.26
429.78	4180.20
429.97	4007.00
430.16	4032.74
430.34	4231.69
430.53	4306.59
430.72	4299.56
430.91	4381.48
431.10	4414.25
431.28	4578.09
431.47	4758.31
431.66	4950.23
431.85	4643.62
432.03	4617.88
432.22	4702.14
432.41	4699.80
432.60	4690.43
432.79	4812.14
432.97	4924.49
433.16	4936.19
433.35	4671.71
433.54	4901.08
433.72	4770.01
433.91	4713.84
434.10	4732.56
434.28	4896.40
434.47	4959.60
434.66	5130.45
434.85	5195.99
435.03	5093.01
435.22	4997.04
435.41	5270.89
435.59	5289.61
435.78	5329.40
435.97	5362.17
436.16	5310.68
436.34	5067.26
436.53	5198.33
436.72	5495.58
436.90	5252.16
437.09	5369.19
437.28	5200.67
437.46	5266.21
437.65	5371.53
437.84	5483.88
438.02	5200.67
438.21	5324.72
438.40	5305.99
438.58	5441.75
438.77	5607.92
438.96	5617.29
439.14	5750.70
439.33	5778.78
439.52	5753.04
439.70	5783.46
439.89	5879.43
440.08	5973.05
440.26	5813.89
440.45	5834.96
440.63	6143.91
440.82	6218.80
441.01	5982.41
441.19	6317.11
441.38	6328.81
441.57	6279.66
441.75	6394.34
441.94	6359.24
442.12	6597.97
442.31	6628.40
442.50	6654.14
442.68	6457.54
442.87	6462.22
443.05	6546.48
443.24	6586.27
443.43	6637.76
443.61	6665.85
443.80	6899.90
443.98	6670.53
444.17	6375.62
444.35	6581.59
444.54	6834.36
444.73	6724.36
444.91	6768.83
445.10	6752.45
445.28	6588.61
445.47	6707.98
445.65	6761.81
445.84	6506.69
446.02	6658.82
446.21	6759.47
446.39	6787.55
446.58	6974.80
446.77	6942.03
446.95	6796.92
447.14	6883.52
447.32	7052.03
447.51	6911.60
447.69	6925.65
447.88	6923.30
448.06	6874.15
448.25	6839.05
448.43	7075.44
448.62	6906.92
448.80	7021.61
448.99	6904.58
449.17	7019.27
449.36	7183.10
449.54	7339.92
449.73	7056.72
449.91	7253.32
450.10	7335.24
450.28	7485.03
450.46	7360.98
450.65	7412.48
450.83	7382.05
451.02	7335.24
451.20	7485.03
451.39	7499.08
451.57	7407.80
451.76	7304.81
451.94	7440.56
452.13	7492.05
452.31	7293.11
452.49	7129.27
452.68	7335.24
452.86	7283.75
453.05	7592.70
453.23	7674.62
453.42	7564.61
453.60	7454.61
453.78	7557.59
453.97	7503.76
454.15	7585.68
454.34	7709.72
454.52	7644.19
454.70	7676.96
454.89	7735.47
455.07	7768.24
455.26	7791.64
455.44	8039.74
455.62	8002.29
455.81	7913.35
455.99	8166.13
456.17	8006.97
456.36	8248.05
456.54	8308.90
456.73	8182.51
456.91	8390.82
457.09	8381.46
457.28	8594.45
457.46	8269.11
457.64	8547.64
457.83	8135.70
458.01	8152.09
458.19	8629.56
458.38	8278.47
458.56	8388.48
458.74	8587.43
458.93	8463.38
459.11	8557.00
459.29	8545.30
459.48	8549.98
459.66	8421.25
459.84	8765.31
460.03	8786.37
460.21	8765.31
460.39	8837.86
460.57	8746.58
460.76	8933.82
460.94	8887.01
461.12	8807.44
461.31	9043.83
461.49	8903.40
461.67	8945.53
461.85	9090.64
462.04	9083.62
462.22	9149.15
462.40	9139.79
462.59	9153.84
462.77	9097.66
462.95	9193.62
463.13	9224.05
463.32	9280.22
463.50	9254.48
463.68	9226.39
463.86	9516.62
464.05	9212.35
464.23	9050.85
464.41	9214.69
464.59	9348.10
464.78	9383.21
464.96	9404.27
465.14	9074.26
465.32	9479.17
465.50	9504.92
465.69	9469.81
465.87	9476.83
466.05	9448.74
466.23	9202.99
466.41	9451.08
466.60	9610.24
466.78	9497.89
466.96	9451.08
467.14	9430.02
467.32	9830.25
467.51	9774.08
467.69	9586.83
467.87	9701.52
468.05	9731.95
468.23	9666.41
468.41	9633.64
468.60	9825.57
468.78	9956.64
468.96	9673.43
469.14	10066.64
469.32	10057.28
469.50	9942.60
469.69	9909.83
469.87	9982.38
470.05	9891.10
470.23	10104.09
470.41	9996.43
470.59	10153.24
470.77	10043.24
470.95	10272.61
471.14	10303.04
471.32	10429.43
471.50	10516.03
471.68	10789.87
471.86	10780.51
472.04	10640.08
472.22	10752.42
472.40	10497.30
472.58	10714.97
472.77	10846.04
472.95	10963.07
473.13	11302.45
473.31	10740.72
473.49	10740.72
473.67	11105.84
473.85	11042.65
474.03	11201.80
474.21	11330.53
474.39	11211.17
474.57	11625.44
474.75	11639.48
474.93	11756.51
475.12	11634.80
475.30	11499.05
475.48	11403.09
475.66	11595.01
475.84	11616.08
476.02	11602.04
476.20	11517.78
476.38	11913.33
476.56	12189.51
476.74	11894.60
476.92	12109.93
477.10	12114.61
477.28	12505.48
477.46	12657.62
477.64	12727.83
477.82	12786.35
478.00	13041.46
478.18	13018.06
478.36	13135.09
478.54	13135.09
478.72	13132.75
478.90	13273.18
479.08	13303.60
479.26	13315.31
479.44	13441.70
479.62	13532.98
479.80	13717.88
479.98	14057.26
480.16	14033.85
480.34	13947.25
480.52	14033.85
480.70	14134.50
480.88	13987.04
481.06	14141.52
481.24	14757.08
481.41	14815.59
481.59	14824.95
481.77	14803.89
481.95	14941.98
482.13	15211.14
482.31	15126.88
482.49	15194.76
482.67	15276.68
482.85	15583.29
483.03	15520.09
483.21	15686.27
483.39	15719.04
483.57	15838.41
483.74	15894.58
483.92	16161.40
484.10	15789.25
484.28	16215.23
484.46	16673.98
484.64	16734.83
484.82	16510.14
485.00	16772.28
485.18	16819.09
485.35	16884.62
485.53	16812.07
485.71	16819.09
485.89	17062.51
486.07	16973.56
486.25	16987.61
486.43	17177.19
486.61	17535.29
486.78	17797.43
486.96	18129.79
487.14	18157.88
487.32	18352.14
487.50	18513.64
487.68	18686.84
487.85	18834.29
488.03	18766.42
488.21	19131.54
488.39	19206.44
488.57	19257.93
488.75	19049.62
488.92	19679.22
489.10	19981.15
489.28	20140.31
489.46	20444.58
489.64	20093.50
489.81	20772.25
489.99	20613.10
490.17	20795.66
490.35	20940.77
490.53	20795.66
490.70	20961.84
490.88	20812.04
491.06	21092.91
491.24	21261.43
491.41	21039.08
491.59	21252.06
491.77	21521.23
491.95	21479.10
492.13	21649.96
492.30	22218.71
492.48	22424.67
492.66	22230.41
492.84	22108.70
493.01	22904.48
493.19	22843.63
493.37	22843.63
493.54	22628.30
493.72	23112.79
493.90	23220.45
494.08	23915.59
494.25	23506.00
494.43	23906.23
494.61	24290.08
494.79	24058.37
494.96	24072.41
495.14	23964.75
495.32	24208.16
495.49	24542.86
495.67	24524.13
495.85	24631.80
496.02	24933.73
496.20	24992.24
496.38	25135.01
496.55	25291.83
496.73	25949.52
496.91	25804.41
497.09	25713.13
497.26	25514.18
497.44	25591.42
497.62	26099.31
497.79	26064.21
497.97	25752.91
498.14	26106.34
498.32	26122.72
498.50	26291.24
498.67	26291.24
498.85	26485.50
499.03	26850.63
499.20	26862.33
499.38	26991.06
499.56	27161.92
499.73	27274.26
499.91	26829.56
500.08	27199.37
500.26	26782.75
500.44	27225.11
500.61	27440.44
500.79	27374.91
500.97	27775.14
501.14	27658.11
501.32	27714.28
501.49	27772.80
501.67	28276.01
501.84	28100.47
502.02	28091.11
502.20	28472.62
502.37	28531.13
502.55	28748.80
502.72	28814.34
502.90	28896.25
503.07	28659.86
503.25	29055.41
503.43	28627.09
503.60	29074.13
503.78	28760.50
503.95	28842.42
504.13	29240.31
504.30	29633.52
504.48	29509.47
504.65	29338.62
504.83	30059.50
505.01	30139.08
505.18	29439.26
505.36	30192.91
505.53	30363.77
505.71	30199.93
505.88	30164.82
506.06	30120.35
506.23	30417.60
506.41	30033.75
506.58	30534.63
506.76	30934.86
506.93	30857.62
507.11	30958.27
507.28	30705.49
507.46	31122.10
507.63	31227.43
507.81	31367.86
507.98	30848.26
508.16	30752.30
508.33	31349.14
508.50	31309.35
508.68	31395.95
508.85	31768.09
509.03	32259.60
509.20	32280.67
509.38	32025.55
509.55	32032.57
509.73	32034.91
509.90	31997.46
510.08	31985.76
510.25	32170.66
510.42	32198.75
510.60	32456.21
510.77	32627.07
510.95	32854.10
511.12	32638.77
511.30	33139.65
511.47	33113.90
511.64	33214.54
511.82	33289.44
511.99	32898.57
512.17	33347.95
512.34	33354.97
512.51	33254.33
512.69	33624.14
512.86	33579.67
513.04	33706.05
513.21	33790.31
513.38	33144.33
513.56	34029.05
513.73	33654.56
513.90	33823.08
514.08	33890.96
514.25	34312.25
514.43	34040.75
514.60	34211.61
514.77	33951.81
514.95	34298.21
515.12	34249.06
515.29	34202.25
515.47	34504.18
515.64	35026.12
515.81	34401.19
515.99	34827.17
516.16	34527.58
516.33	34031.39
516.51	34185.86
516.68	34195.23
516.85	34206.93
517.03	34003.30
517.20	34897.39
517.37	34899.73
517.54	35316.34
517.72	34754.61
517.89	34845.90
518.06	34607.16
518.24	34801.43
518.41	35161.87
518.58	35587.85
518.75	35751.68
518.93	35475.50
519.10	35505.93
519.27	35777.43
519.45	35526.99
519.62	35915.52
519.79	36009.14
519.96	35887.43
520.14	36577.89
520.31	35915.52
520.48	36149.57
520.65	36498.31
520.83	37170.05
521.00	36933.65
521.17	37048.34
521.34	36369.58
521.52	36474.91
521.69	37048.34
521.86	37083.45
522.03	36872.80
522.20	37029.62
522.38	37385.38
522.55	36924.29
522.72	37460.27
522.89	37310.48
523.07	37446.23
523.24	37242.60
523.41	37853.48
523.58	38019.66
523.75	38410.53
523.92	38377.76
524.10	38059.45
524.27	38038.39
524.44	38012.64
524.61	38345.00
524.78	38497.13
524.96	38132.01
525.13	38234.99
525.30	38799.06
525.47	38293.50
525.64	38426.92
525.81	38565.01
525.98	38124.99
526.16	38244.35
526.33	38190.52
526.50	38445.64
526.67	37558.58
526.84	38192.86
527.01	38429.26
527.18	38490.11
527.36	39147.80
527.53	39201.63
527.70	39108.01
527.87	39480.16
528.04	39182.91
528.21	39566.76
528.38	39379.51
528.55	39817.19
528.72	39819.53
528.89	39789.11
529.07	39714.21
529.24	39557.39
529.41	39831.24
529.58	39138.44
529.75	39316.32
529.92	39604.20
530.09	39964.65
530.26	39742.30
530.43	40381.26
530.60	40044.23
530.77	40411.69
530.94	40423.39
531.11	40275.94
531.28	40493.61
531.46	40648.08
531.63	40414.03
531.80	40472.54
531.97	40467.86
532.14	40608.29
532.31	39866.34
532.48	40311.05
532.65	40411.69
532.82	40175.30
532.99	41031.93
533.16	40076.99
533.33	40886.82
533.50	40989.80
533.67	40842.35
533.84	40872.78
534.01	40966.40
534.18	40676.17
534.35	40968.74
534.52	41116.19
534.69	41130.23
534.86	41207.47
535.03	41322.16
535.20	41588.98
535.37	41923.68
535.54	42117.94
535.71	41567.91
535.88	41366.63
536.05	41427.48
536.22	41748.14
536.38	41626.43
536.55	41605.36
536.72	41497.70
536.89	41294.07
537.06	41769.20
537.23	41869.84
537.40	41368.97
537.57	41862.82
537.74	41977.51
537.91	42110.92
538.08	41930.70
538.25	41904.95
538.42	42167.09
538.59	42323.91
538.75	42033.68
538.92	41804.31
539.09	42288.80
539.26	41998.57
539.43	42412.85
539.60	42635.20
539.77	42211.56
539.94	42478.38
540.11	42157.73
540.28	42726.48
540.44	42204.54
540.61	42728.82
540.78	42260.71
540.95	42387.10
541.12	42377.74
541.29	42265.39
541.46	42749.88
541.62	42686.69
541.79	42820.10
541.96	42274.76
542.13	42185.82
542.30	42389.44
542.47	42684.35
542.63	43061.18
542.80	42897.34
542.97	43655.67
543.14	43653.33
543.31	43250.76
543.48	43459.07
543.64	44376.56
543.81	44018.46
543.98	43723.55
544.15	43180.54
544.32	43899.09
544.48	44051.22
544.65	43674.40
544.82	44009.09
544.99	43859.30
545.16	43674.40
545.32	43250.76
545.49	44177.61
545.66	44437.41
545.83	43873.34
546.00	44367.20
546.16	44278.25
546.33	43854.62
546.50	43421.62
546.67	43868.66
546.83	43716.53
547.00	43899.09
547.17	43945.90
547.34	43871.00
547.50	43629.93
547.67	44273.57
547.84	44233.78
548.00	44566.14
548.17	44687.85
548.34	44224.42
548.51	44456.14
548.67	44163.57
548.84	44638.70
549.01	44493.58
549.18	44257.19
549.34	44432.73
549.51	44797.85
549.68	45116.17
549.84	44804.88
550.01	45062.33
550.18	44732.32
550.34	44816.58
550.51	45155.96
550.68	44844.66
550.84	44861.05
551.01	44828.28
551.18	44626.99
551.34	45256.60
551.51	45001.48
551.68	45359.58
551.84	44650.40
552.01	44928.92
552.18	45036.59
552.34	45055.31
552.51	45022.54
552.68	44847.00
552.84	44931.26
553.01	45591.30
553.18	45282.34
553.34	45308.09
553.51	44931.26
553.67	45193.40
553.84	46007.91
554.01	45570.23
554.17	45773.86
554.34	45755.13
554.51	45610.02
554.67	45741.09
554.84	45296.39
555.00	45673.21
555.17	45457.88
555.33	45492.99
555.50	45404.05
555.67	45469.59
555.83	45429.80
556.00	45904.93
556.16	45956.42
556.33	45792.58
556.50	45729.39
556.66	45804.28
556.83	45483.63
556.99	45867.48
557.16	46277.07
557.32	45907.27
557.49	46429.21
557.65	45593.64
557.82	45998.55
557.98	45839.39
558.15	45984.51
558.32	45888.54
558.48	45673.21
558.65	45750.45
558.81	45813.65
558.98	45617.04
559.14	45933.01
559.31	46007.91
559.47	45904.93
559.64	46017.27
559.80	46237.28
559.97	46080.47
560.13	46185.79
560.30	45579.59
560.46	46202.18
560.63	46382.40
560.79	46358.99
560.96	46700.71
561.12	46190.47
561.29	46342.61
561.45	45940.04
561.61	46295.80
561.78	45986.85
561.94	46277.07
562.11	45780.88
562.27	45993.87
562.44	46639.86
562.60	46300.48
562.77	46321.54
562.93	46490.06
563.10	46461.97
563.26	46567.30
563.42	46347.29
563.59	46319.20
563.75	46078.13
563.92	46590.70
564.08	46398.78
564.24	46450.27
564.41	46670.28
564.57	46623.47
564.74	46117.92
564.90	46354.31
565.07	46347.29
565.23	46174.09
565.39	46422.19
565.56	46115.58
565.72	46251.33
565.88	46499.42
566.05	46469.00
566.21	46457.29
566.38	46616.45
566.54	46363.67
566.70	46684.33
566.87	47147.75
567.03	46679.64
567.19	46841.14
567.36	46894.97
567.52	46602.41
567.68	46974.55
567.85	46831.78
568.01	46574.32
568.17	46483.04
568.34	46401.12
568.50	46677.30
568.66	46747.52
568.83	46637.51
568.99	46436.23
569.15	46333.24
569.32	46759.22
569.48	46328.56
569.64	46719.43
569.81	46653.90
569.97	46653.90
570.13	46600.07
570.30	46333.24
570.46	46337.93
570.62	46382.40
570.78	46625.81
570.95	46543.89
571.11	46789.65
571.27	46553.26
571.43	46590.70
571.60	46284.09
571.76	46595.38
571.92	46691.35
572.09	46866.89
572.25	46312.18
572.41	46663.26
572.57	46965.19
572.74	47304.57
572.90	46284.09
573.06	46911.36
573.22	46857.52
573.38	46663.26
573.55	46801.35
573.71	46887.95
573.87	46827.10
574.03	46564.96
574.20	46707.73
574.36	46635.17
574.52	46967.53
574.68	46904.34
574.84	46621.13
575.01	46506.44
575.17	46712.41
575.33	46401.12
575.49	46782.63
575.65	46733.48
575.82	47056.47
575.98	46766.24
576.14	47107.96
576.30	46909.02
576.46	46525.17
576.62	47002.64
576.79	46951.15
576.95	46813.05
577.11	46590.70
577.27	46731.14
577.43	46913.70
577.59	46799.01
577.75	46438.57
577.92	46703.05
578.08	46171.75
578.24	46225.58
578.40	46906.68
578.56	46562.62
578.72	46384.74
578.88	46883.27
579.04	46618.79
579.21	46859.87
579.37	47117.32
579.53	46763.90
579.69	46508.79
579.85	46941.78
580.01	46808.37
580.17	46773.27
580.33	47152.43
580.49	46913.70
580.65	46759.22
580.82	46955.83
580.98	46543.89
581.14	46866.89
581.30	46791.99
581.46	47288.18
581.62	46934.76
581.78	46897.31
581.94	47330.31
582.10	46930.08
582.26	47171.16
582.42	46625.81
582.58	46997.96
582.74	46806.03
582.90	47110.30
583.06	46829.44
583.22	47107.96
583.38	46932.42
583.54	47189.88
583.70	47145.41
583.86	47159.45
584.02	46316.86
584.18	47168.82
584.34	46522.83
584.50	46946.47
584.66	47133.71
584.82	46637.51
584.98	47161.79
585.14	46958.17
585.30	47000.30
585.46	46621.13
585.62	46478.36
585.78	46930.08
585.94	46422.19
586.10	47063.49
586.26	46518.15
586.42	46843.48
586.58	46672.62
586.74	47178.18
586.90	46401.12
587.06	46593.04
587.22	46890.29
587.38	46550.91
587.54	47161.79
587.70	47004.98
587.86	47260.10
588.02	46876.25
588.18	46946.47
588.34	46642.20
588.49	46375.37
588.65	46286.43
588.81	46656.24
588.97	46389.42
589.13	46616.45
589.29	46335.59
589.45	46850.50
589.61	46761.56
589.77	47040.09
589.93	46616.45
590.08	47421.59
590.24	47133.71
590.40	46838.80
590.56	47342.02
590.72	47056.47
590.88	47131.37
591.04	46951.15
591.20	47136.05
591.35	47388.83
591.51	47264.78
591.67	47150.09
591.83	47276.48
591.99	46646.88
592.15	46967.53
592.31	47014.34
592.46	47409.89
592.62	46700.71
592.78	47007.32
592.94	47056.47
593.10	46974.55
593.26	47484.79
593.41	46990.94
593.57	47152.43
593.73	47122.01
593.89	46841.14
594.05	46843.48
594.20	46972.21
594.36	47274.14
594.52	46850.50
594.68	47468.40
594.84	47405.21
594.99	47641.60
595.15	47175.84
595.31	46925.40
595.47	47166.48
595.62	47196.90
595.78	46738.16
595.94	47487.13
596.10	46796.67
596.25	47547.98
596.41	47316.27
596.57	47056.47
596.73	47288.18
596.88	46894.97
597.04	46813.05
597.20	47316.27
597.36	47033.07
597.51	47466.06
597.67	47360.74
597.83	47086.90
597.99	47306.91
598.14	47660.33
598.30	47152.43
598.46	47400.53
598.61	47173.50
598.77	46782.63
598.93	46749.86
599.09	46981.57
599.24	47620.54
599.40	47049.45
599.56	47224.99
599.71	46997.96
599.87	47276.48
600.03	47552.66
600.18	47138.39
600.34	47157.11
600.50	46902.00
600.65	47079.88
600.81	47370.10
600.97	47491.81
601.12	47213.29
601.28	47365.42
601.44	46742.84
601.59	46777.95
601.75	46808.37
601.91	46930.08
602.06	46838.80
602.22	47168.82
602.37	46803.69
602.53	47196.90
602.69	47079.88
602.84	46969.87
603.00	46993.28
603.16	46948.81
603.31	46770.93
603.47	47168.82
603.62	46689.01
603.78	47091.58
603.94	47028.38
604.09	46932.42
604.25	47257.76
604.40	47019.02
604.56	46869.23
604.71	47164.14
604.87	47222.65
605.03	46993.28
605.18	46571.98
605.34	46941.78
605.49	46569.64
605.65	46904.34
605.80	46897.31
605.96	46934.76
606.12	47051.79
606.27	47381.80
606.43	46637.51
606.58	46569.64
606.74	46817.74
606.89	46916.04
607.05	46962.85
607.20	47047.11
607.36	46689.01
607.51	46761.56
607.67	46700.71
607.82	47028.38
607.98	46960.51
608.13	46417.50
608.29	46747.52
608.44	46202.18
608.60	46337.93
608.75	46330.90
608.91	46953.49
609.06	46553.26
609.22	46824.76
609.37	46412.82
609.53	46623.47
609.68	46642.20
609.84	46513.47
609.99	46794.33
610.15	46457.29
610.30	46195.15
610.46	46164.73
610.61	46288.77
610.76	46532.19
610.92	46127.28
611.07	46550.91
611.23	46438.57
611.38	46583.68
611.54	46246.65
611.69	46099.19
611.84	45883.86
612.00	45921.31
612.15	46059.40
612.31	46349.63
612.46	46209.20
612.62	46300.48
612.77	46106.21
612.92	46373.03
613.08	46148.34
613.23	45996.21
613.39	45893.22
613.54	45584.27
613.69	46478.36
613.85	46073.45
614.00	46007.91
614.15	46059.40
614.31	45895.56
614.46	46340.27
614.62	46227.92
614.77	45940.04
614.92	45886.20
615.08	45656.83
615.23	45668.53
615.38	45869.82
615.54	45359.58
615.69	45481.29
615.84	45696.62
616.00	45350.22
616.15	45705.98
616.30	45577.25
616.46	45521.08
616.61	45219.15
616.76	45521.08
616.92	44966.37
617.07	44994.46
617.22	44889.13
617.37	45127.87
617.53	45542.14
617.68	45675.55
617.83	45560.87
617.99	45642.79
618.14	44839.98
618.29	45315.11
618.45	45067.02
618.60	45055.31
618.75	45059.99
618.90	45078.72
619.06	45317.45
619.21	45507.04
619.36	45647.47
619.51	45097.44
619.67	45294.05
619.82	45385.33
619.97	45626.40
620.12	44851.69
620.28	44664.44
620.43	44587.21
620.58	45397.03
620.73	44744.02
620.89	44872.75
621.04	44818.92
621.19	44652.74
621.34	44952.33
621.49	44741.68
621.65	44629.34
621.80	44767.43
621.95	44573.16
622.10	44404.64
622.25	44318.04
622.41	43950.58
622.56	43917.81
622.71	44795.51
622.86	44711.25
623.01	44516.99
623.16	44268.89
623.32	43952.92
623.47	44765.09
623.62	44388.26
623.77	44367.20
623.92	44690.19
624.07	44563.80
624.23	43934.20
624.38	44105.06
624.53	44016.11
624.68	43866.32
624.83	44128.46
624.98	44336.77
625.13	44189.31
625.29	44172.93
625.44	43456.73
625.59	44074.63
625.74	43414.60
625.89	43548.01
626.04	43398.21
626.19	43634.61
626.34	44128.46
626.49	43768.02
626.65	44041.86
626.80	43730.57
626.95	43817.17
627.10	43648.65
627.25	43309.27
627.40	43269.48
627.55	43297.57
627.70	42717.12
627.85	43344.38
628.00	43449.70
628.15	43253.10
628.30	43337.36
628.45	43496.52
628.60	43496.52
628.76	43459.07
628.91	43288.21
629.06	43208.63
629.21	42801.38
629.36	43119.69
629.51	43255.44
629.66	42801.38
629.81	42834.14
629.96	43131.39
630.11	43257.78
630.26	43246.08
630.41	43335.02
630.56	42838.83
630.71	42873.93
630.86	42251.35
631.01	42810.74
631.16	42569.66
631.31	42864.57
631.46	42618.81
631.61	42653.92
631.76	42686.69
631.91	42979.26
632.06	42808.40
632.21	43044.79
632.36	42747.54
632.51	43129.05
632.66	42607.11
632.81	42532.22
632.96	42806.06
633.10	42625.84
633.25	42916.06
633.40	42499.45
633.55	42195.18
633.70	42480.72
633.85	42185.82
634.00	42576.69
634.15	42412.85
634.30	42403.49
634.45	42080.49
634.60	42054.75
634.75	42286.46
634.90	42040.70
635.05	42408.17
635.19	42040.70
635.34	42539.24
635.49	42185.82
635.64	41872.18
635.79	42197.52
635.94	41942.40
636.09	42000.91
636.24	42026.66
636.39	42120.28
636.53	41804.31
636.68	41663.88
636.83	41921.34
636.98	41694.30
637.13	41752.82
637.28	41977.51
637.43	42195.18
637.57	41743.45
637.72	42183.48
637.87	41696.64
638.02	41717.71
638.17	41918.99
638.32	41514.08
638.46	41558.55
638.61	41839.42
638.76	41553.87
638.91	41708.35
639.06	41944.74
639.20	41659.20
639.35	41401.74
639.50	41464.93
639.65	41240.24
639.80	41605.36
639.94	41390.03
640.09	41155.98
640.24	40999.16
640.39	40950.01
640.54	40814.26
640.68	41254.28
640.83	41186.41
640.98	40896.18
641.13	41144.28
641.27	41226.20
641.42	40877.46
641.57	40889.16
641.72	41027.25
641.86	40690.21
642.01	40179.98
642.16	40622.34
642.31	40481.91
642.45	40994.48
642.60	40341.47
642.75	41062.36
642.90	41034.27
643.04	40701.92
643.19	40875.12
643.34	40437.44
643.48	40201.04
643.63	40474.88
643.78	40215.08
643.93	40374.24
644.07	40463.18
644.22	40353.18
644.37	40149.55
644.51	40179.98
644.66	40772.13
644.81	40739.36
644.95	40683.19
645.10	40098.06
645.25	40615.32
645.39	40524.04
645.54	39962.31
645.69	40156.57
645.83	39842.94
645.98	40123.80
646.13	40140.19
646.27	40240.83
646.42	39995.07
646.57	39889.75
646.71	39695.49
646.86	40678.51
647.00	39938.90
647.15	40397.65
647.30	39803.15
647.44	39868.69
647.59	39810.17
647.74	39646.33
647.88	39601.86
648.03	39777.40
648.17	39819.53
648.32	39660.38
648.47	39384.19
648.61	39412.28
648.76	39461.43
648.90	39449.73
649.05	39629.95
649.20	39611.23
649.34	39784.43
649.49	39262.49
649.63	39337.38
649.78	39597.18
649.92	39555.05
650.07	39763.36
650.21	39072.90
650.36	39658.04
650.51	39332.70
650.65	39632.29
650.80	40032.52
650.94	39587.82
651.09	39555.05
651.23	39379.51
651.38	39178.23
651.52	39262.49
651.67	39189.93
651.81	39264.83
651.96	39218.02
652.10	39159.50
652.25	39122.05
652.39	39321.00
652.54	38841.19
652.68	39218.02
652.83	39136.10
652.97	39555.05
653.12	39131.42
653.26	38869.28
653.41	38920.77
653.55	38705.44
653.70	38581.39
653.84	38658.63
653.99	39005.03
654.13	38733.53
654.27	38660.97
654.42	38670.33
654.56	38204.56
654.71	38483.09
654.85	38869.28
655.00	38820.13
655.14	38103.92
655.29	38206.90
655.43	38281.80
655.57	38106.26
655.72	37535.17
655.86	37820.72
656.01	37720.07
656.15	37495.38
656.30	37879.23
656.44	38106.26
656.58	37691.99
656.73	37979.87
656.87	38232.65
657.01	38045.41
657.16	38005.62
657.30	37989.24
657.45	37806.67
657.59	37589.00
657.73	37930.72
657.88	38394.15
658.02	38127.33
658.16	38230.31
658.31	38132.01
658.45	38202.22
658.60	37734.12
658.74	37432.19
658.88	37790.29
659.03	37605.39
659.17	37331.54
659.31	37317.50
659.46	37748.16
659.60	37376.01
659.74	37439.21
659.89	37415.80
660.03	37256.65
660.17	37163.03
660.32	37287.07
660.46	37120.90
660.60	37038.98
660.74	37331.54
660.89	37053.02
661.03	37467.30
661.17	36870.46
661.32	36484.27
661.46	36746.41
661.60	36952.38
661.74	36804.92
661.89	36790.88
662.03	37081.11
662.17	36896.20
662.31	36591.94
662.46	36910.25
662.60	36800.24
662.74	36587.25
662.88	36261.92
663.03	36601.30
663.17	36016.16
663.31	35838.28
663.45	35878.07
663.60	36154.26
663.74	35985.74
663.88	36369.58
664.02	35971.69
664.17	36060.63
664.31	35707.21
664.45	35723.60
664.59	35768.07
664.73	36100.42
664.88	36006.80
665.02	35484.86
665.16	35761.05
665.30	35899.14
665.44	35466.14
665.59	35199.32
665.73	35285.92
665.87	35297.62
666.01	35487.20
666.15	35428.69
666.29	35262.51
666.44	35431.03
666.58	35253.15
666.72	34813.13
666.86	35131.44
667.00	35091.65
667.14	34890.37
667.28	34904.41
667.43	34419.92
667.57	34656.31
667.71	34714.83
667.85	34991.01
667.99	34506.52
668.13	34295.87
668.27	34309.91
668.41	34349.70
668.56	34143.74
668.70	34611.84
668.84	34375.45
668.98	34066.50
669.12	33921.38
669.26	33914.36
669.40	33500.09
669.54	33532.86
669.68	33708.40
669.82	33563.28
669.96	33584.35
670.10	33242.63
670.25	33626.48
670.39	33427.53
670.53	33305.82
670.67	33266.03
670.81	33558.60
670.95	33345.61
671.09	33137.30
671.23	33055.39
671.37	33149.01
671.51	32797.93
671.65	33230.93
671.79	32524.08
671.93	32980.49
672.07	32872.82
672.21	33153.69
672.35	32898.57
672.49	33350.29
672.63	33251.99
672.77	32559.19
672.91	32966.45
673.05	32587.28
673.19	32474.93
673.33	32327.48
673.47	32226.84
673.61	32212.79
673.75	31697.88
673.89	31901.50
674.03	31892.14
674.17	32114.49
674.31	31784.48
674.45	31419.35
674.59	31681.49
674.73	31894.48
674.87	31292.96
675.01	31463.82
675.15	31199.34
675.29	31449.78
675.43	31620.64
675.56	30962.95
675.70	31000.40
675.84	31056.57
675.98	30410.58
676.12	30991.03
676.26	30993.37
676.40	30787.41
676.54	31110.40
676.68	31005.08
676.82	29975.24
676.96	30368.45
677.10	30590.80
677.23	30375.47
677.37	30298.23
677.51	29944.81
677.65	29752.89
677.79	29535.22
677.93	29647.57
678.07	29731.83
678.21	28985.19
678.34	29212.23
678.48	29034.35
678.62	29268.40
678.76	28659.86
678.90	28903.28
679.04	28779.23
679.18	28603.69
679.31	28615.39
679.45	28505.38
679.59	28404.74
679.73	28613.05
679.87	28400.06
680.00	28252.61
680.14	27948.34
680.28	28006.85
680.42	28175.37
680.56	28292.40
680.70	28247.93
680.83	27938.97
680.97	28336.87
681.11	28308.78
681.25	27843.01
681.39	27328.10
681.52	27501.29
681.66	27623.00
681.80	27503.64
681.94	27353.84
682.07	27133.83
682.21	27285.97
682.35	26918.50
682.49	26803.82
682.62	27014.46
682.76	26618.91
682.90	26668.06
683.04	26595.51
683.17	26363.79
683.31	26040.80
683.45	26169.53
683.59	25867.60
683.72	25483.75
683.86	25734.19
684.00	26146.12
684.13	25778.66
684.27	25661.63
684.41	25666.31
684.55	25610.14
684.68	25652.27
684.82	25680.36
684.96	25380.77
685.09	25455.67
685.23	25502.48
685.37	25350.34
685.50	25078.84
685.64	25123.31
685.78	24744.14
685.91	24364.98
686.05	24631.80
686.19	24287.74
686.32	24484.34
686.46	23995.17
686.60	23541.11
686.73	23782.18
686.87	23777.50
687.01	23410.04
687.14	23454.51
687.28	23140.88
687.42	23840.70
687.55	23140.88
687.69	23283.65
687.82	23190.03
687.96	23534.09
688.10	23426.42
688.23	23101.09
688.37	23026.19
688.50	22918.53
688.64	22607.23
688.78	22623.62
688.91	22850.65
689.05	22597.87
689.18	22705.54
689.32	22281.90
689.46	22298.28
689.59	22452.76
689.73	22569.79
689.86	22562.76
690.00	22188.28
690.13	22111.04
690.27	21715.49
690.41	21668.68
690.54	21635.91
690.68	21626.55
690.81	21635.91
690.95	21565.70
691.08	21661.66
691.22	21448.67
691.35	21434.63
691.49	21553.99
691.62	21434.63
691.76	20961.84
691.89	20875.24
692.03	21158.44
692.16	20774.60
692.30	21025.03
692.43	20442.24
692.57	20322.87
692.70	20278.40
692.84	20666.93
692.97	20182.44
693.11	20168.40
693.24	19913.28
693.38	19917.96
693.51	19735.40
693.65	20142.65
693.78	19763.48
693.92	20011.58
694.05	19606.67
694.19	19829.02
694.32	19597.31
694.45	19325.80
694.59	19316.44
694.72	19250.91
694.86	19166.65
694.99	18974.72
695.13	18965.36
695.26	18857.70
695.39	18876.42
695.53	18775.78
695.66	18944.30
695.80	19091.75
695.93	18740.67
696.07	18417.68
696.20	18597.90
696.33	18338.10
696.47	18277.24
696.60	18534.70
696.73	18216.39
696.87	18099.36
697.00	18019.78
697.14	17909.78
697.27	17722.54
697.40	18174.26
697.54	17731.90
697.67	17642.96
697.80	17458.06
697.94	17582.10
698.07	17252.09
698.21	17123.36
698.34	17053.14
698.47	16922.07
698.61	16809.73
698.74	17135.06
698.87	17088.25
699.01	16376.73
699.14	16416.52
699.27	16379.07
699.40	16603.76
699.54	16428.22
699.67	16252.68
699.80	16580.36
699.94	16643.55
700.07	16187.14
700.20	16229.27
700.34	15807.98
700.47	16039.69
700.60	16252.68
700.73	16449.28
700.87	16020.97
701.00	15704.99
701.13	16039.69
701.26	15917.98
701.40	15454.56
701.53	15543.50
701.66	15503.71
701.79	15527.11
701.93	15431.15
702.06	15337.53
702.19	15037.94
702.32	15208.80
702.46	15211.14
702.59	15272.00
702.72	15143.27
702.85	14951.34
702.99	14934.96
703.12	14754.74
703.25	14698.56
703.38	14494.94
703.51	14628.35
703.65	14279.61
703.78	14677.50
703.91	14389.61
704.04	14469.19
704.17	14398.98
704.31	14494.94
704.44	14071.30
704.57	14061.94
704.70	14036.19
704.83	14146.20
704.96	13991.72
705.10	13858.31
705.23	13968.32
>>>>>End Processed Spectral Data<<<<<
