SpectraSuite Data File
++++++++++++++++++++++++++++++++++++
Date: Fri Oct 25 10:47:11 EDT 2013
User: price-jones
Dark Spectrum Present: No
Reference Spectrum Present: No
Number of Sampled Component Spectra: 1
Spectrometers: USB2+H05261
Integration Time (usec): 100000 (USB2+H05261)
Spectra Averaged: 1 (USB2+H05261)
Boxcar Smoothing: 0 (USB2+H05261)
Correct for Electrical Dark: No (USB2+H05261)
Strobe/Lamp Enabled: No (USB2+H05261)
Correct for Detector Non-linearity: No (USB2+H05261)
Correct for Stray Light: No (USB2+H05261)
Number of Pixels in Processed Spectrum: 2048
>>>>>Begin Processed Spectral Data<<<<<
365.73	152.13
365.92	152.13
366.12	152.13
366.32	35.11
366.52	18.72
366.72	51.49
366.91	25.75
367.11	86.60
367.31	0.00
367.51	9.36
367.70	39.79
367.90	49.15
368.10	7.02
368.30	35.11
368.49	88.94
368.69	79.58
368.89	32.77
369.09	28.09
369.28	65.54
369.48	119.37
369.68	102.98
369.87	18.72
370.07	107.66
370.27	152.13
370.47	217.67
370.66	285.55
370.86	444.70
371.06	397.89
371.25	425.98
371.45	440.02
371.65	498.53
371.84	379.17
372.04	470.45
372.24	449.38
372.44	458.74
372.63	505.56
372.83	554.71
373.03	484.49
373.22	454.06
373.42	505.56
373.62	514.92
373.81	554.71
374.01	521.94
374.21	521.94
374.40	491.51
374.60	547.69
374.79	557.05
374.99	510.24
375.19	554.71
375.38	519.60
375.58	582.79
375.78	671.73
375.97	505.56
376.17	578.11
376.37	519.60
376.56	585.13
376.76	538.32
376.95	519.60
377.15	620.24
377.35	627.26
377.54	578.11
377.74	617.90
377.93	545.34
378.13	648.33
378.33	599.18
378.52	582.79
378.72	596.84
378.91	648.33
379.11	564.07
379.31	641.31
379.50	657.69
379.70	578.11
379.89	645.99
380.09	608.54
380.28	669.39
380.48	653.01
380.68	643.65
380.87	648.33
381.07	629.60
381.26	688.12
381.46	723.23
381.65	636.63
381.85	692.80
382.04	720.88
382.24	692.80
382.43	620.24
382.63	653.01
382.83	629.60
383.02	727.91
383.22	746.63
383.41	685.78
383.61	713.86
383.80	786.42
384.00	631.94
384.19	718.54
384.39	697.48
384.58	653.01
384.78	737.27
384.97	748.97
385.17	730.25
385.36	774.72
385.56	720.88
385.75	807.48
385.95	741.95
386.14	676.41
386.34	737.27
386.53	795.78
386.72	779.40
386.92	777.06
387.11	812.17
387.31	788.76
387.50	723.23
387.70	732.59
387.89	844.93
388.09	781.74
388.28	793.44
388.48	802.80
388.67	849.61
388.86	861.32
389.06	788.76
389.25	835.57
389.45	880.04
389.64	798.12
389.84	816.85
390.03	894.08
390.22	919.83
390.42	861.32
390.61	950.26
390.81	954.94
391.00	954.94
391.19	952.60
391.39	912.81
391.58	1015.79
391.78	940.90
391.97	931.53
392.16	891.74
392.36	903.45
392.55	933.87
392.75	1020.47
392.94	856.64
393.13	933.87
393.33	992.39
393.52	887.06
393.71	929.19
393.91	1036.86
394.10	952.60
394.29	1074.31
394.49	1048.56
394.68	1039.20
394.88	1004.09
395.07	1109.41
395.26	1109.41
395.46	1041.54
395.65	1163.25
395.84	1125.80
396.04	1200.69
396.23	1137.50
396.42	1102.39
396.62	1193.67
396.81	1055.58
397.00	1071.97
397.19	1048.56
397.39	1128.14
397.58	1275.59
397.77	1240.48
397.97	1219.42
398.16	1242.82
398.35	1207.72
398.55	1207.72
398.74	1245.16
398.93	1259.21
399.12	1275.59
399.32	1259.21
399.51	1329.42
399.70	1270.91
399.90	1280.27
400.09	1338.79
400.28	1338.79
400.47	1373.89
400.67	1432.41
400.86	1406.66
401.05	1516.67
401.24	1401.98
401.44	1420.71
401.63	1476.88
401.82	1453.47
402.01	1444.11
402.21	1444.11
402.40	1483.90
402.59	1493.26
402.78	1411.34
402.97	1521.35
403.17	1507.30
403.36	1476.88
403.55	1558.80
403.74	1640.72
403.93	1671.14
404.13	1572.84
404.32	1549.43
404.51	1610.29
404.70	1666.46
404.89	1596.25
405.09	1657.10
405.28	1696.89
405.47	1650.08
405.66	1748.38
405.85	1750.72
406.05	1703.91
406.24	1696.89
406.43	1727.32
406.62	1764.76
406.81	1842.00
407.00	1732.00
407.20	1762.42
407.39	1762.42
407.58	1888.81
407.77	1874.77
407.96	1991.80
408.15	1926.26
408.34	1881.79
408.54	2012.86
408.73	1856.04
408.92	1937.96
409.11	1998.82
409.30	1900.52
409.49	2015.20
409.68	2071.37
409.87	1916.90
410.07	2026.90
410.26	2017.54
410.45	2069.03
410.64	2195.42
410.83	2183.72
411.02	2118.18
411.21	2235.21
411.40	2186.06
411.59	2188.40
411.78	2244.57
411.98	2195.42
412.17	2235.21
412.36	2300.75
412.55	2230.53
412.74	2438.84
412.93	2293.72
413.12	2317.13
413.31	2473.95
413.50	2490.33
413.69	2520.76
413.88	2473.95
414.07	2593.31
414.26	2619.06
414.45	2518.42
414.64	2593.31
414.83	2583.95
415.02	2621.40
415.22	2661.19
415.41	2747.79
415.60	2761.83
415.79	2794.60
415.98	2808.64
416.17	2710.34
416.36	2815.66
416.55	2871.84
416.74	2867.16
416.93	2764.17
417.12	2906.95
417.31	2881.20
417.50	2946.73
417.69	3002.91
417.88	3000.57
418.07	2984.18
418.26	3035.67
418.45	3056.74
418.64	3290.79
418.83	3096.53
419.02	3145.68
419.21	3101.21
419.39	3234.62
419.58	3094.19
419.77	3068.44
419.96	3248.66
420.15	3110.57
420.34	3180.79
420.53	3199.51
420.72	3410.16
420.91	3335.26
421.10	3410.16
421.29	3314.20
421.48	3246.32
421.67	3358.67
421.86	3276.75
422.05	3309.52
422.24	3438.25
422.43	3370.37
422.61	3407.82
422.80	3297.81
422.99	3410.16
423.18	3412.50
423.37	3400.80
423.56	3463.99
423.75	3337.60
423.94	3412.50
424.13	3197.17
424.32	3316.54
424.50	3407.82
424.69	3517.83
424.88	3445.27
425.07	3410.16
425.26	3400.80
425.45	3445.27
425.64	3412.50
425.83	3372.71
426.01	3627.83
426.20	3588.04
426.39	3571.66
426.58	3578.68
426.77	3466.33
426.96	3454.63
427.15	3545.91
427.33	3599.74
427.52	3510.80
427.71	3590.38
427.90	3616.13
428.09	3742.52
428.28	3669.96
428.46	3726.13
428.65	3737.84
428.84	3911.04
429.03	3660.60
429.22	3735.50
429.40	3847.84
429.59	3777.62
429.78	3541.23
429.97	3716.77
430.16	3756.56
430.34	3700.39
430.53	3686.34
430.72	3786.99
430.91	3878.27
431.10	3779.97
431.28	3913.38
431.47	3974.23
431.66	4058.49
431.85	3948.48
432.03	4086.58
432.22	4210.62
432.41	4021.04
432.60	4058.49
432.79	4102.96
432.97	4060.83
433.16	4114.66
433.35	4088.92
433.54	4138.07
433.72	4053.81
433.91	4098.28
434.10	4379.14
434.28	4133.39
434.47	4245.73
434.66	4311.27
434.85	4353.40
435.03	4477.44
435.22	4264.46
435.41	4440.00
435.59	4337.01
435.78	4414.25
435.97	4409.57
436.16	4573.41
436.34	4416.59
436.53	4512.55
436.72	4641.28
436.90	4535.96
437.09	4709.16
437.28	4369.78
437.46	4624.90
437.65	4629.58
437.84	4784.06
438.02	4720.86
438.21	4414.25
438.40	4627.24
438.58	4622.56
438.77	4767.67
438.96	4695.11
439.14	4915.12
439.33	4973.64
439.52	5018.11
439.70	4924.49
439.89	4926.83
440.08	5048.54
440.26	5067.26
440.45	5025.13
440.63	5195.99
440.82	5217.05
441.01	5296.63
441.19	5224.08
441.38	5413.66
441.57	5378.55
441.75	5320.04
441.94	5453.45
442.12	5488.56
442.31	5547.07
442.50	5544.73
442.68	5533.03
442.87	5607.92
443.05	5638.35
443.24	5631.33
443.43	5565.79
443.61	5806.87
443.80	5757.72
443.98	5516.64
444.17	5495.58
444.35	5802.19
444.54	5937.94
444.73	5811.55
444.91	5853.68
445.10	5715.59
445.28	5654.73
445.47	5724.95
445.65	5673.46
445.84	5797.51
446.02	5795.17
446.21	5926.24
446.39	5849.00
446.58	5830.27
446.77	5926.24
446.95	5830.27
447.14	5760.06
447.32	6043.26
447.51	5865.38
447.69	5823.25
447.88	5966.03
448.06	6043.26
448.25	6080.71
448.43	5781.12
448.62	5940.28
448.80	5863.04
448.99	5905.17
449.17	5996.45
449.36	5991.77
449.54	6115.82
449.73	6221.14
449.91	6207.10
450.10	6340.51
450.28	6239.87
450.46	6424.77
450.65	6251.57
450.83	6361.58
451.02	6242.21
451.20	6260.93
451.39	6410.73
451.57	6415.41
451.76	6277.32
451.94	6216.46
452.13	6532.44
452.31	6408.39
452.49	6228.17
452.68	6427.11
452.86	6504.35
453.05	6427.11
453.23	6335.83
453.42	6490.31
453.60	6413.07
453.78	6722.02
453.97	6431.79
454.15	6422.43
454.34	6387.32
454.52	6565.20
454.70	6675.21
454.89	6630.74
455.07	6729.04
455.26	6897.56
455.44	6679.89
455.62	6839.05
455.81	6782.87
455.99	6867.13
456.17	6787.55
456.36	6703.29
456.54	6862.45
456.73	7199.49
456.91	7183.10
457.09	7070.76
457.28	7236.94
457.46	6984.16
457.64	7255.66
457.83	7283.75
458.01	7030.97
458.19	7407.80
458.38	7145.66
458.56	7234.60
458.74	7047.35
458.93	7178.42
459.11	7311.83
459.29	7206.51
459.48	7435.88
459.66	7410.14
459.84	7496.74
460.03	7492.05
460.21	7595.04
460.39	7386.73
460.57	7318.86
460.76	7691.00
460.94	7726.11
461.12	7419.50
461.31	7719.09
461.49	7583.34
461.67	7616.10
461.85	7618.44
462.04	7763.56
462.22	8107.62
462.40	7705.04
462.59	7691.00
462.77	7805.69
462.95	7817.39
463.13	7948.46
463.32	7997.61
463.50	8203.58
463.68	7985.91
463.86	8189.53
464.05	8025.70
464.23	7915.69
464.41	8142.72
464.59	8037.40
464.78	8105.28
464.96	7974.21
465.14	7852.50
465.32	8147.40
465.50	8184.85
465.69	8252.73
465.87	8116.98
466.05	8278.47
466.23	8131.02
466.41	7999.95
466.60	8341.67
466.78	8079.53
466.96	8114.64
467.14	8196.56
467.32	8292.52
467.51	8463.38
467.69	8224.64
467.87	8423.59
468.05	8451.67
468.23	8411.89
468.41	8367.42
468.60	8416.57
468.78	8222.30
468.96	8596.79
469.14	8664.66
469.32	8723.18
469.50	8362.73
469.69	8503.17
469.87	8723.18
470.05	8681.05
470.23	8690.41
470.41	8643.60
470.59	9032.13
470.77	8697.43
470.95	8933.82
471.14	9036.81
471.32	8931.48
471.50	9144.47
471.68	9111.71
471.86	9268.52
472.04	9444.06
472.22	9556.41
472.40	9100.00
472.58	9097.66
472.77	9160.86
472.95	9252.14
473.13	9668.75
473.31	9425.34
473.49	9430.02
473.67	9479.17
473.85	9624.28
474.03	9495.55
474.21	9788.12
474.39	9893.44
474.57	9792.80
474.75	9806.84
474.93	9987.07
475.12	9912.17
475.30	9935.57
475.48	9743.65
475.66	10012.81
475.84	10200.05
476.02	10139.20
476.20	10434.11
476.38	10218.78
476.56	10630.71
476.74	10555.82
476.92	10532.41
477.10	10724.33
477.28	10754.76
477.46	10796.89
477.64	10693.91
477.82	10942.00
478.00	11358.62
478.18	11190.10
478.36	11044.99
478.54	11391.39
478.72	11454.58
478.90	11356.28
479.08	11485.01
479.26	11786.94
479.44	11934.39
479.62	11908.65
479.80	11967.16
479.98	12056.10
480.16	11903.96
480.34	11838.43
480.52	12484.42
480.70	12294.83
480.88	12149.72
481.06	12145.04
481.24	12355.69
481.41	12528.89
481.59	12734.85
481.77	12802.73
481.95	12940.82
482.13	12884.65
482.31	13032.10
482.49	13268.50
482.67	13511.91
482.85	13467.44
483.03	13420.63
483.21	13633.62
483.39	13818.52
483.57	13668.73
483.74	13862.99
483.92	14008.11
484.10	13900.44
484.28	14071.30
484.46	14588.56
484.64	14855.38
484.82	14370.89
485.00	14965.39
485.18	15047.30
485.35	14881.13
485.53	14691.54
485.71	14799.21
485.89	15351.57
486.07	15199.44
486.25	15185.40
486.43	15370.30
486.61	15459.24
486.78	15545.84
486.96	15812.66
487.14	15873.51
487.32	15826.70
487.50	16315.87
487.68	16386.09
487.85	16542.91
488.03	16940.80
488.21	16819.09
488.39	16559.29
488.57	16739.51
488.75	16966.54
488.92	17324.65
489.10	17338.69
489.28	17600.83
489.46	17671.04
489.64	17554.02
489.81	18015.10
489.99	18073.62
490.17	18043.19
490.35	18504.28
490.53	18403.63
490.70	18438.74
490.88	18600.24
491.06	19077.71
491.24	18735.99
491.41	18796.84
491.59	19005.15
491.77	18850.67
491.95	19318.78
492.13	19587.94
492.30	19370.27
492.48	19552.84
492.66	19777.53
492.84	19585.60
493.01	19859.45
493.19	19999.88
493.37	20505.43
493.54	20484.37
493.72	20339.26
493.90	20332.23
494.08	20603.74
494.25	20950.14
494.43	20936.09
494.61	21053.12
494.79	21083.55
494.96	21268.45
495.14	21355.05
495.32	21156.10
495.49	21546.97
495.67	21736.56
495.85	21528.25
496.02	21860.60
496.20	22169.55
496.38	21996.35
496.55	22375.52
496.73	22508.93
496.91	22497.23
497.09	22721.92
497.26	22698.52
497.44	22684.47
497.62	22698.52
497.79	22925.55
497.97	22750.01
498.14	23370.25
498.32	23183.01
498.50	23206.41
498.67	23328.12
498.85	23754.10
499.03	23709.63
499.20	24060.71
499.38	24070.07
499.56	23655.79
499.73	24046.66
499.91	24215.18
500.08	24201.14
500.26	24128.58
500.44	24215.18
500.61	24720.74
500.79	24098.16
500.97	24521.79
501.14	24652.86
501.32	24762.87
501.49	24765.21
501.67	25193.53
501.84	25039.05
502.02	25287.15
502.20	25434.60
502.37	25490.77
502.55	25329.28
502.72	25383.11
502.90	25633.55
503.07	25685.04
503.25	25722.49
503.43	25858.24
503.60	25893.35
503.78	25905.05
503.95	25935.48
504.13	26101.65
504.30	26162.51
504.48	26068.89
504.65	26558.06
504.83	26394.22
505.01	26644.66
505.18	26529.97
505.36	26864.67
505.53	26836.58
505.71	27197.02
505.88	27190.00
506.06	26948.93
506.23	27187.66
506.41	27026.17
506.58	27000.42
506.76	27475.55
506.93	27634.71
507.11	27641.73
507.28	27754.07
507.46	27569.17
507.63	27686.20
507.81	28034.94
507.98	27777.48
508.16	27814.93
508.33	28189.41
508.50	28095.79
508.68	28194.09
508.85	28414.10
509.03	28329.84
509.20	28507.72
509.38	28608.37
509.55	29046.05
509.73	28533.47
509.90	29116.26
510.08	28889.23
510.25	28683.27
510.42	29015.62
510.60	29177.12
510.77	29083.50
510.95	29567.99
511.12	29532.88
511.30	29226.27
511.47	29376.06
511.64	29621.82
511.82	29972.90
511.99	29694.38
512.17	29638.20
512.34	29886.30
512.51	29823.11
512.69	30113.33
512.86	30022.05
513.04	30314.62
513.21	30295.89
513.38	30668.04
513.56	30176.53
513.73	30284.19
513.90	30761.66
514.08	30759.32
514.25	30611.87
514.43	30731.23
514.60	30820.17
514.77	31042.53
514.95	31063.59
515.12	31096.36
515.29	31545.74
515.47	31405.31
515.64	31365.52
515.81	31309.35
515.99	31194.66
516.16	31402.97
516.33	31559.78
516.51	31344.45
516.68	31281.26
516.85	31154.87
517.03	31665.11
517.20	31578.51
517.37	31690.85
517.54	31892.14
517.72	32065.34
517.89	31934.27
518.06	31943.63
518.24	31978.74
518.41	32121.51
518.58	32315.78
518.75	32322.80
518.93	32575.58
519.10	32484.30
519.27	32517.06
519.45	32470.25
519.62	32734.73
519.79	32765.16
519.96	32973.47
520.14	32851.76
520.31	32889.21
520.48	33553.92
520.65	32818.99
520.83	33298.80
521.00	33399.44
521.17	33177.09
521.34	33397.10
521.52	32996.87
521.69	33317.53
521.86	33319.87
522.03	33771.59
522.20	33926.07
522.38	33977.56
522.55	34122.67
522.72	33682.65
522.89	33780.95
523.07	33762.23
523.24	34157.78
523.41	34485.45
523.58	34019.69
523.75	34742.91
523.92	34497.16
524.10	34541.63
524.27	34270.12
524.44	34515.88
524.61	35065.91
524.78	34866.96
524.96	34862.28
525.13	35098.67
525.30	35154.85
525.47	34775.68
525.64	35201.66
525.81	35082.29
525.98	35042.50
526.16	34792.06
526.33	35098.67
526.50	35466.14
526.67	35030.80
526.84	35063.57
527.01	34983.99
527.18	35349.11
527.36	35681.47
527.53	35393.58
527.70	36287.67
527.87	35875.73
528.04	35658.06
528.21	35952.97
528.38	35903.82
528.55	36177.66
528.72	35880.41
528.89	35971.69
529.07	36388.31
529.24	36194.04
529.41	36135.53
529.58	35861.69
529.75	36327.45
529.92	36231.49
530.09	36458.52
530.26	36282.98
530.43	36718.32
530.60	36151.91
530.77	36268.94
530.94	36437.46
531.11	36814.29
531.28	36552.15
531.46	36903.23
531.63	36662.15
531.80	36943.02
531.97	37188.77
532.14	37099.83
532.31	36627.04
532.48	37013.23
532.65	37528.15
532.82	36935.99
532.99	36891.52
533.16	36872.80
533.33	37064.72
533.50	37617.09
533.67	37778.59
533.84	36978.12
534.01	37476.66
534.18	37493.04
534.35	37689.65
534.52	37502.40
534.69	38305.21
534.86	37961.15
535.03	37745.82
535.20	38026.68
535.37	38012.64
535.54	38183.50
535.71	38033.71
535.88	37916.68
536.05	38078.18
536.22	38094.56
536.38	38309.89
536.55	38550.96
536.72	38007.96
536.89	38103.92
537.06	38579.05
537.23	38817.78
537.40	38377.76
537.57	38522.88
537.74	38873.96
537.91	38836.51
538.08	38892.68
538.25	38286.48
538.42	38443.30
538.59	38974.60
538.75	38529.90
538.92	38733.53
539.09	39037.80
539.26	39030.77
539.43	39061.20
539.60	39285.89
539.77	38726.50
539.94	39423.98
540.11	39423.98
540.28	39110.35
540.44	38976.94
540.61	38735.87
540.78	39182.91
540.95	39194.61
541.12	39321.00
541.29	39110.35
541.46	38848.21
541.62	39353.77
541.79	39718.89
541.96	39278.87
542.13	39283.55
542.30	39826.56
542.47	39828.90
542.63	39739.96
542.80	39728.25
542.97	40289.98
543.14	40364.88
543.31	40194.02
543.48	40217.43
543.64	40643.40
543.81	40563.82
543.98	40257.21
544.15	40318.07
544.32	40629.36
544.48	41097.47
544.65	40598.93
544.82	40222.11
544.99	40442.12
545.16	40610.64
545.32	40521.69
545.49	40594.25
545.66	40687.87
545.83	40882.14
546.00	41177.04
546.16	40589.57
546.33	40493.61
546.50	40418.71
546.67	40935.97
546.83	40631.70
547.00	40596.59
547.17	40814.26
547.34	41015.55
547.50	41123.21
547.67	40910.22
547.84	41345.56
548.00	41521.10
548.17	41357.27
548.34	41202.79
548.51	41808.99
548.67	41818.35
548.84	41635.79
549.01	41471.95
549.18	41624.09
549.34	41118.53
549.51	41684.94
549.68	41401.74
549.84	41792.61
550.01	41841.76
550.18	41102.15
550.34	41340.88
550.51	41462.59
550.68	41553.87
550.84	41214.49
551.01	41799.63
551.18	41490.68
551.34	41839.42
551.51	42103.90
551.68	42066.45
551.84	41968.15
552.01	41581.96
552.18	42071.13
552.34	41855.80
552.51	42206.88
552.68	41933.04
552.84	41940.06
553.01	42211.56
553.18	42361.36
553.34	42078.15
553.51	41975.17
553.67	42576.69
553.84	42529.87
554.01	42637.54
554.17	42586.05
554.34	42469.02
554.51	42766.27
554.67	42309.86
554.84	42628.18
555.00	42604.77
555.17	42670.31
555.33	42609.45
555.50	42314.55
555.67	42754.57
555.83	43068.20
556.00	42752.23
556.16	43035.43
556.33	42630.52
556.50	42686.69
556.66	42670.31
556.83	42609.45
556.99	43201.61
557.16	42934.79
557.32	42958.19
557.49	43164.16
557.65	43363.11
557.82	42541.58
557.98	43166.50
558.15	42829.46
558.32	43040.11
558.48	42848.19
558.65	42993.30
558.81	42895.00
558.98	43234.38
559.14	43316.29
559.31	43161.82
559.47	43194.59
559.64	43372.47
559.80	43470.77
559.97	43739.93
560.13	43037.77
560.30	43398.21
560.46	43306.93
560.63	43236.72
560.79	43810.15
560.96	43517.58
561.12	43250.76
561.29	43150.12
561.45	43653.33
561.61	42836.48
561.78	43161.82
561.94	42836.48
562.11	43604.18
562.27	43030.75
562.44	43199.27
562.60	43377.15
562.77	43737.59
562.93	43430.98
563.10	43597.16
563.26	42986.28
563.42	43526.94
563.59	43742.27
563.75	43536.30
563.92	43833.55
564.08	43484.81
564.24	44133.14
564.41	43606.52
564.57	43372.47
564.74	43704.82
564.90	43903.77
565.07	43812.49
565.23	43632.27
565.39	43377.15
565.56	43803.13
565.72	43922.49
565.88	43758.66
566.05	43793.76
566.21	43480.13
566.38	43665.03
566.54	43615.88
566.70	43997.39
566.87	44023.14
567.03	44093.35
567.19	44416.35
567.36	43901.43
567.52	43690.78
567.68	43976.33
567.85	44161.23
568.01	43751.63
568.17	44610.61
568.34	44444.43
568.50	44128.46
568.66	44004.41
568.83	44011.43
568.99	44144.84
569.15	43697.80
569.32	43791.42
569.48	43756.32
569.64	44067.61
569.81	44100.37
569.97	44006.75
570.13	44271.23
570.30	43622.90
570.46	43594.82
570.62	44013.77
570.78	43658.01
570.95	43969.30
571.11	44439.75
571.27	43761.00
571.43	43920.15
571.60	44123.78
571.76	44301.66
571.92	44051.22
572.09	43824.19
572.25	44004.41
572.41	44020.80
572.57	44219.74
572.74	44779.13
572.90	44282.94
573.06	44322.72
573.22	44151.87
573.38	44182.29
573.55	44247.83
573.71	44311.02
573.87	44011.43
574.03	44100.37
574.20	43878.02
574.36	44399.96
574.52	44467.84
574.68	44086.33
574.84	44500.61
575.01	44350.81
575.17	44278.25
575.33	44172.93
575.49	44296.98
575.65	44765.09
575.82	44690.19
575.98	44659.76
576.14	44498.26
576.30	44362.51
576.46	43882.70
576.62	43849.94
576.79	44170.59
576.95	43826.53
577.11	44463.16
577.27	44528.69
577.43	44231.44
577.59	44205.70
577.75	44437.41
577.92	44151.87
578.08	44432.73
578.24	43899.09
578.40	44186.97
578.56	44545.08
578.72	43959.94
578.88	44737.00
579.04	44540.39
579.21	44170.59
579.37	44577.84
579.53	44128.46
579.69	44264.21
579.85	43838.23
580.01	44437.41
580.17	44566.14
580.33	44622.31
580.49	44790.83
580.65	44376.56
580.82	44041.86
580.98	44664.44
581.14	43936.54
581.30	44907.86
581.46	44311.02
581.62	44509.97
581.78	44194.00
581.94	44966.37
582.10	44662.10
582.26	44280.60
582.42	44519.33
582.58	44690.19
582.74	44006.75
582.90	43901.43
583.06	44596.57
583.22	44837.64
583.38	44828.28
583.54	44715.93
583.70	44968.71
583.86	44119.10
584.02	43882.70
584.18	44713.59
584.34	44453.79
584.50	44779.13
584.66	44507.63
584.82	44481.88
584.98	44858.71
585.14	44783.81
585.30	44100.37
585.46	44364.85
585.62	44545.08
585.78	44229.10
585.94	44299.32
586.10	44250.17
586.26	44395.28
586.42	44619.97
586.58	44858.71
586.74	44699.55
586.90	44533.37
587.06	44205.70
587.22	44973.39
587.38	44376.56
587.54	44891.48
587.70	44811.90
587.86	44563.80
588.02	44421.03
588.18	44921.90
588.34	44458.48
588.49	44531.03
588.65	43901.43
588.81	44339.11
588.97	44610.61
589.13	44208.04
589.29	44484.22
589.45	44500.61
589.61	44584.86
589.77	44481.88
589.93	45160.64
590.08	44294.64
590.24	45116.17
590.40	44891.48
590.56	44935.95
590.72	44961.69
590.88	44423.37
591.04	44622.31
591.20	45394.69
591.35	45113.83
591.51	44928.92
591.67	44423.37
591.83	45095.10
591.99	44793.17
592.15	44662.10
592.31	44795.51
592.46	44708.91
592.62	44603.59
592.78	44863.39
592.94	44713.59
593.10	44697.21
593.26	44907.86
593.41	44863.39
593.57	45076.38
593.73	44832.96
593.89	44619.97
594.05	44797.85
594.20	44645.72
594.36	44772.11
594.52	44701.89
594.68	44910.20
594.84	44584.86
594.99	45371.28
595.15	44552.10
595.31	45099.78
595.47	45191.06
595.62	45317.45
595.78	45572.57
595.94	45340.86
596.10	44935.95
596.25	44844.66
596.41	44996.80
596.57	44617.63
596.73	45350.22
596.88	44449.11
597.04	44458.48
597.20	44931.26
597.36	45177.02
597.51	44861.05
597.67	45460.23
597.83	44776.79
597.99	45240.21
598.14	45165.32
598.30	44861.05
598.46	44741.68
598.61	44870.41
598.77	44451.45
598.93	44669.12
599.09	44566.14
599.24	45392.35
599.40	45373.63
599.56	45160.64
599.71	45366.60
599.87	45518.74
600.03	44863.39
600.18	45099.78
600.34	44938.29
600.50	44978.07
600.65	45125.53
600.81	45003.82
600.97	45186.38
601.12	45324.47
601.28	45413.41
601.44	44652.74
601.59	44996.80
601.75	44767.43
601.91	45287.03
602.06	44673.81
602.22	45092.76
602.37	44928.92
602.53	44935.95
602.69	45088.08
602.84	44807.22
603.00	45195.74
603.16	45104.46
603.31	44699.55
603.47	44814.24
603.62	44720.62
603.78	45195.74
603.94	44959.35
604.09	45251.92
604.25	45055.31
604.40	45228.51
604.56	45354.90
604.71	44889.13
604.87	44676.15
605.03	44837.64
605.18	44807.22
605.34	45485.97
605.49	44788.49
605.65	45219.15
605.80	44875.09
605.96	44835.30
606.12	45071.70
606.27	45102.12
606.43	45092.76
606.58	45057.65
606.74	45102.12
606.89	44573.16
607.05	44924.24
607.20	44837.64
607.36	45090.42
607.51	45352.56
607.67	44744.02
607.82	44701.89
607.98	44673.81
608.13	44458.48
608.29	44591.89
608.44	44128.46
608.60	44320.38
608.75	44226.76
608.91	44521.67
609.06	44296.98
609.22	44985.10
609.37	44751.04
609.53	44554.44
609.68	44657.42
609.84	44442.09
609.99	44484.22
610.15	44222.08
610.30	44397.62
610.46	44268.89
610.61	44428.05
610.76	44573.16
610.92	44123.78
611.07	44399.96
611.23	44608.27
611.38	44793.17
611.54	44128.46
611.69	44320.38
611.84	44320.38
612.00	44076.97
612.15	44074.63
612.31	44439.75
612.46	44531.03
612.62	44397.62
612.77	44165.91
612.92	44439.75
613.08	44161.23
613.23	43899.09
613.39	44034.84
613.54	44095.69
613.69	43849.94
613.85	44205.70
614.00	44495.92
614.15	44458.48
614.31	44362.51
614.46	44582.52
614.62	44006.75
614.77	44252.51
614.92	44170.59
615.08	44009.09
615.23	43962.28
615.38	43882.70
615.54	43466.09
615.69	43552.69
615.84	43892.07
616.00	43660.35
616.15	43896.75
616.30	43746.95
616.46	43892.07
616.61	43587.80
616.76	43349.06
616.92	43641.63
617.07	43409.92
617.22	43512.90
617.37	43421.62
617.53	43634.61
617.68	43700.14
617.83	43491.83
617.99	43824.19
618.14	43786.74
618.29	43030.75
618.45	43325.66
618.60	43353.74
618.75	43147.78
618.90	43716.53
619.06	43569.07
619.21	43370.13
619.36	43416.94
619.51	43192.25
619.67	43302.25
619.82	43510.56
619.97	43070.54
620.12	43299.91
620.28	42499.45
620.43	42583.71
620.58	43133.73
620.73	43253.10
620.89	42993.30
621.04	43152.46
621.19	42939.47
621.34	42808.40
621.49	43349.06
621.65	42618.81
621.80	43306.93
621.95	43138.41
622.10	42651.58
622.25	42728.82
622.41	42438.59
622.56	42454.98
622.71	42916.06
622.86	42866.91
623.01	43433.32
623.16	43058.84
623.32	42801.38
623.47	43002.66
623.62	42859.89
623.77	42457.32
623.92	42761.59
624.07	42623.50
624.23	42227.95
624.38	42555.62
624.53	42199.86
624.68	42459.66
624.83	42162.41
624.98	42246.67
625.13	42249.01
625.29	42653.92
625.44	42340.29
625.59	42347.31
625.74	42120.28
625.89	42176.45
626.04	42204.54
626.19	42438.59
626.34	42501.79
626.49	42415.19
626.65	42256.03
626.80	42298.16
626.95	41989.21
627.10	41689.62
627.25	41851.12
627.40	41895.59
627.55	41600.68
627.70	41020.23
627.85	41446.21
628.00	42094.53
628.15	42003.25
628.30	41762.18
628.45	41904.95
628.60	41972.83
628.76	42082.83
628.91	41771.54
629.06	41968.15
629.21	41633.45
629.36	41425.14
629.51	41361.95
629.66	41696.64
629.81	41048.32
629.96	41172.36
630.11	41525.78
630.26	41483.66
630.41	41631.11
630.56	41167.68
630.71	41652.17
630.86	41256.62
631.01	41174.70
631.16	41612.38
631.31	40994.48
631.46	41338.54
631.61	41600.68
631.76	41579.62
631.91	41354.93
632.06	41078.74
632.21	41251.94
632.36	41406.42
632.51	40435.10
632.66	41574.94
632.81	40650.42
632.96	40652.76
633.10	40692.55
633.25	40734.68
633.40	41155.98
633.55	41205.13
633.70	40708.94
633.85	40781.49
634.00	40985.12
634.15	40921.93
634.30	40730.00
634.45	40765.11
634.60	40629.36
634.75	40926.61
634.90	40708.94
635.05	40825.96
635.19	40973.42
635.34	41038.95
635.49	40399.99
635.64	40584.89
635.79	40439.78
635.94	40416.37
636.09	40378.92
636.24	40446.80
636.39	40533.40
636.53	40121.46
636.68	40346.15
636.83	39957.63
636.98	40364.88
637.13	40451.48
637.28	39842.94
637.43	40662.13
637.57	40746.39
637.72	40692.55
637.87	39840.60
638.02	40311.05
638.17	40304.02
638.32	39941.24
638.46	39908.47
638.61	40187.00
638.76	39461.43
638.91	40034.86
639.06	39866.34
639.20	40121.46
639.35	40357.86
639.50	39805.49
639.65	39880.39
639.80	40535.74
639.94	39796.13
640.09	39845.28
640.24	39868.69
640.39	39611.23
640.54	40069.97
640.68	39512.92
640.83	39545.69
640.98	39672.08
641.13	39292.91
641.27	39683.78
641.42	39742.30
641.57	39955.29
641.72	39538.67
641.86	39576.12
642.01	39086.95
642.16	39824.22
642.31	38639.90
642.45	39318.66
642.60	39271.85
642.75	38595.43
642.90	38948.85
643.04	38979.28
643.19	39269.51
643.34	39416.96
643.48	39129.08
643.63	39302.28
643.78	39126.74
643.93	39063.54
644.07	38789.70
644.22	38972.26
644.37	38714.80
644.51	39157.16
644.66	38960.56
644.81	38911.41
644.95	39573.78
645.10	39058.86
645.25	39271.85
645.39	38965.24
645.54	39091.63
645.69	38768.63
645.83	39047.16
645.98	38789.70
646.13	38745.23
646.27	39044.82
646.42	38555.64
646.57	38974.60
646.71	38925.45
646.86	38948.85
647.00	38972.26
647.15	38782.68
647.30	39218.02
647.44	38462.02
647.59	38810.76
647.74	38485.43
647.88	37977.53
648.03	38354.36
648.17	38766.29
648.32	38431.60
648.47	38071.15
648.61	38588.41
648.76	38525.22
648.90	38560.33
649.05	38302.87
649.20	38298.19
649.34	38227.97
649.49	38220.95
649.63	38092.22
649.78	38309.89
649.92	38625.86
650.07	38258.40
650.21	38178.82
650.36	37951.79
650.51	38073.49
650.65	38518.20
650.80	38618.84
650.94	38469.04
651.09	38057.11
651.23	38164.78
651.38	38178.82
651.52	38239.67
651.67	38223.29
651.81	37806.67
651.96	37691.99
652.10	37624.11
652.25	37495.38
652.39	37963.49
652.54	38143.71
652.68	37734.12
652.83	37888.59
652.97	38071.15
653.12	37556.24
653.26	37596.03
653.41	37806.67
653.55	37837.10
653.70	37794.97
653.84	37486.02
653.99	37610.07
654.13	37680.28
654.27	37525.81
654.42	37855.82
654.56	37907.32
654.71	37691.99
654.85	37469.64
655.00	37539.85
655.14	37130.26
655.29	36776.84
655.43	36783.86
655.57	36980.46
655.72	37244.94
655.86	37118.56
656.01	37263.67
656.15	36828.33
656.30	37266.01
656.44	36636.41
656.58	36730.03
656.73	36601.30
656.87	36821.31
657.01	36753.43
657.16	37127.92
657.30	36718.32
657.45	36376.61
657.59	36135.53
657.73	36708.96
657.88	36755.77
658.02	36730.03
658.16	36500.65
658.31	37043.66
658.45	37120.90
658.60	36641.09
658.74	36336.82
658.88	36371.92
659.03	35714.23
659.17	36481.93
659.31	36423.42
659.46	36055.95
659.60	36074.68
659.74	35861.69
659.89	35927.22
660.03	36285.33
660.17	36374.27
660.32	36088.72
660.46	36580.23
660.60	35950.63
660.74	35990.42
660.89	36243.20
661.03	36172.98
661.17	35243.79
661.32	35461.46
661.46	35309.32
661.60	35646.36
661.74	35283.58
661.89	35508.27
662.03	36018.50
662.17	35309.32
662.31	35475.50
662.46	35639.34
662.60	35931.90
662.74	35321.02
662.88	35068.25
663.03	35026.12
663.17	35356.13
663.31	35140.80
663.45	35150.17
663.60	35438.05
663.74	34862.28
663.88	34852.92
664.02	34529.92
664.17	35005.05
664.31	34440.98
664.45	34752.27
664.59	34876.32
664.73	34946.54
664.88	35044.84
665.02	34209.27
665.16	34548.65
665.30	34506.52
665.44	34309.91
665.59	33900.32
665.73	34218.63
665.87	33951.81
666.01	34492.47
666.15	34174.16
666.29	33717.76
666.44	34403.53
666.58	33893.30
666.72	33720.10
666.86	34204.59
667.00	34148.42
667.14	34129.69
667.28	33752.87
667.43	33598.39
667.57	33589.03
667.71	33565.62
667.85	33820.74
667.99	33553.92
668.13	33642.86
668.27	33237.95
668.41	33635.84
668.56	33195.82
668.70	33027.30
668.84	33369.02
668.98	32947.72
669.12	32924.32
669.26	33411.15
669.40	32917.29
669.54	33057.73
669.68	33216.88
669.82	32751.12
669.96	32994.53
670.10	32929.00
670.25	32917.29
670.39	32514.72
670.53	32999.21
670.67	32364.93
670.81	32673.88
670.95	32638.77
671.09	32582.60
671.23	32376.63
671.37	32371.95
671.51	32552.17
671.65	32266.63
671.79	31721.28
671.93	32385.99
672.07	31803.20
672.21	31901.50
672.35	31810.22
672.49	31878.10
672.63	31976.40
672.77	31782.13
672.91	32070.02
673.05	31426.37
673.19	31531.70
673.33	31400.63
673.47	31131.47
673.61	30775.70
673.75	30794.43
673.89	31147.85
674.03	30646.97
674.17	30930.18
674.31	31365.52
674.45	30637.61
674.59	30621.23
674.73	31229.77
674.87	30824.86
675.01	30976.99
675.15	30843.58
675.29	30787.41
675.43	30693.79
675.56	30518.25
675.70	30274.83
675.84	30120.35
675.98	29357.34
676.12	30118.01
676.26	29839.49
676.40	29701.40
676.54	29539.90
676.68	29799.70
676.82	29378.40
676.96	29530.54
677.10	29338.62
677.23	29556.28
677.37	29230.95
677.51	29282.44
677.65	29303.51
677.79	28503.04
677.93	28886.89
678.07	28723.05
678.21	28554.54
678.34	28783.91
678.48	28425.81
678.62	28903.28
678.76	28634.11
678.90	28243.24
679.04	28641.14
679.18	28299.42
679.31	27786.84
679.45	27917.91
679.59	27718.96
679.73	27737.69
679.87	27697.90
680.00	27608.96
680.14	27402.99
680.28	27433.42
680.42	27082.34
680.56	27094.04
680.70	27173.62
680.83	27274.26
680.97	27026.17
681.11	26775.73
681.25	27119.79
681.39	26864.67
681.52	26677.43
681.66	26892.76
681.80	26490.18
681.94	26635.30
682.07	26354.43
682.21	26448.05
682.35	26211.66
682.49	26040.80
682.62	26321.66
682.76	25788.02
682.90	26476.14
683.04	25795.04
683.17	25984.63
683.31	25518.86
683.45	25802.07
683.59	25593.76
683.72	25383.11
683.86	25036.71
684.00	25270.76
684.13	25420.56
684.27	25163.10
684.41	25167.78
684.55	25268.42
684.68	24893.94
684.82	24938.41
684.96	24819.04
685.09	24711.38
685.23	24610.73
685.37	24236.25
685.50	24449.24
685.64	24292.42
685.78	24180.07
685.91	24449.24
686.05	24027.94
686.19	23597.28
686.32	23917.93
686.46	23517.70
686.60	23707.29
686.73	23700.26
686.87	23506.00
687.01	23400.68
687.14	23583.24
687.28	23070.66
687.42	23353.87
687.55	22892.78
687.69	22953.63
687.82	22759.37
687.96	22632.98
688.10	22857.67
688.23	22801.50
688.37	22478.50
688.50	22195.30
688.64	22443.40
688.78	22024.44
688.91	21958.91
689.05	22230.41
689.18	22384.88
689.32	21678.04
689.46	21982.31
689.59	21979.97
689.73	21986.99
689.86	21631.23
690.00	21539.95
690.13	21568.04
690.27	21628.89
690.41	21280.15
690.54	21350.37
690.68	21130.36
690.81	20980.56
690.95	21181.85
691.08	20748.85
691.22	20854.17
691.35	21015.67
691.49	20627.14
691.62	20891.62
691.76	20748.85
691.89	20861.19
692.03	20341.60
692.16	19983.49
692.30	20367.34
692.43	20135.63
692.57	19810.29
692.70	20175.42
692.84	20051.37
692.97	19955.41
693.11	19831.36
693.24	19625.39
693.38	19360.91
693.51	19541.13
693.65	19569.22
693.78	19459.21
693.92	19634.75
694.05	19293.04
694.19	19374.95
694.32	19384.32
694.45	19271.97
694.59	18977.06
694.72	18831.95
694.86	18682.16
694.99	18623.64
695.13	18707.90
695.26	18539.38
695.39	18288.95
695.53	18279.58
695.66	18333.42
695.80	18216.39
695.93	18326.39
696.07	17591.47
696.20	18178.94
696.33	18125.11
696.47	17841.90
696.60	17886.37
696.73	17937.87
696.87	17823.18
697.00	17647.64
697.14	17532.95
697.27	17687.43
697.40	17539.97
697.54	17647.64
697.67	17324.65
697.80	17366.78
697.94	17097.61
698.07	17123.36
698.21	17090.59
698.34	16908.03
698.47	16748.87
698.61	16554.61
698.74	16587.38
698.87	16407.16
699.01	16517.16
699.14	16203.53
699.27	16428.22
699.40	16341.62
699.54	16084.16
699.67	16058.42
699.80	16255.02
699.94	16046.71
700.07	16002.24
700.20	15786.91
700.34	16032.67
700.47	15737.76
700.60	15658.18
700.73	15791.59
700.87	15632.44
701.00	15353.91
701.13	15550.52
701.26	15566.90
701.40	15250.93
701.53	15447.54
701.66	15129.22
701.79	15101.14
701.93	15314.13
702.06	14724.31
702.19	14581.54
702.32	14979.43
702.46	14759.42
702.59	14672.82
702.72	14668.14
702.85	14808.57
702.99	14759.42
703.12	14628.35
703.25	14312.38
703.38	14499.62
703.51	14384.93
703.65	14078.32
703.78	14176.62
703.91	14024.49
704.04	14132.15
704.17	13734.26
704.31	14071.30
704.44	13668.73
704.57	13586.81
704.70	13439.36
704.83	13748.31
704.96	13713.20
705.10	13525.96
705.23	13717.88
>>>>>End Processed Spectral Data<<<<<
