SpectraSuite Data File
++++++++++++++++++++++++++++++++++++
Date: Fri Oct 25 11:33:15 EDT 2013
User: price-jones
Dark Spectrum Present: No
Reference Spectrum Present: No
Number of Sampled Component Spectra: 1
Spectrometers: USB2+H05261
Integration Time (usec): 100000 (USB2+H05261)
Spectra Averaged: 1 (USB2+H05261)
Boxcar Smoothing: 0 (USB2+H05261)
Correct for Electrical Dark: No (USB2+H05261)
Strobe/Lamp Enabled: No (USB2+H05261)
Correct for Detector Non-linearity: No (USB2+H05261)
Correct for Stray Light: No (USB2+H05261)
Number of Pixels in Processed Spectrum: 2048
>>>>>Begin Processed Spectral Data<<<<<
365.73	231.71
365.92	231.71
366.12	231.71
366.32	205.97
366.52	156.82
366.72	191.92
366.91	201.29
367.11	194.26
367.31	114.69
367.51	198.95
367.70	205.97
367.90	70.22
368.10	124.05
368.30	217.67
368.49	170.86
368.69	194.26
368.89	170.86
369.09	306.61
369.28	245.76
369.48	285.55
369.68	236.39
369.87	220.01
370.07	269.16
370.27	269.16
370.47	332.36
370.66	486.83
370.86	575.77
371.06	493.85
371.25	638.97
371.45	465.77
371.65	582.79
371.84	484.49
372.04	535.98
372.24	589.82
372.44	585.13
372.63	603.86
372.83	554.71
373.03	575.77
373.22	655.35
373.42	578.11
373.62	615.56
373.81	657.69
374.01	622.58
374.21	634.29
374.40	631.94
374.60	622.58
374.79	594.50
374.99	648.33
375.19	681.10
375.38	645.99
375.58	664.71
375.78	638.97
375.97	753.65
376.17	695.14
376.37	697.48
376.56	699.82
376.76	695.14
376.95	723.23
377.15	699.82
377.35	746.63
377.54	697.48
377.74	653.01
377.93	638.97
378.13	720.88
378.33	744.29
378.52	660.03
378.72	676.41
378.91	704.50
379.11	716.20
379.31	746.63
379.50	760.67
379.70	741.95
379.89	814.51
380.09	744.29
380.28	737.27
380.48	716.20
380.68	777.06
380.87	711.52
381.07	753.65
381.26	760.67
381.46	744.29
381.65	737.27
381.85	763.01
382.04	732.59
382.24	816.85
382.43	821.53
382.63	758.33
382.83	802.80
383.02	884.72
383.22	809.83
383.41	784.08
383.61	844.93
383.80	849.61
384.00	877.70
384.19	788.76
384.39	863.66
384.58	737.27
384.78	777.06
384.97	919.83
385.17	741.95
385.36	905.79
385.56	915.15
385.75	795.78
385.95	779.40
386.14	837.91
386.34	833.23
386.53	819.19
386.72	931.53
386.92	800.46
387.11	959.62
387.31	952.60
387.50	978.34
387.70	837.91
387.89	842.59
388.09	791.10
388.28	870.68
388.48	926.85
388.67	922.17
388.86	901.11
389.06	912.81
389.25	954.94
389.45	891.74
389.64	999.41
389.84	947.92
390.03	952.60
390.22	994.73
390.42	889.40
390.61	973.66
390.81	929.19
391.00	901.11
391.19	950.26
391.39	992.39
391.58	1048.56
391.78	980.68
391.97	1025.15
392.16	1015.79
392.36	1135.16
392.55	1158.57
392.75	1093.03
392.94	1039.20
393.13	1062.60
393.33	1055.58
393.52	999.41
393.71	1064.94
393.91	1107.07
394.10	1036.86
394.29	1100.05
394.49	1060.26
394.68	1121.12
394.88	1116.44
395.07	1181.97
395.26	1074.31
395.46	1095.37
395.65	1170.27
395.84	1167.93
396.04	1268.57
396.23	1088.35
396.42	1165.59
396.62	1233.46
396.81	1273.25
397.00	1263.89
397.19	1217.08
397.39	1200.69
397.58	1270.91
397.77	1287.29
397.97	1181.97
398.16	1217.08
398.35	1301.34
398.55	1259.21
398.74	1240.48
398.93	1277.93
399.12	1238.14
399.32	1268.57
399.51	1268.57
399.70	1341.13
399.90	1299.00
400.09	1299.00
400.28	1460.49
400.47	1341.13
400.67	1462.83
400.86	1369.21
401.05	1434.75
401.24	1462.83
401.44	1451.13
401.63	1352.83
401.82	1401.98
402.01	1308.36
402.21	1479.22
402.40	1476.88
402.59	1488.58
402.78	1568.16
402.97	1488.58
403.17	1467.52
403.36	1570.50
403.55	1540.07
403.74	1495.60
403.93	1542.41
404.13	1619.65
404.32	1624.33
404.51	1736.68
404.70	1626.67
404.89	1659.44
405.09	1694.55
405.28	1760.08
405.47	1753.06
405.66	1661.78
405.85	1666.46
406.05	1746.04
406.24	1710.93
406.43	1750.72
406.62	1708.59
406.81	1870.09
407.00	1760.08
407.20	1804.55
407.39	1865.41
407.58	1820.94
407.77	1877.11
407.96	1837.32
408.15	2036.27
408.34	1762.42
408.54	1930.94
408.73	1949.67
408.92	1947.33
409.11	2008.18
409.30	1968.39
409.49	2001.16
409.68	2031.58
409.87	1987.11
410.07	2026.90
410.26	2108.82
410.45	2022.22
410.64	2022.22
410.83	2106.48
411.02	2165.00
411.21	2120.53
411.40	2188.40
411.59	2345.22
411.78	2249.25
411.98	2232.87
412.17	2345.22
412.36	2260.96
412.55	2284.36
412.74	2382.67
412.93	2422.45
413.12	2331.17
413.31	2396.71
413.50	2324.15
413.69	2399.05
413.88	2471.61
414.07	2429.48
414.26	2438.84
414.45	2499.69
414.64	2516.08
414.83	2574.59
415.02	2612.04
415.22	2719.70
415.41	2768.85
415.60	2696.30
415.79	2754.81
415.98	2658.85
416.17	2796.94
416.36	2778.22
416.55	2670.55
416.74	2663.53
416.93	2761.83
417.12	2726.72
417.31	2801.62
417.50	2862.48
417.69	2846.09
417.88	2988.86
418.07	2944.39
418.26	2981.84
418.45	3014.61
418.64	3040.36
418.83	3052.06
419.02	3075.46
419.21	2991.20
419.39	3138.66
419.58	3105.89
419.77	3105.89
419.96	3124.62
420.15	3171.43
420.34	3211.22
420.53	3082.49
420.72	3243.98
420.91	3206.53
421.10	3262.71
421.29	3346.97
421.48	3126.96
421.67	3379.73
421.86	3363.35
422.05	3377.39
422.24	3309.52
422.43	3480.38
422.61	3412.50
422.80	3454.63
422.99	3442.93
423.18	3459.31
423.37	3496.76
423.56	3452.29
423.75	3473.36
423.94	3400.80
424.13	3258.03
424.32	3375.05
424.50	3396.12
424.69	3487.40
424.88	3499.10
425.07	3400.80
425.26	3510.80
425.45	3506.12
425.64	3478.04
425.83	3503.78
426.01	3452.29
426.20	3510.80
426.39	3510.80
426.58	3456.97
426.77	3496.76
426.96	3506.12
427.15	3442.93
427.33	3555.27
427.52	3442.93
427.71	3599.74
427.90	3695.71
428.09	3646.55
428.28	3770.60
428.46	3637.19
428.65	3700.39
428.84	3747.20
429.03	3927.42
429.22	3632.51
429.40	3789.33
429.59	3761.24
429.78	3501.44
429.97	3796.35
430.16	3714.43
430.34	3772.94
430.53	3974.23
430.72	3871.25
430.91	3824.44
431.10	3772.94
431.28	3911.04
431.47	4088.92
431.66	4084.23
431.85	3974.23
432.03	4063.17
432.22	4290.20
432.41	3995.29
432.60	4102.96
432.79	4128.70
432.97	4070.19
433.16	4196.58
433.35	4102.96
433.54	4292.54
433.72	4236.37
433.91	4320.63
434.10	4245.73
434.28	4210.62
434.47	4168.49
434.66	4327.65
434.85	4255.09
435.03	4337.01
435.22	4241.05
435.41	4304.25
435.59	4444.68
435.78	4376.80
435.97	4379.14
436.16	4447.02
436.34	4388.50
436.53	4524.26
436.72	4620.22
436.90	4594.47
437.09	4498.51
437.28	4444.68
437.46	4629.58
437.65	4578.09
437.84	4711.50
438.02	4540.64
438.21	4601.49
438.40	4610.86
438.58	4734.90
438.77	4793.42
438.96	4678.73
439.14	4957.25
439.33	4947.89
439.52	4992.36
439.70	5128.11
439.89	5032.15
440.08	5039.17
440.26	5100.03
440.45	4997.04
440.63	4985.34
440.82	5109.39
441.01	5270.89
441.19	5270.89
441.38	5200.67
441.57	5343.44
441.75	5303.65
441.94	5387.91
442.12	5399.62
442.31	5472.17
442.50	5542.39
442.68	5448.77
442.87	5392.59
443.05	5575.16
443.24	5502.60
443.43	5654.73
443.61	5664.10
443.80	5757.72
443.98	5479.19
444.17	5462.81
444.35	5579.84
444.54	5750.70
444.73	5741.33
444.91	5526.00
445.10	5570.48
445.28	5767.08
445.47	5633.67
445.65	5729.63
445.84	5743.67
446.02	5776.44
446.21	5867.72
446.39	5727.29
446.58	5764.74
446.77	5731.97
446.95	5664.10
447.14	5708.57
447.32	5797.51
447.51	5558.77
447.69	5696.86
447.88	5607.92
448.06	5696.86
448.25	5809.21
448.43	5827.93
448.62	5867.72
448.80	5830.27
448.99	5741.33
449.17	5935.60
449.36	5809.21
449.54	6090.07
449.73	5996.45
449.91	6132.20
450.10	6195.40
450.28	6176.67
450.46	6242.21
450.65	6111.14
450.83	6209.44
451.02	6239.87
451.20	6342.85
451.39	6207.10
451.57	6298.38
451.76	6136.88
451.94	6373.28
452.13	6335.83
452.31	6354.55
452.49	6249.23
452.68	6310.08
452.86	6368.60
453.05	6422.43
453.23	6436.47
453.42	6340.51
453.60	6380.30
453.78	6513.71
453.97	6448.18
454.15	6422.43
454.34	6459.88
454.52	6731.38
454.70	6511.37
454.89	6595.63
455.07	6635.42
455.26	6623.72
455.44	6637.76
455.62	6614.35
455.81	6738.40
455.99	6747.76
456.17	6766.49
456.36	6839.05
456.54	6738.40
456.73	6867.13
456.91	7164.38
457.09	7091.82
457.28	7014.59
457.46	6963.09
457.64	7112.89
457.83	7063.74
458.01	6916.28
458.19	7311.83
458.38	7129.27
458.56	7185.44
458.74	7103.53
458.93	7339.92
459.11	7332.90
459.29	7265.02
459.48	7272.04
459.66	7234.60
459.84	7445.24
460.03	7487.37
460.21	7456.95
460.39	7384.39
460.57	7571.63
460.76	7466.31
460.94	7480.35
461.12	7571.63
461.31	7733.13
461.49	7506.10
461.67	7611.42
461.85	7658.23
462.04	7648.87
462.22	8112.30
462.40	7698.02
462.59	7843.14
462.77	7749.51
462.95	7964.84
463.13	7786.96
463.32	7779.94
463.50	8046.76
463.68	8154.43
463.86	7978.89
464.05	7854.84
464.23	8009.31
464.41	7929.74
464.59	7873.56
464.78	7997.61
464.96	8156.77
465.14	7948.46
465.32	8107.62
465.50	8077.19
465.69	8203.58
465.87	8138.04
466.05	8173.15
466.23	8163.79
466.41	8231.66
466.60	8269.11
466.78	8280.82
466.96	8226.98
467.14	8114.64
467.32	8299.54
467.51	8365.07
467.69	8346.35
467.87	8308.90
468.05	8500.83
468.23	8505.51
468.41	8315.92
468.60	8423.59
468.78	8777.01
468.96	8444.65
469.14	8444.65
469.32	8760.63
469.50	8411.89
469.69	8744.24
469.87	8777.01
470.05	8793.39
470.23	8872.97
470.41	9015.74
470.59	8971.27
470.77	8767.65
470.95	9067.24
471.14	9149.15
471.32	8695.09
471.50	9039.15
471.68	9109.36
471.86	9092.98
472.04	9170.22
472.22	9308.31
472.40	8966.59
472.58	9383.21
472.77	9451.08
472.95	9390.23
473.13	9626.62
473.31	9357.46
473.49	9628.96
473.67	9373.85
473.85	9444.06
474.03	9879.40
474.21	9635.99
474.39	9841.95
474.57	9841.95
474.75	9970.68
474.93	9923.87
475.12	9841.95
475.30	10118.14
475.48	10239.84
475.66	9966.00
475.84	10012.81
476.02	10244.52
476.20	10415.38
476.38	10399.00
476.56	10541.77
476.74	10733.70
476.92	10682.20
477.10	10590.92
477.28	10808.59
477.46	10731.36
477.64	10743.06
477.82	11094.14
478.00	11281.38
478.18	11222.87
478.36	11325.85
478.54	11332.87
478.72	11346.92
478.90	11456.92
479.08	11679.27
479.26	11866.52
479.44	11679.27
479.62	11754.17
479.80	11833.75
479.98	11985.88
480.16	12348.67
480.34	12145.04
480.52	12292.49
480.70	12376.75
480.88	12336.96
481.06	12594.42
481.24	12571.02
481.41	12704.43
481.59	12744.22
481.77	12800.39
481.95	13048.49
482.13	13128.06
482.31	12901.03
482.49	13455.74
482.67	13228.71
482.85	13422.97
483.03	13699.16
483.21	13886.40
483.39	13930.87
483.57	13774.05
483.74	14127.47
483.92	14022.15
484.10	14118.11
484.28	14232.80
484.46	14600.26
484.64	14724.31
484.82	14516.00
485.00	14743.03
485.18	15239.23
485.35	15143.27
485.53	14995.81
485.71	15159.65
485.89	15288.38
486.07	15672.23
486.25	15576.27
486.43	15751.81
486.61	15398.38
486.78	16030.33
486.96	16063.10
487.14	16226.93
487.32	16437.58
487.50	16208.21
487.68	16444.60
487.85	16716.11
488.03	16837.81
488.21	17326.99
488.39	17184.21
488.57	17298.90
488.75	17282.52
488.92	17514.23
489.10	17638.28
489.28	17554.02
489.46	18253.84
489.64	17769.35
489.81	18113.41
489.99	18506.62
490.17	18216.39
490.35	18480.87
490.53	18347.46
490.70	18909.19
490.88	18686.84
491.06	19089.41
491.24	18913.87
491.41	19108.13
491.59	19428.79
491.77	19433.47
491.95	19758.80
492.13	19917.96
492.30	19988.18
492.48	19716.67
492.66	19709.65
492.84	20039.67
493.01	20196.48
493.19	20411.81
493.37	20276.06
493.54	20416.49
493.72	20631.82
493.90	20833.11
494.08	20823.75
494.25	21319.94
494.43	21191.21
494.61	21170.15
494.79	21488.46
494.96	21256.75
495.14	21350.37
495.32	22082.95
495.49	21743.58
495.67	21884.01
495.85	21949.54
496.02	22312.33
496.20	22309.99
496.38	22530.00
496.55	22424.67
496.73	22862.35
496.91	22768.73
497.09	23082.36
497.26	23047.26
497.44	22939.59
497.62	23344.50
497.79	23782.18
497.97	23433.44
498.14	23978.79
498.32	23915.59
498.50	23796.23
498.67	24390.72
498.85	24112.20
499.03	24348.59
499.20	24404.77
499.38	24219.86
499.56	24559.24
499.73	24617.75
499.91	24697.33
500.08	24697.33
500.26	24727.76
500.44	25057.78
500.61	24929.05
500.79	24723.08
500.97	25230.98
501.14	25392.47
501.32	25549.29
501.49	25198.21
501.67	25521.20
501.84	25813.77
502.02	25818.45
502.20	26267.83
502.37	25661.63
502.55	25741.21
502.72	25888.67
502.90	26403.58
503.07	25820.79
503.25	26094.63
503.43	26075.91
503.60	26501.89
503.78	26864.67
503.95	26284.22
504.13	26455.08
504.30	26909.14
504.48	27002.76
504.65	27318.73
504.83	27108.08
505.01	27608.96
505.18	27229.79
505.36	27634.71
505.53	27208.73
505.71	27658.11
505.88	27765.78
506.06	27964.72
506.23	27798.54
506.41	27838.33
506.58	28194.09
506.76	28023.23
506.93	28261.97
507.11	27971.74
507.28	28327.50
507.46	28166.01
507.63	28369.63
507.81	28404.74
507.98	28259.63
508.16	28613.05
508.33	28701.99
508.50	28882.21
508.68	29144.35
508.85	29371.38
509.03	29200.52
509.20	29303.51
509.38	29729.48
509.55	29549.26
509.73	29631.18
509.90	29479.05
510.08	29752.89
510.25	29420.53
510.42	29542.24
510.60	30230.36
510.77	29972.90
510.95	30492.50
511.12	30319.30
511.30	30010.35
511.47	30433.99
511.64	30302.92
511.82	30684.42
511.99	30539.31
512.17	30595.48
512.34	30668.04
512.51	31082.31
512.69	30871.67
512.86	30951.24
513.04	31323.39
513.21	31194.66
513.38	31295.30
513.56	31054.23
513.73	31335.09
513.90	31597.23
514.08	31337.43
514.25	31519.99
514.43	31819.58
514.60	31665.11
514.77	31550.42
514.95	32285.35
515.12	32041.93
515.29	31896.82
515.47	32231.52
515.64	32154.28
515.81	32074.70
515.99	32002.14
516.16	32723.03
516.33	32524.08
516.51	32884.53
516.68	32400.04
516.85	32945.38
517.03	33139.65
517.20	33017.94
517.37	32730.05
517.54	33102.20
517.72	33060.07
517.89	33682.65
518.06	33448.60
518.24	33144.33
518.41	33621.80
518.58	33303.48
518.75	33511.79
518.93	33809.04
519.10	33436.89
519.27	33649.88
519.45	33940.11
519.62	33869.89
519.79	33982.24
519.96	33975.22
520.14	34270.12
520.31	33699.03
520.48	34361.40
520.65	34078.20
520.83	34763.98
521.00	34391.83
521.17	34691.42
521.34	34677.38
521.52	34684.40
521.69	34976.97
521.86	35009.73
522.03	35288.26
522.20	35075.27
522.38	35709.55
522.55	35452.09
522.72	35208.68
522.89	35728.28
523.07	35817.22
523.24	35545.72
523.41	35667.42
523.58	35346.77
523.75	35917.86
523.92	35817.22
524.10	35571.46
524.27	35955.31
524.44	36053.61
524.61	36095.74
524.78	36250.22
524.96	36332.14
525.13	36151.91
525.30	36327.45
525.47	36566.19
525.64	36456.18
525.81	36465.55
525.98	36535.76
526.16	35828.92
526.33	36652.79
526.50	36891.52
526.67	36912.59
526.84	36847.05
527.01	36718.32
527.18	37064.72
527.36	37090.47
527.53	37284.73
527.70	37383.04
527.87	37301.12
528.04	37146.64
528.21	37240.26
528.38	37174.73
528.55	37523.47
528.72	37027.28
528.89	37137.28
529.07	37532.83
529.24	37371.33
529.41	37764.54
529.58	37593.68
529.75	37710.71
529.92	37713.05
530.09	37818.38
530.26	38000.94
530.43	38398.83
530.60	37876.89
530.77	38000.94
530.94	38167.12
531.11	37834.76
531.28	38408.19
531.46	38623.52
531.63	38375.42
531.80	38150.73
531.97	38508.83
532.14	38646.93
532.31	38464.36
532.48	38738.21
532.65	38689.06
532.82	38696.08
532.99	38747.57
533.16	38738.21
533.33	38876.30
533.50	38960.56
533.67	38888.00
533.84	39388.88
534.01	38852.89
534.18	38969.92
534.35	39632.29
534.52	39241.42
534.69	39175.89
534.86	40121.46
535.03	39070.56
535.20	39498.88
535.37	39746.98
535.54	40165.93
535.71	39840.60
535.88	40020.82
536.05	39653.36
536.22	40231.47
536.38	39761.02
536.55	39845.28
536.72	40123.80
536.89	39903.79
537.06	39438.03
537.23	40477.22
537.40	40060.61
537.57	40428.07
537.74	40325.09
537.91	40697.24
538.08	40662.13
538.25	39927.20
538.42	40858.73
538.59	40678.51
538.75	40329.77
538.92	40694.89
539.09	41022.57
539.26	40947.67
539.43	40662.13
539.60	41144.28
539.77	40603.61
539.94	40701.92
540.11	40989.80
540.28	41235.56
540.44	41216.83
540.61	40737.02
540.78	41013.21
540.95	40975.76
541.12	41134.92
541.29	41392.37
541.46	41474.29
541.62	41401.74
541.79	41464.93
541.96	40964.06
542.13	41488.34
542.30	41081.08
542.47	41415.78
542.63	42099.22
542.80	41736.43
542.97	42066.45
543.14	41982.19
543.31	42139.00
543.48	41713.03
543.64	42506.47
543.81	42234.97
543.98	42436.25
544.15	42183.48
544.32	42375.40
544.48	42810.74
544.65	42249.01
544.82	42799.04
544.99	42347.31
545.16	42408.17
545.32	42450.30
545.49	42775.63
545.66	43241.40
545.83	42892.66
546.00	42923.08
546.16	43133.73
546.33	42925.42
546.50	42726.48
546.67	43033.09
546.83	42740.52
547.00	43234.38
547.17	42700.73
547.34	43105.65
547.50	43349.06
547.67	43337.36
547.84	43276.51
548.00	43749.29
548.17	43922.49
548.34	43599.50
548.51	43519.92
548.67	43826.53
548.84	43803.13
549.01	43335.02
549.18	43215.65
549.34	43634.61
549.51	44041.86
549.68	43578.43
549.84	43730.57
550.01	43969.30
550.18	43643.97
550.34	43695.46
550.51	43580.78
550.68	44011.43
550.84	43634.61
551.01	44149.53
551.18	43894.41
551.34	43875.68
551.51	44107.40
551.68	43917.81
551.84	44233.78
552.01	43941.22
552.18	43906.11
552.34	44339.11
552.51	44032.50
552.68	43522.26
552.84	44367.20
553.01	44432.73
553.18	44285.28
553.34	44842.32
553.51	44311.02
553.67	44460.82
553.84	44603.59
554.01	44495.92
554.17	44847.00
554.34	44416.35
554.51	44678.49
554.67	45382.99
554.84	44994.46
555.00	44479.54
555.17	44619.97
555.33	45088.08
555.50	44701.89
555.67	45244.90
555.83	45095.10
556.00	45301.07
556.16	45162.98
556.33	45008.50
556.50	44912.54
556.66	44931.26
556.83	45078.72
556.99	45382.99
557.16	45301.07
557.32	45359.58
557.49	45570.23
557.65	45181.70
557.82	45003.82
557.98	45148.93
558.15	45577.25
558.32	45432.14
558.48	45289.37
558.65	45359.58
558.81	45368.94
558.98	45359.58
559.14	45455.54
559.31	45457.88
559.47	45490.65
559.64	45832.37
559.80	45668.53
559.97	45408.73
560.13	45507.04
560.30	45811.31
560.46	45825.35
560.63	45603.00
560.79	46241.96
560.96	45888.54
561.12	45965.78
561.29	46089.83
561.45	46136.64
561.61	46047.70
561.78	45825.35
561.94	45954.08
562.11	46164.73
562.27	46445.59
562.44	45743.43
562.60	46405.80
562.77	46225.58
562.93	46199.83
563.10	46209.20
563.26	46279.41
563.42	46773.27
563.59	46183.45
563.75	46064.08
563.92	45951.74
564.08	46232.60
564.24	46494.74
564.41	46167.07
564.57	46415.16
564.74	46487.72
564.90	46398.78
565.07	46050.04
565.23	46571.98
565.39	46300.48
565.56	46906.68
565.72	46368.35
565.88	46508.79
566.05	46586.02
566.21	46841.14
566.38	46642.20
566.54	46918.38
566.70	46822.42
566.87	46129.62
567.03	46340.27
567.19	46794.33
567.36	46511.13
567.52	46630.49
567.68	47037.75
567.85	46843.48
568.01	47243.71
568.17	46677.30
568.34	46623.47
568.50	46693.69
568.66	46611.77
568.83	46644.54
568.99	46583.68
569.15	46630.49
569.32	46909.02
569.48	46916.04
569.64	47061.15
569.81	46740.50
569.97	46696.03
570.13	47187.54
570.30	46700.71
570.46	46932.42
570.62	46763.90
570.78	46677.30
570.95	47023.70
571.11	47367.76
571.27	46969.87
571.43	46656.24
571.60	47035.41
571.76	46911.36
571.92	47105.62
572.09	47110.30
572.25	47035.41
572.41	46567.30
572.57	47229.67
572.74	47147.75
572.90	46948.81
573.06	46979.23
573.22	47283.50
573.38	47547.98
573.55	47185.20
573.71	47505.85
573.87	47058.81
574.03	46909.02
574.20	47412.23
574.36	47103.28
574.52	47086.90
574.68	47669.69
574.84	47555.00
575.01	47330.31
575.17	47756.29
575.33	47262.44
575.49	46965.19
575.65	47246.05
575.82	46927.74
575.98	47075.19
576.14	47239.03
576.30	47531.60
576.46	47405.21
576.62	47119.66
576.79	47358.40
576.95	47056.47
577.11	46892.63
577.27	47412.23
577.43	47182.86
577.59	47192.22
577.75	47271.80
577.92	47037.75
578.08	47569.05
578.24	47800.76
578.40	47487.13
578.56	47760.97
578.72	47098.60
578.88	47325.63
579.04	47590.11
579.21	47442.66
579.37	47407.55
579.53	47517.56
579.69	47503.51
579.85	47419.25
580.01	47215.63
580.17	47669.69
580.33	47683.73
580.49	47606.50
580.65	47459.04
580.82	47463.72
580.98	47330.31
581.14	47309.25
581.30	47903.74
581.46	47428.62
581.62	47400.53
581.78	47133.71
581.94	47545.64
582.10	47363.08
582.26	47945.87
582.42	47533.94
582.58	47854.59
582.74	47606.50
582.90	47545.64
583.06	48058.22
583.22	47672.03
583.38	47735.23
583.54	47367.76
583.70	47800.76
583.86	47629.90
584.02	47409.89
584.18	47363.08
584.34	47634.58
584.50	48123.75
584.66	47723.52
584.82	47529.26
584.98	47980.98
585.14	48025.45
585.30	47620.54
585.46	47515.22
585.62	47330.31
585.78	47611.18
585.94	47297.55
586.10	47775.02
586.26	47414.57
586.42	47697.78
586.58	47620.54
586.74	48100.35
586.90	47559.69
587.06	47508.19
587.22	47421.59
587.38	47746.93
587.54	48072.26
587.70	48093.33
587.86	47674.37
588.02	47625.22
588.18	47917.79
588.34	47592.45
588.49	47999.71
588.65	47812.46
588.81	48023.11
588.97	48016.09
589.13	47683.73
589.29	47749.27
589.45	48116.73
589.61	47725.86
589.77	48065.24
589.93	48037.16
590.08	48020.77
590.24	47929.49
590.40	47936.51
590.56	48313.34
590.72	48332.06
590.88	47744.59
591.04	47777.36
591.20	48360.15
591.35	48388.24
591.51	48198.65
591.67	48222.06
591.83	48694.85
591.99	48126.10
592.15	47966.94
592.31	48203.33
592.46	47667.35
592.62	48341.42
592.78	48203.33
592.94	48409.30
593.10	48100.35
593.26	48542.71
593.41	48259.51
593.57	48062.90
593.73	48662.08
593.89	48673.78
594.05	48413.98
594.20	48416.32
594.36	48914.86
594.52	48397.60
594.68	48580.16
594.84	48355.47
594.99	48589.52
595.15	48217.38
595.31	48905.49
595.47	48694.85
595.62	48339.08
595.78	48172.91
595.94	48095.67
596.10	48488.88
596.25	48385.89
596.41	48964.01
596.57	48006.73
596.73	48605.91
596.88	48144.82
597.04	48474.84
597.20	48165.88
597.36	48315.68
597.51	48772.08
597.67	48149.50
597.83	48112.05
597.99	48692.50
598.14	48545.05
598.30	48451.43
598.46	48641.01
598.61	48933.58
598.77	48528.67
598.93	48582.50
599.09	48708.89
599.24	48900.81
599.40	48456.11
599.56	48376.53
599.71	48870.39
599.87	49237.85
600.03	49017.84
600.18	48603.56
600.34	48374.19
600.50	48533.35
600.65	48643.35
600.81	48924.22
600.97	48956.99
601.12	48711.23
601.28	48889.11
601.44	48250.14
601.59	48692.50
601.75	48570.80
601.91	49006.14
602.06	48676.12
602.22	48713.57
602.37	48392.92
602.53	48428.02
602.69	48690.16
602.84	48416.32
603.00	48732.29
603.16	48346.11
603.31	48608.25
603.47	48828.26
603.62	48732.29
603.78	48545.05
603.94	48790.81
604.09	48786.13
604.25	48669.10
604.40	48336.74
604.56	48753.36
604.71	48619.95
604.87	48568.46
605.03	48179.93
605.18	48388.24
605.34	48404.62
605.49	48179.93
605.65	48732.29
605.80	48240.78
605.96	48390.58
606.12	48280.57
606.27	48486.54
606.43	48250.14
606.58	48292.27
606.74	48596.54
606.89	48633.99
607.05	48399.94
607.20	48516.96
607.36	48322.70
607.51	48392.92
607.67	48329.72
607.82	48259.51
607.98	48626.97
608.13	48435.05
608.29	48231.42
608.44	48360.15
608.60	47842.89
608.75	48528.67
608.91	48360.15
609.06	47976.30
609.22	48472.49
609.37	48570.80
609.53	48343.77
609.68	48793.15
609.84	48336.74
609.99	48065.24
610.15	48430.36
610.30	48474.84
610.46	48133.12
610.61	48240.78
610.76	48563.78
610.92	48175.25
611.07	48076.94
611.23	47714.16
611.38	48032.47
611.54	48362.49
611.69	48491.22
611.84	48271.21
612.00	47730.54
612.15	48217.38
612.31	48282.91
612.46	47852.25
612.62	47796.08
612.77	47831.19
612.92	48191.63
613.08	48165.88
613.23	48161.20
613.39	48151.84
613.54	48116.73
613.69	48385.89
613.85	48144.82
614.00	47955.24
614.15	48488.88
614.31	47487.13
614.46	47910.77
614.62	47770.33
614.77	47910.77
614.92	47625.22
615.08	47690.76
615.23	47716.50
615.38	47899.06
615.54	47842.89
615.69	47980.98
615.84	47803.10
616.00	47915.45
616.15	47924.81
616.30	47840.55
616.46	47395.85
616.61	47487.13
616.76	48034.81
616.92	47470.75
617.07	47746.93
617.22	47543.30
617.37	47440.32
617.53	47580.75
617.68	47697.78
617.83	47753.95
617.99	47819.49
618.14	47976.30
618.29	47304.57
618.45	47009.66
618.60	47224.99
618.75	47421.59
618.90	47311.59
619.06	47075.19
619.21	47494.15
619.36	47421.59
619.51	47119.66
619.67	46843.48
619.82	47592.45
619.97	47583.09
620.12	47276.48
620.28	47342.02
620.43	47367.76
620.58	47363.08
620.73	47543.30
620.89	47845.23
621.04	47391.17
621.19	47360.74
621.34	47157.11
621.49	46894.97
621.65	47093.92
621.80	47239.03
621.95	47199.24
622.10	47222.65
622.25	47246.05
622.41	47173.50
622.56	46710.07
622.71	47234.35
622.86	47105.62
623.01	47138.39
623.16	46981.57
623.32	47437.98
623.47	46738.16
623.62	46958.17
623.77	47009.66
623.92	46787.31
624.07	47103.28
624.23	47068.17
624.38	47229.67
624.53	46571.98
624.68	46012.59
624.83	46649.22
624.98	46822.42
625.13	46649.22
625.29	46398.78
625.44	46681.98
625.59	46726.46
625.74	46485.38
625.89	46148.34
626.04	46394.10
626.19	46532.19
626.34	46356.65
626.49	46330.90
626.65	45872.16
626.80	46469.00
626.95	45937.69
627.10	46295.80
627.25	46319.20
627.40	46279.41
627.55	46293.46
627.70	46504.10
627.85	46562.62
628.00	46312.18
628.15	46124.94
628.30	45640.45
628.45	45460.23
628.60	45893.22
628.76	46054.72
628.91	46134.30
629.06	46059.40
629.21	45778.54
629.36	46019.61
629.51	46183.45
629.66	46447.93
629.81	45755.13
629.96	45937.69
630.11	45752.79
630.26	45883.86
630.41	45888.54
630.56	45385.33
630.71	46059.40
630.86	45799.60
631.01	45521.08
631.16	45591.30
631.31	45755.13
631.46	45743.43
631.61	45748.11
631.76	45668.53
631.91	45713.00
632.06	45879.18
632.21	46047.70
632.36	46057.06
632.51	45354.90
632.66	45588.95
632.81	45317.45
632.96	45380.65
633.10	45181.70
633.25	45207.45
633.40	45385.33
633.55	45790.24
633.70	45483.63
633.85	45118.51
634.00	45008.50
634.15	45050.63
634.30	45008.50
634.45	45315.11
634.60	45408.73
634.75	44964.03
634.90	44919.56
635.05	45120.85
635.19	44732.32
635.34	44788.49
635.49	45083.40
635.64	44872.75
635.79	45422.78
635.94	45085.74
636.09	45017.86
636.24	44666.78
636.39	44837.64
636.53	45167.66
636.68	44622.31
636.83	44538.05
636.98	44444.43
637.13	44109.74
637.28	44458.48
637.43	44135.48
637.57	44720.62
637.72	44275.91
637.87	44306.34
638.02	44612.95
638.17	44554.44
638.32	44378.90
638.46	43803.13
638.61	44191.65
638.76	43950.58
638.91	44287.62
639.06	44383.58
639.20	44095.69
639.35	44130.80
639.50	43952.92
639.65	44367.20
639.80	44353.15
639.94	43920.15
640.09	44577.84
640.24	44430.39
640.39	44147.18
640.54	43817.17
640.68	43990.37
640.83	44060.58
640.98	44093.35
641.13	43901.43
641.27	44156.55
641.42	43854.62
641.57	43650.99
641.72	44416.35
641.86	43821.85
642.01	43620.56
642.16	43676.74
642.31	43695.46
642.45	44065.27
642.60	43250.76
642.75	43557.37
642.90	43538.65
643.04	43344.38
643.19	43672.06
643.34	43583.12
643.48	43365.45
643.63	43484.81
643.78	43789.08
643.93	43753.97
644.07	43459.07
644.22	43349.06
644.37	43828.87
644.51	43267.14
644.66	43634.61
644.81	43445.02
644.95	43613.54
645.10	43278.85
645.25	43278.85
645.39	42749.88
645.54	43320.98
645.69	42841.17
645.83	42948.83
645.98	43187.56
646.13	42735.84
646.27	43290.55
646.42	42934.79
646.57	42918.40
646.71	43353.74
646.86	42951.17
647.00	42682.01
647.15	43222.67
647.30	43423.96
647.44	42822.44
647.59	42801.38
647.74	42871.59
647.88	43236.72
648.03	43232.04
648.17	43468.43
648.32	43005.00
648.47	42990.96
648.61	42796.70
648.76	42873.93
648.90	42714.78
649.05	42616.47
649.20	42852.87
649.34	42909.04
649.49	42555.62
649.63	42660.94
649.78	43161.82
649.92	42550.94
650.07	42913.72
650.21	42677.33
650.36	42576.69
650.51	42494.77
650.65	42752.23
650.80	42333.27
650.94	42595.41
651.09	42628.18
651.23	41544.51
651.38	42288.80
651.52	41825.37
651.67	42494.77
651.81	42253.69
651.96	42328.59
652.10	41869.84
652.25	41930.70
652.39	42192.84
652.54	42302.84
652.68	41883.89
652.83	42279.44
652.97	42218.58
653.12	42220.92
653.26	42026.66
653.41	42160.07
653.55	42183.48
653.70	42103.90
653.84	42359.02
653.99	42347.31
654.13	42108.58
654.27	41951.76
654.42	41825.37
654.56	41787.92
654.71	42192.84
654.85	41801.97
655.00	42160.07
655.14	42405.83
655.29	41743.45
655.43	41759.84
655.57	41748.14
655.72	41123.21
655.86	41460.25
656.01	41450.89
656.15	41235.56
656.30	41790.27
656.44	41825.37
656.58	41301.09
656.73	41457.91
656.87	41153.64
657.01	41230.88
657.16	41312.80
657.30	41322.16
657.45	40868.09
657.59	40982.78
657.73	40825.96
657.88	41076.40
658.02	41191.09
658.16	40851.71
658.31	40954.69
658.45	41261.30
658.60	40935.97
658.74	40926.61
658.88	40912.56
659.03	40748.73
659.17	40877.46
659.31	40783.83
659.46	40690.21
659.60	40708.94
659.74	40900.86
659.89	40556.80
660.03	40245.51
660.17	40734.68
660.32	40313.39
660.46	40657.45
660.60	40114.44
660.74	40495.95
660.89	40519.35
661.03	40009.12
661.17	39735.27
661.32	39915.50
661.46	40383.60
661.60	39915.50
661.74	40142.53
661.89	39964.65
662.03	39620.59
662.17	39489.52
662.31	39517.60
662.46	39915.50
662.60	39653.36
662.74	39531.65
662.88	39241.42
663.03	39498.88
663.17	39388.88
663.31	39119.71
663.45	39679.10
663.60	39646.33
663.74	39505.90
663.88	39459.09
664.02	39175.89
664.17	39005.03
664.31	38857.57
664.45	38937.15
664.59	38574.37
664.73	39201.63
664.88	39044.82
665.02	38567.35
665.16	38768.63
665.30	38656.29
665.44	38780.34
665.59	38352.02
665.73	38546.28
665.87	38480.75
666.01	38293.50
666.15	38244.35
666.29	38539.26
666.44	38340.32
666.58	38234.99
666.72	38167.12
666.86	38033.71
667.00	37710.71
667.14	38171.80
667.28	38192.86
667.43	37521.13
667.57	37858.17
667.71	38050.09
667.85	37986.89
667.99	37792.63
668.13	37783.27
668.27	37322.18
668.41	37490.70
668.56	36797.90
668.70	36964.08
668.84	36903.23
668.98	37078.77
669.12	37422.83
669.26	37315.16
669.40	37350.27
669.54	37102.17
669.68	36933.65
669.82	37083.45
669.96	36594.28
670.10	36077.02
670.25	36598.96
670.39	36093.40
670.53	36769.82
670.67	36240.86
670.81	36561.51
670.95	36077.02
671.09	35988.08
671.23	36531.08
671.37	36353.20
671.51	36247.88
671.65	35969.35
671.79	36198.73
671.93	36112.13
672.07	35798.49
672.21	35938.93
672.35	35115.06
672.49	35796.15
672.63	35637.00
672.77	35442.73
672.91	35901.48
673.05	35147.82
673.19	35009.73
673.33	35075.27
673.47	34873.98
673.61	34541.63
673.75	34714.83
673.89	35007.39
674.03	34417.58
674.17	34506.52
674.31	34359.06
674.45	34216.29
674.59	34174.16
674.73	34298.21
674.87	33844.15
675.01	33743.50
675.15	34010.32
675.29	33874.57
675.43	33734.14
675.56	33909.68
675.70	33907.34
675.84	33338.59
675.98	32297.05
676.12	33474.34
676.26	34005.64
676.40	33113.90
676.54	33464.98
676.68	32961.76
676.82	32549.83
676.96	33006.23
677.10	33266.03
677.23	32828.35
677.37	32641.11
677.51	32498.34
677.65	32425.78
677.79	32245.56
677.93	32397.70
678.07	31805.54
678.21	32105.13
678.34	31821.92
678.48	31758.73
678.62	31618.30
678.76	31552.76
678.90	31667.45
679.04	31468.50
679.18	31779.79
679.31	31028.48
679.45	31433.39
679.59	31243.81
679.73	31515.31
679.87	30314.62
680.00	30780.39
680.14	30759.32
680.28	30726.55
680.42	30813.15
680.56	30630.59
680.70	30197.59
680.83	30160.14
680.97	29872.26
681.11	30340.36
681.25	29687.36
681.39	29806.72
681.52	29633.52
681.66	29404.15
681.80	29394.79
681.94	29202.86
682.07	29127.97
682.21	28940.72
682.35	28772.21
682.49	28938.38
682.62	28959.45
682.76	29132.65
682.90	28833.06
683.04	28701.99
683.17	28542.83
683.31	28308.78
683.45	28060.68
683.59	28458.57
683.72	27838.33
683.86	28116.86
684.00	28072.39
684.13	27920.25
684.27	27679.18
684.41	27466.19
684.55	27775.14
684.68	27637.05
684.82	27330.44
684.96	27094.04
685.09	27365.54
685.23	27110.43
685.37	27412.35
685.50	27484.91
685.64	27211.07
685.78	26984.04
685.91	26754.66
686.05	26347.41
686.19	26073.57
686.32	26136.76
686.46	25750.57
686.60	25991.65
686.73	25993.99
686.87	25970.58
687.01	25729.51
687.14	25792.70
687.28	25568.01
687.42	25528.22
687.55	25673.34
687.69	25551.63
687.82	25179.48
687.96	25181.82
688.10	25022.67
688.23	24978.20
688.37	25153.74
688.50	24975.86
688.64	24713.72
688.78	24709.04
688.91	24629.46
689.05	24863.51
689.18	24343.91
689.32	24044.32
689.46	23864.10
689.59	23983.47
689.73	23807.93
689.86	24119.22
690.00	24173.05
690.13	23585.58
690.27	23658.14
690.41	23653.45
690.54	23204.07
690.68	23211.09
690.81	23384.29
690.95	22981.72
691.08	22948.95
691.22	22693.83
691.35	23016.83
691.49	22911.50
691.62	22801.50
691.76	22405.95
691.89	22082.95
692.03	22061.89
692.16	22197.64
692.30	22232.75
692.43	22036.14
692.57	21633.57
692.70	21750.60
692.84	22047.85
692.97	21294.19
693.11	21905.07
693.24	21216.96
693.38	21504.84
693.51	21231.00
693.65	20879.92
693.78	20751.19
693.92	21308.24
694.05	21348.03
694.19	20971.20
694.32	20865.88
694.45	21174.83
694.59	21015.67
694.72	20943.11
694.86	20463.30
694.99	20091.16
695.13	20285.42
695.26	20018.60
695.39	20142.65
695.53	19922.64
695.66	19777.53
695.80	19634.75
695.93	19953.07
696.07	19978.81
696.20	19372.61
696.33	19026.21
696.47	18932.59
696.60	19274.31
696.73	18944.30
696.87	19293.04
697.00	19178.35
697.14	19058.98
697.27	18759.39
697.40	18611.94
697.54	18714.92
697.67	18581.51
697.80	18567.47
697.94	18431.72
698.07	18291.29
698.21	18251.50
698.34	18389.59
698.47	18134.47
698.61	17455.72
698.74	17568.06
698.87	17745.94
699.01	17434.65
699.14	17769.35
699.27	17603.17
699.40	17158.47
699.54	17118.68
699.67	17605.51
699.80	17221.66
699.94	17439.33
700.07	16994.63
700.20	17034.42
700.34	16578.01
700.47	16910.37
700.60	16882.28
700.73	17055.48
700.87	16690.36
701.00	16236.30
701.13	16470.35
701.26	16535.88
701.40	16137.99
701.53	16116.93
701.66	16032.67
701.79	16236.30
701.93	15908.62
702.06	15857.13
702.19	15686.27
702.32	15672.23
702.46	15744.78
702.59	16107.57
702.72	15742.44
702.85	15707.34
702.99	15606.69
703.12	15180.71
703.25	15297.74
703.38	14829.63
703.51	15159.65
703.65	14904.53
703.78	14773.46
703.91	14696.22
704.04	14705.59
704.17	14476.21
704.31	14443.45
704.44	14927.94
704.57	14501.96
704.70	14176.62
704.83	14384.93
704.96	14125.13
705.10	14174.28
705.23	13736.60
>>>>>End Processed Spectral Data<<<<<
