SpectraSuite Data File
++++++++++++++++++++++++++++++++++++
Date: Fri Oct 25 11:34:11 EDT 2013
User: price-jones
Dark Spectrum Present: No
Reference Spectrum Present: No
Number of Sampled Component Spectra: 1
Spectrometers: USB2+H05261
Integration Time (usec): 100000 (USB2+H05261)
Spectra Averaged: 1 (USB2+H05261)
Boxcar Smoothing: 0 (USB2+H05261)
Correct for Electrical Dark: No (USB2+H05261)
Strobe/Lamp Enabled: No (USB2+H05261)
Correct for Detector Non-linearity: No (USB2+H05261)
Correct for Stray Light: No (USB2+H05261)
Number of Pixels in Processed Spectrum: 2048
>>>>>Begin Processed Spectral Data<<<<<
365.73	236.39
365.92	236.39
366.12	236.39
366.32	236.39
366.52	229.37
366.72	173.20
366.91	215.33
367.11	229.37
367.31	161.50
367.51	191.92
367.70	128.73
367.90	217.67
368.10	243.42
368.30	248.10
368.49	147.45
368.69	198.95
368.89	154.48
369.09	138.09
369.28	175.54
369.48	133.41
369.68	220.01
369.87	297.25
370.07	234.05
370.27	313.63
370.47	360.44
370.66	454.06
370.86	458.74
371.06	505.56
371.25	587.47
371.45	510.24
371.65	519.60
371.84	550.03
372.04	566.41
372.24	566.41
372.44	608.54
372.63	631.94
372.83	664.71
373.03	566.41
373.22	615.56
373.42	638.97
373.62	650.67
373.81	638.97
374.01	638.97
374.21	645.99
374.40	545.34
374.60	667.05
374.79	592.16
374.99	638.97
375.19	627.26
375.38	624.92
375.58	645.99
375.78	653.01
375.97	582.79
376.17	615.56
376.37	732.59
376.56	657.69
376.76	610.88
376.95	683.44
377.15	739.61
377.35	720.88
377.54	685.78
377.74	678.76
377.93	669.39
378.13	667.05
378.33	692.80
378.52	599.18
378.72	765.36
378.91	697.48
379.11	638.97
379.31	730.25
379.50	683.44
379.70	725.57
379.89	748.97
380.09	751.31
380.28	739.61
380.48	748.97
380.68	622.58
380.87	758.33
381.07	638.97
381.26	826.21
381.46	727.91
381.65	725.57
381.85	755.99
382.04	788.76
382.24	779.40
382.43	777.06
382.63	805.14
382.83	741.95
383.02	851.96
383.22	795.78
383.41	758.33
383.61	814.51
383.80	851.96
384.00	760.67
384.19	753.65
384.39	774.72
384.58	849.61
384.78	791.10
384.97	802.80
385.17	765.36
385.36	858.98
385.56	779.40
385.75	816.85
385.95	816.85
386.14	901.11
386.34	870.68
386.53	821.53
386.72	875.36
386.92	880.04
387.11	924.51
387.31	877.70
387.50	973.66
387.70	884.72
387.89	929.19
388.09	873.02
388.28	875.36
388.48	947.92
388.67	903.45
388.86	889.40
389.06	929.19
389.25	919.83
389.45	912.81
389.64	905.79
389.84	950.26
390.03	966.64
390.22	978.34
390.42	1001.75
390.61	933.87
390.81	931.53
391.00	1006.43
391.19	976.00
391.39	971.32
391.58	1001.75
391.78	1008.77
391.97	936.21
392.16	994.73
392.36	1062.60
392.55	966.64
392.75	1081.33
392.94	1036.86
393.13	1055.58
393.33	1043.88
393.52	1086.01
393.71	1062.60
393.91	1022.81
394.10	1067.28
394.29	1069.62
394.49	1034.52
394.68	1090.69
394.88	1121.12
395.07	1083.67
395.26	1100.05
395.46	1163.25
395.65	1160.91
395.84	1139.84
396.04	1235.80
396.23	1151.54
396.42	1097.71
396.62	1247.51
396.81	1203.04
397.00	1165.59
397.19	1165.59
397.39	1181.97
397.58	1233.46
397.77	1221.76
397.97	1233.46
398.16	1214.74
398.35	1210.06
398.55	1212.40
398.74	1256.87
398.93	1256.87
399.12	1198.35
399.32	1299.00
399.51	1296.66
399.70	1233.46
399.90	1315.38
400.09	1371.55
400.28	1315.38
400.47	1439.43
400.67	1329.42
400.86	1313.04
401.05	1383.26
401.24	1409.00
401.44	1453.47
401.63	1451.13
401.82	1460.49
402.01	1481.56
402.21	1507.30
402.40	1387.94
402.59	1430.07
402.78	1441.77
402.97	1486.24
403.17	1467.52
403.36	1626.67
403.55	1596.25
403.74	1586.88
403.93	1451.13
404.13	1600.93
404.32	1533.05
404.51	1521.35
404.70	1593.90
404.89	1694.55
405.09	1727.32
405.28	1629.01
405.47	1638.38
405.66	1621.99
405.85	1680.50
406.05	1724.97
406.24	1671.14
406.43	1715.61
406.62	1748.38
406.81	1750.72
407.00	1804.55
407.20	1781.15
407.39	1912.22
407.58	1849.02
407.77	1769.44
407.96	1891.15
408.15	1849.02
408.34	1851.36
408.54	1865.41
408.73	1977.75
408.92	1877.11
409.11	2062.01
409.30	1970.73
409.49	1923.92
409.68	1886.47
409.87	2038.61
410.07	1928.60
410.26	2083.08
410.45	2038.61
410.64	2019.88
410.83	2052.65
411.02	2024.56
411.21	2064.35
411.40	2078.40
411.59	2204.78
411.78	2244.57
411.98	2235.21
412.17	2157.97
412.36	2188.40
412.55	2239.89
412.74	2333.51
412.93	2314.79
413.12	2326.49
413.31	2392.03
413.50	2312.45
413.69	2450.54
413.88	2401.39
414.07	2502.03
414.26	2506.71
414.45	2429.48
414.64	2497.35
414.83	2541.82
415.02	2476.29
415.22	2693.96
415.41	2548.84
415.60	2509.05
415.79	2670.55
415.98	2733.75
416.17	2602.68
416.36	2567.57
416.55	2726.72
416.74	2759.49
416.93	2712.68
417.12	2775.88
417.31	2787.58
417.50	2904.60
417.69	2911.63
417.88	2757.15
418.07	2759.49
418.26	2911.63
418.45	2890.56
418.64	3028.65
418.83	2942.05
419.02	3073.12
419.21	3075.46
419.39	3061.42
419.58	2913.97
419.77	2853.11
419.96	2998.23
420.15	3084.83
420.34	3119.93
420.53	3077.80
420.72	3028.65
420.91	3038.02
421.10	3162.06
421.29	3129.30
421.48	3117.59
421.67	3164.40
421.86	3229.94
422.05	3311.86
422.24	3222.92
422.43	3239.30
422.61	3421.86
422.80	3365.69
422.99	3274.41
423.18	3321.22
423.37	3318.88
423.56	3232.28
423.75	3272.07
423.94	3267.39
424.13	3136.32
424.32	3330.58
424.50	3353.99
424.69	3468.67
424.88	3454.63
425.07	3400.80
425.26	3297.81
425.45	3253.34
425.64	3452.29
425.83	3377.39
426.01	3456.97
426.20	3396.12
426.39	3454.63
426.58	3449.95
426.77	3393.78
426.96	3517.83
427.15	3515.48
427.33	3449.95
427.52	3506.12
427.71	3485.06
427.90	3520.17
428.09	3592.72
428.28	3632.51
428.46	3714.43
428.65	3552.93
428.84	3714.43
429.03	3574.00
429.22	3648.90
429.40	3684.00
429.59	3899.33
429.78	3435.91
429.97	3606.77
430.16	3613.79
430.34	3712.09
430.53	3754.22
430.72	3840.82
430.91	3815.07
431.10	3742.52
431.28	3831.46
431.47	3908.69
431.66	3894.65
431.85	3786.99
432.03	3925.08
432.22	4081.89
432.41	4072.53
432.60	3843.16
432.79	3988.27
432.97	3992.95
433.16	4011.68
433.35	3845.50
433.54	4053.81
433.72	4079.55
433.91	3985.93
434.10	4163.81
434.28	4044.45
434.47	4208.28
434.66	4175.52
434.85	4168.49
435.03	4184.88
435.22	4255.09
435.41	4273.82
435.59	4241.05
435.78	4416.59
435.97	4245.73
436.16	4166.15
436.34	4337.01
436.53	4290.20
436.72	4346.37
436.90	4374.46
437.09	4432.97
437.28	4507.87
437.46	4428.29
437.65	4374.46
437.84	4477.44
438.02	4430.63
438.21	4613.20
438.40	4533.62
438.58	4568.73
438.77	4795.76
438.96	4601.49
439.14	4844.91
439.33	4748.95
439.52	4699.80
439.70	4954.91
439.89	4835.55
440.08	5006.41
440.26	4947.89
440.45	4983.00
440.63	5018.11
440.82	5198.33
441.01	4863.63
441.19	5210.03
441.38	5235.78
441.57	5022.79
441.75	5142.16
441.94	5118.75
442.12	5331.74
442.31	5336.42
442.50	5238.12
442.68	5252.16
442.87	5490.90
443.05	5425.36
443.24	5359.83
443.43	5280.25
443.61	5500.26
443.80	5561.11
443.98	5355.15
444.17	5226.42
444.35	5418.34
444.54	5593.88
444.73	5568.13
444.91	5439.40
445.10	5563.45
445.28	5490.90
445.47	5453.45
445.65	5643.03
445.84	5579.84
446.02	5685.16
446.21	5427.70
446.39	5345.78
446.58	5617.29
446.77	5577.50
446.95	5514.30
447.14	5497.92
447.32	5628.99
447.51	5661.76
447.69	5647.71
447.88	5654.73
448.06	5654.73
448.25	5621.97
448.43	5673.46
448.62	5785.80
448.80	5731.97
448.99	5797.51
449.17	5837.30
449.36	5839.64
449.54	5809.21
449.73	5865.38
449.91	5799.85
450.10	5949.64
450.28	6087.73
450.46	5944.96
450.65	6115.82
450.83	5949.64
451.02	6076.03
451.20	6106.46
451.39	5987.09
451.57	5968.37
451.76	5961.34
451.94	6057.31
452.13	6094.76
452.31	5987.09
452.49	6207.10
452.68	6251.57
452.86	6176.67
453.05	6200.08
453.23	6263.27
453.42	6197.74
453.60	6153.27
453.78	6134.54
453.97	6108.80
454.15	6232.85
454.34	6221.14
454.52	6462.22
454.70	6363.92
454.89	6513.71
455.07	6490.31
455.26	6305.40
455.44	6462.22
455.62	6429.45
455.81	6569.88
455.99	6480.94
456.17	6633.08
456.36	6633.08
456.54	6623.72
456.73	6511.37
456.91	6836.70
457.09	6972.46
457.28	6970.12
457.46	6836.70
457.64	6942.03
457.83	6920.96
458.01	7007.56
458.19	7119.91
458.38	6935.01
458.56	6965.43
458.74	6956.07
458.93	6925.65
459.11	7096.50
459.29	6993.52
459.48	7042.67
459.66	7166.72
459.84	6986.50
460.03	7382.05
460.21	7243.96
460.39	7218.21
460.57	7393.75
460.76	7222.89
460.94	7288.43
461.12	7077.78
461.31	7318.86
461.49	7325.88
461.67	7262.68
461.85	7316.51
462.04	7414.82
462.22	7918.03
462.40	7793.98
462.59	7573.97
462.77	7531.84
462.95	7625.47
463.13	7592.70
463.32	7569.29
463.50	7786.96
463.68	7962.50
463.86	7793.98
464.05	7648.87
464.23	7616.10
464.41	7969.52
464.59	7639.51
464.78	7864.20
464.96	7648.87
465.14	7644.19
465.32	7829.09
465.50	7939.10
465.69	7934.42
465.87	7887.61
466.05	7840.79
466.23	8035.06
466.41	8065.49
466.60	8166.13
466.78	7962.50
466.96	7887.61
467.14	7999.95
467.32	8154.43
467.51	8257.41
467.69	7896.97
467.87	8063.15
468.05	8369.76
468.23	8067.83
468.41	7960.16
468.60	8025.70
468.78	8425.93
468.96	8241.03
469.14	8231.66
469.32	8498.49
469.50	8173.15
469.69	8327.63
469.87	8491.46
470.05	8629.56
470.23	8667.00
470.41	8657.64
470.59	8461.04
470.77	8493.80
470.95	8767.65
471.14	8777.01
471.32	8571.04
471.50	8954.89
471.68	8805.10
471.86	8762.97
472.04	8917.44
472.22	9137.45
472.40	8896.38
472.58	9004.04
472.77	8891.70
472.95	9172.56
473.13	9287.25
473.31	9233.41
473.49	9193.62
473.67	9053.19
473.85	9132.77
474.03	9420.66
474.21	9568.11
474.39	9621.94
474.57	9481.51
474.75	9832.59
474.93	9783.44
475.12	9617.26
475.30	9729.61
475.48	9764.72
475.66	9851.31
475.84	9874.72
476.02	10022.17
476.20	9919.19
476.38	10216.44
476.56	10501.98
476.74	10408.36
476.92	10438.79
477.10	10279.63
477.28	10214.10
477.46	10399.00
477.64	10649.44
477.82	10738.38
478.00	10927.96
478.18	10883.49
478.36	11075.42
478.54	10967.75
478.72	11047.33
478.90	11356.28
479.08	11393.73
479.26	11367.98
479.44	11419.47
479.62	11545.86
479.80	11580.97
479.98	11831.41
480.16	11948.43
480.34	11723.74
480.52	11941.41
480.70	11875.88
480.88	11852.47
481.06	12131.00
481.24	12320.58
481.41	12138.02
481.59	12430.59
481.77	12423.56
481.95	12676.34
482.13	12856.56
482.31	12662.30
482.49	12769.96
482.67	12872.95
482.85	13198.28
483.03	13146.79
483.21	13163.17
483.39	13563.40
483.57	13458.08
483.74	13827.88
483.92	13673.41
484.10	13846.61
484.28	14040.87
484.46	14295.99
484.64	14408.34
484.82	14057.26
485.00	14202.37
485.18	14478.55
485.35	14640.05
485.53	14637.71
485.71	14628.35
485.89	15063.69
486.07	15080.07
486.25	15183.06
486.43	15323.49
486.61	15335.19
486.78	15419.45
486.96	15690.95
487.14	15630.10
487.32	15880.53
487.50	15864.15
487.68	15910.96
487.85	16189.49
488.03	16388.43
488.21	16346.30
488.39	16528.86
488.57	16669.30
488.75	16791.00
488.92	17074.21
489.10	17277.83
489.28	17319.96
489.46	17614.87
489.64	17404.22
489.81	17703.81
489.99	17355.07
490.17	17823.18
490.35	17860.63
490.53	18251.50
490.70	18078.30
490.88	18120.43
491.06	18462.15
491.24	18562.79
491.41	18541.72
491.59	18827.27
491.77	18775.78
491.95	18813.23
492.13	19073.03
492.30	19147.92
492.48	19304.74
492.66	19356.23
492.84	19597.31
493.01	19620.71
493.19	19751.78
493.37	19885.19
493.54	19840.72
493.72	20004.56
493.90	19777.53
494.08	20350.96
494.25	20318.19
494.43	20526.50
494.61	21027.37
494.79	20673.95
494.96	20709.06
495.14	21092.91
495.32	21404.20
495.49	21039.08
495.67	21514.20
495.85	21743.58
496.02	21341.00
496.20	21362.07
496.38	21806.77
496.55	22008.06
496.73	22363.82
496.91	22146.15
497.09	22249.13
497.26	22284.24
497.44	22471.48
497.62	22324.03
497.79	22941.93
497.97	23030.87
498.14	22860.01
498.32	23009.81
498.50	23016.83
498.67	23386.63
498.85	23028.53
499.03	23618.35
499.20	23091.73
499.38	23447.49
499.56	23770.48
499.73	23681.54
499.91	23929.64
500.08	24079.43
500.26	23861.76
500.44	24177.73
500.61	24119.22
500.79	24425.83
500.97	24191.78
501.14	24648.18
501.32	24617.75
501.49	24755.85
501.67	24393.06
501.84	25046.07
502.02	24797.98
502.20	25017.99
502.37	24779.25
502.55	24889.26
502.72	25277.79
502.90	25263.74
503.07	25043.73
503.25	25345.66
503.43	25518.86
503.60	25811.43
503.78	25582.06
503.95	25804.41
504.13	25654.61
504.30	25853.56
504.48	25848.88
504.65	26085.27
504.83	26295.92
505.01	26366.13
505.18	26232.72
505.36	26764.03
505.53	26618.91
505.71	26410.60
505.88	26932.54
506.06	26651.68
506.23	26565.08
506.41	26625.93
506.58	27192.34
506.76	26850.63
506.93	27421.72
507.11	27428.74
507.28	27487.25
507.46	27356.18
507.63	27791.52
507.81	27648.75
507.98	27318.73
508.16	28135.58
508.33	27817.27
508.50	28156.64
508.68	28053.66
508.85	28259.63
509.03	27955.36
509.20	27882.80
509.38	28828.38
509.55	28325.16
509.73	28800.29
509.90	28437.51
510.08	28828.38
510.25	28760.50
510.42	29127.97
510.60	28877.53
510.77	28912.64
510.95	29235.63
511.12	29130.31
511.30	28987.53
511.47	29406.49
511.64	29404.15
511.82	29425.22
511.99	29483.73
512.17	29738.85
512.34	30015.03
512.51	30085.25
512.69	29886.30
512.86	30012.69
513.04	29905.02
513.21	30141.42
513.38	30359.09
513.56	30632.93
513.73	30410.58
513.90	30555.69
514.08	30118.01
514.25	30817.83
514.43	30813.15
514.60	31023.80
514.77	30960.61
514.95	30923.16
515.12	30738.26
515.29	30981.67
515.47	30866.98
515.64	31435.74
515.81	31033.16
515.99	31208.70
516.16	31630.00
516.33	31545.74
516.51	31634.68
516.68	31707.24
516.85	31454.46
517.03	31873.42
517.20	31667.45
517.37	32016.19
517.54	32016.19
517.72	31997.46
517.89	31885.12
518.06	32275.99
518.24	32041.93
518.41	32126.19
518.58	32278.33
518.75	31962.36
518.93	32910.27
519.10	32292.37
519.27	32603.66
519.45	32575.58
519.62	32711.33
519.79	32739.41
519.96	32734.73
520.14	33359.66
520.31	32643.45
520.48	33240.29
520.65	33230.93
520.83	33399.44
521.00	33422.85
521.17	33516.47
521.34	33074.11
521.52	33832.44
521.69	33570.30
521.86	33937.77
522.03	34125.01
522.20	34071.18
522.38	34321.62
522.55	33890.96
522.72	34139.05
522.89	34497.16
523.07	34878.66
523.24	34295.87
523.41	34335.66
523.58	34139.05
523.75	34651.63
523.92	34553.33
524.10	34632.91
524.27	34609.50
524.44	35108.04
524.61	34712.49
524.78	35105.70
524.96	35225.06
525.13	35234.42
525.30	35211.02
525.47	35021.44
525.64	35491.88
525.81	35496.56
525.98	35538.69
526.16	35335.07
526.33	35342.09
526.50	35896.80
526.67	34841.21
526.84	35557.42
527.01	35730.62
527.18	35814.88
527.36	35988.08
527.53	35838.28
527.70	36105.10
527.87	36362.56
528.04	35772.75
528.21	36137.87
528.38	36175.32
528.55	36500.65
528.72	36018.50
528.89	36378.95
529.07	36397.67
529.24	36325.11
529.41	36421.08
529.58	36250.22
529.75	36488.95
529.92	37022.59
530.09	36975.78
530.26	36481.93
530.43	36893.86
530.60	36622.36
530.77	36556.83
530.94	37041.32
531.11	37020.25
531.28	37050.68
531.46	36980.46
531.63	37139.62
531.80	36933.65
531.97	37769.22
532.14	37174.73
532.31	37191.11
532.48	37607.73
532.65	37666.24
532.82	37392.40
532.99	37731.78
533.16	37614.75
533.33	37766.88
533.50	37963.49
533.67	37954.13
533.84	37586.66
534.01	37928.38
534.18	37816.04
534.35	38103.92
534.52	37989.24
534.69	38429.26
534.86	38820.13
535.03	37909.66
535.20	38738.21
535.37	38267.76
535.54	38766.29
535.71	38436.28
535.88	38660.97
536.05	38431.60
536.22	38824.81
536.38	38653.95
536.55	38433.94
536.72	38625.86
536.89	38749.91
537.06	38873.96
537.23	38691.40
537.40	39063.54
537.57	38682.03
537.74	39126.74
537.91	39196.95
538.08	39152.48
538.25	38794.38
538.42	39349.09
538.59	39660.38
538.75	39332.70
538.92	39693.15
539.09	39646.33
539.26	39325.68
539.43	39342.06
539.60	39250.78
539.77	39463.77
539.94	39756.34
540.11	39856.98
540.28	39440.37
540.44	39915.50
540.61	39555.05
540.78	39543.35
540.95	40079.33
541.12	39915.50
541.29	39526.97
541.46	40095.72
541.62	40350.84
541.79	40259.55
541.96	40051.25
542.13	39915.50
542.30	39974.01
542.47	40116.78
542.63	40582.55
542.80	40568.51
542.97	40470.20
543.14	40793.20
543.31	40896.18
543.48	40818.94
543.64	41109.17
543.81	41289.39
543.98	41099.81
544.15	40753.41
544.32	41163.00
544.48	41443.87
544.65	41151.30
544.82	40917.25
544.99	41303.43
545.16	40837.67
545.32	41031.93
545.49	41670.90
545.66	41682.60
545.83	41528.13
546.00	41228.54
546.16	41394.71
546.33	41453.23
546.50	41291.73
546.67	41743.45
546.83	41504.72
547.00	41256.62
547.17	41488.34
547.34	41633.45
547.50	41682.60
547.67	42192.84
547.84	41883.89
548.00	42497.11
548.17	42588.39
548.34	42124.96
548.51	42150.71
548.67	41970.49
548.84	42127.30
549.01	42192.84
549.18	42410.51
549.34	42567.32
549.51	42651.58
549.68	42653.92
549.84	41928.36
550.01	42440.93
550.18	42101.56
550.34	42340.29
550.51	42103.90
550.68	42848.19
550.84	42602.43
551.01	42784.99
551.18	42543.92
551.34	42419.87
551.51	43161.82
551.68	42848.19
551.84	42848.19
552.01	42787.33
552.18	43026.07
552.34	42506.47
552.51	43147.78
552.68	42941.81
552.84	42983.94
553.01	43091.60
553.18	42719.46
553.34	43171.18
553.51	43077.56
553.67	43414.60
553.84	43903.77
554.01	43522.26
554.17	43168.84
554.34	43718.87
554.51	43210.97
554.67	43768.02
554.84	43732.91
555.00	43510.56
555.17	43491.83
555.33	43721.21
555.50	43515.24
555.67	43632.27
555.83	43786.74
556.00	44261.87
556.16	43896.75
556.33	43978.67
556.50	43435.66
556.66	43714.19
556.83	43866.32
556.99	43866.32
557.16	44121.44
557.32	44261.87
557.49	44147.18
557.65	44292.30
557.82	43824.19
557.98	43753.97
558.15	44055.90
558.32	44233.78
558.48	43739.93
558.65	43955.26
558.81	44392.94
558.98	44069.95
559.14	44399.96
559.31	44301.66
559.47	44301.66
559.64	44112.08
559.80	44219.74
559.97	44088.67
560.13	43995.05
560.30	44734.66
560.46	44409.32
560.63	44596.57
560.79	44423.37
560.96	44849.35
561.12	44388.26
561.29	44678.49
561.45	44804.88
561.61	44910.20
561.78	44196.34
561.94	44100.37
562.11	44451.45
562.27	44875.09
562.44	44687.85
562.60	44964.03
562.77	44790.83
562.93	44722.96
563.10	45052.97
563.26	44767.43
563.42	45579.59
563.59	44854.03
563.75	44924.24
563.92	44666.78
564.08	44949.99
564.24	44893.82
564.41	44811.90
564.57	44830.62
564.74	45020.20
564.90	44811.90
565.07	44903.18
565.23	44919.56
565.39	45294.05
565.56	44844.66
565.72	45137.23
565.88	44987.44
566.05	44975.73
566.21	44837.64
566.38	45022.54
566.54	45237.87
566.70	45301.07
566.87	45497.67
567.03	44683.17
567.19	45202.77
567.36	45535.12
567.52	44844.66
567.68	45666.19
567.85	45319.79
568.01	45404.05
568.17	45397.03
568.34	45326.81
568.50	45043.61
568.66	45265.96
568.83	45497.67
568.99	45528.10
569.15	45359.58
569.32	45490.65
569.48	45191.06
569.64	45441.50
569.81	45771.52
569.97	45656.83
570.13	45806.62
570.30	45155.96
570.46	45647.47
570.62	45815.99
570.78	45242.56
570.95	45074.04
571.11	45495.33
571.27	45727.05
571.43	45755.13
571.60	45715.34
571.76	45502.35
571.92	45727.05
572.09	45315.11
572.25	45345.54
572.41	45441.50
572.57	45408.73
572.74	45811.31
572.90	45724.71
573.06	45820.67
573.22	46248.99
573.38	45659.17
573.55	46031.32
573.71	46085.15
573.87	45918.97
574.03	45806.62
574.20	46356.65
574.36	45808.96
574.52	46150.68
574.68	46291.12
574.84	45954.08
575.01	46300.48
575.17	46036.00
575.33	45776.20
575.49	45921.31
575.65	45682.58
575.82	46155.36
575.98	45551.51
576.14	46302.82
576.30	46057.06
576.46	46068.76
576.62	45830.03
576.79	45860.46
576.95	45387.67
577.11	45764.49
577.27	45713.00
577.43	45914.29
577.59	45883.86
577.75	45965.78
577.92	45661.51
578.08	45731.73
578.24	46279.41
578.40	46174.09
578.56	46153.02
578.72	46019.61
578.88	46263.03
579.04	45867.48
579.21	46387.08
579.37	46232.60
579.53	46354.31
579.69	46171.75
579.85	45970.46
580.01	45717.68
580.17	46141.32
580.33	46085.15
580.49	46225.58
580.65	46007.91
580.82	45942.38
580.98	46096.85
581.14	45614.70
581.30	46000.89
581.46	46026.63
581.62	45918.97
581.78	46080.47
581.94	46284.09
582.10	46293.46
582.26	45982.16
582.42	45727.05
582.58	46429.21
582.74	46511.13
582.90	46321.54
583.06	45975.14
583.22	45958.76
583.38	46263.03
583.54	46401.12
583.70	46391.76
583.86	46270.05
584.02	46012.59
584.18	46153.02
584.34	46403.46
584.50	46197.49
584.66	46433.89
584.82	46714.75
584.98	46410.48
585.14	46270.05
585.30	45825.35
585.46	46373.03
585.62	46260.69
585.78	46197.49
585.94	45661.51
586.10	46185.79
586.26	46216.22
586.42	46349.63
586.58	46459.63
586.74	46129.62
586.90	45717.68
587.06	46010.25
587.22	46607.09
587.38	46396.44
587.54	46611.77
587.70	46256.01
587.86	46829.44
588.02	46045.36
588.18	46623.47
588.34	46461.97
588.49	46373.03
588.65	46204.52
588.81	46611.77
588.97	46586.02
589.13	46471.34
589.29	46717.09
589.45	46562.62
589.61	46506.44
589.77	46461.97
589.93	46501.76
590.08	46759.22
590.24	46958.17
590.40	47208.61
590.56	47178.18
590.72	47016.68
590.88	46508.79
591.04	46689.01
591.20	47016.68
591.35	47145.41
591.51	46752.20
591.67	47337.33
591.83	47363.08
591.99	46398.78
592.15	46270.05
592.31	46649.22
592.46	46782.63
592.62	46644.54
592.78	46948.81
592.94	47019.02
593.10	46995.62
593.26	46939.44
593.41	47164.14
593.57	46782.63
593.73	47019.02
593.89	47243.71
594.05	47208.61
594.20	47004.98
594.36	47175.84
594.52	47040.09
594.68	46883.27
594.84	47091.58
594.99	47868.64
595.15	46796.67
595.31	47093.92
595.47	46532.19
595.62	47349.04
595.78	46892.63
595.94	47232.01
596.10	47477.77
596.25	47030.72
596.41	47180.52
596.57	47241.37
596.73	47592.45
596.88	46997.96
597.04	46934.76
597.20	47206.26
597.36	46777.95
597.51	46972.21
597.67	46789.65
597.83	46848.16
597.99	46962.85
598.14	47044.77
598.30	47112.64
598.46	47117.32
598.61	47316.27
598.77	47372.44
598.93	47512.88
599.09	47114.98
599.24	47498.83
599.40	47161.79
599.56	47082.22
599.71	47409.89
599.87	47901.40
600.03	47299.89
600.18	46813.05
600.34	47140.73
600.50	47009.66
600.65	46969.87
600.81	47475.43
600.97	47344.36
601.12	47463.72
601.28	47674.37
601.44	47000.30
601.59	47372.44
601.75	47131.37
601.91	46986.25
602.06	47330.31
602.22	47477.77
602.37	47133.71
602.53	47257.76
602.69	47388.83
602.84	46997.96
603.00	47096.26
603.16	47302.23
603.31	47129.03
603.47	47482.45
603.62	47180.52
603.78	47398.19
603.94	46941.78
604.09	47000.30
604.25	47107.96
604.40	47597.13
604.56	46960.51
604.71	47629.90
604.87	47044.77
605.03	46726.46
605.18	47044.77
605.34	47547.98
605.49	47194.56
605.65	47374.78
605.80	47274.14
605.96	47054.13
606.12	46906.68
606.27	47468.40
606.43	46726.46
606.58	46679.64
606.74	46934.76
606.89	46873.91
607.05	47412.23
607.20	47669.69
607.36	47250.74
607.51	47042.43
607.67	46948.81
607.82	47285.84
607.98	46969.87
608.13	47044.77
608.29	47002.64
608.44	46782.63
608.60	47246.05
608.75	46740.50
608.91	46967.53
609.06	46295.80
609.22	47283.50
609.37	46658.58
609.53	47248.39
609.68	47079.88
609.84	46539.21
609.99	47180.52
610.15	46885.61
610.30	47082.22
610.46	46457.29
610.61	46560.28
610.76	46845.82
610.92	46354.31
611.07	46632.83
611.23	46656.24
611.38	46852.84
611.54	46873.91
611.69	46838.80
611.84	46981.57
612.00	47070.51
612.15	46548.57
612.31	47114.98
612.46	46071.10
612.62	46820.08
612.77	46864.55
612.92	46960.51
613.08	46436.23
613.23	46759.22
613.39	46698.37
613.54	46323.88
613.69	46707.73
613.85	46314.52
614.00	46550.91
614.15	46955.83
614.31	46244.30
614.46	46237.28
614.62	46642.20
614.77	46387.08
614.92	46579.00
615.08	46335.59
615.23	46443.25
615.38	46920.72
615.54	46288.77
615.69	46401.12
615.84	46244.30
616.00	46742.84
616.15	46396.44
616.30	46649.22
616.46	46557.94
616.61	46138.98
616.76	46440.91
616.92	46007.91
617.07	46204.52
617.22	46241.96
617.37	45661.51
617.53	46513.47
617.68	46230.26
617.83	46248.99
617.99	46478.36
618.14	46045.36
618.29	46136.64
618.45	46085.15
618.60	46099.19
618.75	45588.95
618.90	45911.95
619.06	45897.91
619.21	46108.55
619.36	46469.00
619.51	45806.62
619.67	45701.30
619.82	45986.85
619.97	46113.23
620.12	46052.38
620.28	45759.81
620.43	46298.14
620.58	45710.66
620.73	45965.78
620.89	45993.87
621.04	45989.19
621.19	46012.59
621.34	46082.81
621.49	45745.77
621.65	45998.55
621.80	45879.18
621.95	45539.80
622.10	46045.36
622.25	45595.98
622.41	45834.71
622.56	45497.67
622.71	45591.30
622.86	45965.78
623.01	45928.33
623.16	45385.33
623.32	45619.38
623.47	45144.25
623.62	45509.38
623.77	45509.38
623.92	45743.43
624.07	45343.20
624.23	45443.84
624.38	45343.20
624.53	45441.50
624.68	45017.86
624.83	45179.36
624.98	45277.66
625.13	45043.61
625.29	45329.16
625.44	45230.85
625.59	44868.07
625.74	45366.60
625.89	44573.16
626.04	44905.52
626.19	45155.96
626.34	44926.58
626.49	44645.72
626.65	44858.71
626.80	44987.44
626.95	44442.09
627.10	44638.70
627.25	44830.62
627.40	44729.98
627.55	45216.81
627.70	45013.18
627.85	44931.26
628.00	45132.55
628.15	44678.49
628.30	44121.44
628.45	44512.31
628.60	44348.47
628.76	44175.27
628.91	44765.09
629.06	44186.97
629.21	44198.68
629.36	44507.63
629.51	44182.29
629.66	44947.65
629.81	44238.47
629.96	44545.08
630.11	44381.24
630.26	44205.70
630.41	44404.64
630.56	44414.01
630.71	44322.72
630.86	44425.71
631.01	44002.07
631.16	44414.01
631.31	44046.54
631.46	44313.36
631.61	44311.02
631.76	44069.95
631.91	44020.80
632.06	44315.70
632.21	44353.15
632.36	44360.17
632.51	43686.10
632.66	43997.39
632.81	44334.43
632.96	43725.89
633.10	43812.49
633.25	43981.01
633.40	43730.57
633.55	43931.86
633.70	43803.13
633.85	43564.39
634.00	43590.14
634.15	43672.06
634.30	43683.76
634.45	43519.92
634.60	43299.91
634.75	43969.30
634.90	43702.48
635.05	43821.85
635.19	43861.64
635.34	43765.68
635.49	43199.27
635.64	43335.02
635.79	43674.40
635.94	43452.05
636.09	43573.75
636.24	43536.30
636.39	43459.07
636.53	43601.84
636.68	42784.99
636.83	42621.16
636.98	43344.38
637.13	42913.72
637.28	43140.75
637.43	43126.71
637.57	43246.08
637.72	42855.21
637.87	43306.93
638.02	43203.95
638.17	43040.11
638.32	43192.25
638.46	42185.82
638.61	42560.30
638.76	42644.56
638.91	42454.98
639.06	43115.01
639.20	43061.18
639.35	42321.57
639.50	42625.84
639.65	42693.71
639.80	42981.60
639.94	42965.21
640.09	42724.14
640.24	42747.54
640.39	42181.13
640.54	42298.16
640.68	42660.94
640.83	42876.27
640.98	42494.77
641.13	42312.20
641.27	42370.72
641.42	42546.26
641.57	42733.50
641.72	42513.49
641.86	42218.58
642.01	41785.58
642.16	42024.32
642.31	41982.19
642.45	42387.10
642.60	41933.04
642.75	42188.16
642.90	42422.21
643.04	42256.03
643.19	42211.56
643.34	42010.28
643.48	41846.44
643.63	42195.18
643.78	42279.44
643.93	42733.50
644.07	42501.79
644.22	42279.44
644.37	41666.22
644.51	42244.33
644.66	42066.45
644.81	41984.53
644.95	42073.47
645.10	42029.00
645.25	41961.12
645.39	41741.11
645.54	41762.18
645.69	41532.81
645.83	41404.08
645.98	41813.67
646.13	41759.84
646.27	41413.44
646.42	41610.04
646.57	41621.75
646.71	41804.31
646.86	41532.81
647.00	41862.82
647.15	41736.43
647.30	41839.42
647.44	41467.27
647.59	41249.60
647.74	41591.32
647.88	41581.96
648.03	41621.75
648.17	41668.56
648.32	41799.63
648.47	41930.70
648.61	41659.20
648.76	40973.42
648.90	41123.21
649.05	41280.03
649.20	41113.85
649.34	41270.67
649.49	41366.63
649.63	41380.67
649.78	41593.66
649.92	41448.55
650.07	41106.83
650.21	41165.34
650.36	41207.47
650.51	40884.48
650.65	41483.66
650.80	41413.44
650.94	41291.73
651.09	40992.14
651.23	40203.38
651.38	40746.39
651.52	40367.22
651.67	40722.98
651.81	40926.61
651.96	41092.79
652.10	40467.86
652.25	40402.33
652.39	41013.21
652.54	40837.67
652.68	40884.48
652.83	40540.42
652.97	40505.31
653.12	41134.92
653.26	40313.39
653.41	40678.51
653.55	40842.35
653.70	40751.07
653.84	40746.39
653.99	40715.96
654.13	40603.61
654.27	40364.88
654.42	40718.30
654.56	40605.95
654.71	40720.64
654.85	40486.59
655.00	40814.26
655.14	40282.96
655.29	40631.70
655.43	40292.32
655.57	40449.14
655.72	39978.69
655.86	40332.11
656.01	39948.26
656.15	40013.80
656.30	39512.92
656.44	40346.15
656.58	40053.59
656.73	39779.74
656.87	39864.00
657.01	39793.79
657.16	39782.09
657.30	40275.94
657.45	40062.95
657.59	39669.74
657.73	39819.53
657.88	39789.11
658.02	40481.91
658.16	39936.56
658.31	39894.43
658.45	39770.38
658.60	39496.54
658.74	39758.68
658.88	39253.12
659.03	39643.99
659.17	39529.31
659.31	39225.04
659.46	39248.44
659.60	39463.77
659.74	39643.99
659.89	38700.76
660.03	38838.85
660.17	39049.50
660.32	39311.64
660.46	38888.00
660.60	38927.79
660.74	38843.53
660.89	38925.45
661.03	38801.40
661.17	39023.75
661.32	38321.59
661.46	38747.57
661.60	38803.74
661.74	38679.69
661.89	38593.09
662.03	38663.31
662.17	38349.68
662.31	38464.36
662.46	38396.49
662.60	38405.85
662.74	38232.65
662.88	38176.48
663.03	37830.08
663.17	37949.45
663.31	37593.68
663.45	38096.90
663.60	38160.09
663.74	37787.95
663.88	37879.23
664.02	37642.84
664.17	37986.89
664.31	37230.90
664.45	37720.07
664.59	37656.88
664.73	37661.56
664.88	37502.40
665.02	37092.81
665.16	37689.65
665.30	37570.28
665.44	37350.27
665.59	37078.77
665.73	36811.95
665.87	36837.69
666.01	37385.38
666.15	37118.56
666.29	36833.01
666.44	37329.20
666.58	36954.72
666.72	37010.89
666.86	36837.69
667.00	36500.65
667.14	36355.54
667.28	36631.72
667.43	36514.70
667.57	36627.04
667.71	36479.59
667.85	36549.81
667.99	36540.44
668.13	36240.86
668.27	36247.88
668.41	36013.82
668.56	35786.79
668.70	35805.52
668.84	35449.75
668.98	35800.83
669.12	35725.94
669.26	35644.02
669.40	35697.85
669.54	35887.43
669.68	35751.68
669.82	35735.30
669.96	35510.61
670.10	35321.02
670.25	35143.14
670.39	35065.91
670.53	35569.12
670.67	34941.86
670.81	35559.76
670.95	34967.60
671.09	34988.67
671.23	34808.45
671.37	34960.58
671.51	35253.15
671.65	34895.05
671.79	35014.41
671.93	34679.72
672.07	34909.09
672.21	34785.04
672.35	34436.30
672.49	34501.84
672.63	33741.16
672.77	34157.78
672.91	33905.00
673.05	33937.77
673.19	33710.74
673.33	33860.53
673.47	33706.05
673.61	33703.71
673.75	33598.39
673.89	33312.84
674.03	33624.14
674.17	32877.51
674.31	33315.19
674.45	33266.03
674.59	33476.68
674.73	33006.23
674.87	32694.94
675.01	32339.18
675.15	32673.88
675.29	32533.45
675.43	32472.59
675.56	32416.42
675.70	32587.28
675.84	32346.20
675.98	31335.09
676.12	32285.35
676.26	32067.68
676.40	31915.54
676.54	31651.06
676.68	31964.70
676.82	31508.29
676.96	31758.73
677.10	31538.72
677.23	31887.46
677.37	31377.22
677.51	31683.83
677.65	31297.64
677.79	31133.81
677.93	31206.36
678.07	30752.30
678.21	30906.77
678.34	31068.27
678.48	30625.91
678.62	30576.76
678.76	30497.18
678.90	30623.57
679.04	30602.50
679.18	30206.95
679.31	29855.87
679.45	30043.12
679.59	29584.37
679.73	30162.48
679.87	29591.39
680.00	29647.57
680.14	29551.60
680.28	29542.24
680.42	29259.04
680.56	29401.81
680.70	29476.71
680.83	28704.33
680.97	29172.44
681.11	29060.09
681.25	28898.59
681.39	28510.07
681.52	28474.96
681.66	28636.45
681.80	28226.86
681.94	28112.17
682.07	28163.67
682.21	27742.37
682.35	27735.35
682.49	28060.68
682.62	27761.09
682.76	27828.97
682.90	27828.97
683.04	27665.13
683.17	27552.79
683.31	27154.90
683.45	27063.61
683.59	26656.36
683.72	26838.92
683.86	26965.31
684.00	27154.90
684.13	26689.13
684.27	26682.11
684.41	26466.78
684.55	26693.81
684.68	26565.08
684.82	25935.48
684.96	26321.66
685.09	26038.46
685.23	26218.68
685.37	26576.78
685.50	26171.87
685.64	26134.42
685.78	25947.18
685.91	25816.11
686.05	25369.07
686.19	24900.96
686.32	25118.63
686.46	24861.17
686.60	24900.96
686.73	24898.62
686.87	25010.96
687.01	24744.14
687.14	24528.81
687.28	24613.07
687.42	24402.43
687.55	24446.90
687.69	24655.20
687.82	24189.44
687.96	24112.20
688.10	24271.36
688.23	24058.37
688.37	24283.06
688.50	24322.85
688.64	23779.84
688.78	23817.29
688.91	23941.34
689.05	23562.17
689.18	23225.14
689.32	22941.93
689.46	23360.89
689.59	22827.24
689.73	23220.45
689.86	23204.07
690.00	23012.15
690.13	23054.28
690.27	22766.39
690.41	22726.60
690.54	22398.93
690.68	22300.62
690.81	22380.20
690.95	22586.17
691.08	22342.75
691.22	21984.65
691.35	21954.22
691.49	22050.19
691.62	22181.26
691.76	21736.56
691.89	21462.71
692.03	21348.03
692.16	21076.52
692.30	21209.93
692.43	21577.40
692.57	20931.41
692.70	21003.97
692.84	20936.09
692.97	20856.51
693.11	20978.22
693.24	20779.28
693.38	20540.54
693.51	20283.08
693.65	20367.34
693.78	19981.15
693.92	20456.28
694.05	19889.87
694.19	20102.86
694.32	20135.63
694.45	20196.48
694.59	20093.50
694.72	19992.86
694.86	19627.73
694.99	19293.04
695.13	19190.05
695.26	19386.66
695.39	19068.34
695.53	19007.49
695.66	19157.28
695.80	19108.13
695.93	18934.93
696.07	18698.54
696.20	18349.80
696.33	18480.87
696.47	18583.85
696.60	18604.92
696.73	18403.63
696.87	18562.79
697.00	18321.71
697.14	18246.82
697.27	17916.80
697.40	17703.81
697.54	17989.36
697.67	17991.70
697.80	17914.46
697.94	17495.50
698.07	17806.80
698.21	17659.34
698.34	17481.46
698.47	17373.80
698.61	16980.59
698.74	16964.20
698.87	17207.62
699.01	16842.50
699.14	16985.27
699.27	16924.41
699.40	16425.88
699.54	16812.07
699.67	16627.17
699.80	16613.12
699.94	16608.44
700.07	16542.91
700.20	16332.26
700.34	16203.53
700.47	16273.74
700.60	16381.41
700.73	16156.72
700.87	15913.30
701.00	15903.94
701.13	15854.79
701.26	15803.30
701.40	15573.92
701.53	15709.68
701.66	15419.45
701.79	15447.54
701.93	15227.53
702.06	15183.06
702.19	15407.75
702.32	15164.33
702.46	15108.16
702.59	15030.92
702.72	15232.21
702.85	15222.84
702.99	14904.53
703.12	14796.87
703.25	14471.53
703.38	14614.30
703.51	14527.71
703.65	14207.05
703.78	14387.27
703.91	14251.52
704.04	13963.64
704.17	14078.32
704.31	14237.48
704.44	13947.25
704.57	13998.74
704.70	13437.02
704.83	13692.13
704.96	13640.64
705.10	13664.05
705.23	13579.79
>>>>>End Processed Spectral Data<<<<<
