SpectraSuite Data File
++++++++++++++++++++++++++++++++++++
Date: Fri Oct 25 11:34:08 EDT 2013
User: price-jones
Dark Spectrum Present: No
Reference Spectrum Present: No
Number of Sampled Component Spectra: 1
Spectrometers: USB2+H05261
Integration Time (usec): 100000 (USB2+H05261)
Spectra Averaged: 1 (USB2+H05261)
Boxcar Smoothing: 0 (USB2+H05261)
Correct for Electrical Dark: No (USB2+H05261)
Strobe/Lamp Enabled: No (USB2+H05261)
Correct for Detector Non-linearity: No (USB2+H05261)
Correct for Stray Light: No (USB2+H05261)
Number of Pixels in Processed Spectrum: 2048
>>>>>Begin Processed Spectral Data<<<<<
365.73	318.31
365.92	318.31
366.12	318.31
366.32	250.44
366.52	198.95
366.72	222.35
366.91	156.82
367.11	140.43
367.31	182.56
367.51	234.05
367.70	227.03
367.90	205.97
368.10	205.97
368.30	156.82
368.49	161.50
368.69	201.29
368.89	203.63
369.09	180.22
369.28	212.99
369.48	269.16
369.68	315.97
369.87	248.10
370.07	236.39
370.27	315.97
370.47	337.04
370.66	493.85
370.86	500.87
371.06	557.05
371.25	580.45
371.45	566.41
371.65	578.11
371.84	531.30
372.04	517.26
372.24	521.94
372.44	622.58
372.63	528.96
372.83	554.71
373.03	629.60
373.22	613.22
373.42	564.07
373.62	613.22
373.81	580.45
374.01	589.82
374.21	655.35
374.40	589.82
374.60	634.29
374.79	622.58
374.99	697.48
375.19	664.71
375.38	622.58
375.58	636.63
375.78	681.10
375.97	645.99
376.17	788.76
376.37	718.54
376.56	660.03
376.76	674.07
376.95	648.33
377.15	744.29
377.35	638.97
377.54	690.46
377.74	732.59
377.93	657.69
378.13	706.84
378.33	746.63
378.52	697.48
378.72	741.95
378.91	692.80
379.11	779.40
379.31	650.67
379.50	629.60
379.70	770.04
379.89	613.22
380.09	692.80
380.28	638.97
380.48	723.23
380.68	741.95
380.87	655.35
381.07	709.18
381.26	723.23
381.46	763.01
381.65	823.87
381.85	737.27
382.04	800.46
382.24	786.42
382.43	840.25
382.63	718.54
382.83	683.44
383.02	854.30
383.22	793.44
383.41	870.68
383.61	760.67
383.80	809.83
384.00	772.38
384.19	723.23
384.39	809.83
384.58	896.43
384.78	798.12
384.97	837.91
385.17	814.51
385.36	816.85
385.56	861.32
385.75	873.02
385.95	877.70
386.14	844.93
386.34	880.04
386.53	842.59
386.72	809.83
386.92	821.53
387.11	819.19
387.31	887.06
387.50	861.32
387.70	856.64
387.89	840.25
388.09	915.15
388.28	964.30
388.48	840.25
388.67	945.58
388.86	966.64
389.06	880.04
389.25	875.36
389.45	983.02
389.64	898.77
389.84	954.94
390.03	910.47
390.22	952.60
390.42	910.47
390.61	901.11
390.81	957.28
391.00	1022.81
391.19	1109.41
391.39	898.77
391.58	945.58
391.78	980.68
391.97	1020.47
392.16	938.55
392.36	992.39
392.55	1064.94
392.75	1015.79
392.94	1022.81
393.13	1034.52
393.33	1078.99
393.52	1039.20
393.71	1055.58
393.91	1004.09
394.10	1004.09
394.29	1111.75
394.49	1116.44
394.68	1114.10
394.88	1144.52
395.07	1100.05
395.26	1076.65
395.46	1177.29
395.65	1128.14
395.84	1125.80
396.04	1235.80
396.23	1235.80
396.42	1111.75
396.62	1149.20
396.81	1245.16
397.00	1193.67
397.19	1172.61
397.39	1160.91
397.58	1315.38
397.77	1254.53
397.97	1242.82
398.16	1301.34
398.35	1228.78
398.55	1287.29
398.74	1296.66
398.93	1341.13
399.12	1266.23
399.32	1247.51
399.51	1294.32
399.70	1338.79
399.90	1385.60
400.09	1406.66
400.28	1390.28
400.47	1320.06
400.67	1352.83
400.86	1411.34
401.05	1416.02
401.24	1373.89
401.44	1404.32
401.63	1476.88
401.82	1401.98
402.01	1303.68
402.21	1509.65
402.40	1348.15
402.59	1488.58
402.78	1561.14
402.97	1469.86
403.17	1504.96
403.36	1528.37
403.55	1366.87
403.74	1511.99
403.93	1600.93
404.13	1568.16
404.32	1495.60
404.51	1530.71
404.70	1568.16
404.89	1551.78
405.09	1633.69
405.28	1645.40
405.47	1607.95
405.66	1612.63
405.85	1682.85
406.05	1654.76
406.24	1636.03
406.43	1727.32
406.62	1720.29
406.81	1764.76
407.00	1732.00
407.20	1729.66
407.39	1781.15
407.58	1778.81
407.77	1891.15
407.96	1790.51
408.15	1926.26
408.34	1842.00
408.54	1790.51
408.73	1860.73
408.92	1820.94
409.11	1886.47
409.30	1966.05
409.49	1961.37
409.68	1926.26
409.87	2019.88
410.07	2036.27
410.26	1933.28
410.45	1952.01
410.64	2050.31
410.83	2026.90
411.02	2076.06
411.21	2083.08
411.40	2136.91
411.59	2129.89
411.78	2193.08
411.98	2193.08
412.17	2160.31
412.36	2237.55
412.55	2342.88
412.74	2279.68
412.93	2291.38
413.12	2275.00
413.31	2413.09
413.50	2359.26
413.69	2438.84
413.88	2476.29
414.07	2326.49
414.26	2429.48
414.45	2471.61
414.64	2476.29
414.83	2429.48
415.02	2581.61
415.22	2551.18
415.41	2588.63
415.60	2586.29
415.79	2724.38
415.98	2663.53
416.17	2726.72
416.36	2605.02
416.55	2658.85
416.74	2679.91
416.93	2642.46
417.12	2759.49
417.31	2792.26
417.50	2827.37
417.69	2918.65
417.88	2871.84
418.07	2925.67
418.26	2965.46
418.45	2951.42
418.64	3009.93
418.83	2902.26
419.02	2977.16
419.21	3026.31
419.39	3117.59
419.58	2958.44
419.77	3023.97
419.96	3096.53
420.15	3068.44
420.34	3030.99
420.53	3073.12
420.72	3236.96
420.91	3272.07
421.10	3229.94
421.29	3155.04
421.48	3232.28
421.67	3222.92
421.86	3325.90
422.05	3220.58
422.24	3325.90
422.43	3325.90
422.61	3346.97
422.80	3346.97
422.99	3283.77
423.18	3393.78
423.37	3454.63
423.56	3349.31
423.75	3372.71
423.94	3255.69
424.13	3045.04
424.32	3133.98
424.50	3386.76
424.69	3501.44
424.88	3545.91
425.07	3288.45
425.26	3281.43
425.45	3300.16
425.64	3344.63
425.83	3300.16
426.01	3407.82
426.20	3391.44
426.39	3370.37
426.58	3485.06
426.77	3485.06
426.96	3445.27
427.15	3503.78
427.33	3459.31
427.52	3433.57
427.71	3517.83
427.90	3510.80
428.09	3651.24
428.28	3520.17
428.46	3562.30
428.65	3515.48
428.84	3707.41
429.03	3735.50
429.22	3688.68
429.40	3590.38
429.59	3581.02
429.78	3578.68
429.97	3471.01
430.16	3611.45
430.34	3772.94
430.53	3868.91
430.72	3754.22
430.91	3822.09
431.10	3763.58
431.28	3913.38
431.47	3943.80
431.66	3913.38
431.85	3852.52
432.03	3936.78
432.22	4053.81
432.41	3941.46
432.60	3941.46
432.79	4014.02
432.97	3964.87
433.16	4084.23
433.35	3969.55
433.54	4119.34
433.72	4227.01
433.91	4032.74
434.10	4049.13
434.28	3985.93
434.47	4121.68
434.66	4152.11
434.85	4119.34
435.03	4161.47
435.22	4217.65
435.41	4318.29
435.59	4273.82
435.78	4358.08
435.97	4241.05
436.16	4365.10
436.34	4304.25
436.53	4367.44
436.72	4414.25
436.90	4376.80
437.09	4374.46
437.28	4414.25
437.46	4491.49
437.65	4360.42
437.84	4507.87
438.02	4451.70
438.21	4554.68
438.40	4432.97
438.58	4669.37
438.77	4718.52
438.96	4627.24
439.14	4622.56
439.33	4772.35
439.52	4863.63
439.70	4798.10
439.89	4786.40
440.08	4861.29
440.26	4856.61
440.45	4835.55
440.63	4936.19
440.82	4975.98
441.01	4875.34
441.19	4950.23
441.38	5146.84
441.57	4987.68
441.75	5142.16
441.94	5207.69
442.12	5282.59
442.31	5387.91
442.50	5348.12
442.68	5191.31
442.87	5336.42
443.05	5334.08
443.24	5547.07
443.43	5474.51
443.61	5572.82
443.80	5504.94
443.98	5369.19
444.17	5226.42
444.35	5540.05
444.54	5448.77
444.73	5582.18
444.91	5495.58
445.10	5413.66
445.28	5430.04
445.47	5530.69
445.65	5561.11
445.84	5631.33
446.02	5530.69
446.21	5671.12
446.39	5645.37
446.58	5685.16
446.77	5507.28
446.95	5673.46
447.14	5650.05
447.32	5647.71
447.51	5699.20
447.69	5692.18
447.88	5416.00
448.06	5619.63
448.25	5514.30
448.43	5678.14
448.62	5675.80
448.80	5703.89
448.99	5769.42
449.17	5846.66
449.36	5626.65
449.54	5830.27
449.73	5930.92
449.91	6092.41
450.10	5942.62
450.28	5982.41
450.46	6104.12
450.65	5991.77
450.83	6038.58
451.02	6003.47
451.20	6069.01
451.39	6033.90
451.57	6066.67
451.76	6012.84
451.94	5996.45
452.13	5961.34
452.31	6155.61
452.49	5996.45
452.68	6157.95
452.86	6094.76
453.05	6335.83
453.23	6183.70
453.42	6277.32
453.60	6076.03
453.78	6403.71
453.97	6183.70
454.15	6190.72
454.34	6179.01
454.52	6291.36
454.70	6431.79
454.89	6375.62
455.07	6324.13
455.26	6448.18
455.44	6651.80
455.62	6616.69
455.81	6502.01
455.99	6555.84
456.17	6637.76
456.36	6698.61
456.54	6832.02
456.73	6729.04
456.91	6843.73
457.09	6637.76
457.28	6817.98
457.46	6890.54
457.64	6909.26
457.83	6974.80
458.01	6752.45
458.19	6895.22
458.38	6927.99
458.56	7084.80
458.74	6949.05
458.93	7105.87
459.11	7140.97
459.29	7007.56
459.48	7150.34
459.66	7096.50
459.84	7138.63
460.03	7227.57
460.21	7400.77
460.39	7037.99
460.57	7225.23
460.76	7323.54
460.94	7370.35
461.12	7391.41
461.31	7424.18
461.49	7382.05
461.67	7419.50
461.85	7527.16
462.04	7382.05
462.22	7822.07
462.40	7613.76
462.59	7669.94
462.77	7323.54
462.95	7702.70
463.13	7726.11
463.32	7660.57
463.50	7681.64
463.68	7756.54
463.86	7758.88
464.05	7571.63
464.23	7836.11
464.41	7810.37
464.59	7653.55
464.78	7999.95
464.96	7735.47
465.14	7831.43
465.32	7801.01
465.50	8098.25
465.69	7988.25
465.87	8013.99
466.05	7857.18
466.23	8016.33
466.41	7901.65
466.60	8140.38
466.78	7988.25
466.96	8023.36
467.14	7939.10
467.32	8004.63
467.51	8252.73
467.69	7983.57
467.87	8016.33
468.05	8021.02
468.23	8163.79
468.41	8004.63
468.60	8222.30
468.78	8280.82
468.96	8266.77
469.14	8226.98
469.32	8479.76
469.50	8255.07
469.69	8493.80
469.87	8535.93
470.05	8552.32
470.23	8346.35
470.41	8575.72
470.59	8648.28
470.77	8657.64
470.95	8922.12
471.14	8830.84
471.32	8737.22
471.50	8751.26
471.68	8816.80
471.86	8945.53
472.04	8975.95
472.22	9266.18
472.40	8954.89
472.58	8884.67
472.77	9011.06
472.95	9100.00
473.13	9448.74
473.31	9039.15
473.49	9193.62
473.67	9277.88
473.85	9408.95
474.03	9540.02
474.21	9558.75
474.39	9692.16
474.57	9523.64
474.75	9633.64
474.93	9701.52
475.12	9832.59
475.30	9647.69
475.48	9638.33
475.66	9848.97
475.84	9827.91
476.02	9940.26
476.20	9891.10
476.38	10036.22
476.56	10448.15
476.74	10363.89
476.92	10207.08
477.10	10148.56
477.28	10384.96
477.46	10413.04
477.64	10841.36
477.82	10672.84
478.00	11073.07
478.18	10712.63
478.36	11112.86
478.54	11042.65
478.72	11164.36
478.90	11377.34
479.08	11541.18
479.26	11473.31
479.44	11389.05
479.62	11700.34
479.80	11470.97
479.98	11714.38
480.16	11992.90
480.34	11763.53
480.52	12072.48
480.70	12063.12
480.88	11892.26
481.06	12182.49
481.24	11978.86
481.41	12423.56
481.59	12315.90
481.77	12589.74
481.95	12355.69
482.13	12683.36
482.31	12683.36
482.49	12919.76
482.67	13029.76
482.85	13294.24
483.03	13399.57
483.21	13284.88
483.39	13359.78
483.57	13692.13
483.74	13628.94
483.92	13795.12
484.10	13554.04
484.28	14087.68
484.46	14160.24
484.64	14415.36
484.82	14352.16
485.00	14204.71
485.18	14546.43
485.35	14951.34
485.53	14614.30
485.71	14686.86
485.89	14956.02
486.07	15110.50
486.25	14923.26
486.43	15145.61
486.61	15412.43
486.78	15279.02
486.96	15346.89
487.14	15864.15
487.32	15880.53
487.50	15765.85
487.68	15929.69
487.85	16152.04
488.03	16147.36
488.21	16416.52
488.39	16622.48
488.57	16802.71
488.75	16629.51
488.92	16861.22
489.10	17172.51
489.28	17181.87
489.46	17411.25
489.64	17231.02
489.81	17577.42
489.99	17652.32
490.17	17879.35
490.35	17963.61
490.53	17884.03
490.70	18075.96
490.88	17977.65
491.06	18242.14
491.24	18211.71
491.41	18813.23
491.59	18567.47
491.77	18658.75
491.95	19073.03
492.13	18731.31
492.30	19068.34
492.48	19288.35
492.66	19426.45
492.84	19499.00
493.01	19534.11
493.19	19442.83
493.37	19742.42
493.54	20009.24
493.72	20308.83
493.90	19859.45
494.08	20072.43
494.25	20407.13
494.43	20362.66
494.61	20500.75
494.79	20645.87
494.96	20945.45
495.14	20702.04
495.32	21195.89
495.49	21067.16
495.67	21338.66
495.85	21357.39
496.02	21397.18
496.20	21642.93
496.38	21909.75
496.55	21879.33
496.73	22185.94
496.91	22148.49
497.09	22555.74
497.26	22515.95
497.44	22466.80
497.62	22522.98
497.79	23051.94
497.97	22675.11
498.14	23009.81
498.32	23173.64
498.50	23126.83
498.67	23199.39
498.85	23449.83
499.03	23438.12
499.20	23674.52
499.38	23697.92
499.56	23814.95
499.73	23807.93
499.91	23854.74
500.08	23992.83
500.26	23861.76
500.44	24283.06
500.61	24566.26
500.79	23791.55
500.97	24355.61
501.14	24505.41
501.32	24666.91
501.49	24711.38
501.67	24931.39
501.84	25041.39
502.02	25137.35
502.20	24823.72
502.37	24954.79
502.55	24870.53
502.72	24709.04
502.90	25411.20
503.07	25303.53
503.25	25516.52
503.43	25310.55
503.60	25542.27
503.78	26106.34
503.95	25862.92
504.13	26045.48
504.30	26160.17
504.48	26082.93
504.65	26237.41
504.83	26321.66
505.01	26696.15
505.18	26333.37
505.36	26906.80
505.53	26450.39
505.71	26775.73
505.88	26628.27
506.06	26452.73
506.23	26932.54
506.41	26740.62
506.58	26986.38
506.76	27054.25
506.93	27339.80
507.11	27337.46
507.28	27124.47
507.46	27583.21
507.63	27651.09
507.81	27803.22
507.98	27332.78
508.16	27653.43
508.33	28350.91
508.50	27828.97
508.68	27964.72
508.85	28601.35
509.03	28154.30
509.20	28243.24
509.38	28669.22
509.55	28683.27
509.73	28608.37
509.90	28922.00
510.08	28512.41
510.25	28975.83
510.42	28872.85
510.60	28870.51
510.77	29142.01
510.95	29362.02
511.12	29383.09
511.30	28973.49
511.47	29118.60
511.64	29268.40
511.82	29560.97
511.99	29610.12
512.17	29663.95
512.34	29706.08
512.51	29965.88
512.69	30150.78
512.86	29820.77
513.04	29979.92
513.21	30249.08
513.38	30078.22
513.56	30291.21
513.73	29986.94
513.90	30597.82
514.08	30487.82
514.25	30785.07
514.43	30565.06
514.60	30948.90
514.77	30682.08
514.95	30895.07
515.12	30766.34
515.29	30962.95
515.47	31253.17
515.64	31087.00
515.81	31264.88
515.99	31262.54
516.16	31819.58
516.33	31536.38
516.51	31606.59
516.68	31461.48
516.85	31896.82
517.03	31772.77
517.20	32070.02
517.37	31775.11
517.54	32135.56
517.72	32271.31
517.89	32280.67
518.06	32032.57
518.24	32198.75
518.41	32065.34
518.58	32217.47
518.75	32294.71
518.93	32390.67
519.10	32727.71
519.27	32875.16
519.45	32697.28
519.62	32833.04
519.79	33223.90
519.96	33123.26
520.14	33083.47
520.31	32734.73
520.48	33422.85
520.65	33551.58
520.83	33310.50
521.00	33628.82
521.17	33495.41
521.34	33422.85
521.52	33858.19
521.69	33317.53
521.86	33572.64
522.03	33699.03
522.20	34101.61
522.38	34146.08
522.55	34087.56
522.72	34113.31
522.89	34199.91
523.07	34726.53
523.24	34274.80
523.41	34518.22
523.58	34403.53
523.75	34412.90
523.92	34808.45
524.10	34548.65
524.27	34658.65
524.44	34796.74
524.61	34813.13
524.78	35075.27
524.96	35182.93
525.13	35271.87
525.30	35452.09
525.47	35072.93
525.64	35349.11
525.81	34899.73
525.98	35196.98
526.16	35295.28
526.33	35756.36
526.50	35824.24
526.67	35543.38
526.84	36095.74
527.01	35545.72
527.18	35864.03
527.36	36027.87
527.53	36041.91
527.70	36355.54
527.87	36268.94
528.04	36034.89
528.21	36140.21
528.38	36552.15
528.55	36374.27
528.72	36385.97
528.89	36519.38
529.07	36163.62
529.24	36023.19
529.41	36634.06
529.58	36638.75
529.75	36348.52
529.92	36828.33
530.09	37008.55
530.26	36966.42
530.43	36802.58
530.60	36739.39
530.77	36512.36
530.94	36950.04
531.11	36701.94
531.28	36741.73
531.46	37226.22
531.63	37092.81
531.80	37572.62
531.97	37263.67
532.14	37436.87
532.31	37305.80
532.48	37448.57
532.65	37579.64
532.82	37350.27
532.99	37418.14
533.16	37104.51
533.33	38073.49
533.50	37844.12
533.67	38148.39
533.84	37317.50
534.01	38218.61
534.18	37659.22
534.35	38253.72
534.52	38822.47
534.69	38546.28
534.86	38595.43
535.03	38263.08
535.20	38178.82
535.37	38445.64
535.54	38562.67
535.71	38452.66
535.88	38806.08
536.05	38455.00
536.22	38895.02
536.38	38653.95
536.55	38410.53
536.72	38899.70
536.89	38958.22
537.06	38859.91
537.23	39313.98
537.40	38962.90
537.57	39014.39
537.74	38775.66
537.91	39229.72
538.08	39185.25
538.25	38859.91
538.42	39012.05
538.59	38960.56
538.75	39133.76
538.92	39744.64
539.09	39466.11
539.26	39285.89
539.43	39494.20
539.60	39594.84
539.77	39531.65
539.94	39924.86
540.11	39566.76
540.28	39690.80
540.44	39660.38
540.61	39339.72
540.78	39742.30
540.95	40058.27
541.12	39866.34
541.29	39796.13
541.46	39887.41
541.62	40126.14
541.79	40474.88
541.96	39873.37
542.13	39988.05
542.30	40385.94
542.47	40374.24
542.63	40371.90
542.80	40587.23
542.97	40786.18
543.14	41017.89
543.31	40566.16
543.48	40648.08
543.64	41462.59
543.81	41273.01
543.98	41097.47
544.15	41041.29
544.32	41031.93
544.48	41509.40
544.65	40872.78
544.82	41155.98
544.99	41120.87
545.16	41254.28
545.32	41298.75
545.49	41729.41
545.66	41904.95
545.83	41652.17
546.00	41628.77
546.16	41418.12
546.33	41448.55
546.50	41088.10
546.67	41661.54
546.83	41350.24
547.00	42024.32
547.17	41413.44
547.34	41586.64
547.50	41989.21
547.67	41876.86
547.84	41670.90
548.00	41940.06
548.17	42286.46
548.34	42347.31
548.51	42501.79
548.67	42190.50
548.84	42185.82
549.01	41900.27
549.18	42366.04
549.34	42623.50
549.51	42316.89
549.68	42806.06
549.84	42164.75
550.01	42902.02
550.18	42335.61
550.34	43042.45
550.51	42630.52
550.68	42859.89
550.84	42139.00
551.01	42696.05
551.18	42841.17
551.34	42274.76
551.51	42794.36
551.68	43225.01
551.84	42747.54
552.01	42824.78
552.18	42923.08
552.34	42728.82
552.51	42815.42
552.68	43210.97
552.84	43068.20
553.01	43206.29
553.18	43342.04
553.34	43365.45
553.51	43164.16
553.67	43681.42
553.84	43332.68
554.01	43665.03
554.17	43358.42
554.34	43592.48
554.51	43115.01
554.67	43313.95
554.84	43861.64
555.00	43342.04
555.17	43112.67
555.33	43983.35
555.50	43739.93
555.67	43805.47
555.83	43538.65
556.00	43632.27
556.16	44287.62
556.33	43885.04
556.50	43894.41
556.66	43859.30
556.83	43770.36
556.99	44079.31
557.16	43854.62
557.32	44072.29
557.49	44596.57
557.65	43770.36
557.82	43995.05
557.98	44018.46
558.15	43969.30
558.32	43964.62
558.48	43920.15
558.65	44320.38
558.81	44264.21
558.98	44748.70
559.14	44329.75
559.31	44013.77
559.47	44133.14
559.64	44437.41
559.80	44374.22
559.97	44648.06
560.13	44194.00
560.30	43856.96
560.46	44957.01
560.63	44444.43
560.79	44940.63
560.96	44935.95
561.12	44509.97
561.29	44737.00
561.45	45069.36
561.61	44353.15
561.78	44367.20
561.94	44259.53
562.11	44378.90
562.27	44662.10
562.44	44360.17
562.60	44741.68
562.77	44935.95
562.93	44552.10
563.10	45352.56
563.26	44711.25
563.42	44844.66
563.59	44795.51
563.75	44760.40
563.92	45120.85
564.08	45118.51
564.24	45141.91
564.41	45090.42
564.57	44987.44
564.74	45263.62
564.90	44811.90
565.07	44692.53
565.23	45097.44
565.39	45212.13
565.56	45280.00
565.72	45043.61
565.88	45221.49
566.05	45415.76
566.21	45242.56
566.38	45188.72
566.54	45001.48
566.70	45158.30
566.87	45708.32
567.03	45265.96
567.19	45385.33
567.36	45057.65
567.52	45291.71
567.68	45289.37
567.85	45375.97
568.01	45350.22
568.17	45427.46
568.34	45408.73
568.50	45415.76
568.66	45261.28
568.83	45483.63
568.99	45464.91
569.15	45542.14
569.32	45326.81
569.48	45392.35
569.64	45659.17
569.81	45598.32
569.97	45340.86
570.13	45518.74
570.30	45521.08
570.46	45539.80
570.62	45736.41
570.78	45741.09
570.95	45727.05
571.11	45633.42
571.27	45427.46
571.43	45544.48
571.60	45432.14
571.76	45862.80
571.92	45378.31
572.09	45570.23
572.25	45198.09
572.41	45390.01
572.57	45521.08
572.74	46204.52
572.90	46136.64
573.06	45928.33
573.22	45972.80
573.38	46050.04
573.55	45876.84
573.71	46258.35
573.87	45839.39
574.03	45813.65
574.20	45968.12
574.36	45893.22
574.52	46073.45
574.68	45956.42
574.84	46281.75
575.01	46298.14
575.17	46220.90
575.33	45921.31
575.49	45883.86
575.65	45844.07
575.82	46373.03
575.98	46087.49
576.14	45972.80
576.30	45890.88
576.46	45881.52
576.62	46096.85
576.79	46024.29
576.95	45942.38
577.11	45422.78
577.27	45904.93
577.43	45804.28
577.59	45801.94
577.75	45808.96
577.92	45914.29
578.08	45989.19
578.24	45989.19
578.40	46164.73
578.56	46216.22
578.72	46033.66
578.88	46141.32
579.04	45998.55
579.21	45982.16
579.37	46014.93
579.53	46279.41
579.69	45869.82
579.85	46033.66
580.01	46234.94
580.17	46263.03
580.33	46103.87
580.49	46270.05
580.65	46120.26
580.82	46162.39
580.98	46251.33
581.14	45851.09
581.30	46120.26
581.46	46162.39
581.62	46199.83
581.78	45872.16
581.94	46190.47
582.10	46181.11
582.26	46518.15
582.42	46103.87
582.58	46110.89
582.74	46368.35
582.90	46284.09
583.06	46438.57
583.22	46019.61
583.38	46504.10
583.54	46660.92
583.70	46410.48
583.86	46302.82
584.02	46138.98
584.18	46639.86
584.34	45963.44
584.50	46513.47
584.66	46497.08
584.82	46335.59
584.98	46539.21
585.14	46536.87
585.30	46415.16
585.46	46569.64
585.62	46188.13
585.78	46452.61
585.94	46274.73
586.10	46106.21
586.26	45998.55
586.42	45933.01
586.58	46197.49
586.74	46190.47
586.90	46204.52
587.06	46052.38
587.22	46202.18
587.38	46660.92
587.54	46735.82
587.70	46710.07
587.86	46012.59
588.02	46707.73
588.18	46380.06
588.34	46241.96
588.49	46445.59
588.65	46337.93
588.81	46469.00
588.97	46073.45
589.13	46373.03
589.29	46511.13
589.45	46403.46
589.61	46408.14
589.77	46593.04
589.93	46969.87
590.08	46663.26
590.24	46396.44
590.40	46855.18
590.56	46862.21
590.72	46761.56
590.88	46358.99
591.04	46672.62
591.20	46770.93
591.35	47147.75
591.51	47023.70
591.67	46927.74
591.83	47082.22
591.99	46784.97
592.15	46457.29
592.31	46733.48
592.46	46770.93
592.62	46834.12
592.78	46990.94
592.94	47388.83
593.10	47168.82
593.26	47117.32
593.41	47295.21
593.57	47147.75
593.73	46686.67
593.89	47515.22
594.05	47140.73
594.20	47297.55
594.36	47222.65
594.52	46838.80
594.68	47042.43
594.84	46607.09
594.99	47168.82
595.15	47075.19
595.31	47091.58
595.47	47107.96
595.62	46419.84
595.78	47037.75
595.94	46941.78
596.10	46871.57
596.25	46918.38
596.41	47632.24
596.57	47068.17
596.73	46976.89
596.88	47168.82
597.04	46876.25
597.20	47075.19
597.36	47267.12
597.51	47026.04
597.67	46887.95
597.83	47023.70
597.99	47292.86
598.14	46892.63
598.30	47192.22
598.46	46990.94
598.61	47250.74
598.77	47302.23
598.93	47107.96
599.09	47681.39
599.24	47690.76
599.40	47133.71
599.56	47349.04
599.71	47224.99
599.87	47758.63
600.03	47199.24
600.18	47232.01
600.34	47157.11
600.50	47435.64
600.65	47131.37
600.81	47494.15
600.97	47491.81
601.12	47604.16
601.28	47342.02
601.44	47147.75
601.59	47133.71
601.75	47110.30
601.91	47040.09
602.06	47143.07
602.22	47112.64
602.37	47213.29
602.53	47213.29
602.69	47372.44
602.84	46618.79
603.00	47086.90
603.16	47585.43
603.31	47484.79
603.47	47133.71
603.62	47304.57
603.78	47728.20
603.94	47267.12
604.09	47688.42
604.25	46937.10
604.40	47372.44
604.56	47309.25
604.71	47709.48
604.87	47194.56
605.03	47171.16
605.18	47112.64
605.34	47126.69
605.49	47033.07
605.65	47107.96
605.80	47288.18
605.96	46944.12
606.12	47028.38
606.27	47433.30
606.43	46761.56
606.58	47449.68
606.74	46927.74
606.89	47278.82
607.05	47316.27
607.20	47168.82
607.36	46848.16
607.51	46726.46
607.67	47281.16
607.82	47182.86
607.98	47112.64
608.13	47257.76
608.29	47217.97
608.44	46997.96
608.60	46373.03
608.75	47433.30
608.91	46852.84
609.06	46972.21
609.22	47030.72
609.37	46981.57
609.53	47461.38
609.68	47267.12
609.84	47098.60
609.99	46899.65
610.15	47288.18
610.30	47213.29
610.46	46810.71
610.61	46672.62
610.76	47007.32
610.92	46632.83
611.07	46564.96
611.23	46691.35
611.38	46946.47
611.54	46621.13
611.69	47068.17
611.84	47086.90
612.00	46635.17
612.15	46740.50
612.31	46733.48
612.46	46595.38
612.62	46735.82
612.77	46677.30
612.92	46621.13
613.08	46677.30
613.23	46726.46
613.39	46476.02
613.54	46377.72
613.69	47000.30
613.85	46461.97
614.00	46866.89
614.15	46859.87
614.31	46347.29
614.46	46581.34
614.62	46295.80
614.77	46651.56
614.92	46373.03
615.08	46103.87
615.23	46461.97
615.38	46742.84
615.54	46438.57
615.69	46515.81
615.84	46548.57
616.00	46323.88
616.15	46277.07
616.30	46408.14
616.46	46003.23
616.61	46387.08
616.76	46492.40
616.92	46302.82
617.07	46459.63
617.22	46136.64
617.37	45961.10
617.53	46256.01
617.68	46454.95
617.83	46033.66
617.99	46604.75
618.14	46068.76
618.29	45928.33
618.45	46129.62
618.60	45790.24
618.75	45771.52
618.90	45736.41
619.06	45787.90
619.21	46370.69
619.36	46281.75
619.51	45830.03
619.67	45663.85
619.82	45624.06
619.97	46300.48
620.12	45734.07
620.28	45874.50
620.43	46213.88
620.58	45516.40
620.73	46204.52
620.89	46246.65
621.04	46277.07
621.19	45481.29
621.34	45773.86
621.49	45844.07
621.65	45579.59
621.80	46202.18
621.95	45638.11
622.10	45895.56
622.25	45673.21
622.41	45815.99
622.56	45244.90
622.71	45710.66
622.86	45729.39
623.01	46045.36
623.16	45443.84
623.32	45492.99
623.47	45720.02
623.62	45500.01
623.77	45453.20
623.92	45862.80
624.07	45542.14
624.23	45619.38
624.38	45399.37
624.53	45677.90
624.68	44882.11
624.83	45382.99
624.98	45212.13
625.13	44797.85
625.29	45137.23
625.44	45233.19
625.59	45439.16
625.74	45392.35
625.89	44865.73
626.04	44797.85
626.19	45366.60
626.34	44921.90
626.49	44753.38
626.65	44917.22
626.80	44767.43
626.95	44896.16
627.10	44535.71
627.25	44678.49
627.40	45249.58
627.55	44741.68
627.70	45256.60
627.85	45010.84
628.00	44872.75
628.15	44816.58
628.30	44201.02
628.45	44383.58
628.60	44360.17
628.76	44711.25
628.91	44659.76
629.06	44126.12
629.21	44404.64
629.36	44055.90
629.51	44332.09
629.66	44884.45
629.81	44591.89
629.96	44659.76
630.11	44126.12
630.26	44311.02
630.41	44570.82
630.56	44350.81
630.71	44561.46
630.86	44112.08
631.01	44119.10
631.16	44098.03
631.31	44116.76
631.46	44161.23
631.61	44158.89
631.76	44240.81
631.91	44397.62
632.06	44266.55
632.21	44360.17
632.36	44439.75
632.51	43791.42
632.66	44453.79
632.81	43812.49
632.96	44083.99
633.10	44006.75
633.25	43997.39
633.40	43765.68
633.55	44264.21
633.70	44055.90
633.85	43529.28
634.00	43749.29
634.15	43686.10
634.30	44051.22
634.45	43772.70
634.60	43973.98
634.75	43789.08
634.90	43522.26
635.05	43936.54
635.19	43594.82
635.34	43922.49
635.49	43264.80
635.64	43199.27
635.79	43665.03
635.94	43564.39
636.09	43234.38
636.24	43428.64
636.39	43248.42
636.53	43578.43
636.68	42869.25
636.83	43335.02
636.98	42944.15
637.13	42946.49
637.28	43136.07
637.43	43100.97
637.57	43540.99
637.72	42850.53
637.87	42930.11
638.02	43138.41
638.17	43194.59
638.32	43164.16
638.46	42644.56
638.61	42923.08
638.76	42817.76
638.91	42885.64
639.06	42777.97
639.20	42637.54
639.35	42794.36
639.50	42880.95
639.65	43194.59
639.80	42944.15
639.94	42754.57
640.09	43035.43
640.24	43112.67
640.39	42658.60
640.54	42532.22
640.68	42787.33
640.83	42841.17
640.98	42876.27
641.13	42057.09
641.27	42909.04
641.42	42408.17
641.57	42429.23
641.72	42518.17
641.86	42197.52
642.01	42274.76
642.16	42663.28
642.31	42483.06
642.45	42637.54
642.60	42377.74
642.75	42036.02
642.90	42394.12
643.04	41933.04
643.19	41811.33
643.34	42387.10
643.48	41659.20
643.63	42146.03
643.78	42089.85
643.93	42422.21
644.07	42052.41
644.22	42206.88
644.37	42429.23
644.51	41832.39
644.66	41713.03
644.81	41888.57
644.95	42092.19
645.10	42038.36
645.25	42136.66
645.39	41902.61
645.54	41596.00
645.69	41808.99
645.83	41734.09
645.98	41406.42
646.13	42007.94
646.27	41598.34
646.42	41432.16
646.57	41879.21
646.71	41605.36
646.86	41579.62
647.00	41865.16
647.15	41511.74
647.30	41729.41
647.44	41514.08
647.59	41640.47
647.74	41556.21
647.88	41380.67
648.03	41883.89
648.17	41940.06
648.32	41818.35
648.47	41904.95
648.61	41069.38
648.76	41113.85
648.90	41390.03
649.05	41720.05
649.20	41425.14
649.34	41380.67
649.49	40928.95
649.63	41165.34
649.78	41345.56
649.92	41343.22
650.07	41794.95
650.21	41790.27
650.36	41422.80
650.51	41198.11
650.65	41354.93
650.80	41085.76
650.94	41413.44
651.09	41345.56
651.23	40751.07
651.38	40601.27
651.52	41031.93
651.67	41001.50
651.81	41050.66
651.96	40807.24
652.10	40772.13
652.25	40453.82
652.39	40559.14
652.54	40835.33
652.68	40732.34
652.83	40500.63
652.97	40940.65
653.12	40697.24
653.26	40437.44
653.41	40748.73
653.55	40746.39
653.70	40935.97
653.84	41228.54
653.99	40809.58
654.13	40580.21
654.27	40236.15
654.42	40620.00
654.56	40524.04
654.71	40615.32
654.85	40247.85
655.00	40444.46
655.14	40353.18
655.29	40538.08
655.43	40954.69
655.57	40280.62
655.72	40053.59
655.86	39786.77
656.01	40177.64
656.15	40135.51
656.30	40252.53
656.44	40540.42
656.58	40308.71
656.73	40189.34
656.87	39871.03
657.01	39674.42
657.16	39885.07
657.30	39730.59
657.45	40245.51
657.59	39599.52
657.73	39742.30
657.88	39931.88
658.02	39803.15
658.16	39646.33
658.31	39915.50
658.45	39976.35
658.60	39842.94
658.74	40144.87
658.88	39770.38
659.03	39391.22
659.17	39152.48
659.31	39084.61
659.46	38698.42
659.60	39409.94
659.74	39852.30
659.89	38998.01
660.03	38958.22
660.17	39173.55
660.32	39360.79
660.46	39215.68
660.60	38948.85
660.74	38752.25
660.89	39110.35
661.03	38740.55
661.17	38611.82
661.32	38871.62
661.46	38447.98
661.60	38340.32
661.74	38754.59
661.89	38902.04
662.03	38333.29
662.17	38258.40
662.31	38391.81
662.46	38794.38
662.60	38277.12
662.74	37776.25
662.88	38342.66
663.03	37804.33
663.17	37972.85
663.31	37663.90
663.45	37846.46
663.60	38405.85
663.74	37909.66
663.88	37666.24
664.02	37266.01
664.17	37968.17
664.31	37837.10
664.45	37202.82
664.59	37266.01
664.73	37596.03
664.88	38082.86
665.02	37586.66
665.16	37516.45
665.30	37207.50
665.44	37429.85
665.59	36903.23
665.73	37017.91
665.87	37188.77
666.01	36933.65
666.15	37064.72
666.29	36933.65
666.44	37088.13
666.58	37193.45
666.72	36512.36
666.86	36704.28
667.00	36456.18
667.14	36713.64
667.28	36737.05
667.43	36591.94
667.57	36900.89
667.71	36797.90
667.85	36706.62
667.99	36514.70
668.13	36182.34
668.27	36219.79
668.41	36233.83
668.56	35648.70
668.70	35913.18
668.84	35538.69
668.98	35929.56
669.12	35608.91
669.26	36243.20
669.40	36275.96
669.54	35632.32
669.68	35849.99
669.82	35248.47
669.96	35229.74
670.10	34967.60
670.25	35416.99
670.39	35108.04
670.53	35414.65
670.67	35414.65
670.81	35424.01
670.95	35194.64
671.09	34817.81
671.23	34941.86
671.37	34789.72
671.51	34457.37
671.65	34801.43
671.79	34529.92
671.93	34735.89
672.07	35000.37
672.21	34485.45
672.35	34136.71
672.49	34478.43
672.63	34391.83
672.77	33949.47
672.91	34057.14
673.05	33979.90
673.19	34101.61
673.33	33890.96
673.47	34132.03
673.61	33886.28
673.75	33366.68
673.89	33610.09
674.03	33036.66
674.17	33362.00
674.31	33134.96
674.45	32793.25
674.59	33411.15
674.73	33500.09
674.87	32884.53
675.01	33134.96
675.15	32886.87
675.29	32364.93
675.43	32219.81
675.56	32453.87
675.70	32608.34
675.84	32652.81
675.98	31377.22
676.12	32393.01
676.26	32423.44
676.40	31943.63
676.54	32170.66
676.68	31620.64
676.82	31363.18
676.96	31597.23
677.10	31477.86
677.23	31466.16
677.37	31653.40
677.51	31302.32
677.65	31028.48
677.79	31250.83
677.93	31426.37
678.07	30967.63
678.21	30532.29
678.34	30998.06
678.48	30527.61
678.62	30469.09
678.76	30272.49
678.90	30228.02
679.04	30714.85
679.18	30485.48
679.31	30178.87
679.45	29937.79
679.59	30106.31
679.73	30410.58
679.87	29694.38
680.00	29802.04
680.14	29661.61
680.28	29549.26
680.42	29404.15
680.56	29577.35
680.70	29106.90
680.83	28697.31
680.97	28779.23
681.11	29216.91
681.25	28570.92
681.39	28636.45
681.52	28720.71
681.66	28666.88
681.80	28067.70
681.94	28020.89
682.07	28381.34
682.21	28144.94
682.35	27875.78
682.49	28067.70
682.62	27889.82
682.76	28048.98
682.90	27693.22
683.04	27725.99
683.17	27386.61
683.31	27192.34
683.45	27550.45
683.59	26993.40
683.72	27065.96
683.86	26920.84
684.00	26890.41
684.13	26803.82
684.27	26473.80
684.41	26855.31
684.55	26515.93
684.68	26277.19
684.82	26251.45
684.96	26148.46
685.09	26328.69
685.23	26293.58
685.37	26391.88
685.50	26501.89
685.64	25900.37
685.78	25799.73
685.91	25560.99
686.05	25195.87
686.19	24957.13
686.32	25415.88
686.46	24844.79
686.60	25188.85
686.73	25340.98
686.87	25025.01
687.01	24889.26
687.14	25135.01
687.28	24868.19
687.42	24608.39
687.55	24795.64
687.69	24533.50
687.82	24159.01
687.96	24240.93
688.10	24142.63
688.23	24163.69
688.37	24456.26
688.50	24369.66
688.64	23845.38
688.78	23985.81
688.91	23798.57
689.05	23709.63
689.18	23374.93
689.32	23110.45
689.46	23138.54
689.59	23096.41
689.73	23283.65
689.86	23285.99
690.00	22768.73
690.13	22897.46
690.27	22963.00
690.41	22841.29
690.54	22623.62
690.68	22604.89
690.81	22288.92
690.95	22326.37
691.08	22281.90
691.22	22185.94
691.35	22015.08
691.49	22249.13
691.62	22232.75
691.76	21528.25
691.89	21593.78
692.03	21163.12
692.16	21429.94
692.30	21366.75
692.43	21305.90
692.57	20957.16
692.70	20973.54
692.84	20952.48
692.97	20685.65
693.11	20793.32
693.24	20697.36
693.38	20542.88
693.51	20332.23
693.65	20573.31
693.78	20411.81
693.92	20011.58
694.05	20034.99
694.19	20088.82
694.32	19985.83
694.45	20467.98
694.59	20194.14
694.72	19995.20
694.86	19461.55
694.99	19644.12
695.13	19330.48
695.26	19316.44
695.39	19513.05
695.53	19393.68
695.66	19178.35
695.80	19075.37
695.93	18843.65
696.07	18963.02
696.20	18553.43
696.33	18511.30
696.47	18455.12
696.60	18508.96
696.73	18356.82
696.87	18525.34
697.00	18354.48
697.14	18490.23
697.27	18092.34
697.40	17818.50
697.54	18075.96
697.67	17923.82
697.80	17980.00
697.94	17778.71
698.07	17598.49
698.21	17509.55
698.34	17453.37
698.47	17504.87
698.61	17039.10
698.74	17334.01
698.87	16863.56
699.01	17172.51
699.14	17170.17
699.27	16847.18
699.40	16704.40
699.54	16947.82
699.67	16727.81
699.80	16751.21
699.94	16435.24
700.07	16503.12
700.20	16294.81
700.34	16339.28
700.47	16512.48
700.60	16283.11
700.73	16353.32
700.87	15896.92
701.00	15756.49
701.13	15892.24
701.26	15531.80
701.40	15587.97
701.53	15463.92
701.66	15470.94
701.79	15410.09
701.93	15288.38
702.06	15227.53
702.19	15136.24
702.32	15356.25
702.46	15103.48
702.59	15391.36
702.72	15428.81
702.85	14949.00
702.99	14677.50
703.12	14710.27
703.25	14813.25
703.38	14345.14
703.51	14588.56
703.65	14513.66
703.78	14303.01
703.91	14228.12
704.04	14288.97
704.17	14253.86
704.31	14054.92
704.44	13996.40
704.57	14012.79
704.70	13916.83
704.83	13902.78
704.96	13706.18
705.10	13678.09
705.23	13516.59
>>>>>End Processed Spectral Data<<<<<
