SpectraSuite Data File
++++++++++++++++++++++++++++++++++++
Date: Fri Oct 25 10:48:14 EDT 2013
User: price-jones
Dark Spectrum Present: No
Reference Spectrum Present: No
Number of Sampled Component Spectra: 1
Spectrometers: USB2+H05261
Integration Time (usec): 100000 (USB2+H05261)
Spectra Averaged: 1 (USB2+H05261)
Boxcar Smoothing: 0 (USB2+H05261)
Correct for Electrical Dark: No (USB2+H05261)
Strobe/Lamp Enabled: No (USB2+H05261)
Correct for Detector Non-linearity: No (USB2+H05261)
Correct for Stray Light: No (USB2+H05261)
Number of Pixels in Processed Spectrum: 2048
>>>>>Begin Processed Spectral Data<<<<<
365.73	138.09
365.92	138.09
366.12	138.09
366.32	23.41
366.52	0.00
366.72	135.75
366.91	23.41
367.11	25.75
367.31	30.43
367.51	51.49
367.70	18.72
367.90	37.45
368.10	95.96
368.30	86.60
368.49	81.92
368.69	74.90
368.89	35.11
369.09	7.02
369.28	110.01
369.48	74.90
369.68	74.90
369.87	142.77
370.07	126.39
370.27	180.22
370.47	222.35
370.66	421.30
370.86	390.87
371.06	395.55
371.25	493.85
371.45	451.72
371.65	461.09
371.84	451.72
372.04	482.15
372.24	472.79
372.44	512.58
372.63	465.77
372.83	505.56
373.03	477.47
373.22	498.53
373.42	528.96
373.62	472.79
373.81	493.85
374.01	578.11
374.21	561.73
374.40	554.71
374.60	587.47
374.79	582.79
374.99	540.66
375.19	505.56
375.38	573.43
375.58	608.54
375.78	561.73
375.97	620.24
376.17	641.31
376.37	606.20
376.56	543.00
376.76	645.99
376.95	699.82
377.15	627.26
377.35	690.46
377.54	631.94
377.74	559.39
377.93	613.22
378.13	606.20
378.33	676.41
378.52	685.78
378.72	704.50
378.91	716.20
379.11	653.01
379.31	599.18
379.50	559.39
379.70	667.05
379.89	669.39
380.09	692.80
380.28	683.44
380.48	664.71
380.68	653.01
380.87	608.54
381.07	732.59
381.26	732.59
381.46	767.70
381.65	720.88
381.85	737.27
382.04	678.76
382.24	741.95
382.43	697.48
382.63	711.52
382.83	713.86
383.02	732.59
383.22	720.88
383.41	648.33
383.61	704.50
383.80	725.57
384.00	779.40
384.19	767.70
384.39	713.86
384.58	753.65
384.78	772.38
384.97	777.06
385.17	816.85
385.36	746.63
385.56	791.10
385.75	788.76
385.95	849.61
386.14	884.72
386.34	772.38
386.53	868.34
386.72	863.66
386.92	798.12
387.11	908.13
387.31	842.59
387.50	816.85
387.70	835.57
387.89	891.74
388.09	882.38
388.28	828.55
388.48	861.32
388.67	990.05
388.86	922.17
389.06	908.13
389.25	947.92
389.45	837.91
389.64	924.51
389.84	889.40
390.03	992.39
390.22	973.66
390.42	968.98
390.61	929.19
390.81	1022.81
391.00	1032.18
391.19	1022.81
391.39	1004.09
391.58	912.81
391.78	957.28
391.97	985.37
392.16	966.64
392.36	983.02
392.55	1006.43
392.75	1008.77
392.94	976.00
393.13	971.32
393.33	947.92
393.52	983.02
393.71	1144.52
393.91	1022.81
394.10	1064.94
394.29	1050.90
394.49	1102.39
394.68	1153.88
394.88	1022.81
395.07	1231.12
395.26	1233.46
395.46	1207.72
395.65	1172.61
395.84	1139.84
396.04	1170.27
396.23	1170.27
396.42	1116.44
396.62	1158.57
396.81	1193.67
397.00	1121.12
397.19	1238.14
397.39	1252.19
397.58	1291.98
397.77	1256.87
397.97	1289.64
398.16	1282.61
398.35	1366.87
398.55	1207.72
398.74	1432.41
398.93	1378.58
399.12	1390.28
399.32	1334.11
399.51	1348.15
399.70	1430.07
399.90	1376.24
400.09	1535.39
400.28	1434.75
400.47	1437.09
400.67	1502.62
400.86	1593.90
401.05	1521.35
401.24	1572.84
401.44	1600.93
401.63	1549.43
401.82	1570.50
402.01	1561.14
402.21	1579.86
402.40	1631.35
402.59	1668.80
402.78	1629.01
402.97	1575.18
403.17	1617.31
403.36	1671.14
403.55	1626.67
403.74	1724.97
403.93	1746.04
404.13	1778.81
404.32	1785.83
404.51	1703.91
404.70	1689.87
404.89	1753.06
405.09	1902.86
405.28	1769.44
405.47	1743.70
405.66	1856.04
405.85	1762.42
406.05	1736.68
406.24	1900.52
406.43	1930.94
406.62	1900.52
406.81	1870.09
407.00	1860.73
407.20	1935.62
407.39	1827.96
407.58	1996.48
407.77	1944.99
407.96	1947.33
408.15	2069.03
408.34	2057.33
408.54	1994.14
408.73	2036.27
408.92	2052.65
409.11	2059.67
409.30	1984.77
409.49	2071.37
409.68	2143.93
409.87	2143.93
410.07	2143.93
410.26	2265.64
410.45	2176.70
410.64	2237.55
410.83	2275.00
411.02	2305.43
411.21	2305.43
411.40	2289.04
411.59	2445.86
411.78	2410.75
411.98	2300.75
412.17	2487.99
412.36	2422.45
412.55	2473.95
412.74	2471.61
412.93	2518.42
413.12	2492.67
413.31	2654.17
413.50	2602.68
413.69	2579.27
413.88	2672.89
414.07	2647.15
414.26	2656.51
414.45	2782.90
414.64	2682.25
414.83	2672.89
415.02	2799.28
415.22	2876.52
415.41	2832.05
415.60	2829.71
415.79	2890.56
415.98	2937.37
416.17	2902.26
416.36	2888.22
416.55	2937.37
416.74	3030.99
416.93	3084.83
417.12	3094.19
417.31	3157.38
417.50	3016.95
417.69	3229.94
417.88	3309.52
418.07	3119.93
418.26	3211.22
418.45	3173.77
418.64	3358.67
418.83	3272.07
419.02	3328.24
419.21	3243.98
419.39	3391.44
419.58	3304.84
419.77	3208.87
419.96	3529.53
420.15	3396.12
420.34	3297.81
420.53	3414.84
420.72	3613.79
420.91	3632.51
421.10	3592.72
421.29	3482.72
421.48	3447.61
421.67	3417.18
421.86	3449.95
422.05	3585.70
422.24	3461.65
422.43	3499.10
422.61	3655.92
422.80	3618.47
422.99	3637.19
423.18	3651.24
423.37	3676.98
423.56	3662.94
423.75	3599.74
423.94	3595.06
424.13	3400.80
424.32	3485.06
424.50	3588.04
424.69	3749.54
424.88	3775.28
425.07	3648.90
425.26	3529.53
425.45	3602.08
425.64	3660.60
425.83	3641.87
426.01	3698.05
426.20	3681.66
426.39	3777.62
426.58	3691.02
426.77	3784.65
426.96	3681.66
427.15	3796.35
427.33	3782.31
427.52	3740.18
427.71	3726.13
427.90	3850.18
428.09	3934.44
428.28	3843.16
428.46	3922.74
428.65	3962.53
428.84	3929.76
429.03	4018.70
429.22	3939.12
429.40	3833.80
429.59	3943.80
429.78	3791.67
429.97	3735.50
430.16	3866.56
430.34	3859.54
430.53	3962.53
430.72	4128.70
430.91	3904.01
431.10	4028.06
431.28	4308.93
431.47	4252.75
431.66	4416.59
431.85	4287.86
432.03	4238.71
432.22	4409.57
432.41	4320.63
432.60	4327.65
432.79	4402.55
432.97	4458.72
433.16	4346.37
433.35	4290.20
433.54	4386.16
433.72	4383.82
433.91	4456.38
434.10	4465.74
434.28	4475.10
434.47	4496.17
434.66	4592.13
434.85	4561.70
435.03	4493.83
435.22	4514.89
435.41	4716.18
435.59	4652.98
435.78	4709.16
435.97	4723.20
436.16	4727.88
436.34	4681.07
436.53	4718.52
436.72	4983.00
436.90	4660.01
437.09	4774.69
437.28	4795.76
437.46	4858.95
437.65	4868.31
437.84	4898.74
438.02	4765.33
438.21	4814.48
438.40	4819.16
438.58	4964.28
438.77	5027.47
438.96	5081.30
439.14	5221.74
439.33	5235.78
439.52	5315.36
439.70	5329.40
439.89	5097.69
440.08	5177.26
440.26	5472.17
440.45	5369.19
440.63	5373.87
440.82	5366.85
441.01	5570.48
441.19	5504.94
441.38	5664.10
441.57	5600.90
441.75	5762.40
441.94	5685.16
442.12	5914.53
442.31	5893.47
442.50	5891.13
442.68	5860.70
442.87	5811.55
443.05	6050.28
443.24	5820.91
443.43	5968.37
443.61	6015.18
443.80	6286.68
443.98	5841.98
444.17	5872.40
444.35	6066.67
444.54	6076.03
444.73	6099.44
444.91	6085.39
445.10	5926.24
445.28	5987.09
445.47	5898.15
445.65	5830.27
445.84	5968.37
446.02	6104.12
446.21	6148.59
446.39	6043.26
446.58	6190.72
446.77	6001.13
446.95	5959.00
447.14	6069.01
447.32	6401.37
447.51	6352.21
447.69	6228.17
447.88	6289.02
448.06	6094.76
448.25	6204.76
448.43	6209.44
448.62	6207.10
448.80	6150.93
448.99	6359.24
449.17	6392.00
449.36	6366.26
449.54	6399.02
449.73	6410.73
449.91	6677.55
450.10	6511.37
450.28	6700.95
450.46	6471.58
450.65	6602.65
450.83	6707.98
451.02	6656.48
451.20	6693.93
451.39	6672.87
451.57	6509.03
451.76	6640.10
451.94	6588.61
452.13	6630.74
452.31	6719.68
452.49	6544.14
452.68	6712.66
452.86	6677.55
453.05	6658.82
453.23	6619.04
453.42	6794.58
453.60	6712.66
453.78	6857.77
453.97	6960.75
454.15	6839.05
454.34	6841.39
454.52	6860.11
454.70	6951.39
454.89	7033.31
455.07	6906.92
455.26	7101.19
455.44	6995.86
455.62	7009.90
455.81	7199.49
455.99	7293.11
456.17	7258.00
456.36	7105.87
456.54	7375.03
456.73	7485.03
456.91	7419.50
457.09	7513.12
457.28	7592.70
457.46	7286.09
457.64	7485.03
457.83	7414.82
458.01	7447.58
458.19	7798.66
458.38	7463.97
458.56	7786.96
458.74	7651.21
458.93	7728.45
459.11	7639.51
459.29	7712.07
459.48	7871.22
459.66	7740.15
459.84	7953.14
460.03	7801.01
460.21	7948.46
460.39	7737.81
460.57	7782.28
460.76	7836.11
460.94	7911.01
461.12	7932.08
461.31	7932.08
461.49	7967.18
461.67	8299.54
461.85	8177.83
462.04	7990.59
462.22	8505.51
462.40	8166.13
462.59	8327.63
462.77	8336.99
462.95	8351.03
463.13	8320.60
463.32	8196.56
463.50	8386.14
463.68	8711.47
463.86	8526.57
464.05	8013.99
464.23	8407.20
464.41	8292.52
464.59	8231.66
464.78	8610.83
464.96	8404.86
465.14	8528.91
465.32	8662.32
465.50	8617.85
465.69	8601.47
465.87	8456.36
466.05	8519.55
466.23	8723.18
466.41	8538.27
466.60	8678.71
466.78	8505.51
466.96	8613.17
467.14	8540.61
467.32	8870.63
467.51	8737.22
467.69	8568.70
467.87	8720.84
468.05	8807.44
468.23	8603.81
468.41	8711.47
468.60	9036.81
468.78	8791.05
468.96	8854.25
469.14	9081.28
469.32	9041.49
469.50	8877.65
469.69	9277.88
469.87	9469.81
470.05	9128.09
470.23	9008.72
470.41	9224.05
470.59	9217.03
470.77	9153.84
470.95	9247.46
471.14	9460.45
471.32	9399.59
471.50	9474.49
471.68	9469.81
471.86	9657.05
472.04	9781.10
472.22	10024.51
472.40	9437.04
472.58	9760.03
472.77	9659.39
472.95	9710.88
473.13	10413.04
473.31	9884.08
473.49	9767.06
473.67	9827.91
473.85	9921.53
474.03	10209.42
474.21	10092.39
474.39	10115.80
474.57	10263.25
474.75	10319.42
474.93	10471.56
475.12	10291.34
475.30	10513.69
475.48	10462.19
475.66	10619.01
475.84	10340.49
476.02	10490.28
476.20	10647.10
476.38	10864.77
476.56	11037.97
476.74	11133.93
476.92	11033.29
477.10	11145.63
477.28	11272.02
477.46	11351.60
477.64	11330.53
477.82	11737.79
478.00	11618.42
478.18	11641.82
478.36	11786.94
478.54	11936.73
478.72	11925.03
478.90	11988.22
479.08	12119.29
479.26	12500.80
479.44	12535.91
479.62	12241.00
479.80	12451.65
479.98	12348.67
480.16	12730.17
480.34	12526.55
480.52	12725.49
480.70	12575.70
480.88	12627.19
481.06	12737.20
481.24	13041.46
481.41	13001.68
481.59	13451.06
481.77	13425.31
481.95	13631.28
482.13	13680.43
482.31	13380.84
482.49	14026.83
482.67	13895.76
482.85	14139.18
483.03	14122.79
483.21	14448.13
483.39	14251.52
483.57	14258.54
483.74	14572.18
483.92	14668.14
484.10	14579.20
484.28	15138.58
484.46	15140.93
484.64	15325.83
484.82	15037.94
485.00	15194.76
485.18	15384.34
485.35	15484.98
485.53	15330.51
485.71	15391.36
485.89	15756.49
486.07	15690.95
486.25	15838.41
486.43	15885.22
486.61	16077.14
486.78	16194.17
486.96	16437.58
487.14	16563.97
487.32	16685.68
487.50	16842.50
487.68	17319.96
487.85	17069.53
488.03	17301.24
488.21	17561.04
488.39	17577.42
488.57	17855.95
488.75	17532.95
488.92	17797.43
489.10	18139.15
489.28	18239.79
489.46	18621.30
489.64	18480.87
489.81	18799.18
489.99	18703.22
490.17	18785.14
490.35	19091.75
490.53	18862.38
490.70	19405.38
490.88	19234.52
491.06	19613.69
491.24	19587.94
491.41	19391.34
491.59	19875.83
491.77	19754.12
491.95	19782.21
492.13	20175.42
492.30	20137.97
492.48	20472.67
492.66	20475.01
492.84	20460.96
493.01	20830.77
493.19	20697.36
493.37	21118.65
493.54	21034.39
493.72	21010.99
493.90	21282.49
494.08	21577.40
494.25	21701.45
494.43	21839.54
494.61	22068.91
494.79	22302.96
494.96	21954.22
495.14	22010.40
495.32	22302.96
495.49	22434.03
495.67	22469.14
495.85	22675.11
496.02	23180.67
496.20	23131.51
496.38	23136.20
496.55	22951.29
496.73	23529.41
496.91	23194.71
497.09	23424.08
497.26	23323.44
497.44	23522.38
497.62	23632.39
497.79	23995.17
497.97	23782.18
498.14	24034.96
498.32	23962.40
498.50	24297.10
498.67	24442.21
498.85	24664.57
499.03	24753.51
499.20	24748.82
499.38	24643.50
499.56	24980.54
499.73	25235.66
499.91	24655.20
500.08	25235.66
500.26	24903.30
500.44	25619.50
500.61	25537.59
500.79	25326.94
500.97	25649.93
501.14	26026.76
501.32	25825.47
501.49	25741.21
501.67	25881.64
501.84	25900.37
502.02	25912.07
502.20	26012.71
502.37	26359.11
502.55	26436.35
502.72	26181.23
502.90	26438.69
503.07	26396.56
503.25	26986.38
503.43	26904.46
503.60	26424.65
503.78	26859.99
503.95	26658.70
504.13	27187.66
504.30	27143.19
504.48	26981.70
504.65	27557.47
504.83	27379.59
505.01	27697.90
505.18	27550.45
505.36	27824.29
505.53	27590.24
505.71	28224.52
505.88	28037.28
506.06	27931.95
506.23	27763.43
506.41	28196.43
506.58	28339.21
506.76	28180.05
506.93	28292.40
507.11	28381.34
507.28	28231.54
507.46	28503.04
507.63	28423.47
507.81	28746.46
507.98	28687.95
508.16	28762.84
508.33	29429.90
508.50	28896.25
508.68	28819.02
508.85	29237.97
509.03	29558.63
509.20	29268.40
509.38	29305.85
509.55	29256.70
509.73	29881.62
509.90	29727.14
510.08	29460.32
510.25	29703.74
510.42	29804.38
510.60	30288.87
510.77	30466.75
510.95	30649.32
511.12	30309.94
511.30	30363.77
511.47	31047.21
511.64	30754.64
511.82	30965.29
511.99	30981.67
512.17	30799.11
512.34	30630.59
512.51	30967.63
512.69	31061.25
512.86	31185.30
513.04	31061.25
513.21	31208.70
513.38	31079.97
513.56	31562.12
513.73	31199.34
513.90	31704.90
514.08	31398.29
514.25	31583.19
514.43	31943.63
514.60	31721.28
514.77	31744.69
514.95	31803.20
515.12	31929.59
515.29	31723.62
515.47	32329.82
515.64	32271.31
515.81	32114.49
515.99	32273.65
516.16	32355.57
516.33	32407.06
516.51	32418.76
516.68	32091.09
516.85	32240.88
517.03	32011.51
517.20	32400.04
517.37	32650.47
517.54	32840.06
517.72	32762.82
517.89	32753.46
518.06	32879.85
518.24	32730.05
518.41	32856.44
518.58	33205.18
518.75	32917.29
518.93	33422.85
519.10	33186.46
519.27	33144.33
519.45	33212.20
519.62	33862.87
519.79	33825.42
519.96	33865.21
520.14	34333.32
520.31	33818.40
520.48	34515.88
520.65	34036.07
520.83	34464.39
521.00	34340.34
521.17	34080.54
521.34	34204.59
521.52	34625.89
521.69	34855.26
521.86	34726.53
522.03	34429.28
522.20	34836.53
522.38	34663.33
522.55	34981.65
522.72	34550.99
522.89	34710.14
523.07	35091.65
523.24	35110.38
523.41	35447.41
523.58	35047.18
523.75	35379.54
523.92	35534.01
524.10	35194.64
524.27	36217.45
524.44	35849.99
524.61	35592.53
524.78	35983.40
524.96	36144.89
525.13	36187.02
525.30	36381.29
525.47	36250.22
525.64	35833.60
525.81	36165.96
525.98	35782.11
526.16	35758.70
526.33	36161.28
526.50	36451.50
526.67	35899.14
526.84	36055.95
527.01	36180.00
527.18	36264.26
527.36	36514.70
527.53	36584.91
527.70	36519.38
527.87	36751.09
528.04	36538.10
528.21	36615.34
528.38	37055.36
528.55	36966.42
528.72	37376.01
528.89	37298.78
529.07	37441.55
529.24	36893.86
529.41	37226.22
529.58	36840.03
529.75	37064.72
529.92	37242.60
530.09	37490.70
530.26	37790.29
530.43	37273.03
530.60	37116.22
530.77	37132.60
530.94	37748.16
531.11	37514.11
531.28	37830.08
531.46	38040.73
531.63	38024.34
531.80	38005.62
531.97	38026.68
532.14	37998.60
532.31	37558.58
532.48	38225.63
532.65	38363.72
532.82	37951.79
532.99	38129.67
533.16	38108.60
533.33	37940.08
533.50	38719.48
533.67	38323.93
533.84	38237.33
534.01	38361.38
534.18	38532.24
534.35	38752.25
534.52	38445.64
534.69	39007.37
534.86	38951.20
535.03	39248.44
535.20	39098.65
535.37	38920.77
535.54	39166.52
535.71	38883.32
535.88	38810.76
536.05	39175.89
536.22	39487.18
536.38	39922.52
536.55	39367.81
536.72	39388.88
536.89	39187.59
537.06	39489.52
537.23	39482.50
537.40	39246.10
537.57	39636.97
537.74	39508.24
537.91	39810.17
538.08	39438.03
538.25	39894.43
538.42	39859.32
538.59	39651.02
538.75	39674.42
538.92	39501.22
539.09	39831.24
539.26	40149.55
539.43	40423.39
539.60	39861.66
539.77	39971.67
539.94	40023.16
540.11	40072.31
540.28	40119.12
540.44	39966.99
540.61	40437.44
540.78	40016.14
540.95	40051.25
541.12	40119.12
541.29	40397.65
541.46	40212.74
541.62	40725.32
541.79	40994.48
541.96	40261.90
542.13	40341.47
542.30	40432.75
542.47	40666.81
542.63	40760.43
542.80	40624.68
542.97	41317.48
543.14	40882.14
543.31	41090.44
543.48	41338.54
543.64	41406.42
543.81	41167.68
543.98	41493.02
544.15	41301.09
544.32	41448.55
544.48	41635.79
544.65	41387.69
544.82	41537.49
544.99	40847.03
545.16	41270.67
545.32	41495.36
545.49	41860.48
545.66	42272.42
545.83	41886.23
546.00	42249.01
546.16	41853.46
546.33	41235.56
546.50	41523.44
546.67	41839.42
546.83	41027.25
547.00	41926.02
547.17	41696.64
547.34	41848.78
547.50	41816.01
547.67	42328.59
547.84	41734.09
548.00	42333.27
548.17	42745.20
548.34	42087.51
548.51	42127.30
548.67	42394.12
548.84	41937.72
549.01	42272.42
549.18	42799.04
549.34	42827.12
549.51	42436.25
549.68	42422.21
549.84	42206.88
550.01	42703.07
550.18	42590.73
550.34	42417.53
550.51	42630.52
550.68	42768.61
550.84	42515.83
551.01	42997.98
551.18	42855.21
551.34	42569.66
551.51	42642.22
551.68	43129.05
551.84	43206.29
552.01	42644.56
552.18	43309.27
552.34	42761.59
552.51	43178.20
552.68	43522.26
552.84	42965.21
553.01	43033.09
553.18	43335.02
553.34	43337.36
553.51	43175.86
553.67	43501.20
553.84	43332.68
554.01	43372.47
554.17	43440.34
554.34	43555.03
554.51	43143.09
554.67	43700.14
554.84	43093.94
555.00	43215.65
555.17	43147.78
555.33	43100.97
555.50	43210.97
555.67	43821.85
555.83	43948.24
556.00	43721.21
556.16	43611.20
556.33	43456.73
556.50	43723.55
556.66	44044.20
556.83	43679.08
556.99	43966.96
557.16	44135.48
557.32	43559.71
557.49	44259.53
557.65	43627.59
557.82	43941.22
557.98	43641.63
558.15	43842.92
558.32	44313.36
558.48	43770.36
558.65	44062.93
558.81	43557.37
558.98	44191.65
559.14	43854.62
559.31	43777.38
559.47	44086.33
559.64	44334.43
559.80	44076.97
559.97	43739.93
560.13	43889.73
560.30	44041.86
560.46	43929.51
560.63	43611.20
560.79	44486.56
560.96	44341.45
561.12	44294.64
561.29	44582.52
561.45	44385.92
561.61	44238.47
561.78	43859.30
561.94	44161.23
562.11	43906.11
562.27	44126.12
562.44	44149.53
562.60	44652.74
562.77	44605.93
562.93	44385.92
563.10	44690.19
563.26	44191.65
563.42	44645.72
563.59	44650.40
563.75	44378.90
563.92	44790.83
564.08	44776.79
564.24	44935.95
564.41	44610.61
564.57	44683.17
564.74	44587.21
564.90	44573.16
565.07	44659.76
565.23	44701.89
565.39	44421.03
565.56	44460.82
565.72	44505.29
565.88	44402.30
566.05	44830.62
566.21	44697.21
566.38	44456.14
566.54	44395.28
566.70	44697.21
566.87	45090.42
567.03	44823.60
567.19	45027.23
567.36	44645.72
567.52	44655.08
567.68	45041.27
567.85	44870.41
568.01	44870.41
568.17	44940.63
568.34	44369.54
568.50	44425.71
568.66	45027.23
568.83	44844.66
568.99	44603.59
569.15	44793.17
569.32	44933.60
569.48	44849.35
569.64	45268.30
569.81	45399.37
569.97	44746.36
570.13	44629.34
570.30	44430.39
570.46	44699.55
570.62	44610.61
570.78	44713.59
570.95	44598.91
571.11	44818.92
571.27	44711.25
571.43	44931.26
571.60	45139.57
571.76	44477.20
571.92	45226.17
572.09	44882.11
572.25	45069.36
572.41	44706.57
572.57	45127.87
572.74	45624.06
572.90	45392.35
573.06	45401.71
573.22	45500.01
573.38	44952.33
573.55	45022.54
573.71	45191.06
573.87	45249.58
574.03	45031.91
574.20	44512.31
574.36	44884.45
574.52	45565.55
574.68	44634.02
574.84	45015.52
575.01	44949.99
575.17	45191.06
575.33	44479.54
575.49	44854.03
575.65	45455.54
575.82	45289.37
575.98	45291.71
576.14	45439.16
576.30	45125.53
576.46	45315.11
576.62	44842.32
576.79	44783.81
576.95	44837.64
577.11	45235.53
577.27	45106.80
577.43	44935.95
577.59	44800.19
577.75	44851.69
577.92	44781.47
578.08	45031.91
578.24	44725.30
578.40	44891.48
578.56	44968.71
578.72	45041.27
578.88	45649.81
579.04	44964.03
579.21	44905.52
579.37	44989.78
579.53	45244.90
579.69	44603.59
579.85	45013.18
580.01	45198.09
580.17	45216.81
580.33	45855.78
580.49	45654.49
580.65	45162.98
580.82	45188.72
580.98	45010.84
581.14	45422.78
581.30	45134.89
581.46	45153.62
581.62	45357.24
581.78	45326.81
581.94	45638.11
582.10	45865.14
582.26	45062.33
582.42	44919.56
582.58	45446.18
582.74	45441.50
582.90	45539.80
583.06	45521.08
583.22	45029.57
583.38	45394.69
583.54	45359.58
583.70	44968.71
583.86	45242.56
584.02	45076.38
584.18	45382.99
584.34	45375.97
584.50	45425.12
584.66	45420.44
584.82	45460.23
584.98	45256.60
585.14	45490.65
585.30	45193.40
585.46	45689.60
585.62	45097.44
585.78	45024.89
585.94	45160.64
586.10	44577.84
586.26	45399.37
586.42	45322.13
586.58	45296.39
586.74	45251.92
586.90	45401.71
587.06	45469.59
587.22	45450.86
587.38	44669.12
587.54	45322.13
587.70	45656.83
587.86	45352.56
588.02	45724.71
588.18	45312.77
588.34	45413.41
588.49	44957.01
588.65	44807.22
588.81	44891.48
588.97	45083.40
589.13	44839.98
589.29	44945.31
589.45	45254.26
589.61	45308.09
589.77	45741.09
589.93	45298.73
590.08	45436.82
590.24	45748.11
590.40	45492.99
590.56	45813.65
590.72	45586.61
590.88	45315.11
591.04	45375.97
591.20	45663.85
591.35	45488.31
591.51	46066.42
591.67	45647.47
591.83	45443.84
591.99	45123.19
592.15	44952.33
592.31	45415.76
592.46	45928.33
592.62	45242.56
592.78	45661.51
592.94	45570.23
593.10	45572.57
593.26	45251.92
593.41	45272.98
593.57	45677.90
593.73	45734.07
593.89	45682.58
594.05	45588.95
594.20	45371.28
594.36	45715.34
594.52	45958.76
594.68	45605.34
594.84	45689.60
594.99	45958.76
595.15	45434.48
595.31	45947.06
595.47	45603.00
595.62	45509.38
595.78	45705.98
595.94	45432.14
596.10	45853.44
596.25	45635.77
596.41	46241.96
596.57	45457.88
596.73	45659.17
596.88	45603.00
597.04	46031.32
597.20	45441.50
597.36	45717.68
597.51	45923.65
597.67	45907.27
597.83	45893.22
597.99	45963.44
598.14	45619.38
598.30	45977.48
598.46	45471.93
598.61	45848.75
598.77	45151.27
598.93	45640.45
599.09	45928.33
599.24	46129.62
599.40	46134.30
599.56	46066.42
599.71	45741.09
599.87	46085.15
600.03	45125.53
600.18	45591.30
600.34	45570.23
600.50	45860.46
600.65	45600.66
600.81	45591.30
600.97	45790.24
601.12	46195.15
601.28	45792.58
601.44	45539.80
601.59	45867.48
601.75	45338.52
601.91	45710.66
602.06	45544.48
602.22	45394.69
602.37	45294.05
602.53	45951.74
602.69	46150.68
602.84	45497.67
603.00	45872.16
603.16	45600.66
603.31	45724.71
603.47	45193.40
603.62	45656.83
603.78	46017.27
603.94	45397.03
604.09	45759.81
604.25	45588.95
604.40	45483.63
604.56	45593.64
604.71	45832.37
604.87	45614.70
605.03	45736.41
605.18	45516.40
605.34	45722.37
605.49	45235.53
605.65	45649.81
605.80	45357.24
605.96	45673.21
606.12	45771.52
606.27	45933.01
606.43	45518.74
606.58	45598.32
606.74	45528.10
606.89	45764.49
607.05	45338.52
607.20	45326.81
607.36	45184.04
607.51	45586.61
607.67	45022.54
607.82	45647.47
607.98	45394.69
608.13	45453.20
608.29	45326.81
608.44	44957.01
608.60	44516.99
608.75	44928.92
608.91	45277.66
609.06	45258.94
609.22	45418.10
609.37	44952.33
609.53	45081.06
609.68	45556.19
609.84	45078.72
609.99	45425.12
610.15	45446.18
610.30	45212.13
610.46	45350.22
610.61	45113.83
610.76	45069.36
610.92	45017.86
611.07	44959.35
611.23	44685.51
611.38	45345.54
611.54	44720.62
611.69	44921.90
611.84	44432.73
612.00	44973.39
612.15	44832.96
612.31	45181.70
612.46	45130.21
612.62	45525.76
612.77	45116.17
612.92	44715.93
613.08	44797.85
613.23	44875.09
613.39	44608.27
613.54	44561.46
613.69	44760.40
613.85	44769.77
614.00	44666.78
614.15	44535.71
614.31	44545.08
614.46	44847.00
614.62	44926.58
614.77	44453.79
614.92	44987.44
615.08	44683.17
615.23	44350.81
615.38	44343.79
615.54	44737.00
615.69	44795.51
615.84	43669.72
616.00	44451.45
616.15	44409.32
616.30	44669.12
616.46	44280.60
616.61	43969.30
616.76	44531.03
616.92	44093.35
617.07	44053.56
617.22	43941.22
617.37	44184.63
617.53	44856.37
617.68	44500.61
617.83	44488.90
617.99	44708.91
618.14	44245.49
618.29	43746.95
618.45	43643.97
618.60	43859.30
618.75	44051.22
618.90	44105.06
619.06	44282.94
619.21	43725.89
619.36	43871.00
619.51	44706.57
619.67	43988.03
619.82	44030.16
619.97	44065.27
620.12	43643.97
620.28	43531.62
620.43	43672.06
620.58	44004.41
620.73	43950.58
620.89	43349.06
621.04	43955.26
621.19	43491.83
621.34	43852.28
621.49	43276.51
621.65	43086.92
621.80	43821.85
621.95	43398.21
622.10	43646.31
622.25	43217.99
622.41	42644.56
622.56	43433.32
622.71	43620.56
622.86	43915.47
623.01	43639.29
623.16	43578.43
623.32	43761.00
623.47	43552.69
623.62	44004.41
623.77	42902.02
623.92	43604.18
624.07	42597.75
624.23	42693.71
624.38	43063.52
624.53	42698.39
624.68	43049.47
624.83	43262.46
624.98	43337.36
625.13	42838.83
625.29	43044.79
625.44	42574.34
625.59	42562.64
625.74	42646.90
625.89	42555.62
626.04	42808.40
626.19	43260.12
626.34	43028.41
626.49	42579.03
626.65	42672.65
626.80	43091.60
626.95	42782.65
627.10	42150.71
627.25	42686.69
627.40	42359.02
627.55	42017.30
627.70	42085.17
627.85	41928.36
628.00	42199.86
628.15	42705.41
628.30	42539.24
628.45	42209.22
628.60	42052.41
628.76	42190.50
628.91	42536.90
629.06	42153.05
629.21	41755.16
629.36	42302.84
629.51	42199.86
629.66	42185.82
629.81	42351.99
629.96	42387.10
630.11	42321.57
630.26	42426.89
630.41	42333.27
630.56	41991.55
630.71	41769.20
630.86	41844.10
631.01	41869.84
631.16	42052.41
631.31	41869.84
631.46	41638.13
631.61	41727.07
631.76	41867.50
631.91	42043.04
632.06	41467.27
632.21	41811.33
632.36	42223.26
632.51	41633.45
632.66	41537.49
632.81	41202.79
632.96	41291.73
633.10	41394.71
633.25	41572.60
633.40	41670.90
633.55	41900.27
633.70	41280.03
633.85	41127.89
634.00	41883.89
634.15	41581.96
634.30	41408.76
634.45	41326.84
634.60	41668.56
634.75	41839.42
634.90	41160.66
635.05	41202.79
635.19	41202.79
635.34	41308.11
635.49	41277.69
635.64	40692.55
635.79	41282.37
635.94	40917.25
636.09	41254.28
636.24	40919.59
636.39	40748.73
636.53	40844.69
636.68	40783.83
636.83	40849.37
636.98	40961.72
637.13	40509.99
637.28	40942.99
637.43	41214.49
637.57	40905.54
637.72	40968.74
637.87	41038.95
638.02	40814.26
638.17	40617.66
638.32	40687.87
638.46	40973.42
638.61	40582.55
638.76	40781.49
638.91	40594.25
639.06	40306.37
639.20	40786.18
639.35	40851.71
639.50	40144.87
639.65	40957.03
639.80	40760.43
639.94	40383.60
640.09	40758.09
640.24	40243.17
640.39	39990.39
640.54	40191.68
640.68	40350.84
640.83	39913.16
640.98	39903.79
641.13	39695.49
641.27	40655.11
641.42	39983.37
641.57	40416.37
641.72	40327.43
641.86	39765.70
642.01	39892.09
642.16	39978.69
642.31	39653.36
642.45	40362.54
642.60	39674.42
642.75	39119.71
642.90	39524.63
643.04	40151.89
643.19	39786.77
643.34	39871.03
643.48	39716.55
643.63	39660.38
643.78	39470.79
643.93	39569.10
644.07	39566.76
644.22	39618.25
644.37	39229.72
644.51	39234.40
644.66	39852.30
644.81	39777.40
644.95	39934.22
645.10	39559.73
645.25	39576.12
645.39	39482.50
645.54	39784.43
645.69	39522.29
645.83	39295.25
645.98	39309.30
646.13	39749.32
646.27	39442.71
646.42	39239.08
646.57	39533.99
646.71	39093.97
646.86	39283.55
647.00	39402.92
647.15	39033.11
647.30	39407.60
647.44	39278.87
647.59	39302.28
647.74	39091.63
647.88	38967.58
648.03	39000.35
648.17	39016.73
648.32	38888.00
648.47	38778.00
648.61	38675.01
648.76	38670.33
648.90	38728.84
649.05	39079.92
649.20	38892.68
649.34	39100.99
649.49	38302.87
649.63	38864.60
649.78	38763.95
649.92	38377.76
650.07	39035.45
650.21	38352.02
650.36	38455.00
650.51	38808.42
650.65	38775.66
650.80	38925.45
650.94	38895.02
651.09	38377.76
651.23	38726.50
651.38	38230.31
651.52	38323.93
651.67	38529.90
651.81	38628.20
651.96	38108.60
652.10	38307.55
652.25	38230.31
652.39	38611.82
652.54	38455.00
652.68	38438.62
652.83	38249.03
652.97	38525.22
653.12	38492.45
653.26	38110.94
653.41	38216.27
653.55	37914.34
653.70	37991.58
653.84	38115.62
653.99	37970.51
654.13	38113.28
654.27	37696.67
654.42	37865.19
654.56	38227.97
654.71	38246.69
654.85	37713.05
655.00	37488.36
655.14	37736.46
655.29	37294.10
655.43	37757.52
655.57	37001.53
655.72	37195.79
655.86	37118.56
656.01	36840.03
656.15	37258.99
656.30	37481.34
656.44	37427.51
656.58	37486.02
656.73	37399.42
656.87	37392.40
657.01	37387.72
657.16	37106.85
657.30	37134.94
657.45	36987.49
657.59	36978.12
657.73	37006.21
657.88	37041.32
658.02	37050.68
658.16	37577.30
658.31	37296.44
658.45	37319.84
658.60	37240.26
658.74	37385.38
658.88	37287.07
659.03	36538.10
659.17	36872.80
659.31	37083.45
659.46	36444.48
659.60	36957.06
659.74	37057.70
659.89	36243.20
660.03	36697.26
660.17	36662.15
660.32	36596.62
660.46	36638.75
660.60	36531.08
660.74	36002.12
660.89	36421.08
661.03	35924.88
661.17	36278.30
661.32	36020.84
661.46	36275.96
661.60	35974.03
661.74	36055.95
661.89	36294.69
662.03	36292.35
662.17	35985.74
662.31	36091.06
662.46	36062.97
662.60	36102.76
662.74	35573.80
662.88	35842.96
663.03	35583.16
663.17	35445.07
663.31	35276.55
663.45	35384.22
663.60	35590.19
663.74	35220.38
663.88	35414.65
664.02	35108.04
664.17	35328.05
664.31	35005.05
664.45	34991.01
664.59	34923.13
664.73	35384.22
664.88	34866.96
665.02	34829.51
665.16	35126.76
665.30	34995.69
665.44	35112.72
665.59	34778.02
665.73	34944.20
665.87	34728.87
666.01	34621.20
666.15	34469.07
666.29	34506.52
666.44	35033.14
666.58	34338.00
666.72	34616.52
666.86	34492.47
667.00	34169.48
667.14	33818.40
667.28	34340.34
667.43	34274.80
667.57	34022.03
667.71	34101.61
667.85	33734.14
667.99	33535.20
668.13	33614.77
668.27	33949.47
668.41	33890.96
668.56	33582.01
668.70	34099.26
668.84	33582.01
668.98	33823.08
669.12	33464.98
669.26	33656.90
669.40	33633.50
669.54	33549.24
669.68	33689.67
669.82	33179.43
669.96	33277.74
670.10	33053.05
670.25	33181.77
670.39	33139.65
670.53	32329.82
670.67	32851.76
670.81	33031.98
670.95	33598.39
671.09	33228.59
671.23	32704.31
671.37	33205.18
671.51	32868.14
671.65	32678.56
671.79	32245.56
671.93	32058.32
672.07	32259.60
672.21	32217.47
672.35	32421.10
672.49	32383.65
672.63	32376.63
672.77	32257.26
672.91	32381.31
673.05	31840.65
673.19	32128.53
673.33	31908.52
673.47	31789.16
673.61	31622.98
673.75	31253.17
673.89	31239.13
674.03	31019.12
674.17	31297.64
674.31	31164.23
674.45	31187.64
674.59	30820.17
674.73	31049.55
674.87	31124.44
675.01	31138.49
675.15	31328.07
675.29	31131.47
675.43	30885.71
675.56	30705.49
675.70	30352.07
675.84	30405.90
675.98	29577.35
676.12	30326.32
676.26	30359.09
676.40	30279.51
676.54	30223.34
676.68	30274.83
676.82	29212.23
676.96	30022.05
677.10	29982.26
677.23	29584.37
677.37	29605.44
677.51	29455.64
677.65	29656.93
677.79	28987.53
677.93	29811.40
678.07	29022.64
678.21	29078.82
678.34	28973.49
678.48	28704.33
678.62	28723.05
678.76	28687.95
678.90	28505.38
679.04	28467.94
679.18	28479.64
679.31	28610.71
679.45	28224.52
679.59	28226.86
679.73	28591.98
679.87	28306.44
680.00	28123.88
680.14	28144.94
680.28	27667.47
680.42	27796.20
680.56	27484.91
680.70	27716.62
680.83	27529.38
680.97	27213.41
681.11	27377.25
681.25	27433.42
681.39	27421.72
681.52	27442.78
681.66	27117.45
681.80	26927.86
681.94	26822.54
682.07	26649.34
682.21	26827.22
682.35	26405.92
682.49	26679.77
682.62	26670.40
682.76	26340.39
682.90	26316.98
683.04	26218.68
683.17	26111.02
683.31	26291.24
683.45	25991.65
683.59	25785.68
683.72	25593.76
683.86	25699.08
684.00	25245.02
684.13	25120.97
684.27	25605.46
684.41	25647.59
684.55	24907.98
684.68	25123.31
684.82	25078.84
684.96	24938.41
685.09	24931.39
685.23	24664.57
685.37	24915.00
685.50	24428.17
685.64	24692.65
685.78	24826.06
685.91	24545.20
686.05	24400.08
686.19	24189.44
686.32	24353.27
686.46	23854.74
686.60	23728.35
686.73	23641.75
686.87	23730.69
687.01	23302.37
687.14	23271.95
687.28	23452.17
687.42	23314.08
687.55	22857.67
687.69	23257.90
687.82	23012.15
687.96	23201.73
688.10	23049.60
688.23	22829.59
688.37	22534.68
688.50	22176.58
688.64	22874.06
688.78	22305.31
688.91	22162.53
689.05	22522.98
689.18	22225.73
689.32	21933.16
689.46	22036.14
689.59	21902.73
689.73	22122.74
689.86	21757.62
690.00	21659.32
690.13	21954.22
690.27	21914.44
690.41	21867.63
690.54	21188.87
690.68	21525.91
690.81	21504.84
690.95	21284.83
691.08	21104.61
691.22	21132.70
691.35	21008.65
691.49	21418.24
691.62	21338.66
691.76	20826.09
691.89	20980.56
692.03	20472.67
692.16	20657.57
692.30	20472.67
692.43	20339.26
692.57	20409.47
692.70	20037.33
692.84	19985.83
692.97	20112.22
693.11	19763.48
693.24	19854.76
693.38	19679.22
693.51	19623.05
693.65	19770.51
693.78	19630.07
693.92	19749.44
694.05	19798.59
694.19	19131.54
694.32	19363.25
694.45	19470.92
694.59	19199.41
694.72	19016.85
694.86	18881.10
694.99	18548.75
695.13	18972.38
695.26	18726.63
695.39	18810.89
695.53	18768.76
695.66	18459.81
695.80	18427.04
695.93	18094.68
696.07	18293.63
696.20	18523.00
696.33	18277.24
696.47	18363.84
696.60	18001.06
696.73	17926.16
696.87	18024.47
697.00	17869.99
697.14	17734.24
697.27	18061.91
697.40	17497.84
697.54	17818.50
697.67	17479.12
697.80	17350.39
697.94	17554.02
698.07	17298.90
698.21	17270.81
698.34	17348.05
698.47	16851.86
698.61	16959.52
698.74	16542.91
698.87	16711.42
699.01	16519.50
699.14	16587.38
699.27	16294.81
699.40	16732.49
699.54	16060.76
699.67	16170.76
699.80	16332.26
699.94	15997.56
700.07	16290.13
700.20	15899.26
700.34	15981.18
700.47	16020.97
700.60	16123.95
700.73	15946.07
700.87	15932.03
701.00	15721.38
701.13	15716.70
701.26	15328.17
701.40	15520.09
701.53	15206.46
701.66	15513.07
701.79	15351.57
701.93	15267.31
702.06	15295.40
702.19	14885.81
702.32	15059.01
702.46	15000.49
702.59	14658.78
702.72	14892.83
702.85	14719.63
702.99	15096.46
703.12	15119.86
703.25	14555.79
703.38	14703.25
703.51	14462.17
703.65	14516.00
703.78	14373.23
703.91	14345.14
704.04	14373.23
704.17	13907.46
704.31	14083.00
704.44	14057.26
704.57	13790.44
704.70	13811.50
704.83	13804.48
704.96	13640.64
705.10	13675.75
705.23	13830.23
>>>>>End Processed Spectral Data<<<<<
