SpectraSuite Data File
++++++++++++++++++++++++++++++++++++
Date: Fri Oct 25 11:33:36 EDT 2013
User: price-jones
Dark Spectrum Present: No
Reference Spectrum Present: No
Number of Sampled Component Spectra: 1
Spectrometers: USB2+H05261
Integration Time (usec): 100000 (USB2+H05261)
Spectra Averaged: 1 (USB2+H05261)
Boxcar Smoothing: 0 (USB2+H05261)
Correct for Electrical Dark: No (USB2+H05261)
Strobe/Lamp Enabled: No (USB2+H05261)
Correct for Detector Non-linearity: No (USB2+H05261)
Correct for Stray Light: No (USB2+H05261)
Number of Pixels in Processed Spectrum: 2048
>>>>>Begin Processed Spectral Data<<<<<
365.73	259.80
365.92	259.80
366.12	259.80
366.32	168.52
366.52	184.90
366.72	170.86
366.91	117.03
367.11	166.18
367.31	126.39
367.51	119.37
367.70	217.67
367.90	222.35
368.10	100.64
368.30	191.92
368.49	93.62
368.69	222.35
368.89	241.08
369.09	147.45
369.28	252.78
369.48	238.73
369.68	147.45
369.87	243.42
370.07	266.82
370.27	271.50
370.47	367.46
370.66	461.09
370.86	517.26
371.06	554.71
371.25	573.43
371.45	610.88
371.65	620.24
371.84	528.96
372.04	517.26
372.24	622.58
372.44	535.98
372.63	587.47
372.83	561.73
373.03	624.92
373.22	603.86
373.42	533.64
373.62	606.20
373.81	662.37
374.01	615.56
374.21	657.69
374.40	641.31
374.60	641.31
374.79	676.41
374.99	653.01
375.19	692.80
375.38	702.16
375.58	683.44
375.78	716.20
375.97	685.78
376.17	676.41
376.37	702.16
376.56	627.26
376.76	585.13
376.95	688.12
377.15	699.82
377.35	713.86
377.54	662.37
377.74	629.60
377.93	725.57
378.13	688.12
378.33	706.84
378.52	718.54
378.72	732.59
378.91	688.12
379.11	681.10
379.31	734.93
379.50	741.95
379.70	763.01
379.89	674.07
380.09	725.57
380.28	774.72
380.48	730.25
380.68	732.59
380.87	791.10
381.07	844.93
381.26	704.50
381.46	676.41
381.65	734.93
381.85	814.51
382.04	786.42
382.24	814.51
382.43	730.25
382.63	709.18
382.83	784.08
383.02	880.04
383.22	814.51
383.41	821.53
383.61	819.19
383.80	788.76
384.00	772.38
384.19	802.80
384.39	863.66
384.58	767.70
384.78	821.53
384.97	732.59
385.17	833.23
385.36	793.44
385.56	952.60
385.75	772.38
385.95	814.51
386.14	919.83
386.34	842.59
386.53	863.66
386.72	851.96
386.92	833.23
387.11	903.45
387.31	840.25
387.50	816.85
387.70	870.68
387.89	985.37
388.09	882.38
388.28	952.60
388.48	929.19
388.67	896.43
388.86	940.90
389.06	884.72
389.25	882.38
389.45	980.68
389.64	917.49
389.84	997.07
390.03	1027.50
390.22	983.02
390.42	1015.79
390.61	933.87
390.81	983.02
391.00	1060.26
391.19	1008.77
391.39	1046.22
391.58	931.53
391.78	1053.24
391.97	1062.60
392.16	943.24
392.36	1097.71
392.55	1013.45
392.75	959.62
392.94	1095.37
393.13	1081.33
393.33	1060.26
393.52	1043.88
393.71	1100.05
393.91	1146.86
394.10	1062.60
394.29	1149.20
394.49	1158.57
394.68	1125.80
394.88	1188.99
395.07	1109.41
395.26	1158.57
395.46	1111.75
395.65	1259.21
395.84	1158.57
396.04	1188.99
396.23	1191.33
396.42	1090.69
396.62	1252.19
396.81	1226.44
397.00	1205.38
397.19	1193.67
397.39	1123.46
397.58	1235.80
397.77	1280.27
397.97	1249.85
398.16	1296.66
398.35	1270.91
398.55	1245.16
398.74	1238.14
398.93	1287.29
399.12	1348.15
399.32	1350.49
399.51	1303.68
399.70	1371.55
399.90	1303.68
400.09	1343.47
400.28	1397.30
400.47	1387.94
400.67	1315.38
400.86	1427.73
401.05	1430.07
401.24	1434.75
401.44	1483.90
401.63	1486.24
401.82	1324.74
402.01	1423.05
402.21	1474.54
402.40	1593.90
402.59	1411.34
402.78	1504.96
402.97	1591.56
403.17	1530.71
403.36	1474.54
403.55	1495.60
403.74	1598.59
403.93	1607.95
404.13	1600.93
404.32	1629.01
404.51	1652.42
404.70	1643.06
404.89	1750.72
405.09	1729.66
405.28	1640.72
405.47	1596.25
405.66	1715.61
405.85	1650.08
406.05	1760.08
406.24	1788.17
406.43	1743.70
406.62	1825.62
406.81	1788.17
407.00	1783.49
407.20	1769.44
407.39	1860.73
407.58	1867.75
407.77	1832.64
407.96	1863.07
408.15	1935.62
408.34	1802.21
408.54	1949.67
408.73	1940.30
408.92	1886.47
409.11	1933.28
409.30	1989.46
409.49	1968.39
409.68	2036.27
409.87	2001.16
410.07	2029.24
410.26	2043.29
410.45	1998.82
410.64	2153.29
410.83	2047.97
411.02	2111.16
411.21	2162.66
411.40	1998.82
411.59	2143.93
411.78	2195.42
411.98	2193.08
412.17	2134.57
412.36	2265.64
412.55	2272.66
412.74	2338.20
412.93	2307.77
413.12	2319.47
413.31	2572.25
413.50	2385.01
413.69	2413.09
413.88	2436.50
414.07	2436.50
414.26	2609.70
414.45	2555.86
414.64	2548.84
414.83	2691.62
415.02	2567.57
415.22	2726.72
415.41	2635.44
415.60	2656.51
415.79	2764.17
415.98	2640.12
416.17	2644.81
416.36	2682.25
416.55	2773.53
416.74	2792.26
416.93	2815.66
417.12	2754.81
417.31	2764.17
417.50	2860.13
417.69	2920.99
417.88	2897.58
418.07	2972.48
418.26	2902.26
418.45	3033.33
418.64	3059.08
418.83	3063.76
419.02	2920.99
419.21	3030.99
419.39	3112.91
419.58	2991.20
419.77	3136.32
419.96	3190.15
420.15	3187.81
420.34	3185.47
420.53	3185.47
420.72	3208.87
420.91	3232.28
421.10	3267.39
421.29	3234.62
421.48	3220.58
421.67	3288.45
421.86	3321.22
422.05	3365.69
422.24	3260.37
422.43	3342.28
422.61	3330.58
422.80	3428.88
422.99	3386.76
423.18	3410.16
423.37	3403.14
423.56	3351.65
423.75	3421.86
423.94	3356.33
424.13	3150.36
424.32	3251.00
424.50	3536.55
424.69	3449.95
424.88	3445.27
425.07	3386.76
425.26	3253.34
425.45	3400.80
425.64	3541.23
425.83	3365.69
426.01	3370.37
426.20	3559.95
426.39	3548.25
426.58	3569.32
426.77	3428.88
426.96	3520.17
427.15	3613.79
427.33	3541.23
427.52	3459.31
427.71	3644.21
427.90	3531.87
428.09	3536.55
428.28	3716.77
428.46	3665.28
428.65	3723.79
428.84	3768.26
429.03	3775.28
429.22	3740.18
429.40	3751.88
429.59	3784.65
429.78	3627.83
429.97	3772.94
430.16	3716.77
430.34	3770.60
430.53	4023.38
430.72	3948.48
430.91	3913.38
431.10	3777.62
431.28	4046.79
431.47	3967.21
431.66	4081.89
431.85	3964.87
432.03	4042.11
432.22	4053.81
432.41	4063.17
432.60	4058.49
432.79	4025.72
432.97	4004.66
433.16	4046.79
433.35	4070.19
433.54	4056.15
433.72	4007.00
433.91	4248.07
434.10	4100.62
434.28	4238.71
434.47	4238.71
434.66	4205.94
434.85	4348.72
435.03	4198.92
435.22	4294.88
435.41	4510.21
435.59	4351.06
435.78	4353.40
435.97	4297.22
436.16	4315.95
436.34	4432.97
436.53	4432.97
436.72	4440.00
436.90	4287.86
437.09	4573.41
437.28	4430.63
437.46	4531.28
437.65	4507.87
437.84	4559.36
438.02	4643.62
438.21	4526.60
438.40	4678.73
438.58	4718.52
438.77	4812.14
438.96	4774.69
439.14	4816.82
439.33	4889.38
439.52	4784.06
439.70	4793.42
439.89	5020.45
440.08	5100.03
440.26	5116.41
440.45	5130.45
440.63	5022.79
440.82	5130.45
441.01	5167.90
441.19	5233.44
441.38	5137.48
441.57	5214.71
441.75	5294.29
441.94	5401.96
442.12	5411.32
442.31	5413.66
442.50	5437.06
442.68	5397.28
442.87	5385.57
443.05	5462.81
443.24	5687.50
443.43	5362.17
443.61	5526.00
443.80	5654.73
443.98	5516.64
444.17	5420.68
444.35	5540.05
444.54	5729.63
444.73	5675.80
444.91	5486.22
445.10	5633.67
445.28	5664.10
445.47	5568.13
445.65	5507.28
445.84	5809.21
446.02	5643.03
446.21	5767.08
446.39	5666.44
446.58	5703.89
446.77	5717.93
446.95	5584.52
447.14	5579.84
447.32	5846.66
447.51	5956.66
447.69	5628.99
447.88	5605.58
448.06	5870.06
448.25	5813.89
448.43	5825.59
448.62	5722.61
448.80	5914.53
448.99	5818.57
449.17	6111.14
449.36	5713.25
449.54	5989.43
449.73	6050.28
449.91	5940.28
450.10	5966.03
450.28	6113.48
450.46	6069.01
450.65	6047.94
450.83	6153.27
451.02	6181.35
451.20	6284.34
451.39	6228.17
451.57	6169.65
451.76	6097.10
451.94	6274.98
452.13	6293.70
452.31	6260.93
452.49	6176.67
452.68	6162.63
452.86	6321.79
453.05	6249.23
453.23	6420.09
453.42	6193.06
453.60	6139.23
453.78	6399.02
453.97	6216.46
454.15	6331.15
454.34	6382.64
454.52	6511.37
454.70	6509.03
454.89	6525.41
455.07	6630.74
455.26	6502.01
455.44	6612.01
455.62	6661.16
455.81	6637.76
455.99	6740.74
456.17	6672.87
456.36	6668.19
456.54	6768.83
456.73	6768.83
456.91	6803.94
457.09	6942.03
457.28	7096.50
457.46	7002.88
457.64	7028.63
457.83	7042.67
458.01	7021.61
458.19	7274.38
458.38	7124.59
458.56	7304.81
458.74	7342.26
458.93	7269.70
459.11	7054.37
459.29	7232.26
459.48	7328.22
459.66	7061.40
459.84	7438.22
460.03	7576.31
460.21	7384.39
460.39	7417.16
460.57	7328.22
460.76	7646.53
460.94	7529.50
461.12	7529.50
461.31	7552.91
461.49	7569.29
461.67	7405.46
461.85	7660.57
462.04	7665.25
462.22	7985.91
462.40	7831.43
462.59	7702.70
462.77	7630.15
462.95	7880.58
463.13	7899.31
463.32	7815.05
463.50	7936.76
463.68	7765.90
463.86	7976.55
464.05	7854.84
464.23	7899.31
464.41	8105.28
464.59	7742.49
464.78	8215.28
464.96	7999.95
465.14	7981.23
465.32	7999.95
465.50	8156.77
465.69	8182.51
465.87	8142.72
466.05	8205.92
466.23	8023.36
466.41	8283.16
466.60	8208.26
466.78	8091.23
466.96	8259.75
467.14	8028.04
467.32	8262.09
467.51	8444.65
467.69	8116.98
467.87	8262.09
468.05	8187.19
468.23	8278.47
468.41	8297.20
468.60	8355.71
468.78	8751.26
468.96	8339.33
469.14	8655.30
469.32	8821.48
469.50	8430.61
469.69	8777.01
469.87	8800.41
470.05	8800.41
470.23	8594.45
470.41	8872.97
470.59	8971.27
470.77	8692.75
470.95	8835.52
471.14	9076.60
471.32	8894.04
471.50	9022.77
471.68	8971.27
471.86	9130.43
472.04	9233.41
472.22	9355.12
472.40	9083.62
472.58	9160.86
472.77	9371.50
472.95	9287.25
473.13	9673.43
473.31	9303.63
473.49	9497.89
473.67	9507.26
473.85	9558.75
474.03	9785.78
474.21	9795.14
474.39	9900.47
474.57	9818.55
474.75	9996.43
474.93	10024.51
475.12	9806.84
475.30	9923.87
475.48	10195.37
475.66	10361.55
475.84	9937.91
476.02	10328.78
476.20	10193.03
476.38	10516.03
476.56	10480.92
476.74	10656.46
476.92	10455.17
477.10	10431.77
477.28	10782.85
477.46	10586.24
477.64	10773.49
477.82	11068.39
478.00	11164.36
478.18	11049.67
478.36	11126.91
478.54	11412.45
478.72	11295.43
478.90	11513.10
479.08	11618.42
479.26	11609.06
479.44	11632.46
479.62	11843.11
479.80	12016.31
479.98	11967.16
480.16	12114.61
480.34	12077.16
480.52	12500.80
480.70	12051.42
480.88	12112.27
481.06	12339.30
481.24	12451.65
481.41	12620.17
481.59	12629.53
481.77	12856.56
481.95	12727.83
482.13	12943.16
482.31	13041.46
482.49	13469.78
482.67	13348.08
482.85	13355.10
483.03	13577.45
483.21	13596.17
483.39	13921.51
483.57	13715.54
483.74	14047.90
483.92	14232.80
484.10	13846.61
484.28	14427.06
484.46	14752.40
484.64	14630.69
484.82	14579.20
485.00	14586.22
485.18	14916.23
485.35	15276.68
485.53	14839.00
485.71	15047.30
485.89	15618.39
486.07	15372.64
486.25	15414.77
486.43	15620.74
486.61	15637.12
486.78	15590.31
486.96	15791.59
487.14	16121.61
487.32	16088.84
487.50	16463.33
487.68	16411.84
487.85	16727.81
488.03	16636.53
488.21	17006.33
488.39	16884.62
488.57	17216.98
488.75	17048.46
488.92	17252.09
489.10	17476.78
489.28	17460.40
489.46	17544.66
489.64	17692.11
489.81	17900.42
489.99	17881.69
490.17	18106.38
490.35	18324.05
490.53	18658.75
490.70	18661.09
490.88	18611.94
491.06	18813.23
491.24	18927.91
491.41	19192.39
491.59	19161.97
491.77	19274.31
491.95	19276.65
492.13	19468.58
492.30	19379.64
492.48	19424.11
492.66	19915.62
492.84	19784.55
493.01	20023.28
493.19	20191.80
493.37	20159.03
493.54	20482.03
493.72	20613.10
493.90	20554.58
494.08	20680.97
494.25	20706.72
494.43	21039.08
494.61	21074.18
494.79	21380.79
494.96	21252.06
495.14	21291.85
495.32	21586.76
495.49	21776.34
495.67	21891.03
495.85	21923.80
496.02	21645.27
496.20	22267.86
496.38	22356.80
496.55	22324.03
496.73	22733.62
496.91	22595.53
497.09	22593.19
497.26	22717.24
497.44	22640.00
497.62	23000.44
497.79	23412.38
497.97	23309.40
498.14	23592.60
498.32	23447.49
498.50	23686.22
498.67	24196.46
498.85	23737.71
499.03	23831.33
499.20	24060.71
499.38	24283.06
499.56	24458.60
499.73	24126.24
499.91	24613.07
500.08	24631.80
500.26	24474.98
500.44	24643.50
500.61	24800.32
500.79	24776.91
500.97	24936.07
501.14	25406.52
501.32	25387.79
501.49	25230.98
501.67	25432.26
501.84	25418.22
502.02	25834.83
502.20	25706.10
502.37	25661.63
502.55	25593.76
502.72	25493.12
502.90	25914.41
503.07	26064.21
503.25	25982.29
503.43	26118.04
503.60	25860.58
503.78	26459.76
503.95	26321.66
504.13	26586.15
504.30	26419.97
504.48	26539.33
504.65	26799.13
504.83	27159.58
505.01	27054.25
505.18	27356.18
505.36	27494.27
505.53	27138.51
505.71	27309.37
505.88	27363.20
506.06	27529.38
506.23	27634.71
506.41	27793.86
506.58	27744.71
506.76	27482.57
506.93	28060.68
507.11	27880.46
507.28	27807.90
507.46	27943.66
507.63	28173.03
507.81	28844.76
507.98	28266.65
508.16	28383.68
508.33	28568.58
508.50	28701.99
508.68	28800.29
508.85	29324.57
509.03	28591.98
509.20	29092.86
509.38	29050.73
509.55	29184.14
509.73	29240.31
509.90	29254.36
510.08	29488.41
510.25	29275.42
510.42	29551.60
510.60	29303.51
510.77	29867.58
510.95	30305.26
511.12	29982.26
511.30	30033.75
511.47	29642.88
511.64	30043.12
511.82	30267.81
511.99	30389.52
512.17	30590.80
512.34	30274.83
512.51	30866.98
512.69	30810.81
512.86	30864.64
513.04	30948.90
513.21	30920.82
513.38	30991.03
513.56	30881.03
513.73	31211.04
513.90	31075.29
514.08	31101.04
514.25	31360.84
514.43	31941.29
514.60	31632.34
514.77	31550.42
514.95	31548.08
515.12	31615.96
515.29	31786.82
515.47	32285.35
515.64	32196.41
515.81	31763.41
515.99	32278.33
516.16	32301.73
516.33	32240.88
516.51	32222.16
516.68	32039.59
516.85	32283.01
517.03	32540.47
517.20	32816.65
517.37	32875.16
517.54	32701.96
517.72	32636.43
517.89	33223.90
518.06	33146.67
518.24	33064.75
518.41	32732.39
518.58	33287.10
518.75	32912.61
518.93	33462.64
519.10	33572.64
519.27	32856.44
519.45	33488.38
519.62	34127.35
519.79	33699.03
519.96	33457.96
520.14	33921.38
520.31	33797.34
520.48	33909.68
520.65	33998.62
520.83	34403.53
521.00	34349.70
521.17	34206.93
521.34	34146.08
521.52	34609.50
521.69	34284.17
521.86	34572.05
522.03	34534.60
522.20	34780.36
522.38	34998.03
522.55	34836.53
522.72	35306.98
522.89	35143.14
523.07	35789.13
523.24	35215.70
523.41	35246.13
523.58	35388.90
523.75	35543.38
523.92	34965.26
524.10	35271.87
524.27	35899.14
524.44	35489.54
524.61	35739.98
524.78	36243.20
524.96	35641.68
525.13	36172.98
525.30	36238.51
525.47	36060.63
525.64	36121.49
525.81	36332.14
525.98	36320.43
526.16	36137.87
526.33	36493.63
526.50	36706.62
526.67	36346.18
526.84	36449.16
527.01	36545.12
527.18	36383.63
527.36	37097.49
527.53	36926.63
527.70	37156.00
527.87	36797.90
528.04	37104.51
528.21	37319.84
528.38	37137.28
528.55	36875.14
528.72	36966.42
528.89	37230.90
529.07	36912.59
529.24	37046.00
529.41	37659.22
529.58	37645.18
529.75	37383.04
529.92	37652.20
530.09	37820.72
530.26	37600.71
530.43	37441.55
530.60	37900.29
530.77	37715.39
530.94	38022.00
531.11	37907.32
531.28	38106.26
531.46	38141.37
531.63	38522.88
531.80	37989.24
531.97	38260.74
532.14	38061.79
532.31	38354.36
532.48	38300.53
532.65	38415.21
532.82	37970.51
532.99	38843.53
533.16	38134.35
533.33	39084.61
533.50	38562.67
533.67	38754.59
533.84	38635.22
534.01	39089.29
534.18	38560.33
534.35	39239.08
534.52	39077.58
534.69	39311.64
534.86	39592.50
535.03	39632.29
535.20	39356.11
535.37	39419.30
535.54	39793.79
535.71	39653.36
535.88	39585.48
536.05	39257.81
536.22	39655.70
536.38	39662.72
536.55	39798.47
536.72	39824.22
536.89	39669.74
537.06	39634.63
537.23	40062.95
537.40	39807.83
537.57	39447.39
537.74	39489.52
537.91	39997.41
538.08	39995.07
538.25	39845.28
538.42	40175.30
538.59	40521.69
538.75	40053.59
538.92	40669.15
539.09	40648.08
539.26	40268.92
539.43	40519.35
539.60	40547.44
539.77	40484.25
539.94	41123.21
540.11	40737.02
540.28	40821.28
540.44	40840.01
540.61	40961.72
540.78	40804.90
540.95	40673.83
541.12	40486.59
541.29	40699.58
541.46	41022.57
541.62	41001.50
541.79	41397.06
541.96	40945.33
542.13	41298.75
542.30	41125.55
542.47	41336.20
542.63	41371.31
542.80	41469.61
542.97	42073.47
543.14	41883.89
543.31	42237.31
543.48	42003.25
543.64	41867.50
543.81	42223.26
543.98	41507.06
544.15	41586.64
544.32	42131.98
544.48	42653.92
544.65	42213.90
544.82	42316.89
544.99	41897.93
545.16	42202.20
545.32	42513.49
545.49	42707.76
545.66	42632.86
545.83	42293.48
546.00	42665.63
546.16	42174.11
546.33	42363.70
546.50	42487.74
546.67	42836.48
546.83	42326.25
547.00	42347.31
547.17	42515.83
547.34	42794.36
547.50	42586.05
547.67	43126.71
547.84	42887.98
548.00	42941.81
548.17	43438.00
548.34	43407.58
548.51	43330.34
548.67	43524.60
548.84	42834.14
549.01	43079.90
549.18	43264.80
549.34	43154.80
549.51	43278.85
549.68	43402.89
549.84	43896.75
550.01	43735.25
550.18	43320.98
550.34	43313.95
550.51	44055.90
550.68	43552.69
550.84	43482.47
551.01	43831.21
551.18	43585.46
551.34	43786.74
551.51	43704.82
551.68	43672.06
551.84	43613.54
552.01	43716.53
552.18	44037.18
552.34	43861.64
552.51	43833.55
552.68	44151.87
552.84	43491.83
553.01	44224.42
553.18	44048.88
553.34	43945.90
553.51	43931.86
553.67	44549.76
553.84	44617.63
554.01	44289.96
554.17	44231.44
554.34	44474.86
554.51	44051.22
554.67	44739.34
554.84	44421.03
555.00	44650.40
555.17	44285.28
555.33	44999.14
555.50	44509.97
555.67	44636.36
555.83	44392.94
556.00	44655.08
556.16	45045.95
556.33	44804.88
556.50	44903.18
556.66	44605.93
556.83	44928.92
556.99	45139.57
557.16	44996.80
557.32	45240.21
557.49	45280.00
557.65	44830.62
557.82	44938.29
557.98	45296.39
558.15	45469.59
558.32	45216.81
558.48	45212.13
558.65	45116.17
558.81	45488.31
558.98	44985.10
559.14	45071.70
559.31	45310.43
559.47	45308.09
559.64	45673.21
559.80	45364.26
559.97	45619.38
560.13	45483.63
560.30	45141.91
560.46	46361.33
560.63	45614.70
560.79	46066.42
560.96	45741.09
561.12	45970.46
561.29	45794.92
561.45	45500.01
561.61	45940.04
561.78	45874.50
561.94	45666.19
562.11	45785.56
562.27	45738.75
562.44	45663.85
562.60	46092.17
562.77	45841.73
562.93	45956.42
563.10	45837.05
563.26	46075.79
563.42	46363.67
563.59	45755.13
563.75	45666.19
563.92	45918.97
564.08	45544.48
564.24	46220.90
564.41	45853.44
564.57	45815.99
564.74	46213.88
564.90	46108.55
565.07	45764.49
565.23	45785.56
565.39	46050.04
565.56	46391.76
565.72	46064.08
565.88	46230.26
566.05	46253.67
566.21	46319.20
566.38	46181.11
566.54	46286.43
566.70	46398.78
566.87	46277.07
567.03	46349.63
567.19	46529.85
567.36	46265.37
567.52	46546.23
567.68	46227.92
567.85	46576.66
568.01	46218.56
568.17	46195.15
568.34	46410.48
568.50	46756.88
568.66	46347.29
568.83	46447.93
568.99	46396.44
569.15	46555.60
569.32	46337.93
569.48	46286.43
569.64	46452.61
569.81	46520.49
569.97	46761.56
570.13	46752.20
570.30	46270.05
570.46	46349.63
570.62	46773.27
570.78	46822.42
570.95	46848.16
571.11	46855.18
571.27	46897.31
571.43	46586.02
571.60	46902.00
571.76	46698.37
571.92	46911.36
572.09	46616.45
572.25	46674.96
572.41	46532.19
572.57	46742.84
572.74	47381.80
572.90	46539.21
573.06	46995.62
573.22	47122.01
573.38	47210.95
573.55	47145.41
573.71	47206.26
573.87	46850.50
574.03	46717.09
574.20	47089.24
574.36	46890.29
574.52	47054.13
574.68	47232.01
574.84	47040.09
575.01	46927.74
575.17	47320.95
575.33	46967.53
575.49	46625.81
575.65	46997.96
575.82	46981.57
575.98	46803.69
576.14	46951.15
576.30	47267.12
576.46	46976.89
576.62	46490.06
576.79	46878.59
576.95	46199.83
577.11	46831.78
577.27	46967.53
577.43	46763.90
577.59	47180.52
577.75	46679.64
577.92	46852.84
578.08	47466.06
578.24	47257.76
578.40	47253.08
578.56	47119.66
578.72	47402.87
578.88	47180.52
579.04	47185.20
579.21	46937.10
579.37	47550.32
579.53	47440.32
579.69	46939.44
579.85	47267.12
580.01	47274.14
580.17	46976.89
580.33	47229.67
580.49	47447.34
580.65	47154.77
580.82	47021.36
580.98	47482.45
581.14	46740.50
581.30	47250.74
581.46	47098.60
581.62	47194.56
581.78	46948.81
581.94	47517.56
582.10	47222.65
582.26	47290.52
582.42	47105.62
582.58	47625.22
582.74	47360.74
582.90	47112.64
583.06	47398.19
583.22	47351.38
583.38	47817.14
583.54	47569.05
583.70	47292.86
583.86	47657.99
584.02	47201.58
584.18	47643.94
584.34	47370.10
584.50	47384.15
584.66	47753.95
584.82	47433.30
584.98	47791.40
585.14	48060.56
585.30	47089.24
585.46	47388.83
585.62	47297.55
585.78	47379.46
585.94	47096.26
586.10	47004.98
586.26	47136.05
586.42	47400.53
586.58	47515.22
586.74	47569.05
586.90	46997.96
587.06	47344.36
587.22	47704.80
587.38	47201.58
587.54	47501.17
587.70	47445.00
587.86	47470.75
588.02	47084.56
588.18	47229.67
588.34	47253.08
588.49	47657.99
588.65	47267.12
588.81	47363.08
588.97	47470.75
589.13	47386.49
589.29	47388.83
589.45	47318.61
589.61	47274.14
589.77	47952.90
589.93	47730.54
590.08	47620.54
590.24	47760.97
590.40	47920.13
590.56	48318.02
590.72	47819.49
590.88	47657.99
591.04	47625.22
591.20	47763.31
591.35	47770.33
591.51	48093.33
591.67	47760.97
591.83	48135.46
591.99	47627.56
592.15	47789.06
592.31	47842.89
592.46	47620.54
592.62	47679.05
592.78	48404.62
592.94	47988.00
593.10	48369.51
593.26	48128.44
593.41	47896.72
593.57	47870.98
593.73	48147.16
593.89	48275.89
594.05	48364.83
594.20	48098.01
594.36	48556.75
594.52	48275.89
594.68	48154.18
594.84	47901.40
594.99	48369.51
595.15	47810.12
595.31	48016.09
595.47	48285.25
595.62	48289.93
595.78	48315.68
595.94	48055.88
596.10	47751.61
596.25	48076.94
596.41	48404.62
596.57	48037.16
596.73	48502.92
596.88	48069.92
597.04	47948.21
597.20	48109.71
597.36	48067.58
597.51	48294.61
597.67	47906.08
597.83	48294.61
597.99	48303.98
598.14	48076.94
598.30	47913.11
598.46	48163.54
598.61	48315.68
598.77	47997.37
598.93	48367.17
599.09	48505.26
599.24	48741.66
599.40	48318.02
599.56	48350.79
599.71	48559.09
599.87	48404.62
600.03	48629.31
600.18	48170.57
600.34	48184.61
600.50	47936.51
600.65	47838.21
600.81	48563.78
600.97	48690.16
601.12	48683.14
601.28	48233.76
601.44	48446.75
601.59	48584.84
601.75	48318.02
601.91	48495.90
602.06	48032.47
602.22	48538.03
602.37	48083.97
602.53	48161.20
602.69	48633.99
602.84	47767.99
603.00	47959.92
603.16	48261.85
603.31	48505.26
603.47	48580.16
603.62	48292.27
603.78	48526.33
603.94	48521.65
604.09	48287.59
604.25	48048.86
604.40	48215.04
604.56	48212.70
604.71	48727.61
604.87	48065.24
605.03	48268.87
605.18	48245.46
605.34	48411.64
605.49	48072.26
605.65	48252.48
605.80	48116.73
605.96	47964.60
606.12	47910.77
606.27	48502.92
606.43	48128.44
606.58	48191.63
606.74	48215.04
606.89	47866.30
607.05	48622.29
607.20	47887.36
607.36	48268.87
607.51	48011.41
607.67	48069.92
607.82	47973.96
607.98	48313.34
608.13	47943.53
608.29	47943.53
608.44	48259.51
608.60	48306.32
608.75	48147.16
608.91	47952.90
609.06	47941.19
609.22	48086.31
609.37	47948.21
609.53	48179.93
609.68	48348.45
609.84	47796.08
609.99	47985.66
610.15	48193.97
610.30	48275.89
610.46	48282.91
610.61	47913.11
610.76	47709.48
610.92	47971.62
611.07	47889.70
611.23	47576.07
611.38	47672.03
611.54	48140.14
611.69	47945.87
611.84	47751.61
612.00	47856.93
612.15	47433.30
612.31	47985.66
612.46	47452.02
612.62	47765.65
612.77	47796.08
612.92	48130.78
613.08	47751.61
613.23	48030.13
613.39	47503.51
613.54	47400.53
613.69	47885.02
613.85	47545.64
614.00	47688.42
614.15	47693.10
614.31	47686.07
614.46	47676.71
614.62	47086.90
614.77	47512.88
614.92	47519.90
615.08	47749.27
615.23	47709.48
615.38	48004.39
615.54	47585.43
615.69	47627.56
615.84	47391.17
616.00	47629.90
616.15	47445.00
616.30	47627.56
616.46	47236.69
616.61	47578.41
616.76	47334.99
616.92	47063.49
617.07	47356.06
617.22	47332.65
617.37	47028.38
617.53	47213.29
617.68	47285.84
617.83	47327.97
617.99	47412.23
618.14	47414.57
618.29	47264.78
618.45	47084.56
618.60	46923.06
618.75	46892.63
618.90	47309.25
619.06	47395.85
619.21	47878.00
619.36	47171.16
619.51	46513.47
619.67	46864.55
619.82	46880.93
619.97	47159.45
620.12	46906.68
620.28	46866.89
620.43	47360.74
620.58	47243.71
620.73	47400.53
620.89	47351.38
621.04	47089.24
621.19	46939.44
621.34	46766.24
621.49	46803.69
621.65	46574.32
621.80	46777.95
621.95	46981.57
622.10	46815.40
622.25	46965.19
622.41	46939.44
622.56	46644.54
622.71	46857.52
622.86	46630.49
623.01	46808.37
623.16	46791.99
623.32	46738.16
623.47	46476.02
623.62	46651.56
623.77	46726.46
623.92	46579.00
624.07	46885.61
624.23	46937.10
624.38	46693.69
624.53	46426.87
624.68	46412.82
624.83	46108.55
624.98	46511.13
625.13	45947.06
625.29	46431.55
625.44	46248.99
625.59	46440.91
625.74	46124.94
625.89	45588.95
626.04	46066.42
626.19	45914.29
626.34	46157.70
626.49	46263.03
626.65	45558.53
626.80	46078.13
626.95	45474.27
627.10	45586.61
627.25	45970.46
627.40	45680.24
627.55	45993.87
627.70	45715.34
627.85	46113.23
628.00	45815.99
628.15	45872.16
628.30	45619.38
628.45	45535.12
628.60	45595.98
628.76	45860.46
628.91	45762.15
629.06	45434.48
629.21	45390.01
629.36	45514.06
629.51	45282.34
629.66	45811.31
629.81	45453.20
629.96	45500.01
630.11	45345.54
630.26	45162.98
630.41	45467.25
630.56	45511.72
630.71	44985.10
630.86	45352.56
631.01	44729.98
631.16	45586.61
631.31	45462.57
631.46	45036.59
631.61	45263.62
631.76	45647.47
631.91	45284.68
632.06	45523.42
632.21	45490.65
632.36	45228.51
632.51	44933.60
632.66	45064.67
632.81	45249.58
632.96	45067.02
633.10	44896.16
633.25	44999.14
633.40	45373.63
633.55	45212.13
633.70	44935.95
633.85	44891.48
634.00	44931.26
634.15	44701.89
634.30	44774.45
634.45	44507.63
634.60	44680.83
634.75	45130.21
634.90	44914.88
635.05	44884.45
635.19	44774.45
635.34	45074.04
635.49	44858.71
635.64	44666.78
635.79	45102.12
635.94	45055.31
636.09	44566.14
636.24	44638.70
636.39	44353.15
636.53	44341.45
636.68	44364.85
636.83	44374.22
636.98	43901.43
637.13	43791.42
637.28	44107.40
637.43	44268.89
637.57	44079.31
637.72	43901.43
637.87	43985.69
638.02	44142.50
638.17	44074.63
638.32	44278.25
638.46	44069.95
638.61	44156.55
638.76	44058.24
638.91	44046.54
639.06	43753.97
639.20	43412.26
639.35	43576.09
639.50	43707.16
639.65	44137.82
639.80	44364.85
639.94	44247.83
640.09	43749.29
640.24	43814.83
640.39	43498.86
640.54	43012.02
640.68	43775.04
640.83	44076.97
640.98	43845.26
641.13	43428.64
641.27	44233.78
641.42	43519.92
641.57	43552.69
641.72	43662.69
641.86	43665.03
642.01	43377.15
642.16	43110.33
642.31	43255.44
642.45	43440.34
642.60	43473.11
642.75	43428.64
642.90	43681.42
643.04	43468.43
643.19	43648.65
643.34	43278.85
643.48	42960.53
643.63	43239.06
643.78	43318.64
643.93	43267.14
644.07	43306.93
644.22	42909.04
644.37	42740.52
644.51	43175.86
644.66	43248.42
644.81	43028.41
644.95	42906.70
645.10	43363.11
645.25	43044.79
645.39	42733.50
645.54	42562.64
645.69	42682.01
645.83	42836.48
645.98	42539.24
646.13	42801.38
646.27	42869.25
646.42	42782.65
646.57	42373.06
646.71	43021.39
646.86	43140.75
647.00	42642.22
647.15	42871.59
647.30	42646.90
647.44	42948.83
647.59	42726.48
647.74	42625.84
647.88	42759.25
648.03	43103.31
648.17	42621.16
648.32	42937.13
648.47	43056.50
648.61	42770.95
648.76	42452.64
648.90	42513.49
649.05	42752.23
649.20	42206.88
649.34	42263.05
649.49	42562.64
649.63	42637.54
649.78	42422.21
649.92	42003.25
650.07	42579.03
650.21	42784.99
650.36	42768.61
650.51	42471.36
650.65	42593.07
650.80	42232.63
650.94	42014.96
651.09	42249.01
651.23	41989.21
651.38	41961.12
651.52	41652.17
651.67	41741.11
651.81	41743.45
651.96	41537.49
652.10	41584.30
652.25	41874.52
652.39	41853.46
652.54	41710.69
652.68	41865.16
652.83	41614.72
652.97	42368.38
653.12	41911.97
653.26	41415.78
653.41	41862.82
653.55	41649.83
653.70	41879.21
653.84	41600.68
653.99	41975.17
654.13	41886.23
654.27	41228.54
654.42	41581.96
654.56	41603.02
654.71	41624.09
654.85	41546.85
655.00	41663.88
655.14	41368.97
655.29	41673.24
655.43	41455.57
655.57	41109.17
655.72	41195.77
655.86	41331.52
656.01	40872.78
656.15	40950.01
656.30	41296.41
656.44	41368.97
656.58	41308.11
656.73	41661.54
656.87	40519.35
657.01	40797.88
657.16	41088.10
657.30	41078.74
657.45	41177.04
657.59	40725.32
657.73	40507.65
657.88	41027.25
658.02	41352.58
658.16	41083.42
658.31	40917.25
658.45	40924.27
658.60	41062.36
658.74	40814.26
658.88	40659.79
659.03	40502.97
659.17	40388.28
659.31	40229.13
659.46	40753.41
659.60	40650.42
659.74	40591.91
659.89	40212.74
660.03	40058.27
660.17	40367.22
660.32	40414.03
660.46	40072.31
660.60	40044.23
660.74	40133.17
660.89	40385.94
661.03	39627.61
661.17	39611.23
661.32	39447.39
661.46	39812.51
661.60	39414.62
661.74	39627.61
661.89	39723.57
662.03	39475.48
662.17	39810.17
662.31	39683.78
662.46	39168.87
662.60	39358.45
662.74	39084.61
662.88	39351.43
663.03	39021.41
663.17	38789.70
663.31	38768.63
663.45	38998.01
663.60	39522.29
663.74	39037.80
663.88	38756.93
664.02	38665.65
664.17	39040.14
664.31	38513.52
664.45	38190.52
664.59	38457.34
664.73	38445.64
664.88	38806.08
665.02	38092.22
665.16	38560.33
665.30	38494.79
665.44	38295.85
665.59	37949.45
665.73	38050.09
665.87	37607.73
666.01	38162.43
666.15	38272.44
666.29	37792.63
666.44	38078.18
666.58	37947.11
666.72	37837.10
666.86	37748.16
667.00	37303.46
667.14	37359.63
667.28	37570.28
667.43	37689.65
667.57	37504.74
667.71	37724.75
667.85	37935.40
667.99	37404.10
668.13	37830.08
668.27	36847.05
668.41	37570.28
668.56	36292.35
668.70	36776.84
668.84	36416.40
668.98	36952.38
669.12	36690.24
669.26	36811.95
669.40	36669.17
669.54	36444.48
669.68	36940.68
669.82	36180.00
669.96	36421.08
670.10	36395.33
670.25	36421.08
670.39	36182.34
670.53	36425.76
670.67	36062.97
670.81	36371.92
670.95	36495.97
671.09	35545.72
671.23	35683.81
671.37	36135.53
671.51	35747.00
671.65	35665.08
671.79	35381.88
671.93	35604.23
672.07	35431.03
672.21	35578.48
672.35	35051.86
672.49	35264.85
672.63	35519.97
672.77	35225.06
672.91	35115.06
673.05	34417.58
673.19	34909.09
673.33	34972.28
673.47	34607.16
673.61	34457.37
673.75	34440.98
673.89	34429.28
674.03	34347.36
674.17	34162.46
674.31	34211.61
674.45	34305.23
674.59	33736.48
674.73	33811.38
674.87	33928.41
675.01	33738.82
675.15	33603.07
675.29	33291.78
675.43	33172.41
675.56	33481.36
675.70	33556.26
675.84	33369.02
675.98	32400.04
676.12	33322.21
676.26	33055.39
676.40	32730.05
676.54	33008.58
676.68	33031.98
676.82	32315.78
676.96	32662.18
677.10	32818.99
677.23	32613.02
677.37	32395.35
677.51	32624.73
677.65	32243.22
677.79	31990.44
677.93	31807.88
678.07	31995.12
678.21	31793.84
678.34	31854.69
678.48	31260.20
678.62	31648.72
678.76	31414.67
678.90	30796.77
679.04	31171.25
679.18	31480.21
679.31	31087.00
679.45	30948.90
679.59	30941.88
679.73	31051.89
679.87	30230.36
680.00	30778.04
680.14	30246.74
680.28	30331.00
680.42	30448.03
680.56	30426.96
680.70	30202.27
680.83	29996.31
680.97	29647.57
681.11	29811.40
681.25	29462.66
681.39	29544.58
681.52	29640.54
681.66	28950.09
681.80	28804.97
681.94	28947.75
682.07	28870.51
682.21	28982.85
682.35	28868.17
682.49	28943.06
682.62	28678.58
682.76	28872.85
682.90	28552.20
683.04	28580.28
683.17	28334.53
683.31	28311.12
683.45	28053.66
683.59	27779.82
683.72	27623.00
683.86	27702.58
684.00	27360.86
684.13	27704.92
684.27	27599.60
684.41	27381.93
684.55	27395.97
684.68	27140.85
684.82	26969.99
684.96	26991.06
685.09	27384.27
685.23	26689.13
685.37	27257.88
685.50	27332.78
685.64	26593.17
685.78	26738.28
685.91	26560.40
686.05	26415.29
686.19	25921.43
686.32	25797.38
686.46	25888.67
686.60	25640.57
686.73	25874.62
686.87	25661.63
687.01	25898.03
687.14	25781.00
687.28	25429.92
687.42	25551.63
687.55	25308.21
687.69	25362.04
687.82	24641.16
687.96	25245.02
688.10	25050.75
688.23	24877.55
688.37	25202.89
688.50	24805.00
688.64	24587.33
688.78	24739.46
688.91	24203.48
689.05	24372.00
689.18	24320.51
689.32	23431.10
689.46	23491.96
689.59	23683.88
689.73	24037.30
689.86	23655.79
690.00	23616.01
690.13	23639.41
690.27	23370.25
690.41	23484.94
690.54	23119.81
690.68	23236.84
690.81	23274.29
690.95	23091.73
691.08	22871.72
691.22	22569.79
691.35	22586.17
691.49	22925.55
691.62	22513.61
691.76	22153.17
691.89	21923.80
692.03	22195.30
692.16	21891.03
692.30	21834.86
692.43	21893.37
692.57	21673.36
692.70	21881.67
692.84	21446.33
692.97	21664.00
693.11	21359.73
693.24	20973.54
693.38	21020.35
693.51	21039.08
693.65	21186.53
693.78	20943.11
693.92	20769.91
694.05	20723.10
694.19	20592.03
694.32	20760.55
694.45	20542.88
694.59	20919.71
694.72	20575.65
694.86	20498.41
694.99	20091.16
695.13	19824.34
695.26	20032.65
695.39	19576.24
695.53	19761.14
695.66	19939.02
695.80	19690.93
695.93	19499.00
696.07	19241.54
696.20	19215.80
696.33	18906.85
696.47	19129.20
696.60	18857.70
696.73	19190.05
696.87	19110.47
697.00	18625.98
697.14	18792.16
697.27	18579.17
697.40	18492.57
697.54	18656.41
697.67	18530.02
697.80	18508.96
697.94	17965.95
698.07	18050.21
698.21	18075.96
698.34	18064.25
698.47	17675.73
698.61	17752.96
698.74	17261.45
698.87	17439.33
699.01	17310.60
699.14	17249.75
699.27	17404.22
699.40	17149.11
699.54	17177.19
699.67	17413.59
699.80	17046.12
699.94	17032.08
700.07	17071.87
700.20	17121.02
700.34	16690.36
700.47	16613.12
700.60	16975.91
700.73	16812.07
700.87	16418.86
701.00	16294.81
701.13	16250.34
701.26	16397.79
701.40	16159.06
701.53	16011.60
701.66	16273.74
701.79	16163.74
701.93	15634.78
702.06	15578.61
702.19	15316.47
702.32	15634.78
702.46	15866.49
702.59	15616.05
702.72	15651.16
702.85	15566.90
702.99	15587.97
703.12	15295.40
703.25	14991.13
703.38	14827.29
703.51	15042.62
703.65	14862.40
703.78	14623.67
703.91	14700.90
704.04	14611.96
704.17	14506.64
704.31	14497.28
704.44	14295.99
704.57	14363.87
704.70	14361.53
704.83	14185.99
704.96	14115.77
705.10	14033.85
705.23	14099.39
>>>>>End Processed Spectral Data<<<<<
