SpectraSuite Data File
++++++++++++++++++++++++++++++++++++
Date: Fri Oct 25 11:34:44 EDT 2013
User: price-jones
Dark Spectrum Present: No
Reference Spectrum Present: No
Number of Sampled Component Spectra: 1
Spectrometers: USB2+H05261
Integration Time (usec): 100000 (USB2+H05261)
Spectra Averaged: 1 (USB2+H05261)
Boxcar Smoothing: 0 (USB2+H05261)
Correct for Electrical Dark: No (USB2+H05261)
Strobe/Lamp Enabled: No (USB2+H05261)
Correct for Detector Non-linearity: No (USB2+H05261)
Correct for Stray Light: No (USB2+H05261)
Number of Pixels in Processed Spectrum: 2048
>>>>>Begin Processed Spectral Data<<<<<
365.73	269.16
365.92	269.16
366.12	269.16
366.32	217.67
366.52	102.98
366.72	161.50
366.91	250.44
367.11	145.11
367.31	191.92
367.51	189.58
367.70	173.20
367.90	191.92
368.10	196.60
368.30	191.92
368.49	168.52
368.69	170.86
368.89	243.42
369.09	189.58
369.28	220.01
369.48	278.52
369.68	248.10
369.87	276.18
370.07	294.91
370.27	346.40
370.47	311.29
370.66	484.49
370.86	568.75
371.06	582.79
371.25	489.17
371.45	545.34
371.65	561.73
371.84	500.87
372.04	528.96
372.24	547.69
372.44	561.73
372.63	559.39
372.83	655.35
373.03	641.31
373.22	610.88
373.42	514.92
373.62	653.01
373.81	664.71
374.01	692.80
374.21	662.37
374.40	699.82
374.60	596.84
374.79	641.31
374.99	641.31
375.19	582.79
375.38	587.47
375.58	643.65
375.78	608.54
375.97	716.20
376.17	648.33
376.37	638.97
376.56	564.07
376.76	634.29
376.95	711.52
377.15	685.78
377.35	688.12
377.54	709.18
377.74	606.20
377.93	706.84
378.13	613.22
378.33	664.71
378.52	662.37
378.72	692.80
378.91	704.50
379.11	636.63
379.31	697.48
379.50	653.01
379.70	704.50
379.89	753.65
380.09	784.08
380.28	720.88
380.48	688.12
380.68	765.36
380.87	662.37
381.07	755.99
381.26	718.54
381.46	734.93
381.65	828.55
381.85	770.04
382.04	716.20
382.24	770.04
382.43	751.31
382.63	723.23
382.83	760.67
383.02	779.40
383.22	795.78
383.41	704.50
383.61	805.14
383.80	875.36
384.00	758.33
384.19	765.36
384.39	837.91
384.58	823.87
384.78	772.38
384.97	788.76
385.17	835.57
385.36	826.21
385.56	774.72
385.75	863.66
385.95	931.53
386.14	840.25
386.34	891.74
386.53	777.06
386.72	875.36
386.92	915.15
387.11	856.64
387.31	835.57
387.50	812.17
387.70	856.64
387.89	840.25
388.09	952.60
388.28	910.47
388.48	849.61
388.67	947.92
388.86	866.00
389.06	833.23
389.25	940.90
389.45	887.06
389.64	943.24
389.84	926.85
390.03	905.79
390.22	891.74
390.42	884.72
390.61	873.02
390.81	957.28
391.00	1032.18
391.19	1015.79
391.39	980.68
391.58	983.02
391.78	1001.75
391.97	994.73
392.16	990.05
392.36	987.71
392.55	1015.79
392.75	1043.88
392.94	940.90
393.13	1036.86
393.33	980.68
393.52	1004.09
393.71	1088.35
393.91	1048.56
394.10	1076.65
394.29	1114.10
394.49	1036.86
394.68	1095.37
394.88	1097.71
395.07	1151.54
395.26	1128.14
395.46	1109.41
395.65	1207.72
395.84	1100.05
396.04	1210.06
396.23	1116.44
396.42	1233.46
396.62	1130.48
396.81	1130.48
397.00	1109.41
397.19	1177.29
397.39	1160.91
397.58	1254.53
397.77	1144.52
397.97	1231.12
398.16	1203.04
398.35	1245.16
398.55	1214.74
398.74	1233.46
398.93	1324.74
399.12	1320.06
399.32	1217.08
399.51	1245.16
399.70	1291.98
399.90	1188.99
400.09	1355.17
400.28	1348.15
400.47	1336.45
400.67	1383.26
400.86	1352.83
401.05	1371.55
401.24	1390.28
401.44	1362.19
401.63	1329.42
401.82	1425.39
402.01	1392.62
402.21	1371.55
402.40	1446.45
402.59	1437.09
402.78	1437.09
402.97	1423.05
403.17	1504.96
403.36	1481.56
403.55	1500.28
403.74	1504.96
403.93	1479.22
404.13	1514.33
404.32	1570.50
404.51	1521.35
404.70	1643.06
404.89	1568.16
405.09	1577.52
405.28	1624.33
405.47	1572.84
405.66	1554.12
405.85	1547.09
406.05	1636.03
406.24	1586.88
406.43	1743.70
406.62	1696.89
406.81	1710.93
407.00	1769.44
407.20	1708.59
407.39	1675.82
407.58	1755.40
407.77	1748.38
407.96	1842.00
408.15	1832.64
408.34	1834.98
408.54	1818.60
408.73	1851.36
408.92	1809.23
409.11	1853.70
409.30	1860.73
409.49	1905.20
409.68	1893.49
409.87	1919.24
410.07	1914.56
410.26	1940.30
410.45	1879.45
410.64	1944.99
410.83	2043.29
411.02	1919.24
411.21	2101.80
411.40	2148.61
411.59	2101.80
411.78	2064.35
411.98	2167.34
412.17	2186.06
412.36	2204.78
412.55	2239.89
412.74	2195.42
412.93	2204.78
413.12	2244.57
413.31	2382.67
413.50	2249.25
413.69	2258.62
413.88	2424.80
414.07	2253.94
414.26	2427.14
414.45	2375.64
414.64	2459.90
414.83	2399.05
415.02	2565.23
415.22	2607.36
415.41	2654.17
415.60	2471.61
415.79	2565.23
415.98	2597.99
416.17	2654.17
416.36	2574.59
416.55	2689.28
416.74	2630.76
416.93	2626.08
417.12	2682.25
417.31	2705.66
417.50	2761.83
417.69	2801.62
417.88	2883.54
418.07	2892.90
418.26	2836.73
418.45	2862.48
418.64	2974.82
418.83	2944.39
419.02	2881.20
419.21	2960.78
419.39	2871.84
419.58	2930.35
419.77	2897.58
419.96	2958.44
420.15	3063.76
420.34	2960.78
420.53	2972.48
420.72	3248.66
420.91	2988.86
421.10	3145.68
421.29	3145.68
421.48	3084.83
421.67	3232.28
421.86	3164.40
422.05	3239.30
422.24	3159.72
422.43	3094.19
422.61	3208.87
422.80	3283.77
422.99	3108.23
423.18	3283.77
423.37	3267.39
423.56	3119.93
423.75	3112.91
423.94	3131.64
424.13	3110.57
424.32	3222.92
424.50	3335.26
424.69	3323.56
424.88	3302.50
425.07	3199.51
425.26	3309.52
425.45	3222.92
425.64	3346.97
425.83	3288.45
426.01	3293.13
426.20	3311.86
426.39	3447.61
426.58	3304.84
426.77	3372.71
426.96	3272.07
427.15	3433.57
427.33	3290.79
427.52	3279.09
427.71	3508.46
427.90	3459.31
428.09	3403.14
428.28	3548.25
428.46	3466.33
428.65	3454.63
428.84	3658.26
429.03	3489.74
429.22	3578.68
429.40	3616.13
429.59	3637.19
429.78	3410.16
429.97	3468.67
430.16	3616.13
430.34	3695.71
430.53	3803.37
430.72	3599.74
430.91	3627.83
431.10	3733.15
431.28	3723.79
431.47	3805.71
431.66	3854.86
431.85	3672.30
432.03	3691.02
432.22	3836.14
432.41	3873.59
432.60	3882.95
432.79	3819.75
432.97	4009.34
433.16	3950.82
433.35	3939.12
433.54	3885.29
433.72	3864.22
433.91	4105.30
434.10	3904.01
434.28	4025.72
434.47	3971.89
434.66	4049.13
434.85	4117.00
435.03	4098.28
435.22	4231.69
435.41	4175.52
435.59	4133.39
435.78	4100.62
435.97	4105.30
436.16	4145.09
436.34	4280.84
436.53	4149.77
436.72	4386.16
436.90	4259.78
437.09	4250.41
437.28	4182.54
437.46	4198.92
437.65	4329.99
437.84	4287.86
438.02	4276.16
438.21	4358.08
438.40	4306.59
438.58	4587.45
438.77	4449.36
438.96	4369.78
439.14	4521.92
439.33	4552.34
439.52	4641.28
439.70	4695.11
439.89	4786.40
440.08	4774.69
440.26	4821.50
440.45	4758.31
440.63	4744.27
440.82	4898.74
441.01	4922.15
441.19	4968.96
441.38	4961.94
441.57	4915.12
441.75	5071.94
441.94	4936.19
442.12	5078.96
442.31	5107.05
442.50	5238.12
442.68	5238.12
442.87	5104.71
443.05	5345.78
443.24	5350.46
443.43	5338.76
443.61	5289.61
443.80	5329.40
443.98	5238.12
444.17	5130.45
444.35	5341.10
444.54	5373.87
444.73	5214.71
444.91	5310.68
445.10	5320.04
445.28	5191.31
445.47	5399.62
445.65	5394.93
445.84	5455.79
446.02	5416.00
446.21	5486.22
446.39	5455.79
446.58	5441.75
446.77	5408.98
446.95	5474.51
447.14	5441.75
447.32	5427.70
447.51	5619.63
447.69	5357.49
447.88	5547.07
448.06	5373.87
448.25	5472.17
448.43	5568.13
448.62	5664.10
448.80	5530.69
448.99	5404.30
449.17	5497.92
449.36	5432.38
449.54	5760.06
449.73	5748.36
449.91	5762.40
450.10	5753.04
450.28	5834.96
450.46	5715.59
450.65	5865.38
450.83	5795.17
451.02	5710.91
451.20	5790.49
451.39	5783.46
451.57	5898.15
451.76	5668.78
451.94	5951.98
452.13	6078.37
452.31	5947.30
452.49	5834.96
452.68	6015.18
452.86	5949.64
453.05	6069.01
453.23	6054.97
453.42	5984.75
453.60	6193.06
453.78	6050.28
453.97	6113.48
454.15	6064.33
454.34	5989.43
454.52	6300.72
454.70	6333.49
454.89	6265.61
455.07	6310.08
455.26	6321.79
455.44	6382.64
455.62	6403.71
455.81	6394.34
455.99	6462.22
456.17	6551.16
456.36	6464.56
456.54	6593.29
456.73	6448.18
456.91	6757.13
457.09	6724.36
457.28	6572.22
457.46	6677.55
457.64	6703.29
457.83	6626.06
458.01	6612.01
458.19	6874.15
458.38	6792.23
458.56	6757.13
458.74	6825.00
458.93	6890.54
459.11	6703.29
459.29	6878.83
459.48	6839.05
459.66	6920.96
459.84	7012.24
460.03	7220.55
460.21	7236.94
460.39	6984.16
460.57	6899.90
460.76	7094.16
460.94	7096.50
461.12	7089.48
461.31	7190.13
461.49	7138.63
461.67	7096.50
461.85	7342.26
462.04	7091.82
462.22	7452.27
462.40	7311.83
462.59	7365.67
462.77	7229.91
462.95	7377.37
463.13	7543.55
463.32	7260.34
463.50	7466.31
463.68	7534.18
463.86	7660.57
464.05	7527.16
464.23	7506.10
464.41	7412.48
464.59	7407.80
464.78	7658.23
464.96	7557.59
465.14	7550.57
465.32	7676.96
465.50	7616.10
465.69	7702.70
465.87	7726.11
466.05	7620.78
466.23	7784.62
466.41	7735.47
466.60	8044.42
466.78	7602.06
466.96	7747.17
467.14	7721.43
467.32	7857.18
467.51	7925.05
467.69	7772.92
467.87	7967.18
468.05	7976.55
468.23	7953.14
468.41	7871.22
468.60	7887.61
468.78	7946.12
468.96	8006.97
469.14	8252.73
469.32	8238.69
469.50	8025.70
469.69	8205.92
469.87	8325.29
470.05	8152.09
470.23	8311.24
470.41	8315.92
470.59	8421.25
470.77	8390.82
470.95	8421.25
471.14	8655.30
471.32	8402.52
471.50	8566.36
471.68	8503.17
471.86	8411.89
472.04	8568.70
472.22	8716.16
472.40	8620.19
472.58	8751.26
472.77	8821.48
472.95	8870.63
473.13	9219.37
473.31	8954.89
473.49	9114.05
473.67	9100.00
473.85	8994.68
474.03	8980.64
474.21	9095.32
474.39	9467.47
474.57	9308.31
474.75	9537.68
474.93	9291.93
475.12	9397.25
475.30	9350.44
475.48	9355.12
475.66	9509.60
475.84	9460.45
476.02	9661.73
476.20	9692.16
476.38	9771.74
476.56	9958.98
476.74	10167.29
476.92	9991.75
477.10	9837.27
477.28	10239.84
477.46	10434.11
477.64	10326.44
477.82	10391.98
478.00	10647.10
478.18	10443.47
478.36	10691.57
478.54	10551.14
478.72	10551.14
478.90	10654.12
479.08	10939.66
479.26	10953.71
479.44	11229.89
479.62	11012.22
479.80	11311.81
479.98	11424.15
480.16	11566.93
480.34	11272.02
480.52	11538.84
480.70	11763.53
480.88	11543.52
481.06	11658.21
481.24	11726.08
481.41	11866.52
481.59	11995.25
481.77	12114.61
481.95	12449.31
482.13	12166.10
482.31	12222.28
482.49	12730.17
482.67	12629.53
482.85	12463.35
483.03	12947.84
483.21	12938.48
483.39	12865.92
483.57	12917.42
483.74	13312.97
483.92	13247.43
484.10	13186.58
484.28	13617.24
484.46	13710.86
484.64	13916.83
484.82	13757.67
485.00	13940.23
485.18	14195.35
485.35	14164.92
485.53	14008.11
485.71	14169.60
485.89	14436.42
486.07	14361.53
486.25	14560.47
486.43	14588.56
486.61	14796.87
486.78	15122.20
486.96	14956.02
487.14	15541.16
487.32	15159.65
487.50	15206.46
487.68	15585.63
487.85	15639.46
488.03	15702.65
488.21	16159.06
488.39	16233.96
488.57	15838.41
488.75	16318.22
488.92	16292.47
489.10	16322.90
489.28	16570.99
489.46	16762.92
489.64	16727.81
489.81	17137.40
489.99	17071.87
490.17	17296.56
490.35	17612.53
490.53	17294.22
490.70	17603.17
490.88	17633.60
491.06	17699.13
491.24	17935.53
491.41	18118.09
491.59	18111.07
491.77	18104.04
491.95	18373.21
492.13	18520.66
492.30	18679.82
492.48	18354.48
492.66	18654.07
492.84	18991.11
493.01	18948.98
493.19	18923.23
493.37	18953.66
493.54	19236.86
493.72	19501.34
493.90	19419.42
494.08	19625.39
494.25	19616.03
494.43	19618.37
494.61	20063.07
494.79	19995.20
494.96	19910.94
495.14	20072.43
495.32	20690.34
495.49	20610.76
495.67	20624.80
495.85	20975.88
496.02	20751.19
496.20	20982.90
496.38	21095.25
496.55	21022.69
496.73	21521.23
496.91	21582.08
497.09	21523.57
497.26	21652.30
497.44	21909.75
497.62	21806.77
497.79	22075.93
497.97	21886.35
498.14	22431.69
498.32	22228.07
498.50	22504.25
498.67	22897.46
498.85	22607.23
499.03	22735.96
499.20	22902.14
499.38	22948.95
499.56	22670.43
499.73	22698.52
499.91	22829.59
500.08	23491.96
500.26	23321.10
500.44	23246.20
500.61	23215.77
500.79	23157.26
500.97	23686.22
501.14	24102.84
501.32	24058.37
501.49	24224.54
501.67	23489.62
501.84	24041.98
502.02	23974.11
502.20	24123.90
502.37	24460.94
502.55	23941.34
502.72	24151.99
502.90	24641.16
503.07	24320.51
503.25	24617.75
503.43	24329.87
503.60	25043.73
503.78	24847.13
503.95	24676.27
504.13	25289.49
504.30	24959.47
504.48	25050.75
504.65	25376.09
504.83	25668.66
505.01	25895.69
505.18	25404.17
505.36	25769.30
505.53	25556.31
505.71	25738.87
505.88	25956.54
506.06	25914.41
506.23	26057.18
506.41	26204.64
506.58	26263.15
506.76	26185.91
506.93	26508.91
507.11	26370.82
507.28	26738.28
507.46	26639.98
507.63	26647.00
507.81	26780.41
507.98	26356.77
508.16	26845.94
508.33	27119.79
508.50	27080.00
508.68	27131.49
508.85	27332.78
509.03	27199.37
509.20	27428.74
509.38	27491.93
509.55	27367.88
509.73	27587.89
509.90	27660.45
510.08	27873.44
510.25	27665.13
510.42	27817.27
510.60	27800.88
510.77	28175.37
510.95	28491.34
511.12	28002.17
511.30	28280.69
511.47	28329.84
511.64	28240.90
511.82	28690.29
511.99	28940.72
512.17	28793.27
512.34	28687.95
512.51	29013.28
512.69	28739.44
512.86	29109.24
513.04	29256.70
513.21	29607.78
513.38	29340.96
513.56	29762.25
513.73	29408.83
513.90	29277.76
514.08	29364.36
514.25	29553.94
514.43	29633.52
514.60	29668.63
514.77	30089.93
514.95	30033.75
515.12	29900.34
515.29	29841.83
515.47	30267.81
515.64	30331.00
515.81	30223.34
515.99	30464.41
516.16	30684.42
516.33	30684.42
516.51	30586.12
516.68	30733.57
516.85	30670.38
517.03	31072.95
517.20	30988.69
517.37	30574.42
517.54	31260.20
517.72	31030.82
517.89	31583.19
518.06	31138.49
518.24	31079.97
518.41	30995.71
518.58	31288.28
518.75	30745.28
518.93	31768.09
519.10	31426.37
519.27	31454.46
519.45	31438.08
519.62	32034.91
519.79	31981.08
519.96	31566.81
520.14	32009.17
520.31	32119.17
520.48	31990.44
520.65	32163.64
520.83	32598.98
521.00	32587.28
521.17	32650.47
521.34	32383.65
521.52	32751.12
521.69	32903.25
521.86	32900.91
522.03	33001.55
522.20	32767.50
522.38	33188.80
522.55	32823.67
522.72	33270.72
522.89	33083.47
523.07	33472.00
523.24	33219.22
523.41	33060.07
523.58	33006.23
523.75	33240.29
523.92	33301.14
524.10	33556.26
524.27	33626.48
524.44	33668.61
524.61	33886.28
524.78	33851.17
524.96	33961.17
525.13	34314.59
525.30	34010.32
525.47	34099.26
525.64	34230.33
525.81	34370.77
525.98	34511.20
526.16	34225.65
526.33	34040.75
526.50	34476.09
526.67	34501.84
526.84	34590.78
527.01	34586.10
527.18	35084.63
527.36	34941.86
527.53	34665.67
527.70	35335.07
527.87	35253.15
528.04	34892.71
528.21	35033.14
528.38	34820.15
528.55	35058.88
528.72	35154.85
528.89	34960.58
529.07	34988.67
529.24	35044.84
529.41	35299.96
529.58	35646.36
529.75	35304.64
529.92	35456.78
530.09	35545.72
530.26	35519.97
530.43	35407.62
530.60	35620.61
530.77	35613.59
530.94	35772.75
531.11	35564.44
531.28	35775.09
531.46	35875.73
531.63	36137.87
531.80	36128.51
531.97	35931.90
532.14	36409.37
532.31	36212.77
532.48	36348.52
532.65	36552.15
532.82	36453.84
532.99	36783.86
533.16	36304.05
533.33	36524.06
533.50	36629.38
533.67	36725.35
533.84	36327.45
534.01	36629.38
534.18	36760.45
534.35	37141.96
534.52	36992.17
534.69	37457.93
534.86	36971.10
535.03	36919.61
535.20	37104.51
535.37	37457.93
535.54	37130.26
535.71	37071.75
535.88	37394.74
536.05	37354.95
536.22	37469.64
536.38	37514.11
536.55	37237.92
536.72	37525.81
536.89	37397.08
537.06	37572.62
537.23	38075.84
537.40	37624.11
537.57	37408.78
537.74	37483.68
537.91	37937.74
538.08	37670.92
538.25	37708.37
538.42	38057.11
538.59	38307.55
538.75	37893.27
538.92	37860.51
539.09	38443.30
539.26	38499.47
539.43	38160.09
539.60	38103.92
539.77	38419.89
539.94	38459.68
540.11	38581.39
540.28	38471.39
540.44	38232.65
540.61	39005.03
540.78	38340.32
540.95	38513.52
541.12	38780.34
541.29	38295.85
541.46	38675.01
541.62	38705.44
541.79	39192.27
541.96	38778.00
542.13	39117.37
542.30	38995.67
542.47	38740.55
542.63	38995.67
542.80	39065.88
542.97	39636.97
543.14	40245.51
543.31	39477.82
543.48	39189.93
543.64	39948.26
543.81	39564.42
543.98	39618.25
544.15	40067.63
544.32	39906.13
544.48	40170.61
544.65	40135.51
544.82	39934.22
544.99	39583.14
545.16	39831.24
545.32	39793.79
545.49	40357.86
545.66	40399.99
545.83	40114.44
546.00	40264.24
546.16	39995.07
546.33	40343.81
546.50	40147.21
546.67	40266.58
546.83	39966.99
547.00	40006.78
547.17	40201.04
547.34	40320.41
547.50	40734.68
547.67	40994.48
547.84	40556.80
548.00	40297.00
548.17	41352.58
548.34	40655.11
548.51	41078.74
548.67	40814.26
548.84	40617.66
549.01	40582.55
549.18	40570.85
549.34	40828.30
549.51	41228.54
549.68	41130.23
549.84	40774.47
550.01	41207.47
550.18	40392.97
550.34	41219.17
550.51	41710.69
550.68	41521.10
550.84	41095.13
551.01	41429.82
551.18	41832.39
551.34	41446.21
551.51	41563.23
551.68	41507.06
551.84	41268.33
552.01	41441.53
552.18	41469.61
552.34	41567.91
552.51	41706.01
552.68	41521.10
552.84	41757.50
553.01	42375.40
553.18	41984.53
553.34	41923.68
553.51	41724.73
553.67	41930.70
553.84	42108.58
554.01	41649.83
554.17	41546.85
554.34	42274.76
554.51	42143.69
554.67	42604.77
554.84	42225.60
555.00	42260.71
555.17	41841.76
555.33	42265.39
555.50	42237.31
555.67	42260.71
555.83	42146.03
556.00	42499.45
556.16	42686.69
556.33	42658.60
556.50	42614.13
556.66	42267.73
556.83	42052.41
556.99	42550.94
557.16	42405.83
557.32	42897.34
557.49	42548.60
557.65	42597.75
557.82	42876.27
557.98	42560.30
558.15	42431.57
558.32	42770.95
558.48	42632.86
558.65	42789.67
558.81	42759.25
558.98	42494.77
559.14	42616.47
559.31	42679.67
559.47	42752.23
559.64	42789.67
559.80	42986.28
559.97	43072.88
560.13	42946.49
560.30	42845.85
560.46	43313.95
560.63	43646.31
560.79	43140.75
560.96	43470.77
561.12	43210.97
561.29	43964.62
561.45	43217.99
561.61	43461.41
561.78	43208.63
561.94	42878.61
562.11	43290.55
562.27	43079.90
562.44	43096.28
562.60	43487.15
562.77	43320.98
562.93	43496.52
563.10	43320.98
563.26	43047.13
563.42	43892.07
563.59	43136.07
563.75	43608.86
563.92	43531.62
564.08	43838.23
564.24	43847.60
564.41	43512.90
564.57	43625.25
564.74	43711.84
564.90	43552.69
565.07	43845.26
565.23	43620.56
565.39	43688.44
565.56	43531.62
565.72	43917.81
565.88	43737.59
566.05	43482.47
566.21	43477.79
566.38	43920.15
566.54	43847.60
566.70	44095.69
566.87	43915.47
567.03	43489.49
567.19	43831.21
567.36	43604.18
567.52	43828.87
567.68	44404.64
567.85	43952.92
568.01	44364.85
568.17	43709.50
568.34	43636.95
568.50	44011.43
568.66	43538.65
568.83	44156.55
568.99	43751.63
569.15	43688.44
569.32	43995.05
569.48	43842.92
569.64	44292.30
569.81	44163.57
569.97	44364.85
570.13	44074.63
570.30	43831.21
570.46	44083.99
570.62	44463.16
570.78	44006.75
570.95	44289.96
571.11	44608.27
571.27	44074.63
571.43	44254.85
571.60	44123.78
571.76	44158.89
571.92	44016.11
572.09	44027.82
572.25	44044.20
572.41	44282.94
572.57	44325.07
572.74	44509.97
572.90	44259.53
573.06	44694.87
573.22	44294.64
573.38	44474.86
573.55	44449.11
573.71	44776.79
573.87	44364.85
574.03	44137.82
574.20	44362.51
574.36	44397.62
574.52	44985.10
574.68	44676.15
574.84	44566.14
575.01	44521.67
575.17	44811.90
575.33	44507.63
575.49	44500.61
575.65	44493.58
575.82	44669.12
575.98	44692.53
576.14	44631.68
576.30	44722.96
576.46	44924.24
576.62	44744.02
576.79	44538.05
576.95	44268.89
577.11	44477.20
577.27	44215.06
577.43	44252.51
577.59	44683.17
577.75	44669.12
577.92	44357.83
578.08	44463.16
578.24	44376.56
578.40	44687.85
578.56	44989.78
578.72	44961.69
578.88	44512.31
579.04	44825.94
579.21	44910.20
579.37	44610.61
579.53	44954.67
579.69	44596.57
579.85	44722.96
580.01	44821.26
580.17	44275.91
580.33	44638.70
580.49	44823.60
580.65	44561.46
580.82	44729.98
580.98	44442.09
581.14	43941.22
581.30	44868.07
581.46	44802.53
581.62	44561.46
581.78	44428.05
581.94	44837.64
582.10	45013.18
582.26	44907.86
582.42	45298.73
582.58	44563.80
582.74	45090.42
582.90	45015.52
583.06	45155.96
583.22	44652.74
583.38	45017.86
583.54	44505.29
583.70	45057.65
583.86	45027.23
584.02	44671.46
584.18	44687.85
584.34	45022.54
584.50	45027.23
584.66	44802.53
584.82	44659.76
584.98	45347.88
585.14	45254.26
585.30	44432.73
585.46	45095.10
585.62	44844.66
585.78	44879.77
585.94	44732.32
586.10	44968.71
586.26	44706.57
586.42	44715.93
586.58	44755.72
586.74	45165.32
586.90	44329.75
587.06	44919.56
587.22	45235.53
587.38	45249.58
587.54	45205.11
587.70	45420.44
587.86	45001.48
588.02	44655.08
588.18	44629.34
588.34	44870.41
588.49	45057.65
588.65	44638.70
588.81	45027.23
588.97	44732.32
589.13	44652.74
589.29	45036.59
589.45	45202.77
589.61	44957.01
589.77	45563.21
589.93	44863.39
590.08	45340.86
590.24	45537.46
590.40	45312.77
590.56	45172.34
590.72	45357.24
590.88	45565.55
591.04	44847.00
591.20	45467.25
591.35	45567.89
591.51	45425.12
591.67	45511.72
591.83	45113.83
591.99	45305.75
592.15	44949.99
592.31	45233.19
592.46	45139.57
592.62	45212.13
592.78	45787.90
592.94	45354.90
593.10	45649.81
593.26	45698.96
593.41	45729.39
593.57	45581.93
593.73	45284.68
593.89	45776.20
594.05	46176.43
594.20	45619.38
594.36	45855.78
594.52	45787.90
594.68	45715.34
594.84	45565.55
594.99	45862.80
595.15	45844.07
595.31	45303.41
595.47	45441.50
595.62	45841.73
595.78	45516.40
595.94	45418.10
596.10	45460.23
596.25	45500.01
596.41	45771.52
596.57	45675.55
596.73	46082.81
596.88	45736.41
597.04	45595.98
597.20	45572.57
597.36	45909.61
597.51	46003.23
597.67	45640.45
597.83	45762.15
597.99	45879.18
598.14	45820.67
598.30	45521.08
598.46	45720.02
598.61	45867.48
598.77	45848.75
598.93	45773.86
599.09	45600.66
599.24	46270.05
599.40	45881.52
599.56	45661.51
599.71	45713.00
599.87	46064.08
600.03	46382.40
600.18	45525.76
600.34	45710.66
600.50	45968.12
600.65	45581.93
600.81	46295.80
600.97	45698.96
601.12	45904.93
601.28	46092.17
601.44	45727.05
601.59	45710.66
601.75	45773.86
601.91	45846.41
602.06	45909.61
602.22	46080.47
602.37	45610.02
602.53	45890.88
602.69	46033.66
602.84	45691.94
603.00	45855.78
603.16	45404.05
603.31	45722.37
603.47	46237.28
603.62	45654.49
603.78	46476.02
603.94	45979.82
604.09	46162.39
604.25	45792.58
604.40	45635.77
604.56	45628.74
604.71	45750.45
604.87	45633.42
605.03	45216.81
605.18	45394.69
605.34	45972.80
605.49	45546.82
605.65	45560.87
605.80	45844.07
605.96	45858.12
606.12	45617.04
606.27	45989.19
606.43	45301.07
606.58	45909.61
606.74	45668.53
606.89	45694.28
607.05	45647.47
607.20	46031.32
607.36	45535.12
607.51	45696.62
607.67	45212.13
607.82	45275.32
607.98	45890.88
608.13	45556.19
608.29	46019.61
608.44	45635.77
608.60	45329.16
608.75	46012.59
608.91	45628.74
609.06	45354.90
609.22	45727.05
609.37	45282.34
609.53	45413.41
609.68	45457.88
609.84	45326.81
609.99	45333.84
610.15	45619.38
610.30	45624.06
610.46	45219.15
610.61	45411.07
610.76	45558.53
610.92	44987.44
611.07	45394.69
611.23	45467.25
611.38	45373.63
611.54	45813.65
611.69	45631.08
611.84	45631.08
612.00	45296.39
612.15	45268.30
612.31	45455.54
612.46	44975.73
612.62	45022.54
612.77	45074.04
612.92	45471.93
613.08	44903.18
613.23	45511.72
613.39	45354.90
613.54	44835.30
613.69	45071.70
613.85	45226.17
614.00	45230.85
614.15	45347.88
614.31	44938.29
614.46	44882.11
614.62	44964.03
614.77	44854.03
614.92	45013.18
615.08	44952.33
615.23	44898.50
615.38	44957.01
615.54	45116.17
615.69	45167.66
615.84	44341.45
616.00	45228.51
616.15	44893.82
616.30	45099.78
616.46	45090.42
616.61	44900.84
616.76	45083.40
616.92	44729.98
617.07	44580.18
617.22	44484.22
617.37	44313.36
617.53	44814.24
617.68	44879.77
617.83	45006.16
617.99	45375.97
618.14	45015.52
618.29	44818.92
618.45	44741.68
618.60	44163.57
618.75	44872.75
618.90	44865.73
619.06	44470.18
619.21	44818.92
619.36	44376.56
619.51	44271.23
619.67	44252.51
619.82	44589.55
619.97	44500.61
620.12	44481.88
620.28	44170.59
620.43	44531.03
620.58	44657.42
620.73	44313.36
620.89	44844.66
621.04	44645.72
621.19	44116.76
621.34	44390.60
621.49	44109.74
621.65	44783.81
621.80	44315.70
621.95	44273.57
622.10	44217.40
622.25	44472.52
622.41	44381.24
622.56	43983.35
622.71	44224.42
622.86	43950.58
623.01	44095.69
623.16	43966.96
623.32	44147.18
623.47	43772.70
623.62	43966.96
623.77	43945.90
623.92	44069.95
624.07	43861.64
624.23	44348.47
624.38	44151.87
624.53	44067.61
624.68	43550.35
624.83	43936.54
624.98	43819.51
625.13	43274.16
625.29	43529.28
625.44	43938.88
625.59	43351.40
625.74	43112.67
625.89	43430.98
626.04	43210.97
626.19	43590.14
626.34	43676.74
626.49	42988.62
626.65	43428.64
626.80	43342.04
626.95	43159.48
627.10	43161.82
627.25	43723.55
627.40	43402.89
627.55	43154.80
627.70	43166.50
627.85	43569.07
628.00	43555.03
628.15	43529.28
628.30	42852.87
628.45	42644.56
628.60	42787.33
628.76	43096.28
628.91	42988.62
629.06	42766.27
629.21	43082.24
629.36	42885.64
629.51	42651.58
629.66	43234.38
629.81	42962.87
629.96	42911.38
630.11	43091.60
630.26	42733.50
630.41	42948.83
630.56	42532.22
630.71	42567.32
630.86	42834.14
631.01	42642.22
631.16	42300.50
631.31	42513.49
631.46	42330.93
631.61	42951.17
631.76	42726.48
631.91	43229.69
632.06	43199.27
632.21	42836.48
632.36	42981.60
632.51	42216.24
632.66	42707.76
632.81	42450.30
632.96	42953.51
633.10	42555.62
633.25	42576.69
633.40	42319.23
633.55	42916.06
633.70	42384.76
633.85	42103.90
634.00	42347.31
634.15	42178.79
634.30	42288.80
634.45	42220.92
634.60	41713.03
634.75	42532.22
634.90	42321.57
635.05	42347.31
635.19	42344.97
635.34	42347.31
635.49	42080.49
635.64	42349.65
635.79	42440.93
635.94	42323.91
636.09	42188.16
636.24	42160.07
636.39	42162.41
636.53	42031.34
636.68	41745.80
636.83	41874.52
636.98	41443.87
637.13	41352.58
637.28	41593.66
637.43	42012.62
637.57	42014.96
637.72	41713.03
637.87	41287.05
638.02	41593.66
638.17	41808.99
638.32	41883.89
638.46	41373.65
638.61	41504.72
638.76	41411.10
638.91	41865.16
639.06	41741.11
639.20	41235.56
639.35	41287.05
639.50	41333.86
639.65	41509.40
639.80	40907.88
639.94	41453.23
640.09	41352.58
640.24	41619.41
640.39	41055.34
640.54	41214.49
640.68	41383.01
640.83	41060.02
640.98	41177.04
641.13	41137.26
641.27	41752.82
641.42	41202.79
641.57	41146.62
641.72	41071.72
641.86	40985.12
642.01	40289.98
642.16	40416.37
642.31	40547.44
642.45	40788.52
642.60	40708.94
642.75	40622.34
642.90	41139.60
643.04	40828.30
643.19	40704.26
643.34	40329.77
643.48	40465.52
643.63	40610.64
643.78	40889.16
643.93	40725.32
644.07	40978.10
644.22	40676.17
644.37	40236.15
644.51	40809.58
644.66	40519.35
644.81	40374.24
644.95	40474.88
645.10	40573.19
645.25	40238.49
645.39	40224.45
645.54	40149.55
645.69	40327.43
645.83	40233.81
645.98	40027.84
646.13	40421.05
646.27	39789.11
646.42	40062.95
646.57	40179.98
646.71	40336.79
646.86	40435.10
647.00	40240.83
647.15	40437.44
647.30	40575.53
647.44	39913.16
647.59	40025.50
647.74	39744.64
647.88	40182.32
648.03	40135.51
648.17	40512.33
648.32	40245.51
648.47	40215.08
648.61	40133.17
648.76	40212.74
648.90	39702.51
649.05	39688.46
649.20	39524.63
649.34	39856.98
649.49	39791.45
649.63	39971.67
649.78	39892.09
649.92	39662.72
650.07	40348.50
650.21	39770.38
650.36	39768.04
650.51	39562.08
650.65	39746.98
650.80	39852.30
650.94	39613.57
651.09	39620.59
651.23	39412.28
651.38	39461.43
651.52	39220.36
651.67	39295.25
651.81	40091.04
651.96	39489.52
652.10	39065.88
652.25	38969.92
652.39	39564.42
652.54	39510.58
652.68	39164.18
652.83	39316.32
652.97	39512.92
653.12	39136.10
653.26	39288.23
653.41	39185.25
653.55	38843.53
653.70	39213.34
653.84	39409.94
653.99	39346.75
654.13	39178.23
654.27	39072.90
654.42	39274.19
654.56	38749.91
654.71	38937.15
654.85	39115.03
655.00	38885.66
655.14	39140.78
655.29	38976.94
655.43	39365.47
655.57	38693.74
655.72	38345.00
655.86	38412.87
656.01	38265.42
656.15	38726.50
656.30	38527.56
656.44	38972.26
656.58	38878.64
656.73	38597.77
656.87	38188.18
657.01	38113.28
657.16	38527.56
657.30	38543.94
657.45	38726.50
657.59	38361.38
657.73	37956.47
657.88	38054.77
658.02	38384.79
658.16	38485.43
658.31	38637.56
658.45	38150.73
658.60	38548.62
658.74	37771.57
658.88	38277.12
659.03	37975.19
659.17	37991.58
659.31	38164.78
659.46	37642.84
659.60	38328.61
659.74	37876.89
659.89	37691.99
660.03	37773.91
660.17	37654.54
660.32	37617.09
660.46	37755.18
660.60	37507.08
660.74	37202.82
660.89	37919.02
661.03	37118.56
661.17	37439.21
661.32	36898.55
661.46	37085.79
661.60	36940.68
661.74	37308.14
661.89	37324.52
662.03	37177.07
662.17	36999.19
662.31	36493.63
662.46	37020.25
662.60	36868.12
662.74	36971.10
662.88	36795.56
663.03	36601.30
663.17	36327.45
663.31	36587.25
663.45	36641.09
663.60	36617.68
663.74	36671.51
663.88	36432.78
664.02	36336.82
664.17	36753.43
664.31	36425.76
664.45	36194.04
664.59	36376.61
664.73	36168.30
664.88	36407.03
665.02	35920.20
665.16	36006.80
665.30	36378.95
665.44	36210.43
665.59	35545.72
665.73	35365.49
665.87	35372.52
666.01	36182.34
666.15	36009.14
666.29	35655.72
666.44	35990.42
666.58	35552.74
666.72	35325.71
666.86	35442.73
667.00	35119.74
667.14	35316.34
667.28	35246.13
667.43	34937.18
667.57	35637.00
667.71	35349.11
667.85	35175.91
667.99	35070.59
668.13	35056.54
668.27	34719.51
668.41	34855.26
668.56	34541.63
668.70	34178.84
668.84	34457.37
668.98	34459.71
669.12	34677.38
669.26	34749.93
669.40	34270.12
669.54	34415.24
669.68	34897.39
669.82	34312.25
669.96	33923.72
670.10	33790.31
670.25	33713.08
670.39	34164.80
670.53	34508.86
670.67	33841.81
670.81	33921.38
670.95	34125.01
671.09	33790.31
671.23	33886.28
671.37	33820.74
671.51	33670.95
671.65	33294.12
671.79	33560.94
671.93	33415.83
672.07	33282.42
672.21	33027.30
672.35	32978.15
672.49	33074.11
672.63	33392.42
672.77	32879.85
672.91	33071.77
673.05	32795.59
673.19	32886.87
673.33	32701.96
673.47	32577.92
673.61	32301.73
673.75	32807.29
673.89	32144.92
674.03	31679.15
674.17	32201.09
674.31	32123.85
674.45	31845.33
674.59	32055.98
674.73	31875.76
674.87	31906.18
675.01	31503.61
675.15	31468.50
675.29	31250.83
675.43	31447.44
675.56	31332.75
675.70	31234.45
675.84	31110.40
675.98	29963.54
676.12	31035.50
676.26	31253.17
676.40	30951.24
676.54	30675.06
676.68	30508.88
676.82	30480.80
676.96	31000.40
677.10	30808.47
677.23	30387.18
677.37	30370.79
677.51	30403.56
677.65	30560.37
677.79	29921.41
677.93	29771.61
678.07	30139.08
678.21	29865.24
678.34	29699.06
678.48	29575.01
678.62	29294.14
678.76	29249.67
678.90	29301.17
679.04	29078.82
679.18	29401.81
679.31	28907.96
679.45	28842.42
679.59	28484.32
679.73	28886.89
679.87	28620.07
680.00	28589.64
680.14	29006.26
680.28	28496.02
680.42	28093.45
680.56	28175.37
680.70	27754.07
680.83	27845.35
680.97	27817.27
681.11	27901.53
681.25	27716.62
681.39	27309.37
681.52	27658.11
681.66	27440.44
681.80	27028.51
681.94	27075.32
682.07	27023.83
682.21	27290.65
682.35	26707.85
682.49	26838.92
682.62	26693.81
682.76	26778.07
682.90	26609.55
683.04	26635.30
683.17	26618.91
683.31	26352.09
683.45	26401.24
683.59	26017.40
683.72	25951.86
683.86	25642.91
684.00	25848.88
684.13	25680.36
684.27	25411.20
684.41	25532.90
684.55	25497.80
684.68	25474.39
684.82	25025.01
684.96	25219.27
685.09	25163.10
685.23	25036.71
685.37	25137.35
685.50	25202.89
685.64	25167.78
685.78	24486.68
685.91	24947.77
686.05	24608.39
686.19	24259.65
686.32	24243.27
686.46	23878.15
686.60	24219.86
686.73	24229.23
686.87	24290.08
687.01	24027.94
687.14	24002.19
687.28	23541.11
687.42	23721.33
687.55	23791.55
687.69	23676.86
687.82	23463.87
687.96	23508.34
688.10	23421.74
688.23	23087.04
688.37	23037.89
688.50	23456.85
688.64	23377.27
688.78	22876.40
688.91	23208.75
689.05	22944.27
689.18	22518.29
689.32	22228.07
689.46	22300.62
689.59	22682.13
689.73	22548.72
689.86	22548.72
690.00	22485.53
690.13	21975.29
690.27	22115.72
690.41	22279.56
690.54	21586.76
690.68	21888.69
690.81	21500.16
690.95	21266.11
691.08	21254.40
691.22	21008.65
691.35	21172.49
691.49	21102.27
691.62	21277.81
691.76	21015.67
691.89	20823.75
692.03	20414.15
692.16	20615.44
692.30	20835.45
692.43	20814.38
692.57	19913.28
692.70	20058.39
692.84	20318.19
692.97	19578.58
693.11	19899.23
693.24	19796.25
693.38	19985.83
693.51	19716.67
693.65	19599.65
693.78	19211.12
693.92	19733.06
694.05	19323.46
694.19	19328.14
694.32	19321.12
694.45	19475.60
694.59	19517.73
694.72	19253.25
694.86	19035.58
694.99	18712.58
695.13	18462.15
695.26	18625.98
695.39	18267.88
695.53	18576.83
695.66	18586.19
695.80	18237.45
695.93	18340.44
696.07	18235.11
696.20	18111.07
696.33	17881.69
696.47	17862.97
696.60	17788.07
696.73	17809.14
696.87	17987.02
697.00	17605.51
697.14	17528.27
697.27	17469.76
697.40	17436.99
697.54	17422.95
697.67	17221.66
697.80	17298.90
697.94	16954.84
698.07	17085.91
698.21	16959.52
698.34	16690.36
698.47	16624.83
698.61	16589.72
698.74	16732.49
698.87	16608.44
699.01	16180.12
699.14	16269.06
699.27	16297.15
699.40	16035.01
699.54	16093.52
699.67	16196.51
699.80	15992.88
699.94	16009.26
700.07	15831.38
700.20	15913.30
700.34	15665.21
700.47	15597.33
700.60	15693.29
700.73	15590.31
700.87	15417.11
701.00	15391.36
701.13	15019.22
701.26	15169.01
701.40	15342.21
701.53	14839.00
701.66	14778.14
701.79	15112.84
701.93	14986.45
702.06	14710.27
702.19	14668.14
702.32	14513.66
702.46	14796.87
702.59	14736.01
702.72	14586.22
702.85	14597.92
702.99	14480.89
703.12	13963.64
703.25	14118.11
703.38	14190.67
703.51	14024.49
703.65	13902.78
703.78	13858.31
703.91	13701.50
704.04	13673.41
704.17	13575.11
704.31	13650.00
704.44	13476.80
704.57	13224.03
704.70	13441.70
704.83	13191.26
704.96	13247.43
705.10	12992.31
705.23	13036.78
>>>>>End Processed Spectral Data<<<<<
