SpectraSuite Data File
++++++++++++++++++++++++++++++++++++
Date: Fri Oct 25 11:34:08 EDT 2013
User: price-jones
Dark Spectrum Present: No
Reference Spectrum Present: No
Number of Sampled Component Spectra: 1
Spectrometers: USB2+H05261
Integration Time (usec): 100000 (USB2+H05261)
Spectra Averaged: 1 (USB2+H05261)
Boxcar Smoothing: 0 (USB2+H05261)
Correct for Electrical Dark: No (USB2+H05261)
Strobe/Lamp Enabled: No (USB2+H05261)
Correct for Detector Non-linearity: No (USB2+H05261)
Correct for Stray Light: No (USB2+H05261)
Number of Pixels in Processed Spectrum: 2048
>>>>>Begin Processed Spectral Data<<<<<
365.73	318.31
365.92	318.31
366.12	318.31
366.32	161.50
366.52	180.22
366.72	212.99
366.91	163.84
367.11	194.26
367.31	180.22
367.51	107.66
367.70	147.45
367.90	175.54
368.10	177.88
368.30	184.90
368.49	110.01
368.69	168.52
368.89	198.95
369.09	210.65
369.28	250.44
369.48	212.99
369.68	189.58
369.87	287.89
370.07	194.26
370.27	196.60
370.47	330.02
370.66	510.24
370.86	472.79
371.06	479.81
371.25	561.73
371.45	505.56
371.65	550.03
371.84	573.43
372.04	550.03
372.24	538.32
372.44	535.98
372.63	512.58
372.83	627.26
373.03	571.09
373.22	528.96
373.42	571.09
373.62	582.79
373.81	580.45
374.01	657.69
374.21	601.52
374.40	695.14
374.60	653.01
374.79	603.86
374.99	610.88
375.19	629.60
375.38	613.22
375.58	685.78
375.78	641.31
375.97	695.14
376.17	737.27
376.37	690.46
376.56	606.20
376.76	692.80
376.95	629.60
377.15	720.88
377.35	751.31
377.54	683.44
377.74	566.41
377.93	592.16
378.13	671.73
378.33	702.16
378.52	596.84
378.72	713.86
378.91	699.82
379.11	688.12
379.31	697.48
379.50	720.88
379.70	765.36
379.89	748.97
380.09	753.65
380.28	709.18
380.48	594.50
380.68	674.07
380.87	702.16
381.07	781.74
381.26	812.17
381.46	664.71
381.65	681.10
381.85	758.33
382.04	746.63
382.24	779.40
382.43	720.88
382.63	718.54
382.83	753.65
383.02	795.78
383.22	856.64
383.41	786.42
383.61	823.87
383.80	784.08
384.00	816.85
384.19	814.51
384.39	765.36
384.58	739.61
384.78	835.57
384.97	758.33
385.17	772.38
385.36	777.06
385.56	837.91
385.75	781.74
385.95	844.93
386.14	828.55
386.34	868.34
386.53	938.55
386.72	830.89
386.92	847.27
387.11	887.06
387.31	880.04
387.50	854.30
387.70	844.93
387.89	898.77
388.09	936.21
388.28	842.59
388.48	894.08
388.67	894.08
388.86	954.94
389.06	976.00
389.25	943.24
389.45	887.06
389.64	922.17
389.84	992.39
390.03	929.19
390.22	973.66
390.42	952.60
390.61	908.13
390.81	940.90
391.00	1013.45
391.19	952.60
391.39	966.64
391.58	1043.88
391.78	1041.54
391.97	999.41
392.16	961.96
392.36	1081.33
392.55	1018.13
392.75	1041.54
392.94	1006.43
393.13	1013.45
393.33	1046.22
393.52	1069.62
393.71	1006.43
393.91	1062.60
394.10	1076.65
394.29	1090.69
394.49	1020.47
394.68	1071.97
394.88	1071.97
395.07	1102.39
395.26	1081.33
395.46	1163.25
395.65	1193.67
395.84	1081.33
396.04	1123.46
396.23	1165.59
396.42	1116.44
396.62	1170.27
396.81	1130.48
397.00	1151.54
397.19	1249.85
397.39	1249.85
397.58	1282.61
397.77	1193.67
397.97	1128.14
398.16	1296.66
398.35	1275.59
398.55	1224.10
398.74	1270.91
398.93	1343.47
399.12	1277.93
399.32	1343.47
399.51	1327.08
399.70	1341.13
399.90	1294.32
400.09	1268.57
400.28	1369.21
400.47	1469.86
400.67	1355.17
400.86	1348.15
401.05	1460.49
401.24	1371.55
401.44	1409.00
401.63	1378.58
401.82	1432.41
402.01	1348.15
402.21	1490.92
402.40	1462.83
402.59	1467.52
402.78	1488.58
402.97	1444.11
403.17	1514.33
403.36	1521.35
403.55	1488.58
403.74	1486.24
403.93	1556.46
404.13	1605.61
404.32	1600.93
404.51	1540.07
404.70	1671.14
404.89	1645.40
405.09	1673.48
405.28	1565.82
405.47	1568.16
405.66	1750.72
405.85	1675.82
406.05	1657.10
406.24	1673.48
406.43	1708.59
406.62	1760.08
406.81	1820.94
407.00	1818.60
407.20	1703.91
407.39	1853.70
407.58	1790.51
407.77	1834.98
407.96	1776.47
408.15	1909.88
408.34	1839.66
408.54	1930.94
408.73	1888.81
408.92	1907.54
409.11	1921.58
409.30	1937.96
409.49	1952.01
409.68	1952.01
409.87	1991.80
410.07	1973.07
410.26	1996.48
410.45	2094.78
410.64	2097.12
410.83	2076.06
411.02	2008.18
411.21	2047.97
411.40	2064.35
411.59	2104.14
411.78	2136.91
411.98	2120.53
412.17	2195.42
412.36	2183.72
412.55	2230.53
412.74	2282.02
412.93	2352.24
413.12	2174.36
413.31	2396.71
413.50	2352.24
413.69	2354.58
413.88	2399.05
414.07	2466.92
414.26	2436.50
414.45	2431.82
414.64	2548.84
414.83	2509.05
415.02	2558.21
415.22	2544.16
415.41	2651.83
415.60	2605.02
415.79	2635.44
415.98	2708.00
416.17	2710.34
416.36	2803.96
416.55	2705.66
416.74	2682.25
416.93	2705.66
417.12	2745.45
417.31	2792.26
417.50	2832.05
417.69	2890.56
417.88	2827.37
418.07	2825.03
418.26	2787.58
418.45	2803.96
418.64	3066.10
418.83	3040.36
419.02	2995.89
419.21	3126.96
419.39	3052.06
419.58	3014.61
419.77	2944.39
419.96	3122.27
420.15	3164.40
420.34	3150.36
420.53	3143.34
420.72	3213.56
420.91	3173.77
421.10	3141.00
421.29	3136.32
421.48	3171.43
421.67	3311.86
421.86	3290.79
422.05	3208.87
422.24	3150.36
422.43	3213.56
422.61	3302.50
422.80	3318.88
422.99	3337.60
423.18	3353.99
423.37	3433.57
423.56	3349.31
423.75	3276.75
423.94	3236.96
424.13	3148.02
424.32	3119.93
424.50	3400.80
424.69	3330.58
424.88	3485.06
425.07	3410.16
425.26	3279.09
425.45	3426.54
425.64	3393.78
425.83	3288.45
426.01	3398.46
426.20	3215.90
426.39	3330.58
426.58	3262.71
426.77	3478.04
426.96	3524.85
427.15	3520.17
427.33	3620.81
427.52	3492.08
427.71	3485.06
427.90	3538.89
428.09	3602.08
428.28	3485.06
428.46	3583.36
428.65	3627.83
428.84	3655.92
429.03	3723.79
429.22	3665.28
429.40	3691.02
429.59	3676.98
429.78	3562.30
429.97	3623.15
430.16	3574.00
430.34	3660.60
430.53	3803.37
430.72	3852.52
430.91	3756.56
431.10	3772.94
431.28	3871.25
431.47	3791.67
431.66	3964.87
431.85	3974.23
432.03	3962.53
432.22	3999.98
432.41	3964.87
432.60	4060.83
432.79	4070.19
432.97	4060.83
433.16	3920.40
433.35	3974.23
433.54	4065.51
433.72	4021.04
433.91	4046.79
434.10	4142.75
434.28	4236.37
434.47	4025.72
434.66	4154.45
434.85	4161.47
435.03	4166.15
435.22	4121.68
435.41	4360.42
435.59	4133.39
435.78	4283.18
435.97	4327.65
436.16	4271.48
436.34	4250.41
436.53	4224.67
436.72	4517.23
436.90	4287.86
437.09	4468.08
437.28	4280.84
437.46	4440.00
437.65	4503.19
437.84	4484.47
438.02	4540.64
438.21	4313.61
438.40	4493.83
438.58	4552.34
438.77	4629.58
438.96	4631.92
439.14	4770.01
439.33	4732.56
439.52	4971.30
439.70	4814.48
439.89	4994.70
440.08	4788.74
440.26	4933.85
440.45	4795.76
440.63	4884.70
440.82	5132.79
441.01	5195.99
441.19	5039.17
441.38	5118.75
441.57	5088.32
441.75	5198.33
441.94	5298.97
442.12	5207.69
442.31	5179.61
442.50	5179.61
442.68	5116.41
442.87	5394.93
443.05	5301.31
443.24	5563.45
443.43	5518.98
443.61	5495.58
443.80	5617.29
443.98	5352.81
444.17	5172.58
444.35	5448.77
444.54	5568.13
444.73	5586.86
444.91	5434.72
445.10	5533.03
445.28	5458.13
445.47	5439.40
445.65	5542.39
445.84	5467.49
446.02	5612.60
446.21	5680.48
446.39	5526.00
446.58	5692.18
446.77	5640.69
446.95	5521.32
447.14	5568.13
447.32	5727.29
447.51	5638.35
447.69	5610.26
447.88	5699.20
448.06	5760.06
448.25	5551.75
448.43	5692.18
448.62	5797.51
448.80	5621.97
448.99	5703.89
449.17	5727.29
449.36	5682.82
449.54	5767.08
449.73	5907.51
449.91	5907.51
450.10	5863.04
450.28	6155.61
450.46	5877.09
450.65	5956.66
450.83	6083.05
451.02	5877.09
451.20	6069.01
451.39	6061.99
451.57	6043.26
451.76	6043.26
451.94	6012.84
452.13	6190.72
452.31	5980.07
452.49	6127.52
452.68	6183.70
452.86	6174.33
453.05	6174.33
453.23	6225.82
453.42	6132.20
453.60	6200.08
453.78	6394.34
453.97	6228.17
454.15	6237.53
454.34	6167.31
454.52	6305.40
454.70	6555.84
454.89	6342.85
455.07	6403.71
455.26	6485.62
455.44	6686.91
455.62	6644.78
455.81	6588.61
455.99	6729.04
456.17	6604.99
456.36	6604.99
456.54	6572.22
456.73	6619.04
456.91	6913.94
457.09	6881.18
457.28	6815.64
457.46	6733.72
457.64	6878.83
457.83	6855.43
458.01	6768.83
458.19	7098.84
458.38	7049.69
458.56	7087.14
458.74	6967.77
458.93	6974.80
459.11	7255.66
459.29	7030.97
459.48	7108.21
459.66	7098.84
459.84	7066.08
460.03	7365.67
460.21	7297.79
460.39	7138.63
460.57	7276.73
460.76	7293.11
460.94	7389.07
461.12	7314.17
461.31	7466.31
461.49	7262.68
461.67	7049.69
461.85	7377.37
462.04	7325.88
462.22	7808.03
462.40	7569.29
462.59	7599.72
462.77	7637.17
462.95	7595.04
463.13	7508.44
463.32	7700.36
463.50	7812.71
463.68	7747.17
463.86	7801.01
464.05	7625.47
464.23	7784.62
464.41	7693.34
464.59	7730.79
464.78	7882.92
464.96	7911.01
465.14	7791.64
465.32	7995.27
465.50	7861.86
465.69	7866.54
465.87	7901.65
466.05	7953.14
466.23	7997.61
466.41	7948.46
466.60	8191.88
466.78	8035.06
466.96	7988.25
467.14	8032.72
467.32	8009.31
467.51	8156.77
467.69	8044.42
467.87	8035.06
468.05	8252.73
468.23	8140.38
468.41	8128.68
468.60	8236.35
468.78	8259.75
468.96	8299.54
469.14	8161.45
469.32	8496.14
469.50	8114.64
469.69	8503.17
469.87	8629.56
470.05	8585.08
470.23	8571.04
470.41	8439.97
470.59	8578.06
470.77	8557.00
470.95	8671.68
471.14	8674.03
471.32	8716.16
471.50	8849.57
471.68	8781.69
471.86	8926.80
472.04	9060.21
472.22	9036.81
472.40	8919.78
472.58	9041.49
472.77	9275.54
472.95	9153.84
473.13	9406.61
473.31	9067.24
473.49	9163.20
473.67	9128.09
473.85	9397.25
474.03	9535.34
474.21	9547.05
474.39	9540.02
474.57	9802.16
474.75	9750.67
474.93	9874.72
475.12	9774.08
475.30	9994.09
475.48	9823.23
475.66	9799.82
475.84	9891.10
476.02	10169.63
476.20	10052.60
476.38	10349.85
476.56	10384.96
476.74	10457.51
476.92	10352.19
477.10	10249.21
477.28	10623.69
477.46	10401.34
477.64	10675.18
477.82	10670.50
478.00	11192.44
478.18	10871.79
478.36	10974.77
478.54	10984.13
478.72	11220.53
478.90	11260.32
479.08	11169.04
479.26	11246.27
479.44	11370.32
479.62	11421.81
479.80	11578.63
479.98	11555.22
480.16	11864.18
480.34	11805.66
480.52	12088.87
480.70	11756.51
480.88	11964.82
481.06	12116.95
481.24	12177.81
481.41	12404.84
481.59	12332.28
481.77	12741.88
481.95	12517.18
482.13	12805.07
482.31	12697.41
482.49	12992.31
482.67	12631.87
482.85	13270.84
483.03	13188.92
483.21	13371.48
483.39	13511.91
483.57	13448.72
483.74	13762.35
483.92	13706.18
484.10	13434.68
484.28	13930.87
484.46	13987.04
484.64	14251.52
484.82	14026.83
485.00	14417.70
485.18	14279.61
485.35	14703.25
485.53	14436.42
485.71	14827.29
485.89	14944.32
486.07	14853.04
486.25	15152.63
486.43	14984.11
486.61	15325.83
486.78	15648.82
486.96	15667.55
487.14	15653.50
487.32	15889.90
487.50	15822.02
487.68	16081.82
487.85	16201.19
488.03	16226.93
488.21	16748.87
488.39	16601.42
488.57	16575.67
488.75	16702.06
488.92	17085.91
489.10	17135.06
489.28	17074.21
489.46	17621.89
489.64	17275.49
489.81	17701.47
489.99	17654.66
490.17	17935.53
490.35	18026.81
490.53	17923.82
490.70	18221.07
490.88	18132.13
491.06	18462.15
491.24	18345.12
491.41	18436.40
491.59	18750.03
491.77	18850.67
491.95	18927.91
492.13	18752.37
492.30	19164.31
492.48	19157.28
492.66	19573.90
492.84	19105.79
493.01	19761.14
493.19	19573.90
493.37	19311.76
493.54	19676.88
493.72	20063.07
493.90	20259.68
494.08	20222.23
494.25	20451.60
494.43	20835.45
494.61	20720.76
494.79	20828.43
494.96	20844.81
495.14	20851.83
495.32	21308.24
495.49	20943.11
495.67	21369.09
495.85	21434.63
496.02	21680.38
496.20	21919.12
496.38	21846.56
496.55	22146.15
496.73	22684.47
496.91	22092.32
497.09	22284.24
497.26	22434.03
497.44	22527.66
497.62	22574.47
497.79	22925.55
497.97	22932.57
498.14	22932.57
498.32	23337.48
498.50	22998.10
498.67	23438.12
498.85	23454.51
499.03	23550.47
499.20	23400.68
499.38	23754.10
499.56	23662.82
499.73	24088.79
499.91	23899.21
500.08	23770.48
500.26	23950.70
500.44	24423.49
500.61	24243.27
500.79	24238.59
500.97	24519.45
501.14	24772.23
501.32	24367.32
501.49	24776.91
501.67	24620.10
501.84	25113.95
502.02	25200.55
502.20	24915.00
502.37	25434.60
502.55	24952.45
502.72	25212.25
502.90	25266.08
503.07	25383.11
503.25	25415.88
503.43	25568.01
503.60	25879.30
503.78	25680.36
503.95	25654.61
504.13	25846.54
504.30	26115.70
504.48	25811.43
504.65	26242.09
504.83	26127.40
505.01	26349.75
505.18	26703.17
505.36	26618.91
505.53	27014.46
505.71	26948.93
505.88	26768.71
506.06	26670.40
506.23	27012.12
506.41	26869.35
506.58	26923.18
506.76	26981.70
506.93	27290.65
507.11	27267.24
507.28	27288.31
507.46	27428.74
507.63	27524.70
507.81	27922.59
507.98	27484.91
508.16	27555.13
508.33	27936.63
508.50	27999.83
508.68	28079.41
508.85	28566.24
509.03	28112.17
509.20	28393.04
509.38	28570.92
509.55	28514.75
509.73	28727.74
509.90	28528.79
510.08	28591.98
510.25	28783.91
510.42	28980.51
510.60	28971.15
510.77	29139.67
510.95	29331.59
511.12	29280.10
511.30	29336.27
511.47	29647.57
511.64	29490.75
511.82	29649.91
511.99	29708.42
512.17	29928.43
512.34	29528.20
512.51	30263.13
512.69	29860.55
512.86	29912.05
513.04	30054.82
513.21	30141.42
513.38	30120.35
513.56	30270.15
513.73	30314.62
513.90	30494.84
514.08	30497.18
514.25	30794.43
514.43	30607.19
514.60	30579.10
514.77	31304.67
514.95	31363.18
515.12	30967.63
515.29	31068.27
515.47	31194.66
515.64	31428.71
515.81	31285.94
515.99	31615.96
516.16	31269.56
516.33	31459.14
516.51	31985.76
516.68	31608.93
516.85	31592.55
517.03	32144.92
517.20	32114.49
517.37	31924.91
517.54	32222.16
517.72	32013.85
517.89	32140.24
518.06	32245.56
518.24	32065.34
518.41	32449.19
518.58	32273.65
518.75	32100.45
518.93	32231.52
519.10	32292.37
519.27	32683.24
519.45	32598.98
519.62	33095.18
519.79	32732.39
519.96	33165.39
520.14	33111.56
520.31	32975.81
520.48	33284.76
520.65	33275.40
520.83	33507.11
521.00	33399.44
521.17	33565.62
521.34	33659.24
521.52	33921.38
521.69	33504.77
521.86	33900.32
522.03	33659.24
522.20	34050.11
522.38	34366.09
522.55	34007.98
522.72	34419.92
522.89	34295.87
523.07	34242.04
523.24	34078.20
523.41	34752.27
523.58	34408.22
523.75	34541.63
523.92	34717.17
524.10	34728.87
524.27	34693.76
524.44	34763.98
524.61	35180.59
524.78	35152.51
524.96	35009.73
525.13	34951.22
525.30	35222.72
525.47	35033.14
525.64	35241.45
525.81	35637.00
525.98	35281.24
526.16	35227.40
526.33	34794.40
526.50	35903.82
526.67	35166.55
526.84	35962.33
527.01	35880.41
527.18	35852.33
527.36	35894.46
527.53	36051.27
527.70	36280.64
527.87	36041.91
528.04	36067.66
528.21	36133.19
528.38	36327.45
528.55	36734.71
528.72	36306.39
528.89	36133.19
529.07	36397.67
529.24	36442.14
529.41	36687.90
529.58	36194.04
529.75	36392.99
529.92	36435.12
530.09	36409.37
530.26	36664.49
530.43	37017.91
530.60	36718.32
530.77	36355.54
530.94	37251.97
531.11	37113.87
531.28	37003.87
531.46	37008.55
531.63	37317.50
531.80	37195.79
531.97	37216.86
532.14	37537.51
532.31	37062.38
532.48	37310.48
532.65	37652.20
532.82	37570.28
532.99	37706.03
533.16	37273.03
533.33	37481.34
533.50	37839.44
533.67	37827.74
533.84	38024.34
534.01	37830.08
534.18	37926.04
534.35	38227.97
534.52	37993.92
534.69	38167.12
534.86	38888.00
535.03	38356.70
535.20	38925.45
535.37	38417.55
535.54	38740.55
535.71	38419.89
535.88	38361.38
536.05	38899.70
536.22	38677.35
536.38	38848.21
536.55	38679.69
536.72	38513.52
536.89	38916.09
537.06	38958.22
537.23	39192.27
537.40	39000.35
537.57	39098.65
537.74	38618.84
537.91	39416.96
538.08	39014.39
538.25	39002.69
538.42	39164.18
538.59	39639.31
538.75	39019.07
538.92	39426.32
539.09	39407.60
539.26	39311.64
539.43	39482.50
539.60	39337.38
539.77	39342.06
539.94	40081.67
540.11	39592.50
540.28	39728.25
540.44	39737.62
540.61	39758.68
540.78	39746.98
540.95	39810.17
541.12	39606.55
541.29	39688.46
541.46	40179.98
541.62	39805.49
541.79	40161.25
541.96	39936.56
542.13	40053.59
542.30	40320.41
542.47	40163.59
542.63	40488.93
542.80	40795.54
542.97	40861.07
543.14	40765.11
543.31	40725.32
543.48	40950.01
543.64	41216.83
543.81	41041.29
543.98	40891.50
544.15	41090.44
544.32	41090.44
544.48	41420.46
544.65	41434.50
544.82	41434.50
544.99	40835.33
545.16	41446.21
545.32	41340.88
545.49	41497.70
545.66	41928.36
545.83	41469.61
546.00	41851.12
546.16	41481.31
546.33	41347.90
546.50	41591.32
546.67	41734.09
546.83	41237.90
547.00	41837.08
547.17	41567.91
547.34	41528.13
547.50	41759.84
547.67	42101.56
547.84	42146.03
548.00	42038.36
548.17	42344.97
548.34	41998.57
548.51	42597.75
548.67	42719.46
548.84	42183.48
549.01	42085.17
549.18	42466.68
549.34	42274.76
549.51	42703.07
549.68	42293.48
549.84	42576.69
550.01	42391.78
550.18	42878.61
550.34	42157.73
550.51	42864.57
550.68	43213.31
550.84	42366.04
551.01	42625.84
551.18	42574.34
551.34	42679.67
551.51	43138.41
551.68	42885.64
551.84	43028.41
552.01	42724.14
552.18	42808.40
552.34	43217.99
552.51	43051.81
552.68	43033.09
552.84	43241.40
553.01	43225.01
553.18	43047.13
553.34	43143.09
553.51	43304.59
553.67	43470.77
553.84	43356.08
554.01	43217.99
554.17	43412.26
554.34	43477.79
554.51	43470.77
554.67	43859.30
554.84	43351.40
555.00	43199.27
555.17	43842.92
555.33	43550.35
555.50	43611.20
555.67	43952.92
555.83	43868.66
556.00	43693.12
556.16	44336.77
556.33	44095.69
556.50	43941.22
556.66	43988.03
556.83	43545.67
556.99	43908.45
557.16	44046.54
557.32	44414.01
557.49	44142.50
557.65	43835.89
557.82	44030.16
557.98	43812.49
558.15	44198.68
558.32	44542.74
558.48	43906.11
558.65	44463.16
558.81	44069.95
558.98	43903.77
559.14	44601.25
559.31	43629.93
559.47	44250.17
559.64	43894.41
559.80	44245.49
559.97	44161.23
560.13	44201.02
560.30	43782.06
560.46	44535.71
560.63	44811.90
560.79	44734.66
560.96	44477.20
561.12	45041.27
561.29	44460.82
561.45	44376.56
561.61	44273.57
561.78	44362.51
561.94	44414.01
562.11	44701.89
562.27	44753.38
562.44	44832.96
562.60	44924.24
562.77	44793.17
562.93	44835.30
563.10	45193.40
563.26	44788.49
563.42	44992.12
563.59	45074.04
563.75	45123.19
563.92	45165.32
564.08	45008.50
564.24	45326.81
564.41	45095.10
564.57	45158.30
564.74	45052.97
564.90	44865.73
565.07	44783.81
565.23	45069.36
565.39	44999.14
565.56	45198.09
565.72	45064.67
565.88	45450.86
566.05	45181.70
566.21	45382.99
566.38	45074.04
566.54	45289.37
566.70	45399.37
566.87	45359.58
567.03	45022.54
567.19	45893.22
567.36	45071.70
567.52	45298.73
567.68	45832.37
567.85	45565.55
568.01	45434.48
568.17	45144.25
568.34	45404.05
568.50	45783.22
568.66	45535.12
568.83	45184.04
568.99	45415.76
569.15	45813.65
569.32	45006.16
569.48	45502.35
569.64	45455.54
569.81	45710.66
569.97	45855.78
570.13	45584.27
570.30	45158.30
570.46	45684.92
570.62	45593.64
570.78	45745.77
570.95	45446.18
571.11	45642.79
571.27	45427.46
571.43	45317.45
571.60	45729.39
571.76	45652.15
571.92	45638.11
572.09	45373.63
572.25	45591.30
572.41	45944.72
572.57	45401.71
572.74	46080.47
572.90	46096.85
573.06	45776.20
573.22	45687.26
573.38	45713.00
573.55	45869.82
573.71	46019.61
573.87	46054.72
574.03	46136.64
574.20	45940.04
574.36	46073.45
574.52	46286.43
574.68	46216.22
574.84	46021.95
575.01	46057.06
575.17	45902.59
575.33	46050.04
575.49	45881.52
575.65	46525.17
575.82	46153.02
575.98	45984.51
576.14	46153.02
576.30	46380.06
576.46	45996.21
576.62	46162.39
576.79	46047.70
576.95	45759.81
577.11	45825.35
577.27	46071.10
577.43	46305.16
577.59	46323.88
577.75	45879.18
577.92	45652.15
578.08	46237.28
578.24	45633.42
578.40	46211.54
578.56	46216.22
578.72	45982.16
578.88	45851.09
579.04	46335.59
579.21	46113.23
579.37	46169.41
579.53	46370.69
579.69	45420.44
579.85	45750.45
580.01	46071.10
580.17	46171.75
580.33	46443.25
580.49	46092.17
580.65	46340.27
580.82	46241.96
580.98	46267.71
581.14	45612.36
581.30	45691.94
581.46	46160.05
581.62	46188.13
581.78	46026.63
581.94	46232.60
582.10	46871.57
582.26	45921.31
582.42	46167.07
582.58	46604.75
582.74	46188.13
582.90	46176.43
583.06	46071.10
583.22	46162.39
583.38	46375.37
583.54	46609.43
583.70	46354.31
583.86	46595.38
584.02	46302.82
584.18	46803.69
584.34	46518.15
584.50	46534.53
584.66	46721.77
584.82	46005.57
584.98	46611.77
585.14	46431.55
585.30	46103.87
585.46	46593.04
585.62	45970.46
585.78	45954.08
585.94	45996.21
586.10	46377.72
586.26	46461.97
586.42	46036.00
586.58	46237.28
586.74	46024.29
586.90	46391.76
587.06	46277.07
587.22	46656.24
587.38	46667.94
587.54	45998.55
587.70	46513.47
587.86	46548.57
588.02	45954.08
588.18	46656.24
588.34	46581.34
588.49	46859.87
588.65	45954.08
588.81	46396.44
588.97	46902.00
589.13	46473.68
589.29	46586.02
589.45	46834.12
589.61	46721.77
589.77	46829.44
589.93	46450.27
590.08	46941.78
590.24	46899.65
590.40	47068.17
590.56	47147.75
590.72	46710.07
590.88	46717.09
591.04	46403.46
591.20	47449.68
591.35	46925.40
591.51	46834.12
591.67	46747.52
591.83	46349.63
591.99	46436.23
592.15	46698.37
592.31	46445.59
592.46	46976.89
592.62	47150.09
592.78	47089.24
592.94	47056.47
593.10	46944.12
593.26	47299.89
593.41	47110.30
593.57	47264.78
593.73	46850.50
593.89	47402.87
594.05	47154.77
594.20	47021.36
594.36	47187.54
594.52	47316.27
594.68	46965.19
594.84	46962.85
594.99	47742.25
595.15	46894.97
595.31	47079.88
595.47	46705.39
595.62	47107.96
595.78	47114.98
595.94	47470.75
596.10	46892.63
596.25	47517.56
596.41	47260.10
596.57	46925.40
596.73	47440.32
596.88	47166.48
597.04	46899.65
597.20	47206.26
597.36	47145.41
597.51	46990.94
597.67	47072.85
597.83	46810.71
597.99	47194.56
598.14	47016.68
598.30	47203.92
598.46	47550.32
598.61	47250.74
598.77	47503.51
598.93	47203.92
599.09	47026.04
599.24	47566.71
599.40	47372.44
599.56	47112.64
599.71	47412.23
599.87	47428.62
600.03	47693.10
600.18	47421.59
600.34	47430.96
600.50	47344.36
600.65	47248.39
600.81	47449.68
600.97	47143.07
601.12	47255.42
601.28	47241.37
601.44	47075.19
601.59	46707.73
601.75	47037.75
601.91	47016.68
602.06	46960.51
602.22	47648.63
602.37	47405.21
602.53	47154.77
602.69	47463.72
602.84	47136.05
603.00	47248.39
603.16	47295.21
603.31	47182.86
603.47	47557.35
603.62	47613.52
603.78	47482.45
603.94	47236.69
604.09	47576.07
604.25	47381.80
604.40	47100.94
604.56	47323.29
604.71	47316.27
604.87	47339.68
605.03	47260.10
605.18	47126.69
605.34	47372.44
605.49	47119.66
605.65	46948.81
605.80	46869.23
605.96	46880.93
606.12	47192.22
606.27	47370.10
606.43	46869.23
606.58	47480.11
606.74	46705.39
606.89	47192.22
607.05	47164.14
607.20	47253.08
607.36	47381.80
607.51	47051.79
607.67	47042.43
607.82	47054.13
607.98	47323.29
608.13	47044.77
608.29	46955.83
608.44	47175.84
608.60	47061.15
608.75	46962.85
608.91	47206.26
609.06	46646.88
609.22	47510.53
609.37	46822.42
609.53	47484.79
609.68	47028.38
609.84	47136.05
609.99	47100.94
610.15	46696.03
610.30	46693.69
610.46	46923.06
610.61	47133.71
610.76	47213.29
610.92	46923.06
611.07	46752.20
611.23	46813.05
611.38	47009.66
611.54	46681.98
611.69	47393.51
611.84	46904.34
612.00	46188.13
612.15	46497.08
612.31	46986.25
612.46	46312.18
612.62	46389.42
612.77	46700.71
612.92	47143.07
613.08	46447.93
613.23	47040.09
613.39	46930.08
613.54	46515.81
613.69	46897.31
613.85	46653.90
614.00	46501.76
614.15	46902.00
614.31	46447.93
614.46	46494.74
614.62	46333.24
614.77	46773.27
614.92	46326.22
615.08	46251.33
615.23	46579.00
615.38	47166.48
615.54	46576.66
615.69	46433.89
615.84	46251.33
616.00	46611.77
616.15	46232.60
616.30	46206.86
616.46	46529.85
616.61	46260.69
616.76	46277.07
616.92	46040.68
617.07	46160.05
617.22	45998.55
617.37	45799.60
617.53	46504.10
617.68	46138.98
617.83	46461.97
617.99	46590.70
618.14	46319.20
618.29	46218.56
618.45	45937.69
618.60	45855.78
618.75	45787.90
618.90	46138.98
619.06	46167.07
619.21	46176.43
619.36	46209.20
619.51	45684.92
619.67	45698.96
619.82	45986.85
619.97	45851.09
620.12	46284.09
620.28	45993.87
620.43	46101.53
620.58	46031.32
620.73	45495.33
620.89	46150.68
621.04	45691.94
621.19	45862.80
621.34	45773.86
621.49	45521.08
621.65	45560.87
621.80	46120.26
621.95	45579.59
622.10	45790.24
622.25	45804.28
622.41	45462.57
622.56	45659.17
622.71	45830.03
622.86	45598.32
623.01	45310.43
623.16	45605.34
623.32	45230.85
623.47	45617.04
623.62	45593.64
623.77	45656.83
623.92	45563.21
624.07	45427.46
624.23	45436.82
624.38	45322.13
624.53	45228.51
624.68	45404.05
624.83	45029.57
624.98	45703.64
625.13	44907.86
625.29	44921.90
625.44	44994.46
625.59	45226.17
625.74	45277.66
625.89	44837.64
626.04	44610.61
626.19	44781.47
626.34	45078.72
626.49	44842.32
626.65	44914.88
626.80	45123.19
626.95	44219.74
627.10	44498.26
627.25	44856.37
627.40	44945.31
627.55	45172.34
627.70	44769.77
627.85	44945.31
628.00	44982.76
628.15	45048.29
628.30	44521.67
628.45	44612.95
628.60	44346.13
628.76	44327.41
628.91	44863.39
629.06	44418.69
629.21	44552.10
629.36	44678.49
629.51	44341.45
629.66	44652.74
629.81	44072.29
629.96	44598.91
630.11	44280.60
630.26	44341.45
630.41	44545.08
630.56	44311.02
630.71	44818.92
630.86	44053.56
631.01	44339.11
631.16	44210.38
631.31	44313.36
631.46	44266.55
631.61	44699.55
631.76	44357.83
631.91	44521.67
632.06	44797.85
632.21	44608.27
632.36	44257.19
632.51	43880.36
632.66	44259.53
632.81	44065.27
632.96	44357.83
633.10	43545.67
633.25	44194.00
633.40	44172.93
633.55	44292.30
633.70	44027.82
633.85	43702.48
634.00	43480.13
634.15	44184.63
634.30	43517.58
634.45	43519.92
634.60	43559.71
634.75	43744.61
634.90	44299.32
635.05	43929.51
635.19	43608.86
635.34	43445.02
635.49	43646.31
635.64	43976.33
635.79	43826.53
635.94	44306.34
636.09	43889.73
636.24	43562.05
636.39	43585.46
636.53	43232.04
636.68	43271.82
636.83	42979.26
636.98	42897.34
637.13	42866.91
637.28	43037.77
637.43	43089.26
637.57	43098.62
637.72	42733.50
637.87	43374.81
638.02	43557.37
638.17	43381.83
638.32	43152.46
638.46	42810.74
638.61	42932.45
638.76	43035.43
638.91	42857.55
639.06	42808.40
639.20	42511.15
639.35	42677.33
639.50	42567.32
639.65	42953.51
639.80	43061.18
639.94	43056.50
640.09	43042.45
640.24	42693.71
640.39	42682.01
640.54	42253.69
640.68	42649.24
640.83	43337.36
640.98	42660.94
641.13	42347.31
641.27	42831.80
641.42	42726.48
641.57	42527.53
641.72	42429.23
641.86	42511.15
642.01	42038.36
642.16	42270.08
642.31	41921.34
642.45	42478.38
642.60	42309.86
642.75	42433.91
642.90	42469.02
643.04	42178.79
643.19	42651.58
643.34	42103.90
643.48	42181.13
643.63	42033.68
643.78	42230.29
643.93	42141.35
644.07	41993.89
644.22	42071.13
644.37	42115.60
644.51	42450.30
644.66	42258.37
644.81	42031.34
644.95	42366.04
645.10	41965.81
645.25	41958.78
645.39	41390.03
645.54	41387.69
645.69	41785.58
645.83	41525.78
645.98	41827.71
646.13	41720.05
646.27	42220.92
646.42	41607.70
646.57	42150.71
646.71	41797.29
646.86	41523.44
647.00	42089.85
647.15	42059.43
647.30	41897.93
647.44	41764.52
647.59	41289.39
647.74	41698.98
647.88	41621.75
648.03	41701.32
648.17	42082.83
648.32	41731.75
648.47	41553.87
648.61	41661.54
648.76	41457.91
648.90	41448.55
649.05	41256.62
649.20	41628.77
649.34	41244.92
649.49	41357.27
649.63	40900.86
649.78	41221.52
649.92	41085.76
650.07	41268.33
650.21	41600.68
650.36	41617.07
650.51	41425.14
650.65	41090.44
650.80	41558.55
650.94	41324.50
651.09	41017.89
651.23	40800.22
651.38	40931.29
651.52	40568.51
651.67	40526.38
651.81	40676.17
651.96	41364.29
652.10	40659.79
652.25	40535.74
652.39	40687.87
652.54	40697.24
652.68	40666.81
652.83	40809.58
652.97	40650.42
653.12	40720.64
653.26	40414.03
653.41	40706.60
653.55	40172.96
653.70	40905.54
653.84	40886.82
653.99	40711.28
654.13	40563.82
654.27	40591.91
654.42	40568.51
654.56	40425.73
654.71	40505.31
654.85	40615.32
655.00	40238.49
655.14	40451.48
655.29	40711.28
655.43	40519.35
655.57	40428.07
655.72	40266.58
655.86	40168.27
656.01	39625.27
656.15	40084.01
656.30	40414.03
656.44	40505.31
656.58	40079.33
656.73	40231.47
656.87	40151.89
657.01	39758.68
657.16	40079.33
657.30	39859.32
657.45	39896.77
657.59	40229.13
657.73	39667.40
657.88	39746.98
658.02	39969.33
658.16	39491.86
658.31	39887.41
658.45	39599.52
658.60	39470.79
658.74	39866.34
658.88	39262.49
659.03	39311.64
659.17	39435.69
659.31	39206.31
659.46	39133.76
659.60	39510.58
659.74	39278.87
659.89	39044.82
660.03	39007.37
660.17	39225.04
660.32	39236.74
660.46	38885.66
660.60	38480.75
660.74	38838.85
660.89	39222.70
661.03	38923.11
661.17	38337.98
661.32	38698.42
661.46	38618.84
661.60	38859.91
661.74	38618.84
661.89	38944.17
662.03	39023.75
662.17	38700.76
662.31	38288.82
662.46	38740.55
662.60	38181.16
662.74	37752.84
662.88	38120.31
663.03	37951.79
663.17	38204.56
663.31	37890.93
663.45	38026.68
663.60	38031.36
663.74	37724.75
663.88	37806.67
664.02	37783.27
664.17	38330.95
664.31	37488.36
664.45	37694.33
664.59	38045.41
664.73	37457.93
664.88	37727.10
665.02	37106.85
665.16	37315.16
665.30	37212.18
665.44	37504.74
665.59	37195.79
665.73	37074.09
665.87	36748.75
666.01	37151.32
666.15	37380.70
666.29	36947.70
666.44	37165.37
666.58	36889.18
666.72	36720.66
666.86	36968.76
667.00	36800.24
667.14	37048.34
667.28	36613.00
667.43	36357.88
667.57	36491.29
667.71	36474.91
667.85	36713.64
667.99	36629.38
668.13	36418.74
668.27	36126.17
668.41	35775.09
668.56	35744.66
668.70	35737.64
668.84	35702.53
668.98	35798.49
669.12	35789.13
669.26	35758.70
669.40	35861.69
669.54	35739.98
669.68	35995.10
669.82	35576.14
669.96	34876.32
670.10	35339.75
670.25	35400.60
670.39	35571.46
670.53	35246.13
670.67	35213.36
670.81	35484.86
670.95	35288.26
671.09	35182.93
671.23	34871.64
671.37	35173.57
671.51	35058.88
671.65	34698.44
671.79	34595.46
671.93	35061.22
672.07	34873.98
672.21	34941.86
672.35	34391.83
672.49	34459.71
672.63	34239.70
672.77	34586.10
672.91	34195.23
673.05	34080.54
673.19	33647.54
673.33	33408.81
673.47	33778.61
673.61	33706.05
673.75	33359.66
673.89	33621.80
674.03	33560.94
674.17	33336.25
674.31	33324.55
674.45	33425.19
674.59	33387.74
674.73	32943.04
674.87	33158.37
675.01	32500.68
675.15	32638.77
675.29	32671.54
675.43	32369.61
675.56	32783.88
675.70	32641.11
675.84	32275.99
675.98	31505.95
676.12	32041.93
676.26	32437.48
676.40	32030.23
676.54	32030.23
676.68	31866.39
676.82	31271.90
676.96	32252.58
677.10	31796.18
677.23	31180.62
677.37	31885.12
677.51	31573.83
677.65	31056.57
677.79	31346.79
677.93	31365.52
678.07	31243.81
678.21	30630.59
678.34	30864.64
678.48	30621.23
678.62	30892.73
678.76	30338.02
678.90	30129.72
679.04	30415.26
679.18	30742.94
679.31	30132.06
679.45	29970.56
679.59	29692.04
679.73	29954.18
679.87	30029.07
680.00	29357.34
680.14	29649.91
680.28	29727.14
680.42	29446.28
680.56	29544.58
680.70	29008.60
680.83	29081.16
680.97	29123.29
681.11	29095.20
681.25	28828.38
681.39	28804.97
681.52	28751.14
681.66	28081.75
681.80	27814.93
681.94	28025.57
682.07	28180.05
682.21	28151.96
682.35	27843.01
682.49	28070.04
682.62	28250.27
682.76	27681.52
682.90	28154.30
683.04	27381.93
683.17	27674.49
683.31	27531.72
683.45	27318.73
683.59	27321.07
683.72	27065.96
683.86	26733.60
684.00	27129.15
684.13	26998.08
684.27	26558.06
684.41	26567.42
684.55	26544.02
684.68	26394.22
684.82	26251.45
684.96	26089.95
685.09	26324.01
685.23	26143.78
685.37	26223.36
685.50	26548.70
685.64	25984.63
685.78	26036.12
685.91	25905.05
686.05	25226.29
686.19	25338.64
686.32	25336.30
686.46	25193.53
686.60	24776.91
686.73	24982.88
686.87	24903.30
687.01	25191.19
687.14	25280.13
687.28	24641.16
687.42	24615.41
687.55	24716.06
687.69	24549.88
687.82	24224.54
687.96	24376.68
688.10	24383.70
688.23	24032.62
688.37	24327.53
688.50	24126.24
688.64	24116.88
688.78	23740.05
688.91	23601.96
689.05	23435.78
689.18	23510.68
689.32	23190.03
689.46	22934.91
689.59	23040.23
689.73	23367.91
689.86	23119.81
690.00	22995.76
690.13	23204.07
690.27	22773.41
690.41	22963.00
690.54	22473.82
690.68	22485.53
690.81	22104.02
690.95	22122.74
691.08	22202.32
691.22	21635.91
691.35	22059.55
691.49	22099.34
691.62	21741.24
691.76	21448.67
691.89	21626.55
692.03	21542.29
692.16	21333.98
692.30	21406.54
692.43	21446.33
692.57	20968.86
692.70	21046.10
692.84	21109.29
692.97	20430.54
693.11	20814.38
693.24	20629.48
693.38	20641.18
693.51	20365.00
693.65	20489.05
693.78	20404.79
693.92	20060.73
694.05	20381.38
694.19	20271.38
694.32	20217.55
694.45	20116.90
694.59	20210.53
694.72	19992.86
694.86	19744.76
694.99	19613.69
695.13	19426.45
695.26	19318.78
695.39	19159.63
695.53	19648.80
695.66	18963.02
695.80	19201.76
695.93	18941.96
696.07	18824.93
696.20	18569.81
696.33	18265.54
696.47	18558.11
696.60	18436.40
696.73	18438.74
696.87	18532.36
697.00	18569.81
697.14	18340.44
697.27	17802.11
697.40	17825.52
697.54	18005.74
697.67	18012.76
697.80	17853.61
697.94	17710.83
698.07	17839.56
698.21	17713.17
698.34	17558.70
698.47	17308.26
698.61	16971.22
698.74	16957.18
698.87	17280.18
699.01	17039.10
699.14	17135.06
699.27	16814.41
699.40	16933.78
699.54	16793.34
699.67	17106.98
699.80	16397.79
699.94	16510.14
700.07	16650.57
700.20	16542.91
700.34	16294.81
700.47	16025.65
700.60	16343.96
700.73	16126.29
700.87	15882.88
701.00	15964.79
701.13	15583.29
701.26	15730.74
701.40	15798.62
701.53	15599.67
701.66	15580.95
701.79	15487.32
701.93	15428.81
702.06	15234.55
702.19	15194.76
702.32	15199.44
702.46	15131.56
702.59	15129.22
702.72	15178.37
702.85	14993.47
702.99	15110.50
703.12	14806.23
703.25	14846.02
703.38	14642.39
703.51	14572.18
703.65	14281.95
703.78	14288.97
703.91	14342.80
704.04	14258.54
704.17	14045.55
704.31	14127.47
704.44	13912.14
704.57	13905.12
704.70	13879.38
704.83	13685.11
704.96	13748.31
705.10	13465.10
705.23	13425.31
>>>>>End Processed Spectral Data<<<<<
