SpectraSuite Data File
++++++++++++++++++++++++++++++++++++
Date: Fri Oct 25 10:48:09 EDT 2013
User: price-jones
Dark Spectrum Present: No
Reference Spectrum Present: No
Number of Sampled Component Spectra: 1
Spectrometers: USB2+H05261
Integration Time (usec): 100000 (USB2+H05261)
Spectra Averaged: 1 (USB2+H05261)
Boxcar Smoothing: 0 (USB2+H05261)
Correct for Electrical Dark: No (USB2+H05261)
Strobe/Lamp Enabled: No (USB2+H05261)
Correct for Detector Non-linearity: No (USB2+H05261)
Correct for Stray Light: No (USB2+H05261)
Number of Pixels in Processed Spectrum: 2048
>>>>>Begin Processed Spectral Data<<<<<
365.73	182.56
365.92	182.56
366.12	182.56
366.32	56.17
366.52	0.00
366.72	93.62
366.91	11.70
367.11	0.00
367.31	23.41
367.51	0.00
367.70	58.51
367.90	65.54
368.10	28.09
368.30	126.39
368.49	105.32
368.69	65.54
368.89	42.13
369.09	46.81
369.28	67.88
369.48	124.05
369.68	110.01
369.87	177.88
370.07	121.71
370.27	121.71
370.47	184.90
370.66	416.62
370.86	416.62
371.06	395.55
371.25	484.49
371.45	463.43
371.65	510.24
371.84	393.21
372.04	514.92
372.24	475.13
372.44	425.98
372.63	507.90
372.83	503.22
373.03	388.53
373.22	484.49
373.42	538.32
373.62	461.09
373.81	573.43
374.01	543.00
374.21	566.41
374.40	498.53
374.60	573.43
374.79	540.66
374.99	543.00
375.19	540.66
375.38	613.22
375.58	559.39
375.78	573.43
375.97	601.52
376.17	608.54
376.37	547.69
376.56	575.77
376.76	603.86
376.95	592.16
377.15	547.69
377.35	592.16
377.54	610.88
377.74	578.11
377.93	636.63
378.13	685.78
378.33	545.34
378.52	606.20
378.72	603.86
378.91	624.92
379.11	578.11
379.31	645.99
379.50	594.50
379.70	606.20
379.89	777.06
380.09	678.76
380.28	674.07
380.48	650.67
380.68	695.14
380.87	685.78
381.07	631.94
381.26	667.05
381.46	624.92
381.65	636.63
381.85	655.35
382.04	688.12
382.24	711.52
382.43	589.82
382.63	643.65
382.83	671.73
383.02	695.14
383.22	678.76
383.41	692.80
383.61	755.99
383.80	674.07
384.00	634.29
384.19	702.16
384.39	821.53
384.58	716.20
384.78	851.96
384.97	748.97
385.17	744.29
385.36	739.61
385.56	760.67
385.75	753.65
385.95	777.06
386.14	830.89
386.34	716.20
386.53	842.59
386.72	798.12
386.92	854.30
387.11	830.89
387.31	777.06
387.50	772.38
387.70	774.72
387.89	793.44
388.09	779.40
388.28	760.67
388.48	908.13
388.67	861.32
388.86	903.45
389.06	844.93
389.25	959.62
389.45	919.83
389.64	868.34
389.84	945.58
390.03	905.79
390.22	933.87
390.42	999.41
390.61	781.74
390.81	945.58
391.00	976.00
391.19	976.00
391.39	971.32
391.58	999.41
391.78	1036.86
391.97	976.00
392.16	929.19
392.36	1029.84
392.55	966.64
392.75	980.68
392.94	954.94
393.13	1050.90
393.33	980.68
393.52	950.26
393.71	938.55
393.91	1067.28
394.10	1022.81
394.29	1041.54
394.49	1043.88
394.68	1022.81
394.88	1053.24
395.07	1160.91
395.26	1160.91
395.46	1090.69
395.65	1144.52
395.84	1083.67
396.04	1270.91
396.23	1111.75
396.42	1064.94
396.62	1123.46
396.81	1067.28
397.00	1137.50
397.19	1071.97
397.39	1205.38
397.58	1277.93
397.77	1207.72
397.97	1299.00
398.16	1270.91
398.35	1306.02
398.55	1221.76
398.74	1401.98
398.93	1390.28
399.12	1247.51
399.32	1315.38
399.51	1320.06
399.70	1465.18
399.90	1352.83
400.09	1406.66
400.28	1474.54
400.47	1355.17
400.67	1364.53
400.86	1432.41
401.05	1411.34
401.24	1334.11
401.44	1460.49
401.63	1448.79
401.82	1413.68
402.01	1345.81
402.21	1500.28
402.40	1504.96
402.59	1458.15
402.78	1554.12
402.97	1509.65
403.17	1467.52
403.36	1568.16
403.55	1664.12
403.74	1558.80
403.93	1561.14
404.13	1610.29
404.32	1671.14
404.51	1619.65
404.70	1661.78
404.89	1533.05
405.09	1743.70
405.28	1638.38
405.47	1703.91
405.66	1657.10
405.85	1818.60
406.05	1746.04
406.24	1771.79
406.43	1760.08
406.62	1813.92
406.81	1762.42
407.00	1750.72
407.20	1816.26
407.39	1776.47
407.58	1865.41
407.77	1891.15
407.96	1947.33
408.15	2012.86
408.34	1879.45
408.54	1944.99
408.73	1975.41
408.92	1975.41
409.11	2010.52
409.30	2066.69
409.49	2050.31
409.68	1944.99
409.87	2038.61
410.07	2026.90
410.26	2017.54
410.45	2045.63
410.64	2024.56
410.83	2228.19
411.02	2120.53
411.21	2289.04
411.40	2195.42
411.59	2146.27
411.78	2256.28
411.98	2221.17
412.17	2282.02
412.36	2225.85
412.55	2410.75
412.74	2436.50
412.93	2410.75
413.12	2363.94
413.31	2434.16
413.50	2420.11
413.69	2347.56
413.88	2539.48
414.07	2394.37
414.26	2548.84
414.45	2448.20
414.64	2668.21
414.83	2752.47
415.02	2640.12
415.22	2717.36
415.41	2836.73
415.60	2717.36
415.79	2628.42
415.98	2686.94
416.17	2780.56
416.36	2736.09
416.55	2827.37
416.74	2871.84
416.93	2897.58
417.12	2967.80
417.31	2949.08
417.50	2822.69
417.69	3061.42
417.88	2935.03
418.07	2942.05
418.26	3045.04
418.45	3005.25
418.64	3208.87
418.83	3192.49
419.02	3087.17
419.21	3281.43
419.39	3059.08
419.58	3063.76
419.77	3159.72
419.96	3143.34
420.15	3309.52
420.34	3288.45
420.53	3382.07
420.72	3384.41
420.91	3349.31
421.10	3344.63
421.29	3288.45
421.48	3215.90
421.67	3463.99
421.86	3281.43
422.05	3382.07
422.24	3452.29
422.43	3368.03
422.61	3368.03
422.80	3552.93
422.99	3426.54
423.18	3506.12
423.37	3620.81
423.56	3424.20
423.75	3527.19
423.94	3555.27
424.13	3262.71
424.32	3344.63
424.50	3524.85
424.69	3578.68
424.88	3529.53
425.07	3508.46
425.26	3555.27
425.45	3501.44
425.64	3386.76
425.83	3522.51
426.01	3545.91
426.20	3517.83
426.39	3485.06
426.58	3503.78
426.77	3513.14
426.96	3496.76
427.15	3548.25
427.33	3613.79
427.52	3599.74
427.71	3784.65
427.90	3616.13
428.09	3641.87
428.28	3672.30
428.46	3777.62
428.65	3779.97
428.84	3911.04
429.03	3712.09
429.22	3625.49
429.40	3747.20
429.59	3854.86
429.78	3655.92
429.97	3707.41
430.16	3772.94
430.34	3721.45
430.53	3740.18
430.72	3777.62
430.91	3845.50
431.10	3796.35
431.28	3896.99
431.47	4004.66
431.66	4121.68
431.85	3983.59
432.03	4093.60
432.22	4252.75
432.41	4086.58
432.60	4025.72
432.79	4187.22
432.97	4292.54
433.16	4131.05
433.35	4060.83
433.54	4217.65
433.72	4208.28
433.91	4304.25
434.10	4227.01
434.28	4250.41
434.47	4248.07
434.66	4348.72
434.85	4294.88
435.03	4503.19
435.22	4252.75
435.41	4601.49
435.59	4564.04
435.78	4376.80
435.97	4390.84
436.16	4514.89
436.34	4362.76
436.53	4489.15
436.72	4662.35
436.90	4435.32
437.09	4580.43
437.28	4477.44
437.46	4554.68
437.65	4519.57
437.84	4641.28
438.02	4578.09
438.21	4746.61
438.40	4622.56
438.58	4744.27
438.77	4716.18
438.96	4793.42
439.14	5074.28
439.33	4919.81
439.52	4964.28
439.70	5004.07
439.89	5025.13
440.08	4966.62
440.26	4884.70
440.45	5142.16
440.63	5123.43
440.82	5153.86
441.01	5088.32
441.19	5254.50
441.38	5310.68
441.57	5338.76
441.75	5432.38
441.94	5458.13
442.12	5439.40
442.31	5472.17
442.50	5614.95
442.68	5483.88
442.87	5502.60
443.05	5607.92
443.24	5568.13
443.43	5518.98
443.61	5804.53
443.80	5959.00
443.98	5575.16
444.17	5570.48
444.35	5755.38
444.54	5874.74
444.73	5760.06
444.91	5671.12
445.10	5753.04
445.28	5799.85
445.47	5738.99
445.65	6033.90
445.84	5973.05
446.02	5867.72
446.21	5699.20
446.39	5827.93
446.58	5823.25
446.77	5900.49
446.95	5678.14
447.14	6012.84
447.32	6029.22
447.51	5928.58
447.69	5893.47
447.88	5834.96
448.06	5919.21
448.25	5830.27
448.43	5678.14
448.62	5898.15
448.80	5966.03
448.99	6040.92
449.17	5959.00
449.36	6059.65
449.54	6136.88
449.73	6186.04
449.91	6125.18
450.10	6221.14
450.28	6211.78
450.46	6296.04
450.65	6317.11
450.83	6270.30
451.02	6436.47
451.20	6284.34
451.39	6183.70
451.57	6377.96
451.76	6509.03
451.94	6352.21
452.13	6492.65
452.31	6427.11
452.49	6232.85
452.68	6354.55
452.86	6513.71
453.05	6466.90
453.23	6525.41
453.42	6445.84
453.60	6511.37
453.78	6553.50
453.97	6525.41
454.15	6462.22
454.34	6569.88
454.52	6590.95
454.70	6717.34
454.89	6684.57
455.07	6612.01
455.26	6745.42
455.44	6740.74
455.62	6862.45
455.81	7023.95
455.99	6771.17
456.17	6888.20
456.36	6970.12
456.54	6881.18
456.73	6923.30
456.91	7162.04
457.09	7096.50
457.28	7220.55
457.46	7063.74
457.64	7112.89
457.83	7339.92
458.01	7080.12
458.19	7431.20
458.38	7267.36
458.56	7386.73
458.74	7346.94
458.93	7265.02
459.11	7473.33
459.29	7279.07
459.48	7314.17
459.66	7447.58
459.84	7382.05
460.03	7630.15
460.21	7489.71
460.39	7578.65
460.57	7559.93
460.76	7515.46
460.94	7648.87
461.12	7527.16
461.31	7691.00
461.49	7700.36
461.67	7698.02
461.85	7786.96
462.04	7838.45
462.22	8149.75
462.40	8028.04
462.59	7850.16
462.77	7857.18
462.95	7852.50
463.13	8088.89
463.32	7843.14
463.50	7948.46
463.68	7920.37
463.86	8046.76
464.05	7880.58
464.23	7934.42
464.41	8023.36
464.59	7988.25
464.78	8255.07
464.96	8175.49
465.14	7801.01
465.32	8243.37
465.50	8266.77
465.69	8287.84
465.87	8248.05
466.05	8084.21
466.23	8262.09
466.41	8273.79
466.60	8318.26
466.78	8299.54
466.96	8128.68
467.14	8292.52
467.32	8402.52
467.51	8482.10
467.69	8313.58
467.87	8402.52
468.05	8454.02
468.23	8442.31
468.41	8409.54
468.60	8484.44
468.78	8580.40
468.96	8622.53
469.14	8627.21
469.32	8814.46
469.50	8470.40
469.69	8814.46
469.87	8877.65
470.05	8910.42
470.23	8952.55
470.41	8812.12
470.59	8905.74
470.77	8786.37
470.95	8964.25
471.14	9233.41
471.32	8943.19
471.50	9165.54
471.68	8964.25
471.86	9245.12
472.04	9364.48
472.22	9348.10
472.40	9149.15
472.58	9214.69
472.77	9174.90
472.95	9355.12
473.13	9586.83
473.31	9263.84
473.49	9764.72
473.67	9483.85
473.85	9411.29
474.03	9689.82
474.21	9767.06
474.39	9863.02
474.57	9912.17
474.75	9966.00
474.93	9989.41
475.12	10080.69
475.30	10188.35
475.48	9958.98
475.66	10125.16
475.84	10122.82
476.02	10176.65
476.20	10186.01
476.38	10373.25
476.56	10656.46
476.74	10366.23
476.92	10714.97
477.10	10616.67
477.28	10815.62
477.46	10874.13
477.64	10899.87
477.82	11262.66
478.00	11297.77
478.18	11290.74
478.36	11440.54
478.54	11447.56
478.72	11391.39
478.90	11447.56
479.08	11665.23
479.26	11798.64
479.44	11829.07
479.62	11840.77
479.80	11981.20
479.98	11906.31
480.16	12285.47
480.34	12077.16
480.52	12493.78
480.70	12468.03
480.88	12224.62
481.06	12381.43
481.24	12500.80
481.41	12620.17
481.59	12961.89
481.77	13062.53
481.95	12926.78
482.13	12868.27
482.31	13202.96
482.49	13249.77
482.67	13385.52
482.85	13343.39
483.03	13760.01
483.21	13741.29
483.39	13870.01
483.57	13862.99
483.74	13980.02
483.92	14438.76
484.10	14085.34
484.28	14068.96
484.46	14637.71
484.64	14637.71
484.82	14717.29
485.00	14815.59
485.18	14824.95
485.35	14829.63
485.53	14820.27
485.71	14803.89
485.89	15192.42
486.07	14813.25
486.25	15199.44
486.43	15257.95
486.61	15559.88
486.78	15929.69
486.96	15838.41
487.14	15976.50
487.32	15960.11
487.50	16203.53
487.68	16411.84
487.85	16669.30
488.03	16805.05
488.21	17085.91
488.39	17041.44
488.57	16807.39
488.75	16996.97
488.92	17390.18
489.10	17415.93
489.28	17385.50
489.46	17759.98
489.64	17699.13
489.81	18265.54
489.99	18005.74
490.17	18071.28
490.35	18731.31
490.53	18518.32
490.70	18637.69
490.88	18567.47
491.06	18934.93
491.24	18883.44
491.41	18745.35
491.59	19220.48
491.77	18658.75
491.95	19370.27
492.13	19557.52
492.30	19531.77
492.48	19527.09
492.66	19648.80
492.84	19655.82
493.01	19838.38
493.19	20070.09
493.37	20037.33
493.54	20353.30
493.72	20521.82
493.90	20280.74
494.08	20776.94
494.25	20840.13
494.43	21109.29
494.61	21125.68
494.79	21373.77
494.96	21041.42
495.14	21338.66
495.32	21418.24
495.49	21741.24
495.67	21708.47
495.85	21994.01
496.02	21900.39
496.20	21867.63
496.38	22141.47
496.55	22127.42
496.73	22548.72
496.91	22377.86
497.09	22595.53
497.26	22927.89
497.44	22717.24
497.62	23152.58
497.79	23349.18
497.97	22848.31
498.14	23571.54
498.32	23194.71
498.50	23267.27
498.67	23850.06
498.85	23314.08
499.03	23913.25
499.20	23859.42
499.38	24102.84
499.56	23882.83
499.73	24254.97
499.91	24180.07
500.08	24116.88
500.26	24208.16
500.44	24332.21
500.61	24425.83
500.79	24685.63
500.97	24755.85
501.14	24861.17
501.32	24556.90
501.49	25088.20
501.67	24973.52
501.84	25282.47
502.02	25322.26
502.20	25483.75
502.37	25811.43
502.55	25436.94
502.72	25762.28
502.90	25895.69
503.07	25649.93
503.25	25750.57
503.43	26190.59
503.60	26157.83
503.78	26307.62
503.95	26279.54
504.13	25986.97
504.30	26244.43
504.48	26223.36
504.65	26548.70
504.83	26473.80
505.01	26693.81
505.18	26536.99
505.36	26876.37
505.53	26728.92
505.71	27335.12
505.88	27091.70
506.06	26944.25
506.23	27285.97
506.41	26764.03
506.58	27199.37
506.76	27536.40
506.93	27517.68
507.11	27634.71
507.28	27735.35
507.46	27718.96
507.63	27527.04
507.81	27906.21
507.98	27531.72
508.16	27871.10
508.33	28032.60
508.50	28224.52
508.68	28032.60
508.85	28297.08
509.03	28760.50
509.20	28446.87
509.38	28697.31
509.55	28725.39
509.73	28835.40
509.90	29228.61
510.08	28804.97
510.25	28755.82
510.42	29003.92
510.60	29401.81
510.77	29247.33
510.95	29575.01
511.12	29247.33
511.30	29476.71
511.47	29769.27
511.64	29890.98
511.82	29858.21
511.99	29762.25
512.17	29968.22
512.34	29954.18
512.51	29848.85
512.69	30209.29
512.86	30075.88
513.04	30452.71
513.21	30745.28
513.38	30270.15
513.56	30473.78
513.73	30197.59
513.90	30560.37
514.08	30611.87
514.25	30916.14
514.43	30668.04
514.60	30972.31
514.77	31103.38
514.95	30789.75
515.12	31101.04
515.29	31129.12
515.47	31124.44
515.64	31721.28
515.81	31592.55
515.99	31470.84
516.16	31412.33
516.33	31665.11
516.51	31517.65
516.68	31372.54
516.85	31117.42
517.03	31711.92
517.20	31599.57
517.37	31793.84
517.54	32257.26
517.72	32027.89
517.89	31819.58
518.06	32121.51
518.24	31997.46
518.41	32212.79
518.58	32093.43
518.75	32432.80
518.93	32287.69
519.10	32643.45
519.27	32683.24
519.45	32547.49
519.62	32840.06
519.79	32414.08
519.96	32723.03
520.14	33153.69
520.31	32870.48
520.48	33273.06
520.65	33259.01
520.83	33385.40
521.00	33195.82
521.17	33464.98
521.34	33242.63
521.52	33406.47
521.69	33888.62
521.86	33755.21
522.03	34073.52
522.20	34108.63
522.38	33844.15
522.55	34183.52
522.72	33514.13
522.89	33727.12
523.07	33626.48
523.24	33975.22
523.41	33837.12
523.58	34532.26
523.75	34429.28
523.92	34696.10
524.10	34859.94
524.27	34639.93
524.44	34665.67
524.61	34995.69
524.78	34649.29
524.96	34705.46
525.13	35269.53
525.30	35456.78
525.47	35325.71
525.64	34834.19
525.81	34962.92
525.98	35227.40
526.16	35274.21
526.33	34988.67
526.50	35487.20
526.67	35161.87
526.84	34885.68
527.01	35274.21
527.18	35531.67
527.36	35531.67
527.53	35321.02
527.70	35894.46
527.87	35927.22
528.04	35402.94
528.21	35915.52
528.38	36027.87
528.55	36479.59
528.72	35824.24
528.89	36809.61
529.07	36425.76
529.24	36165.96
529.41	36575.55
529.58	35796.15
529.75	36142.55
529.92	36357.88
530.09	36102.76
530.26	36311.07
530.43	36568.53
530.60	36456.18
530.77	36467.89
530.94	36872.80
531.11	36453.84
531.28	36603.64
531.46	37474.32
531.63	36900.89
531.80	37160.69
531.97	36947.70
532.14	36947.70
532.31	36582.57
532.48	37184.09
532.65	37574.96
532.82	36989.83
532.99	37333.89
533.16	37081.11
533.33	37448.57
533.50	37649.86
533.67	37486.02
533.84	37029.62
534.01	37787.95
534.18	37448.57
534.35	37984.55
534.52	37771.57
534.69	38057.11
534.86	37965.83
535.03	37757.52
535.20	37970.51
535.37	38431.60
535.54	38199.88
535.71	37745.82
535.88	37907.32
536.05	38103.92
536.22	38188.18
536.38	38312.23
536.55	38057.11
536.72	38171.80
536.89	38415.21
537.06	38436.28
537.23	38766.29
537.40	38312.23
537.57	38260.74
537.74	38377.76
537.91	38787.36
538.08	38682.03
538.25	38918.43
538.42	38394.15
538.59	39569.10
538.75	38244.35
538.92	39201.63
539.09	39044.82
539.26	39016.73
539.43	39119.71
539.60	39086.95
539.77	38663.31
539.94	39241.42
540.11	39583.14
540.28	38775.66
540.44	39274.19
540.61	39257.81
540.78	39143.12
540.95	38843.53
541.12	39159.50
541.29	39304.62
541.46	39608.89
541.62	39763.36
541.79	39901.45
541.96	39414.62
542.13	39431.01
542.30	39489.52
542.47	40018.48
542.63	39821.87
542.80	39695.49
542.97	40442.12
543.14	40531.06
543.31	40444.46
543.48	40472.54
543.64	40687.87
543.81	40533.40
543.98	40456.16
544.15	40924.27
544.32	40252.53
544.48	40570.85
544.65	40332.11
544.82	40224.45
544.99	40381.26
545.16	40629.36
545.32	40451.48
545.49	40935.97
545.66	40840.01
545.83	40865.75
546.00	41043.63
546.16	40793.20
546.33	40598.93
546.50	40325.09
546.67	40732.34
546.83	40465.52
547.00	40453.82
547.17	40680.85
547.34	40931.29
547.50	41141.94
547.67	41308.11
547.84	41366.63
548.00	41165.34
548.17	41450.89
548.34	41621.75
548.51	41635.79
548.67	41769.20
548.84	41961.12
549.01	41422.80
549.18	41450.89
549.34	41504.72
549.51	41612.38
549.68	41605.36
549.84	41570.25
550.01	41635.79
550.18	41591.32
550.34	41633.45
550.51	41684.94
550.68	41565.57
550.84	41383.01
551.01	41677.92
551.18	42010.28
551.34	41226.20
551.51	41698.98
551.68	42169.43
551.84	42117.94
552.01	41933.04
552.18	41755.16
552.34	41949.42
552.51	42188.16
552.68	41947.08
552.84	42164.75
553.01	42473.70
553.18	42241.99
553.34	42354.33
553.51	42106.24
553.67	42073.47
553.84	42167.09
554.01	42190.50
554.17	42319.23
554.34	42684.35
554.51	42548.60
554.67	42499.45
554.84	42485.40
555.00	42288.80
555.17	42356.67
555.33	42871.59
555.50	42302.84
555.67	42672.65
555.83	42590.73
556.00	42740.52
556.16	43138.41
556.33	42574.34
556.50	42478.38
556.66	43044.79
556.83	42960.53
556.99	42941.81
557.16	43257.78
557.32	42892.66
557.49	42747.54
557.65	42646.90
557.82	42843.51
557.98	42878.61
558.15	42948.83
558.32	43019.05
558.48	42895.00
558.65	43138.41
558.81	42885.64
558.98	43367.79
559.14	43098.62
559.31	42576.69
559.47	42932.45
559.64	43456.73
559.80	43232.04
559.97	43103.31
560.13	43049.47
560.30	43201.61
560.46	43192.25
560.63	42841.17
560.79	43749.29
560.96	43468.43
561.12	43601.84
561.29	43374.81
561.45	43398.21
561.61	43517.58
561.78	43454.39
561.94	43517.58
562.11	43358.42
562.27	43627.59
562.44	43737.59
562.60	43468.43
562.77	43672.06
562.93	43524.60
563.10	43807.81
563.26	43346.72
563.42	44126.12
563.59	43412.26
563.75	43695.46
563.92	43260.12
564.08	43812.49
564.24	43435.66
564.41	44079.31
564.57	43889.73
564.74	43580.78
564.90	43831.21
565.07	43702.48
565.23	43709.50
565.39	43810.15
565.56	43653.33
565.72	43702.48
565.88	43791.42
566.05	43643.97
566.21	43784.40
566.38	43531.62
566.54	43938.88
566.70	44329.75
566.87	44257.19
567.03	44025.48
567.19	44147.18
567.36	44137.82
567.52	43475.45
567.68	44219.74
567.85	43777.38
568.01	43943.56
568.17	43908.45
568.34	44399.96
568.50	44229.10
568.66	43777.38
568.83	44107.40
568.99	43833.55
569.15	43559.71
569.32	43753.97
569.48	43753.97
569.64	44158.89
569.81	44060.58
569.97	43999.73
570.13	44442.09
570.30	43976.33
570.46	44091.01
570.62	44383.58
570.78	43908.45
570.95	43903.77
571.11	44133.14
571.27	43845.26
571.43	44016.11
571.60	43927.17
571.76	44072.29
571.92	43922.49
572.09	44081.65
572.25	44376.56
572.41	43920.15
572.57	44491.24
572.74	44685.51
572.90	44191.65
573.06	44102.71
573.22	44701.89
573.38	44463.16
573.55	43959.94
573.71	44559.12
573.87	43833.55
574.03	43779.72
574.20	44549.76
574.36	44535.71
574.52	44376.56
574.68	44044.20
574.84	44432.73
575.01	44587.21
575.17	44074.63
575.33	43957.60
575.49	43866.32
575.65	44423.37
575.82	44514.65
575.98	44264.21
576.14	44643.38
576.30	44278.25
576.46	44168.25
576.62	44217.40
576.79	44273.57
576.95	44030.16
577.11	44191.65
577.27	44580.18
577.43	44486.56
577.59	43978.67
577.75	44751.04
577.92	44065.27
578.08	43903.77
578.24	43908.45
578.40	44446.77
578.56	44594.23
578.72	43679.08
578.88	44306.34
579.04	44271.23
579.21	44215.06
579.37	44065.27
579.53	44357.83
579.69	44013.77
579.85	44568.48
580.01	44392.94
580.17	44622.31
580.33	44769.77
580.49	44528.69
580.65	44718.28
580.82	44587.21
580.98	44259.53
581.14	44299.32
581.30	44385.92
581.46	44587.21
581.62	44444.43
581.78	43981.01
581.94	44685.51
582.10	44570.82
582.26	44598.91
582.42	44460.82
582.58	44694.87
582.74	44322.72
582.90	44479.54
583.06	44619.97
583.22	44493.58
583.38	44313.36
583.54	44341.45
583.70	44699.55
583.86	44418.69
584.02	44165.91
584.18	44069.95
584.34	44313.36
584.50	44304.00
584.66	44233.78
584.82	44186.97
584.98	44608.27
585.14	44690.19
585.30	44439.75
585.46	44453.79
585.62	44509.97
585.78	44339.11
585.94	44074.63
586.10	44423.37
586.26	44507.63
586.42	44011.43
586.58	44624.65
586.74	44816.58
586.90	44699.55
587.06	44502.95
587.22	44912.54
587.38	44294.64
587.54	44959.35
587.70	45254.26
587.86	44612.95
588.02	44505.29
588.18	44999.14
588.34	44648.06
588.49	44641.04
588.65	44189.31
588.81	44329.75
588.97	44442.09
589.13	44395.28
589.29	44767.43
589.45	44442.09
589.61	45008.50
589.77	44694.87
589.93	44612.95
590.08	44809.56
590.24	44423.37
590.40	45132.55
590.56	44774.45
590.72	45179.36
590.88	44266.55
591.04	44706.57
591.20	45418.10
591.35	44629.34
591.51	45261.28
591.67	44629.34
591.83	44596.57
591.99	44720.62
592.15	44542.74
592.31	44940.63
592.46	44479.54
592.62	44828.28
592.78	44978.07
592.94	45090.42
593.10	44692.53
593.26	44781.47
593.41	44683.17
593.57	45160.64
593.73	44692.53
593.89	44816.58
594.05	45165.32
594.20	45106.80
594.36	45282.34
594.52	45102.12
594.68	44821.26
594.84	44839.98
594.99	45219.15
595.15	45181.70
595.31	45076.38
595.47	45310.43
595.62	44893.82
595.78	44720.62
595.94	45249.58
596.10	44987.44
596.25	45111.49
596.41	45263.62
596.57	45048.29
596.73	45312.77
596.88	44865.73
597.04	45027.23
597.20	45109.14
597.36	44636.36
597.51	45198.09
597.67	45127.87
597.83	45172.34
597.99	45216.81
598.14	44877.43
598.30	44896.16
598.46	44847.00
598.61	44896.16
598.77	44776.79
598.93	44406.98
599.09	44690.19
599.24	45406.39
599.40	45310.43
599.56	44942.97
599.71	45106.80
599.87	45528.10
600.03	45020.20
600.18	45170.00
600.34	44875.09
600.50	44938.29
600.65	45125.53
600.81	45387.67
600.97	45350.22
601.12	45109.14
601.28	44996.80
601.44	44903.18
601.59	45207.45
601.75	45251.92
601.91	44795.51
602.06	44807.22
602.22	44760.40
602.37	44933.60
602.53	45200.43
602.69	45270.64
602.84	45654.49
603.00	45397.03
603.16	45160.64
603.31	45123.19
603.47	45212.13
603.62	44900.84
603.78	44985.10
603.94	44793.17
604.09	45085.74
604.25	45256.60
604.40	45235.53
604.56	44875.09
604.71	44720.62
604.87	44847.00
605.03	45254.26
605.18	44540.39
605.34	44875.09
605.49	44334.43
605.65	44699.55
605.80	44896.16
605.96	44676.15
606.12	45071.70
606.27	44905.52
606.43	44701.89
606.58	44676.15
606.74	44919.56
606.89	44854.03
607.05	45120.85
607.20	44837.64
607.36	44884.45
607.51	45408.73
607.67	44748.70
607.82	44559.12
607.98	44718.28
608.13	44811.90
608.29	45083.40
608.44	44615.29
608.60	44079.31
608.75	44802.53
608.91	44521.67
609.06	44924.24
609.22	45097.44
609.37	44610.61
609.53	44552.10
609.68	44732.32
609.84	44116.76
609.99	44430.39
610.15	44584.86
610.30	44563.80
610.46	44107.40
610.61	44233.78
610.76	44816.58
610.92	44800.19
611.07	44334.43
611.23	44172.93
611.38	44144.84
611.54	43908.45
611.69	44189.31
611.84	44273.57
612.00	44336.77
612.15	44219.74
612.31	44587.21
612.46	44299.32
612.62	44797.85
612.77	44100.37
612.92	44463.16
613.08	44289.96
613.23	44486.56
613.39	44091.01
613.54	44051.22
613.69	44322.72
613.85	43887.39
614.00	44186.97
614.15	44278.25
614.31	44100.37
614.46	44034.84
614.62	44142.50
614.77	44287.62
614.92	43945.90
615.08	43728.23
615.23	44037.18
615.38	43906.11
615.54	43899.09
615.69	44271.23
615.84	43295.23
616.00	44172.93
616.15	43681.42
616.30	44233.78
616.46	43491.83
616.61	43536.30
616.76	43643.97
616.92	43323.32
617.07	43648.65
617.22	43711.84
617.37	43643.97
617.53	44025.48
617.68	43906.11
617.83	43735.25
617.99	43810.15
618.14	43526.94
618.29	43723.55
618.45	43459.07
618.60	43496.52
618.75	43454.39
618.90	43395.87
619.06	43508.22
619.21	43526.94
619.36	43594.82
619.51	43896.75
619.67	43498.86
619.82	43379.49
619.97	43660.35
620.12	43129.05
620.28	43276.51
620.43	43622.90
620.58	43206.29
620.73	43051.81
620.89	43328.00
621.04	43154.80
621.19	43175.86
621.34	43030.75
621.49	42728.82
621.65	42941.81
621.80	43232.04
621.95	42794.36
622.10	43187.56
622.25	42792.01
622.41	42490.09
622.56	42794.36
622.71	42955.85
622.86	43117.35
623.01	42677.33
623.16	43255.44
623.32	43002.66
623.47	43250.76
623.62	42866.91
623.77	42862.23
623.92	42796.70
624.07	42609.45
624.23	42131.98
624.38	42349.65
624.53	42419.87
624.68	42426.89
624.83	42820.10
624.98	42412.85
625.13	42464.34
625.29	42312.20
625.44	42593.07
625.59	42637.54
625.74	42204.54
625.89	41769.20
626.04	41682.60
626.19	41923.68
626.34	42672.65
626.49	42333.27
626.65	41439.18
626.80	42050.06
626.95	42124.96
627.10	42281.78
627.25	41757.50
627.40	41907.29
627.55	41586.64
627.70	41455.57
627.85	41867.50
628.00	42031.34
628.15	41876.86
628.30	41490.68
628.45	41982.19
628.60	41755.16
628.76	41713.03
628.91	42003.25
629.06	41813.67
629.21	41745.80
629.36	41556.21
629.51	41539.83
629.66	41631.11
629.81	41212.15
629.96	41315.14
630.11	41420.46
630.26	41799.63
630.41	41661.54
630.56	41418.12
630.71	41741.11
630.86	41294.07
631.01	41219.17
631.16	41315.14
631.31	41322.16
631.46	40910.22
631.61	40685.53
631.76	41500.04
631.91	41598.34
632.06	41188.75
632.21	41392.37
632.36	41392.37
632.51	41251.94
632.66	41055.34
632.81	40765.11
632.96	41230.88
633.10	40594.25
633.25	41179.39
633.40	40879.80
633.55	41247.26
633.70	40987.46
633.85	40961.72
634.00	41045.97
634.15	40643.40
634.30	40978.10
634.45	40547.44
634.60	41099.81
634.75	40823.62
634.90	40875.12
635.05	40655.11
635.19	40701.92
635.34	40737.02
635.49	40832.99
635.64	40465.52
635.79	40617.66
635.94	40598.93
636.09	40371.90
636.24	40547.44
636.39	40030.18
636.53	40203.38
636.68	40357.86
636.83	40292.32
636.98	40453.82
637.13	40133.17
637.28	40680.85
637.43	40554.46
637.57	40556.80
637.72	40465.52
637.87	40261.90
638.02	40105.08
638.17	40563.82
638.32	40009.12
638.46	39966.99
638.61	39955.29
638.76	39805.49
638.91	39927.20
639.06	39702.51
639.20	39892.09
639.35	39945.92
639.50	39807.83
639.65	40236.15
639.80	40123.80
639.94	39737.62
640.09	39749.32
640.24	39803.15
640.39	39686.12
640.54	40004.44
640.68	39817.19
640.83	39882.73
640.98	39585.48
641.13	39765.70
641.27	39988.05
641.42	39695.49
641.57	39559.73
641.72	39856.98
641.86	39009.71
642.01	39222.70
642.16	39171.21
642.31	38761.61
642.45	39313.98
642.60	39173.55
642.75	38761.61
642.90	39136.10
643.04	39772.72
643.19	39292.91
643.34	39346.75
643.48	39438.03
643.63	39260.15
643.78	39276.53
643.93	39070.56
644.07	39012.05
644.22	39049.50
644.37	38878.64
644.51	38920.77
644.66	39124.40
644.81	38707.78
644.95	39313.98
645.10	39452.07
645.25	39199.29
645.39	39117.37
645.54	39016.73
645.69	38934.81
645.83	38927.79
645.98	38450.32
646.13	38899.70
646.27	38848.21
646.42	38960.56
646.57	38731.18
646.71	38628.20
646.86	39065.88
647.00	39349.09
647.15	38522.88
647.30	38457.34
647.44	38543.94
647.59	38464.36
647.74	38419.89
647.88	37825.40
648.03	38520.54
648.17	38883.32
648.32	38153.07
648.47	38209.25
648.61	38270.10
648.76	39110.35
648.90	38836.51
649.05	38433.94
649.20	38595.43
649.34	38452.66
649.49	38522.88
649.63	38464.36
649.78	38422.23
649.92	38291.16
650.07	38213.93
650.21	37890.93
650.36	38368.40
650.51	38106.26
650.65	38511.17
650.80	38284.14
650.94	38464.36
651.09	38560.33
651.23	37741.14
651.38	38110.94
651.52	37759.86
651.67	37649.86
651.81	37752.84
651.96	37280.05
652.10	37942.42
652.25	37846.46
652.39	37390.06
652.54	37965.83
652.68	37776.25
652.83	38078.18
652.97	37706.03
653.12	38033.71
653.26	37745.82
653.41	37956.47
653.55	37794.97
653.70	37537.51
653.84	37479.00
653.99	37612.41
654.13	37099.83
654.27	37256.65
654.42	37471.98
654.56	37509.43
654.71	37982.21
654.85	37383.04
655.00	37696.67
655.14	36947.70
655.29	37177.07
655.43	37184.09
655.57	37097.49
655.72	36657.47
655.86	36765.14
656.01	37174.73
656.15	37057.70
656.30	36879.82
656.44	36669.17
656.58	37109.19
656.73	36613.00
656.87	36804.92
657.01	36259.58
657.16	36629.38
657.30	36517.04
657.45	36407.03
657.59	36905.57
657.73	36570.87
657.88	36718.32
658.02	36610.66
658.16	36687.90
658.31	36727.69
658.45	36493.63
658.60	36664.49
658.74	36596.62
658.88	36315.75
659.03	36587.25
659.17	36383.63
659.31	36402.35
659.46	36503.00
659.60	36451.50
659.74	36542.78
659.89	35812.54
660.03	35938.93
660.17	36449.16
660.32	36458.52
660.46	36603.64
660.60	36467.89
660.74	36510.02
660.89	35768.07
661.03	35711.89
661.17	35791.47
661.32	35634.66
661.46	35730.62
661.60	35945.95
661.74	35421.67
661.89	35889.77
662.03	35711.89
662.17	35700.19
662.31	35227.40
662.46	35405.28
662.60	35522.31
662.74	35459.12
662.88	35138.46
663.03	35634.66
663.17	35414.65
663.31	34792.06
663.45	34998.03
663.60	35283.58
663.74	34651.63
663.88	34808.45
664.02	34937.18
664.17	34937.18
664.31	34733.55
664.45	34677.38
664.59	34962.92
664.73	34380.13
664.88	34632.91
665.02	34253.74
665.16	34691.42
665.30	34281.83
665.44	34581.42
665.59	34132.03
665.73	34410.56
665.87	34227.99
666.01	33862.87
666.15	34368.43
666.29	34312.25
666.44	34419.92
666.58	34384.81
666.72	34281.83
666.86	34171.82
667.00	34125.01
667.14	33881.60
667.28	34010.32
667.43	33617.11
667.57	33586.69
667.71	33577.33
667.85	33600.73
667.99	33085.81
668.13	33298.80
668.27	33687.33
668.41	33745.84
668.56	33167.73
668.70	33287.10
668.84	33228.59
668.98	33120.92
669.12	33518.81
669.26	33048.36
669.40	32844.74
669.54	32858.78
669.68	33195.82
669.82	33439.23
669.96	32671.54
670.10	32708.99
670.25	32797.93
670.39	33191.14
670.53	32046.62
670.67	32496.00
670.81	32648.13
670.95	32505.36
671.09	32491.32
671.23	32348.54
671.37	32533.45
671.51	32107.47
671.65	32198.75
671.79	32077.04
671.93	32055.98
672.07	32123.85
672.21	31952.99
672.35	31761.07
672.49	31590.21
672.63	32100.45
672.77	32032.57
672.91	31517.65
673.05	31304.67
673.19	31445.10
673.33	31541.06
673.47	31496.59
673.61	31379.56
673.75	30897.41
673.89	30785.07
674.03	30656.34
674.17	30824.86
674.31	31112.74
674.45	30939.54
674.59	30806.13
674.73	30735.92
674.87	30558.03
675.01	30714.85
675.15	30866.98
675.29	30728.89
675.43	30286.53
675.56	30714.85
675.70	30270.15
675.84	30319.30
675.98	29104.56
676.12	30213.98
676.26	30015.03
676.40	29907.37
676.54	29837.15
676.68	29607.78
676.82	29528.20
676.96	29235.63
677.10	29450.96
677.23	29261.38
677.37	29085.84
677.51	29156.05
677.65	29212.23
677.79	28938.38
677.93	28926.68
678.07	28615.39
678.21	28407.08
678.34	28676.24
678.48	28624.75
678.62	28720.71
678.76	28224.52
678.90	28191.75
679.04	28371.97
679.18	28371.97
679.31	27651.09
679.45	27840.67
679.59	27620.66
679.73	27686.20
679.87	27845.35
680.00	27768.12
680.14	27391.29
680.28	27672.15
680.42	27115.11
680.56	27178.30
680.70	27325.75
680.83	27150.21
680.97	27037.87
681.11	27061.27
681.25	26803.82
681.39	26703.17
681.52	26738.28
681.66	26647.00
681.80	26801.47
681.94	26745.30
682.07	26991.06
682.21	26459.76
682.35	26153.15
682.49	26424.65
682.62	26167.19
682.76	26022.08
682.90	25678.02
683.04	25841.85
683.17	26230.38
683.31	25710.78
683.45	25706.10
683.59	25642.91
683.72	25535.24
683.86	25254.38
684.00	25242.68
684.13	25364.39
684.27	25165.44
684.41	24996.92
684.55	24877.55
684.68	24744.14
684.82	24692.65
684.96	24198.80
685.09	24580.31
685.23	24283.06
685.37	24147.31
685.50	24332.21
685.64	24369.66
685.78	24446.90
685.91	24362.64
686.05	24006.87
686.19	23854.74
686.32	24161.35
686.46	23707.29
686.60	23274.29
686.73	23304.71
686.87	23178.33
687.01	23300.03
687.14	23110.45
687.28	23145.56
687.42	23082.36
687.55	22939.59
687.69	22614.26
687.82	23180.67
687.96	22721.92
688.10	22682.13
688.23	22513.61
688.37	22590.85
688.50	22225.73
688.64	22108.70
688.78	22394.25
688.91	21926.14
689.05	21720.17
689.18	22057.21
689.32	22043.17
689.46	21642.93
689.59	21841.88
689.73	22106.36
689.86	21825.50
690.00	21596.12
690.13	21656.98
690.27	21638.25
690.41	21341.00
690.54	21429.94
690.68	21088.23
690.81	21062.48
690.95	21027.37
691.08	20847.15
691.22	20966.52
691.35	20807.36
691.49	20699.70
691.62	20755.87
691.76	20828.43
691.89	20776.94
692.03	20484.37
692.16	20507.77
692.30	20175.42
692.43	20360.32
692.57	20402.45
692.70	20081.80
692.84	20027.96
692.97	19562.20
693.11	19784.55
693.24	19824.34
693.38	19620.71
693.51	19583.26
693.65	19632.41
693.78	19648.80
693.92	19386.66
694.05	19307.08
694.19	18958.34
694.32	19325.80
694.45	19241.54
694.59	18827.27
694.72	18792.16
694.86	18787.48
694.99	18569.81
695.13	18305.33
695.26	18279.58
695.39	18181.28
695.53	18455.12
695.66	18548.75
695.80	18459.81
695.93	18237.45
696.07	18033.83
696.20	18160.22
696.33	17916.80
696.47	17785.73
696.60	17837.22
696.73	17678.07
696.87	17830.20
697.00	17584.44
697.14	17638.28
697.27	17490.82
697.40	17413.59
697.54	17467.42
697.67	17029.74
697.80	17305.92
697.94	17008.67
698.07	17106.98
698.21	16833.13
698.34	17214.64
698.47	16999.31
698.61	16493.76
698.74	16645.89
698.87	16706.74
699.01	16313.53
699.14	16404.81
699.27	16381.41
699.40	16547.59
699.54	16081.82
699.67	16046.71
699.80	16063.10
699.94	16016.29
700.07	16182.46
700.20	16063.10
700.34	15873.51
700.47	15721.38
700.60	15955.43
700.73	15646.48
700.87	15611.37
701.00	15550.52
701.13	15531.80
701.26	15489.67
701.40	15349.23
701.53	15222.84
701.66	15087.09
701.79	14913.89
701.93	14941.98
702.06	14717.29
702.19	14569.83
702.32	14899.85
702.46	14768.78
702.59	14504.30
702.72	14569.83
702.85	14759.42
702.99	14626.01
703.12	14518.34
703.25	14537.07
703.38	14368.55
703.51	14059.60
703.65	14284.29
703.78	14230.46
703.91	14274.93
704.04	14080.66
704.17	13940.23
704.31	14017.47
704.44	13659.37
704.57	13631.28
704.70	13610.22
704.83	13624.26
704.96	13343.39
705.10	13781.07
705.23	13612.56
>>>>>End Processed Spectral Data<<<<<
