SpectraSuite Data File
++++++++++++++++++++++++++++++++++++
Date: Fri Oct 25 11:33:26 EDT 2013
User: price-jones
Dark Spectrum Present: No
Reference Spectrum Present: No
Number of Sampled Component Spectra: 1
Spectrometers: USB2+H05261
Integration Time (usec): 100000 (USB2+H05261)
Spectra Averaged: 1 (USB2+H05261)
Boxcar Smoothing: 0 (USB2+H05261)
Correct for Electrical Dark: No (USB2+H05261)
Strobe/Lamp Enabled: No (USB2+H05261)
Correct for Detector Non-linearity: No (USB2+H05261)
Correct for Stray Light: No (USB2+H05261)
Number of Pixels in Processed Spectrum: 2048
>>>>>Begin Processed Spectral Data<<<<<
365.73	250.44
365.92	250.44
366.12	250.44
366.32	220.01
366.52	208.31
366.72	182.56
366.91	217.67
367.11	149.79
367.31	98.30
367.51	215.33
367.70	168.52
367.90	126.39
368.10	198.95
368.30	203.63
368.49	154.48
368.69	140.43
368.89	250.44
369.09	201.29
369.28	180.22
369.48	220.01
369.68	273.84
369.87	236.39
370.07	229.37
370.27	332.36
370.47	311.29
370.66	486.83
370.86	545.34
371.06	557.05
371.25	559.39
371.45	587.47
371.65	573.43
371.84	547.69
372.04	594.50
372.24	620.24
372.44	653.01
372.63	596.84
372.83	585.13
373.03	638.97
373.22	543.00
373.42	636.63
373.62	634.29
373.81	683.44
374.01	683.44
374.21	575.77
374.40	718.54
374.60	704.50
374.79	734.93
374.99	660.03
375.19	655.35
375.38	634.29
375.58	706.84
375.78	599.18
375.97	662.37
376.17	681.10
376.37	617.90
376.56	674.07
376.76	678.76
376.95	711.52
377.15	641.31
377.35	690.46
377.54	617.90
377.74	678.76
377.93	725.57
378.13	575.77
378.33	784.08
378.52	624.92
378.72	671.73
378.91	648.33
379.11	753.65
379.31	692.80
379.50	657.69
379.70	795.78
379.89	748.97
380.09	690.46
380.28	760.67
380.48	758.33
380.68	737.27
380.87	746.63
381.07	777.06
381.26	793.44
381.46	816.85
381.65	802.80
381.85	823.87
382.04	786.42
382.24	720.88
382.43	730.25
382.63	685.78
382.83	739.61
383.02	758.33
383.22	851.96
383.41	800.46
383.61	741.95
383.80	847.27
384.00	767.70
384.19	767.70
384.39	861.32
384.58	774.72
384.78	875.36
384.97	772.38
385.17	882.38
385.36	891.74
385.56	833.23
385.75	802.80
385.95	819.19
386.14	870.68
386.34	856.64
386.53	910.47
386.72	840.25
386.92	908.13
387.11	929.19
387.31	905.79
387.50	889.40
387.70	863.66
387.89	954.94
388.09	922.17
388.28	924.51
388.48	891.74
388.67	926.85
388.86	971.32
389.06	891.74
389.25	940.90
389.45	924.51
389.64	1006.43
389.84	954.94
390.03	950.26
390.22	994.73
390.42	964.30
390.61	880.04
390.81	992.39
391.00	1029.84
391.19	992.39
391.39	1041.54
391.58	1013.45
391.78	1050.90
391.97	976.00
392.16	1015.79
392.36	1163.25
392.55	994.73
392.75	1078.99
392.94	1053.24
393.13	1069.62
393.33	1018.13
393.52	1071.97
393.71	1107.07
393.91	1167.93
394.10	1109.41
394.29	1053.24
394.49	1130.48
394.68	1172.61
394.88	1160.91
395.07	1125.80
395.26	1064.94
395.46	1029.84
395.65	1170.27
395.84	1170.27
396.04	1170.27
396.23	1242.82
396.42	1188.99
396.62	1198.35
396.81	1144.52
397.00	1212.40
397.19	1224.10
397.39	1242.82
397.58	1270.91
397.77	1240.48
397.97	1231.12
398.16	1308.36
398.35	1357.51
398.55	1299.00
398.74	1270.91
398.93	1345.81
399.12	1322.40
399.32	1310.70
399.51	1287.29
399.70	1355.17
399.90	1343.47
400.09	1413.68
400.28	1383.26
400.47	1252.19
400.67	1401.98
400.86	1423.05
401.05	1357.51
401.24	1441.77
401.44	1383.26
401.63	1476.88
401.82	1514.33
402.01	1486.24
402.21	1547.09
402.40	1542.41
402.59	1465.18
402.78	1474.54
402.97	1547.09
403.17	1493.26
403.36	1528.37
403.55	1493.26
403.74	1603.27
403.93	1614.97
404.13	1589.22
404.32	1710.93
404.51	1652.42
404.70	1589.22
404.89	1603.27
405.09	1715.61
405.28	1640.72
405.47	1685.19
405.66	1652.42
405.85	1696.89
406.05	1636.03
406.24	1720.29
406.43	1825.62
406.62	1666.46
406.81	1853.70
407.00	1834.98
407.20	1722.63
407.39	1832.64
407.58	1881.79
407.77	1832.64
407.96	1799.87
408.15	1774.13
408.34	1884.13
408.54	1975.41
408.73	1895.83
408.92	1865.41
409.11	1949.67
409.30	1923.92
409.49	2015.20
409.68	2052.65
409.87	2062.01
410.07	1966.05
410.26	2092.44
410.45	2001.16
410.64	2050.31
410.83	2129.89
411.02	2064.35
411.21	2120.53
411.40	2122.87
411.59	2242.23
411.78	2167.34
411.98	2197.76
412.17	2291.38
412.36	2377.98
412.55	2218.83
412.74	2317.13
412.93	2293.72
413.12	2310.11
413.31	2389.69
413.50	2417.77
413.69	2431.82
413.88	2478.63
414.07	2511.39
414.26	2506.71
414.45	2466.92
414.64	2415.43
414.83	2532.46
415.02	2569.91
415.22	2654.17
415.41	2675.23
415.60	2616.72
415.79	2614.38
415.98	2600.34
416.17	2778.22
416.36	2710.34
416.55	2808.64
416.74	2775.88
416.93	2902.26
417.12	2913.97
417.31	2808.64
417.50	2895.24
417.69	3091.85
417.88	2981.84
418.07	2930.35
418.26	2892.90
418.45	2953.76
418.64	3141.00
418.83	3070.78
419.02	3016.95
419.21	3159.72
419.39	2995.89
419.58	3112.91
419.77	3007.59
419.96	3293.13
420.15	3342.28
420.34	3084.83
420.53	3222.92
420.72	3258.03
420.91	3346.97
421.10	3225.26
421.29	3304.84
421.48	3131.64
421.67	3286.11
421.86	3279.09
422.05	3344.63
422.24	3288.45
422.43	3346.97
422.61	3412.50
422.80	3379.73
422.99	3482.72
423.18	3358.67
423.37	3428.88
423.56	3361.01
423.75	3407.82
423.94	3272.07
424.13	3258.03
424.32	3258.03
424.50	3447.61
424.69	3606.77
424.88	3585.70
425.07	3456.97
425.26	3485.06
425.45	3597.40
425.64	3471.01
425.83	3552.93
426.01	3501.44
426.20	3424.20
426.39	3564.64
426.58	3431.23
426.77	3421.86
426.96	3623.15
427.15	3529.53
427.33	3574.00
427.52	3435.91
427.71	3637.19
427.90	3618.47
428.09	3770.60
428.28	3770.60
428.46	3695.71
428.65	3646.55
428.84	3655.92
429.03	3791.67
429.22	3709.75
429.40	3620.81
429.59	3712.09
429.78	3604.42
429.97	3536.55
430.16	3864.22
430.34	3737.84
430.53	4021.04
430.72	3852.52
430.91	3798.69
431.10	3850.18
431.28	3974.23
431.47	4021.04
431.66	3946.14
431.85	4107.64
432.03	4114.66
432.22	4184.88
432.41	4135.73
432.60	4074.87
432.79	4217.65
432.97	4196.58
433.16	4166.15
433.35	4053.81
433.54	4112.32
433.72	4067.85
433.91	4088.92
434.10	4142.75
434.28	4212.96
434.47	4170.83
434.66	4376.80
434.85	4294.88
435.03	4400.21
435.22	4322.97
435.41	4564.04
435.59	4407.23
435.78	4390.84
435.97	4496.17
436.16	4442.34
436.34	4442.34
436.53	4472.76
436.72	4554.68
436.90	4510.21
437.09	4643.62
437.28	4507.87
437.46	4624.90
437.65	4580.43
437.84	4615.54
438.02	4620.22
438.21	4526.60
438.40	4554.68
438.58	4861.29
438.77	4678.73
438.96	4734.90
439.14	4961.94
439.33	4985.34
439.52	4809.80
439.70	4889.38
439.89	5006.41
440.08	5008.75
440.26	5074.28
440.45	5050.88
440.63	5125.77
440.82	5144.50
441.01	5104.71
441.19	5039.17
441.38	5149.18
441.57	5163.22
441.75	5322.38
441.94	5387.91
442.12	5472.17
442.31	5542.39
442.50	5502.60
442.68	5392.59
442.87	5549.41
443.05	5530.69
443.24	5481.53
443.43	5523.66
443.61	5537.71
443.80	5736.65
443.98	5350.46
444.17	5451.11
444.35	5598.56
444.54	5703.89
444.73	5680.48
444.91	5694.52
445.10	5493.24
445.28	5710.91
445.47	5778.78
445.65	5561.11
445.84	5664.10
446.02	5877.09
446.21	5675.80
446.39	5753.04
446.58	5724.95
446.77	5750.70
446.95	5619.63
447.14	5652.39
447.32	5769.42
447.51	5764.74
447.69	5881.77
447.88	5790.49
448.06	5811.55
448.25	6010.50
448.43	5823.25
448.62	5818.57
448.80	5977.73
448.99	5923.90
449.17	5841.98
449.36	5926.24
449.54	6073.69
449.73	5902.83
449.91	6071.35
450.10	6069.01
450.28	6251.57
450.46	6179.01
450.65	6136.88
450.83	6282.00
451.02	6054.97
451.20	6277.32
451.39	6272.64
451.57	6263.27
451.76	5980.07
451.94	6246.89
452.13	6384.98
452.31	6274.98
452.49	6253.91
452.68	6310.08
452.86	6370.94
453.05	6443.49
453.23	6317.11
453.42	6363.92
453.60	6258.59
453.78	6532.44
453.97	6338.17
454.15	6441.15
454.34	6335.83
454.52	6525.41
454.70	6546.48
454.89	6684.57
455.07	6473.92
455.26	6679.89
455.44	6834.36
455.62	6675.21
455.81	6710.32
455.99	6782.87
456.17	6733.72
456.36	6633.08
456.54	6909.26
456.73	6939.69
456.91	7014.59
457.09	6977.14
457.28	7297.79
457.46	6876.49
457.64	7096.50
457.83	6885.86
458.01	6799.26
458.19	7162.04
458.38	7201.83
458.56	7353.96
458.74	7386.73
458.93	7311.83
459.11	7096.50
459.29	7227.57
459.48	7241.62
459.66	7426.52
459.84	7405.46
460.03	7412.48
460.21	7602.06
460.39	7442.90
460.57	7475.67
460.76	7445.24
460.94	7492.05
461.12	7470.99
461.31	7559.93
461.49	7517.80
461.67	7396.09
461.85	7702.70
462.04	7527.16
462.22	8018.68
462.40	7693.34
462.59	7871.22
462.77	7857.18
462.95	7791.64
463.13	7751.85
463.32	7894.63
463.50	7981.23
463.68	7836.11
463.86	7983.57
464.05	7815.05
464.23	7740.15
464.41	7990.59
464.59	7805.69
464.78	8196.56
464.96	8145.06
465.14	8002.29
465.32	7878.24
465.50	8011.65
465.69	8131.02
465.87	8149.75
466.05	8269.11
466.23	8294.86
466.41	8107.62
466.60	8138.04
466.78	8175.49
466.96	8124.00
467.14	8250.39
467.32	8400.18
467.51	8463.38
467.69	8128.68
467.87	8184.85
468.05	8365.07
468.23	8156.77
468.41	8315.92
468.60	8519.55
468.78	8430.61
468.96	8526.57
469.14	8652.96
469.32	8496.14
469.50	8416.57
469.69	8723.18
469.87	8622.53
470.05	8781.69
470.23	8748.92
470.41	8730.20
470.59	8805.10
470.77	8823.82
470.95	8936.17
471.14	8816.80
471.32	8889.35
471.50	8777.01
471.68	9029.79
471.86	9317.67
472.04	9039.15
472.22	9479.17
472.40	9249.80
472.58	9352.78
472.77	9348.10
472.95	9518.96
473.13	9708.54
473.31	9432.36
473.49	9598.54
473.67	9537.68
473.85	9547.05
474.03	9696.84
474.21	9872.38
474.39	9795.14
474.57	9900.47
474.75	9977.70
474.93	9919.19
475.12	10047.92
475.30	10153.24
475.48	9963.66
475.66	10120.48
475.84	10108.77
476.02	10200.05
476.20	10214.10
476.38	10604.97
476.56	10548.79
476.74	10644.76
476.92	10630.71
477.10	10691.57
477.28	10583.90
477.46	10925.62
477.64	10876.47
477.82	11063.71
478.00	11178.40
478.18	11286.06
478.36	11059.03
478.54	11386.71
478.72	11595.01
478.90	11456.92
479.08	11630.12
479.26	11683.95
479.44	11686.29
479.62	11756.51
479.80	11735.45
479.98	12006.95
480.16	12243.34
480.34	12135.68
480.52	12325.26
480.70	12212.92
480.88	12072.48
481.06	12519.53
481.24	12383.77
481.41	12472.71
481.59	12758.26
481.77	13046.15
481.95	13057.85
482.13	13083.59
482.31	12898.69
482.49	13266.16
482.67	13273.18
482.85	13437.02
483.03	13834.91
483.21	13767.03
483.39	13823.20
483.57	13584.47
483.74	14068.96
483.92	14083.00
484.10	13947.25
484.28	14193.01
484.46	14450.47
484.64	14740.69
484.82	14501.96
485.00	14843.68
485.18	14853.04
485.35	15351.57
485.53	15096.46
485.71	15208.80
485.89	15428.81
486.07	15709.68
486.25	15269.66
486.43	15594.99
486.61	15871.17
486.78	15695.63
486.96	15880.53
487.14	16140.33
487.32	16262.04
487.50	16320.56
487.68	16046.71
487.85	16762.92
488.03	16964.20
488.21	17050.80
488.39	17092.93
488.57	17202.94
488.75	17329.33
488.92	17544.66
489.10	17664.02
489.28	17795.09
489.46	17855.95
489.64	18026.81
489.81	17914.46
489.99	18221.07
490.17	18310.01
490.35	18593.22
490.53	18616.62
490.70	18988.77
490.88	18829.61
491.06	18932.59
491.24	19183.03
491.41	19176.01
491.59	19288.35
491.77	19384.32
491.95	19351.55
492.13	19637.09
492.30	19489.64
492.48	19749.44
492.66	19777.53
492.84	19822.00
493.01	20301.81
493.19	20379.04
493.37	20402.45
493.54	20514.80
493.72	20737.15
493.90	20870.56
494.08	21069.50
494.25	21135.04
494.43	21144.40
494.61	21130.36
494.79	21474.42
494.96	21273.13
495.14	21502.50
495.32	22115.72
495.49	21788.05
495.67	21741.24
495.85	22024.44
496.02	22352.12
496.20	22717.24
496.38	22291.26
496.55	22157.85
496.73	23187.69
496.91	22553.40
497.09	23257.90
497.26	22792.14
497.44	23014.49
497.62	23342.16
497.79	23695.58
497.97	23506.00
498.14	24252.63
498.32	23990.49
498.50	23821.97
498.67	23917.93
498.85	24002.19
499.03	24224.54
499.20	24067.73
499.38	24271.36
499.56	24306.46
499.73	24549.88
499.91	24666.91
500.08	24992.24
500.26	24716.06
500.44	24762.87
500.61	24968.84
500.79	24779.25
500.97	24945.43
501.14	25408.86
501.32	25565.67
501.49	25654.61
501.67	25481.41
501.84	25734.19
502.02	25577.37
502.20	25773.98
502.37	25802.07
502.55	25640.57
502.72	25914.41
502.90	25844.20
503.07	26164.85
503.25	26199.96
503.43	26307.62
503.60	26483.16
503.78	26630.62
503.95	26352.09
504.13	26724.24
504.30	26850.63
504.48	26899.78
504.65	27129.15
504.83	27084.68
505.01	26977.01
505.18	27145.53
505.36	27435.76
505.53	27445.12
505.71	27716.62
505.88	27459.16
506.06	27405.33
506.23	27606.62
506.41	27735.35
506.58	28102.81
506.76	27974.08
506.93	27866.42
507.11	28053.66
507.28	28023.23
507.46	28437.51
507.63	28182.39
507.81	28521.77
507.98	28313.46
508.16	28510.07
508.33	28709.01
508.50	28900.94
508.68	28912.64
508.85	29081.16
509.03	28634.11
509.20	29387.77
509.38	29649.91
509.55	29993.97
509.73	29881.62
509.90	29696.72
510.08	29408.83
510.25	29455.64
510.42	29685.01
510.60	29963.54
510.77	29977.58
510.95	30005.67
511.12	29802.04
511.30	30272.49
511.47	30174.19
511.64	30178.87
511.82	30703.15
511.99	30375.47
512.17	30511.22
512.34	30588.46
512.51	30951.24
512.69	31274.24
512.86	31056.57
513.04	31079.97
513.21	31103.38
513.38	31189.98
513.56	31309.35
513.73	31070.61
513.90	31498.93
514.08	31325.73
514.25	31519.99
514.43	31948.31
514.60	31761.07
514.77	31562.12
514.95	31960.02
515.12	31779.79
515.29	31952.99
515.47	32142.58
515.64	32149.60
515.81	31873.42
515.99	32362.59
516.16	32758.14
516.33	32456.21
516.51	32615.37
516.68	32584.94
516.85	32755.80
517.03	32875.16
517.20	32804.95
517.37	32699.62
517.54	32725.37
517.72	32982.83
517.89	33322.21
518.06	33390.08
518.24	33085.81
518.41	33242.63
518.58	33408.81
518.75	33034.32
518.93	33235.61
519.10	33717.76
519.27	33652.22
519.45	33521.15
519.62	34232.68
519.79	33649.88
519.96	34031.39
520.14	34534.60
520.31	33677.97
520.48	33780.95
520.65	34342.68
520.83	34249.06
521.00	34284.17
521.17	34658.65
521.34	34338.00
521.52	34806.11
521.69	34719.51
521.86	35129.10
522.03	34345.02
522.20	34810.79
522.38	35150.17
522.55	35583.16
522.72	35063.57
522.89	35290.60
523.07	35412.31
523.24	35534.01
523.41	35454.44
523.58	34974.63
523.75	35744.66
523.92	35634.66
524.10	35302.30
524.27	35931.90
524.44	35922.54
524.61	36006.80
524.78	35927.22
524.96	36505.34
525.13	36020.84
525.30	36156.60
525.47	36500.65
525.64	36430.44
525.81	36278.30
525.98	35950.63
526.16	36360.22
526.33	36093.40
526.50	36940.68
526.67	36781.52
526.84	36613.00
527.01	36825.99
527.18	36737.05
527.36	37254.31
527.53	36842.37
527.70	37237.92
527.87	37317.50
528.04	37041.32
528.21	37254.31
528.38	37460.27
528.55	37464.96
528.72	37287.07
528.89	37600.71
529.07	37008.55
529.24	37193.45
529.41	37530.49
529.58	37691.99
529.75	37720.07
529.92	37500.06
530.09	37787.95
530.26	37769.22
530.43	37895.61
530.60	37565.60
530.77	38029.02
530.94	38305.21
531.11	38466.70
531.28	38031.36
531.46	38330.95
531.63	38412.87
531.80	38174.14
531.97	38590.75
532.14	38466.70
532.31	38380.10
532.48	38660.97
532.65	38747.57
532.82	38644.59
532.99	38775.66
533.16	38349.68
533.33	39115.03
533.50	39044.82
533.67	38871.62
533.84	38483.09
534.01	38749.91
534.18	39040.14
534.35	39232.06
534.52	39185.25
534.69	39651.02
534.86	39475.48
535.03	39323.34
535.20	39576.12
535.37	39484.84
535.54	39697.83
535.71	39639.31
535.88	39590.16
536.05	39924.86
536.22	39878.05
536.38	39730.59
536.55	40084.01
536.72	39732.93
536.89	40156.57
537.06	40137.85
537.23	40072.31
537.40	40002.10
537.57	39793.79
537.74	40032.52
537.91	40306.37
538.08	40203.38
538.25	40409.35
538.42	40339.13
538.59	40315.73
538.75	40292.32
538.92	40566.16
539.09	40526.38
539.26	40914.90
539.43	40507.65
539.60	40734.68
539.77	40664.47
539.94	40940.65
540.11	41235.56
540.28	41048.32
540.44	40914.90
540.61	41251.94
540.78	40769.79
540.95	40896.18
541.12	41099.81
541.29	41041.29
541.46	41081.08
541.62	41387.69
541.79	41462.59
541.96	41078.74
542.13	41043.63
542.30	41104.49
542.47	41422.80
542.63	41146.62
542.80	41553.87
542.97	42071.13
543.14	42188.16
543.31	42019.64
543.48	41888.57
543.64	42333.27
543.81	41984.53
543.98	42218.58
544.15	42188.16
544.32	42160.07
544.48	42714.78
544.65	42539.24
544.82	42251.35
544.99	42412.85
545.16	42391.78
545.32	42375.40
545.49	43168.84
545.66	42749.88
545.83	42880.95
546.00	42880.95
546.16	43051.81
546.33	42405.83
546.50	42766.27
546.67	42960.53
546.83	42157.73
547.00	42637.54
547.17	42822.44
547.34	42628.18
547.50	43117.35
547.67	43358.42
547.84	43210.97
548.00	43225.01
548.17	43372.47
548.34	43419.28
548.51	43590.14
548.67	43604.18
548.84	43711.84
549.01	43171.18
549.18	43803.13
549.34	43475.45
549.51	43997.39
549.68	43737.59
549.84	44032.50
550.01	43997.39
550.18	43721.21
550.34	43594.82
550.51	43583.12
550.68	44046.54
550.84	43374.81
551.01	44009.09
551.18	43384.17
551.34	44196.34
551.51	44060.58
551.68	43700.14
551.84	44058.24
552.01	43927.17
552.18	44219.74
552.34	43824.19
552.51	44561.46
552.68	44163.57
552.84	44519.33
553.01	43964.62
553.18	44210.38
553.34	44533.37
553.51	44322.72
553.67	44521.67
553.84	44449.11
554.01	44758.06
554.17	44502.95
554.34	44570.82
554.51	44631.68
554.67	44753.38
554.84	44779.13
555.00	44828.28
555.17	44395.28
555.33	44814.24
555.50	44945.31
555.67	45350.22
555.83	44680.83
556.00	45448.52
556.16	45661.51
556.33	45139.57
556.50	45081.06
556.66	45055.31
556.83	44584.86
556.99	45146.59
557.16	44957.01
557.32	45216.81
557.49	45656.83
557.65	44959.35
557.82	45069.36
557.98	45144.25
558.15	45172.34
558.32	45478.95
558.48	44954.67
558.65	45008.50
558.81	45340.86
558.98	44982.76
559.14	44949.99
559.31	45563.21
559.47	45535.12
559.64	45170.00
559.80	45469.59
559.97	45773.86
560.13	45284.68
560.30	45708.32
560.46	46110.89
560.63	45801.94
560.79	46005.57
560.96	45949.40
561.12	45935.35
561.29	46248.99
561.45	46127.28
561.61	45993.87
561.78	46038.34
561.94	45680.24
562.11	46099.19
562.27	45979.82
562.44	45874.50
562.60	45736.41
562.77	46099.19
562.93	45558.53
563.10	46553.26
563.26	45586.61
563.42	46815.40
563.59	45841.73
563.75	46258.35
563.92	46014.93
564.08	46106.21
564.24	46815.40
564.41	46628.15
564.57	46239.62
564.74	46206.86
564.90	46155.36
565.07	46822.42
565.23	45834.71
565.39	46202.18
565.56	46555.60
565.72	45890.88
565.88	46728.80
566.05	46232.60
566.21	46457.29
566.38	46092.17
566.54	46567.30
566.70	46511.13
566.87	46579.00
567.03	46223.24
567.19	46763.90
567.36	46328.56
567.52	46387.08
567.68	46958.17
567.85	46672.62
568.01	46501.76
568.17	46637.51
568.34	46918.38
568.50	46735.82
568.66	46555.60
568.83	46583.68
568.99	47021.36
569.15	46525.17
569.32	46387.08
569.48	46293.46
569.64	46567.30
569.81	46969.87
569.97	47002.64
570.13	46988.60
570.30	46256.01
570.46	46960.51
570.62	47283.50
570.78	46635.17
570.95	47112.64
571.11	47353.72
571.27	46738.16
571.43	46974.55
571.60	46665.60
571.76	46555.60
571.92	46775.61
572.09	46483.04
572.25	46536.87
572.41	46766.24
572.57	47210.95
572.74	47224.99
572.90	47276.48
573.06	47150.09
573.22	47119.66
573.38	47222.65
573.55	47147.75
573.71	47271.80
573.87	47098.60
574.03	47070.51
574.20	47248.39
574.36	46974.55
574.52	47489.47
574.68	47035.41
574.84	47384.15
575.01	47487.13
575.17	47243.71
575.33	46986.25
575.49	47206.26
575.65	47210.95
575.82	47494.15
575.98	47056.47
576.14	47271.80
576.30	47435.64
576.46	46862.21
576.62	47014.34
576.79	47110.30
576.95	46873.91
577.11	47042.43
577.27	47063.49
577.43	47152.43
577.59	47679.05
577.75	47547.98
577.92	47122.01
578.08	47423.93
578.24	47421.59
578.40	47370.10
578.56	47526.92
578.72	47243.71
578.88	47735.23
579.04	47283.50
579.21	47463.72
579.37	47295.21
579.53	47545.64
579.69	47297.55
579.85	47281.16
580.01	46937.10
580.17	47627.56
580.33	47587.77
580.49	47454.36
580.65	47239.03
580.82	47487.13
580.98	47405.21
581.14	47040.09
581.30	47309.25
581.46	47826.51
581.62	47416.91
581.78	47423.93
581.94	47606.50
582.10	47269.46
582.26	47725.86
582.42	47433.30
582.58	47758.63
582.74	47571.39
582.90	47587.77
583.06	47299.89
583.22	47634.58
583.38	47569.05
583.54	47817.14
583.70	47657.99
583.86	47576.07
584.02	47491.81
584.18	47856.93
584.34	47578.41
584.50	47669.69
584.66	47313.93
584.82	47793.74
584.98	47540.96
585.14	47838.21
585.30	47119.66
585.46	47454.36
585.62	47503.51
585.78	47447.34
585.94	47459.04
586.10	47608.84
586.26	47697.78
586.42	47791.40
586.58	47604.16
586.74	47405.21
586.90	47536.28
587.06	47339.68
587.22	47931.83
587.38	47491.81
587.54	47672.03
587.70	47866.30
587.86	47746.93
588.02	47606.50
588.18	48058.22
588.34	47550.32
588.49	47463.72
588.65	47409.89
588.81	48002.05
588.97	47714.16
589.13	47669.69
589.29	47978.64
589.45	48268.87
589.61	47721.18
589.77	47964.60
589.93	48081.63
590.08	47889.70
590.24	48037.16
590.40	48205.67
590.56	47983.32
590.72	47913.11
590.88	47683.73
591.04	47571.39
591.20	47920.13
591.35	48385.89
591.51	48299.30
591.67	48271.21
591.83	48378.87
591.99	48095.67
592.15	48023.11
592.31	48105.03
592.46	48083.97
592.62	48011.41
592.78	48023.11
592.94	48706.55
593.10	48399.94
593.26	48505.26
593.41	48589.52
593.57	47948.21
593.73	47934.17
593.89	48512.28
594.05	48032.47
594.20	48053.54
594.36	48715.91
594.52	48411.64
594.68	48584.84
594.84	48376.53
594.99	48657.40
595.15	48147.16
595.31	48516.96
595.47	48313.34
595.62	48163.54
595.78	48090.99
595.94	48135.46
596.10	48126.10
596.25	48601.22
596.41	48385.89
596.57	48130.78
596.73	48332.06
596.88	48619.95
597.04	48023.11
597.20	48442.07
597.36	48025.45
597.51	48421.00
597.67	48212.70
597.83	48011.41
597.99	48392.92
598.14	48320.36
598.30	48289.93
598.46	48346.11
598.61	48722.93
598.77	48215.04
598.93	48690.16
599.09	48083.97
599.24	48641.01
599.40	48266.53
599.56	48315.68
599.71	48825.92
599.87	48968.69
600.03	48814.21
600.18	48404.62
600.34	48495.90
600.50	48336.74
600.65	48315.68
600.81	48980.39
600.97	48250.14
601.12	48514.62
601.28	48098.01
601.44	48552.07
601.59	48596.54
601.75	48451.43
601.91	48442.07
602.06	48573.14
602.22	48683.14
602.37	48184.61
602.53	48437.39
602.69	48566.12
602.84	48355.47
603.00	48355.47
603.16	48603.56
603.31	48666.76
603.47	48568.46
603.62	48423.34
603.78	48886.77
603.94	48533.35
604.09	48463.13
604.25	48252.48
604.40	48147.16
604.56	48303.98
604.71	48884.43
604.87	48584.84
605.03	48133.12
605.18	48381.21
605.34	48549.73
605.49	47657.99
605.65	48751.02
605.80	48444.41
605.96	48306.32
606.12	48343.77
606.27	48720.59
606.43	48112.05
606.58	48762.72
606.74	48200.99
606.89	48238.44
607.05	48687.82
607.20	48519.31
607.36	48355.47
607.51	48231.42
607.67	48009.07
607.82	48044.18
607.98	48250.14
608.13	48161.20
608.29	48311.00
608.44	48566.12
608.60	48303.98
608.75	48685.48
608.91	48062.90
609.06	47859.27
609.22	48353.13
609.37	48442.07
609.53	48491.22
609.68	48325.04
609.84	48182.27
609.99	48095.67
610.15	48208.01
610.30	48343.77
610.46	48154.18
610.61	48493.56
610.76	48196.31
610.92	47936.51
611.07	48128.44
611.23	47746.93
611.38	47941.19
611.54	48343.77
611.69	48404.62
611.84	48210.35
612.00	47847.57
612.15	47950.56
612.31	48156.52
612.46	47775.02
612.62	47828.85
612.77	48011.41
612.92	48095.67
613.08	48016.09
613.23	48030.13
613.39	48325.04
613.54	47955.24
613.69	48002.05
613.85	47676.71
614.00	48053.54
614.15	48451.43
614.31	47597.13
614.46	48046.52
614.62	47594.79
614.77	47868.64
614.92	47700.12
615.08	47538.62
615.23	47650.97
615.38	47573.73
615.54	47803.10
615.69	47929.49
615.84	47550.32
616.00	48100.35
616.15	47859.27
616.30	48130.78
616.46	47122.01
616.61	47487.13
616.76	47608.84
616.92	47620.54
617.07	47718.84
617.22	47459.04
617.37	46937.10
617.53	47814.80
617.68	47529.26
617.83	47576.07
617.99	47611.18
618.14	47533.94
618.29	47667.35
618.45	47004.98
618.60	46990.94
618.75	46703.05
618.90	46960.51
619.06	47395.85
619.21	47393.51
619.36	47639.26
619.51	47152.43
619.67	46803.69
619.82	47138.39
619.97	47491.81
620.12	47274.14
620.28	47229.67
620.43	47711.82
620.58	47210.95
620.73	47147.75
620.89	47166.48
621.04	47627.56
621.19	47154.77
621.34	47114.98
621.49	46836.46
621.65	47047.11
621.80	47367.76
621.95	47028.38
622.10	47189.88
622.25	46775.61
622.41	46717.09
622.56	46782.63
622.71	46696.03
622.86	46838.80
623.01	46653.90
623.16	46700.71
623.32	46902.00
623.47	46356.65
623.62	46550.91
623.77	46576.66
623.92	46990.94
624.07	47185.20
624.23	46784.97
624.38	46658.58
624.53	46625.81
624.68	46197.49
624.83	46791.99
624.98	46534.53
625.13	45914.29
625.29	46024.29
625.44	46698.37
625.59	46380.06
625.74	46398.78
625.89	46394.10
626.04	46447.93
626.19	45998.55
626.34	45982.16
626.49	46202.18
626.65	46298.14
626.80	46485.38
626.95	45855.78
627.10	45661.51
627.25	45881.52
627.40	46499.42
627.55	45984.51
627.70	46155.36
627.85	46220.90
628.00	46761.56
628.15	46382.40
628.30	45572.57
628.45	45570.23
628.60	45586.61
628.76	46033.66
628.91	45729.39
629.06	45006.16
629.21	45462.57
629.36	45607.68
629.51	46014.93
629.66	46026.63
629.81	45801.94
629.96	45869.82
630.11	45350.22
630.26	45287.03
630.41	45621.72
630.56	45291.71
630.71	46036.00
630.86	45375.97
631.01	45130.21
631.16	45593.64
631.31	45471.93
631.46	45352.56
631.61	45427.46
631.76	45869.82
631.91	45595.98
632.06	46265.37
632.21	45647.47
632.36	46064.08
632.51	44825.94
632.66	45565.55
632.81	45303.41
632.96	45509.38
633.10	44868.07
633.25	45322.13
633.40	45144.25
633.55	45776.20
633.70	45144.25
633.85	45017.86
634.00	45074.04
634.15	45031.91
634.30	44964.03
634.45	44788.49
634.60	45127.87
634.75	45202.77
634.90	45268.30
635.05	45132.55
635.19	45031.91
635.34	44877.43
635.49	44804.88
635.64	45081.06
635.79	45357.24
635.94	44957.01
636.09	45071.70
636.24	44683.17
636.39	44931.26
636.53	45228.51
636.68	44505.29
636.83	44378.90
636.98	44818.92
637.13	44322.72
637.28	44329.75
637.43	44486.56
637.57	44219.74
637.72	44315.70
637.87	44474.86
638.02	44641.04
638.17	44561.46
638.32	44182.29
638.46	44465.50
638.61	44245.49
638.76	44481.88
638.91	43983.35
639.06	44163.57
639.20	43920.15
639.35	43983.35
639.50	43955.26
639.65	43976.33
639.80	44563.80
639.94	44301.66
640.09	44175.27
640.24	44177.61
640.39	43695.46
640.54	43845.26
640.68	43948.24
640.83	44149.53
640.98	43702.48
641.13	43798.44
641.27	44456.14
641.42	43793.76
641.57	43566.73
641.72	43784.40
641.86	43655.67
642.01	43608.86
642.16	43620.56
642.31	43159.48
642.45	43777.38
642.60	43217.99
642.75	43753.97
642.90	43629.93
643.04	43934.20
643.19	43578.43
643.34	43297.57
643.48	42810.74
643.63	43716.53
643.78	43526.94
643.93	43714.19
644.07	43613.54
644.22	43824.19
644.37	43538.65
644.51	43318.64
644.66	43728.23
644.81	43358.42
644.95	43426.30
645.10	43243.74
645.25	42974.58
645.39	42813.08
645.54	43386.51
645.69	42621.16
645.83	43189.91
645.98	42841.17
646.13	42988.62
646.27	42726.48
646.42	43232.04
646.57	42782.65
646.71	43098.62
646.86	42927.77
647.00	43501.20
647.15	43075.22
647.30	42866.91
647.44	43260.12
647.59	42717.12
647.74	42887.98
647.88	42726.48
648.03	43161.82
648.17	43370.13
648.32	42682.01
648.47	43384.17
648.61	42579.03
648.76	42705.41
648.90	42691.37
649.05	42677.33
649.20	42712.44
649.34	42581.37
649.49	42768.61
649.63	43061.18
649.78	42471.36
649.92	42501.79
650.07	42993.30
650.21	42424.55
650.36	43159.48
650.51	42249.01
650.65	42686.69
650.80	42796.70
650.94	42504.13
651.09	42326.25
651.23	42000.91
651.38	42139.00
651.52	41722.39
651.67	42330.93
651.81	42260.71
651.96	41982.19
652.10	41750.48
652.25	41249.60
652.39	42160.07
652.54	42284.12
652.68	41975.17
652.83	42195.18
652.97	42464.34
653.12	41780.90
653.26	41792.61
653.41	42075.81
653.55	42031.34
653.70	42176.45
653.84	42234.97
653.99	42389.44
654.13	41937.72
654.27	41979.85
654.42	42073.47
654.56	41666.22
654.71	42066.45
654.85	42021.98
655.00	42108.58
655.14	42216.24
655.29	41801.97
655.43	41811.33
655.57	41598.34
655.72	41106.83
655.86	41233.22
656.01	41134.92
656.15	41551.53
656.30	41567.91
656.44	41647.49
656.58	41680.26
656.73	41312.80
656.87	40975.76
657.01	41067.04
657.16	41392.37
657.30	41443.87
657.45	41448.55
657.59	40634.04
657.73	40739.36
657.88	40954.69
658.02	41406.42
658.16	41102.15
658.31	41233.22
658.45	40950.01
658.60	40959.38
658.74	41029.59
658.88	40730.00
659.03	40893.84
659.17	40591.91
659.31	40910.22
659.46	40491.27
659.60	40463.18
659.74	40243.17
659.89	40584.89
660.03	40210.40
660.17	40631.70
660.32	40687.87
660.46	40451.48
660.60	39969.33
660.74	40306.37
660.89	40184.66
661.03	39976.35
661.17	39957.63
661.32	39562.08
661.46	39728.25
661.60	39725.91
661.74	39683.78
661.89	39215.68
662.03	40133.17
662.17	39831.24
662.31	39704.85
662.46	40053.59
662.60	39866.34
662.74	39178.23
662.88	39161.84
663.03	38993.32
663.17	39386.54
663.31	39196.95
663.45	39023.75
663.60	39548.03
663.74	38794.38
663.88	39264.83
664.02	39098.65
664.17	39098.65
664.31	38834.17
664.45	38803.74
664.59	38483.09
664.73	38529.90
664.88	38974.60
665.02	38885.66
665.16	38387.13
665.30	38663.31
665.44	38663.31
665.59	38457.34
665.73	38337.98
665.87	38071.15
666.01	38036.05
666.15	37998.60
666.29	38274.78
666.44	38300.53
666.58	38195.20
666.72	38225.63
666.86	38073.49
667.00	37816.04
667.14	38057.11
667.28	37797.31
667.43	37584.32
667.57	38082.86
667.71	37624.11
667.85	37876.89
667.99	37642.84
668.13	37537.51
668.27	36957.06
668.41	36992.17
668.56	36776.84
668.70	37017.91
668.84	36973.44
668.98	37074.09
669.12	36711.30
669.26	37038.98
669.40	37024.93
669.54	36744.07
669.68	36638.75
669.82	36744.07
669.96	36683.22
670.10	36364.90
670.25	36505.34
670.39	36301.71
670.53	36243.20
670.67	36428.10
670.81	36465.55
670.95	36318.09
671.09	36088.72
671.23	35988.08
671.37	36610.66
671.51	35824.24
671.65	35962.33
671.79	35821.90
671.93	35880.41
672.07	35796.15
672.21	35756.36
672.35	35981.06
672.49	35775.09
672.63	35559.76
672.77	35117.40
672.91	35328.05
673.05	35196.98
673.19	34953.56
673.33	35218.04
673.47	35030.80
673.61	34506.52
673.75	34932.50
673.89	34368.43
674.03	34478.43
674.17	33979.90
674.31	34426.94
674.45	34312.25
674.59	33923.72
674.73	34359.06
674.87	34043.09
675.01	34125.01
675.15	33677.97
675.29	33579.67
675.43	33656.90
675.56	33965.85
675.70	33579.67
675.84	33663.93
675.98	32673.88
676.12	33612.43
676.26	33706.05
676.40	33071.77
676.54	33233.27
676.68	33048.36
676.82	32554.51
676.96	32929.00
677.10	32982.83
677.23	32708.99
677.37	32416.42
677.51	32250.24
677.65	32439.82
677.79	32144.92
677.93	32264.28
678.07	31735.32
678.21	31775.11
678.34	31711.92
678.48	31580.85
678.62	31892.14
678.76	31489.57
678.90	31299.98
679.04	31370.20
679.18	31386.58
679.31	31122.10
679.45	31002.74
679.59	30972.31
679.73	30869.33
679.87	30742.94
680.00	30593.14
680.14	30391.86
680.28	30717.19
680.42	30239.72
680.56	30267.81
680.70	30249.08
680.83	30106.31
680.97	30356.75
681.11	29933.11
681.25	29680.33
681.39	29495.43
681.52	29596.07
681.66	29406.49
681.80	29303.51
681.94	28933.70
682.07	28943.06
682.21	29156.05
682.35	29008.60
682.49	28666.88
682.62	28903.28
682.76	28917.32
682.90	28744.12
683.04	28657.52
683.17	28636.45
683.31	28173.03
683.45	28217.50
683.59	27850.03
683.72	27775.14
683.86	28081.75
684.00	27833.65
684.13	27681.52
684.27	27318.73
684.41	27417.04
684.55	27686.20
684.68	27489.59
684.82	27316.39
684.96	27250.86
685.09	27058.93
685.23	26934.88
685.37	27250.86
685.50	27358.52
685.64	27143.19
685.78	26431.67
685.91	26408.26
686.05	26057.18
686.19	25570.35
686.32	26143.78
686.46	25865.26
686.60	25706.10
686.73	25872.28
686.87	26146.12
687.01	25736.53
687.14	25776.32
687.28	25738.87
687.42	25799.73
687.55	25483.75
687.69	25399.49
687.82	25081.18
687.96	24931.39
688.10	25296.51
688.23	25013.31
688.37	25172.46
688.50	24992.24
688.64	24765.21
688.78	24512.43
688.91	24372.00
689.05	24264.33
689.18	23915.59
689.32	23676.86
689.46	24149.65
689.59	24060.71
689.73	24039.64
689.86	24006.87
690.00	23894.53
690.13	23997.51
690.27	23580.90
690.41	23264.92
690.54	23323.44
690.68	23257.90
690.81	23026.19
690.95	23171.30
691.08	22911.50
691.22	23037.89
691.35	22693.83
691.49	23051.94
691.62	22850.65
691.76	22185.94
691.89	22281.90
692.03	22045.51
692.16	21914.44
692.30	21921.46
692.43	22214.02
692.57	21935.50
692.70	21853.58
692.84	21869.97
692.97	21338.66
693.11	21521.23
693.24	21312.92
693.38	21392.50
693.51	21221.64
693.65	21120.99
693.78	20627.14
693.92	21179.51
694.05	20823.75
694.19	20840.13
694.32	20695.02
694.45	20762.89
694.59	20636.50
694.72	20627.14
694.86	20299.47
694.99	20325.21
695.13	20292.44
695.26	20002.22
695.39	19742.42
695.53	20004.56
695.66	19700.29
695.80	19449.85
695.93	19672.20
696.07	19239.20
696.20	19241.54
696.33	19164.31
696.47	19211.12
696.60	19255.59
696.73	19220.48
696.87	19349.21
697.00	18956.00
697.14	18775.78
697.27	18649.39
697.40	18485.55
697.54	18773.44
697.67	18712.58
697.80	18532.36
697.94	18251.50
698.07	18192.98
698.21	18073.62
698.34	18288.95
698.47	17963.61
698.61	17628.92
698.74	17713.17
698.87	17914.46
699.01	17834.88
699.14	17818.50
699.27	17385.50
699.40	17554.02
699.54	17563.38
699.67	17371.46
699.80	17270.81
699.94	17226.34
700.07	17282.52
700.20	17118.68
700.34	16833.13
700.47	17151.45
700.60	16746.53
700.73	16753.55
700.87	16482.05
701.00	16315.87
701.13	16589.72
701.26	16362.69
701.40	16297.15
701.53	15974.16
701.66	16240.98
701.79	16063.10
701.93	15765.85
702.06	15737.76
702.19	15562.22
702.32	15693.29
702.46	15681.59
702.59	15805.64
702.72	15686.27
702.85	15393.70
702.99	15468.60
703.12	15346.89
703.25	15274.34
703.38	15274.34
703.51	15044.96
703.65	14897.51
703.78	14925.60
703.91	14721.97
704.04	14663.46
704.17	14408.34
704.31	14490.26
704.44	14590.90
704.57	14436.42
704.70	14267.91
704.83	14513.66
704.96	14291.31
705.10	14026.83
705.23	13982.36
>>>>>End Processed Spectral Data<<<<<
