SpectraSuite Data File
++++++++++++++++++++++++++++++++++++
Date: Fri Oct 25 10:48:32 EDT 2013
User: price-jones
Dark Spectrum Present: No
Reference Spectrum Present: No
Number of Sampled Component Spectra: 1
Spectrometers: USB2+H05261
Integration Time (usec): 100000 (USB2+H05261)
Spectra Averaged: 1 (USB2+H05261)
Boxcar Smoothing: 0 (USB2+H05261)
Correct for Electrical Dark: No (USB2+H05261)
Strobe/Lamp Enabled: No (USB2+H05261)
Correct for Detector Non-linearity: No (USB2+H05261)
Correct for Stray Light: No (USB2+H05261)
Number of Pixels in Processed Spectrum: 2048
>>>>>Begin Processed Spectral Data<<<<<
365.73	107.66
365.92	107.66
366.12	107.66
366.32	0.00
366.52	70.22
366.72	60.85
366.91	0.00
367.11	74.90
367.31	16.38
367.51	79.58
367.70	60.85
367.90	0.00
368.10	7.02
368.30	117.03
368.49	65.54
368.69	124.05
368.89	91.28
369.09	93.62
369.28	21.06
369.48	58.51
369.68	110.01
369.87	180.22
370.07	37.45
370.27	95.96
370.47	142.77
370.66	435.34
370.86	468.11
371.06	451.72
371.25	503.22
371.45	468.11
371.65	528.96
371.84	465.77
372.04	444.70
372.24	547.69
372.44	533.64
372.63	507.90
372.83	528.96
373.03	587.47
373.22	500.87
373.42	613.22
373.62	592.16
373.81	582.79
374.01	566.41
374.21	636.63
374.40	603.86
374.60	681.10
374.79	608.54
374.99	624.92
375.19	669.39
375.38	622.58
375.58	653.01
375.78	645.99
375.97	629.60
376.17	669.39
376.37	603.86
376.56	564.07
376.76	610.88
376.95	634.29
377.15	699.82
377.35	610.88
377.54	655.35
377.74	657.69
377.93	753.65
378.13	667.05
378.33	751.31
378.52	671.73
378.72	674.07
378.91	725.57
379.11	699.82
379.31	669.39
379.50	645.99
379.70	755.99
379.89	755.99
380.09	702.16
380.28	744.29
380.48	765.36
380.68	638.97
380.87	741.95
381.07	723.23
381.26	755.99
381.46	793.44
381.65	725.57
381.85	713.86
382.04	753.65
382.24	723.23
382.43	741.95
382.63	795.78
382.83	795.78
383.02	746.63
383.22	819.19
383.41	727.91
383.61	760.67
383.80	777.06
384.00	863.66
384.19	830.89
384.39	849.61
384.58	924.51
384.78	807.48
384.97	908.13
385.17	812.17
385.36	915.15
385.56	800.46
385.75	884.72
385.95	912.81
386.14	929.19
386.34	870.68
386.53	931.53
386.72	978.34
386.92	866.00
387.11	861.32
387.31	983.02
387.50	964.30
387.70	830.89
387.89	938.55
388.09	896.43
388.28	856.64
388.48	903.45
388.67	1029.84
388.86	992.39
389.06	1081.33
389.25	992.39
389.45	1036.86
389.64	1020.47
389.84	1050.90
390.03	1008.77
390.22	983.02
390.42	1078.99
390.61	1050.90
390.81	1100.05
391.00	1121.12
391.19	1114.10
391.39	1093.03
391.58	1067.28
391.78	1074.31
391.97	1062.60
392.16	1036.86
392.36	1139.84
392.55	1057.92
392.75	990.05
392.94	1100.05
393.13	1041.54
393.33	1107.07
393.52	1064.94
393.71	1095.37
393.91	1160.91
394.10	1174.95
394.29	1254.53
394.49	1207.72
394.68	1334.11
394.88	1287.29
395.07	1324.74
395.26	1291.98
395.46	1315.38
395.65	1299.00
395.84	1306.02
396.04	1268.57
396.23	1268.57
396.42	1299.00
396.62	1163.25
396.81	1200.69
397.00	1331.76
397.19	1313.04
397.39	1401.98
397.58	1451.13
397.77	1380.92
397.97	1497.94
398.16	1451.13
398.35	1549.43
398.55	1469.86
398.74	1486.24
398.93	1509.65
399.12	1533.05
399.32	1577.52
399.51	1570.50
399.70	1544.75
399.90	1528.37
400.09	1636.03
400.28	1638.38
400.47	1645.40
400.67	1673.48
400.86	1607.95
401.05	1692.21
401.24	1699.23
401.44	1760.08
401.63	1741.36
401.82	1762.42
402.01	1708.59
402.21	1823.28
402.40	1792.85
402.59	1849.02
402.78	1750.72
402.97	1830.30
403.17	1860.73
403.36	1863.07
403.55	1806.89
403.74	1944.99
403.93	1912.22
404.13	1832.64
404.32	1942.64
404.51	1982.43
404.70	1963.71
404.89	1952.01
405.09	1968.39
405.28	1977.75
405.47	2001.16
405.66	1921.58
405.85	1944.99
406.05	2122.87
406.24	2092.44
406.43	2118.18
406.62	2087.76
406.81	2078.40
407.00	2165.00
407.20	2078.40
407.39	2197.76
407.58	2277.34
407.77	2293.72
407.96	2408.41
408.15	2246.91
408.34	2275.00
408.54	2260.96
408.73	2380.32
408.92	2293.72
409.11	2275.00
409.30	2459.90
409.49	2260.96
409.68	2352.24
409.87	2387.35
410.07	2431.82
410.26	2392.03
410.45	2520.76
410.64	2562.89
410.83	2581.61
411.02	2581.61
411.21	2626.08
411.40	2619.06
411.59	2686.94
411.78	2569.91
411.98	2654.17
412.17	2675.23
412.36	2712.68
412.55	2679.91
412.74	2878.86
412.93	2799.28
413.12	2717.36
413.31	2906.95
413.50	2906.95
413.69	2946.73
413.88	2850.77
414.07	2911.63
414.26	3108.23
414.45	3042.70
414.64	2979.50
414.83	3222.92
415.02	3115.25
415.22	3152.70
415.41	3119.93
415.60	3386.76
415.79	3241.64
415.98	3466.33
416.17	3236.96
416.36	3246.32
416.55	3410.16
416.74	3482.72
416.93	3314.20
417.12	3463.99
417.31	3382.07
417.50	3400.80
417.69	3543.57
417.88	3534.21
418.07	3456.97
418.26	3606.77
418.45	3501.44
418.64	3667.62
418.83	3733.15
419.02	3569.32
419.21	3534.21
419.39	3667.62
419.58	3559.95
419.77	3655.92
419.96	3672.30
420.15	3744.86
420.34	3775.28
420.53	3915.72
420.72	3904.01
420.91	4030.40
421.10	3934.44
421.29	3934.44
421.48	3838.48
421.67	3953.16
421.86	3894.65
422.05	3915.72
422.24	3887.63
422.43	3786.99
422.61	4046.79
422.80	3981.25
422.99	4084.23
423.18	4039.76
423.37	4007.00
423.56	4032.74
423.75	4077.21
423.94	3925.08
424.13	3751.88
424.32	3976.57
424.50	4021.04
424.69	4182.54
424.88	4170.83
425.07	4044.45
425.26	3936.78
425.45	4023.38
425.64	4102.96
425.83	3964.87
426.01	4245.73
426.20	4107.64
426.39	4243.39
426.58	4084.23
426.77	4105.30
426.96	3990.61
427.15	4107.64
427.33	4170.83
427.52	4212.96
427.71	4379.14
427.90	4285.52
428.09	4173.18
428.28	4203.60
428.46	4278.50
428.65	4131.05
428.84	4301.90
429.03	4372.12
429.22	4208.28
429.40	4234.03
429.59	4191.90
429.78	4119.34
429.97	4004.66
430.16	4131.05
430.34	4124.02
430.53	4308.93
430.72	4334.67
430.91	4365.10
431.10	4393.19
431.28	4589.79
431.47	4631.92
431.66	4772.35
431.85	4641.28
432.03	4674.05
432.22	4706.82
432.41	4695.11
432.60	4631.92
432.79	4837.89
432.97	4798.10
433.16	4770.01
433.35	4688.09
433.54	4835.55
433.72	4842.57
433.91	4896.40
434.10	4856.61
434.28	4622.56
434.47	5064.92
434.66	4973.64
434.85	5029.81
435.03	5205.35
435.22	5097.69
435.41	5317.70
435.59	5270.89
435.78	5050.88
435.97	5280.25
436.16	5088.32
436.34	5139.82
436.53	5273.23
436.72	5345.78
436.90	5296.63
437.09	5160.88
437.28	5320.04
437.46	5219.39
437.65	5193.65
437.84	5270.89
438.02	5193.65
438.21	5411.32
438.40	5207.69
438.58	5528.35
438.77	5631.33
438.96	5516.64
439.14	5659.42
439.33	5652.39
439.52	5778.78
439.70	5858.36
439.89	5949.64
440.08	5790.49
440.26	5872.40
440.45	5921.56
440.63	5898.15
440.82	6080.71
441.01	6015.18
441.19	6134.54
441.38	6277.32
441.57	6232.85
441.75	6195.40
441.94	6399.02
442.12	6429.45
442.31	6537.12
442.50	6520.73
442.68	6480.94
442.87	6345.19
443.05	6560.52
443.24	6640.10
443.43	6670.53
443.61	6682.23
443.80	6871.81
443.98	6480.94
444.17	6326.47
444.35	6686.91
444.54	6829.68
444.73	6726.70
444.91	6647.12
445.10	6609.67
445.28	6525.41
445.47	6626.06
445.65	6560.52
445.84	6665.85
446.02	6649.46
446.21	6759.47
446.39	6700.95
446.58	6703.29
446.77	6935.01
446.95	6684.57
447.14	6895.22
447.32	6920.96
447.51	6862.45
447.69	6895.22
447.88	6869.47
448.06	7068.42
448.25	6904.58
448.43	7068.42
448.62	6796.92
448.80	6890.54
448.99	6888.20
449.17	7016.93
449.36	6977.14
449.54	7094.16
449.73	7225.23
449.91	7246.30
450.10	7225.23
450.28	7461.63
450.46	7480.35
450.65	7253.32
450.83	7269.70
451.02	7330.56
451.20	7393.75
451.39	7534.18
451.57	7342.26
451.76	7403.11
451.94	7405.46
452.13	7382.05
452.31	7531.84
452.49	7297.79
452.68	7255.66
452.86	7456.95
453.05	7520.14
453.23	7541.21
453.42	7564.61
453.60	7473.33
453.78	7639.51
453.97	7410.14
454.15	7590.36
454.34	7358.64
454.52	7456.95
454.70	8011.65
454.89	7742.49
455.07	7812.71
455.26	7873.56
455.44	7967.18
455.62	7840.79
455.81	7976.55
455.99	7983.57
456.17	7915.69
456.36	8126.34
456.54	8028.04
456.73	8191.88
456.91	8332.31
457.09	8114.64
457.28	8414.23
457.46	8159.11
457.64	8290.18
457.83	8336.99
458.01	8177.83
458.19	8283.16
458.38	8229.32
458.56	8456.36
458.74	8332.31
458.93	8320.60
459.11	8479.76
459.29	8741.90
459.48	8566.36
459.66	8411.89
459.84	8662.32
460.03	8683.39
460.21	8711.47
460.39	8779.35
460.57	8547.64
460.76	8531.25
460.94	8863.61
461.12	8861.27
461.31	8737.22
461.49	8795.73
461.67	8896.38
461.85	9083.62
462.04	8849.57
462.22	9331.72
462.40	9228.73
462.59	9142.13
462.77	9137.45
462.95	9188.94
463.13	9268.52
463.32	9242.78
463.50	9242.78
463.68	9277.88
463.86	9210.01
464.05	9233.41
464.23	9135.11
464.41	9200.65
464.59	9165.54
464.78	9549.39
464.96	9228.73
465.14	9195.96
465.32	9397.25
465.50	9399.59
465.69	9390.23
465.87	9603.22
466.05	9397.25
466.23	9373.85
466.41	9476.83
466.60	9734.29
466.78	9406.61
466.96	9486.19
467.14	9570.45
467.32	9518.96
467.51	9900.47
467.69	9432.36
467.87	9678.12
468.05	9703.86
468.23	9544.70
468.41	9635.99
468.60	9741.31
468.78	9961.32
468.96	9727.27
469.14	10104.09
469.32	9893.44
469.50	9715.56
469.69	9935.57
469.87	9914.51
470.05	10108.77
470.23	10122.82
470.41	9956.64
470.59	10139.20
470.77	10001.11
470.95	10274.95
471.14	10476.24
471.32	10054.94
471.50	10466.88
471.68	10520.71
471.86	10551.14
472.04	10569.86
472.22	10897.53
472.40	10394.32
472.58	10560.50
472.77	10600.29
472.95	10836.68
473.13	11150.31
473.31	10897.53
473.49	10974.77
473.67	11049.67
473.85	10970.09
474.03	11122.23
474.21	11077.76
474.39	11309.47
474.57	11255.64
474.75	11403.09
474.93	11276.70
475.12	11555.22
475.30	11768.21
475.48	11283.72
475.66	11541.18
475.84	11314.15
476.02	11580.97
476.20	11508.41
476.38	11648.85
476.56	12084.19
476.74	12119.29
476.92	12095.89
477.10	11992.90
477.28	12388.46
477.46	12283.13
477.64	12465.69
477.82	12772.30
478.00	12971.25
478.18	12531.23
478.36	12655.28
478.54	12826.14
478.72	13022.74
478.90	13247.43
479.08	13200.62
479.26	13727.24
479.44	13460.42
479.62	13535.32
479.80	13640.64
479.98	13790.44
480.16	14242.16
480.34	13771.71
480.52	13937.89
480.70	14101.73
480.88	13879.38
481.06	14242.16
481.24	14204.71
481.41	14295.99
481.59	14949.00
481.77	14661.12
481.95	14768.78
482.13	14916.23
482.31	14881.13
482.49	15508.39
482.67	15328.17
482.85	15454.56
483.03	15634.78
483.21	15803.30
483.39	16084.16
483.57	15672.23
483.74	15859.47
483.92	16123.95
484.10	15836.06
484.28	16460.99
484.46	16320.56
484.64	16723.13
484.82	16566.31
485.00	16465.67
485.18	16968.88
485.35	16638.87
485.53	16535.88
485.71	16746.53
485.89	16812.07
486.07	16908.03
486.25	17022.72
486.43	17247.41
486.61	17385.50
486.78	17460.40
486.96	17762.33
487.14	18113.41
487.32	18094.68
487.50	18298.31
487.68	18518.32
487.85	18602.58
488.03	18843.65
488.21	18703.22
488.39	18913.87
488.57	19105.79
488.75	19349.21
488.92	19594.96
489.10	19613.69
489.28	19555.18
489.46	20018.60
489.64	20381.38
489.81	20442.24
489.99	20563.95
490.17	20751.19
490.35	20783.96
490.53	20798.00
490.70	21146.74
490.88	21048.44
491.06	21221.64
491.24	21092.91
491.41	21305.90
491.59	21422.92
491.77	21130.36
491.95	21298.88
492.13	22005.72
492.30	22050.19
492.48	22075.93
492.66	22176.58
492.84	22630.64
493.01	22553.40
493.19	22373.18
493.37	22586.17
493.54	22810.86
493.72	23042.57
493.90	23248.54
494.08	23606.64
494.25	23461.53
494.43	23805.59
494.61	24130.92
494.79	24065.39
494.96	23751.76
495.14	23892.19
495.32	23978.79
495.49	24079.43
495.67	24472.64
495.85	24996.92
496.02	24486.68
496.20	24999.26
496.38	25036.71
496.55	25362.04
496.73	25631.21
496.91	25106.93
497.09	25568.01
497.26	25785.68
497.44	25502.48
497.62	25834.83
497.79	25958.88
497.97	25802.07
498.14	26230.38
498.32	26085.27
498.50	25998.67
498.67	26848.29
498.85	26162.51
499.03	26845.94
499.20	26820.20
499.38	26801.47
499.56	27192.34
499.73	27222.77
499.91	26883.39
500.08	27178.30
500.26	27152.55
500.44	27056.59
500.61	27246.18
500.79	26897.44
500.97	27903.87
501.14	27632.36
501.32	27817.27
501.49	28018.55
501.67	27585.55
501.84	28175.37
502.02	28568.58
502.20	28348.57
502.37	28493.68
502.55	28554.54
502.72	28533.47
502.90	29041.37
503.07	28393.04
503.25	28886.89
503.43	28477.30
503.60	28968.81
503.78	28760.50
503.95	28889.23
504.13	28879.87
504.30	29347.98
504.48	29127.97
504.65	30019.71
504.83	29633.52
505.01	29797.36
505.18	29399.47
505.36	30211.64
505.53	30218.66
505.71	30089.93
505.88	30532.29
506.06	30003.33
506.23	30298.23
506.41	30089.93
506.58	30590.80
506.76	30576.76
506.93	30813.15
507.11	31047.21
507.28	30815.49
507.46	30693.79
507.63	30923.16
507.81	31154.87
507.98	30761.66
508.16	30986.35
508.33	31021.46
508.50	31239.13
508.68	31456.80
508.85	31630.00
509.03	31452.12
509.20	31929.59
509.38	31690.85
509.55	31835.97
509.73	31676.81
509.90	32336.84
510.08	31718.94
510.25	32208.11
510.42	32613.02
510.60	32519.40
510.77	32460.89
510.95	32898.57
511.12	32685.58
511.30	33027.30
511.47	33219.22
511.64	33095.18
511.82	33097.52
511.99	33095.18
512.17	33266.03
512.34	32898.57
512.51	33338.59
512.69	33523.49
512.86	33666.27
513.04	33666.27
513.21	33453.28
513.38	33483.70
513.56	33598.39
513.73	33064.75
513.90	33982.24
514.08	33699.03
514.25	34003.30
514.43	33923.72
514.60	33816.06
514.77	34225.65
514.95	34352.04
515.12	33970.54
515.29	34513.54
515.47	34646.95
515.64	34808.45
515.81	34356.72
515.99	34827.17
516.16	34656.31
516.33	34024.37
516.51	34785.04
516.68	34045.43
516.85	34141.39
517.03	34625.89
517.20	35082.29
517.37	34888.03
517.54	35229.74
517.72	35136.12
517.89	34986.33
518.06	35044.84
518.24	34932.50
518.41	34939.52
518.58	35157.19
518.75	35033.14
518.93	35732.96
519.10	35702.53
519.27	35747.00
519.45	36004.46
519.62	36325.11
519.79	36187.02
519.96	35969.35
520.14	36680.88
520.31	36154.26
520.48	36261.92
520.65	36203.41
520.83	36868.12
521.00	36835.35
521.17	36753.43
521.34	36624.70
521.52	37158.34
521.69	37104.51
521.86	37153.66
522.03	37294.10
522.20	36884.50
522.38	37581.98
522.55	37053.02
522.72	37380.70
522.89	37123.24
523.07	37476.66
523.24	37457.93
523.41	37483.68
523.58	37516.45
523.75	37483.68
523.92	38073.49
524.10	38117.96
524.27	37951.79
524.44	37998.60
524.61	38286.48
524.78	38232.65
524.96	38265.42
525.13	38513.52
525.30	38759.27
525.47	38909.07
525.64	38604.80
525.81	38443.30
525.98	38452.66
526.16	38047.75
526.33	38199.88
526.50	38520.54
526.67	38057.11
526.84	38307.55
527.01	38253.72
527.18	38738.21
527.36	38880.98
527.53	39133.76
527.70	39386.54
527.87	39452.07
528.04	39344.41
528.21	39512.92
528.38	39175.89
528.55	39543.35
528.72	39854.64
528.89	39482.50
529.07	39842.94
529.24	39316.32
529.41	39871.03
529.58	39683.78
529.75	39737.62
529.92	39838.26
530.09	40194.02
530.26	40051.25
530.43	40025.50
530.60	39770.38
530.77	40084.01
530.94	40182.32
531.11	40002.10
531.28	40484.25
531.46	40381.26
531.63	40449.14
531.80	40683.19
531.97	40453.82
532.14	40737.02
532.31	39878.05
532.48	40765.11
532.65	40865.75
532.82	40414.03
532.99	40919.59
533.16	40533.40
533.33	41083.42
533.50	40950.01
533.67	41064.70
533.84	40580.21
534.01	41301.09
534.18	40898.52
534.35	41429.82
534.52	41155.98
534.69	41174.70
534.86	41345.56
535.03	41057.68
535.20	42017.30
535.37	41794.95
535.54	41963.46
535.71	42036.02
535.88	42017.30
536.05	41244.92
536.22	41574.94
536.38	41965.81
536.55	41486.00
536.72	41654.51
536.89	41535.15
537.06	41418.12
537.23	42239.65
537.40	41780.90
537.57	41661.54
537.74	42059.43
537.91	42831.80
538.08	42176.45
538.25	41748.14
538.42	42209.22
538.59	42564.98
538.75	41996.23
538.92	42155.39
539.09	42513.49
539.26	42071.13
539.43	42724.14
539.60	42447.96
539.77	42426.89
539.94	42508.81
540.11	42253.69
540.28	42316.89
540.44	42227.95
540.61	42398.80
540.78	42597.75
540.95	42162.41
541.12	42298.16
541.29	42344.97
541.46	42539.24
541.62	43154.80
541.79	42990.96
541.96	42560.30
542.13	42976.92
542.30	43063.52
542.47	43152.46
542.63	42974.58
542.80	43227.35
542.97	43423.96
543.14	43447.36
543.31	43538.65
543.48	43578.43
543.64	43927.17
543.81	44292.30
543.98	43576.09
544.15	43269.48
544.32	43725.89
544.48	44601.25
544.65	43952.92
544.82	44083.99
544.99	43636.95
545.16	43906.11
545.32	44023.14
545.49	44151.87
545.66	44205.70
545.83	44346.13
546.00	44163.57
546.16	44175.27
546.33	44435.07
546.50	43791.42
546.67	44224.42
546.83	43779.72
547.00	43683.76
547.17	44142.50
547.34	44105.06
547.50	44259.53
547.67	44453.79
547.84	44278.25
548.00	44837.64
548.17	44704.23
548.34	44533.37
548.51	44832.96
548.67	44807.22
548.84	44605.93
549.01	44509.97
549.18	44259.53
549.34	44964.03
549.51	44828.28
549.68	45034.25
549.84	44917.22
550.01	45153.62
550.18	44762.75
550.34	45118.51
550.51	44619.97
550.68	44704.23
550.84	44605.93
551.01	44720.62
551.18	45214.47
551.34	44821.26
551.51	44893.82
551.68	45565.55
551.84	45464.91
552.01	45069.36
552.18	45043.61
552.34	45118.51
552.51	45233.19
552.68	45193.40
552.84	45385.33
553.01	45724.71
553.18	45141.91
553.34	45565.55
553.51	45134.89
553.67	45446.18
553.84	45895.56
554.01	45944.72
554.17	45778.54
554.34	45848.75
554.51	45418.10
554.67	45935.35
554.84	45603.00
555.00	45427.46
555.17	45834.71
555.33	45949.40
555.50	45528.10
555.67	45993.87
555.83	45783.22
556.00	45684.92
556.16	45797.26
556.33	45949.40
556.50	46036.00
556.66	45787.90
556.83	45661.51
556.99	46454.95
557.16	46106.21
557.32	45858.12
557.49	45656.83
557.65	45923.65
557.82	45563.21
557.98	46007.91
558.15	45907.27
558.32	46316.86
558.48	45825.35
558.65	46075.79
558.81	45783.22
558.98	45942.38
559.14	46323.88
559.31	46021.95
559.47	45858.12
559.64	46291.12
559.80	46595.38
559.97	46543.89
560.13	46279.41
560.30	46031.32
560.46	46478.36
560.63	46394.10
560.79	46586.02
560.96	46651.56
561.12	46569.64
561.29	46246.65
561.45	46316.86
561.61	46452.61
561.78	46679.64
561.94	46471.34
562.11	46459.63
562.27	46323.88
562.44	46358.99
562.60	47316.27
562.77	46674.96
562.93	46454.95
563.10	46841.14
563.26	46494.74
563.42	47035.41
563.59	46705.39
563.75	46469.00
563.92	46852.84
564.08	46880.93
564.24	46747.52
564.41	47000.30
564.57	46574.32
564.74	46637.51
564.90	46560.28
565.07	46754.54
565.23	46347.29
565.39	47014.34
565.56	46754.54
565.72	46260.69
565.88	46782.63
566.05	46560.28
566.21	46890.29
566.38	46885.61
566.54	46630.49
566.70	46852.84
566.87	47440.32
567.03	46656.24
567.19	47019.02
567.36	46880.93
567.52	46714.75
567.68	46724.11
567.85	46897.31
568.01	46995.62
568.17	46934.76
568.34	46960.51
568.50	46997.96
568.66	46791.99
568.83	46742.84
568.99	46419.84
569.15	46686.67
569.32	46646.88
569.48	46590.70
569.64	46930.08
569.81	47007.32
569.97	46784.97
570.13	47124.35
570.30	46710.07
570.46	46396.44
570.62	46405.80
570.78	46712.41
570.95	46717.09
571.11	47112.64
571.27	47171.16
571.43	46808.37
571.60	47278.82
571.76	46681.98
571.92	47342.02
572.09	46850.50
572.25	47019.02
572.41	46841.14
572.57	47009.66
572.74	47480.11
572.90	47243.71
573.06	46962.85
573.22	47292.86
573.38	47014.34
573.55	46817.74
573.71	47196.90
573.87	46782.63
574.03	46539.21
574.20	47129.03
574.36	47016.68
574.52	46735.82
574.68	47096.26
574.84	47454.36
575.01	46887.95
575.17	47229.67
575.33	46677.30
575.49	46859.87
575.65	47304.57
575.82	47002.64
575.98	47021.36
576.14	47077.54
576.30	46876.25
576.46	46983.91
576.62	47147.75
576.79	46824.76
576.95	46749.86
577.11	47070.51
577.27	47129.03
577.43	47295.21
577.59	47103.28
577.75	46841.14
577.92	46508.79
578.08	47154.77
578.24	46724.11
578.40	46894.97
578.56	47051.79
578.72	46817.74
578.88	47533.94
579.04	47173.50
579.21	47316.27
579.37	47056.47
579.53	47133.71
579.69	47147.75
579.85	47419.25
580.01	47070.51
580.17	47236.69
580.33	47337.33
580.49	47061.15
580.65	47278.82
580.82	47189.88
580.98	47349.04
581.14	47208.61
581.30	46806.03
581.46	47304.57
581.62	47096.26
581.78	47098.60
581.94	47456.70
582.10	47194.56
582.26	47194.56
582.42	46916.04
582.58	47185.20
582.74	47510.53
582.90	47606.50
583.06	47498.83
583.22	47185.20
583.38	47201.58
583.54	47002.64
583.70	46997.96
583.86	47255.42
584.02	46934.76
584.18	47555.00
584.34	47349.04
584.50	47222.65
584.66	47407.55
584.82	46969.87
584.98	47250.74
585.14	47393.51
585.30	47255.42
585.46	47267.12
585.62	46981.57
585.78	46791.99
585.94	46726.46
586.10	47061.15
586.26	46930.08
586.42	47440.32
586.58	47576.07
586.74	47395.85
586.90	46899.65
587.06	47056.47
587.22	47536.28
587.38	46976.89
587.54	47224.99
587.70	47491.81
587.86	46916.04
588.02	47030.72
588.18	47210.95
588.34	47044.77
588.49	46719.43
588.65	46672.62
588.81	46705.39
588.97	46726.46
589.13	46663.26
589.29	46885.61
589.45	47054.13
589.61	46885.61
589.77	47147.75
589.93	47058.81
590.08	47283.50
590.24	47414.57
590.40	47421.59
590.56	47700.12
590.72	47648.63
590.88	46883.27
591.04	47133.71
591.20	47648.63
591.35	47117.32
591.51	47526.92
591.67	47278.82
591.83	47398.19
591.99	46932.42
592.15	47180.52
592.31	47363.08
592.46	47412.23
592.62	47381.80
592.78	47407.55
592.94	47316.27
593.10	46941.78
593.26	47459.04
593.41	47714.16
593.57	47026.04
593.73	47456.70
593.89	47494.15
594.05	47122.01
594.20	47313.93
594.36	47356.06
594.52	47309.25
594.68	47358.40
594.84	47243.71
594.99	47456.70
595.15	47480.11
595.31	47639.26
595.47	47334.99
595.62	47428.62
595.78	47679.05
595.94	47435.64
596.10	47442.66
596.25	47510.53
596.41	47388.83
596.57	47253.08
596.73	47674.37
596.88	47065.83
597.04	47611.18
597.20	47440.32
597.36	47547.98
597.51	47828.85
597.67	47650.97
597.83	47342.02
597.99	47711.82
598.14	47473.09
598.30	47360.74
598.46	47112.64
598.61	47339.68
598.77	47194.56
598.93	47503.51
599.09	47442.66
599.24	48011.41
599.40	47566.71
599.56	47342.02
599.71	47426.28
599.87	47597.13
600.03	47688.42
600.18	47327.97
600.34	46791.99
600.50	47154.77
600.65	47185.20
600.81	47746.93
600.97	47316.27
601.12	47770.33
601.28	47634.58
601.44	47407.55
601.59	47456.70
601.75	47292.86
601.91	47332.65
602.06	47372.44
602.22	47388.83
602.37	47367.76
602.53	47487.13
602.69	47615.86
602.84	47414.57
603.00	47440.32
603.16	47318.61
603.31	47150.09
603.47	47543.30
603.62	47217.97
603.78	47430.96
603.94	47262.44
604.09	47281.16
604.25	47187.54
604.40	47447.34
604.56	47262.44
604.71	46829.44
604.87	46784.97
605.03	47180.52
605.18	47592.45
605.34	47342.02
605.49	46611.77
605.65	47201.58
605.80	47494.15
605.96	47473.09
606.12	47723.52
606.27	46995.62
606.43	47248.39
606.58	47220.31
606.74	47295.21
606.89	47196.90
607.05	47501.17
607.20	47421.59
607.36	47257.76
607.51	47206.26
607.67	47711.82
607.82	47318.61
607.98	47152.43
608.13	46368.35
608.29	47112.64
608.44	46782.63
608.60	47058.81
608.75	46387.08
608.91	46672.62
609.06	46387.08
609.22	46976.89
609.37	46602.41
609.53	47285.84
609.68	46892.63
609.84	46843.48
609.99	46878.59
610.15	46555.60
610.30	46827.10
610.46	46766.24
610.61	46976.89
610.76	46518.15
610.92	46614.11
611.07	46918.38
611.23	46597.73
611.38	46583.68
611.54	46513.47
611.69	46380.06
611.84	46887.95
612.00	46405.80
612.15	46735.82
612.31	46520.49
612.46	46527.51
612.62	46862.21
612.77	46583.68
612.92	46541.55
613.08	47049.45
613.23	46843.48
613.39	46300.48
613.54	46131.96
613.69	46195.15
613.85	46696.03
614.00	46689.01
614.15	46485.38
614.31	46597.73
614.46	46983.91
614.62	46190.47
614.77	46082.81
614.92	46085.15
615.08	46045.36
615.23	46279.41
615.38	45694.28
615.54	45965.78
615.69	46164.73
615.84	46220.90
616.00	45766.84
616.15	45844.07
616.30	46466.66
616.46	45347.88
616.61	45750.45
616.76	45799.60
616.92	45698.96
617.07	45907.27
617.22	45584.27
617.37	45633.42
617.53	46059.40
617.68	46234.94
617.83	46064.08
617.99	45862.80
618.14	45947.06
618.29	45738.75
618.45	45504.70
618.60	45872.16
618.75	45818.33
618.90	45713.00
619.06	45846.41
619.21	45504.70
619.36	45813.65
619.51	45441.50
619.67	45532.78
619.82	45301.07
619.97	45570.23
620.12	44978.07
620.28	44706.57
620.43	45064.67
620.58	45373.63
620.73	45574.91
620.89	45329.16
621.04	44844.66
621.19	45198.09
621.34	45565.55
621.49	44898.50
621.65	45090.42
621.80	45378.31
621.95	44795.51
622.10	45258.94
622.25	45020.20
622.41	44847.00
622.56	44615.29
622.71	45165.32
622.86	45165.32
623.01	45055.31
623.16	45202.77
623.32	45373.63
623.47	44872.75
623.62	45043.61
623.77	44772.11
623.92	45146.59
624.07	44514.65
624.23	44397.62
624.38	44432.73
624.53	44762.75
624.68	44837.64
624.83	44989.78
624.98	44851.69
625.13	44800.19
625.29	44624.65
625.44	44247.83
625.59	44460.82
625.74	44194.00
625.89	43753.97
626.04	43707.16
626.19	44271.23
626.34	44516.99
626.49	44163.57
626.65	44247.83
626.80	44432.73
626.95	43845.26
627.10	43973.98
627.25	44247.83
627.40	43606.52
627.55	43697.80
627.70	43763.34
627.85	43423.96
628.00	43878.02
628.15	44348.47
628.30	43676.74
628.45	43775.04
628.60	43835.89
628.76	43887.39
628.91	43744.61
629.06	43997.39
629.21	43290.55
629.36	43416.94
629.51	43571.41
629.66	43533.96
629.81	42983.94
629.96	43580.78
630.11	43716.53
630.26	43564.39
630.41	43803.13
630.56	43185.22
630.71	43405.23
630.86	43718.87
631.01	43210.97
631.16	43072.88
631.31	42855.21
631.46	42541.58
631.61	43243.74
631.76	43559.71
631.91	42925.42
632.06	43253.10
632.21	43438.00
632.36	43505.88
632.51	43089.26
632.66	43505.88
632.81	42955.85
632.96	43260.12
633.10	42567.32
633.25	42677.33
633.40	42808.40
633.55	43196.93
633.70	42944.15
633.85	42590.73
634.00	42876.27
634.15	43124.37
634.30	42841.17
634.45	43124.37
634.60	42843.51
634.75	42614.13
634.90	42403.49
635.05	43070.54
635.19	42873.93
635.34	42904.36
635.49	42637.54
635.64	42710.10
635.79	42501.79
635.94	42197.52
636.09	42567.32
636.24	42564.98
636.39	42644.56
636.53	42473.70
636.68	41951.76
636.83	42274.76
636.98	42295.82
637.13	41605.36
637.28	41963.46
637.43	42019.64
637.57	42532.22
637.72	42646.90
637.87	42204.54
638.02	42644.56
638.17	41944.74
638.32	41766.86
638.46	41996.23
638.61	41691.96
638.76	41596.00
638.91	42047.72
639.06	41940.06
639.20	41600.68
639.35	42171.77
639.50	41787.92
639.65	42052.41
639.80	42326.25
639.94	41841.76
640.09	41518.76
640.24	41525.78
640.39	41282.37
640.54	41633.45
640.68	41207.47
640.83	41612.38
640.98	41448.55
641.13	41249.60
641.27	41558.55
641.42	41591.32
641.57	41518.76
641.72	41446.21
641.86	40816.60
642.01	41237.90
642.16	41041.29
642.31	41015.55
642.45	41371.31
642.60	41141.94
642.75	40940.65
642.90	41158.32
643.04	40940.65
643.19	41305.77
643.34	41317.48
643.48	41191.09
643.63	41085.76
643.78	41184.07
643.93	41092.79
644.07	40486.59
644.22	40914.90
644.37	40547.44
644.51	40896.18
644.66	41092.79
644.81	41062.36
644.95	41031.93
645.10	41092.79
645.25	40847.03
645.39	40755.75
645.54	40973.42
645.69	40840.01
645.83	40453.82
645.98	40877.46
646.13	40884.48
646.27	40346.15
646.42	40627.02
646.57	40837.67
646.71	40385.94
646.86	40617.66
647.00	40561.48
647.15	40435.10
647.30	40603.61
647.44	40662.13
647.59	40306.37
647.74	40350.84
647.88	40123.80
648.03	40175.30
648.17	40105.08
648.32	40034.86
648.47	40009.12
648.61	39896.77
648.76	40395.31
648.90	39995.07
649.05	40357.86
649.20	39690.80
649.34	40339.13
649.49	39882.73
649.63	40201.04
649.78	39454.41
649.92	40435.10
650.07	39976.35
650.21	40018.48
650.36	39917.84
650.51	39807.83
650.65	40210.40
650.80	40175.30
650.94	40289.98
651.09	39770.38
651.23	39922.52
651.38	39510.58
651.52	39651.02
651.67	39377.17
651.81	39475.48
651.96	39065.88
652.10	39367.81
652.25	39543.35
652.39	39613.57
652.54	39665.06
652.68	39461.43
652.83	39395.90
652.97	39550.37
653.12	39419.30
653.26	39304.62
653.41	39391.22
653.55	38806.08
653.70	39288.23
653.84	39316.32
653.99	39325.68
654.13	39246.10
654.27	39215.68
654.42	39040.14
654.56	39262.49
654.71	39077.58
654.85	39192.27
655.00	39206.31
655.14	38796.72
655.29	38747.57
655.43	38579.05
655.57	38658.63
655.72	38368.40
655.86	38342.66
656.01	38293.50
656.15	38054.77
656.30	38227.97
656.44	38190.52
656.58	38579.05
656.73	38129.67
656.87	38176.48
657.01	38300.53
657.16	38513.52
657.30	38036.05
657.45	38389.47
657.59	38174.14
657.73	38281.80
657.88	38286.48
658.02	38443.30
658.16	38696.08
658.31	38160.09
658.45	38625.86
658.60	38171.80
658.74	38279.46
658.88	38433.94
659.03	37858.17
659.17	37853.48
659.31	37848.80
659.46	37975.19
659.60	37872.21
659.74	37996.26
659.89	37418.14
660.03	37488.36
660.17	37970.51
660.32	37642.84
660.46	37991.58
660.60	37277.71
660.74	37607.73
660.89	37717.73
661.03	37090.47
661.17	37003.87
661.32	37113.87
661.46	37207.50
661.60	37275.37
661.74	37361.97
661.89	37387.72
662.03	37635.81
662.17	36690.24
662.31	37020.25
662.46	37020.25
662.60	36926.63
662.74	36730.03
662.88	36964.08
663.03	36664.49
663.17	36823.65
663.31	36767.48
663.45	36720.66
663.60	36788.54
663.74	36439.80
663.88	36669.17
664.02	36123.83
664.17	36411.71
664.31	36182.34
664.45	36449.16
664.59	36400.01
664.73	36795.56
664.88	36418.74
665.02	36098.08
665.16	36266.60
665.30	36306.39
665.44	36041.91
665.59	35866.37
665.73	35805.52
665.87	35718.92
666.01	35826.58
666.15	35152.51
666.29	35728.28
666.44	35309.32
666.58	35686.15
666.72	35487.20
666.86	35323.36
667.00	35849.99
667.14	35030.80
667.28	35309.32
667.43	34857.60
667.57	34560.35
667.71	35255.49
667.85	35110.38
667.99	34871.64
668.13	34581.42
668.27	34565.03
668.41	34974.63
668.56	34745.25
668.70	35178.25
668.84	35000.37
668.98	34560.35
669.12	34244.38
669.26	34983.99
669.40	34611.84
669.54	34068.84
669.68	34529.92
669.82	34766.32
669.96	33961.17
670.10	33816.06
670.25	34029.05
670.39	34223.31
670.53	33785.63
670.67	33827.76
670.81	34134.37
670.95	33963.51
671.09	34230.33
671.23	33853.51
671.37	34099.26
671.51	33647.54
671.65	33820.74
671.79	33120.92
671.93	33333.91
672.07	33560.94
672.21	33174.75
672.35	33029.64
672.49	33139.65
672.63	33560.94
672.77	33193.48
672.91	33053.05
673.05	32914.95
673.19	32919.63
673.33	33020.28
673.47	32793.25
673.61	32556.85
673.75	32594.30
673.89	32051.30
674.03	32582.60
674.17	31943.63
674.31	32425.78
674.45	31967.04
674.59	31882.78
674.73	32584.94
674.87	32205.77
675.01	31798.52
675.15	32182.37
675.29	32072.36
675.43	31449.78
675.56	31864.05
675.70	31491.91
675.84	31360.84
675.98	30590.80
676.12	31545.74
676.26	31159.55
676.40	30993.37
676.54	31131.47
676.68	30934.86
676.82	30494.84
676.96	30719.53
677.10	30249.08
677.23	30794.43
677.37	30504.20
677.51	30747.62
677.65	30300.58
677.79	30272.49
677.93	30583.78
678.07	29827.79
678.21	29448.62
678.34	29865.24
678.48	29591.39
678.62	29661.61
678.76	29818.42
678.90	29366.70
679.04	29479.05
679.18	29483.73
679.31	29369.04
679.45	29333.93
679.59	29010.94
679.73	29055.41
679.87	29062.43
680.00	28788.59
680.14	28875.19
680.28	28767.52
680.42	28694.97
680.56	28545.17
680.70	28224.52
680.83	28411.76
680.97	27772.80
681.11	27871.10
681.25	27658.11
681.39	27688.54
681.52	28161.33
681.66	28201.11
681.80	27583.21
681.94	27590.24
682.07	27653.43
682.21	27494.27
682.35	27091.70
682.49	27522.36
682.62	27438.10
682.76	27264.90
682.90	26948.93
683.04	27234.47
683.17	26719.56
683.31	26649.34
683.45	26831.90
683.59	26815.52
683.72	26136.76
683.86	26066.55
684.00	26216.34
684.13	26443.37
684.27	26209.32
684.41	25701.42
684.55	25722.49
684.68	25521.20
684.82	25406.52
684.96	25689.72
685.09	25844.20
685.23	25682.70
685.37	25446.30
685.50	25378.43
685.64	25579.71
685.78	25273.10
685.91	25694.40
686.05	24950.11
686.19	24393.06
686.32	24929.05
686.46	24594.35
686.60	24353.27
686.73	24072.41
686.87	23840.70
687.01	23969.43
687.14	23700.26
687.28	23857.08
687.42	23763.46
687.55	23564.51
687.69	23676.86
687.82	23487.28
687.96	23838.36
688.10	23562.17
688.23	23428.76
688.37	23056.62
688.50	23318.76
688.64	23002.78
688.78	23054.28
688.91	22911.50
689.05	22822.56
689.18	22686.81
689.32	22354.46
689.46	22792.14
689.59	22799.16
689.73	22649.36
689.86	22520.63
690.00	22286.58
690.13	22726.60
690.27	22476.16
690.41	22139.13
690.54	21783.37
690.68	21979.97
690.81	21654.64
690.95	21902.73
691.08	21745.92
691.22	21752.94
691.35	21362.07
691.49	21661.66
691.62	21748.26
691.76	21551.65
691.89	21570.38
692.03	21305.90
692.16	20952.48
692.30	21177.17
692.43	20938.43
692.57	20898.64
692.70	20554.58
692.84	20486.71
692.97	20430.54
693.11	20217.55
693.24	20531.18
693.38	20201.16
693.51	19962.43
693.65	20205.84
693.78	20311.17
693.92	20039.67
694.05	19946.05
694.19	19805.61
694.32	19964.77
694.45	19845.40
694.59	19646.46
694.72	19616.03
694.86	19508.37
694.99	19218.14
695.13	19147.92
695.26	18953.66
695.39	18815.57
695.53	19019.19
695.66	19192.39
695.80	19075.37
695.93	18647.05
696.07	18443.42
696.20	18808.54
696.33	18483.21
696.47	18490.23
696.60	18633.00
696.73	18707.90
696.87	18228.09
697.00	18148.51
697.14	18277.24
697.27	18071.28
697.40	18080.64
697.54	18115.75
697.67	17825.52
697.80	17874.67
697.94	17678.07
698.07	17865.31
698.21	17586.79
698.34	17397.20
698.47	17556.36
698.61	17357.41
698.74	17188.89
698.87	17277.83
699.01	17003.99
699.14	16936.12
699.27	16961.86
699.40	16872.92
699.54	16891.65
699.67	16659.93
699.80	16365.03
699.94	16610.78
700.07	16533.54
700.20	16264.38
700.34	16271.40
700.47	16102.89
700.60	16425.88
700.73	16676.32
700.87	16152.04
701.00	16105.23
701.13	16140.33
701.26	15885.22
701.40	15932.03
701.53	15693.29
701.66	15969.48
701.79	15492.01
701.93	15396.04
702.06	15487.32
702.19	15475.62
702.32	15414.77
702.46	15374.98
702.59	15262.63
702.72	15119.86
702.85	15342.21
702.99	15136.24
703.12	15431.15
703.25	14906.87
703.38	14862.40
703.51	14902.19
703.65	15059.01
703.78	14686.86
703.91	14567.49
704.04	14726.65
704.17	14527.71
704.31	14398.98
704.44	14083.00
704.57	14600.26
704.70	14146.20
704.83	14080.66
704.96	14207.05
705.10	14366.21
705.23	14420.04
>>>>>End Processed Spectral Data<<<<<
