SpectraSuite Data File
++++++++++++++++++++++++++++++++++++
Date: Fri Oct 25 10:43:36 EDT 2013
User: price-jones
Dark Spectrum Present: No
Reference Spectrum Present: No
Number of Sampled Component Spectra: 1
Spectrometers: USB2+H05261
Integration Time (usec): 100000 (USB2+H05261)
Spectra Averaged: 1 (USB2+H05261)
Boxcar Smoothing: 0 (USB2+H05261)
Correct for Electrical Dark: No (USB2+H05261)
Strobe/Lamp Enabled: No (USB2+H05261)
Correct for Detector Non-linearity: No (USB2+H05261)
Correct for Stray Light: No (USB2+H05261)
Number of Pixels in Processed Spectrum: 2048
>>>>>Begin Processed Spectral Data<<<<<
365.73	140.43
365.92	140.43
366.12	140.43
366.32	72.56
366.52	9.36
366.72	53.83
366.91	37.45
367.11	0.00
367.31	0.00
367.51	37.45
367.70	7.02
367.90	2.34
368.10	67.88
368.30	35.11
368.49	51.49
368.69	67.88
368.89	28.09
369.09	37.45
369.28	98.30
369.48	39.79
369.68	63.19
369.87	114.69
370.07	72.56
370.27	159.16
370.47	245.76
370.66	355.76
370.86	393.21
371.06	482.15
371.25	442.36
371.45	421.30
371.65	507.90
371.84	421.30
372.04	442.36
372.24	491.51
372.44	458.74
372.63	500.87
372.83	557.05
373.03	503.22
373.22	479.81
373.42	519.60
373.62	526.62
373.81	615.56
374.01	503.22
374.21	573.43
374.40	636.63
374.60	561.73
374.79	533.64
374.99	543.00
375.19	561.73
375.38	645.99
375.58	540.66
375.78	617.90
375.97	624.92
376.17	657.69
376.37	617.90
376.56	582.79
376.76	610.88
376.95	674.07
377.15	573.43
377.35	624.92
377.54	706.84
377.74	643.65
377.93	624.92
378.13	681.10
378.33	638.97
378.52	741.95
378.72	709.18
378.91	641.31
379.11	592.16
379.31	662.37
379.50	648.33
379.70	603.86
379.89	667.05
380.09	697.48
380.28	622.58
380.48	653.01
380.68	622.58
380.87	622.58
381.07	744.29
381.26	774.72
381.46	777.06
381.65	720.88
381.85	720.88
382.04	692.80
382.24	732.59
382.43	753.65
382.63	638.97
382.83	755.99
383.02	802.80
383.22	779.40
383.41	751.31
383.61	753.65
383.80	727.91
384.00	793.44
384.19	788.76
384.39	821.53
384.58	795.78
384.78	777.06
384.97	800.46
385.17	833.23
385.36	826.21
385.56	779.40
385.75	844.93
385.95	779.40
386.14	798.12
386.34	844.93
386.53	870.68
386.72	833.23
386.92	901.11
387.11	816.85
387.31	814.51
387.50	816.85
387.70	931.53
387.89	908.13
388.09	917.49
388.28	837.91
388.48	912.81
388.67	940.90
388.86	915.15
389.06	915.15
389.25	997.07
389.45	1039.20
389.64	929.19
389.84	1036.86
390.03	1004.09
390.22	1008.77
390.42	1004.09
390.61	992.39
390.81	983.02
391.00	1004.09
391.19	1053.24
391.39	1069.62
391.58	1050.90
391.78	1097.71
391.97	1130.48
392.16	1102.39
392.36	1107.07
392.55	1036.86
392.75	1062.60
392.94	929.19
393.13	1032.18
393.33	1048.56
393.52	1093.03
393.71	1022.81
393.91	1151.54
394.10	1053.24
394.29	1118.78
394.49	1193.67
394.68	1261.55
394.88	1303.68
395.07	1252.19
395.26	1282.61
395.46	1205.38
395.65	1226.44
395.84	1142.18
396.04	1252.19
396.23	1186.65
396.42	1231.12
396.62	1170.27
396.81	1191.33
397.00	1280.27
397.19	1301.34
397.39	1371.55
397.58	1394.96
397.77	1362.19
397.97	1444.11
398.16	1481.56
398.35	1542.41
398.55	1479.22
398.74	1465.18
398.93	1605.61
399.12	1509.65
399.32	1497.94
399.51	1610.29
399.70	1692.21
399.90	1631.35
400.09	1629.01
400.28	1596.25
400.47	1652.42
400.67	1699.23
400.86	1682.85
401.05	1739.02
401.24	1678.16
401.44	1820.94
401.63	1746.04
401.82	1717.95
402.01	1769.44
402.21	1703.91
402.40	1865.41
402.59	1748.38
402.78	1893.49
402.97	1785.83
403.17	1792.85
403.36	1802.21
403.55	1872.43
403.74	1902.86
403.93	1984.77
404.13	1956.69
404.32	1944.99
404.51	2017.54
404.70	1954.35
404.89	2045.63
405.09	2012.86
405.28	2012.86
405.47	1989.46
405.66	1966.05
405.85	2040.95
406.05	1977.75
406.24	2071.37
406.43	2083.08
406.62	2108.82
406.81	2265.64
407.00	2129.89
407.20	2099.46
407.39	2094.78
407.58	2174.36
407.77	2258.62
407.96	2298.41
408.15	2363.94
408.34	2214.15
408.54	2284.36
408.73	2291.38
408.92	2370.96
409.11	2476.29
409.30	2314.79
409.49	2422.45
409.68	2403.73
409.87	2277.34
410.07	2401.39
410.26	2480.97
410.45	2548.84
410.64	2558.21
410.83	2558.21
411.02	2487.99
411.21	2583.95
411.40	2630.76
411.59	2813.32
411.78	2710.34
411.98	2647.15
412.17	2689.28
412.36	2740.77
412.55	2595.65
412.74	2738.43
412.93	2796.94
413.12	2836.73
413.31	2890.56
413.50	2888.22
413.69	2930.35
413.88	2949.08
414.07	2906.95
414.26	2871.84
414.45	3063.76
414.64	3103.55
414.83	3197.17
415.02	3131.64
415.22	3307.18
415.41	3185.47
415.60	3124.62
415.79	3304.84
415.98	3290.79
416.17	3323.56
416.36	3361.01
416.55	3400.80
416.74	3365.69
416.93	3307.18
417.12	3302.50
417.31	3309.52
417.50	3440.59
417.69	3440.59
417.88	3543.57
418.07	3419.52
418.26	3368.03
418.45	3641.87
418.64	3662.94
418.83	3538.89
419.02	3665.28
419.21	3658.26
419.39	3730.81
419.58	3555.27
419.77	3592.72
419.96	3770.60
420.15	3641.87
420.34	3723.79
420.53	3747.20
420.72	3854.86
420.91	3922.74
421.10	3779.97
421.29	3880.61
421.48	3920.40
421.67	3974.23
421.86	3934.44
422.05	3847.84
422.24	3852.52
422.43	3829.12
422.61	3967.21
422.80	3889.97
422.99	3948.48
423.18	3826.78
423.37	3992.95
423.56	3950.82
423.75	4060.83
423.94	3978.91
424.13	3850.18
424.32	3967.21
424.50	4159.13
424.69	3983.59
424.88	4081.89
425.07	3932.10
425.26	3992.95
425.45	4077.21
425.64	4081.89
425.83	4084.23
426.01	4039.76
426.20	4138.07
426.39	4180.20
426.58	4114.66
426.77	4011.68
426.96	3995.29
427.15	4070.19
427.33	4248.07
427.52	4060.83
427.71	4297.22
427.90	4114.66
428.09	4138.07
428.28	4365.10
428.46	4219.99
428.65	4252.75
428.84	4311.27
429.03	4301.90
429.22	4318.29
429.40	4248.07
429.59	4133.39
429.78	3892.31
429.97	4154.45
430.16	4051.47
430.34	4203.60
430.53	4304.25
430.72	4430.63
430.91	4280.84
431.10	4545.32
431.28	4585.11
431.47	4772.35
431.66	4718.52
431.85	4601.49
432.03	4840.23
432.22	4746.61
432.41	4842.57
432.60	4926.83
432.79	4863.63
432.97	4922.15
433.16	4760.65
433.35	4770.01
433.54	4821.50
433.72	4784.06
433.91	4737.24
434.10	4727.88
434.28	4795.76
434.47	4957.25
434.66	4851.93
434.85	5055.56
435.03	5074.28
435.22	5137.48
435.41	5240.46
435.59	5181.95
435.78	5263.86
435.97	5156.20
436.16	5331.74
436.34	5282.59
436.53	5320.04
436.72	5451.11
436.90	5203.01
437.09	5252.16
437.28	5200.67
437.46	5217.05
437.65	5107.05
437.84	5305.99
438.02	5165.56
438.21	5268.55
438.40	5263.86
438.58	5476.85
438.77	5502.60
438.96	5469.83
439.14	5584.52
439.33	5603.24
439.52	5692.18
439.70	5731.97
439.89	5680.48
440.08	5713.25
440.26	5734.31
440.45	5881.77
440.63	5832.62
440.82	6122.84
441.01	5928.58
441.19	6232.85
441.38	6197.74
441.57	6160.29
441.75	6061.99
441.94	6406.05
442.12	6424.77
442.31	6450.52
442.50	6459.88
442.68	6569.88
442.87	6317.11
443.05	6370.94
443.24	6647.12
443.43	6513.71
443.61	6553.50
443.80	6766.49
443.98	6555.84
444.17	6469.24
444.35	6640.10
444.54	6796.92
444.73	6820.32
444.91	6726.70
445.10	6658.82
445.28	6506.69
445.47	6623.72
445.65	6417.75
445.84	6558.18
446.02	6679.89
446.21	6778.19
446.39	6555.84
446.58	6738.40
446.77	6686.91
446.95	6705.63
447.14	6731.38
447.32	6803.94
447.51	6773.51
447.69	6740.74
447.88	6850.75
448.06	6817.98
448.25	6930.33
448.43	6745.42
448.62	6794.58
448.80	6862.45
448.99	6909.26
449.17	7169.06
449.36	6946.71
449.54	7258.00
449.73	7208.85
449.91	7316.51
450.10	7300.13
450.28	7243.96
450.46	7398.43
450.65	7375.03
450.83	7318.86
451.02	7173.74
451.20	7515.46
451.39	7482.69
451.57	7145.66
451.76	7515.46
451.94	7391.41
452.13	7274.38
452.31	7180.76
452.49	7300.13
452.68	7295.45
452.86	7400.77
453.05	7330.56
453.23	7466.31
453.42	7269.70
453.60	7599.72
453.78	7658.23
453.97	7597.38
454.15	7524.82
454.34	7349.28
454.52	7562.27
454.70	7646.53
454.89	7592.70
455.07	7693.34
455.26	7751.85
455.44	7878.24
455.62	7805.69
455.81	7948.46
455.99	7817.39
456.17	7873.56
456.36	7887.61
456.54	8173.15
456.73	8004.63
456.91	8226.98
457.09	8259.75
457.28	8219.96
457.46	8065.49
457.64	8273.79
457.83	8081.87
458.01	8222.30
458.19	8400.18
458.38	8168.47
458.56	8475.08
458.74	8374.44
458.93	8278.47
459.11	8402.52
459.29	8334.65
459.48	8489.12
459.66	8514.87
459.84	8549.98
460.03	8746.58
460.21	8624.87
460.39	8610.83
460.57	8681.05
460.76	8800.41
460.94	8835.52
461.12	8987.66
461.31	8905.74
461.49	8858.93
461.67	8868.29
461.85	9071.92
462.04	8982.98
462.22	9497.89
462.40	9062.55
462.59	9116.39
462.77	9109.36
462.95	9039.15
463.13	9116.39
463.32	8919.78
463.50	9219.37
463.68	9242.78
463.86	9123.41
464.05	8994.68
464.23	9195.96
464.41	9294.27
464.59	8973.61
464.78	9373.85
464.96	9095.32
465.14	9224.05
465.32	9415.98
465.50	9423.00
465.69	9373.85
465.87	9282.56
466.05	9327.03
466.23	9430.02
466.41	9245.12
466.60	9518.96
466.78	9432.36
466.96	9184.26
467.14	9479.17
467.32	9493.21
467.51	9851.31
467.69	9387.89
467.87	9593.86
468.05	9753.01
468.23	9643.01
468.41	9624.28
468.60	9710.88
468.78	9694.50
468.96	9582.15
469.14	9692.16
469.32	9902.81
469.50	9521.30
469.69	9958.98
469.87	10120.48
470.05	9860.68
470.23	10050.26
470.41	10001.11
470.59	10162.61
470.77	10008.13
470.95	10001.11
471.14	10380.28
471.32	10153.24
471.50	10406.02
471.68	10698.59
471.86	10413.04
472.04	10630.71
472.22	10853.06
472.40	10626.03
472.58	10705.61
472.77	10527.73
472.95	10764.12
473.13	11105.84
473.31	10553.48
473.49	10817.96
473.67	10607.31
473.85	10963.07
474.03	11150.31
474.21	11190.10
474.39	11190.10
474.57	11253.30
474.75	11433.52
474.93	11382.03
475.12	11454.58
475.30	11288.40
475.48	11419.47
475.66	11382.03
475.84	11538.84
476.02	11641.82
476.20	11665.23
476.38	11871.20
476.56	12168.45
476.74	12131.00
476.92	12259.73
477.10	11915.67
477.28	12077.16
477.46	12201.21
477.64	12170.79
477.82	12418.88
478.00	12709.11
478.18	12882.31
478.36	12699.75
478.54	12985.29
478.72	12758.26
478.90	13135.09
479.08	13200.62
479.26	13338.71
479.44	13490.85
479.62	13369.14
479.80	13736.60
479.98	13811.50
480.16	13666.39
480.34	13816.18
480.52	14045.55
480.70	14085.34
480.88	13996.40
481.06	14090.02
481.24	14134.50
481.41	14649.41
481.59	14775.80
481.77	14803.89
481.95	14651.75
482.13	14733.67
482.31	14637.71
482.49	15063.69
482.67	15143.27
482.85	15346.89
483.03	15489.67
483.21	15398.38
483.39	15346.89
483.57	15527.11
483.74	15688.61
483.92	15697.97
484.10	15875.85
484.28	15829.04
484.46	16336.94
484.64	16592.06
484.82	16451.63
485.00	16503.12
485.18	16673.98
485.35	16851.86
485.53	16589.72
485.71	16533.54
485.89	16341.62
486.07	16322.90
486.25	16936.12
486.43	16774.62
486.61	17001.65
486.78	17275.49
486.96	17603.17
487.14	18059.57
487.32	18092.34
487.50	18188.30
487.68	18497.25
487.85	18689.18
488.03	18841.31
488.21	18988.77
488.39	18808.54
488.57	18869.40
488.75	18707.90
488.92	19234.52
489.10	19697.95
489.28	19515.39
489.46	19948.39
489.64	20177.76
489.81	20711.40
489.99	20322.87
490.17	20383.73
490.35	20872.90
490.53	20446.92
490.70	20919.71
490.88	20397.77
491.06	21151.42
491.24	21273.13
491.41	20575.65
491.59	20954.82
491.77	21294.19
491.95	21209.93
492.13	21495.48
492.30	21586.76
492.48	22024.44
492.66	22108.70
492.84	22071.25
493.01	22742.99
493.19	22354.46
493.37	22530.00
493.54	22490.21
493.72	22761.71
493.90	22911.50
494.08	23250.88
494.25	23517.70
494.43	23665.16
494.61	23817.29
494.79	23871.12
494.96	23810.27
495.14	23910.91
495.32	23906.23
495.49	24016.24
495.67	24170.71
495.85	24428.17
496.02	24327.53
496.20	24294.76
496.38	24856.49
496.55	25090.54
496.73	25240.34
496.91	24978.20
497.09	25390.13
497.26	25425.24
497.44	25795.04
497.62	25825.47
497.79	26113.36
497.97	25170.12
498.14	25855.90
498.32	25781.00
498.50	25528.22
498.67	26426.99
498.85	26333.37
499.03	26778.07
499.20	26525.29
499.38	26740.62
499.56	26609.55
499.73	26740.62
499.91	27051.91
500.08	26801.47
500.26	26586.15
500.44	27115.11
500.61	27218.09
500.79	26855.31
500.97	27248.52
501.14	27419.38
501.32	27377.25
501.49	27644.07
501.67	27672.15
501.84	27728.33
502.02	27960.04
502.20	27903.87
502.37	28294.74
502.55	28137.92
502.72	28292.40
502.90	28446.87
503.07	28226.86
503.25	28292.40
503.43	28603.69
503.60	28379.00
503.78	28444.53
503.95	28769.86
504.13	28673.90
504.30	29291.80
504.48	29050.73
504.65	29106.90
504.83	29406.49
505.01	29628.84
505.18	29741.19
505.36	29905.02
505.53	29558.63
505.71	29488.41
505.88	30171.85
506.06	29687.36
506.23	29766.93
506.41	29818.42
506.58	30213.98
506.76	30146.10
506.93	30426.96
507.11	30445.69
507.28	30417.60
507.46	30129.72
507.63	30588.46
507.81	30778.04
507.98	30609.53
508.16	30466.75
508.33	30876.35
508.50	31386.58
508.68	31405.31
508.85	31269.56
509.03	31122.10
509.20	31239.13
509.38	31508.29
509.55	31519.99
509.73	31838.31
509.90	31718.94
510.08	31583.19
510.25	31424.03
510.42	32032.57
510.60	32222.16
510.77	32254.92
510.95	32149.60
511.12	32271.31
511.30	32566.21
511.47	32500.68
511.64	32861.12
511.82	33181.77
511.99	32467.91
512.17	32804.95
512.34	32854.10
512.51	32767.50
512.69	32891.55
512.86	33127.94
513.04	33212.20
513.21	33514.13
513.38	32713.67
513.56	33525.83
513.73	32961.76
513.90	33275.40
514.08	33324.55
514.25	33425.19
514.43	33523.49
514.60	33502.43
514.77	33846.49
514.95	34171.82
515.12	34064.16
515.29	34314.59
515.47	34412.90
515.64	34555.67
515.81	33940.11
515.99	34309.91
516.16	34192.89
516.33	34103.95
516.51	33905.00
516.68	33394.76
516.85	33624.14
517.03	33600.73
517.20	34396.51
517.37	34471.41
517.54	34684.40
517.72	34707.80
517.89	34213.95
518.06	34220.97
518.24	34319.28
518.41	34452.69
518.58	34829.51
518.75	34543.97
518.93	35065.91
519.10	35454.44
519.27	35608.91
519.45	35239.11
519.62	35559.76
519.79	35899.14
519.96	35927.22
520.14	35730.62
520.31	35416.99
520.48	35988.08
520.65	36161.28
520.83	36093.40
521.00	36540.44
521.17	35995.10
521.34	36313.41
521.52	36158.94
521.69	36378.95
521.86	36957.06
522.03	36807.26
522.20	36884.50
522.38	37177.07
522.55	36613.00
522.72	36580.23
522.89	36816.63
523.07	36835.35
523.24	37085.79
523.41	37448.57
523.58	36933.65
523.75	38092.22
523.92	37631.13
524.10	37783.27
524.27	37626.45
524.44	37846.46
524.61	37556.24
524.78	37900.29
524.96	37717.73
525.13	37663.90
525.30	38148.39
525.47	37912.00
525.64	37968.17
525.81	37797.31
525.98	37897.95
526.16	37724.75
526.33	37509.43
526.50	37919.02
526.67	37294.10
526.84	38031.36
527.01	37827.74
527.18	38066.47
527.36	38541.60
527.53	38969.92
527.70	38557.99
527.87	38616.50
528.04	38586.07
528.21	38738.21
528.38	39304.62
528.55	39332.70
528.72	39232.06
528.89	39690.80
529.07	39220.36
529.24	38801.40
529.41	39353.77
529.58	39189.93
529.75	39140.78
529.92	39402.92
530.09	39168.87
530.26	39522.29
530.43	39632.29
530.60	39501.22
530.77	39552.71
530.94	39976.35
531.11	39318.66
531.28	39737.62
531.46	39721.23
531.63	40240.83
531.80	39910.82
531.97	39910.82
532.14	39756.34
532.31	39541.01
532.48	39573.78
532.65	40289.98
532.82	39948.26
532.99	39983.37
533.16	39997.41
533.33	40392.97
533.50	39957.63
533.67	40360.20
533.84	40247.85
534.01	39938.90
534.18	40582.55
534.35	40725.32
534.52	40701.92
534.69	40793.20
534.86	40968.74
535.03	41024.91
535.20	41212.15
535.37	41516.42
535.54	41516.42
535.71	41373.65
535.88	41163.00
536.05	40889.16
536.22	41511.74
536.38	41085.76
536.55	41045.97
536.72	41179.39
536.89	40931.29
537.06	40835.33
537.23	41577.28
537.40	41549.19
537.57	41521.10
537.74	41511.74
537.91	41717.71
538.08	41762.18
538.25	41258.96
538.42	41642.81
538.59	41261.30
538.75	41521.10
538.92	41975.17
539.09	41895.59
539.26	41450.89
539.43	41706.01
539.60	41787.92
539.77	41778.56
539.94	41588.98
540.11	42202.20
540.28	41792.61
540.44	41804.31
540.61	41926.02
540.78	41490.68
540.95	41837.08
541.12	41790.27
541.29	42272.42
541.46	41986.87
541.62	42256.03
541.79	42478.38
541.96	42300.50
542.13	41911.97
542.30	42265.39
542.47	42270.08
542.63	42340.29
542.80	42663.28
542.97	42848.19
543.14	42983.94
543.31	42829.46
543.48	43030.75
543.64	43292.89
543.81	43161.82
543.98	43468.43
544.15	43051.81
544.32	43152.46
544.48	43526.94
544.65	43604.18
544.82	43016.71
544.99	42925.42
545.16	43077.56
545.32	43316.29
545.49	43679.08
545.66	43655.67
545.83	43629.93
546.00	43367.79
546.16	43466.09
546.33	43569.07
546.50	43536.30
546.67	43866.32
546.83	43082.24
547.00	43730.57
547.17	43636.95
547.34	43325.66
547.50	43753.97
547.67	43983.35
547.84	44114.42
548.00	43786.74
548.17	43868.66
548.34	44329.75
548.51	44378.90
548.67	44137.82
548.84	43910.79
549.01	43770.36
549.18	43999.73
549.34	44179.95
549.51	44030.16
549.68	43913.13
549.84	44140.16
550.01	44559.12
550.18	44477.20
550.34	44109.74
550.51	44512.31
550.68	44086.33
550.84	43875.68
551.01	44563.80
551.18	44748.70
551.34	44509.97
551.51	44219.74
551.68	44980.42
551.84	44865.73
552.01	44055.90
552.18	44685.51
552.34	44383.58
552.51	44795.51
552.68	44432.73
552.84	44821.26
553.01	44905.52
553.18	45085.74
553.34	44854.03
553.51	44837.64
553.67	44994.46
553.84	45120.85
554.01	44591.89
554.17	44825.94
554.34	44994.46
554.51	44659.76
554.67	44961.69
554.84	44830.62
555.00	44851.69
555.17	44680.83
555.33	45504.70
555.50	45125.53
555.67	45188.72
555.83	45357.24
556.00	45151.27
556.16	45392.35
556.33	44657.42
556.50	45331.50
556.66	45214.47
556.83	45165.32
556.99	45294.05
557.16	45511.72
557.32	45516.40
557.49	45670.87
557.65	44861.05
557.82	45593.64
557.98	45457.88
558.15	45490.65
558.32	45228.51
558.48	45415.76
558.65	45333.84
558.81	45483.63
558.98	45647.47
559.14	45069.36
559.31	45125.53
559.47	45626.40
559.64	44975.73
559.80	45284.68
559.97	45591.30
560.13	45102.12
560.30	45401.71
560.46	45668.53
560.63	45518.74
560.79	45773.86
560.96	45762.15
561.12	45488.31
561.29	45572.57
561.45	45911.95
561.61	45787.90
561.78	45336.18
561.94	45415.76
562.11	45855.78
562.27	45420.44
562.44	45385.33
562.60	45764.49
562.77	45853.44
562.93	45429.80
563.10	45691.94
563.26	45879.18
563.42	45940.04
563.59	45783.22
563.75	45956.42
563.92	46089.83
564.08	46064.08
564.24	45785.56
564.41	45886.20
564.57	46043.02
564.74	46155.36
564.90	46028.98
565.07	45785.56
565.23	46021.95
565.39	45947.06
565.56	45914.29
565.72	46036.00
565.88	45937.69
566.05	45729.39
566.21	45556.19
566.38	45923.65
566.54	46440.91
566.70	46380.06
566.87	46110.89
567.03	46190.47
567.19	46838.80
567.36	46274.73
567.52	46087.49
567.68	46054.72
567.85	45930.67
568.01	46047.70
568.17	46059.40
568.34	45954.08
568.50	46068.76
568.66	46082.81
568.83	46178.77
568.99	45525.76
569.15	46164.73
569.32	46134.30
569.48	45970.46
569.64	46593.04
569.81	46246.65
569.97	46260.69
570.13	46281.75
570.30	45668.53
570.46	45902.59
570.62	45659.17
570.78	45570.23
570.95	45750.45
571.11	46246.65
571.27	45645.13
571.43	45818.33
571.60	46209.20
571.76	45837.05
571.92	46248.99
572.09	46204.52
572.25	46220.90
572.41	46319.20
572.57	46553.26
572.74	46398.78
572.90	46408.14
573.06	46422.19
573.22	46178.77
573.38	46581.34
573.55	46188.13
573.71	46827.10
573.87	46101.53
574.03	45968.12
574.20	46478.36
574.36	46146.00
574.52	46447.93
574.68	46408.14
574.84	46160.05
575.01	46333.24
575.17	46485.38
575.33	45949.40
575.49	46012.59
575.65	46277.07
575.82	46218.56
575.98	46401.12
576.14	46127.28
576.30	46398.78
576.46	46380.06
576.62	46150.68
576.79	46220.90
576.95	46054.72
577.11	46440.91
577.27	46190.47
577.43	46396.44
577.59	46148.34
577.75	46241.96
577.92	45689.60
578.08	45968.12
578.24	46129.62
578.40	46408.14
578.56	46019.61
578.72	45839.39
578.88	46143.66
579.04	46412.82
579.21	46071.10
579.37	46146.00
579.53	46831.78
579.69	45979.82
579.85	46181.11
580.01	46480.70
580.17	46274.73
580.33	45998.55
580.49	46536.87
580.65	46382.40
580.82	46356.65
580.98	46141.32
581.14	46167.07
581.30	46429.21
581.46	46124.94
581.62	46651.56
581.78	45940.04
581.94	46941.78
582.10	46375.37
582.26	46452.61
582.42	46335.59
582.58	46384.74
582.74	46562.62
582.90	46560.28
583.06	46419.84
583.22	46483.04
583.38	46644.54
583.54	46768.58
583.70	46562.62
583.86	46646.88
584.02	46349.63
584.18	46707.73
584.34	46487.72
584.50	46419.84
584.66	46391.76
584.82	46731.14
584.98	46557.94
585.14	46443.25
585.30	46344.95
585.46	46408.14
585.62	46169.41
585.78	45897.91
585.94	46344.95
586.10	46354.31
586.26	46293.46
586.42	46450.27
586.58	46380.06
586.74	46471.34
586.90	46707.73
587.06	46277.07
587.22	46445.59
587.38	46522.83
587.54	46433.89
587.70	46869.23
587.86	46225.58
588.02	46164.73
588.18	46560.28
588.34	45998.55
588.49	45797.26
588.65	45759.81
588.81	45605.34
588.97	45923.65
589.13	46117.92
589.29	46061.74
589.45	45928.33
589.61	46417.50
589.77	46440.91
589.93	46747.52
590.08	46452.61
590.24	46279.41
590.40	46838.80
590.56	46887.95
590.72	46293.46
590.88	46368.35
591.04	46773.27
591.20	46866.89
591.35	46810.71
591.51	46630.49
591.67	46461.97
591.83	46667.94
591.99	46579.00
592.15	46351.97
592.31	46366.01
592.46	46693.69
592.62	46422.19
592.78	46731.14
592.94	46761.56
593.10	46651.56
593.26	46894.97
593.41	46541.55
593.57	46267.71
593.73	46209.20
593.89	46740.50
594.05	46642.20
594.20	46532.19
594.36	46707.73
594.52	46684.33
594.68	46602.41
594.84	46527.51
594.99	46681.98
595.15	46700.71
595.31	46714.75
595.47	46574.32
595.62	46557.94
595.78	46560.28
595.94	46745.18
596.10	46911.36
596.25	46705.39
596.41	46454.95
596.57	46330.90
596.73	46571.98
596.88	46878.59
597.04	46623.47
597.20	46539.21
597.36	46553.26
597.51	46850.50
597.67	46600.07
597.83	46813.05
597.99	46326.22
598.14	46138.98
598.30	46777.95
598.46	46782.63
598.61	46876.25
598.77	46480.70
598.93	46600.07
599.09	46784.97
599.24	47210.95
599.40	46763.90
599.56	47070.51
599.71	46520.49
599.87	46740.50
600.03	46897.31
600.18	46770.93
600.34	46447.93
600.50	46419.84
600.65	46445.59
600.81	46459.63
600.97	46876.25
601.12	46791.99
601.28	46597.73
601.44	46567.30
601.59	46424.53
601.75	45954.08
601.91	45937.69
602.06	46389.42
602.22	46459.63
602.37	46443.25
602.53	46602.41
602.69	46810.71
602.84	46707.73
603.00	46349.63
603.16	46976.89
603.31	46361.33
603.47	46600.07
603.62	46197.49
603.78	46696.03
603.94	46752.20
604.09	47110.30
604.25	46164.73
604.40	46307.50
604.56	46586.02
604.71	46871.57
604.87	46579.00
605.03	46305.16
605.18	46569.64
605.34	46333.24
605.49	46248.99
605.65	46604.75
605.80	46447.93
605.96	46478.36
606.12	46277.07
606.27	46328.56
606.43	46340.27
606.58	46674.96
606.74	46499.42
606.89	46068.76
607.05	46337.93
607.20	46644.54
607.36	46368.35
607.51	46515.81
607.67	46454.95
607.82	46146.00
607.98	46227.92
608.13	46263.03
608.29	46094.51
608.44	45666.19
608.60	45549.17
608.75	46663.26
608.91	46534.53
609.06	46127.28
609.22	46230.26
609.37	46192.81
609.53	45869.82
609.68	46136.64
609.84	46436.23
609.99	45832.37
610.15	45794.92
610.30	45411.07
610.46	45680.24
610.61	45790.24
610.76	45972.80
610.92	46080.47
611.07	46019.61
611.23	45514.06
611.38	46068.76
611.54	45979.82
611.69	45422.78
611.84	45799.60
612.00	46033.66
612.15	45404.05
612.31	45764.49
612.46	45855.78
612.62	46171.75
612.77	45642.79
612.92	45684.92
613.08	45350.22
613.23	45588.95
613.39	45092.76
613.54	45048.29
613.69	45542.14
613.85	45020.20
614.00	45654.49
614.15	45375.97
614.31	45539.80
614.46	45738.75
614.62	45022.54
614.77	45441.50
614.92	45144.25
615.08	44825.94
615.23	45277.66
615.38	45427.46
615.54	44877.43
615.69	45013.18
615.84	45244.90
616.00	45181.70
616.15	45198.09
616.30	45343.20
616.46	45165.32
616.61	45272.98
616.76	44854.03
616.92	44870.41
617.07	45258.94
617.22	44612.95
617.37	44952.33
617.53	45324.47
617.68	45170.00
617.83	44835.30
617.99	44687.85
618.14	44748.70
618.29	44650.40
618.45	44732.32
618.60	44329.75
618.75	44612.95
618.90	44425.71
619.06	44624.65
619.21	44409.32
619.36	44573.16
619.51	44463.16
619.67	44266.55
619.82	44437.41
619.97	44598.91
620.12	43770.36
620.28	43983.35
620.43	44369.54
620.58	44694.87
620.73	44151.87
620.89	44051.22
621.04	44423.37
621.19	44725.30
621.34	44584.86
621.49	44198.68
621.65	44369.54
621.80	44540.39
621.95	44194.00
622.10	44240.81
622.25	43931.86
622.41	44044.20
622.56	44247.83
622.71	43964.62
622.86	44170.59
623.01	43880.36
623.16	44163.57
623.32	43959.94
623.47	43704.82
623.62	43929.51
623.77	43995.05
623.92	44170.59
624.07	43732.91
624.23	43463.75
624.38	43257.78
624.53	43995.05
624.68	43821.85
624.83	43587.80
624.98	43936.54
625.13	43543.33
625.29	43353.74
625.44	43421.62
625.59	43662.69
625.74	43112.67
625.89	42815.42
626.04	43264.80
626.19	43089.26
626.34	43601.84
626.49	43704.82
626.65	42780.31
626.80	43440.34
626.95	43115.01
627.10	42934.79
627.25	43117.35
627.40	42916.06
627.55	42880.95
627.70	42958.19
627.85	42948.83
628.00	42775.63
628.15	42911.38
628.30	43154.80
628.45	43164.16
628.60	43016.71
628.76	43189.91
628.91	42602.43
629.06	42684.35
629.21	42550.94
629.36	42555.62
629.51	42602.43
629.66	42649.24
629.81	42431.57
629.96	42883.30
630.11	42651.58
630.26	42887.98
630.41	42789.67
630.56	42492.43
630.71	42471.36
630.86	42557.96
631.01	42806.06
631.16	42080.49
631.31	42611.79
631.46	42302.84
631.61	42246.67
631.76	42085.17
631.91	42555.62
632.06	42157.73
632.21	42061.77
632.36	42464.34
632.51	41986.87
632.66	42590.73
632.81	41455.57
632.96	41982.19
633.10	41942.40
633.25	41963.46
633.40	42031.34
633.55	42124.96
633.70	41720.05
633.85	42139.00
634.00	42019.64
634.15	41982.19
634.30	41895.59
634.45	41701.32
634.60	41500.04
634.75	41523.44
634.90	41106.83
635.05	41317.48
635.19	41710.69
635.34	41614.72
635.49	41888.57
635.64	41441.53
635.79	41565.57
635.94	41804.31
636.09	41296.41
636.24	41216.83
636.39	41345.56
636.53	41617.07
636.68	41055.34
636.83	41060.02
636.98	41486.00
637.13	41062.36
637.28	41455.57
637.43	41888.57
637.57	41092.79
637.72	41127.89
637.87	41383.01
638.02	41364.29
638.17	41191.09
638.32	41394.71
638.46	41034.27
638.61	41017.89
638.76	41214.49
638.91	41282.37
639.06	41111.51
639.20	41010.87
639.35	41221.52
639.50	40966.40
639.65	41045.97
639.80	40783.83
639.94	40828.30
640.09	40559.14
640.24	40884.48
640.39	40514.67
640.54	40629.36
640.68	40832.99
640.83	40343.81
640.98	40320.41
641.13	40882.14
641.27	40992.14
641.42	40477.22
641.57	40650.42
641.72	40603.61
641.86	40725.32
642.01	40142.53
642.16	40205.72
642.31	39849.96
642.45	40547.44
642.60	40465.52
642.75	40306.37
642.90	39838.26
643.04	40687.87
643.19	39978.69
643.34	40442.12
643.48	40011.46
643.63	40224.45
643.78	39938.90
643.93	40566.16
644.07	40051.25
644.22	39723.57
644.37	39913.16
644.51	40086.36
644.66	39842.94
644.81	40165.93
644.95	40179.98
645.10	39805.49
645.25	39643.99
645.39	40020.82
645.54	39798.47
645.69	39505.90
645.83	39709.53
645.98	39304.62
646.13	39828.90
646.27	39985.71
646.42	39192.27
646.57	39440.37
646.71	39620.59
646.86	39784.43
647.00	39852.30
647.15	39510.58
647.30	39590.16
647.44	39267.17
647.59	39426.32
647.74	39461.43
647.88	39253.12
648.03	39328.02
648.17	39234.40
648.32	39103.33
648.47	39129.08
648.61	38969.92
648.76	39512.92
648.90	39419.30
649.05	39215.68
649.20	39124.40
649.34	38965.24
649.49	38792.04
649.63	38948.85
649.78	39150.14
649.92	39171.21
650.07	39044.82
650.21	38871.62
650.36	38738.21
650.51	38787.36
650.65	39545.69
650.80	39138.44
650.94	39337.38
651.09	38529.90
651.23	38632.88
651.38	38555.64
651.52	38443.30
651.67	38139.03
651.81	38132.01
651.96	38167.12
652.10	38719.48
652.25	38361.38
652.39	39218.02
652.54	38660.97
652.68	38330.95
652.83	38323.93
652.97	38761.61
653.12	38457.34
653.26	38459.68
653.41	38005.62
653.55	38277.12
653.70	38457.34
653.84	38429.26
653.99	38234.99
654.13	38075.84
654.27	38588.41
654.42	38272.44
654.56	38354.36
654.71	38000.94
654.85	37876.89
655.00	38450.32
655.14	37972.85
655.29	37638.15
655.43	37483.68
655.57	37799.65
655.72	37572.62
655.86	37649.86
656.01	37378.36
656.15	37146.64
656.30	36926.63
656.44	37256.65
656.58	37722.41
656.73	37460.27
656.87	37371.33
657.01	37729.44
657.16	37350.27
657.30	37156.00
657.45	36935.99
657.59	36912.59
657.73	37235.58
657.88	37684.97
658.02	37724.75
658.16	38024.34
658.31	37563.26
658.45	37708.37
658.60	37258.99
658.74	37457.93
658.88	37427.51
659.03	36823.65
659.17	36734.71
659.31	36973.44
659.46	36893.86
659.60	37095.15
659.74	37123.24
659.89	36573.21
660.03	36683.22
660.17	37031.96
660.32	36856.42
660.46	37202.82
660.60	36507.68
660.74	36840.03
660.89	36875.14
661.03	36364.90
661.17	36715.98
661.32	36650.45
661.46	36964.08
661.60	35824.24
661.74	36247.88
661.89	36381.29
662.03	36147.23
662.17	36404.69
662.31	36715.98
662.46	36718.32
662.60	36449.16
662.74	36060.63
662.88	36004.46
663.03	35512.95
663.17	35857.01
663.31	35512.95
663.45	35641.68
663.60	35824.24
663.74	35728.28
663.88	35283.58
664.02	35283.58
664.17	36065.31
664.31	35178.25
664.45	35498.91
664.59	35260.17
664.73	35227.40
664.88	35318.68
665.02	34733.55
665.16	35232.08
665.30	34625.89
665.44	34696.10
665.59	34862.28
665.73	34639.93
665.87	34733.55
666.01	34740.57
666.15	34785.04
666.29	34871.64
666.44	34850.58
666.58	34707.80
666.72	34515.88
666.86	34361.40
667.00	34927.81
667.14	34939.52
667.28	34178.84
667.43	34663.33
667.57	34579.07
667.71	33993.94
667.85	34108.63
667.99	34139.05
668.13	34733.55
668.27	34382.47
668.41	34258.42
668.56	33666.27
668.70	33799.68
668.84	33392.42
668.98	34239.70
669.12	33294.12
669.26	33413.49
669.40	33221.56
669.54	33380.72
669.68	33371.36
669.82	33539.88
669.96	33567.96
670.10	32877.51
670.25	33249.65
670.39	32985.17
670.53	33230.93
670.67	32917.29
670.81	32968.79
670.95	32947.72
671.09	32872.82
671.23	32872.82
671.37	32835.38
671.51	32914.95
671.65	32638.77
671.79	32641.11
671.93	32453.87
672.07	32491.32
672.21	32456.21
672.35	32023.21
672.49	31864.05
672.63	32297.05
672.77	32112.15
672.91	32020.87
673.05	31665.11
673.19	32023.21
673.33	31281.26
673.47	31622.98
673.61	31683.83
673.75	31292.96
673.89	31618.30
674.03	31494.25
674.17	31660.43
674.31	31496.59
674.45	31599.57
674.59	31538.72
674.73	31885.12
674.87	31365.52
675.01	31072.95
675.15	30876.35
675.29	30984.01
675.43	30958.27
675.56	30759.32
675.70	31239.13
675.84	31054.23
675.98	29954.18
676.12	30237.38
676.26	30536.97
676.40	30661.02
676.54	30277.17
676.68	30546.33
676.82	29771.61
676.96	29699.06
677.10	29937.79
677.23	30003.33
677.37	29582.03
677.51	29771.61
677.65	29652.25
677.79	29406.49
677.93	29223.93
678.07	28912.64
678.21	28774.55
678.34	28779.23
678.48	28802.63
678.62	28936.04
678.76	28271.33
678.90	28692.63
679.04	28477.30
679.18	28484.32
679.31	27833.65
679.45	28079.41
679.59	28149.62
679.73	28058.34
679.87	28006.85
680.00	28189.41
680.14	27838.33
680.28	27868.76
680.42	27662.79
680.56	27543.42
680.70	27569.17
680.83	27513.00
680.97	27683.86
681.11	27545.76
681.25	27344.48
681.39	27241.50
681.52	27054.25
681.66	27054.25
681.80	26955.95
681.94	26728.92
682.07	26551.04
682.21	26532.31
682.35	26551.04
682.49	26579.12
682.62	26326.35
682.76	26132.08
682.90	26466.78
683.04	26024.42
683.17	26059.52
683.31	25621.84
683.45	26024.42
683.59	25797.38
683.72	25909.73
683.86	25722.49
684.00	25333.96
684.13	25434.60
684.27	25514.18
684.41	25296.51
684.55	25048.41
684.68	25261.40
684.82	25245.02
684.96	24968.84
685.09	24603.71
685.23	24973.52
685.37	24868.19
685.50	24659.88
685.64	24638.82
685.78	24561.58
685.91	24271.36
686.05	24063.05
686.19	24126.24
686.32	24049.00
686.46	23501.32
686.60	23232.16
686.73	23344.50
686.87	23309.40
687.01	23323.44
687.14	22876.40
687.28	22895.12
687.42	23143.22
687.55	23089.38
687.69	23262.58
687.82	22960.66
687.96	23047.26
688.10	22913.84
688.23	22579.15
688.37	22654.05
688.50	22621.28
688.64	22618.94
688.78	22508.93
688.91	22239.77
689.05	22146.15
689.18	22019.76
689.32	21799.75
689.46	22008.06
689.59	22396.59
689.73	22267.86
689.86	22040.82
690.00	21738.90
690.13	21956.57
690.27	21371.43
690.41	21298.88
690.54	21317.60
690.68	21532.93
690.81	21486.12
690.95	21369.09
691.08	21228.66
691.22	21212.28
691.35	21120.99
691.49	21106.95
691.62	20940.77
691.76	20751.19
691.89	20748.85
692.03	20716.08
692.16	20346.28
692.30	20472.67
692.43	20350.96
692.57	20421.17
692.70	20262.02
692.84	20175.42
692.97	19896.89
693.11	19822.00
693.24	19513.05
693.38	19726.04
693.51	19744.76
693.65	19325.80
693.78	19339.85
693.92	19590.28
694.05	19585.60
694.19	19391.34
694.32	19442.83
694.45	19576.24
694.59	19445.17
694.72	18843.65
694.86	18712.58
694.99	18902.17
695.13	18941.96
695.26	18885.78
695.39	18551.09
695.53	18817.91
695.66	18455.12
695.80	18621.30
695.93	18616.62
696.07	18284.26
696.20	18555.77
696.33	18190.64
696.47	18146.17
696.60	18160.22
696.73	17530.61
696.87	17640.62
697.00	17659.34
697.14	17135.06
697.27	17465.08
697.40	17497.84
697.54	17429.97
697.67	17212.30
697.80	17434.65
697.94	17312.94
698.07	17451.03
698.21	17181.87
698.34	17137.40
698.47	16821.43
698.61	16776.96
698.74	16893.99
698.87	16908.03
699.01	16568.65
699.14	16486.73
699.27	16453.97
699.40	16301.83
699.54	16367.37
699.67	16163.74
699.80	16119.27
699.94	16208.21
700.07	16219.91
700.20	16222.25
700.34	16105.23
700.47	16149.70
700.60	15950.75
700.73	16119.27
700.87	15836.06
701.00	15611.37
701.13	15283.70
701.26	15492.01
701.40	15480.30
701.53	15140.93
701.66	15433.49
701.79	15178.37
701.93	15122.20
702.06	15225.18
702.19	15063.69
702.32	14831.97
702.46	14745.38
702.59	15030.92
702.72	14789.85
702.85	14789.85
702.99	14778.14
703.12	14647.07
703.25	14401.32
703.38	14497.28
703.51	14387.27
703.65	14438.76
703.78	14260.88
703.91	14036.19
704.04	13743.63
704.17	14047.90
704.31	13841.93
704.44	13951.93
704.57	13797.46
704.70	13640.64
704.83	13626.60
704.96	13914.48
705.10	13696.82
705.23	13551.70
>>>>>End Processed Spectral Data<<<<<
