SpectraSuite Data File
++++++++++++++++++++++++++++++++++++
Date: Fri Oct 25 10:44:42 EDT 2013
User: price-jones
Dark Spectrum Present: No
Reference Spectrum Present: No
Number of Sampled Component Spectra: 1
Spectrometers: USB2+H05261
Integration Time (usec): 100000 (USB2+H05261)
Spectra Averaged: 1 (USB2+H05261)
Boxcar Smoothing: 0 (USB2+H05261)
Correct for Electrical Dark: No (USB2+H05261)
Strobe/Lamp Enabled: No (USB2+H05261)
Correct for Detector Non-linearity: No (USB2+H05261)
Correct for Stray Light: No (USB2+H05261)
Number of Pixels in Processed Spectrum: 2048
>>>>>Begin Processed Spectral Data<<<<<
365.73	161.50
365.92	161.50
366.12	161.50
366.32	56.17
366.52	35.11
366.72	53.83
366.91	0.00
367.11	46.81
367.31	2.34
367.51	11.70
367.70	72.56
367.90	98.30
368.10	18.72
368.30	23.41
368.49	0.00
368.69	0.00
368.89	0.00
369.09	58.51
369.28	65.54
369.48	95.96
369.68	110.01
369.87	145.11
370.07	56.17
370.27	152.13
370.47	217.67
370.66	358.10
370.86	418.96
371.06	411.93
371.25	458.74
371.45	421.30
371.65	475.13
371.84	440.02
372.04	433.00
372.24	472.79
372.44	498.53
372.63	449.38
372.83	540.66
373.03	479.81
373.22	521.94
373.42	428.32
373.62	456.40
373.81	517.26
374.01	524.28
374.21	538.32
374.40	425.98
374.60	491.51
374.79	568.75
374.99	540.66
375.19	489.17
375.38	575.77
375.58	582.79
375.78	564.07
375.97	524.28
376.17	533.64
376.37	617.90
376.56	620.24
376.76	554.71
376.95	643.65
377.15	622.58
377.35	568.75
377.54	561.73
377.74	566.41
377.93	599.18
378.13	603.86
378.33	599.18
378.52	533.64
378.72	657.69
378.91	627.26
379.11	582.79
379.31	657.69
379.50	566.41
379.70	638.97
379.89	657.69
380.09	645.99
380.28	657.69
380.48	662.37
380.68	592.16
380.87	645.99
381.07	568.75
381.26	716.20
381.46	585.13
381.65	657.69
381.85	589.82
382.04	634.29
382.24	660.03
382.43	624.92
382.63	624.92
382.83	681.10
383.02	653.01
383.22	695.14
383.41	692.80
383.61	669.39
383.80	800.46
384.00	695.14
384.19	795.78
384.39	716.20
384.58	667.05
384.78	772.38
384.97	730.25
385.17	718.54
385.36	805.14
385.56	723.23
385.75	697.48
385.95	774.72
386.14	760.67
386.34	777.06
386.53	777.06
386.72	802.80
386.92	781.74
387.11	784.08
387.31	800.46
387.50	755.99
387.70	734.93
387.89	828.55
388.09	816.85
388.28	767.70
388.48	770.04
388.67	830.89
388.86	968.98
389.06	795.78
389.25	957.28
389.45	912.81
389.64	884.72
389.84	875.36
390.03	854.30
390.22	966.64
390.42	854.30
390.61	947.92
390.81	922.17
391.00	957.28
391.19	973.66
391.39	987.71
391.58	940.90
391.78	943.24
391.97	978.34
392.16	964.30
392.36	1041.54
392.55	990.05
392.75	992.39
392.94	957.28
393.13	1015.79
393.33	917.49
393.52	1008.77
393.71	1062.60
393.91	1015.79
394.10	1011.11
394.29	1086.01
394.49	1039.20
394.68	1095.37
394.88	1041.54
395.07	1221.76
395.26	1193.67
395.46	1100.05
395.65	1200.69
395.84	1177.29
396.04	1172.61
396.23	1170.27
396.42	1114.10
396.62	1083.67
396.81	1100.05
397.00	1090.69
397.19	1198.35
397.39	1224.10
397.58	1219.42
397.77	1249.85
397.97	1198.35
398.16	1313.04
398.35	1355.17
398.55	1322.40
398.74	1291.98
398.93	1306.02
399.12	1210.06
399.32	1245.16
399.51	1343.47
399.70	1486.24
399.90	1390.28
400.09	1420.71
400.28	1390.28
400.47	1507.30
400.67	1462.83
400.86	1493.26
401.05	1413.68
401.24	1465.18
401.44	1526.03
401.63	1493.26
401.82	1460.49
402.01	1476.88
402.21	1565.82
402.40	1486.24
402.59	1406.66
402.78	1586.88
402.97	1519.01
403.17	1542.41
403.36	1605.61
403.55	1680.50
403.74	1654.76
403.93	1629.01
404.13	1710.93
404.32	1631.35
404.51	1685.19
404.70	1694.55
404.89	1575.18
405.09	1781.15
405.28	1713.27
405.47	1687.53
405.66	1795.19
405.85	1727.32
406.05	1783.49
406.24	1823.28
406.43	1823.28
406.62	1933.28
406.81	1874.77
407.00	1858.39
407.20	1764.76
407.39	1710.93
407.58	1870.09
407.77	1926.26
407.96	1893.49
408.15	2076.06
408.34	1865.41
408.54	1994.14
408.73	1923.92
408.92	2066.69
409.11	2010.52
409.30	2078.40
409.49	2043.29
409.68	2118.18
409.87	2059.67
410.07	2062.01
410.26	2022.22
410.45	2069.03
410.64	2218.83
410.83	2204.78
411.02	2172.02
411.21	2246.91
411.40	2235.21
411.59	2307.77
411.78	2335.85
411.98	2385.01
412.17	2431.82
412.36	2476.29
412.55	2499.69
412.74	2534.80
412.93	2452.88
413.12	2387.35
413.31	2473.95
413.50	2551.18
413.69	2576.93
413.88	2757.15
414.07	2626.08
414.26	2684.59
414.45	2588.63
414.64	2743.11
414.83	2754.81
415.02	2637.78
415.22	2743.11
415.41	2815.66
415.60	2848.43
415.79	2750.13
415.98	2857.79
416.17	2848.43
416.36	2834.39
416.55	2876.52
416.74	2944.39
416.93	2953.76
417.12	2972.48
417.31	3002.91
417.50	3000.57
417.69	3061.42
417.88	3042.70
418.07	3028.65
418.26	3096.53
418.45	3171.43
418.64	3318.88
418.83	3141.00
419.02	3255.69
419.21	3304.84
419.39	3129.30
419.58	3253.34
419.77	3265.05
419.96	3251.00
420.15	3297.81
420.34	3318.88
420.53	3396.12
420.72	3426.54
420.91	3424.20
421.10	3389.10
421.29	3414.84
421.48	3323.56
421.67	3440.59
421.86	3304.84
422.05	3508.46
422.24	3428.88
422.43	3316.54
422.61	3454.63
422.80	3557.61
422.99	3435.91
423.18	3489.74
423.37	3627.83
423.56	3492.08
423.75	3442.93
423.94	3386.76
424.13	3372.71
424.32	3346.97
424.50	3548.25
424.69	3707.41
424.88	3653.58
425.07	3487.40
425.26	3522.51
425.45	3494.42
425.64	3475.70
425.83	3658.26
426.01	3602.08
426.20	3569.32
426.39	3548.25
426.58	3625.49
426.77	3569.32
426.96	3557.61
427.15	3471.01
427.33	3662.94
427.52	3705.07
427.71	3705.07
427.90	3667.62
428.09	3808.05
428.28	3742.52
428.46	3709.75
428.65	3798.69
428.84	3845.50
429.03	3822.09
429.22	3728.47
429.40	3847.84
429.59	3758.90
429.78	3574.00
429.97	3623.15
430.16	3826.78
430.34	3854.86
430.53	3899.33
430.72	3850.18
430.91	3934.44
431.10	3885.29
431.28	4093.60
431.47	4074.87
431.66	4170.83
431.85	3964.87
432.03	4159.13
432.22	4189.56
432.41	4063.17
432.60	4149.77
432.79	4063.17
432.97	4304.25
433.16	4156.79
433.35	4238.71
433.54	4276.16
433.72	4234.03
433.91	4238.71
434.10	4194.24
434.28	4421.27
434.47	4374.46
434.66	4428.29
434.85	4454.04
435.03	4489.15
435.22	4489.15
435.41	4674.05
435.59	4641.28
435.78	4603.83
435.97	4559.36
436.16	4575.75
436.34	4674.05
436.53	4610.86
436.72	4772.35
436.90	4479.79
437.09	4723.20
437.28	4589.79
437.46	4725.54
437.65	4622.56
437.84	4615.54
438.02	4713.84
438.21	4734.90
438.40	4554.68
438.58	4807.46
438.77	4945.55
438.96	4917.47
439.14	5020.45
439.33	5039.17
439.52	5142.16
439.70	5008.75
439.89	5130.45
440.08	5027.47
440.26	5259.18
440.45	5254.50
440.63	5315.36
440.82	5465.15
441.01	5355.15
441.19	5434.72
441.38	5423.02
441.57	5493.24
441.75	5460.47
441.94	5537.71
442.12	5530.69
442.31	5544.73
442.50	5694.52
442.68	5575.16
442.87	5577.50
443.05	5755.38
443.24	5736.65
443.43	5804.53
443.61	5888.79
443.80	6111.14
443.98	5535.37
444.17	5636.01
444.35	5874.74
444.54	5944.96
444.73	5893.47
444.91	5769.42
445.10	5989.43
445.28	5736.65
445.47	5813.89
445.65	5610.26
445.84	5956.66
446.02	5937.94
446.21	5968.37
446.39	5870.06
446.58	5825.59
446.77	6026.88
446.95	5919.21
447.14	6129.86
447.32	6174.33
447.51	6099.44
447.69	5853.68
447.88	5980.07
448.06	6113.48
448.25	6186.04
448.43	6038.58
448.62	6076.03
448.80	5982.41
448.99	6204.76
449.17	6183.70
449.36	5944.96
449.54	6296.04
449.73	6176.67
449.91	6520.73
450.10	6389.66
450.28	6370.94
450.46	6431.79
450.65	6366.26
450.83	6303.06
451.02	6291.36
451.20	6551.16
451.39	6539.46
451.57	6520.73
451.76	6443.49
451.94	6614.35
452.13	6579.25
452.31	6600.31
452.49	6338.17
452.68	6504.35
452.86	6569.88
453.05	6602.65
453.23	6696.27
453.42	6532.44
453.60	6511.37
453.78	6623.72
453.97	6443.49
454.15	6626.06
454.34	6691.59
454.52	6633.08
454.70	6621.38
454.89	6651.80
455.07	6876.49
455.26	6853.09
455.44	7000.54
455.62	6916.28
455.81	7159.70
455.99	7056.72
456.17	6977.14
456.36	7021.61
456.54	7019.27
456.73	7255.66
456.91	7290.77
457.09	7206.51
457.28	7566.95
457.46	7190.13
457.64	7344.60
457.83	7302.47
458.01	7133.95
458.19	7459.29
458.38	7382.05
458.56	7543.55
458.74	7283.75
458.93	7265.02
459.11	7440.56
459.29	7487.37
459.48	7538.87
459.66	7698.02
459.84	7592.70
460.03	7822.07
460.21	7761.22
460.39	7709.72
460.57	7693.34
460.76	7721.43
460.94	7801.01
461.12	7850.16
461.31	7882.92
461.49	7798.66
461.67	7768.24
461.85	7866.54
462.04	7889.95
462.22	8065.49
462.40	8163.79
462.59	8037.40
462.77	7990.59
462.95	8135.70
463.13	7990.59
463.32	8114.64
463.50	8119.32
463.68	8119.32
463.86	8074.85
464.05	8016.33
464.23	8128.68
464.41	8348.69
464.59	8060.80
464.78	8397.84
464.96	8301.88
465.14	8189.53
465.32	8184.85
465.50	8353.37
465.69	8477.42
465.87	8255.07
466.05	8372.10
466.23	8198.90
466.41	8325.29
466.60	8681.05
466.78	8386.14
466.96	8163.79
467.14	8346.35
467.32	8493.80
467.51	8751.26
467.69	8285.50
467.87	8376.78
468.05	8720.84
468.23	8613.17
468.41	8566.36
468.60	8514.87
468.78	8753.60
468.96	8552.32
469.14	8875.31
469.32	8961.91
469.50	8585.08
469.69	9081.28
469.87	8821.48
470.05	9107.02
470.23	8826.16
470.41	8889.35
470.59	8933.82
470.77	8964.25
470.95	9001.70
471.14	9205.33
471.32	8861.27
471.50	9289.59
471.68	9404.27
471.86	9408.95
472.04	9432.36
472.22	9668.75
472.40	9158.52
472.58	9525.98
472.77	9568.11
472.95	9689.82
473.13	9799.82
473.31	9511.94
473.49	9582.15
473.67	9776.42
473.85	9720.24
474.03	10108.77
474.21	10125.16
474.39	10085.37
474.57	9947.28
474.75	10183.67
474.93	10129.84
475.12	10106.43
475.30	10178.99
475.48	10085.37
475.66	10258.57
475.84	10242.18
476.02	10464.54
476.20	10317.08
476.38	10656.46
476.56	10920.94
476.74	10949.03
476.92	10878.81
477.10	10796.89
477.28	10855.40
477.46	10965.41
477.64	11021.58
477.82	11199.46
478.00	11595.01
478.18	11473.31
478.36	11463.94
478.54	11527.14
478.72	11667.57
478.90	11800.98
479.08	11941.41
479.26	11669.91
479.44	11925.03
479.62	12107.59
479.80	12191.85
479.98	12194.19
480.16	12299.52
480.34	12343.99
480.52	12652.94
480.70	12444.63
480.88	12196.53
481.06	12414.20
481.24	12629.53
481.41	12992.31
481.59	13116.36
481.77	13212.32
481.95	13039.12
482.13	13219.35
482.31	13233.39
482.49	13317.65
482.67	13453.40
482.85	13657.03
483.03	13891.08
483.21	13926.19
483.39	14113.43
483.57	14047.90
483.74	14340.46
483.92	14221.10
484.10	14300.67
484.28	14427.06
484.46	14485.58
484.64	14663.46
484.82	14551.11
485.00	14532.39
485.18	14827.29
485.35	15286.04
485.53	14707.93
485.71	15054.33
485.89	15384.34
486.07	15508.39
486.25	15346.89
486.43	15454.56
486.61	15758.83
486.78	15854.79
486.96	16020.97
487.14	16276.09
487.32	16018.63
487.50	16601.42
487.68	16346.30
487.85	16512.48
488.03	17050.80
488.21	17104.64
488.39	17245.07
488.57	17245.07
488.75	17444.01
488.92	17649.98
489.10	17837.22
489.28	17717.86
489.46	18134.47
489.64	18183.62
489.81	18340.44
489.99	18211.71
490.17	18284.26
490.35	18717.26
490.53	18649.39
490.70	18551.09
490.88	18614.28
491.06	18925.57
491.24	18693.86
491.41	19211.12
491.59	19187.71
491.77	19152.60
491.95	19522.41
492.13	19585.60
492.30	20018.60
492.48	19861.79
492.66	20072.43
492.84	20119.24
493.01	20276.06
493.19	20379.04
493.37	20240.95
493.54	20486.71
493.72	20596.71
493.90	20624.80
494.08	21043.76
494.25	21308.24
494.43	21462.71
494.61	21544.63
494.79	21521.23
494.96	21544.63
495.14	21537.61
495.32	21872.31
495.49	22057.21
495.67	21724.85
495.85	22441.06
496.02	22120.40
496.20	22445.74
496.38	22345.09
496.55	22471.48
496.73	23103.43
496.91	22707.88
497.09	22895.12
497.26	23318.76
497.44	22689.15
497.62	23297.69
497.79	23246.20
497.97	23262.58
498.14	23580.90
498.32	23608.98
498.50	23690.90
498.67	23637.07
498.85	24121.56
499.03	24074.75
499.20	24222.20
499.38	24173.05
499.56	24070.07
499.73	24428.17
499.91	24503.07
500.08	24802.66
500.26	24386.04
500.44	24713.72
500.61	24786.27
500.79	24622.44
500.97	25177.14
501.14	25088.20
501.32	24905.64
501.49	25205.23
501.67	25656.95
501.84	25319.92
502.02	25319.92
502.20	25649.93
502.37	25640.57
502.55	25549.29
502.72	25764.62
502.90	25991.65
503.07	25986.97
503.25	26033.78
503.43	26026.76
503.60	26256.13
503.78	25947.18
503.95	26164.85
504.13	26312.30
504.30	26780.41
504.48	26651.68
504.65	26827.22
504.83	26712.53
505.01	27019.14
505.18	27084.68
505.36	27393.63
505.53	26955.95
505.71	27421.72
505.88	27332.78
506.06	27281.28
506.23	27550.45
506.41	27026.17
506.58	27718.96
506.76	27463.85
506.93	27728.33
507.11	27580.87
507.28	28170.69
507.46	27742.37
507.63	27690.88
507.81	28149.62
507.98	27871.10
508.16	28065.36
508.33	28521.77
508.50	28311.12
508.68	28402.40
508.85	29008.60
509.03	28788.59
509.20	28678.58
509.38	28936.04
509.55	29137.33
509.73	29053.07
509.90	29469.69
510.08	28868.17
510.25	29205.20
510.42	29280.10
510.60	29249.67
510.77	29972.90
510.95	29989.28
511.12	29434.58
511.30	29834.81
511.47	29986.94
511.64	29759.91
511.82	30139.08
511.99	29881.62
512.17	30333.34
512.34	29769.27
512.51	30232.70
512.69	30450.37
512.86	30263.13
513.04	30607.19
513.21	30438.67
513.38	30323.98
513.56	30424.62
513.73	30583.78
513.90	30616.55
514.08	30822.51
514.25	31225.09
514.43	31014.44
514.60	30906.77
514.77	30974.65
514.95	31311.69
515.12	31271.90
515.29	31541.06
515.47	31564.46
515.64	31608.93
515.81	31501.27
515.99	31316.37
516.16	31606.59
516.33	31487.23
516.51	31770.43
516.68	31613.62
516.85	31307.01
517.03	31842.99
517.20	32091.09
517.37	32123.85
517.54	32051.30
517.72	32341.52
517.89	32177.68
518.06	32229.18
518.24	31960.02
518.41	31835.97
518.58	32107.47
518.75	32341.52
518.93	32416.42
519.10	32491.32
519.27	33202.84
519.45	32947.72
519.62	33022.62
519.79	33010.92
519.96	33013.26
520.14	32849.42
520.31	32957.08
520.48	33415.83
520.65	33497.75
520.83	33736.48
521.00	33954.15
521.17	33717.76
521.34	33621.80
521.52	33591.37
521.69	33696.69
521.86	33991.60
522.03	34162.46
522.20	34057.14
522.38	33820.74
522.55	34377.79
522.72	34047.77
522.89	33872.23
523.07	34579.07
523.24	34022.03
523.41	34628.23
523.58	34223.31
523.75	34941.86
523.92	34583.76
524.10	34789.72
524.27	34632.91
524.44	34773.34
524.61	35103.35
524.78	34848.24
524.96	35201.66
525.13	35232.08
525.30	35288.26
525.47	35379.54
525.64	35255.49
525.81	35292.94
525.98	35688.49
526.16	35262.51
526.33	35061.22
526.50	35679.13
526.67	35260.17
526.84	35414.65
527.01	35103.35
527.18	35592.53
527.36	36009.14
527.53	35442.73
527.70	36453.84
527.87	36383.63
528.04	35906.16
528.21	36231.49
528.38	35910.84
528.55	36435.12
528.72	36484.27
528.89	36449.16
529.07	36549.81
529.24	36306.39
529.41	36748.75
529.58	36271.28
529.75	36320.43
529.92	36409.37
530.09	36961.74
530.26	36900.89
530.43	36966.42
530.60	36680.88
530.77	37003.87
530.94	36928.97
531.11	36697.26
531.28	36914.93
531.46	36989.83
531.63	37258.99
531.80	37104.51
531.97	36975.78
532.14	37525.81
532.31	37242.60
532.48	37289.42
532.65	37390.06
532.82	37188.77
532.99	37605.39
533.16	37024.93
533.33	37897.95
533.50	37823.06
533.67	37748.16
533.84	37720.07
534.01	37841.78
534.18	37481.34
534.35	37940.08
534.52	37883.91
534.69	38071.15
534.86	38040.73
535.03	37759.86
535.20	38134.35
535.37	38976.94
535.54	38274.78
535.71	38314.57
535.88	38597.77
536.05	38391.81
536.22	38763.95
536.38	38099.24
536.55	38637.56
536.72	38265.42
536.89	38211.59
537.06	38572.03
537.23	38632.88
537.40	38569.69
537.57	39000.35
537.74	38735.87
537.91	39210.99
538.08	38738.21
538.25	38892.68
538.42	38691.40
538.59	39009.71
538.75	38824.81
538.92	38918.43
539.09	38670.33
539.26	38948.85
539.43	38775.66
539.60	39494.20
539.77	39157.16
539.94	38951.20
540.11	39346.75
540.28	39445.05
540.44	39395.90
540.61	39665.06
540.78	39056.52
540.95	39253.12
541.12	39431.01
541.29	39459.09
541.46	39250.78
541.62	39732.93
541.79	39751.66
541.96	39269.51
542.13	39929.54
542.30	39910.82
542.47	39901.45
542.63	39957.63
542.80	40154.23
542.97	39950.60
543.14	40430.41
543.31	40465.52
543.48	40376.58
543.64	41027.25
543.81	40816.60
543.98	40617.66
544.15	40397.65
544.32	40875.12
544.48	40917.25
544.65	40987.46
544.82	41132.57
544.99	40659.79
545.16	40659.79
545.32	40624.68
545.49	41177.04
545.66	40954.69
545.83	41354.93
546.00	41722.39
546.16	40865.75
546.33	40524.04
546.50	40795.54
546.67	40849.37
546.83	40605.95
547.00	40935.97
547.17	40994.48
547.34	41074.06
547.50	40954.69
547.67	41429.82
547.84	41392.37
548.00	41280.03
548.17	41727.07
548.34	41415.78
548.51	41780.90
548.67	41764.52
548.84	41890.91
549.01	41340.88
549.18	41556.21
549.34	41876.86
549.51	41675.58
549.68	42143.69
549.84	41588.98
550.01	41902.61
550.18	41799.63
550.34	42136.66
550.51	41736.43
550.68	42017.30
550.84	41677.92
551.01	41977.51
551.18	42305.18
551.34	42108.58
551.51	42169.43
551.68	42333.27
551.84	42281.78
552.01	42122.62
552.18	41801.97
552.34	42164.75
552.51	42220.92
552.68	42136.66
552.84	42740.52
553.01	42674.99
553.18	42309.86
553.34	42288.80
553.51	42033.68
553.67	42707.76
553.84	42796.70
554.01	42185.82
554.17	42684.35
554.34	42410.51
554.51	42586.05
554.67	42913.72
554.84	42485.40
555.00	42705.41
555.17	42401.14
555.33	42789.67
555.50	42450.30
555.67	42368.38
555.83	42667.97
556.00	42728.82
556.16	43150.12
556.33	42581.37
556.50	42586.05
556.66	42934.79
556.83	42258.37
556.99	43323.32
557.16	43257.78
557.32	43131.39
557.49	43328.00
557.65	43147.78
557.82	42649.24
557.98	43082.24
558.15	42834.14
558.32	42939.47
558.48	43225.01
558.65	43126.71
558.81	43079.90
558.98	43093.94
559.14	43248.42
559.31	43459.07
559.47	43379.49
559.64	43650.99
559.80	43292.89
559.97	43208.63
560.13	43246.08
560.30	43037.77
560.46	43295.23
560.63	42995.64
560.79	43189.91
560.96	43288.21
561.12	43629.93
561.29	43365.45
561.45	43831.21
561.61	43124.37
561.78	43531.62
561.94	43133.73
562.11	43505.88
562.27	43470.77
562.44	43512.90
562.60	43653.33
562.77	43793.76
562.93	43608.86
563.10	43662.69
563.26	43393.53
563.42	43910.79
563.59	43374.81
563.75	43419.28
563.92	44100.37
564.08	44079.31
564.24	43882.70
564.41	43971.64
564.57	43931.86
564.74	43871.00
564.90	43538.65
565.07	43643.97
565.23	43545.67
565.39	43964.62
565.56	43896.75
565.72	43990.37
565.88	44205.70
566.05	43655.67
566.21	43665.03
566.38	43983.35
566.54	43819.51
566.70	43992.71
566.87	44318.04
567.03	43697.80
567.19	44617.63
567.36	44020.80
567.52	43896.75
567.68	44596.57
567.85	43952.92
568.01	44339.11
568.17	43618.22
568.34	43821.85
568.50	43742.27
568.66	43798.44
568.83	44048.88
568.99	43636.95
569.15	43849.94
569.32	43959.94
569.48	43768.02
569.64	43871.00
569.81	44060.58
569.97	43931.86
570.13	44130.80
570.30	43723.55
570.46	43753.97
570.62	44046.54
570.78	44135.48
570.95	44196.34
571.11	44444.43
571.27	43526.94
571.43	44065.27
571.60	44030.16
571.76	43924.83
571.92	43625.25
572.09	44039.52
572.25	43901.43
572.41	43906.11
572.57	44432.73
572.74	44519.33
572.90	44488.90
573.06	44224.42
573.22	44170.59
573.38	44254.85
573.55	44055.90
573.71	44355.49
573.87	44201.02
574.03	43849.94
574.20	44559.12
574.36	44315.70
574.52	44594.23
574.68	44390.60
574.84	44385.92
575.01	44196.34
575.17	44163.57
575.33	43973.98
575.49	43831.21
575.65	44423.37
575.82	44575.50
575.98	44271.23
576.14	44622.31
576.30	44554.44
576.46	44446.77
576.62	44250.17
576.79	43665.03
576.95	43871.00
577.11	44594.23
577.27	44360.17
577.43	44392.94
577.59	44589.55
577.75	44212.72
577.92	44116.76
578.08	44327.41
578.24	44423.37
578.40	44088.67
578.56	44189.31
578.72	44830.62
578.88	44626.99
579.04	44175.27
579.21	44744.02
579.37	44240.81
579.53	44444.43
579.69	44212.72
579.85	44231.44
580.01	44655.08
580.17	44418.69
580.33	44690.19
580.49	44659.76
580.65	44802.53
580.82	44809.56
580.98	44655.08
581.14	44135.48
581.30	45102.12
581.46	45003.82
581.62	44531.03
581.78	44264.21
581.94	44966.37
582.10	44294.64
582.26	44514.65
582.42	44612.95
582.58	44425.71
582.74	44353.15
582.90	44477.20
583.06	44526.35
583.22	44823.60
583.38	44463.16
583.54	45006.16
583.70	44247.83
583.86	44589.55
584.02	44704.23
584.18	44552.10
584.34	44626.99
584.50	44559.12
584.66	44357.83
584.82	44446.77
584.98	44797.85
585.14	44601.25
585.30	44542.74
585.46	44495.92
585.62	44397.62
585.78	44432.73
585.94	44320.38
586.10	44308.68
586.26	44184.63
586.42	44900.84
586.58	44882.11
586.74	44875.09
586.90	44453.79
587.06	44334.43
587.22	44790.83
587.38	44165.91
587.54	44566.14
587.70	44388.26
587.86	44790.83
588.02	44336.77
588.18	44861.05
588.34	44201.02
588.49	44083.99
588.65	43859.30
588.81	44219.74
588.97	43973.98
589.13	44624.65
589.29	44453.79
589.45	44905.52
589.61	44631.68
589.77	44797.85
589.93	44505.29
590.08	44531.03
590.24	44694.87
590.40	44797.85
590.56	44804.88
590.72	44924.24
590.88	44343.79
591.04	44952.33
591.20	45198.09
591.35	45113.83
591.51	45116.17
591.67	44832.96
591.83	45092.76
591.99	44566.14
592.15	44896.16
592.31	44849.35
592.46	44524.01
592.62	44652.74
592.78	44938.29
592.94	44769.77
593.10	44582.52
593.26	44917.22
593.41	44765.09
593.57	44708.91
593.73	45165.32
593.89	44416.35
594.05	44912.54
594.20	44889.13
594.36	45085.74
594.52	44477.20
594.68	44559.12
594.84	44896.16
594.99	45270.64
595.15	44999.14
595.31	45008.50
595.47	44959.35
595.62	45027.23
595.78	45109.14
595.94	44989.78
596.10	45090.42
596.25	44994.46
596.41	45581.93
596.57	44561.46
596.73	44629.34
596.88	44713.59
597.04	44718.28
597.20	44634.02
597.36	44919.56
597.51	45125.53
597.67	44802.53
597.83	45179.36
597.99	45074.04
598.14	44804.88
598.30	44598.91
598.46	44390.60
598.61	44472.52
598.77	44655.08
598.93	44591.89
599.09	45155.96
599.24	45408.73
599.40	44825.94
599.56	45139.57
599.71	44388.26
599.87	44957.01
600.03	45113.83
600.18	44861.05
600.34	44673.81
600.50	45151.27
600.65	44563.80
600.81	44474.86
600.97	45373.63
601.12	45375.97
601.28	44781.47
601.44	44793.17
601.59	44793.17
601.75	44896.16
601.91	44889.13
602.06	45015.52
602.22	45048.29
602.37	44774.45
602.53	44767.43
602.69	45134.89
602.84	44456.14
603.00	44837.64
603.16	44690.19
603.31	44870.41
603.47	44907.86
603.62	45055.31
603.78	45230.85
603.94	44739.34
604.09	45710.66
604.25	44982.76
604.40	44594.23
604.56	45038.93
604.71	44966.37
604.87	44872.75
605.03	44905.52
605.18	44505.29
605.34	44884.45
605.49	44603.59
605.65	44444.43
605.80	44680.83
605.96	44898.50
606.12	44985.10
606.27	45132.55
606.43	44996.80
606.58	44725.30
606.74	44619.97
606.89	44243.15
607.05	44545.08
607.20	44755.72
607.36	44823.60
607.51	44655.08
607.67	44619.97
607.82	44872.75
607.98	44720.62
608.13	44533.37
608.29	44610.61
608.44	44671.46
608.60	44404.64
608.75	44460.82
608.91	44186.97
609.06	44238.47
609.22	44800.19
609.37	43969.30
609.53	44371.88
609.68	44755.72
609.84	44528.69
609.99	44371.88
610.15	44060.58
610.30	44313.36
610.46	44044.20
610.61	44535.71
610.76	44322.72
610.92	44596.57
611.07	44374.22
611.23	44053.56
611.38	44509.97
611.54	44196.34
611.69	44065.27
611.84	44196.34
612.00	44423.37
612.15	43964.62
612.31	44596.57
612.46	43859.30
612.62	44062.93
612.77	43716.53
612.92	44409.32
613.08	43643.97
613.23	43983.35
613.39	43990.37
613.54	43812.49
613.69	44165.91
613.85	44254.85
614.00	44348.47
614.15	44006.75
614.31	44133.14
614.46	44189.31
614.62	43910.79
614.77	44072.29
614.92	43791.42
615.08	43746.95
615.23	43639.29
615.38	43871.00
615.54	43725.89
615.69	43985.69
615.84	43328.00
616.00	43407.58
616.15	43580.78
616.30	43765.68
616.46	43107.99
616.61	43332.68
616.76	43416.94
616.92	43012.02
617.07	42848.19
617.22	43292.89
617.37	43175.86
617.53	43901.43
617.68	43585.46
617.83	43583.12
617.99	43683.76
618.14	43438.00
618.29	43398.21
618.45	42672.65
618.60	42829.46
618.75	43166.50
618.90	43510.56
619.06	43548.01
619.21	43093.94
619.36	43496.52
619.51	43491.83
619.67	43236.72
619.82	43428.64
619.97	43658.01
620.12	43126.71
620.28	42918.40
620.43	42667.97
620.58	42962.87
620.73	43356.08
620.89	43353.74
621.04	43049.47
621.19	43360.76
621.34	42677.33
621.49	43000.32
621.65	42768.61
621.80	42572.00
621.95	42883.30
622.10	42717.12
622.25	42401.14
622.41	42293.48
622.56	42408.17
622.71	43047.13
622.86	42518.17
623.01	42581.37
623.16	42663.28
623.32	42817.76
623.47	43047.13
623.62	42478.38
623.77	42396.46
623.92	42684.35
624.07	42436.25
624.23	42220.92
624.38	42094.53
624.53	42057.09
624.68	42192.84
624.83	42351.99
624.98	42553.28
625.13	42314.55
625.29	42277.10
625.44	41923.68
625.59	41890.91
625.74	41804.31
625.89	41701.32
626.04	41893.25
626.19	41848.78
626.34	41968.15
626.49	42007.94
626.65	42293.48
626.80	42007.94
626.95	42117.94
627.10	41996.23
627.25	41867.50
627.40	41701.32
627.55	41808.99
627.70	41006.19
627.85	41528.13
628.00	41624.09
628.15	41177.04
628.30	41296.41
628.45	41886.23
628.60	41687.28
628.76	41642.81
628.91	41584.30
629.06	41820.69
629.21	41315.14
629.36	41130.23
629.51	41530.47
629.66	40919.59
629.81	41188.75
629.96	41113.85
630.11	41275.35
630.26	41366.63
630.41	41380.67
630.56	41652.17
630.71	41001.50
630.86	40964.06
631.01	40989.80
631.16	41385.35
631.31	41216.83
631.46	40776.81
631.61	41326.84
631.76	40779.15
631.91	41118.53
632.06	41668.56
632.21	40907.88
632.36	41261.30
632.51	40734.68
632.66	40793.20
632.81	40399.99
632.96	40762.77
633.10	40390.62
633.25	40875.12
633.40	40631.70
633.55	40685.53
633.70	40758.09
633.85	40622.34
634.00	40598.93
634.15	40680.85
634.30	40456.16
634.45	40669.15
634.60	40636.38
634.75	40914.90
634.90	40570.85
635.05	40577.87
635.19	40320.41
635.34	40458.50
635.49	40238.49
635.64	40421.05
635.79	40512.33
635.94	40243.17
636.09	40456.16
636.24	40072.31
636.39	40297.00
636.53	39814.85
636.68	39892.09
636.83	40575.53
636.98	40542.76
637.13	39938.90
637.28	39931.88
637.43	40203.38
637.57	40676.17
637.72	40432.75
637.87	40130.83
638.02	39945.92
638.17	40257.21
638.32	39618.25
638.46	39744.64
638.61	39697.83
638.76	39531.65
638.91	40076.99
639.06	40076.99
639.20	39695.49
639.35	39847.62
639.50	40002.10
639.65	40074.65
639.80	40294.66
639.94	39412.28
640.09	39739.96
640.24	39393.56
640.39	39019.07
640.54	39215.68
640.68	39543.35
640.83	39372.49
640.98	39585.48
641.13	39232.06
641.27	39791.45
641.42	39220.36
641.57	39508.24
641.72	39225.04
641.86	39105.67
642.01	38930.13
642.16	39234.40
642.31	38749.91
642.45	39515.26
642.60	38841.19
642.75	39328.02
642.90	39304.62
643.04	39321.00
643.19	38813.10
643.34	39077.58
643.48	38866.94
643.63	39136.10
643.78	38778.00
643.93	38780.34
644.07	38859.91
644.22	38813.10
644.37	38682.03
644.51	38609.48
644.66	38955.88
644.81	38939.49
644.95	39311.64
645.10	38888.00
645.25	39023.75
645.39	39079.92
645.54	38820.13
645.69	38864.60
645.83	38600.12
645.98	38948.85
646.13	38794.38
646.27	38506.49
646.42	38230.31
646.57	38501.81
646.71	38443.30
646.86	38237.33
647.00	38880.98
647.15	38689.06
647.30	38309.89
647.44	38492.45
647.59	38073.49
647.74	38227.97
647.88	38120.31
648.03	38377.76
648.17	38415.21
648.32	38251.38
648.47	38153.07
648.61	37619.43
648.76	37844.12
648.90	38415.21
649.05	38115.62
649.20	38146.05
649.34	38272.44
649.49	37940.08
649.63	37830.08
649.78	37773.91
649.92	37684.97
650.07	38045.41
650.21	37593.68
650.36	37661.56
650.51	37645.18
650.65	37729.44
650.80	38155.41
650.94	38218.61
651.09	37862.85
651.23	37689.65
651.38	37565.60
651.52	37680.28
651.67	37839.44
651.81	37301.12
651.96	37354.95
652.10	37298.78
652.25	37432.19
652.39	37684.97
652.54	37823.06
652.68	37656.88
652.83	37209.84
652.97	37844.12
653.12	37432.19
653.26	37366.65
653.41	37303.46
653.55	37312.82
653.70	37153.66
653.84	37380.70
653.99	37549.21
654.13	37675.60
654.27	37116.22
654.42	36957.06
654.56	37111.53
654.71	36985.15
654.85	37605.39
655.00	37296.44
655.14	36802.58
655.29	36865.78
655.43	36818.97
655.57	36463.21
655.72	36519.38
655.86	36514.70
656.01	36577.89
656.15	36329.80
656.30	36825.99
656.44	36884.50
656.58	36430.44
656.73	36739.39
656.87	36744.07
657.01	36416.40
657.16	37062.38
657.30	36732.37
657.45	36460.87
657.59	36519.38
657.73	36591.94
657.88	37200.47
658.02	37048.34
658.16	36568.53
658.31	36617.68
658.45	36215.11
658.60	35894.46
658.74	36400.01
658.88	36374.27
659.03	36100.42
659.17	36217.45
659.31	36018.50
659.46	36023.19
659.60	36493.63
659.74	36212.77
659.89	35962.33
660.03	35583.16
660.17	36009.14
660.32	35976.37
660.46	36105.10
660.60	35929.56
660.74	36261.92
660.89	35688.49
661.03	35625.29
661.17	35288.26
661.32	35126.76
661.46	35601.89
661.60	35339.75
661.74	35147.82
661.89	35721.26
662.03	35304.64
662.17	35260.17
662.31	34965.26
662.46	35152.51
662.60	35484.86
662.74	35314.00
662.88	35229.74
663.03	34991.01
663.17	34476.09
663.31	34483.11
663.45	34904.41
663.60	34822.49
663.74	34679.72
663.88	34717.17
664.02	34686.74
664.17	34904.41
664.31	34609.50
664.45	34459.71
664.59	34368.43
664.73	34232.68
664.88	34251.40
665.02	34169.48
665.16	34230.33
665.30	34529.92
665.44	34199.91
665.59	33928.41
665.73	34064.16
665.87	33879.25
666.01	34099.26
666.15	33783.29
666.29	34117.99
666.44	33979.90
666.58	33720.10
666.72	33727.12
666.86	33867.55
667.00	33795.00
667.14	33869.89
667.28	33759.89
667.43	33565.62
667.57	33617.11
667.71	33275.40
667.85	33298.80
667.99	33596.05
668.13	33027.30
668.27	33303.48
668.41	33378.38
668.56	33226.24
668.70	33326.89
668.84	33123.26
668.98	32563.87
669.12	32634.09
669.26	32971.13
669.40	32362.59
669.54	32701.96
669.68	32488.98
669.82	32673.88
669.96	32636.43
670.10	32411.74
670.25	32519.40
670.39	32645.79
670.53	32577.92
670.67	32222.16
670.81	32641.11
670.95	32325.14
671.09	32238.54
671.23	31751.71
671.37	32194.07
671.51	31997.46
671.65	31981.08
671.79	31477.86
671.93	31718.94
672.07	31562.12
672.21	31758.73
672.35	31358.50
672.49	31728.30
672.63	31583.19
672.77	31278.92
672.91	31407.65
673.05	31393.61
673.19	31257.85
673.33	31555.10
673.47	31311.69
673.61	31054.23
673.75	30937.20
673.89	30794.43
674.03	30349.73
674.17	30946.56
674.31	30607.19
674.45	30766.34
674.59	30422.28
674.73	31019.12
674.87	30689.10
675.01	30387.18
675.15	30501.86
675.29	30466.75
675.43	30221.00
675.56	30305.26
675.70	30005.67
675.84	29631.18
675.98	29146.69
676.12	29860.55
676.26	30026.73
676.40	29710.76
676.54	29703.74
676.68	30136.74
676.82	29366.70
676.96	29195.84
677.10	29228.61
677.23	29074.13
677.37	29294.14
677.51	28882.21
677.65	28709.01
677.79	28526.45
677.93	28603.69
678.07	28662.20
678.21	28566.24
678.34	28119.20
678.48	27988.13
678.62	28144.94
678.76	27672.15
678.90	27707.26
679.04	27903.87
679.18	27665.13
679.31	27597.26
679.45	27501.29
679.59	27175.96
679.73	27138.51
679.87	27402.99
680.00	27227.45
680.14	27161.92
680.28	27103.40
680.42	27353.84
680.56	27384.27
680.70	26895.10
680.83	27009.78
680.97	27211.07
681.11	27068.30
681.25	26836.58
681.39	26813.18
681.52	26607.21
681.66	26324.01
681.80	26434.01
681.94	26253.79
682.07	26082.93
682.21	26122.72
682.35	25944.84
682.49	26183.57
682.62	26115.70
682.76	25741.21
682.90	25816.11
683.04	25734.19
683.17	25359.70
683.31	25366.73
683.45	25263.74
683.59	25259.06
683.72	25032.03
683.86	25083.52
684.00	25013.31
684.13	25015.65
684.27	24945.43
684.41	24683.29
684.55	24954.79
684.68	24521.79
684.82	24432.85
684.96	24694.99
685.09	24442.21
685.23	24430.51
685.37	24561.58
685.50	24231.57
685.64	24034.96
685.78	23786.86
685.91	23828.99
686.05	23768.14
686.19	23648.77
686.32	23405.36
686.46	23140.88
686.60	23297.69
686.73	23208.75
686.87	23136.20
687.01	22902.14
687.14	23026.19
687.28	22885.76
687.42	22878.74
687.55	23014.49
687.69	22857.67
687.82	22757.03
687.96	22487.87
688.10	22848.31
688.23	22506.59
688.37	22143.81
688.50	22061.89
688.64	22476.16
688.78	22160.19
688.91	22270.20
689.05	21851.24
689.18	22005.72
689.32	21245.04
689.46	22162.53
689.59	21792.73
689.73	21846.56
689.86	21689.74
690.00	21436.97
690.13	21579.74
690.27	21137.38
690.41	21469.73
690.54	21081.21
690.68	20795.66
690.81	20720.76
690.95	20893.96
691.08	20828.43
691.22	20475.01
691.35	20769.91
691.49	20889.28
691.62	20568.63
691.76	20540.54
691.89	20475.01
692.03	20409.47
692.16	20208.19
692.30	20144.99
692.43	19875.83
692.57	19985.83
692.70	19814.98
692.84	19922.64
692.97	19506.02
693.11	19822.00
693.24	19494.32
693.38	19566.88
693.51	19286.01
693.65	19719.01
693.78	19557.52
693.92	19573.90
694.05	19271.97
694.19	19360.91
694.32	18986.43
694.45	18902.17
694.59	18616.62
694.72	18377.89
694.86	18689.18
694.99	18534.70
695.13	18167.24
695.26	18263.20
695.39	18398.95
695.53	18214.05
695.66	18417.68
695.80	18216.39
695.93	18328.74
696.07	17912.12
696.20	18253.84
696.33	17699.13
696.47	17881.69
696.60	17818.50
696.73	17593.81
696.87	17633.60
697.00	17561.04
697.14	17481.46
697.27	17343.37
697.40	17298.90
697.54	17345.71
697.67	17401.88
697.80	16933.78
697.94	16648.23
698.07	16793.34
698.21	16566.31
698.34	16819.09
698.47	16545.25
698.61	16248.00
698.74	16348.64
698.87	16432.90
699.01	16135.65
699.14	16175.44
699.27	16287.79
699.40	15854.79
699.54	15925.00
699.67	15815.00
699.80	15737.76
699.94	15953.09
700.07	15796.28
700.20	15541.16
700.34	15812.66
700.47	15630.10
700.60	15496.69
700.73	16053.73
700.87	15349.23
701.00	15442.85
701.13	15325.83
701.26	15300.08
701.40	14937.30
701.53	15143.27
701.66	14944.32
701.79	14824.95
701.93	15012.20
702.06	14878.79
702.19	14801.55
702.32	14991.13
702.46	14754.74
702.59	14530.05
702.72	14499.62
702.85	14628.35
702.99	14490.26
703.12	14581.54
703.25	14127.47
703.38	14022.15
703.51	14071.30
703.65	14092.37
703.78	14134.50
703.91	13827.88
704.04	13954.27
704.17	13926.19
704.31	14080.66
704.44	13919.17
704.57	13687.45
704.70	13509.57
704.83	13680.43
704.96	13455.74
705.10	13547.02
705.23	13619.58
>>>>>End Processed Spectral Data<<<<<
