SpectraSuite Data File
++++++++++++++++++++++++++++++++++++
Date: Fri Oct 25 10:48:17 EDT 2013
User: price-jones
Dark Spectrum Present: No
Reference Spectrum Present: No
Number of Sampled Component Spectra: 1
Spectrometers: USB2+H05261
Integration Time (usec): 100000 (USB2+H05261)
Spectra Averaged: 1 (USB2+H05261)
Boxcar Smoothing: 0 (USB2+H05261)
Correct for Electrical Dark: No (USB2+H05261)
Strobe/Lamp Enabled: No (USB2+H05261)
Correct for Detector Non-linearity: No (USB2+H05261)
Correct for Stray Light: No (USB2+H05261)
Number of Pixels in Processed Spectrum: 2048
>>>>>Begin Processed Spectral Data<<<<<
365.73	238.73
365.92	238.73
366.12	238.73
366.32	65.54
366.52	0.00
366.72	91.28
366.91	124.05
367.11	81.92
367.31	60.85
367.51	0.00
367.70	56.17
367.90	23.41
368.10	105.32
368.30	84.26
368.49	81.92
368.69	147.45
368.89	9.36
369.09	77.24
369.28	74.90
369.48	77.24
369.68	84.26
369.87	102.98
370.07	203.63
370.27	126.39
370.47	250.44
370.66	400.23
370.86	475.13
371.06	430.66
371.25	533.64
371.45	496.19
371.65	442.36
371.84	486.83
372.04	491.51
372.24	535.98
372.44	512.58
372.63	531.30
372.83	538.32
373.03	479.81
373.22	552.37
373.42	510.24
373.62	493.85
373.81	573.43
374.01	636.63
374.21	498.53
374.40	510.24
374.60	622.58
374.79	580.45
374.99	587.47
375.19	613.22
375.38	711.52
375.58	589.82
375.78	603.86
375.97	643.65
376.17	660.03
376.37	585.13
376.56	650.67
376.76	631.94
376.95	617.90
377.15	674.07
377.35	662.37
377.54	582.79
377.74	627.26
377.93	727.91
378.13	692.80
378.33	606.20
378.52	648.33
378.72	692.80
378.91	655.35
379.11	594.50
379.31	720.88
379.50	599.18
379.70	645.99
379.89	667.05
380.09	744.29
380.28	695.14
380.48	716.20
380.68	751.31
380.87	702.16
381.07	720.88
381.26	748.97
381.46	730.25
381.65	725.57
381.85	720.88
382.04	685.78
382.24	737.27
382.43	751.31
382.63	732.59
382.83	763.01
383.02	723.23
383.22	791.10
383.41	814.51
383.61	716.20
383.80	861.32
384.00	830.89
384.19	784.08
384.39	816.85
384.58	844.93
384.78	798.12
384.97	912.81
385.17	793.44
385.36	835.57
385.56	760.67
385.75	772.38
385.95	791.10
386.14	863.66
386.34	842.59
386.53	847.27
386.72	779.40
386.92	858.98
387.11	877.70
387.31	868.34
387.50	821.53
387.70	849.61
387.89	849.61
388.09	861.32
388.28	849.61
388.48	929.19
388.67	950.26
388.86	938.55
389.06	999.41
389.25	1039.20
389.45	961.96
389.64	966.64
389.84	987.71
390.03	1060.26
390.22	1055.58
390.42	971.32
390.61	968.98
390.81	1034.52
391.00	1132.82
391.19	1151.54
391.39	1090.69
391.58	990.05
391.78	1022.81
391.97	1064.94
392.16	1104.73
392.36	1184.31
392.55	1062.60
392.75	1046.22
392.94	1041.54
393.13	1043.88
393.33	1071.97
393.52	1100.05
393.71	1029.84
393.91	1095.37
394.10	1121.12
394.29	1233.46
394.49	1219.42
394.68	1252.19
394.88	1203.04
395.07	1245.16
395.26	1231.12
395.46	1167.93
395.65	1233.46
395.84	1191.33
396.04	1263.89
396.23	1231.12
396.42	1205.38
396.62	1273.25
396.81	1167.93
397.00	1170.27
397.19	1212.40
397.39	1371.55
397.58	1411.34
397.77	1310.70
397.97	1434.75
398.16	1387.94
398.35	1479.22
398.55	1479.22
398.74	1423.05
398.93	1444.11
399.12	1493.26
399.32	1502.62
399.51	1504.96
399.70	1472.20
399.90	1544.75
400.09	1516.67
400.28	1584.54
400.47	1462.83
400.67	1511.99
400.86	1654.76
401.05	1654.76
401.24	1619.65
401.44	1685.19
401.63	1748.38
401.82	1664.12
402.01	1661.78
402.21	1586.88
402.40	1753.06
402.59	1806.89
402.78	1720.29
402.97	1720.29
403.17	1806.89
403.36	1816.26
403.55	1764.76
403.74	1832.64
403.93	1795.19
404.13	1813.92
404.32	1865.41
404.51	1802.21
404.70	1935.62
404.89	1898.17
405.09	1937.96
405.28	1900.52
405.47	1886.47
405.66	2059.67
405.85	1916.90
406.05	1914.56
406.24	1912.22
406.43	2040.95
406.62	1984.77
406.81	2099.46
407.00	2083.08
407.20	1998.82
407.39	1989.46
407.58	2106.48
407.77	2087.76
407.96	2181.38
408.15	2195.42
408.34	2263.30
408.54	2314.79
408.73	2214.15
408.92	2370.96
409.11	2265.64
409.30	2300.75
409.49	2289.04
409.68	2270.32
409.87	2359.26
410.07	2223.51
410.26	2319.47
410.45	2352.24
410.64	2422.45
410.83	2340.54
411.02	2455.22
411.21	2480.97
411.40	2462.24
411.59	2511.39
411.78	2602.68
411.98	2509.05
412.17	2530.12
412.36	2614.38
412.55	2670.55
412.74	2614.38
412.93	2705.66
413.12	2787.58
413.31	2864.82
413.50	2785.24
413.69	2843.75
413.88	2843.75
414.07	2888.22
414.26	2972.48
414.45	2998.23
414.64	3033.33
414.83	2979.50
415.02	2869.50
415.22	2998.23
415.41	3000.57
415.60	3084.83
415.79	3040.36
415.98	3185.47
416.17	3075.46
416.36	3143.34
416.55	3227.60
416.74	3145.68
416.93	3211.22
417.12	3190.15
417.31	3239.30
417.50	3169.09
417.69	3396.12
417.88	3389.10
418.07	3377.39
418.26	3445.27
418.45	3365.69
418.64	3597.40
418.83	3508.46
419.02	3456.97
419.21	3541.23
419.39	3506.12
419.58	3555.27
419.77	3529.53
419.96	3646.55
420.15	3644.21
420.34	3517.83
420.53	3808.05
420.72	3784.65
420.91	3889.97
421.10	3721.45
421.29	3709.75
421.48	3726.13
421.67	3740.18
421.86	3742.52
422.05	3620.81
422.24	3693.37
422.43	3829.12
422.61	3815.07
422.80	3852.52
422.99	3934.44
423.18	3988.27
423.37	3911.04
423.56	3772.94
423.75	3962.53
423.94	3843.16
424.13	3735.50
424.32	3712.09
424.50	3758.90
424.69	3955.51
424.88	3974.23
425.07	3911.04
425.26	3852.52
425.45	3756.56
425.64	3712.09
425.83	3904.01
426.01	4042.11
426.20	3915.72
426.39	3904.01
426.58	3950.82
426.77	3817.41
426.96	4018.70
427.15	4070.19
427.33	4222.33
427.52	4053.81
427.71	4095.94
427.90	4021.04
428.09	4147.43
428.28	4177.86
428.46	4039.76
428.65	4049.13
428.84	4142.75
429.03	4154.45
429.22	3976.57
429.40	4133.39
429.59	4175.52
429.78	3971.89
429.97	3850.18
430.16	4002.32
430.34	4173.18
430.53	4222.33
430.72	4138.07
430.91	4208.28
431.10	4313.61
431.28	4477.44
431.47	4568.73
431.66	4514.89
431.85	4374.46
432.03	4725.54
432.22	4582.77
432.41	4493.83
432.60	4683.41
432.79	4690.43
432.97	4627.24
433.16	4596.81
433.35	4568.73
433.54	4542.98
433.72	4601.49
433.91	4547.66
434.10	4657.67
434.28	4741.93
434.47	4777.03
434.66	4854.27
434.85	4837.89
435.03	4873.00
435.22	4851.93
435.41	5132.79
435.59	4971.30
435.78	5025.13
435.97	5083.64
436.16	4954.91
436.34	5039.17
436.53	5083.64
436.72	5252.16
436.90	5018.11
437.09	5240.46
437.28	5142.16
437.46	5085.98
437.65	5001.72
437.84	5067.26
438.02	5083.64
438.21	5083.64
438.40	5100.03
438.58	5387.91
438.77	5247.48
438.96	5418.34
439.14	5568.13
439.33	5432.38
439.52	5521.32
439.70	5558.77
439.89	5689.84
440.08	5664.10
440.26	5617.29
440.45	5619.63
440.63	5671.12
440.82	5863.04
441.01	5816.23
441.19	5811.55
441.38	6040.92
441.57	5959.00
441.75	6120.50
441.94	6183.70
442.12	6076.03
442.31	6328.81
442.50	6333.49
442.68	6141.57
442.87	6099.44
443.05	6221.14
443.24	6340.51
443.43	6387.32
443.61	6324.13
443.80	6548.82
443.98	6246.89
444.17	5984.75
444.35	6338.17
444.54	6483.28
444.73	6537.12
444.91	6286.68
445.10	6370.94
445.28	6211.78
445.47	6384.98
445.65	6342.85
445.84	6366.26
446.02	6448.18
446.21	6338.17
446.39	6396.68
446.58	6548.82
446.77	6502.01
446.95	6499.67
447.14	6602.65
447.32	6747.76
447.51	6420.09
447.69	6403.71
447.88	6614.35
448.06	6621.38
448.25	6635.42
448.43	6715.00
448.62	6726.70
448.80	6583.93
448.99	6855.43
449.17	6750.10
449.36	6717.34
449.54	6876.49
449.73	6911.60
449.91	6965.43
450.10	6871.81
450.28	7190.13
450.46	6974.80
450.65	7007.56
450.83	7152.68
451.02	7014.59
451.20	7056.72
451.39	7148.00
451.57	7335.24
451.76	6932.67
451.94	7309.49
452.13	7227.57
452.31	7180.76
452.49	7056.72
452.68	7339.92
452.86	7204.17
453.05	7169.06
453.23	7171.40
453.42	7108.21
453.60	7138.63
453.78	7295.45
453.97	7360.98
454.15	7300.13
454.34	7059.06
454.52	7466.31
454.70	7318.86
454.89	7384.39
455.07	7520.14
455.26	7428.86
455.44	7599.72
455.62	7698.02
455.81	7611.42
455.99	7723.77
456.17	7660.57
456.36	7714.41
456.54	7822.07
456.73	7812.71
456.91	8035.06
457.09	7892.29
457.28	7974.21
457.46	7976.55
457.64	8154.43
457.83	7812.71
458.01	8011.65
458.19	8030.38
458.38	8112.30
458.56	8093.57
458.74	8124.00
458.93	8114.64
459.11	8285.50
459.29	8351.03
459.48	8030.38
459.66	8156.77
459.84	8315.92
460.03	8449.33
460.21	8245.71
460.39	8376.78
460.57	8166.13
460.76	8411.89
460.94	8493.80
461.12	8486.78
461.31	8442.31
461.49	8617.85
461.67	8617.85
461.85	8713.81
462.04	8589.77
462.22	9085.96
462.40	8755.94
462.59	8706.79
462.77	8704.45
462.95	8613.17
463.13	8692.75
463.32	8755.94
463.50	8847.22
463.68	9048.51
463.86	8858.93
464.05	8746.58
464.23	8692.75
464.41	8954.89
464.59	8760.63
464.78	9097.66
464.96	8952.55
465.14	8924.46
465.32	9081.28
465.50	9109.36
465.69	9104.68
465.87	9011.06
466.05	9013.40
466.23	8910.42
466.41	9076.60
466.60	9142.13
466.78	9081.28
466.96	9226.39
467.14	9184.26
467.32	9151.49
467.51	9362.14
467.69	9062.55
467.87	9256.82
468.05	9474.49
468.23	9490.87
468.41	9240.44
468.60	9413.63
468.78	9371.50
468.96	9530.66
469.14	9525.98
469.32	9703.86
469.50	9268.52
469.69	9638.33
469.87	9628.96
470.05	9872.38
470.23	9839.61
470.41	9741.31
470.59	9673.43
470.77	9928.55
470.95	9748.33
471.14	10045.58
471.32	9844.29
471.50	10094.73
471.68	10097.07
471.86	10160.27
472.04	10291.34
472.22	10651.78
472.40	9930.89
472.58	10251.55
472.77	10340.49
472.95	10333.47
473.13	10628.37
473.31	10373.25
473.49	10413.04
473.67	10525.39
473.85	10703.27
474.03	10714.97
474.21	10780.51
474.39	10839.02
474.57	10740.72
474.75	10944.34
474.93	10925.62
475.12	10789.87
475.30	11145.63
475.48	11059.03
475.66	11136.27
475.84	11215.85
476.02	11267.34
476.20	11295.43
476.38	11250.96
476.56	11761.19
476.74	11698.00
476.92	11580.97
477.10	11599.70
477.28	11950.78
477.46	11777.58
477.64	12086.53
477.82	11957.80
478.00	12578.04
478.18	12278.45
478.36	12472.71
478.54	12482.08
478.72	12477.40
478.90	12894.01
479.08	12992.31
479.26	13046.15
479.44	12650.60
479.62	13078.91
479.80	13111.68
479.98	12945.50
480.16	13212.32
480.34	13247.43
480.52	13540.00
480.70	13879.38
480.88	13523.62
481.06	13565.74
481.24	13905.12
481.41	14045.55
481.59	14370.89
481.77	13935.55
481.95	14251.52
482.13	14579.20
482.31	14448.13
482.49	14562.81
482.67	14618.99
482.85	14787.50
483.03	14881.13
483.21	15253.27
483.39	15101.14
483.57	15183.06
483.74	15126.88
483.92	15515.41
484.10	15283.70
484.28	15459.24
484.46	15943.73
484.64	16009.26
484.82	15894.58
485.00	15803.30
485.18	15999.90
485.35	16315.87
485.53	16168.42
485.71	15995.22
485.89	16283.11
486.07	16570.99
486.25	16283.11
486.43	16659.93
486.61	16802.71
486.78	17376.14
486.96	17319.96
487.14	17539.97
487.32	17717.86
487.50	17757.64
487.68	17701.47
487.85	18097.02
488.03	18078.30
488.21	18253.84
488.39	18113.41
488.57	18352.14
488.75	18506.62
488.92	18967.70
489.10	18979.40
489.28	19136.22
489.46	19396.02
489.64	19290.70
489.81	19726.04
489.99	20074.77
490.17	19749.44
490.35	20233.93
490.53	20077.12
490.70	20334.57
490.88	20273.72
491.06	20489.05
491.24	20589.69
491.41	20601.40
491.59	20376.70
491.77	20732.47
491.95	20929.07
492.13	20896.30
492.30	21282.49
492.48	21406.54
492.66	21427.60
492.84	21521.23
493.01	21645.27
493.19	21439.31
493.37	22305.31
493.54	22017.42
493.72	22530.00
493.90	22370.84
494.08	22466.80
494.25	22707.88
494.43	22951.29
494.61	22979.38
494.79	23384.29
494.96	23042.57
495.14	23012.15
495.32	23377.27
495.49	23552.81
495.67	23669.84
495.85	24114.54
496.02	23800.91
496.20	24219.86
496.38	24058.37
496.55	23999.85
496.73	24699.67
496.91	24535.84
497.09	24491.37
497.26	24912.66
497.44	24491.37
497.62	24669.25
497.79	24994.58
497.97	24723.08
498.14	25167.78
498.32	25270.76
498.50	25317.57
498.67	26015.05
498.85	25883.98
499.03	25956.54
499.20	25942.50
499.38	25970.58
499.56	25827.81
499.73	26415.29
499.91	26342.73
500.08	26412.95
500.26	26295.92
500.44	26377.84
500.61	26258.47
500.79	26417.63
500.97	26614.23
501.14	27005.10
501.32	27152.55
501.49	27005.10
501.67	26808.50
501.84	27417.04
502.02	27201.71
502.20	27601.94
502.37	27496.61
502.55	27517.68
502.72	27477.89
502.90	27592.58
503.07	27999.83
503.25	28011.53
503.43	27880.46
503.60	28063.02
503.78	27889.82
503.95	28034.94
504.13	28175.37
504.30	28301.76
504.48	28154.30
504.65	28507.72
504.83	29034.35
505.01	28811.99
505.18	28879.87
505.36	29024.98
505.53	29228.61
505.71	29441.60
505.88	29333.93
506.06	28982.85
506.23	29333.93
506.41	29575.01
506.58	29521.18
506.76	29331.59
506.93	30141.42
507.11	29670.97
507.28	29811.40
507.46	29680.33
507.63	30068.86
507.81	29741.19
507.98	29750.55
508.16	30115.67
508.33	30300.58
508.50	30572.08
508.68	30649.32
508.85	30841.24
509.03	30665.70
509.20	30876.35
509.38	31037.84
509.55	30831.88
509.73	31079.97
509.90	31442.76
510.08	30866.98
510.25	31197.00
510.42	31805.54
510.60	31707.24
510.77	31529.36
510.95	31718.94
511.12	31669.79
511.30	31833.63
511.47	32030.23
511.64	32292.37
511.82	32126.19
511.99	31854.69
512.17	31845.33
512.34	31892.14
512.51	31910.86
512.69	32573.24
512.86	32727.71
513.04	33041.34
513.21	32879.85
513.38	32732.39
513.56	32737.07
513.73	32833.04
513.90	32936.02
514.08	32336.84
514.25	32512.38
514.43	33099.86
514.60	32711.33
514.77	33050.70
514.95	33078.79
515.12	33177.09
515.29	33340.93
515.47	33305.82
515.64	34038.41
515.81	33284.76
515.99	33921.38
516.16	33268.37
516.33	33436.89
516.51	33677.97
516.68	33490.73
516.85	33067.09
517.03	33610.09
517.20	33792.65
517.37	33790.31
517.54	34431.62
517.72	34157.78
517.89	33883.94
518.06	33839.47
518.24	33670.95
518.41	34216.29
518.58	34089.90
518.75	34789.72
518.93	34689.08
519.10	34649.29
519.27	34979.31
519.45	35037.82
519.62	35054.20
519.79	34939.52
519.96	35281.24
520.14	35346.77
520.31	34948.88
520.48	35185.27
520.65	34944.20
520.83	35508.27
521.00	35735.30
521.17	35442.73
521.34	35791.47
521.52	36243.20
521.69	35796.15
521.86	36165.96
522.03	35838.28
522.20	36133.19
522.38	36245.54
522.55	36247.88
522.72	36060.63
522.89	36170.64
523.07	36549.81
523.24	36285.33
523.41	36580.23
523.58	36418.74
523.75	37064.72
523.92	37275.37
524.10	37134.94
524.27	36882.16
524.44	36664.49
524.61	37127.92
524.78	37263.67
524.96	37357.29
525.13	37563.26
525.30	37460.27
525.47	37717.73
525.64	37378.36
525.81	37523.47
525.98	37551.56
526.16	37282.39
526.33	36968.76
526.50	37551.56
526.67	37048.34
526.84	37443.89
527.01	37275.37
527.18	37553.90
527.36	37572.62
527.53	38043.07
527.70	38396.49
527.87	37991.58
528.04	38213.93
528.21	38635.22
528.38	38646.93
528.55	38745.23
528.72	38230.31
528.89	38990.98
529.07	38843.53
529.24	38593.09
529.41	38703.10
529.58	38623.52
529.75	39089.29
529.92	38974.60
530.09	38862.26
530.26	39061.20
530.43	39227.38
530.60	38885.66
530.77	39056.52
530.94	39318.66
531.11	39573.78
531.28	39887.41
531.46	39395.90
531.63	39924.86
531.80	39627.61
531.97	39199.29
532.14	39395.90
532.31	39037.80
532.48	39175.89
532.65	39697.83
532.82	39550.37
532.99	39894.43
533.16	39669.74
533.33	39950.60
533.50	39906.13
533.67	40030.18
533.84	39976.35
534.01	40582.55
534.18	39910.82
534.35	40275.94
534.52	40334.45
534.69	40657.45
534.86	40226.79
535.03	40084.01
535.20	40517.01
535.37	40769.79
535.54	40645.74
535.71	40617.66
535.88	40671.49
536.05	40540.42
536.22	40622.34
536.38	40591.91
536.55	41013.21
536.72	40910.22
536.89	40392.97
537.06	40538.08
537.23	40795.54
537.40	40788.52
537.57	40886.82
537.74	41230.88
537.91	41099.81
538.08	41212.15
538.25	41237.90
538.42	40835.33
538.59	41200.45
538.75	40601.27
538.92	41041.29
539.09	41432.16
539.26	41237.90
539.43	41099.81
539.60	41497.70
539.77	41265.99
539.94	41387.69
540.11	41184.07
540.28	41010.87
540.44	41453.23
540.61	41455.57
540.78	40772.13
540.95	41471.95
541.12	41429.82
541.29	41467.27
541.46	41722.39
541.62	42122.62
541.79	41806.65
541.96	41736.43
542.13	41801.97
542.30	41963.46
542.47	42071.13
542.63	41628.77
542.80	41907.29
542.97	42115.60
543.14	42693.71
543.31	42431.57
543.48	42777.97
543.64	43042.45
543.81	42857.55
543.98	42590.73
544.15	42705.41
544.32	42871.59
544.48	42913.72
544.65	42682.01
544.82	42885.64
544.99	42288.80
545.16	42581.37
545.32	42286.46
545.49	43232.04
545.66	43152.46
545.83	43154.80
546.00	43026.07
546.16	43323.32
546.33	43313.95
546.50	43201.61
546.67	43482.47
546.83	42735.84
547.00	43576.09
547.17	43056.50
547.34	43487.15
547.50	43505.88
547.67	43681.42
547.84	43952.92
548.00	43655.67
548.17	43629.93
548.34	43421.62
548.51	43775.04
548.67	43763.34
548.84	43922.49
549.01	43901.43
549.18	43676.74
549.34	43625.25
549.51	44023.14
549.68	43861.64
549.84	44083.99
550.01	43931.86
550.18	43835.89
550.34	43903.77
550.51	43814.83
550.68	43723.55
550.84	43304.59
551.01	44231.44
551.18	44023.14
551.34	44074.63
551.51	43901.43
551.68	44095.69
551.84	44247.83
552.01	44088.67
552.18	44172.93
552.34	44252.51
552.51	44673.81
552.68	43981.01
552.84	44589.55
553.01	44325.07
553.18	44720.62
553.34	44488.90
553.51	44201.02
553.67	44322.72
553.84	44748.70
554.01	44591.89
554.17	44697.21
554.34	44573.16
554.51	44697.21
554.67	45088.08
554.84	45057.65
555.00	44898.50
555.17	44659.76
555.33	44664.44
555.50	44432.73
555.67	44942.97
555.83	44837.64
556.00	45013.18
556.16	45165.32
556.33	44996.80
556.50	44858.71
556.66	45338.52
556.83	44589.55
556.99	44952.33
557.16	45113.83
557.32	45556.19
557.49	45034.25
557.65	44933.60
557.82	45186.38
557.98	44512.31
558.15	45312.77
558.32	45198.09
558.48	45282.34
558.65	45270.64
558.81	45291.71
558.98	45588.95
559.14	45067.02
559.31	45071.70
559.47	45148.93
559.64	45130.21
559.80	45476.61
559.97	45305.75
560.13	45048.29
560.30	45387.67
560.46	45705.98
560.63	45088.08
560.79	45500.01
560.96	45724.71
561.12	45399.37
561.29	45748.11
561.45	45769.18
561.61	45380.65
561.78	45478.95
561.94	45102.12
562.11	45270.64
562.27	45031.91
562.44	45631.08
562.60	45888.54
562.77	46021.95
562.93	45219.15
563.10	45563.21
563.26	45090.42
563.42	45600.66
563.59	45490.65
563.75	45907.27
563.92	45455.54
564.08	45865.14
564.24	46094.51
564.41	45666.19
564.57	45717.68
564.74	45654.49
564.90	45684.92
565.07	46314.52
565.23	46085.15
565.39	45605.34
565.56	46047.70
565.72	45635.77
565.88	45556.19
566.05	46010.25
566.21	45729.39
566.38	45886.20
566.54	45804.28
566.70	46017.27
566.87	46562.62
567.03	45998.55
567.19	46251.33
567.36	46103.87
567.52	45935.35
567.68	46064.08
567.85	45846.41
568.01	45790.24
568.17	45415.76
568.34	45904.93
568.50	46010.25
568.66	45958.76
568.83	45769.18
568.99	45853.44
569.15	45844.07
569.32	45738.75
569.48	45682.58
569.64	45972.80
569.81	46246.65
569.97	46005.57
570.13	46171.75
570.30	45696.62
570.46	46078.13
570.62	46120.26
570.78	45649.81
570.95	45954.08
571.11	46408.14
571.27	46417.50
571.43	45996.21
571.60	46190.47
571.76	45935.35
571.92	46061.74
572.09	45848.75
572.25	46164.73
572.41	46291.12
572.57	45902.59
572.74	46457.29
572.90	46195.15
573.06	46831.78
573.22	46555.60
573.38	46581.34
573.55	46256.01
573.71	46148.34
573.87	46443.25
574.03	46021.95
574.20	45933.01
574.36	45951.74
574.52	46117.92
574.68	46080.47
574.84	46223.24
575.01	46321.54
575.17	46199.83
575.33	45930.67
575.49	46314.52
575.65	46600.07
575.82	46550.91
575.98	46131.96
576.14	46639.86
576.30	46398.78
576.46	46103.87
576.62	46036.00
576.79	45834.71
576.95	46045.36
577.11	45804.28
577.27	46321.54
577.43	46218.56
577.59	46574.32
577.75	46155.36
577.92	45986.85
578.08	45172.34
578.24	45890.88
578.40	46052.38
578.56	46314.52
578.72	46106.21
578.88	46258.35
579.04	46026.63
579.21	46192.81
579.37	46445.59
579.53	46110.89
579.69	45925.99
579.85	46071.10
580.01	46064.08
580.17	46298.14
580.33	46298.14
580.49	46937.10
580.65	46787.31
580.82	46363.67
580.98	45954.08
581.14	45986.85
581.30	46520.49
581.46	46321.54
581.62	46375.37
581.78	46410.48
581.94	46529.85
582.10	46323.88
582.26	46717.09
582.42	46136.64
582.58	46251.33
582.74	46117.92
582.90	46195.15
583.06	46443.25
583.22	46375.37
583.38	46387.08
583.54	46356.65
583.70	46438.57
583.86	46272.39
584.02	46178.77
584.18	46705.39
584.34	46384.74
584.50	46358.99
584.66	46536.87
584.82	46298.14
584.98	46602.41
585.14	46541.55
585.30	46511.13
585.46	46724.11
585.62	46113.23
585.78	46260.69
585.94	46251.33
586.10	46054.72
586.26	46075.79
586.42	46092.17
586.58	46784.97
586.74	46454.95
586.90	46190.47
587.06	46057.06
587.22	46579.00
587.38	46286.43
587.54	46574.32
587.70	46714.75
587.86	46457.29
588.02	46443.25
588.18	46113.23
588.34	46127.28
588.49	46227.92
588.65	45682.58
588.81	45741.09
588.97	46155.36
589.13	46326.22
589.29	46157.70
589.45	46471.34
589.61	46031.32
589.77	46625.81
589.93	46054.72
590.08	46869.23
590.24	46644.54
590.40	46806.03
590.56	46595.38
590.72	46138.98
590.88	46377.72
591.04	46408.14
591.20	46520.49
591.35	46618.79
591.51	46871.57
591.67	46438.57
591.83	46192.81
591.99	46127.28
592.15	46153.02
592.31	46899.65
592.46	46394.10
592.62	46885.61
592.78	46923.06
592.94	46717.09
593.10	46199.83
593.26	46564.96
593.41	46412.82
593.57	46525.17
593.73	46735.82
593.89	46333.24
594.05	46525.17
594.20	46433.89
594.36	46735.82
594.52	46614.11
594.68	46522.83
594.84	46616.45
594.99	47040.09
595.15	46731.14
595.31	46698.37
595.47	46487.72
595.62	46726.46
595.78	46492.40
595.94	46817.74
596.10	47014.34
596.25	46930.08
596.41	46806.03
596.57	46487.72
596.73	46770.93
596.88	46670.28
597.04	47068.17
597.20	46824.76
597.36	46426.87
597.51	46754.54
597.67	46768.58
597.83	46749.86
597.99	47164.14
598.14	46665.60
598.30	46314.52
598.46	46639.86
598.61	46747.52
598.77	46127.28
598.93	46611.77
599.09	46894.97
599.24	47019.02
599.40	46791.99
599.56	46515.81
599.71	46511.13
599.87	46773.27
600.03	46817.74
600.18	47009.66
600.34	46576.66
600.50	46452.61
600.65	46862.21
600.81	46892.63
600.97	46962.85
601.12	46829.44
601.28	46710.07
601.44	47075.19
601.59	46291.12
601.75	46089.83
601.91	46813.05
602.06	46274.73
602.22	46515.81
602.37	46356.65
602.53	46391.76
602.69	46822.42
602.84	46562.62
603.00	46763.90
603.16	46616.45
603.31	46904.34
603.47	46686.67
603.62	46724.11
603.78	46763.90
603.94	46424.53
604.09	47058.81
604.25	46628.15
604.40	46763.90
604.56	46522.83
604.71	46848.16
604.87	46579.00
605.03	46562.62
605.18	46445.59
605.34	46490.06
605.49	46499.42
605.65	46527.51
605.80	46525.17
605.96	46735.82
606.12	46658.58
606.27	46646.88
606.43	46153.02
606.58	46649.22
606.74	46532.19
606.89	46328.56
607.05	46581.34
607.20	46574.32
607.36	46789.65
607.51	46663.26
607.67	46513.47
607.82	46401.12
607.98	46333.24
608.13	46476.02
608.29	46281.75
608.44	46103.87
608.60	45780.88
608.75	46036.00
608.91	46038.34
609.06	45766.84
609.22	46351.97
609.37	45914.29
609.53	46171.75
609.68	46143.66
609.84	46017.27
609.99	46281.75
610.15	45872.16
610.30	46157.70
610.46	45495.33
610.61	46265.37
610.76	46473.68
610.92	46038.34
611.07	45918.97
611.23	46309.84
611.38	46347.29
611.54	46082.81
611.69	45626.40
611.84	45385.33
612.00	45595.98
612.15	45464.91
612.31	45837.05
612.46	46155.36
612.62	45911.95
612.77	46230.26
612.92	46134.30
613.08	45422.78
613.23	45251.92
613.39	45406.39
613.54	45170.00
613.69	45226.17
613.85	45823.01
614.00	45968.12
614.15	45696.62
614.31	45900.25
614.46	45914.29
614.62	45415.76
614.77	45607.68
614.92	45490.65
615.08	45158.30
615.23	45184.04
615.38	45474.27
615.54	45249.58
615.69	45074.04
615.84	45090.42
616.00	45392.35
616.15	45247.24
616.30	45223.83
616.46	44994.46
616.61	45078.72
616.76	44999.14
616.92	45125.53
617.07	45057.65
617.22	45265.96
617.37	45221.49
617.53	45139.57
617.68	45289.37
617.83	45160.64
617.99	45057.65
618.14	45083.40
618.29	44816.58
618.45	45052.97
618.60	44575.50
618.75	44870.41
618.90	44697.21
619.06	45059.99
619.21	45146.59
619.36	45366.60
619.51	44575.50
619.67	44711.25
619.82	44807.22
619.97	45102.12
620.12	44259.53
620.28	44229.10
620.43	44535.71
620.58	44608.27
620.73	44561.46
620.89	44282.94
621.04	44570.82
621.19	44442.09
621.34	44610.61
621.49	44568.48
621.65	44479.54
621.80	44889.13
621.95	44416.35
622.10	44219.74
622.25	44320.38
622.41	44142.50
622.56	44161.23
622.71	44882.11
622.86	44161.23
623.01	44416.35
623.16	44226.76
623.32	44563.80
623.47	44828.28
623.62	44203.36
623.77	44215.06
623.92	44336.77
624.07	43426.30
624.23	44053.56
624.38	43983.35
624.53	43812.49
624.68	44182.29
624.83	44135.48
624.98	43934.20
625.13	43915.47
625.29	43601.84
625.44	44149.53
625.59	43903.77
625.74	43512.90
625.89	43615.88
626.04	43346.72
626.19	43489.49
626.34	43782.06
626.49	43302.25
626.65	44044.20
626.80	42967.55
626.95	43674.40
627.10	43716.53
627.25	42906.70
627.40	43171.18
627.55	43093.94
627.70	42946.49
627.85	42548.60
628.00	42904.36
628.15	43234.38
628.30	43129.05
628.45	43423.96
628.60	43061.18
628.76	43084.58
628.91	43360.76
629.06	43229.69
629.21	42857.55
629.36	42710.10
629.51	42735.84
629.66	42745.20
629.81	42754.57
629.96	42726.48
630.11	42696.05
630.26	43299.91
630.41	43285.87
630.56	42447.96
630.71	42492.43
630.86	42660.94
631.01	42600.09
631.16	42672.65
631.31	42494.77
631.46	41928.36
631.61	42417.53
631.76	42323.91
631.91	42256.03
632.06	42412.85
632.21	42476.04
632.36	42850.53
632.51	42696.05
632.66	42408.17
632.81	42010.28
632.96	42377.74
633.10	41813.67
633.25	42241.99
633.40	42347.31
633.55	42438.59
633.70	42387.10
633.85	42302.84
634.00	42391.78
634.15	42277.10
634.30	42136.66
634.45	41991.55
634.60	41841.76
634.75	42288.80
634.90	41897.93
635.05	42036.02
635.19	42199.86
635.34	42106.24
635.49	41727.07
635.64	41865.16
635.79	41638.13
635.94	41729.41
636.09	41752.82
636.24	41904.95
636.39	42043.04
636.53	41670.90
636.68	41359.61
636.83	41441.53
636.98	41951.76
637.13	41322.16
637.28	42256.03
637.43	41493.02
637.57	41235.56
637.72	41759.84
637.87	41968.15
638.02	41640.47
638.17	41411.10
638.32	41244.92
638.46	41144.28
638.61	41418.12
638.76	40652.76
638.91	41155.98
639.06	41460.25
639.20	41127.89
639.35	41249.60
639.50	41216.83
639.65	41443.87
639.80	40959.38
639.94	41158.32
640.09	40973.42
640.24	41125.55
640.39	40538.08
640.54	40683.19
640.68	41235.56
640.83	41144.28
640.98	40645.74
641.13	40856.39
641.27	41123.21
641.42	40849.37
641.57	40779.15
641.72	40713.62
641.86	40664.47
642.01	40697.24
642.16	40467.86
642.31	40577.87
642.45	40699.58
642.60	40201.04
642.75	40182.32
642.90	40844.69
643.04	40540.42
643.19	40261.90
643.34	40484.25
643.48	40982.78
643.63	40273.60
643.78	40275.94
643.93	40055.93
644.07	40432.75
644.22	40273.60
644.37	40100.40
644.51	40435.10
644.66	40217.43
644.81	40383.60
644.95	40252.53
645.10	40648.08
645.25	40369.56
645.39	40474.88
645.54	40428.07
645.69	40102.74
645.83	39676.76
645.98	40521.69
646.13	40507.65
646.27	40079.33
646.42	39651.02
646.57	40432.75
646.71	39969.33
646.86	39990.39
647.00	39824.22
647.15	39587.82
647.30	39896.77
647.44	39693.15
647.59	39789.11
647.74	39852.30
647.88	39571.44
648.03	39438.03
648.17	39573.78
648.32	39299.94
648.47	39906.13
648.61	39564.42
648.76	40013.80
648.90	39793.79
649.05	39599.52
649.20	39590.16
649.34	39693.15
649.49	39096.31
649.63	39484.84
649.78	39669.74
649.92	39622.93
650.07	39793.79
650.21	38880.98
650.36	39384.19
650.51	39248.44
650.65	39665.06
650.80	39318.66
650.94	39421.64
651.09	39374.83
651.23	38941.83
651.38	39800.81
651.52	39068.22
651.67	39203.97
651.81	39271.85
651.96	38850.55
652.10	39131.42
652.25	38724.16
652.39	39283.55
652.54	39145.46
652.68	39426.32
652.83	39019.07
652.97	38934.81
653.12	39108.01
653.26	39093.97
653.41	38953.54
653.55	38630.54
653.70	38459.68
653.84	39044.82
653.99	38983.96
654.13	38497.13
654.27	38572.03
654.42	38836.51
654.56	38476.07
654.71	38770.97
654.85	38195.20
655.00	38579.05
655.14	38380.10
655.29	37764.54
655.43	37883.91
655.57	37729.44
655.72	37507.08
655.86	37734.12
656.01	38169.46
656.15	37371.33
656.30	37886.25
656.44	38249.03
656.58	38054.77
656.73	37593.68
656.87	37834.76
657.01	37989.24
657.16	37439.21
657.30	37404.10
657.45	37895.61
657.59	37944.76
657.73	37668.58
657.88	37738.80
658.02	37558.58
658.16	37752.84
658.31	37993.92
658.45	38094.56
658.60	37322.18
658.74	37926.04
658.88	37944.76
659.03	37258.99
659.17	37261.33
659.31	37500.06
659.46	37141.96
659.60	37439.21
659.74	37078.77
659.89	37132.60
660.03	37071.75
660.17	37247.29
660.32	37317.50
660.46	37425.17
660.60	37156.00
660.74	37619.43
660.89	37111.53
661.03	36769.82
661.17	36807.26
661.32	36577.89
661.46	36605.98
661.60	36774.50
661.74	36442.14
661.89	36531.08
662.03	36673.85
662.17	36315.75
662.31	36453.84
662.46	36390.65
662.60	36634.06
662.74	36357.88
662.88	36397.67
663.03	36135.53
663.17	35896.80
663.31	35938.93
663.45	36542.78
663.60	36016.16
663.74	35704.87
663.88	35784.45
664.02	35941.27
664.17	35821.90
664.31	35594.87
664.45	35934.24
664.59	35798.49
664.73	35981.06
664.88	35679.13
665.02	35943.61
665.16	35793.81
665.30	35955.31
665.44	35566.78
665.59	35363.15
665.73	35108.04
665.87	35115.06
666.01	35044.84
666.15	35498.91
666.29	35435.71
666.44	35227.40
666.58	35140.80
666.72	34806.11
666.86	34995.69
667.00	35302.30
667.14	34838.87
667.28	35108.04
667.43	34581.42
667.57	34525.24
667.71	34424.60
667.85	34714.83
667.99	34405.88
668.13	34096.92
668.27	34146.08
668.41	34738.23
668.56	34113.31
668.70	34515.88
668.84	34330.98
668.98	34010.32
669.12	34761.64
669.26	34195.23
669.40	34511.20
669.54	33839.47
669.68	33937.77
669.82	33376.04
669.96	33221.56
670.10	33649.88
670.25	33724.78
670.39	33420.51
670.53	33450.94
670.67	33261.35
670.81	33486.04
670.95	33649.88
671.09	33511.79
671.23	33638.18
671.37	33397.10
671.51	32968.79
671.65	33326.89
671.79	32659.84
671.93	33139.65
672.07	32818.99
672.21	32849.42
672.35	32643.45
672.49	32393.01
672.63	32484.30
672.77	32636.43
672.91	32414.08
673.05	32512.38
673.19	32411.74
673.33	32268.97
673.47	31978.74
673.61	31735.32
673.75	31899.16
673.89	31728.30
674.03	32325.14
674.17	31311.69
674.31	31747.03
674.45	31576.17
674.59	31700.22
674.73	31522.34
674.87	31583.19
675.01	31515.31
675.15	31700.22
675.29	31311.69
675.43	31278.92
675.56	31281.26
675.70	31510.63
675.84	31091.68
675.98	30326.32
676.12	30904.43
676.26	31040.18
676.40	30562.72
676.54	30874.01
676.68	30703.15
676.82	30061.84
676.96	30197.59
677.10	30302.92
677.23	30309.94
677.37	30015.03
677.51	29975.24
677.65	30251.42
677.79	30036.09
677.93	29591.39
678.07	29792.68
678.21	29256.70
678.34	29036.69
678.48	29130.31
678.62	29556.28
678.76	29411.17
678.90	29071.79
679.04	29085.84
679.18	29434.58
679.31	28409.42
679.45	28517.09
679.59	28407.08
679.73	28870.51
679.87	28437.51
680.00	28549.85
680.14	28166.01
680.28	28084.09
680.42	28023.23
680.56	28264.31
680.70	28261.97
680.83	27950.68
680.97	28112.17
681.11	27833.65
681.25	27410.01
681.39	27711.94
681.52	27718.96
681.66	27541.08
681.80	27241.50
681.94	27351.50
682.07	27292.99
682.21	26525.29
682.35	26707.85
682.49	26661.04
682.62	27126.81
682.76	26618.91
682.90	26829.56
683.04	27049.57
683.17	26199.96
683.31	26471.46
683.45	26403.58
683.59	25998.67
683.72	26017.40
683.86	25947.18
684.00	25731.85
684.13	25902.71
684.27	25729.51
684.41	25666.31
684.55	25542.27
684.68	25366.73
684.82	25352.68
684.96	25270.76
685.09	25483.75
685.23	25649.93
685.37	25305.87
685.50	25029.69
685.64	25109.27
685.78	25001.60
685.91	24793.29
686.05	24760.53
686.19	24259.65
686.32	24463.28
686.46	24236.25
686.60	23407.70
686.73	24336.89
686.87	23777.50
687.01	23494.30
687.14	23683.88
687.28	23641.75
687.42	23480.25
687.55	23367.91
687.69	23480.25
687.82	23541.11
687.96	23435.78
688.10	23211.09
688.23	22970.02
688.37	22920.87
688.50	22869.37
688.64	22925.55
688.78	22679.79
688.91	22478.50
689.05	22544.04
689.18	22295.94
689.32	22012.74
689.46	22349.78
689.59	22515.95
689.73	22352.12
689.86	22045.51
690.00	22094.66
690.13	22366.16
690.27	22019.76
690.41	22169.55
690.54	21614.85
690.68	21617.19
690.81	21614.85
690.95	21394.84
691.08	21631.23
691.22	21610.17
691.35	21441.65
691.49	21247.38
691.62	20889.28
691.76	21158.44
691.89	21296.53
692.03	20929.07
692.16	20767.57
692.30	20718.42
692.43	20645.87
692.57	20402.45
692.70	20449.26
692.84	20636.50
692.97	20365.00
693.11	20299.47
693.24	20252.66
693.38	20105.20
693.51	19995.20
693.65	20095.84
693.78	19917.96
693.92	19754.12
694.05	19838.38
694.19	19623.05
694.32	19475.60
694.45	19365.59
694.59	19311.76
694.72	19096.43
694.86	19248.57
694.99	19157.28
695.13	19063.66
695.26	18913.87
695.39	18724.29
695.53	18904.51
695.66	18684.50
695.80	18572.15
695.93	18492.57
696.07	18773.44
696.20	18649.39
696.33	18597.90
696.47	18230.43
696.60	18532.36
696.73	18361.50
696.87	18139.15
697.00	18288.95
697.14	17724.88
697.27	17816.16
697.40	17968.29
697.54	17853.61
697.67	17841.90
697.80	17830.20
697.94	17591.47
698.07	17439.33
698.21	17577.42
698.34	17408.90
698.47	17252.09
698.61	17067.19
698.74	16978.25
698.87	17067.19
699.01	16826.11
699.14	16585.04
699.27	16882.28
699.40	16814.41
699.54	16493.76
699.67	16851.86
699.80	16463.33
699.94	16430.56
700.07	16224.59
700.20	16266.72
700.34	16006.92
700.47	16145.02
700.60	16306.51
700.73	16145.02
700.87	16051.39
701.00	15903.94
701.13	15709.68
701.26	15892.24
701.40	15934.37
701.53	15676.91
701.66	15435.83
701.79	15597.33
701.93	15293.06
702.06	15215.82
702.19	15122.20
702.32	15157.31
702.46	14848.36
702.59	15150.29
702.72	15040.28
702.85	15150.29
702.99	15150.29
703.12	15119.86
703.25	14853.04
703.38	14714.95
703.51	14656.43
703.65	14525.36
703.78	14738.35
703.91	14537.07
704.04	14555.79
704.17	14338.12
704.31	14066.62
704.44	14134.50
704.57	13879.38
704.70	14017.47
704.83	14120.45
704.96	13951.93
705.10	13799.80
705.23	14108.75
>>>>>End Processed Spectral Data<<<<<
