SpectraSuite Data File
++++++++++++++++++++++++++++++++++++
Date: Fri Oct 25 10:47:41 EDT 2013
User: price-jones
Dark Spectrum Present: No
Reference Spectrum Present: No
Number of Sampled Component Spectra: 1
Spectrometers: USB2+H05261
Integration Time (usec): 100000 (USB2+H05261)
Spectra Averaged: 1 (USB2+H05261)
Boxcar Smoothing: 0 (USB2+H05261)
Correct for Electrical Dark: No (USB2+H05261)
Strobe/Lamp Enabled: No (USB2+H05261)
Correct for Detector Non-linearity: No (USB2+H05261)
Correct for Stray Light: No (USB2+H05261)
Number of Pixels in Processed Spectrum: 2048
>>>>>Begin Processed Spectral Data<<<<<
365.73	168.52
365.92	168.52
366.12	168.52
366.32	21.06
366.52	88.94
366.72	4.68
366.91	2.34
367.11	23.41
367.31	23.41
367.51	60.85
367.70	14.04
367.90	11.70
368.10	18.72
368.30	67.88
368.49	42.13
368.69	53.83
368.89	0.00
369.09	100.64
369.28	18.72
369.48	53.83
369.68	74.90
369.87	81.92
370.07	156.82
370.27	107.66
370.47	236.39
370.66	414.27
370.86	458.74
371.06	447.04
371.25	456.40
371.45	414.27
371.65	470.45
371.84	404.91
372.04	447.04
372.24	477.47
372.44	496.19
372.63	517.26
372.83	561.73
373.03	575.77
373.22	468.11
373.42	472.79
373.62	465.77
373.81	552.37
374.01	601.52
374.21	517.26
374.40	491.51
374.60	594.50
374.79	573.43
374.99	540.66
375.19	566.41
375.38	601.52
375.58	603.86
375.78	606.20
375.97	592.16
376.17	622.58
376.37	564.07
376.56	594.50
376.76	552.37
376.95	566.41
377.15	613.22
377.35	676.41
377.54	620.24
377.74	580.45
377.93	631.94
378.13	699.82
378.33	608.54
378.52	587.47
378.72	631.94
378.91	613.22
379.11	596.84
379.31	606.20
379.50	596.84
379.70	671.73
379.89	676.41
380.09	629.60
380.28	617.90
380.48	713.86
380.68	603.86
380.87	674.07
381.07	690.46
381.26	676.41
381.46	643.65
381.65	727.91
381.85	641.31
382.04	645.99
382.24	716.20
382.43	727.91
382.63	688.12
382.83	676.41
383.02	690.46
383.22	739.61
383.41	723.23
383.61	699.82
383.80	720.88
384.00	692.80
384.19	793.44
384.39	716.20
384.58	765.36
384.78	784.08
384.97	760.67
385.17	657.69
385.36	814.51
385.56	772.38
385.75	662.37
385.95	758.33
386.14	786.42
386.34	800.46
386.53	744.29
386.72	711.52
386.92	844.93
387.11	765.36
387.31	821.53
387.50	812.17
387.70	805.14
387.89	870.68
388.09	741.95
388.28	905.79
388.48	814.51
388.67	866.00
388.86	875.36
389.06	882.38
389.25	877.70
389.45	856.64
389.64	847.27
389.84	905.79
390.03	901.11
390.22	931.53
390.42	959.62
390.61	917.49
390.81	901.11
391.00	840.25
391.19	964.30
391.39	1018.13
391.58	997.07
391.78	964.30
391.97	1027.50
392.16	947.92
392.36	1015.79
392.55	950.26
392.75	950.26
392.94	912.81
393.13	882.38
393.33	1013.45
393.52	940.90
393.71	1076.65
393.91	1095.37
394.10	1081.33
394.29	1102.39
394.49	1083.67
394.68	1090.69
394.88	1144.52
395.07	1160.91
395.26	1053.24
395.46	1165.59
395.65	1123.46
395.84	1160.91
396.04	1095.37
396.23	1055.58
396.42	1114.10
396.62	1163.25
396.81	1228.78
397.00	1196.01
397.19	1212.40
397.39	1231.12
397.58	1254.53
397.77	1214.74
397.97	1226.44
398.16	1224.10
398.35	1320.06
398.55	1277.93
398.74	1287.29
398.93	1338.79
399.12	1376.24
399.32	1303.68
399.51	1296.66
399.70	1378.58
399.90	1348.15
400.09	1338.79
400.28	1460.49
400.47	1383.26
400.67	1334.11
400.86	1355.17
401.05	1479.22
401.24	1488.58
401.44	1502.62
401.63	1507.30
401.82	1636.03
402.01	1458.15
402.21	1551.78
402.40	1502.62
402.59	1563.48
402.78	1551.78
402.97	1570.50
403.17	1472.20
403.36	1671.14
403.55	1561.14
403.74	1617.31
403.93	1586.88
404.13	1694.55
404.32	1593.90
404.51	1647.74
404.70	1551.78
404.89	1692.21
405.09	1699.23
405.28	1769.44
405.47	1661.78
405.66	1790.51
405.85	1710.93
406.05	1760.08
406.24	1809.23
406.43	1806.89
406.62	1844.34
406.81	1811.57
407.00	1947.33
407.20	1863.07
407.39	1849.02
407.58	1921.58
407.77	1926.26
407.96	1984.77
408.15	1973.07
408.34	1888.81
408.54	2062.01
408.73	1980.09
408.92	2066.69
409.11	2092.44
409.30	1977.75
409.49	1968.39
409.68	2045.63
409.87	2136.91
410.07	2118.18
410.26	2120.53
410.45	2174.36
410.64	2179.04
410.83	2150.95
411.02	2167.34
411.21	2223.51
411.40	2169.68
411.59	2359.26
411.78	2267.98
411.98	2352.24
412.17	2319.47
412.36	2429.48
412.55	2399.05
412.74	2420.11
412.93	2450.54
413.12	2490.33
413.31	2574.59
413.50	2558.21
413.69	2628.42
413.88	2647.15
414.07	2583.95
414.26	2656.51
414.45	2544.16
414.64	2649.49
414.83	2567.57
415.02	2703.32
415.22	2703.32
415.41	2768.85
415.60	2850.77
415.79	2876.52
415.98	2878.86
416.17	3030.99
416.36	2806.30
416.55	2775.88
416.74	2953.76
416.93	2932.69
417.12	2991.20
417.31	2963.12
417.50	3094.19
417.69	3021.63
417.88	3075.46
418.07	2963.12
418.26	3084.83
418.45	3148.02
418.64	3155.04
418.83	3243.98
419.02	3171.43
419.21	3220.58
419.39	3375.05
419.58	3089.51
419.77	3201.85
419.96	3440.59
420.15	3365.69
420.34	3368.03
420.53	3501.44
420.72	3449.95
420.91	3424.20
421.10	3386.76
421.29	3478.04
421.48	3440.59
421.67	3503.78
421.86	3372.71
422.05	3536.55
422.24	3389.10
422.43	3414.84
422.61	3480.38
422.80	3506.12
422.99	3522.51
423.18	3555.27
423.37	3538.89
423.56	3744.86
423.75	3492.08
423.94	3396.12
424.13	3173.77
424.32	3545.91
424.50	3599.74
424.69	3669.96
424.88	3658.26
425.07	3499.10
425.26	3550.59
425.45	3599.74
425.64	3550.59
425.83	3604.42
426.01	3602.08
426.20	3618.47
426.39	3691.02
426.58	3496.76
426.77	3564.64
426.96	3541.23
427.15	3618.47
427.33	3684.00
427.52	3585.70
427.71	3751.88
427.90	3770.60
428.09	3693.37
428.28	3719.11
428.46	3775.28
428.65	3782.31
428.84	3885.29
429.03	3880.61
429.22	3779.97
429.40	3719.11
429.59	3716.77
429.78	3700.39
429.97	3632.51
430.16	3651.24
430.34	3847.84
430.53	3911.04
430.72	4042.11
430.91	3845.50
431.10	4004.66
431.28	4037.42
431.47	4065.51
431.66	4117.00
431.85	4007.00
432.03	4215.30
432.22	4182.54
432.41	4184.88
432.60	4210.62
432.79	4203.60
432.97	4234.03
433.16	4348.72
433.35	4311.27
433.54	4161.47
433.72	4269.14
433.91	4217.65
434.10	4383.82
434.28	4386.16
434.47	4339.35
434.66	4327.65
434.85	4559.36
435.03	4477.44
435.22	4395.53
435.41	4671.71
435.59	4645.96
435.78	4564.04
435.97	4559.36
436.16	4648.30
436.34	4395.53
436.53	4594.47
436.72	4699.80
436.90	4568.73
437.09	4615.54
437.28	4681.07
437.46	4674.05
437.65	4706.82
437.84	4819.16
438.02	4896.40
438.21	4840.23
438.40	4559.36
438.58	4924.49
438.77	4762.99
438.96	4947.89
439.14	5020.45
439.33	5046.20
439.52	4968.96
439.70	5048.54
439.89	5158.54
440.08	5210.03
440.26	5200.67
440.45	5055.56
440.63	5280.25
440.82	5259.18
441.01	5430.04
441.19	5242.80
441.38	5418.34
441.57	5493.24
441.75	5511.96
441.94	5556.43
442.12	5624.31
442.31	5633.67
442.50	5755.38
442.68	5633.67
442.87	5692.18
443.05	5746.02
443.24	5715.59
443.43	5898.15
443.61	5579.84
443.80	5891.13
443.98	5738.99
444.17	5600.90
444.35	5933.26
444.54	6045.60
444.73	5834.96
444.91	5895.81
445.10	5743.67
445.28	5811.55
445.47	5736.65
445.65	5734.31
445.84	5966.03
446.02	5928.58
446.21	5827.93
446.39	5844.32
446.58	5982.41
446.77	6043.26
446.95	5951.98
447.14	6019.86
447.32	6129.86
447.51	6012.84
447.69	5900.49
447.88	6026.88
448.06	5980.07
448.25	5799.85
448.43	6094.76
448.62	5947.30
448.80	6101.78
448.99	6104.12
449.17	6134.54
449.36	5975.39
449.54	6218.80
449.73	6157.95
449.91	6328.81
450.10	6399.02
450.28	6389.66
450.46	6319.45
450.65	6413.07
450.83	6530.09
451.02	6356.90
451.20	6630.74
451.39	6504.35
451.57	6331.15
451.76	6499.67
451.94	6558.18
452.13	6609.67
452.31	6307.74
452.49	6380.30
452.68	6555.84
452.86	6670.53
453.05	6572.22
453.23	6644.78
453.42	6600.31
453.60	6572.22
453.78	6829.68
453.97	6473.92
454.15	6789.89
454.34	6745.42
454.52	6752.45
454.70	6642.44
454.89	6972.46
455.07	6796.92
455.26	6820.32
455.44	6927.99
455.62	7119.91
455.81	7052.03
455.99	6913.94
456.17	6932.67
456.36	6998.20
456.54	7204.17
456.73	7117.57
456.91	7396.09
457.09	7265.02
457.28	7325.88
457.46	7250.98
457.64	7356.30
457.83	7344.60
458.01	7145.66
458.19	7344.60
458.38	7421.84
458.56	7496.74
458.74	7555.25
458.93	7246.30
459.11	7470.99
459.29	7398.43
459.48	7527.16
459.66	7513.12
459.84	7639.51
460.03	7700.36
460.21	7754.19
460.39	7866.54
460.57	7707.38
460.76	7854.84
460.94	7798.66
461.12	7653.55
461.31	7880.58
461.49	7892.29
461.67	7740.15
461.85	7861.86
462.04	7875.90
462.22	8659.98
462.40	8173.15
462.59	7946.12
462.77	7875.90
462.95	8156.77
463.13	7899.31
463.32	8009.31
463.50	8238.69
463.68	8018.68
463.86	8116.98
464.05	8056.12
464.23	8152.09
464.41	8339.33
464.59	8030.38
464.78	8222.30
464.96	8283.16
465.14	8201.24
465.32	8372.10
465.50	8411.89
465.69	8486.78
465.87	8468.06
466.05	8257.41
466.23	8287.84
466.41	8425.93
466.60	8500.83
466.78	8269.11
466.96	8414.23
467.14	8475.08
467.32	8442.31
467.51	8692.75
467.69	8526.57
467.87	8505.51
468.05	8475.08
468.23	8657.64
468.41	8580.40
468.60	8762.97
468.78	8784.03
468.96	8669.34
469.14	8739.56
469.32	8812.12
469.50	8636.58
469.69	9064.89
469.87	8973.61
470.05	8683.39
470.23	8779.35
470.41	9074.26
470.59	9268.52
470.77	8842.54
470.95	9132.77
471.14	9195.96
471.32	9144.47
471.50	9153.84
471.68	9401.93
471.86	9390.23
472.04	9469.81
472.22	9572.79
472.40	9334.06
472.58	9322.35
472.77	9399.59
472.95	9738.97
473.13	9865.36
473.31	9544.70
473.49	9652.37
473.67	9685.14
473.85	9755.35
474.03	9734.29
474.21	10026.86
474.39	10183.67
474.57	9949.62
474.75	10174.31
474.93	10085.37
475.12	10188.35
475.30	9804.50
475.48	10347.51
475.66	10310.06
475.84	10157.92
476.02	10345.17
476.20	10445.81
476.38	10492.62
476.56	10773.49
476.74	10953.71
476.92	10682.20
477.10	10766.46
477.28	11002.86
477.46	10857.75
477.64	11145.63
477.82	11124.57
478.00	11367.98
478.18	11176.06
478.36	11307.13
478.54	11520.12
478.72	11599.70
478.90	11421.81
479.08	11887.58
479.26	12077.16
479.44	11999.93
479.62	11808.00
479.80	12086.53
479.98	12173.13
480.16	12676.34
480.34	12505.48
480.52	12339.30
480.70	12510.16
480.88	12430.59
481.06	12645.91
481.24	12704.43
481.41	12945.50
481.59	13025.08
481.77	13142.11
481.95	12891.67
482.13	13132.75
482.31	13359.78
482.49	13841.93
482.67	13743.63
482.85	13652.34
483.03	13874.70
483.21	13771.71
483.39	14071.30
483.57	14146.20
483.74	14087.68
483.92	14235.14
484.10	14277.27
484.28	14492.60
484.46	14808.57
484.64	15229.87
484.82	14511.32
485.00	14721.97
485.18	14867.08
485.35	15300.08
485.53	14888.15
485.71	14916.23
485.89	15264.97
486.07	15454.56
486.25	15323.49
486.43	15492.01
486.61	15461.58
486.78	15889.90
486.96	15969.48
487.14	15978.84
487.32	16255.02
487.50	16692.70
487.68	16765.26
487.85	16938.46
488.03	16739.51
488.21	17188.89
488.39	17092.93
488.57	17228.68
488.75	17348.05
488.92	17413.59
489.10	17823.18
489.28	17827.86
489.46	18090.00
489.64	17991.70
489.81	18424.70
489.99	18438.74
490.17	18274.90
490.35	18707.90
490.53	18635.35
490.70	19042.60
490.88	18946.64
491.06	19178.35
491.24	18991.11
491.41	19042.60
491.59	19491.98
491.77	19033.24
491.95	19506.02
492.13	19939.02
492.30	19934.34
492.48	19953.07
492.66	19997.54
492.84	20030.30
493.01	20451.60
493.19	20463.30
493.37	20837.79
493.54	20718.42
493.72	20800.34
493.90	20795.66
494.08	20908.01
494.25	21188.87
494.43	21483.78
494.61	21837.20
494.79	21277.81
494.96	21277.81
495.14	21841.88
495.32	21762.30
495.49	21848.90
495.67	21898.05
495.85	22560.42
496.02	22761.71
496.20	22663.41
496.38	22576.81
496.55	22787.46
496.73	23007.47
496.91	22724.26
497.09	22876.40
497.26	23101.09
497.44	22960.66
497.62	23016.83
497.79	23349.18
497.97	23440.47
498.14	23456.85
498.32	23880.49
498.50	23901.55
498.67	23824.31
498.85	23889.85
499.03	24177.73
499.20	24004.53
499.38	24137.94
499.56	24610.73
499.73	24482.00
499.91	24856.49
500.08	24730.10
500.26	24512.43
500.44	25046.07
500.61	24765.21
500.79	24823.72
500.97	25102.25
501.14	25359.70
501.32	25338.64
501.49	24952.45
501.67	25446.30
501.84	25869.94
502.02	25450.99
502.20	25909.73
502.37	25699.08
502.55	25944.84
502.72	25633.55
502.90	25947.18
503.07	25998.67
503.25	26026.76
503.43	26167.19
503.60	26555.72
503.78	26335.71
503.95	26284.22
504.13	26757.00
504.30	26529.97
504.48	26735.94
504.65	26508.91
504.83	27063.61
505.01	27185.32
505.18	27138.51
505.36	27166.60
505.53	27140.85
505.71	27325.75
505.88	27709.60
506.06	27307.03
506.23	27571.51
506.41	27498.95
506.58	27754.07
506.76	27536.40
506.93	27997.49
507.11	27763.43
507.28	28086.43
507.46	28070.04
507.63	28034.94
507.81	28231.54
507.98	28243.24
508.16	28187.07
508.33	28603.69
508.50	28245.58
508.68	28577.94
508.85	28606.03
509.03	29027.32
509.20	28575.60
509.38	28994.56
509.55	29383.09
509.73	29244.99
509.90	29640.54
510.08	29420.53
510.25	29151.37
510.42	29551.60
510.60	29544.58
510.77	29668.63
510.95	29823.11
511.12	29628.84
511.30	30171.85
511.47	30258.45
511.64	30333.34
511.82	30497.18
511.99	30101.63
512.17	30361.43
512.34	29907.37
512.51	30288.87
512.69	30752.30
512.86	30401.22
513.04	30480.80
513.21	30508.88
513.38	30359.09
513.56	31140.83
513.73	30499.52
513.90	30998.06
514.08	31087.00
514.25	31007.42
514.43	31185.30
514.60	31178.28
514.77	30941.88
514.95	31276.58
515.12	31131.47
515.29	31187.64
515.47	32004.49
515.64	31711.92
515.81	31559.78
515.99	31489.57
516.16	31803.20
516.33	31749.37
516.51	31777.45
516.68	31414.67
516.85	31721.28
517.03	31632.34
517.20	31740.00
517.37	31929.59
517.54	32526.42
517.72	32180.03
517.89	32449.19
518.06	32620.05
518.24	32252.58
518.41	32500.68
518.58	32685.58
518.75	32400.04
518.93	33064.75
519.10	32636.43
519.27	33198.16
519.45	33443.91
519.62	33083.47
519.79	33167.73
519.96	33383.06
520.14	33413.49
520.31	33280.08
520.48	33626.48
520.65	33654.56
520.83	33532.86
521.00	33663.93
521.17	33586.69
521.34	33872.23
521.52	33984.58
521.69	34052.45
521.86	34103.95
522.03	34440.98
522.20	34562.69
522.38	34352.04
522.55	34356.72
522.72	34373.11
522.89	34808.45
523.07	34660.99
523.24	34464.39
523.41	34707.80
523.58	34302.89
523.75	34969.94
523.92	35096.33
524.10	35037.82
524.27	35084.63
524.44	34941.86
524.61	35173.57
524.78	34731.21
524.96	35438.05
525.13	35412.31
525.30	35314.00
525.47	35311.66
525.64	35466.14
525.81	35370.18
525.98	35849.99
526.16	35597.21
526.33	35016.75
526.50	35697.85
526.67	35562.10
526.84	35620.61
527.01	35775.09
527.18	35615.93
527.36	35999.78
527.53	36074.68
527.70	36151.91
527.87	36311.07
528.04	36210.43
528.21	36371.92
528.38	36371.92
528.55	36505.34
528.72	36465.55
528.89	36720.66
529.07	36575.55
529.24	36526.40
529.41	36662.15
529.58	36357.88
529.75	36526.40
529.92	36701.94
530.09	36985.15
530.26	37060.04
530.43	36945.36
530.60	36830.67
530.77	37029.62
530.94	36755.77
531.11	36730.03
531.28	37469.64
531.46	37273.03
531.63	37600.71
531.80	37167.71
531.97	37549.21
532.14	37184.09
532.31	37448.57
532.48	37422.83
532.65	37511.77
532.82	37605.39
532.99	37811.35
533.16	37439.21
533.33	37577.30
533.50	37855.82
533.67	37628.79
533.84	38007.96
534.01	37944.76
534.18	37640.50
534.35	38457.34
534.52	38185.84
534.69	38199.88
534.86	38087.54
535.03	38045.41
535.20	38518.20
535.37	38913.75
535.54	38810.76
535.71	38220.95
535.88	38639.90
536.05	38829.49
536.22	38560.33
536.38	38714.80
536.55	38703.10
536.72	38675.01
536.89	38628.20
537.06	38494.79
537.23	39335.04
537.40	39105.67
537.57	38712.46
537.74	39112.69
537.91	39122.05
538.08	39026.09
538.25	38590.75
538.42	38965.24
538.59	39271.85
538.75	38635.22
538.92	38976.94
539.09	39438.03
539.26	39304.62
539.43	39299.94
539.60	39159.50
539.77	39672.08
539.94	39814.85
540.11	39379.51
540.28	39182.91
540.44	39529.31
540.61	39381.85
540.78	39716.55
540.95	39697.83
541.12	39634.63
541.29	39892.09
541.46	39852.30
541.62	40147.21
541.79	39679.10
541.96	39536.33
542.13	39763.36
542.30	40002.10
542.47	40648.08
542.63	39999.76
542.80	39976.35
542.97	40598.93
543.14	41060.02
543.31	40540.42
543.48	40746.39
543.64	40928.95
543.81	40676.17
543.98	40554.46
544.15	40517.01
544.32	40828.30
544.48	41055.34
544.65	40788.52
544.82	40842.35
544.99	40170.61
545.16	40947.67
545.32	41085.76
545.49	41146.62
545.66	41134.92
545.83	40959.38
546.00	41640.47
546.16	41378.33
546.33	41125.55
546.50	40715.96
546.67	41099.81
546.83	40914.90
547.00	41617.07
547.17	41008.53
547.34	41502.38
547.50	41682.60
547.67	41347.90
547.84	41911.97
548.00	41364.29
548.17	41839.42
548.34	41631.11
548.51	42263.05
548.67	42024.32
548.84	42230.29
549.01	41588.98
549.18	42033.68
549.34	41783.24
549.51	41965.81
549.68	41954.10
549.84	41918.99
550.01	42108.58
550.18	41869.84
550.34	42071.13
550.51	41940.06
550.68	41907.29
550.84	41797.29
551.01	42080.49
551.18	42330.93
551.34	42213.90
551.51	42232.63
551.68	42256.03
551.84	42241.99
552.01	42260.71
552.18	42024.32
552.34	42192.84
552.51	42616.47
552.68	42295.82
552.84	43103.31
553.01	42646.90
553.18	42480.72
553.34	42735.84
553.51	42403.49
553.67	42792.01
553.84	42925.42
554.01	42611.79
554.17	42857.55
554.34	43136.07
554.51	42368.38
554.67	43072.88
554.84	42953.51
555.00	42866.91
555.17	42344.97
555.33	43051.81
555.50	42932.45
555.67	42536.90
555.83	42864.57
556.00	43093.94
556.16	43545.67
556.33	43136.07
556.50	43012.02
556.66	43054.15
556.83	43477.79
556.99	43328.00
557.16	43269.48
557.32	43718.87
557.49	43295.23
557.65	42890.32
557.82	43147.78
557.98	43299.91
558.15	43302.25
558.32	43278.85
558.48	43662.69
558.65	43662.69
558.81	43262.46
558.98	43622.90
559.14	43473.11
559.31	43562.05
559.47	43477.79
559.64	44198.68
559.80	44215.06
559.97	43569.07
560.13	43700.14
560.30	43791.42
560.46	43580.78
560.63	44140.16
560.79	43849.94
560.96	43826.53
561.12	43540.99
561.29	43704.82
561.45	43540.99
561.61	43632.27
561.78	44123.78
561.94	44006.75
562.11	43688.44
562.27	43763.34
562.44	43435.66
562.60	43835.89
562.77	44135.48
562.93	44278.25
563.10	44362.51
563.26	43863.98
563.42	44151.87
563.59	43817.17
563.75	43751.63
563.92	44294.64
564.08	44114.42
564.24	44091.01
564.41	44083.99
564.57	44098.03
564.74	44088.67
564.90	44091.01
565.07	44222.08
565.23	43990.37
565.39	43941.22
565.56	44313.36
565.72	44158.89
565.88	43997.39
566.05	44175.27
566.21	44423.37
566.38	44046.54
566.54	44018.46
566.70	43768.02
566.87	44676.15
567.03	44081.65
567.19	44505.29
567.36	44568.48
567.52	44161.23
567.68	44762.75
567.85	44318.04
568.01	44355.49
568.17	44076.97
568.34	44364.85
568.50	44294.64
568.66	44168.25
568.83	44507.63
568.99	44285.28
569.15	44067.61
569.32	44030.16
569.48	44311.02
569.64	44947.65
569.81	44804.88
569.97	44341.45
570.13	44369.54
570.30	44044.20
570.46	44023.14
570.62	44194.00
570.78	44299.32
570.95	43917.81
571.11	44638.70
571.27	44304.00
571.43	44381.24
571.60	44404.64
571.76	44367.20
571.92	44280.60
572.09	44453.79
572.25	44500.61
572.41	44577.84
572.57	44535.71
572.74	45008.50
572.90	44617.63
573.06	44676.15
573.22	44844.66
573.38	44502.95
573.55	44884.45
573.71	44762.75
573.87	44636.36
574.03	44645.72
574.20	44596.57
574.36	44666.78
574.52	44847.00
574.68	44605.93
574.84	44786.15
575.01	44287.62
575.17	44641.04
575.33	44076.97
575.49	44500.61
575.65	44765.09
575.82	44615.29
575.98	44458.48
576.14	45069.36
576.30	44748.70
576.46	44631.68
576.62	44605.93
576.79	44388.26
576.95	44538.05
577.11	44533.37
577.27	44748.70
577.43	44516.99
577.59	44671.46
577.75	44524.01
577.92	44502.95
578.08	44079.31
578.24	44542.74
578.40	44659.76
578.56	45034.25
578.72	45062.33
578.88	44935.95
579.04	45001.48
579.21	44737.00
579.37	44580.18
579.53	45223.83
579.69	44346.13
579.85	44910.20
580.01	44708.91
580.17	44938.29
580.33	44631.68
580.49	44954.67
580.65	44708.91
580.82	44790.83
580.98	44762.75
581.14	44781.47
581.30	45062.33
581.46	44484.22
581.62	44790.83
581.78	45052.97
581.94	45160.64
582.10	44191.65
582.26	44832.96
582.42	45123.19
582.58	44807.22
582.74	44879.77
582.90	44825.94
583.06	45064.67
583.22	44783.81
583.38	45179.36
583.54	44634.02
583.70	45141.91
583.86	44772.11
584.02	44336.77
584.18	44467.84
584.34	45038.93
584.50	44964.03
584.66	44769.77
584.82	44748.70
584.98	45102.12
585.14	44898.50
585.30	44746.36
585.46	44739.34
585.62	45001.48
585.78	44645.72
585.94	44612.95
586.10	44631.68
586.26	44540.39
586.42	45055.31
586.58	44928.92
586.74	44802.53
586.90	44676.15
587.06	44657.42
587.22	45181.70
587.38	44301.66
587.54	45151.27
587.70	45235.53
587.86	45209.79
588.02	45151.27
588.18	45621.72
588.34	45045.95
588.49	44320.38
588.65	44928.92
588.81	44456.14
588.97	44346.13
589.13	44659.76
589.29	45041.27
589.45	44573.16
589.61	45345.54
589.77	44737.00
589.93	44589.55
590.08	45172.34
590.24	45202.77
590.40	45462.57
590.56	45268.30
590.72	45205.11
590.88	44985.10
591.04	44900.84
591.20	45265.96
591.35	45006.16
591.51	45429.80
591.67	45022.54
591.83	45001.48
591.99	45155.96
592.15	44849.35
592.31	45024.89
592.46	45181.70
592.62	44856.37
592.78	45359.58
592.94	45261.28
593.10	44669.12
593.26	45179.36
593.41	44907.86
593.57	44982.76
593.73	45099.78
593.89	45125.53
594.05	45024.89
594.20	45294.05
594.36	45682.58
594.52	45123.19
594.68	44975.73
594.84	45134.89
594.99	45249.58
595.15	45059.99
595.31	45565.55
595.47	45284.68
595.62	45184.04
595.78	45340.86
595.94	45240.21
596.10	45305.75
596.25	45593.64
596.41	44898.50
596.57	45223.83
596.73	45460.23
596.88	44900.84
597.04	45446.18
597.20	45088.08
597.36	45586.61
597.51	45542.14
597.67	45113.83
597.83	45441.50
597.99	45773.86
598.14	45106.80
598.30	45296.39
598.46	45319.79
598.61	45048.29
598.77	44964.03
598.93	45083.40
599.09	45036.59
599.24	45572.57
599.40	45570.23
599.56	45787.90
599.71	45272.98
599.87	45727.05
600.03	45406.39
600.18	44973.39
600.34	45357.24
600.50	45233.19
600.65	45230.85
600.81	45406.39
600.97	45310.43
601.12	45373.63
601.28	45780.88
601.44	45137.23
601.59	45352.56
601.75	44949.99
601.91	45106.80
602.06	44924.24
602.22	45221.49
602.37	45120.85
602.53	45406.39
602.69	45504.70
602.84	44856.37
603.00	45036.59
603.16	45158.30
603.31	45188.72
603.47	45333.84
603.62	44528.69
603.78	45488.31
603.94	45205.11
604.09	45404.05
604.25	45226.17
604.40	45322.13
604.56	45708.32
604.71	45275.32
604.87	44940.63
605.03	45287.03
605.18	45162.98
605.34	44830.62
605.49	44896.16
605.65	45263.62
605.80	44659.76
605.96	45530.44
606.12	45441.50
606.27	45514.06
606.43	44978.07
606.58	45223.83
606.74	44788.49
606.89	45172.34
607.05	45071.70
607.20	45038.93
607.36	44966.37
607.51	45326.81
607.67	45010.84
607.82	45390.01
607.98	44669.12
608.13	45052.97
608.29	44971.05
608.44	44896.16
608.60	44781.47
608.75	44458.48
608.91	44748.70
609.06	44891.48
609.22	45010.84
609.37	44718.28
609.53	44772.11
609.68	44959.35
609.84	44828.28
609.99	44968.71
610.15	44692.53
610.30	44832.96
610.46	44931.26
610.61	44535.71
610.76	44491.24
610.92	44432.73
611.07	44662.10
611.23	44355.49
611.38	44694.87
611.54	44634.02
611.69	44481.88
611.84	44769.77
612.00	44446.77
612.15	44823.60
612.31	44575.50
612.46	44692.53
612.62	44978.07
612.77	44634.02
612.92	44596.57
613.08	44381.24
613.23	44395.28
613.39	44208.04
613.54	44093.35
613.69	44065.27
613.85	44531.03
614.00	44563.80
614.15	44357.83
614.31	44622.31
614.46	44470.18
614.62	44369.54
614.77	43931.86
614.92	44388.26
615.08	44168.25
615.23	44170.59
615.38	43714.19
615.54	43805.47
615.69	43772.70
615.84	43543.33
616.00	44261.87
616.15	43997.39
616.30	44004.41
616.46	43962.28
616.61	43805.47
616.76	43742.27
616.92	43674.40
617.07	43611.20
617.22	43606.52
617.37	43386.51
617.53	44086.33
617.68	44046.54
617.83	43978.67
617.99	43735.25
618.14	43997.39
618.29	43480.13
618.45	43587.80
618.60	43915.47
618.75	43742.27
618.90	43529.28
619.06	44179.95
619.21	43508.22
619.36	43751.63
619.51	43510.56
619.67	43365.45
619.82	43786.74
619.97	43952.92
620.12	43412.26
620.28	43140.75
620.43	43487.15
620.58	43665.03
620.73	43526.94
620.89	43110.33
621.04	43688.44
621.19	43107.99
621.34	43325.66
621.49	43297.57
621.65	43002.66
621.80	43459.07
621.95	42878.61
622.10	42909.04
622.25	43119.69
622.41	42763.93
622.56	43367.79
622.71	43337.36
622.86	43225.01
623.01	43260.12
623.16	43414.60
623.32	43433.32
623.47	43253.10
623.62	43342.04
623.77	43166.50
623.92	42887.98
624.07	42775.63
624.23	42529.87
624.38	42859.89
624.53	42878.61
624.68	42845.85
624.83	42637.54
624.98	42848.19
625.13	42600.09
625.29	42368.38
625.44	42803.72
625.59	42799.04
625.74	42508.81
625.89	42155.39
626.04	41682.60
626.19	42693.71
626.34	42471.36
626.49	42431.57
626.65	42600.09
626.80	42679.67
626.95	42080.49
627.10	42113.26
627.25	41841.76
627.40	42396.46
627.55	41663.88
627.70	41610.04
627.85	41963.46
628.00	42010.28
628.15	41710.69
628.30	42241.99
628.45	42351.99
628.60	41755.16
628.76	42497.11
628.91	42597.75
629.06	41691.96
629.21	41729.41
629.36	41858.14
629.51	41766.86
629.66	41720.05
629.81	42059.43
629.96	42071.13
630.11	41670.90
630.26	41635.79
630.41	41708.35
630.56	41476.63
630.71	41926.02
630.86	41874.52
631.01	41455.57
631.16	41308.11
631.31	41598.34
631.46	41453.23
631.61	41680.26
631.76	41198.11
631.91	41560.89
632.06	41432.16
632.21	41380.67
632.36	42188.16
632.51	41614.72
632.66	41312.80
632.81	41256.62
632.96	41359.61
633.10	40751.07
633.25	40804.90
633.40	40685.53
633.55	41380.67
633.70	41148.96
633.85	40935.97
634.00	40765.11
634.15	40914.90
634.30	40636.38
634.45	40767.45
634.60	40793.20
634.75	41045.97
634.90	40641.06
635.05	41022.57
635.19	41195.77
635.34	41312.80
635.49	40889.16
635.64	40847.03
635.79	40601.27
635.94	40786.18
636.09	40760.43
636.24	40194.02
636.39	40364.88
636.53	40339.13
636.68	40374.24
636.83	40425.73
636.98	40617.66
637.13	40481.91
637.28	40191.68
637.43	40421.05
637.57	40711.28
637.72	40474.88
637.87	40395.31
638.02	39871.03
638.17	40378.92
638.32	40407.01
638.46	40250.19
638.61	40620.00
638.76	40261.90
638.91	40257.21
639.06	40304.02
639.20	40521.69
639.35	40474.88
639.50	40189.34
639.65	40318.07
639.80	40566.16
639.94	39667.40
640.09	39934.22
640.24	39749.32
640.39	39587.82
640.54	40091.04
640.68	39908.47
640.83	39873.37
640.98	39578.46
641.13	39742.30
641.27	39978.69
641.42	39880.39
641.57	40034.86
641.72	39805.49
641.86	39590.16
642.01	39473.13
642.16	39667.40
642.31	38948.85
642.45	39798.47
642.60	38705.44
642.75	39096.31
642.90	40020.82
643.04	39379.51
643.19	39503.56
643.34	39299.94
643.48	39379.51
643.63	39658.04
643.78	39370.15
643.93	38955.88
644.07	38740.55
644.22	39503.56
644.37	39140.78
644.51	38871.62
644.66	39309.30
644.81	38958.22
644.95	39950.60
645.10	39391.22
645.25	39363.13
645.39	39653.36
645.54	39002.69
645.69	39126.74
645.83	38871.62
645.98	38756.93
646.13	39246.10
646.27	39115.03
646.42	39096.31
646.57	39115.03
646.71	38965.24
646.86	39136.10
647.00	38740.55
647.15	39124.40
647.30	38916.09
647.44	38480.75
647.59	39082.27
647.74	38756.93
647.88	38487.77
648.03	38838.85
648.17	38698.42
648.32	38651.61
648.47	38710.12
648.61	38714.80
648.76	38721.82
648.90	38447.98
649.05	38550.96
649.20	38960.56
649.34	39129.08
649.49	38352.02
649.63	38707.78
649.78	38157.75
649.92	38122.65
650.07	38726.50
650.21	38469.04
650.36	38284.14
650.51	38288.82
650.65	38195.20
650.80	38906.73
650.94	38785.02
651.09	38424.57
651.23	38607.14
651.38	38188.18
651.52	37968.17
651.67	38012.64
651.81	38593.09
651.96	37731.78
652.10	37900.29
652.25	38045.41
652.39	37699.01
652.54	37792.63
652.68	37834.76
652.83	38433.94
652.97	38113.28
653.12	37890.93
653.26	38382.45
653.41	37804.33
653.55	37752.84
653.70	37825.40
653.84	37654.54
653.99	38139.03
654.13	37507.08
654.27	37773.91
654.42	37923.70
654.56	37354.95
654.71	37797.31
654.85	37706.03
655.00	37338.57
655.14	37244.94
655.29	37163.03
655.43	37179.41
655.57	37132.60
655.72	37209.84
655.86	37092.81
656.01	36903.23
656.15	36931.31
656.30	37050.68
656.44	37116.22
656.58	36954.72
656.73	36783.86
656.87	36996.85
657.01	36634.06
657.16	37127.92
657.30	36858.76
657.45	36622.36
657.59	37373.67
657.73	36671.51
657.88	37038.98
658.02	36512.36
658.16	36926.63
658.31	36971.10
658.45	36919.61
658.60	37209.84
658.74	36727.69
658.88	36570.87
659.03	36538.10
659.17	36645.77
659.31	36222.13
659.46	36341.50
659.60	36446.82
659.74	36453.84
659.89	35857.01
660.03	35566.78
660.17	36414.05
660.32	36107.44
660.46	36498.31
660.60	36524.06
660.74	36535.76
660.89	36371.92
661.03	35627.63
661.17	35913.18
661.32	35768.07
661.46	35587.85
661.60	35388.90
661.74	35690.83
661.89	35421.67
662.03	35754.02
662.17	35693.17
662.31	35580.82
662.46	35875.73
662.60	35917.86
662.74	35346.77
662.88	35440.39
663.03	35405.28
663.17	35510.61
663.31	35049.52
663.45	35229.74
663.60	35440.39
663.74	34639.93
663.88	35124.42
664.02	34848.24
664.17	35213.36
664.31	34742.91
664.45	34705.46
664.59	34974.63
664.73	34909.09
664.88	34693.76
665.02	34803.77
665.16	34656.31
665.30	34803.77
665.44	34607.16
665.59	34448.00
665.73	34401.19
665.87	34330.98
666.01	34363.75
666.15	34457.37
666.29	34249.06
666.44	34464.39
666.58	34618.86
666.72	34532.26
666.86	34010.32
667.00	34471.41
667.14	33834.78
667.28	33610.09
667.43	34052.45
667.57	34029.05
667.71	33177.09
667.85	33745.84
667.99	33792.65
668.13	33436.89
668.27	33816.06
668.41	33766.91
668.56	33701.37
668.70	33493.07
668.84	33886.28
668.98	33109.22
669.12	33240.29
669.26	33301.14
669.40	33221.56
669.54	32959.42
669.68	33034.32
669.82	32945.38
669.96	33263.69
670.10	32914.95
670.25	33141.99
670.39	32933.68
670.53	32877.51
670.67	32393.01
670.81	32554.51
670.95	32603.66
671.09	32437.48
671.23	32315.78
671.37	32938.36
671.51	32734.73
671.65	32027.89
671.79	32187.05
671.93	31969.38
672.07	32615.37
672.21	32086.40
672.35	32006.83
672.49	32109.81
672.63	32067.68
672.77	32084.06
672.91	31910.86
673.05	31740.00
673.19	31611.28
673.33	31367.86
673.47	31562.12
673.61	31075.29
673.75	31608.93
673.89	31072.95
674.03	30682.08
674.17	30866.98
674.31	31124.44
674.45	30965.29
674.59	31374.88
674.73	31302.32
674.87	30988.69
675.01	31213.38
675.15	30787.41
675.29	31157.21
675.43	30845.92
675.56	30881.03
675.70	30499.52
675.84	30160.14
675.98	29298.83
676.12	30696.13
676.26	30176.53
676.40	29670.97
676.54	30061.84
676.68	29603.10
676.82	29495.43
676.96	29621.82
677.10	29324.57
677.23	29144.35
677.37	29303.51
677.51	29329.25
677.65	29270.74
677.79	29371.38
677.93	29266.06
678.07	28720.71
678.21	28929.02
678.34	28662.20
678.48	28905.62
678.62	28273.67
678.76	28367.29
678.90	28400.06
679.04	28634.11
679.18	28332.18
679.31	28364.95
679.45	27835.99
679.59	27559.81
679.73	27662.79
679.87	27990.47
680.00	28219.84
680.14	27861.74
680.28	27922.59
680.42	26998.08
680.56	27854.72
680.70	27400.65
680.83	26993.40
680.97	27122.13
681.11	26998.08
681.25	26572.10
681.39	26710.19
681.52	26824.88
681.66	26719.56
681.80	26895.10
681.94	26766.37
682.07	26703.17
682.21	26153.15
682.35	26382.52
682.49	26628.27
682.62	26497.20
682.76	25862.92
682.90	26024.42
683.04	26197.62
683.17	26092.29
683.31	25998.67
683.45	25883.98
683.59	25710.78
683.72	25425.24
683.86	25132.67
684.00	25453.33
684.13	25474.39
684.27	25448.64
684.41	25184.16
684.55	25083.52
684.68	25010.96
684.82	24767.55
684.96	24950.11
685.09	24716.06
685.23	24540.52
685.37	24416.47
685.50	24577.97
685.64	24191.78
685.78	24430.51
685.91	24166.03
686.05	23749.42
686.19	23836.02
686.32	23955.38
686.46	23613.66
686.60	23332.80
686.73	23288.33
686.87	23206.41
687.01	23264.92
687.14	23192.37
687.28	23213.43
687.42	23302.37
687.55	23112.79
687.69	22904.48
687.82	22857.67
687.96	23026.19
688.10	22719.58
688.23	22764.05
688.37	22686.81
688.50	22497.23
688.64	22401.27
688.78	22384.88
688.91	22157.85
689.05	22347.44
689.18	21860.60
689.32	22031.46
689.46	21900.39
689.59	22230.41
689.73	22232.75
689.86	21975.29
690.00	21619.53
690.13	21963.59
690.27	21621.87
690.41	21582.08
690.54	21436.97
690.68	20985.24
690.81	21149.08
690.95	21078.86
691.08	21205.25
691.22	20762.89
691.35	20999.29
691.49	21003.97
691.62	20952.48
691.76	20716.08
691.89	20851.83
692.03	20788.64
692.16	20318.19
692.30	20517.14
692.43	20196.48
692.57	20187.12
692.70	20292.44
692.84	20287.76
692.97	19735.40
693.11	19641.78
693.24	19814.98
693.38	19733.06
693.51	19389.00
693.65	19587.94
693.78	19510.71
693.92	19475.60
694.05	19559.86
694.19	19307.08
694.32	19112.81
694.45	19248.57
694.59	18838.97
694.72	18869.40
694.86	18780.46
694.99	18820.25
695.13	18838.97
695.26	18480.87
695.39	18710.24
695.53	18349.80
695.66	18211.71
695.80	18558.11
695.93	18300.65
696.07	18246.82
696.20	18164.90
696.33	18033.83
696.47	17958.93
696.60	18015.10
696.73	18204.69
696.87	17666.36
697.00	17832.54
697.14	17528.27
697.27	17685.09
697.40	17326.99
697.54	17486.14
697.67	17287.20
697.80	17198.26
697.94	17137.40
698.07	16673.98
698.21	16994.63
698.34	17081.23
698.47	16912.71
698.61	16741.85
698.74	16453.97
698.87	16734.83
699.01	16292.47
699.14	16100.55
699.27	16404.81
699.40	16208.21
699.54	16109.91
699.67	16070.12
699.80	16140.33
699.94	16070.12
700.07	15889.90
700.20	15920.32
700.34	15875.85
700.47	15768.19
700.60	16063.10
700.73	15878.19
700.87	15723.72
701.00	15559.88
701.13	15606.69
701.26	15700.31
701.40	15367.96
701.53	15367.96
701.66	15288.38
701.79	15272.00
701.93	15073.05
702.06	14822.61
702.19	14920.92
702.32	14682.18
702.46	14679.84
702.59	15014.54
702.72	14768.78
702.85	14520.68
702.99	14808.57
703.12	14686.86
703.25	14700.90
703.38	14342.80
703.51	14342.80
703.65	14422.38
703.78	14232.80
703.91	14113.43
704.04	14209.39
704.17	13982.36
704.31	13886.40
704.44	13568.09
704.57	13657.03
704.70	13762.35
704.83	13441.70
704.96	13736.60
705.10	13591.49
705.23	13757.67
>>>>>End Processed Spectral Data<<<<<
