SpectraSuite Data File
++++++++++++++++++++++++++++++++++++
Date: Fri Oct 25 10:47:33 EDT 2013
User: price-jones
Dark Spectrum Present: No
Reference Spectrum Present: No
Number of Sampled Component Spectra: 1
Spectrometers: USB2+H05261
Integration Time (usec): 100000 (USB2+H05261)
Spectra Averaged: 1 (USB2+H05261)
Boxcar Smoothing: 0 (USB2+H05261)
Correct for Electrical Dark: No (USB2+H05261)
Strobe/Lamp Enabled: No (USB2+H05261)
Correct for Detector Non-linearity: No (USB2+H05261)
Correct for Stray Light: No (USB2+H05261)
Number of Pixels in Processed Spectrum: 2048
>>>>>Begin Processed Spectral Data<<<<<
365.73	194.26
365.92	194.26
366.12	194.26
366.32	0.00
366.52	23.41
366.72	18.72
366.91	28.09
367.11	0.00
367.31	0.00
367.51	67.88
367.70	0.00
367.90	28.09
368.10	67.88
368.30	2.34
368.49	30.43
368.69	9.36
368.89	28.09
369.09	53.83
369.28	88.94
369.48	51.49
369.68	51.49
369.87	112.35
370.07	133.41
370.27	161.50
370.47	156.82
370.66	362.78
370.86	411.93
371.06	512.58
371.25	456.40
371.45	383.85
371.65	496.19
371.84	461.09
372.04	322.99
372.24	433.00
372.44	451.72
372.63	519.60
372.83	580.45
373.03	535.98
373.22	482.15
373.42	547.69
373.62	564.07
373.81	543.00
374.01	547.69
374.21	528.96
374.40	543.00
374.60	493.85
374.79	538.32
374.99	531.30
375.19	540.66
375.38	535.98
375.58	552.37
375.78	580.45
375.97	603.86
376.17	608.54
376.37	599.18
376.56	613.22
376.76	557.05
376.95	538.32
377.15	685.78
377.35	674.07
377.54	610.88
377.74	592.16
377.93	610.88
378.13	641.31
378.33	557.05
378.52	566.41
378.72	564.07
378.91	627.26
379.11	681.10
379.31	685.78
379.50	538.32
379.70	678.76
379.89	650.67
380.09	585.13
380.28	709.18
380.48	624.92
380.68	650.67
380.87	678.76
381.07	674.07
381.26	592.16
381.46	653.01
381.65	669.39
381.85	676.41
382.04	641.31
382.24	683.44
382.43	692.80
382.63	610.88
382.83	704.50
383.02	692.80
383.22	748.97
383.41	624.92
383.61	662.37
383.80	718.54
384.00	681.10
384.19	732.59
384.39	767.70
384.58	819.19
384.78	812.17
384.97	800.46
385.17	690.46
385.36	767.70
385.56	751.31
385.75	716.20
385.95	711.52
386.14	758.33
386.34	830.89
386.53	800.46
386.72	823.87
386.92	870.68
387.11	828.55
387.31	812.17
387.50	816.85
387.70	823.87
387.89	814.51
388.09	856.64
388.28	870.68
388.48	833.23
388.67	847.27
388.86	866.00
389.06	912.81
389.25	933.87
389.45	910.47
389.64	887.06
389.84	940.90
390.03	987.71
390.22	985.37
390.42	922.17
390.61	945.58
390.81	917.49
391.00	933.87
391.19	1041.54
391.39	1013.45
391.58	985.37
391.78	964.30
391.97	924.51
392.16	978.34
392.36	898.77
392.55	1057.92
392.75	931.53
392.94	1004.09
393.13	959.62
393.33	910.47
393.52	1025.15
393.71	997.07
393.91	1064.94
394.10	1006.43
394.29	1027.50
394.49	1032.18
394.68	1053.24
394.88	1123.46
395.07	1069.62
395.26	1123.46
395.46	1139.84
395.65	1128.14
395.84	1071.97
396.04	1242.82
396.23	1055.58
396.42	1074.31
396.62	1111.75
396.81	1144.52
397.00	1076.65
397.19	1219.42
397.39	1184.31
397.58	1224.10
397.77	1252.19
397.97	1160.91
398.16	1200.69
398.35	1266.23
398.55	1284.95
398.74	1245.16
398.93	1217.08
399.12	1322.40
399.32	1301.34
399.51	1334.11
399.70	1371.55
399.90	1331.76
400.09	1376.24
400.28	1458.15
400.47	1472.20
400.67	1418.36
400.86	1390.28
401.05	1401.98
401.24	1507.30
401.44	1387.94
401.63	1472.20
401.82	1469.86
402.01	1453.47
402.21	1472.20
402.40	1481.56
402.59	1446.45
402.78	1551.78
402.97	1490.92
403.17	1509.65
403.36	1554.12
403.55	1537.73
403.74	1610.29
403.93	1540.07
404.13	1598.59
404.32	1652.42
404.51	1563.48
404.70	1640.72
404.89	1577.52
405.09	1753.06
405.28	1652.42
405.47	1650.08
405.66	1776.47
405.85	1675.82
406.05	1748.38
406.24	1687.53
406.43	1762.42
406.62	1816.26
406.81	1891.15
407.00	1806.89
407.20	1813.92
407.39	1898.17
407.58	1804.55
407.77	1895.83
407.96	1846.68
408.15	1973.07
408.34	1933.28
408.54	1977.75
408.73	1916.90
408.92	1851.36
409.11	1984.77
409.30	2026.90
409.49	2036.27
409.68	1994.14
409.87	1916.90
410.07	2050.31
410.26	2160.31
410.45	2054.99
410.64	2078.40
410.83	2097.12
411.02	2143.93
411.21	2270.32
411.40	2256.28
411.59	2211.81
411.78	2312.45
411.98	2221.17
412.17	2331.17
412.36	2345.22
412.55	2434.16
412.74	2403.73
412.93	2445.86
413.12	2373.30
413.31	2558.21
413.50	2413.09
413.69	2597.99
413.88	2532.46
414.07	2537.14
414.26	2471.61
414.45	2579.27
414.64	2602.68
414.83	2658.85
415.02	2640.12
415.22	2677.57
415.41	2668.21
415.60	2743.11
415.79	2857.79
415.98	2768.85
416.17	2782.90
416.36	2686.94
416.55	2967.80
416.74	2913.97
416.93	2864.82
417.12	2841.41
417.31	2829.71
417.50	2895.24
417.69	3016.95
417.88	2899.92
418.07	3007.59
418.26	3073.12
418.45	3047.38
418.64	3152.70
418.83	3185.47
419.02	3178.45
419.21	3126.96
419.39	3084.83
419.58	3141.00
419.77	3136.32
419.96	3112.91
420.15	3110.57
420.34	3171.43
420.53	3258.03
420.72	3384.41
420.91	3262.71
421.10	3314.20
421.29	3321.22
421.48	3321.22
421.67	3391.44
421.86	3302.50
422.05	3335.26
422.24	3262.71
422.43	3349.31
422.61	3445.27
422.80	3419.52
422.99	3410.16
423.18	3400.80
423.37	3524.85
423.56	3475.70
423.75	3515.48
423.94	3424.20
424.13	3239.30
424.32	3391.44
424.50	3421.86
424.69	3588.04
424.88	3595.06
425.07	3468.67
425.26	3335.26
425.45	3424.20
425.64	3447.61
425.83	3426.54
426.01	3548.25
426.20	3513.14
426.39	3435.91
426.58	3559.95
426.77	3510.80
426.96	3627.83
427.15	3571.66
427.33	3609.11
427.52	3691.02
427.71	3705.07
427.90	3625.49
428.09	3604.42
428.28	3716.77
428.46	3632.51
428.65	3679.32
428.84	3845.50
429.03	3824.44
429.22	3728.47
429.40	3735.50
429.59	3749.54
429.78	3625.49
429.97	3716.77
430.16	3702.73
430.34	3740.18
430.53	3723.79
430.72	3880.61
430.91	3789.33
431.10	3721.45
431.28	3953.16
431.47	4030.40
431.66	4037.42
431.85	4028.06
432.03	4081.89
432.22	4278.50
432.41	3988.27
432.60	4152.11
432.79	3925.08
432.97	4011.68
433.16	4257.43
433.35	4117.00
433.54	4133.39
433.72	4154.45
433.91	4140.41
434.10	4194.24
434.28	4259.78
434.47	4381.48
434.66	4245.73
434.85	4245.73
435.03	4348.72
435.22	4329.99
435.41	4421.27
435.59	4372.12
435.78	4517.23
435.97	4505.53
436.16	4442.34
436.34	4545.32
436.53	4475.10
436.72	4671.71
436.90	4491.49
437.09	4545.32
437.28	4507.87
437.46	4538.30
437.65	4664.69
437.84	4702.14
438.02	4631.92
438.21	4697.46
438.40	4615.54
438.58	4842.57
438.77	4821.50
438.96	4770.01
439.14	4957.25
439.33	4952.57
439.52	4922.15
439.70	4910.44
439.89	4978.32
440.08	5090.67
440.26	5174.92
440.45	5139.82
440.63	4929.17
440.82	5289.61
441.01	5287.27
441.19	5320.04
441.38	5502.60
441.57	5305.99
441.75	5408.98
441.94	5500.26
442.12	5390.25
442.31	5504.94
442.50	5479.19
442.68	5526.00
442.87	5394.93
443.05	5671.12
443.24	5645.37
443.43	5535.37
443.61	5689.84
443.80	5830.27
443.98	5645.37
444.17	5376.21
444.35	5647.71
444.54	5785.80
444.73	5792.83
444.91	5933.26
445.10	5636.01
445.28	5741.33
445.47	5680.48
445.65	5703.89
445.84	5771.76
446.02	5905.17
446.21	5916.87
446.39	5853.68
446.58	6150.93
446.77	5774.10
446.95	5710.91
447.14	5863.04
447.32	5984.75
447.51	5900.49
447.69	5968.37
447.88	5865.38
448.06	5785.80
448.25	5951.98
448.43	5998.79
448.62	5849.00
448.80	5837.30
448.99	6010.50
449.17	5933.26
449.36	6001.13
449.54	6263.27
449.73	6015.18
449.91	6171.99
450.10	6406.05
450.28	6190.72
450.46	6485.62
450.65	6473.92
450.83	6183.70
451.02	6326.47
451.20	6218.80
451.39	6326.47
451.57	6181.35
451.76	6267.95
451.94	6408.39
452.13	6356.90
452.31	6595.63
452.49	6209.44
452.68	6476.26
452.86	6551.16
453.05	6420.09
453.23	6427.11
453.42	6342.85
453.60	6476.26
453.78	6539.46
453.97	6286.68
454.15	6649.46
454.34	6445.84
454.52	6516.05
454.70	6696.27
454.89	6803.94
455.07	6743.08
455.26	6726.70
455.44	6927.99
455.62	6871.81
455.81	6841.39
455.99	6927.99
456.17	6913.94
456.36	6953.73
456.54	6883.52
456.73	6817.98
456.91	7269.70
457.09	7213.53
457.28	7204.17
457.46	7091.82
457.64	7126.93
457.83	7173.74
458.01	7136.29
458.19	7176.08
458.38	7321.20
458.56	7527.16
458.74	7246.30
458.93	7255.66
459.11	7201.83
459.29	7164.38
459.48	7372.69
459.66	7470.99
459.84	7398.43
460.03	7721.43
460.21	7536.52
460.39	7487.37
460.57	7590.36
460.76	7524.82
460.94	7536.52
461.12	7681.64
461.31	7585.68
461.49	7616.10
461.67	7517.80
461.85	7861.86
462.04	7737.81
462.22	8109.96
462.40	7981.23
462.59	7901.65
462.77	7967.18
462.95	7861.86
463.13	7939.10
463.32	8121.66
463.50	7978.89
463.68	7864.20
463.86	7969.52
464.05	7716.75
464.23	8053.78
464.41	8018.68
464.59	7831.43
464.78	8133.36
464.96	8084.21
465.14	8088.89
465.32	8105.28
465.50	8269.11
465.69	8226.98
465.87	8138.04
466.05	8332.31
466.23	8231.66
466.41	8313.58
466.60	8180.17
466.78	8224.64
466.96	8182.51
467.14	8301.88
467.32	8435.29
467.51	8266.77
467.69	8126.34
467.87	8402.52
468.05	8402.52
468.23	8325.29
468.41	8231.66
468.60	8318.26
468.78	8716.16
468.96	8580.40
469.14	8620.19
469.32	8685.73
469.50	8360.39
469.69	8793.39
469.87	8718.50
470.05	8851.91
470.23	8762.97
470.41	8704.45
470.59	8847.22
470.77	8851.91
470.95	8814.46
471.14	9177.24
471.32	8863.61
471.50	9273.20
471.68	9116.39
471.86	9268.52
472.04	9270.86
472.22	9336.40
472.40	9343.42
472.58	9282.56
472.77	9380.87
472.95	9249.80
473.13	9790.46
473.31	9312.99
473.49	9537.68
473.67	9561.09
473.85	9467.47
474.03	9652.37
474.21	9708.54
474.39	9919.19
474.57	9748.33
474.75	9839.61
474.93	9944.94
475.12	9877.06
475.30	10164.95
475.48	10052.60
475.66	10176.65
475.84	10050.26
476.02	10139.20
476.20	10183.67
476.38	10518.37
476.56	10616.67
476.74	10839.02
476.92	10380.28
477.10	10305.38
477.28	10576.88
477.46	10604.97
477.64	10965.41
477.82	11002.86
478.00	11321.17
478.18	11159.67
478.36	11197.12
478.54	11314.15
478.72	11302.45
478.90	11489.69
479.08	11873.54
479.26	11679.27
479.44	11782.26
479.62	11843.11
479.80	11826.73
479.98	11864.18
480.16	12229.30
480.34	12023.33
480.52	12318.24
480.70	12313.56
480.88	12276.11
481.06	12362.71
481.24	12489.10
481.41	12465.69
481.59	12713.79
481.77	12713.79
481.95	13011.04
482.13	12961.89
482.31	12856.56
482.49	13507.23
482.67	13273.18
482.85	13551.70
483.03	13427.65
483.21	13762.35
483.39	13713.20
483.57	13715.54
483.74	13809.16
483.92	14202.37
484.10	13898.10
484.28	14211.73
484.46	14288.97
484.64	14780.48
484.82	14319.40
485.00	14618.99
485.18	14719.63
485.35	15047.30
485.53	14895.17
485.71	14789.85
485.89	15367.96
486.07	14871.76
486.25	15199.44
486.43	15314.13
486.61	15440.51
486.78	15590.31
486.96	15803.30
487.14	15789.25
487.32	16011.60
487.50	16280.77
487.68	16191.83
487.85	16746.53
488.03	16669.30
488.21	16856.54
488.39	17006.33
488.57	16828.45
488.75	16879.94
488.92	17205.28
489.10	17429.97
489.28	17472.10
489.46	17762.33
489.64	17752.96
489.81	17858.29
489.99	18298.31
490.17	18373.21
490.35	18146.17
490.53	18370.86
490.70	18607.26
490.88	18558.11
491.06	18588.53
491.24	19023.87
491.41	18745.35
491.59	19115.16
491.77	18867.06
491.95	19082.39
492.13	19150.26
492.30	19653.48
492.48	19590.28
492.66	19611.35
492.84	19700.29
493.01	19962.43
493.19	20030.30
493.37	20680.97
493.54	20102.86
493.72	20418.83
493.90	20255.00
494.08	20800.34
494.25	21095.25
494.43	20994.61
494.61	21109.29
494.79	21109.29
494.96	20802.68
495.14	21399.52
495.32	21563.36
495.49	21645.27
495.67	21394.84
495.85	21994.01
496.02	21986.99
496.20	22183.60
496.38	22078.27
496.55	22391.91
496.73	22583.83
496.91	22230.41
497.09	22691.49
497.26	22604.89
497.44	22630.64
497.62	22881.08
497.79	23171.30
497.97	23033.21
498.14	23250.88
498.32	23108.11
498.50	23285.99
498.67	23632.39
498.85	23679.20
499.03	23704.95
499.20	23840.70
499.38	24109.86
499.56	24203.48
499.73	24102.84
499.91	24627.12
500.08	24261.99
500.26	24362.64
500.44	24053.69
500.61	24149.65
500.79	24285.40
500.97	24622.44
501.14	24947.77
501.32	25027.35
501.49	24907.98
501.67	24903.30
501.84	25116.29
502.02	24973.52
502.20	25301.19
502.37	25233.32
502.55	25432.26
502.72	25151.40
502.90	25572.69
503.07	25254.38
503.25	25661.63
503.43	25638.23
503.60	25764.62
503.78	25935.48
503.95	25963.56
504.13	25855.90
504.30	26520.61
504.48	26010.37
504.65	26082.93
504.83	26611.89
505.01	26558.06
505.18	26813.18
505.36	26885.73
505.53	26684.45
505.71	27082.34
505.88	27002.76
506.06	27065.96
506.23	27082.34
506.41	26689.13
506.58	27438.10
506.76	27267.24
506.93	27332.78
507.11	27407.67
507.28	27653.43
507.46	27400.65
507.63	27779.82
507.81	27899.19
507.98	27683.86
508.16	27920.25
508.33	28198.77
508.50	28123.88
508.68	27915.57
508.85	28437.51
509.03	28114.52
509.20	28383.68
509.38	28559.22
509.55	28402.40
509.73	28727.74
509.90	28723.05
510.08	28678.58
510.25	28940.72
510.42	29123.29
510.60	29273.08
510.77	29146.69
510.95	29095.20
511.12	29174.78
511.30	29514.16
511.47	29724.80
511.64	29926.09
511.82	29855.87
511.99	30015.03
512.17	29762.25
512.34	29757.57
512.51	29979.92
512.69	30192.91
512.86	30204.61
513.04	30361.43
513.21	30260.79
513.38	30171.85
513.56	30391.86
513.73	30405.90
513.90	30494.84
514.08	30529.95
514.25	30831.88
514.43	30794.43
514.60	30621.23
514.77	30529.95
514.95	30710.17
515.12	31063.59
515.29	31065.93
515.47	31391.26
515.64	31758.73
515.81	31005.08
515.99	31220.41
516.16	31264.88
516.33	31793.84
516.51	31784.48
516.68	31449.78
516.85	31197.00
517.03	31477.86
517.20	32032.57
517.37	31559.78
517.54	32381.31
517.72	31857.03
517.89	31838.31
518.06	31786.82
518.24	31819.58
518.41	31782.13
518.58	31915.54
518.75	31938.95
518.93	32210.45
519.10	32388.33
519.27	32060.66
519.45	32811.97
519.62	32823.67
519.79	32575.58
519.96	32739.41
520.14	32992.19
520.31	33214.54
520.48	33291.78
520.65	33146.67
520.83	33432.21
521.00	33535.20
521.17	33549.24
521.34	33560.94
521.52	33394.76
521.69	33493.07
521.86	33668.61
522.03	33972.88
522.20	33853.51
522.38	33605.41
522.55	34068.84
522.72	33757.55
522.89	33539.88
523.07	33909.68
523.24	33481.36
523.41	34349.70
523.58	34019.69
523.75	34548.65
523.92	34216.29
524.10	34836.53
524.27	34565.03
524.44	34448.00
524.61	34621.20
524.78	34895.05
524.96	34625.89
525.13	34892.71
525.30	35129.10
525.47	35075.27
525.64	34981.65
525.81	35248.47
525.98	35204.00
526.16	35302.30
526.33	34824.83
526.50	35482.52
526.67	35014.41
526.84	35250.81
527.01	35426.35
527.18	35435.71
527.36	35782.11
527.53	35833.60
527.70	35538.69
527.87	35849.99
528.04	35555.08
528.21	35885.09
528.38	35789.13
528.55	36383.63
528.72	36231.49
528.89	36060.63
529.07	36318.09
529.24	36046.59
529.41	36032.55
529.58	36311.07
529.75	35943.61
529.92	36093.40
530.09	36491.29
530.26	36030.21
530.43	36360.22
530.60	36137.87
530.77	36896.20
530.94	36657.47
531.11	36622.36
531.28	36634.06
531.46	36715.98
531.63	36999.19
531.80	36889.18
531.97	36931.31
532.14	36849.39
532.31	37053.02
532.48	37123.24
532.65	36980.46
532.82	37017.91
532.99	37687.31
533.16	36903.23
533.33	37577.30
533.50	37677.94
533.67	37771.57
533.84	37680.28
534.01	37511.77
534.18	37926.04
534.35	37738.80
534.52	37816.04
534.69	37736.46
534.86	37715.39
535.03	37270.69
535.20	38103.92
535.37	38150.73
535.54	38345.00
535.71	38094.56
535.88	38206.90
536.05	38195.20
536.22	38153.07
536.38	38396.49
536.55	38169.46
536.72	38492.45
536.89	38267.76
537.06	37914.34
537.23	38096.90
537.40	38031.36
537.57	38440.96
537.74	38684.37
537.91	38859.91
538.08	38487.77
538.25	38085.20
538.42	39063.54
538.59	39026.09
538.75	38506.49
538.92	38630.54
539.09	39117.37
539.26	38953.54
539.43	39171.21
539.60	39122.05
539.77	38911.41
539.94	38457.34
540.11	39337.38
540.28	39208.65
540.44	38923.11
540.61	38916.09
540.78	39077.58
540.95	39192.27
541.12	38897.36
541.29	39012.05
541.46	39398.24
541.62	39105.67
541.79	39639.31
541.96	39384.19
542.13	39402.92
542.30	39468.45
542.47	39765.70
542.63	39456.75
542.80	39335.04
542.97	40561.48
543.14	40177.64
543.31	40037.20
543.48	40243.17
543.64	40498.29
543.81	40318.07
543.98	40460.84
544.15	40032.52
544.32	41001.50
544.48	40746.39
544.65	40786.18
544.82	40692.55
544.99	40479.57
545.16	40446.80
545.32	40549.78
545.49	40978.10
545.66	40666.81
545.83	40715.96
546.00	41045.97
546.16	40804.90
546.33	40645.74
546.50	40212.74
546.67	40772.13
546.83	40526.38
547.00	40636.38
547.17	40800.22
547.34	40933.63
547.50	41088.10
547.67	41226.20
547.84	41160.66
548.00	41144.28
548.17	41478.97
548.34	41368.97
548.51	41493.02
548.67	41275.35
548.84	41294.07
549.01	41518.76
549.18	41312.80
549.34	41666.22
549.51	41160.66
549.68	41413.44
549.84	41748.14
550.01	41914.31
550.18	41228.54
550.34	41734.09
550.51	41577.28
550.68	41401.74
550.84	41186.41
551.01	41710.69
551.18	41998.57
551.34	41677.92
551.51	41996.23
551.68	41731.75
551.84	41958.78
552.01	41848.78
552.18	41893.25
552.34	41771.54
552.51	42583.71
552.68	42244.33
552.84	41893.25
553.01	42412.85
553.18	41900.27
553.34	42176.45
553.51	42036.02
553.67	41773.88
553.84	42579.03
554.01	42436.25
554.17	42759.25
554.34	42810.74
554.51	42576.69
554.67	42419.87
554.84	42707.76
555.00	42351.99
555.17	42462.00
555.33	42597.75
555.50	42195.18
555.67	42515.83
555.83	42452.64
556.00	42679.67
556.16	42979.26
556.33	42796.70
556.50	42178.79
556.66	42443.27
556.83	42611.79
556.99	42478.38
557.16	43063.52
557.32	43030.75
557.49	42852.87
557.65	42721.80
557.82	42684.35
557.98	42469.02
558.15	43143.09
558.32	42843.51
558.48	43129.05
558.65	43093.94
558.81	43386.51
558.98	42864.57
559.14	43035.43
559.31	43166.50
559.47	43232.04
559.64	43449.70
559.80	43629.93
559.97	43288.21
560.13	43428.64
560.30	43040.11
560.46	43107.99
560.63	43459.07
560.79	42824.78
560.96	43540.99
561.12	43260.12
561.29	43498.86
561.45	42712.44
561.61	43618.22
561.78	43180.54
561.94	43445.02
562.11	43344.38
562.27	42780.31
562.44	43079.90
562.60	43636.95
562.77	43360.76
562.93	43157.14
563.10	43643.97
563.26	43236.72
563.42	43519.92
563.59	43358.42
563.75	43161.82
563.92	43749.29
564.08	43899.09
564.24	43880.36
564.41	44088.67
564.57	43189.91
564.74	43363.11
564.90	44128.46
565.07	43920.15
565.23	43529.28
565.39	43620.56
565.56	43636.95
565.72	44044.20
565.88	43606.52
566.05	43452.05
566.21	43669.72
566.38	43325.66
566.54	43257.78
566.70	43524.60
566.87	44453.79
567.03	43650.99
567.19	44327.41
567.36	43899.09
567.52	43590.14
567.68	44201.02
567.85	43831.21
568.01	43714.19
568.17	43756.32
568.34	44109.74
568.50	43515.24
568.66	43761.00
568.83	44081.65
568.99	43856.96
569.15	44261.87
569.32	43650.99
569.48	43639.29
569.64	44266.55
569.81	44032.50
569.97	44114.42
570.13	44163.57
570.30	44304.00
570.46	43510.56
570.62	44013.77
570.78	43772.70
570.95	44154.21
571.11	44388.26
571.27	44055.90
571.43	44296.98
571.60	44168.25
571.76	44306.34
571.92	44250.17
572.09	43590.14
572.25	44062.93
572.41	44149.53
572.57	43819.51
572.74	44701.89
572.90	44048.88
573.06	44147.18
573.22	43943.56
573.38	44165.91
573.55	43833.55
573.71	44112.08
573.87	43966.96
574.03	44126.12
574.20	44205.70
574.36	44055.90
574.52	44128.46
574.68	44423.37
574.84	44144.84
575.01	44332.09
575.17	44470.18
575.33	43887.39
575.49	43938.88
575.65	44428.05
575.82	44659.76
575.98	44301.66
576.14	44353.15
576.30	44170.59
576.46	44154.21
576.62	44243.15
576.79	44215.06
576.95	43966.96
577.11	44137.82
577.27	44404.64
577.43	44311.02
577.59	44201.02
577.75	44381.24
577.92	43990.37
578.08	44559.12
578.24	43779.72
578.40	44025.48
578.56	44453.79
578.72	44390.60
578.88	44259.53
579.04	44708.91
579.21	44521.67
579.37	44301.66
579.53	44418.69
579.69	44212.72
579.85	44004.41
580.01	44783.81
580.17	44144.84
580.33	44676.15
580.49	44463.16
580.65	44865.73
580.82	44348.47
580.98	44788.49
581.14	44175.27
581.30	44727.64
581.46	44168.25
581.62	44332.09
581.78	44598.91
581.94	44961.69
582.10	44458.48
582.26	44718.28
582.42	44479.54
582.58	44477.20
582.74	44369.54
582.90	44439.75
583.06	44322.72
583.22	44442.09
583.38	44683.17
583.54	44655.08
583.70	44538.05
583.86	44577.84
584.02	43948.24
584.18	44315.70
584.34	44891.48
584.50	44648.06
584.66	44526.35
584.82	44423.37
584.98	44540.39
585.14	44383.58
585.30	44315.70
585.46	44322.72
585.62	44243.15
585.78	44566.14
585.94	44172.93
586.10	44128.46
586.26	44154.21
586.42	44404.64
586.58	44629.34
586.74	44821.26
586.90	44236.12
587.06	44233.78
587.22	44411.67
587.38	44765.09
587.54	44744.02
587.70	45074.04
587.86	44751.04
588.02	44552.10
588.18	44662.10
588.34	44966.37
588.49	44545.08
588.65	44060.58
588.81	44460.82
588.97	44500.61
589.13	44182.29
589.29	44516.99
589.45	44615.29
589.61	45045.95
589.77	44676.15
589.93	44828.28
590.08	45027.23
590.24	44720.62
590.40	45024.89
590.56	44617.63
590.72	45144.25
590.88	44563.80
591.04	44713.59
591.20	45223.83
591.35	44739.34
591.51	45390.01
591.67	44460.82
591.83	44353.15
591.99	44634.02
592.15	44334.43
592.31	44839.98
592.46	44921.90
592.62	44617.63
592.78	44732.32
592.94	45628.74
593.10	44996.80
593.26	45418.10
593.41	44472.52
593.57	44570.82
593.73	44996.80
593.89	44858.71
594.05	44612.95
594.20	44697.21
594.36	44875.09
594.52	44994.46
594.68	44715.93
594.84	44376.56
594.99	45242.56
595.15	44320.38
595.31	45226.17
595.47	45242.56
595.62	45158.30
595.78	44844.66
595.94	45130.21
596.10	45146.59
596.25	45090.42
596.41	44762.75
596.57	44837.64
596.73	44938.29
596.88	44516.99
597.04	45022.54
597.20	44776.79
597.36	44886.79
597.51	45043.61
597.67	44767.43
597.83	45256.60
597.99	45268.30
598.14	44795.51
598.30	45106.80
598.46	44935.95
598.61	44493.58
598.77	44683.17
598.93	44949.99
599.09	44942.97
599.24	45214.47
599.40	45193.40
599.56	45439.16
599.71	45347.88
599.87	45333.84
600.03	45003.82
600.18	44971.05
600.34	44928.92
600.50	44980.42
600.65	44919.56
600.81	45511.72
600.97	45078.72
601.12	45425.12
601.28	45097.44
601.44	44961.69
601.59	44659.76
601.75	44863.39
601.91	45261.28
602.06	44994.46
602.22	45137.23
602.37	45045.95
602.53	44460.82
602.69	45069.36
602.84	45296.39
603.00	45223.83
603.16	44610.61
603.31	44732.32
603.47	44940.63
603.62	45177.02
603.78	45256.60
603.94	44767.43
604.09	44912.54
604.25	45219.15
604.40	44952.33
604.56	45111.49
604.71	44851.69
604.87	45062.33
605.03	44858.71
605.18	44842.32
605.34	44804.88
605.49	45003.82
605.65	45057.65
605.80	44767.43
605.96	44903.18
606.12	45022.54
606.27	44856.37
606.43	44762.75
606.58	45043.61
606.74	44786.15
606.89	44392.94
607.05	45050.63
607.20	45064.67
607.36	44774.45
607.51	45165.32
607.67	45006.16
607.82	44566.14
607.98	44664.44
608.13	44947.65
608.29	44830.62
608.44	44296.98
608.60	44051.22
608.75	44009.09
608.91	43978.67
609.06	44626.99
609.22	44844.66
609.37	44849.35
609.53	44889.13
609.68	45092.76
609.84	44194.00
609.99	44624.65
610.15	44528.69
610.30	44245.49
610.46	44175.27
610.61	44348.47
610.76	44203.36
610.92	44556.78
611.07	44428.05
611.23	44247.83
611.38	44355.49
611.54	44177.61
611.69	43882.70
611.84	44587.21
612.00	44114.42
612.15	43964.62
612.31	44460.82
612.46	44046.54
612.62	44296.98
612.77	44109.74
612.92	44224.42
613.08	43758.66
613.23	44123.78
613.39	44205.70
613.54	43636.95
613.69	43866.32
613.85	44189.31
614.00	44339.11
614.15	44240.81
614.31	44076.97
614.46	44526.35
614.62	43990.37
614.77	43880.36
614.92	44163.57
615.08	43718.87
615.23	44041.86
615.38	43262.46
615.54	43405.23
615.69	43342.04
615.84	43543.33
616.00	43807.81
616.15	43744.61
616.30	43910.79
616.46	43136.07
616.61	43501.20
616.76	43906.11
616.92	43681.42
617.07	43196.93
617.22	43468.43
617.37	43285.87
617.53	43725.89
617.68	43608.86
617.83	43515.24
617.99	43487.15
618.14	43732.91
618.29	43372.47
618.45	43112.67
618.60	43056.50
618.75	43697.80
618.90	43449.70
619.06	43278.85
619.21	43290.55
619.36	43531.62
619.51	43505.88
619.67	43442.68
619.82	43566.73
619.97	43569.07
620.12	43145.44
620.28	42707.76
620.43	42782.65
620.58	43428.64
620.73	43306.93
620.89	42899.68
621.04	43428.64
621.19	43164.16
621.34	42660.94
621.49	43100.97
621.65	42948.83
621.80	43409.92
621.95	42726.48
622.10	42777.97
622.25	42820.10
622.41	42527.53
622.56	42677.33
622.71	43093.94
622.86	42850.53
623.01	42670.31
623.16	43103.31
623.32	42848.19
623.47	42806.06
623.62	43016.71
623.77	43040.11
623.92	42665.63
624.07	42534.56
624.23	42274.76
624.38	42394.12
624.53	42422.21
624.68	42564.98
624.83	42506.47
624.98	42525.19
625.13	42515.83
625.29	42628.18
625.44	42029.00
625.59	42555.62
625.74	42183.48
625.89	41556.21
626.04	41406.42
626.19	41876.86
626.34	42099.22
626.49	41956.44
626.65	42190.50
626.80	42359.02
626.95	42040.70
627.10	42124.96
627.25	42078.15
627.40	41986.87
627.55	41586.64
627.70	41460.25
627.85	41680.26
628.00	41858.14
628.15	41986.87
628.30	41748.14
628.45	42216.24
628.60	41748.14
628.76	42256.03
628.91	42185.82
629.06	41617.07
629.21	41689.62
629.36	41694.30
629.51	41476.63
629.66	41427.48
629.81	41755.16
629.96	41172.36
630.11	41441.53
630.26	41926.02
630.41	41923.68
630.56	41343.22
630.71	41490.68
630.86	41701.32
631.01	41495.36
631.16	41265.99
631.31	40865.75
631.46	40685.53
631.61	41357.27
631.76	41284.71
631.91	41237.90
632.06	41191.09
632.21	41368.97
632.36	41656.85
632.51	41312.80
632.66	41006.19
632.81	41167.68
632.96	41191.09
633.10	40840.01
633.25	40634.04
633.40	41244.92
633.55	41251.94
633.70	40940.65
633.85	40697.24
634.00	40985.12
634.15	40624.68
634.30	40458.50
634.45	40753.41
634.60	40687.87
634.75	40858.73
634.90	40481.91
635.05	40823.62
635.19	40910.22
635.34	40655.11
635.49	40491.27
635.64	39885.07
635.79	40451.48
635.94	40381.26
636.09	40449.14
636.24	40451.48
636.39	39915.50
636.53	39849.96
636.68	39959.97
636.83	40105.08
636.98	40282.96
637.13	40137.85
637.28	40573.19
637.43	40472.54
637.57	40252.53
637.72	40488.93
637.87	40126.14
638.02	39669.74
638.17	40257.21
638.32	40002.10
638.46	40229.13
638.61	39510.58
638.76	39611.23
638.91	39959.97
639.06	40236.15
639.20	40247.85
639.35	40088.70
639.50	40374.24
639.65	40130.83
639.80	39812.51
639.94	39824.22
640.09	39992.73
640.24	39812.51
640.39	39098.65
640.54	39770.38
640.68	39622.93
640.83	39695.49
640.98	39491.86
641.13	39166.52
641.27	39662.72
641.42	39351.43
641.57	39676.76
641.72	39761.02
641.86	39332.70
642.01	39044.82
642.16	39356.11
642.31	39100.99
642.45	39442.71
642.60	39227.38
642.75	39398.24
642.90	39175.89
643.04	39012.05
643.19	39253.12
643.34	39526.97
643.48	39171.21
643.63	39061.20
643.78	39058.86
643.93	38836.51
644.07	38944.17
644.22	38955.88
644.37	38618.84
644.51	39086.95
644.66	38916.09
644.81	39068.22
644.95	39201.63
645.10	39220.36
645.25	39100.99
645.39	38958.22
645.54	38696.08
645.69	38916.09
645.83	38983.96
645.98	38326.27
646.13	39037.80
646.27	39278.87
646.42	38703.10
646.57	38803.74
646.71	38499.47
646.86	39037.80
647.00	38410.53
647.15	39108.01
647.30	38799.06
647.44	38492.45
647.59	38726.50
647.74	38667.99
647.88	38476.07
648.03	38581.39
648.17	38677.35
648.32	38426.92
648.47	38614.16
648.61	38335.63
648.76	38457.34
648.90	38520.54
649.05	38410.53
649.20	38675.01
649.34	38520.54
649.49	38440.96
649.63	38192.86
649.78	38298.19
649.92	37883.91
650.07	38740.55
650.21	37986.89
650.36	37970.51
650.51	37900.29
650.65	38293.50
650.80	38670.33
650.94	38581.39
651.09	38197.54
651.23	38518.20
651.38	38251.38
651.52	37727.10
651.67	38033.71
651.81	37720.07
651.96	37881.57
652.10	37823.06
652.25	37589.00
652.39	37881.57
652.54	38012.64
652.68	37638.15
652.83	38122.65
652.97	37717.73
653.12	37764.54
653.26	37696.67
653.41	37792.63
653.55	37130.26
653.70	37289.42
653.84	37357.29
653.99	37923.70
654.13	37551.56
654.27	37399.42
654.42	37392.40
654.56	37085.79
654.71	37015.57
654.85	37490.70
655.00	37577.30
655.14	37008.55
655.29	36830.67
655.43	37214.52
655.57	37048.34
655.72	37003.87
655.86	36849.39
656.01	37067.06
656.15	36638.75
656.30	37102.17
656.44	37078.77
656.58	37207.50
656.73	36900.89
656.87	36779.18
657.01	36472.57
657.16	36723.01
657.30	36439.80
657.45	36620.02
657.59	36268.94
657.73	36910.25
657.88	36584.91
658.02	36692.58
658.16	36744.07
658.31	37013.23
658.45	36818.97
658.60	37109.19
658.74	36935.99
658.88	36931.31
659.03	36481.93
659.17	36591.94
659.31	36435.12
659.46	36383.63
659.60	36378.95
659.74	36168.30
659.89	35861.69
660.03	36091.06
660.17	36395.33
660.32	36280.64
660.46	36521.72
660.60	36002.12
660.74	36100.42
660.89	36121.49
661.03	35519.97
661.17	36187.02
661.32	35257.83
661.46	35496.56
661.60	35143.14
661.74	35456.78
661.89	35627.63
662.03	35557.42
662.17	35697.85
662.31	35145.48
662.46	35585.50
662.60	35285.92
662.74	35398.26
662.88	35496.56
663.03	35157.19
663.17	35243.79
663.31	35157.19
663.45	35033.14
663.60	35044.84
663.74	34944.20
663.88	35412.31
664.02	34295.87
664.17	34801.43
664.31	34841.21
664.45	34515.88
664.59	34480.77
664.73	34455.03
664.88	34827.17
665.02	34450.35
665.16	34569.71
665.30	34532.26
665.44	34714.83
665.59	34543.97
665.73	33921.38
665.87	34169.48
666.01	34115.65
666.15	34075.86
666.29	34401.19
666.44	34391.83
666.58	34061.82
666.72	33820.74
666.86	34293.53
667.00	34043.09
667.14	34036.07
667.28	33579.67
667.43	33582.01
667.57	33521.15
667.71	34007.98
667.85	33734.14
667.99	33652.22
668.13	33420.51
668.27	33364.34
668.41	33319.87
668.56	33535.20
668.70	33790.31
668.84	33390.08
668.98	32821.33
669.12	33043.68
669.26	33083.47
669.40	32818.99
669.54	32835.38
669.68	33057.73
669.82	32755.80
669.96	32975.81
670.10	32329.82
670.25	33371.36
670.39	32865.80
670.53	32414.08
670.67	32442.17
670.81	32465.57
670.95	32308.76
671.09	32491.32
671.23	32280.67
671.37	32388.33
671.51	32481.95
671.65	31948.31
671.79	32247.90
671.93	31913.20
672.07	32095.77
672.21	32144.92
672.35	31821.92
672.49	32322.80
672.63	32325.14
672.77	31697.88
672.91	31459.14
673.05	31166.57
673.19	31344.45
673.33	31510.63
673.47	31473.18
673.61	30883.37
673.75	30906.77
673.89	30881.03
674.03	30438.67
674.17	30918.48
674.31	30855.28
674.45	30881.03
674.59	31157.21
674.73	31103.38
674.87	31110.40
675.01	30885.71
675.15	30621.23
675.29	30864.64
675.43	30450.37
675.56	30464.41
675.70	30424.62
675.84	30370.79
675.98	29273.08
676.12	29991.62
676.26	29944.81
676.40	29937.79
676.54	29837.15
676.68	29940.13
676.82	29387.77
676.96	29390.11
677.10	29263.72
677.23	29488.41
677.37	28943.06
677.51	29228.61
677.65	28893.91
677.79	28797.95
677.93	28989.88
678.07	29050.73
678.21	28409.42
678.34	28687.95
678.48	28556.88
678.62	28720.71
678.76	28428.15
678.90	28720.71
679.04	28446.87
679.18	28423.47
679.31	27697.90
679.45	27812.59
679.59	27728.33
679.73	27957.70
679.87	27943.66
680.00	27501.29
680.14	27393.63
680.28	27374.91
680.42	27395.97
680.56	27665.13
680.70	27072.98
680.83	27276.60
680.97	26920.84
681.11	26993.40
681.25	26553.38
681.39	26977.01
681.52	26831.90
681.66	26740.62
681.80	26380.18
681.94	26431.67
682.07	26169.53
682.21	25996.33
682.35	26045.48
682.49	26366.13
682.62	26590.83
682.76	26026.76
682.90	25619.50
683.04	25909.73
683.17	25933.14
683.31	25649.93
683.45	26015.05
683.59	25523.54
683.72	25420.56
683.86	25200.55
684.00	25273.10
684.13	24940.75
684.27	25294.17
684.41	24989.90
684.55	24957.13
684.68	24549.88
684.82	24809.68
684.96	24280.72
685.09	24343.91
685.23	24669.25
685.37	24360.30
685.50	24442.21
685.64	24252.63
685.78	24287.74
685.91	24320.51
686.05	24217.52
686.19	23810.27
686.32	23749.42
686.46	23552.81
686.60	23152.58
686.73	23536.43
686.87	23283.65
687.01	23447.49
687.14	23000.44
687.28	22918.53
687.42	23009.81
687.55	23047.26
687.69	22904.48
687.82	22852.99
687.96	22958.31
688.10	22658.73
688.23	22630.64
688.37	22356.80
688.50	22286.58
688.64	22075.93
688.78	22267.86
688.91	22001.04
689.05	22017.42
689.18	21900.39
689.32	22122.74
689.46	22038.48
689.59	22108.70
689.73	22176.58
689.86	21523.57
690.00	21483.78
690.13	21591.44
690.27	21348.03
690.41	21610.17
690.54	21252.06
690.68	21057.80
690.81	21018.01
690.95	20741.83
691.08	20678.63
691.22	20713.74
691.35	20823.75
691.49	20615.44
691.62	21081.21
691.76	20816.72
691.89	20676.29
692.03	20397.77
692.16	20170.74
692.30	20067.75
692.43	20105.20
692.57	20203.50
692.70	20030.30
692.84	19838.38
692.97	19810.29
693.11	19658.16
693.24	19683.91
693.38	19686.25
693.51	19211.12
693.65	19606.67
693.78	19765.82
693.92	19407.72
694.05	19309.42
694.19	19131.54
694.32	19365.59
694.45	18991.11
694.59	18869.40
694.72	18616.62
694.86	18754.71
694.99	18757.05
695.13	18462.15
695.26	18427.04
695.39	18279.58
695.53	18307.67
695.66	18326.39
695.80	18328.74
695.93	18040.85
696.07	17963.61
696.20	18050.21
696.33	18045.53
696.47	18122.77
696.60	18111.07
696.73	18038.51
696.87	17696.79
697.00	17790.41
697.14	17717.86
697.27	17605.51
697.40	17404.22
697.54	17301.24
697.67	17053.14
697.80	17135.06
697.94	16954.84
698.07	17013.35
698.21	16821.43
698.34	16985.27
698.47	16919.73
698.61	16458.65
698.74	16524.18
698.87	16592.06
699.01	16233.96
699.14	16130.97
699.27	16126.29
699.40	16783.98
699.54	16063.10
699.67	15981.18
699.80	15896.92
699.94	16053.73
700.07	16168.42
700.20	15831.38
700.34	15709.68
700.47	16004.58
700.60	15871.17
700.73	15728.40
700.87	15676.91
701.00	15503.71
701.13	15454.56
701.26	15396.04
701.40	15459.24
701.53	15459.24
701.66	15180.71
701.79	15047.30
701.93	15028.58
702.06	14839.00
702.19	14768.78
702.32	15005.17
702.46	14864.74
702.59	14546.43
702.72	14698.56
702.85	14431.74
702.99	14707.93
703.12	14792.19
703.25	14455.15
703.38	14466.85
703.51	14422.38
703.65	14389.61
703.78	14190.67
703.91	14267.91
704.04	13991.72
704.17	14150.88
704.31	13905.12
704.44	13727.24
704.57	13654.69
704.70	13432.33
704.83	13474.46
704.96	13380.84
705.10	13488.51
705.23	13965.98
>>>>>End Processed Spectral Data<<<<<
