SpectraSuite Data File
++++++++++++++++++++++++++++++++++++
Date: Fri Oct 25 10:44:04 EDT 2013
User: price-jones
Dark Spectrum Present: No
Reference Spectrum Present: No
Number of Sampled Component Spectra: 1
Spectrometers: USB2+H05261
Integration Time (usec): 100000 (USB2+H05261)
Spectra Averaged: 1 (USB2+H05261)
Boxcar Smoothing: 0 (USB2+H05261)
Correct for Electrical Dark: No (USB2+H05261)
Strobe/Lamp Enabled: No (USB2+H05261)
Correct for Detector Non-linearity: No (USB2+H05261)
Correct for Stray Light: No (USB2+H05261)
Number of Pixels in Processed Spectrum: 2048
>>>>>Begin Processed Spectral Data<<<<<
365.73	147.45
365.92	147.45
366.12	147.45
366.32	77.24
366.52	28.09
366.72	14.04
366.91	23.41
367.11	0.00
367.31	0.00
367.51	79.58
367.70	0.00
367.90	0.00
368.10	0.00
368.30	58.51
368.49	67.88
368.69	63.19
368.89	91.28
369.09	16.38
369.28	39.79
369.48	25.75
369.68	49.15
369.87	32.77
370.07	159.16
370.27	110.01
370.47	173.20
370.66	463.43
370.86	411.93
371.06	524.28
371.25	510.24
371.45	475.13
371.65	451.72
371.84	475.13
372.04	486.83
372.24	475.13
372.44	449.38
372.63	552.37
372.83	550.03
373.03	486.83
373.22	554.71
373.42	568.75
373.62	435.34
373.81	582.79
374.01	580.45
374.21	521.94
374.40	526.62
374.60	543.00
374.79	559.39
374.99	578.11
375.19	606.20
375.38	653.01
375.58	547.69
375.78	631.94
375.97	606.20
376.17	662.37
376.37	543.00
376.56	585.13
376.76	606.20
376.95	561.73
377.15	685.78
377.35	629.60
377.54	634.29
377.74	697.48
377.93	566.41
378.13	702.16
378.33	667.05
378.52	674.07
378.72	674.07
378.91	643.65
379.11	709.18
379.31	615.56
379.50	723.23
379.70	723.23
379.89	734.93
380.09	697.48
380.28	685.78
380.48	772.38
380.68	720.88
380.87	641.31
381.07	650.67
381.26	739.61
381.46	685.78
381.65	622.58
381.85	739.61
382.04	683.44
382.24	606.20
382.43	690.46
382.63	683.44
382.83	777.06
383.02	732.59
383.22	798.12
383.41	706.84
383.61	777.06
383.80	802.80
384.00	844.93
384.19	805.14
384.39	866.00
384.58	905.79
384.78	880.04
384.97	793.44
385.17	823.87
385.36	854.30
385.56	781.74
385.75	697.48
385.95	863.66
386.14	889.40
386.34	903.45
386.53	805.14
386.72	901.11
386.92	978.34
387.11	954.94
387.31	887.06
387.50	976.00
387.70	889.40
387.89	894.08
388.09	922.17
388.28	926.85
388.48	919.83
388.67	957.28
388.86	898.77
389.06	954.94
389.25	1022.81
389.45	1008.77
389.64	1053.24
389.84	1078.99
390.03	1088.35
390.22	987.71
390.42	1006.43
390.61	959.62
390.81	1034.52
391.00	1053.24
391.19	1057.92
391.39	1088.35
391.58	1102.39
391.78	1018.13
391.97	1081.33
392.16	1160.91
392.36	1100.05
392.55	1135.16
392.75	1013.45
392.94	1060.26
393.13	1029.84
393.33	1022.81
393.52	1064.94
393.71	1149.20
393.91	1196.01
394.10	1125.80
394.29	1214.74
394.49	1217.08
394.68	1252.19
394.88	1256.87
395.07	1228.78
395.26	1338.79
395.46	1291.98
395.65	1254.53
395.84	1366.87
396.04	1329.42
396.23	1259.21
396.42	1210.06
396.62	1153.88
396.81	1263.89
397.00	1268.57
397.19	1404.32
397.39	1373.89
397.58	1460.49
397.77	1432.41
397.97	1432.41
398.16	1516.67
398.35	1523.69
398.55	1437.09
398.74	1596.25
398.93	1549.43
399.12	1537.73
399.32	1519.01
399.51	1540.07
399.70	1612.63
399.90	1589.22
400.09	1750.72
400.28	1778.81
400.47	1605.61
400.67	1664.12
400.86	1797.53
401.05	1827.96
401.24	1750.72
401.44	1797.53
401.63	1846.68
401.82	1834.98
402.01	1893.49
402.21	1799.87
402.40	1732.00
402.59	1860.73
402.78	1858.39
402.97	1853.70
403.17	1827.96
403.36	1795.19
403.55	1863.07
403.74	1989.46
403.93	2019.88
404.13	1909.88
404.32	1921.58
404.51	1891.15
404.70	2019.88
404.89	2052.65
405.09	2087.76
405.28	1970.73
405.47	2001.16
405.66	2043.29
405.85	2087.76
406.05	2045.63
406.24	2069.03
406.43	2197.76
406.62	2062.01
406.81	2272.66
407.00	2108.82
407.20	2221.17
407.39	2209.47
407.58	2321.81
407.77	2361.60
407.96	2230.53
408.15	2307.77
408.34	2216.49
408.54	2368.62
408.73	2307.77
408.92	2452.88
409.11	2525.44
409.30	2396.71
409.49	2267.98
409.68	2267.98
409.87	2455.22
410.07	2469.27
410.26	2504.37
410.45	2450.54
410.64	2518.42
410.83	2717.36
411.02	2588.63
411.21	2834.39
411.40	2750.13
411.59	2642.46
411.78	2787.58
411.98	2733.75
412.17	2771.19
412.36	2738.43
412.55	2789.92
412.74	2892.90
412.93	2806.30
413.12	2841.41
413.31	3014.61
413.50	2923.33
413.69	2909.29
413.88	3066.10
414.07	3148.02
414.26	3110.57
414.45	3119.93
414.64	3208.87
414.83	3162.06
415.02	3166.74
415.22	3215.90
415.41	3246.32
415.60	3332.92
415.79	3400.80
415.98	3346.97
416.17	3391.44
416.36	3330.58
416.55	3391.44
416.74	3527.19
416.93	3440.59
417.12	3466.33
417.31	3499.10
417.50	3522.51
417.69	3515.48
417.88	3693.37
418.07	3396.12
418.26	3728.47
418.45	3534.21
418.64	3784.65
418.83	3578.68
419.02	3709.75
419.21	3688.68
419.39	3705.07
419.58	3653.58
419.77	3695.71
419.96	3815.07
420.15	3962.53
420.34	3782.31
420.53	3861.88
420.72	3918.06
420.91	4081.89
421.10	3904.01
421.29	3925.08
421.48	3857.20
421.67	3988.27
421.86	4032.74
422.05	3929.76
422.24	3847.84
422.43	3932.10
422.61	3819.75
422.80	4187.22
422.99	4140.41
423.18	4117.00
423.37	4238.71
423.56	4063.17
423.75	4044.45
423.94	3936.78
424.13	3801.03
424.32	3946.14
424.50	4245.73
424.69	4227.01
424.88	4290.20
425.07	4105.30
425.26	3960.19
425.45	4306.59
425.64	4152.11
425.83	4301.90
426.01	4191.90
426.20	4271.48
426.39	4222.33
426.58	4046.79
426.77	3990.61
426.96	4018.70
427.15	4124.02
427.33	4252.75
427.52	4175.52
427.71	4196.58
427.90	4348.72
428.09	4388.50
428.28	4369.78
428.46	4292.54
428.65	4521.92
428.84	4491.49
429.03	4463.40
429.22	4395.53
429.40	4339.35
429.59	4266.80
429.78	4098.28
429.97	4112.32
430.16	4145.09
430.34	4227.01
430.53	4365.10
430.72	4308.93
430.91	4236.37
431.10	4489.15
431.28	4732.56
431.47	4746.61
431.66	4856.61
431.85	4690.43
432.03	4856.61
432.22	4875.34
432.41	4926.83
432.60	4861.29
432.79	4809.80
432.97	5186.63
433.16	4961.94
433.35	4873.00
433.54	4718.52
433.72	4868.31
433.91	5020.45
434.10	5128.11
434.28	4924.49
434.47	5160.88
434.66	5116.41
434.85	5118.75
435.03	5195.99
435.22	5153.86
435.41	5430.04
435.59	5088.32
435.78	5401.96
435.97	5523.66
436.16	5448.77
436.34	5540.05
436.53	5345.78
436.72	5413.66
436.90	5324.72
437.09	5327.06
437.28	5411.32
437.46	5310.68
437.65	5427.70
437.84	5404.30
438.02	5474.51
438.21	5371.53
438.40	5329.40
438.58	5401.96
438.77	5507.28
438.96	5607.92
439.14	5645.37
439.33	5865.38
439.52	5893.47
439.70	5830.27
439.89	5856.02
440.08	5851.34
440.26	6033.90
440.45	5804.53
440.63	6118.16
440.82	6127.52
441.01	6258.59
441.19	6209.44
441.38	6363.92
441.57	6401.37
441.75	6331.15
441.94	6525.41
442.12	6623.72
442.31	6722.02
442.50	6642.44
442.68	6558.18
442.87	6715.00
443.05	6548.82
443.24	6689.25
443.43	6740.74
443.61	6815.64
443.80	6815.64
443.98	6593.29
444.17	6679.89
444.35	6780.53
444.54	6829.68
444.73	6937.35
444.91	6602.65
445.10	6745.42
445.28	6789.89
445.47	6712.66
445.65	6764.15
445.84	6878.83
446.02	6862.45
446.21	6736.06
446.39	6803.94
446.58	6869.47
446.77	6885.86
446.95	6827.34
447.14	6899.90
447.32	6965.43
447.51	6951.39
447.69	6920.96
447.88	7213.53
448.06	7080.12
448.25	6991.18
448.43	7047.35
448.62	7169.06
448.80	6995.86
448.99	7105.87
449.17	7075.44
449.36	7082.46
449.54	7302.47
449.73	7258.00
449.91	7489.71
450.10	7419.50
450.28	7520.14
450.46	7515.46
450.65	7660.57
450.83	7618.44
451.02	7559.93
451.20	7782.28
451.39	7522.48
451.57	7529.50
451.76	7489.71
451.94	7588.02
452.13	7777.60
452.31	7527.16
452.49	7304.81
452.68	7620.78
452.86	7527.16
453.05	7501.42
453.23	7639.51
453.42	7569.29
453.60	7691.00
453.78	7829.09
453.97	7709.72
454.15	7840.79
454.34	7627.81
454.52	7817.39
454.70	7960.16
454.89	8095.91
455.07	7901.65
455.26	7953.14
455.44	7992.93
455.62	8107.62
455.81	8053.78
455.99	8234.00
456.17	8325.29
456.36	8030.38
456.54	8278.47
456.73	8329.97
456.91	8355.71
457.09	8535.93
457.28	8559.34
457.46	8418.91
457.64	8533.59
457.83	8449.33
458.01	8418.91
458.19	8610.83
458.38	8332.31
458.56	8596.79
458.74	8566.36
458.93	8367.42
459.11	8624.87
459.29	8688.07
459.48	8692.75
459.66	8709.13
459.84	8823.82
460.03	8840.20
460.21	8919.78
460.39	8975.95
460.57	8791.05
460.76	8992.34
460.94	9198.31
461.12	9095.32
461.31	8884.67
461.49	8985.32
461.67	9090.64
461.85	9320.01
462.04	9174.90
462.22	9598.54
462.40	9364.48
462.59	9252.14
462.77	9327.03
462.95	9235.75
463.13	9502.58
463.32	9146.81
463.50	9366.82
463.68	9423.00
463.86	9446.40
464.05	9097.66
464.23	9362.14
464.41	9483.85
464.59	9163.20
464.78	9509.60
464.96	9460.45
465.14	9432.36
465.32	9458.10
465.50	9577.47
465.69	9877.06
465.87	9544.70
466.05	9617.26
466.23	9617.26
466.41	9554.07
466.60	9863.02
466.78	9579.81
466.96	9696.84
467.14	9692.16
467.32	9614.92
467.51	9736.63
467.69	9483.85
467.87	9811.53
468.05	9848.97
468.23	9694.50
468.41	9888.76
468.60	9834.93
468.78	10057.28
468.96	10120.48
469.14	10047.92
469.32	10289.00
469.50	9671.09
469.69	10040.90
469.87	10270.27
470.05	10160.27
470.23	10125.16
470.41	10370.91
470.59	10230.48
470.77	10036.22
470.95	10373.25
471.14	10829.66
471.32	10183.67
471.50	10647.10
471.68	10672.84
471.86	10523.05
472.04	10693.91
472.22	11119.89
472.40	10686.89
472.58	10731.36
472.77	11016.90
472.95	10834.34
473.13	11332.87
473.31	11133.93
473.49	10932.64
473.67	11044.99
473.85	11206.48
474.03	11250.96
474.21	11384.37
474.39	11508.41
474.57	11447.56
474.75	11513.10
474.93	11651.19
475.12	11672.25
475.30	11508.41
475.48	11712.04
475.66	11620.76
475.84	11779.92
476.02	11922.69
476.20	11843.11
476.38	12222.28
476.56	12381.43
476.74	12271.43
476.92	12093.55
477.10	12238.66
477.28	12531.23
477.46	12727.83
477.64	12702.09
477.82	12915.08
478.00	13240.41
478.18	13263.82
478.36	12936.14
478.54	13422.97
478.72	13219.35
478.90	13523.62
479.08	13572.77
479.26	13626.60
479.44	13743.63
479.62	13841.93
479.80	13879.38
479.98	14253.86
480.16	14200.03
480.34	14031.51
480.52	14347.48
480.70	14403.66
480.88	14218.75
481.06	14321.74
481.24	14382.59
481.41	14930.28
481.59	14869.42
481.77	14930.28
481.95	14913.89
482.13	15246.25
482.31	15051.99
482.49	15496.69
482.67	15407.75
482.85	15325.83
483.03	15723.72
483.21	16070.12
483.39	16177.78
483.57	15744.78
483.74	16130.97
483.92	16224.59
484.10	16203.53
484.28	16159.06
484.46	16500.78
484.64	17029.74
484.82	16645.89
485.00	16987.61
485.18	17090.59
485.35	17130.38
485.53	16924.41
485.71	16627.17
485.89	17032.08
486.07	17193.58
486.25	17177.19
486.43	17610.19
486.61	17731.90
486.78	17933.18
486.96	17848.93
487.14	18228.09
487.32	18698.54
487.50	18724.29
487.68	18480.87
487.85	19105.79
488.03	19058.98
488.21	19061.32
488.39	19101.11
488.57	19344.53
488.75	19386.66
488.92	19793.91
489.10	20308.83
489.28	20002.22
489.46	20631.82
489.64	20603.74
489.81	20664.59
489.99	21022.69
490.17	20849.49
490.35	21256.75
490.53	21006.31
490.70	21446.33
490.88	21139.72
491.06	21795.07
491.24	21687.40
491.41	21104.61
491.59	21774.00
491.77	21553.99
491.95	21874.65
492.13	22071.25
492.30	22132.11
492.48	22441.06
492.66	22354.46
492.84	22672.77
493.01	22979.38
493.19	22876.40
493.37	22960.66
493.54	23133.86
493.72	23358.55
493.90	23531.75
494.08	23674.52
494.25	24372.00
494.43	23777.50
494.61	24266.67
494.79	24421.15
494.96	24144.97
495.14	24477.32
495.32	24589.67
495.49	24797.98
495.67	25076.50
495.85	24989.90
496.02	25184.16
496.20	25427.58
496.38	25385.45
496.55	25530.56
496.73	26036.12
496.91	25872.28
497.09	25926.11
497.26	26050.16
497.44	25720.15
497.62	26253.79
497.79	26441.03
497.97	26024.42
498.14	26342.73
498.32	26607.21
498.50	26574.44
498.67	27000.42
498.85	26817.86
499.03	27225.11
499.20	27185.32
499.38	26998.08
499.56	27276.60
499.73	27297.67
499.91	27653.43
500.08	27285.97
500.26	26974.67
500.44	27346.82
500.61	27747.05
500.79	27620.66
500.97	27833.65
501.14	27768.12
501.32	28320.48
501.49	28004.51
501.67	28610.71
501.84	28400.06
502.02	28411.76
502.20	28676.24
502.37	28872.85
502.55	28723.05
502.72	29111.58
502.90	28919.66
503.07	28767.52
503.25	29413.51
503.43	28694.97
503.60	29296.49
503.78	29294.14
503.95	29177.12
504.13	29378.40
504.30	29530.54
504.48	29736.51
504.65	30000.99
504.83	30338.02
505.01	30424.62
505.18	30071.20
505.36	30541.65
505.53	30354.41
505.71	30803.79
505.88	31276.58
506.06	30588.46
506.23	30778.04
506.41	30794.43
506.58	30789.75
506.76	31000.40
506.93	30885.71
507.11	30845.92
507.28	30874.01
507.46	31082.31
507.63	30892.73
507.81	31248.49
507.98	30995.71
508.16	31522.34
508.33	31758.73
508.50	31894.48
508.68	32119.17
508.85	32348.54
509.03	31625.32
509.20	32095.77
509.38	32121.51
509.55	32236.20
509.73	32142.58
509.90	32374.29
510.08	32163.64
510.25	32470.25
510.42	32294.71
510.60	32816.65
510.77	33123.26
510.95	32999.21
511.12	33081.13
511.30	33397.10
511.47	33582.01
511.64	33226.24
511.82	33752.87
511.99	33514.13
512.17	33266.03
512.34	33532.86
512.51	33247.31
512.69	33598.39
512.86	33647.54
513.04	34007.98
513.21	34068.84
513.38	34061.82
513.56	33727.12
513.73	33638.18
513.90	34550.99
514.08	33647.54
514.25	34354.38
514.43	34125.01
514.60	34206.93
514.77	33947.13
514.95	34501.84
515.12	34565.03
515.29	34660.99
515.47	35337.41
515.64	35372.52
515.81	34707.80
515.99	34944.20
516.16	34705.46
516.33	34426.94
516.51	34445.66
516.68	34384.81
516.85	34260.76
517.03	34511.20
517.20	34787.38
517.37	35227.40
517.54	35498.91
517.72	35079.95
517.89	35419.33
518.06	34733.55
518.24	34773.34
518.41	35398.26
518.58	35475.50
518.75	35526.99
518.93	36184.68
519.10	35672.10
519.27	36388.31
519.45	35957.65
519.62	36453.84
519.79	36392.99
519.96	36275.96
520.14	36952.38
520.31	36397.67
520.48	36423.42
520.65	36950.04
520.83	37216.86
521.00	36907.91
521.17	36856.42
521.34	37158.34
521.52	37514.11
521.69	37254.31
521.86	37600.71
522.03	37436.87
522.20	36945.36
522.38	37521.13
522.55	37745.82
522.72	37310.48
522.89	37289.42
523.07	37780.93
523.24	37675.60
523.41	38209.25
523.58	38061.79
523.75	38429.26
523.92	38328.61
524.10	38405.85
524.27	38405.85
524.44	38534.58
524.61	38735.87
524.78	38684.37
524.96	38602.46
525.13	38625.86
525.30	39222.70
525.47	38682.03
525.64	38611.82
525.81	38890.34
525.98	38904.38
526.16	38642.24
526.33	38342.66
526.50	38249.03
526.67	38253.72
526.84	38216.27
527.01	38672.67
527.18	38955.88
527.36	39353.77
527.53	39435.69
527.70	39746.98
527.87	39838.26
528.04	39267.17
528.21	39915.50
528.38	39716.55
528.55	40395.31
528.72	40357.86
528.89	40304.02
529.07	39765.70
529.24	39988.05
529.41	40201.04
529.58	39910.82
529.75	39533.99
529.92	40002.10
530.09	40254.87
530.26	40416.37
530.43	40498.29
530.60	40348.50
530.77	40282.96
530.94	40898.52
531.11	40531.06
531.28	40369.56
531.46	40442.12
531.63	41125.55
531.80	40247.85
531.97	40477.22
532.14	40598.93
532.31	40275.94
532.48	40594.25
532.65	40996.82
532.82	40472.54
532.99	40877.46
533.16	40830.65
533.33	41102.15
533.50	41221.52
533.67	41008.53
533.84	41170.02
534.01	40830.65
534.18	41612.38
534.35	41544.51
534.52	40968.74
534.69	41797.29
534.86	41886.23
535.03	41851.12
535.20	42057.09
535.37	42586.05
535.54	42422.21
535.71	41813.67
535.88	42209.22
536.05	41766.86
536.22	42216.24
536.38	42021.98
536.55	41471.95
536.72	41954.10
536.89	41394.71
537.06	41696.64
537.23	42281.78
537.40	42160.07
537.57	42377.74
537.74	42361.36
537.91	42302.84
538.08	42351.99
538.25	42155.39
538.42	42447.96
538.59	42581.37
538.75	41799.63
538.92	42665.63
539.09	43014.37
539.26	42010.28
539.43	42572.00
539.60	42794.36
539.77	42277.10
539.94	42677.33
540.11	42316.89
540.28	42447.96
540.44	42581.37
540.61	42314.55
540.78	42576.69
540.95	42328.59
541.12	42948.83
541.29	42707.76
541.46	43236.72
541.62	43466.09
541.79	43049.47
541.96	42986.28
542.13	42955.85
542.30	42885.64
542.47	43262.46
542.63	43225.01
542.80	42953.51
542.97	43777.38
543.14	43358.42
543.31	43540.99
543.48	43770.36
543.64	44027.82
543.81	43981.01
543.98	43856.96
544.15	43878.02
544.32	44081.65
544.48	44467.84
544.65	44074.63
544.82	43971.64
544.99	43732.91
545.16	44198.68
545.32	44083.99
545.49	44451.45
545.66	44486.56
545.83	44629.34
546.00	44320.38
546.16	44130.80
546.33	44006.75
546.50	44095.69
546.67	44296.98
546.83	43791.42
547.00	44439.75
547.17	44280.60
547.34	44158.89
547.50	44215.06
547.67	44676.15
547.84	44395.28
548.00	45090.42
548.17	44854.03
548.34	44470.18
548.51	45095.10
548.67	44481.88
548.84	44718.28
549.01	44837.64
549.18	44584.86
549.34	44823.60
549.51	44863.39
549.68	45249.58
549.84	44814.24
550.01	45069.36
550.18	45247.24
550.34	44879.77
550.51	44940.63
550.68	45057.65
550.84	44584.86
551.01	44919.56
551.18	44959.35
551.34	45177.02
551.51	45471.93
551.68	45303.41
551.84	45464.91
552.01	45507.04
552.18	45282.34
552.34	44968.71
552.51	45401.71
552.68	45081.06
552.84	45317.45
553.01	45385.33
553.18	45233.19
553.34	45694.28
553.51	45195.74
553.67	45497.67
553.84	45970.46
554.01	45722.37
554.17	45921.31
554.34	45624.06
554.51	45759.81
554.67	46073.45
554.84	45909.61
555.00	45710.66
555.17	45525.76
555.33	45729.39
555.50	45696.62
555.67	45500.01
555.83	45937.69
556.00	45691.94
556.16	46263.03
556.33	45514.06
556.50	45790.24
556.66	46071.10
556.83	45659.17
556.99	46007.91
557.16	46155.36
557.32	45560.87
557.49	46178.77
557.65	45790.24
557.82	46120.26
557.98	45918.97
558.15	46237.28
558.32	45961.10
558.48	46031.32
558.65	46141.32
558.81	45830.03
558.98	45968.12
559.14	45977.48
559.31	46183.45
559.47	46080.47
559.64	46391.76
559.80	46487.72
559.97	46003.23
560.13	45815.99
560.30	46373.03
560.46	46557.94
560.63	46600.07
560.79	46913.70
560.96	46466.66
561.12	46745.18
561.29	46461.97
561.45	46410.48
561.61	46513.47
561.78	46248.99
561.94	46284.09
562.11	46103.87
562.27	46658.58
562.44	46593.04
562.60	46380.06
562.77	46894.97
562.93	46567.30
563.10	46848.16
563.26	46351.97
563.42	46937.10
563.59	46630.49
563.75	46501.76
563.92	46576.66
564.08	46721.77
564.24	46745.18
564.41	47178.18
564.57	46754.54
564.74	46429.21
564.90	46724.11
565.07	46918.38
565.23	46651.56
565.39	46883.27
565.56	46623.47
565.72	46581.34
565.88	46396.44
566.05	46700.71
566.21	46419.84
566.38	46574.32
566.54	46560.28
566.70	46923.06
566.87	46796.67
567.03	46997.96
567.19	47386.49
567.36	46829.44
567.52	46511.13
567.68	47217.97
567.85	47079.88
568.01	47157.11
568.17	46564.96
568.34	47482.45
568.50	46965.19
568.66	46873.91
568.83	47086.90
568.99	46635.17
569.15	46696.03
569.32	46766.24
569.48	46920.72
569.64	47213.29
569.81	46890.29
569.97	46817.74
570.13	46831.78
570.30	46478.36
570.46	46639.86
570.62	46745.18
570.78	46354.31
570.95	46436.23
571.11	46653.90
571.27	47054.13
571.43	47070.51
571.60	46651.56
571.76	46899.65
571.92	46817.74
572.09	46536.87
572.25	46525.17
572.41	47023.70
572.57	47461.38
572.74	46962.85
572.90	46972.21
573.06	47145.41
573.22	47026.04
573.38	47145.41
573.55	47124.35
573.71	47292.86
573.87	47304.57
574.03	46972.21
574.20	46831.78
574.36	46726.46
574.52	47037.75
574.68	47096.26
574.84	46738.16
575.01	46972.21
575.17	46969.87
575.33	47004.98
575.49	46581.34
575.65	47131.37
575.82	46806.03
575.98	46845.82
576.14	47089.24
576.30	47206.26
576.46	46918.38
576.62	46988.60
576.79	46784.97
576.95	46794.33
577.11	46696.03
577.27	47173.50
577.43	47203.92
577.59	46677.30
577.75	46909.02
577.92	46522.83
578.08	46373.03
578.24	46529.85
578.40	47323.29
578.56	47208.61
578.72	46960.51
578.88	47150.09
579.04	47210.95
579.21	47002.64
579.37	46930.08
579.53	47054.13
579.69	47026.04
579.85	46745.18
580.01	47662.67
580.17	47079.88
580.33	46941.78
580.49	47206.26
580.65	47283.50
580.82	47042.43
580.98	47246.05
581.14	46841.14
581.30	47327.97
581.46	47351.38
581.62	47021.36
581.78	46899.65
581.94	47288.18
582.10	46843.48
582.26	47491.81
582.42	46691.35
582.58	46902.00
582.74	46911.36
582.90	47222.65
583.06	46986.25
583.22	46948.81
583.38	47304.57
583.54	47756.29
583.70	46930.08
583.86	47161.79
584.02	46548.57
584.18	47079.88
584.34	46843.48
584.50	47196.90
584.66	47283.50
584.82	46848.16
584.98	47468.40
585.14	47377.12
585.30	46986.25
585.46	46918.38
585.62	46836.46
585.78	47222.65
585.94	46546.23
586.10	47243.71
586.26	46745.18
586.42	46953.49
586.58	47028.38
586.74	47365.42
586.90	46824.76
587.06	47089.24
587.22	47292.86
587.38	47000.30
587.54	47161.79
587.70	47077.54
587.86	47433.30
588.02	47096.26
588.18	47297.55
588.34	46721.77
588.49	46560.28
588.65	46473.68
588.81	46564.96
588.97	46894.97
589.13	46328.56
589.29	46642.20
589.45	46632.83
589.61	46927.74
589.77	47264.78
589.93	46937.10
590.08	47229.67
590.24	47171.16
590.40	47536.28
590.56	47332.65
590.72	47075.19
590.88	47093.92
591.04	47037.75
591.20	47440.32
591.35	47285.84
591.51	47538.62
591.67	47133.71
591.83	47145.41
591.99	46780.29
592.15	47143.07
592.31	47241.37
592.46	46953.49
592.62	47370.10
592.78	47686.07
592.94	47327.97
593.10	47346.70
593.26	47454.36
593.41	47402.87
593.57	47124.35
593.73	47051.79
593.89	47112.64
594.05	47180.52
594.20	47557.35
594.36	47302.23
594.52	47068.17
594.68	46918.38
594.84	47248.39
594.99	47304.57
595.15	47192.22
595.31	47220.31
595.47	47435.64
595.62	47365.42
595.78	47423.93
595.94	47026.04
596.10	47854.59
596.25	47416.91
596.41	47334.99
596.57	47002.64
596.73	47379.46
596.88	46897.31
597.04	47311.59
597.20	47297.55
597.36	47009.66
597.51	47489.47
597.67	47751.61
597.83	47260.10
597.99	47473.09
598.14	47555.00
598.30	47437.98
598.46	47250.74
598.61	47150.09
598.77	46953.49
598.93	46857.52
599.09	47016.68
599.24	47955.24
599.40	47503.51
599.56	47365.42
599.71	47154.77
599.87	47337.33
600.03	47217.97
600.18	46897.31
600.34	47016.68
600.50	47353.72
600.65	46965.19
600.81	47704.80
600.97	47615.86
601.12	47487.13
601.28	47452.02
601.44	46972.21
601.59	47316.27
601.75	47004.98
601.91	47203.92
602.06	46813.05
602.22	47437.98
602.37	46939.44
602.53	46960.51
602.69	47562.03
602.84	47255.42
603.00	47152.43
603.16	47210.95
603.31	46981.57
603.47	47147.75
603.62	47173.50
603.78	47564.37
603.94	46965.19
604.09	47573.73
604.25	47255.42
604.40	47117.32
604.56	46777.95
604.71	47468.40
604.87	47100.94
605.03	46902.00
605.18	47129.03
605.34	47082.22
605.49	46405.80
605.65	47049.45
605.80	47306.91
605.96	47503.51
606.12	47264.78
606.27	47248.39
606.43	46693.69
606.58	47222.65
606.74	47124.35
606.89	46955.83
607.05	47405.21
607.20	47222.65
607.36	46827.10
607.51	46628.15
607.67	46944.12
607.82	47084.56
607.98	46415.16
608.13	46719.43
608.29	46639.86
608.44	46536.87
608.60	46319.20
608.75	47023.70
608.91	47044.77
609.06	46906.68
609.22	47129.03
609.37	46389.42
609.53	46763.90
609.68	46485.38
609.84	46766.24
609.99	46370.69
610.15	46344.95
610.30	46492.40
610.46	46080.47
610.61	46279.41
610.76	46602.41
610.92	46724.11
611.07	46845.82
611.23	46859.87
611.38	46307.50
611.54	46511.13
611.69	46251.33
611.84	45841.73
612.00	46361.33
612.15	46263.03
612.31	46307.50
612.46	46190.47
612.62	46438.57
612.77	46267.71
612.92	46057.06
613.08	45925.99
613.23	46113.23
613.39	46609.43
613.54	45900.25
613.69	46279.41
613.85	45837.05
614.00	46181.11
614.15	46600.07
614.31	46199.83
614.46	46342.61
614.62	46101.53
614.77	46384.74
614.92	46389.42
615.08	46120.26
615.23	46349.63
615.38	46099.19
615.54	45792.58
615.69	46045.36
615.84	45319.79
616.00	46028.98
616.15	45565.55
616.30	45972.80
616.46	45296.39
616.61	45380.65
616.76	45638.11
616.92	44994.46
617.07	45170.00
617.22	45422.78
617.37	45333.84
617.53	45961.10
617.68	45633.42
617.83	45918.97
617.99	45481.29
618.14	45530.44
618.29	45427.46
618.45	45235.53
618.60	45003.82
618.75	45104.46
618.90	45265.96
619.06	45254.26
619.21	45207.45
619.36	45705.98
619.51	44992.12
619.67	44996.80
619.82	45317.45
619.97	45237.87
620.12	45308.09
620.28	44755.72
620.43	44994.46
620.58	44889.13
620.73	45263.62
620.89	44872.75
621.04	44884.45
621.19	45247.24
621.34	45345.54
621.49	44711.25
621.65	44631.68
621.80	45099.78
621.95	44540.39
622.10	44854.03
622.25	44683.17
622.41	44175.27
622.56	44762.75
622.71	45120.85
622.86	44961.69
623.01	44458.48
623.16	44774.45
623.32	44655.08
623.47	44411.67
623.62	44360.17
623.77	44477.20
623.92	44900.84
624.07	44208.04
624.23	44198.68
624.38	44109.74
624.53	44437.41
624.68	43882.70
624.83	44538.05
624.98	44212.72
625.13	44306.34
625.29	44488.90
625.44	44105.06
625.59	43936.54
625.74	43384.17
625.89	43452.05
626.04	43845.26
626.19	44009.09
626.34	43882.70
626.49	43526.94
626.65	43955.26
626.80	43849.94
626.95	43962.28
627.10	43496.52
627.25	43737.59
627.40	43749.29
627.55	43225.01
627.70	43222.67
627.85	43147.78
628.00	43019.05
628.15	43290.55
628.30	43414.60
628.45	43688.44
628.60	43531.62
628.76	43714.19
628.91	43374.81
629.06	43063.52
629.21	42885.64
629.36	43217.99
629.51	43084.58
629.66	42990.96
629.81	42836.48
629.96	43225.01
630.11	43180.54
630.26	43365.45
630.41	42974.58
630.56	43009.68
630.71	43037.77
630.86	42834.14
631.01	43026.07
631.16	43051.81
631.31	42864.57
631.46	42986.28
631.61	42855.21
631.76	42820.10
631.91	43002.66
632.06	43096.28
632.21	43136.07
632.36	43203.95
632.51	42618.81
632.66	42731.16
632.81	42721.80
632.96	42981.60
633.10	42314.55
633.25	43150.12
633.40	42768.61
633.55	43009.68
633.70	42466.68
633.85	42426.89
634.00	42405.83
634.15	42707.76
634.30	42618.81
634.45	42204.54
634.60	42326.25
634.75	42330.93
634.90	42291.14
635.05	42546.26
635.19	41832.39
635.34	42368.38
635.49	42375.40
635.64	41792.61
635.79	42249.01
635.94	41656.85
636.09	42197.52
636.24	42230.29
636.39	41811.33
636.53	41991.55
636.68	42096.88
636.83	41996.23
636.98	41954.10
637.13	41759.84
637.28	42185.82
637.43	42019.64
637.57	42572.00
637.72	41729.41
637.87	41738.77
638.02	41745.80
638.17	41525.78
638.32	42040.70
638.46	41677.92
638.61	41769.20
638.76	41296.41
638.91	41759.84
639.06	41703.67
639.20	41387.69
639.35	42174.11
639.50	41371.31
639.65	42096.88
639.80	41425.14
639.94	41357.27
640.09	41738.77
640.24	40753.41
640.39	41137.26
640.54	41081.08
640.68	41450.89
640.83	41324.50
640.98	41127.89
641.13	41188.75
641.27	41560.89
641.42	40856.39
641.57	41074.06
641.72	40879.80
641.86	40900.86
642.01	40648.08
642.16	40648.08
642.31	40692.55
642.45	41326.84
642.60	40769.79
642.75	40849.37
642.90	40666.81
643.04	40748.73
643.19	40739.36
643.34	40797.88
643.48	40147.21
643.63	40364.88
643.78	40395.31
643.93	40355.52
644.07	40430.41
644.22	40634.04
644.37	40727.66
644.51	40533.40
644.66	40617.66
644.81	40334.45
644.95	40622.34
645.10	40699.58
645.25	40793.20
645.39	40531.06
645.54	40734.68
645.69	40203.38
645.83	40533.40
645.98	40416.37
646.13	40219.77
646.27	40301.68
646.42	40172.96
646.57	40542.76
646.71	39749.32
646.86	40098.06
647.00	40156.57
647.15	40388.28
647.30	40252.53
647.44	39789.11
647.59	40051.25
647.74	39782.09
647.88	39992.73
648.03	40250.19
648.17	39871.03
648.32	39784.43
648.47	39754.00
648.61	39707.19
648.76	39573.78
648.90	39529.31
649.05	39934.22
649.20	39674.42
649.34	39899.11
649.49	39620.59
649.63	39423.98
649.78	39491.86
649.92	39711.87
650.07	39789.11
650.21	39175.89
650.36	39456.75
650.51	39232.06
650.65	39929.54
650.80	39966.99
650.94	39873.37
651.09	39250.78
651.23	39431.01
651.38	39133.76
651.52	39079.92
651.67	39042.48
651.81	39180.57
651.96	38944.17
652.10	39124.40
652.25	38749.91
652.39	39117.37
652.54	39262.49
652.68	39330.36
652.83	39037.80
652.97	39381.85
653.12	39260.15
653.26	38904.38
653.41	38778.00
653.55	38990.98
653.70	38506.49
653.84	38541.60
653.99	38803.74
654.13	38588.41
654.27	38658.63
654.42	38492.45
654.56	38230.31
654.71	38995.67
654.85	38658.63
655.00	38625.86
655.14	38494.79
655.29	38227.97
655.43	38167.12
655.57	38302.87
655.72	37879.23
655.86	37539.85
656.01	37591.34
656.15	37663.90
656.30	37673.26
656.44	38003.28
656.58	38185.84
656.73	37488.36
656.87	37968.17
657.01	37900.29
657.16	38562.67
657.30	38188.18
657.45	37776.25
657.59	37804.33
657.73	38197.54
657.88	38773.31
658.02	38026.68
658.16	38251.38
658.31	38010.30
658.45	38005.62
658.60	37818.38
658.74	38029.02
658.88	37942.42
659.03	37673.26
659.17	37097.49
659.31	37474.32
659.46	37399.42
659.60	37584.32
659.74	37801.99
659.89	37586.66
660.03	37479.00
660.17	37294.10
660.32	37677.94
660.46	37748.16
660.60	37013.23
660.74	37071.75
660.89	37666.24
661.03	36676.19
661.17	36863.44
661.32	37024.93
661.46	37036.64
661.60	36940.68
661.74	36582.57
661.89	37029.62
662.03	36701.94
662.17	36603.64
662.31	36392.99
662.46	36711.30
662.60	36800.24
662.74	36570.87
662.88	36322.77
663.03	36421.08
663.17	36615.34
663.31	36264.26
663.45	36170.64
663.60	36210.43
663.74	36144.89
663.88	36301.71
664.02	36123.83
664.17	36137.87
664.31	35693.17
664.45	35878.07
664.59	35817.22
664.73	35824.24
664.88	35744.66
665.02	35463.80
665.16	35400.60
665.30	35819.56
665.44	35356.13
665.59	35075.27
665.73	35098.67
665.87	35152.51
666.01	35236.77
666.15	35381.88
666.29	35688.49
666.44	35758.70
666.58	35065.91
666.72	34913.77
666.86	34815.47
667.00	35262.51
667.14	34932.50
667.28	34639.93
667.43	34838.87
667.57	34803.77
667.71	35108.04
667.85	35093.99
667.99	34773.34
668.13	34902.07
668.27	34550.99
668.41	34876.32
668.56	34553.33
668.70	34616.52
668.84	34672.70
668.98	34110.97
669.12	33902.66
669.26	33731.80
669.40	34312.25
669.54	33961.17
669.68	33968.19
669.82	33659.24
669.96	33778.61
670.10	33493.07
670.25	33652.22
670.39	33727.12
670.53	33284.76
670.67	33666.27
670.81	33663.93
670.95	33472.00
671.09	33589.03
671.23	33352.63
671.37	33359.66
671.51	32769.84
671.65	33116.24
671.79	32652.81
671.93	32961.76
672.07	33476.68
672.21	32830.69
672.35	32896.23
672.49	32884.53
672.63	32900.91
672.77	32896.23
672.91	32947.72
673.05	32575.58
673.19	32215.13
673.33	32067.68
673.47	32341.52
673.61	32524.08
673.75	31924.91
673.89	31850.01
674.03	32044.27
674.17	32004.49
674.31	32046.62
674.45	31578.51
674.59	31732.98
674.73	31992.78
674.87	31674.47
675.01	31468.50
675.15	31447.44
675.29	31442.76
675.43	31475.52
675.56	31501.27
675.70	31058.91
675.84	31323.39
675.98	30572.08
676.12	31197.00
676.26	30906.77
676.40	30721.87
676.54	30735.92
676.68	30902.09
676.82	30216.32
676.96	30263.13
677.10	30410.58
677.23	30328.66
677.37	30192.91
677.51	30279.51
677.65	29607.78
677.79	29874.60
677.93	29663.95
678.07	29956.52
678.21	29184.14
678.34	29528.20
678.48	29301.17
678.62	29296.49
678.76	28912.64
678.90	28577.94
679.04	29254.36
679.18	29006.26
679.31	28877.53
679.45	28730.08
679.59	28498.36
679.73	28680.92
679.87	28212.82
680.00	28484.32
680.14	28510.07
680.28	28126.22
680.42	27859.40
680.56	27950.68
680.70	28180.05
680.83	27917.91
680.97	28072.39
681.11	27974.08
681.25	27578.53
681.39	27936.63
681.52	27438.10
681.66	27316.39
681.80	27653.43
681.94	27276.60
682.07	27349.16
682.21	26988.72
682.35	27197.02
682.49	27201.71
682.62	26623.59
682.76	26806.16
682.90	26841.26
683.04	26251.45
683.17	26525.29
683.31	26384.86
683.45	26291.24
683.59	26293.58
683.72	26160.17
683.86	26054.84
684.00	25935.48
684.13	26188.25
684.27	25837.17
684.41	25766.96
684.55	25996.33
684.68	25656.95
684.82	25654.61
684.96	25474.39
685.09	25493.12
685.23	25109.27
685.37	25226.29
685.50	25095.22
685.64	24821.38
685.78	24678.61
685.91	24793.29
686.05	24428.17
686.19	24414.13
686.32	24294.76
686.46	23850.06
686.60	23599.62
686.73	23667.50
686.87	23358.55
687.01	23211.09
687.14	23330.46
687.28	23367.91
687.42	23353.87
687.55	23248.54
687.69	23304.71
687.82	23222.80
687.96	23281.31
688.10	22930.23
688.23	23058.96
688.37	23037.89
688.50	22831.93
688.64	22965.34
688.78	22874.06
688.91	22878.74
689.05	22356.80
689.18	22712.56
689.32	22368.50
689.46	22345.09
689.59	22146.15
689.73	22342.75
689.86	22207.00
690.00	22295.94
690.13	22040.82
690.27	22111.04
690.41	21799.75
690.54	21593.78
690.68	21488.46
690.81	21427.60
690.95	21474.42
691.08	21429.94
691.22	21357.39
691.35	21511.86
691.49	21413.56
691.62	21563.36
691.76	21085.89
691.89	21242.70
692.03	20978.22
692.16	21137.38
692.30	20631.82
692.43	20486.71
692.57	20128.61
692.70	20133.29
692.84	20383.73
692.97	19920.30
693.11	20549.90
693.24	20226.91
693.38	20051.37
693.51	19974.13
693.65	20130.95
693.78	20222.23
693.92	19728.38
694.05	19735.40
694.19	19676.88
694.32	19199.41
694.45	19721.35
694.59	19159.63
694.72	19089.41
694.86	19271.97
694.99	19140.90
695.13	19101.11
695.26	18918.55
695.39	18904.51
695.53	19271.97
695.66	19192.39
695.80	18960.68
695.93	18860.04
696.07	18581.51
696.20	18679.82
696.33	18450.44
696.47	18595.56
696.60	18200.01
696.73	18050.21
696.87	18408.31
697.00	18218.73
697.14	18104.04
697.27	17804.46
697.40	17891.06
697.54	17572.74
697.67	17357.41
697.80	17687.43
697.94	17387.84
698.07	17399.54
698.21	17301.24
698.34	17348.05
698.47	17085.91
698.61	17083.57
698.74	16734.83
698.87	16865.90
699.01	16858.88
699.14	16470.35
699.27	16472.69
699.40	16669.30
699.54	16776.96
699.67	16381.41
699.80	16432.90
699.94	16276.09
700.07	16285.45
700.20	16353.32
700.34	16100.55
700.47	16292.47
700.60	16439.92
700.73	16259.70
700.87	16081.82
701.00	15796.28
701.13	15765.85
701.26	15756.49
701.40	15477.96
701.53	15627.76
701.66	15887.56
701.79	15358.60
701.93	15279.02
702.06	14909.21
702.19	15171.35
702.32	15037.94
702.46	15176.03
702.59	15098.80
702.72	15295.40
702.85	15047.30
702.99	14979.43
703.12	14906.87
703.25	14874.10
703.38	14602.60
703.51	14361.53
703.65	14621.33
703.78	14473.87
703.91	14342.80
704.04	14370.89
704.17	14202.37
704.31	14237.48
704.44	14033.85
704.57	14237.48
704.70	13881.72
704.83	14111.09
704.96	14005.77
705.10	14122.79
705.23	13738.94
>>>>>End Processed Spectral Data<<<<<
