SpectraSuite Data File
++++++++++++++++++++++++++++++++++++
Date: Fri Oct 25 11:34:37 EDT 2013
User: price-jones
Dark Spectrum Present: No
Reference Spectrum Present: No
Number of Sampled Component Spectra: 1
Spectrometers: USB2+H05261
Integration Time (usec): 100000 (USB2+H05261)
Spectra Averaged: 1 (USB2+H05261)
Boxcar Smoothing: 0 (USB2+H05261)
Correct for Electrical Dark: No (USB2+H05261)
Strobe/Lamp Enabled: No (USB2+H05261)
Correct for Detector Non-linearity: No (USB2+H05261)
Correct for Stray Light: No (USB2+H05261)
Number of Pixels in Processed Spectrum: 2048
>>>>>Begin Processed Spectral Data<<<<<
365.73	308.95
365.92	308.95
366.12	308.95
366.32	189.58
366.52	142.77
366.72	215.33
366.91	191.92
367.11	173.20
367.31	168.52
367.51	191.92
367.70	229.37
367.90	180.22
368.10	142.77
368.30	208.31
368.49	119.37
368.69	259.80
368.89	205.97
369.09	205.97
369.28	271.50
369.48	201.29
369.68	238.73
369.87	320.65
370.07	255.12
370.27	292.57
370.47	353.42
370.66	491.51
370.86	514.92
371.06	430.66
371.25	610.88
371.45	538.32
371.65	557.05
371.84	589.82
372.04	491.51
372.24	589.82
372.44	538.32
372.63	592.16
372.83	575.77
373.03	603.86
373.22	538.32
373.42	573.43
373.62	615.56
373.81	564.07
374.01	634.29
374.21	683.44
374.40	624.92
374.60	678.76
374.79	641.31
374.99	655.35
375.19	685.78
375.38	587.47
375.58	643.65
375.78	697.48
375.97	690.46
376.17	727.91
376.37	688.12
376.56	664.71
376.76	692.80
376.95	526.62
377.15	676.41
377.35	622.58
377.54	690.46
377.74	746.63
377.93	667.05
378.13	664.71
378.33	692.80
378.52	748.97
378.72	723.23
378.91	737.27
379.11	760.67
379.31	678.76
379.50	711.52
379.70	781.74
379.89	697.48
380.09	683.44
380.28	774.72
380.48	688.12
380.68	697.48
380.87	744.29
381.07	685.78
381.26	800.46
381.46	837.91
381.65	748.97
381.85	730.25
382.04	798.12
382.24	760.67
382.43	744.29
382.63	744.29
382.83	781.74
383.02	793.44
383.22	737.27
383.41	795.78
383.61	837.91
383.80	847.27
384.00	805.14
384.19	807.48
384.39	809.83
384.58	770.04
384.78	828.55
384.97	798.12
385.17	800.46
385.36	760.67
385.56	823.87
385.75	833.23
385.95	774.72
386.14	877.70
386.34	807.48
386.53	873.02
386.72	826.21
386.92	866.00
387.11	753.65
387.31	880.04
387.50	863.66
387.70	877.70
387.89	896.43
388.09	844.93
388.28	823.87
388.48	858.98
388.67	873.02
388.86	903.45
389.06	940.90
389.25	971.32
389.45	901.11
389.64	924.51
389.84	961.96
390.03	964.30
390.22	976.00
390.42	973.66
390.61	931.53
390.81	835.57
391.00	954.94
391.19	990.05
391.39	940.90
391.58	1043.88
391.78	945.58
391.97	971.32
392.16	987.71
392.36	1029.84
392.55	1076.65
392.75	1032.18
392.94	1076.65
393.13	1013.45
393.33	980.68
393.52	950.26
393.71	1055.58
393.91	1034.52
394.10	1015.79
394.29	1015.79
394.49	1111.75
394.68	1071.97
394.88	1081.33
395.07	1071.97
395.26	1179.63
395.46	1104.73
395.65	1160.91
395.84	1135.16
396.04	1158.57
396.23	1125.80
396.42	1128.14
396.62	1146.86
396.81	1196.01
397.00	1212.40
397.19	1217.08
397.39	1156.22
397.58	1219.42
397.77	1214.74
397.97	1289.64
398.16	1214.74
398.35	1198.35
398.55	1191.33
398.74	1181.97
398.93	1357.51
399.12	1256.87
399.32	1306.02
399.51	1331.76
399.70	1233.46
399.90	1226.44
400.09	1341.13
400.28	1338.79
400.47	1324.74
400.67	1401.98
400.86	1453.47
401.05	1390.28
401.24	1301.34
401.44	1378.58
401.63	1348.15
401.82	1390.28
402.01	1270.91
402.21	1343.47
402.40	1497.94
402.59	1439.43
402.78	1486.24
402.97	1418.36
403.17	1441.77
403.36	1439.43
403.55	1535.39
403.74	1511.99
403.93	1507.30
404.13	1593.90
404.32	1516.67
404.51	1528.37
404.70	1671.14
404.89	1547.09
405.09	1647.74
405.28	1640.72
405.47	1666.46
405.66	1638.38
405.85	1689.87
406.05	1568.16
406.24	1757.74
406.43	1666.46
406.62	1764.76
406.81	1715.61
407.00	1699.23
407.20	1706.25
407.39	1703.91
407.58	1748.38
407.77	1781.15
407.96	1832.64
408.15	1802.21
408.34	1792.85
408.54	1867.75
408.73	1849.02
408.92	1914.56
409.11	1952.01
409.30	1914.56
409.49	1921.58
409.68	1956.69
409.87	1916.90
410.07	1900.52
410.26	1921.58
410.45	1947.33
410.64	2010.52
410.83	2036.27
411.02	1977.75
411.21	2054.99
411.40	2022.22
411.59	2066.69
411.78	2087.76
411.98	2062.01
412.17	2094.78
412.36	2195.42
412.55	2303.09
412.74	2366.28
412.93	2235.21
413.12	2314.79
413.31	2359.26
413.50	2331.17
413.69	2223.51
413.88	2235.21
414.07	2319.47
414.26	2342.88
414.45	2497.35
414.64	2349.90
414.83	2422.45
415.02	2443.52
415.22	2576.93
415.41	2576.93
415.60	2553.52
415.79	2621.40
415.98	2644.81
416.17	2640.12
416.36	2532.46
416.55	2672.89
416.74	2661.19
416.93	2679.91
417.12	2626.08
417.31	2633.10
417.50	2757.15
417.69	2876.52
417.88	2733.75
418.07	2818.00
418.26	2773.53
418.45	2850.77
418.64	3002.91
418.83	2979.50
419.02	2780.56
419.21	2995.89
419.39	2993.55
419.58	2953.76
419.77	2918.65
419.96	2986.52
420.15	2977.16
420.34	3012.27
420.53	3019.29
420.72	3148.02
420.91	3143.34
421.10	3197.17
421.29	3112.91
421.48	3131.64
421.67	3061.42
421.86	3038.02
422.05	3267.39
422.24	3157.38
422.43	3286.11
422.61	3262.71
422.80	3262.71
422.99	3213.56
423.18	3325.90
423.37	3258.03
423.56	3208.87
423.75	3241.64
423.94	3190.15
424.13	3007.59
424.32	3138.66
424.50	3162.06
424.69	3463.99
424.88	3344.63
425.07	3227.60
425.26	3222.92
425.45	3258.03
425.64	3194.83
425.83	3335.26
426.01	3325.90
426.20	3253.34
426.39	3414.84
426.58	3356.33
426.77	3382.07
426.96	3353.99
427.15	3304.84
427.33	3475.70
427.52	3272.07
427.71	3489.74
427.90	3456.97
428.09	3510.80
428.28	3361.01
428.46	3585.70
428.65	3578.68
428.84	3665.28
429.03	3716.77
429.22	3480.38
429.40	3562.30
429.59	3557.61
429.78	3454.63
429.97	3421.86
430.16	3478.04
430.34	3667.62
430.53	3620.81
430.72	3667.62
430.91	3681.66
431.10	3712.09
431.28	3726.13
431.47	3887.63
431.66	3796.35
431.85	3864.22
432.03	3866.56
432.22	3955.51
432.41	3786.99
432.60	3873.59
432.79	3791.67
432.97	3911.04
433.16	3889.97
433.35	3843.16
433.54	4039.76
433.72	3920.40
433.91	3997.64
434.10	4063.17
434.28	3822.09
434.47	4011.68
434.66	3948.48
434.85	4161.47
435.03	4238.71
435.22	4100.62
435.41	4241.05
435.59	4112.32
435.78	4241.05
435.97	4243.39
436.16	4269.14
436.34	4238.71
436.53	4344.03
436.72	4400.21
436.90	4215.30
437.09	4386.16
437.28	4126.36
437.46	4210.62
437.65	4327.65
437.84	4386.16
438.02	4423.61
438.21	4294.88
438.40	4313.61
438.58	4521.92
438.77	4545.32
438.96	4638.94
439.14	4599.15
439.33	4709.16
439.52	4566.39
439.70	4784.06
439.89	4702.14
440.08	4688.09
440.26	4779.37
440.45	4777.03
440.63	4908.10
440.82	4926.83
441.01	4765.33
441.19	4971.30
441.38	5022.79
441.57	4947.89
441.75	5116.41
441.94	5085.98
442.12	5074.28
442.31	5224.08
442.50	5069.60
442.68	5064.92
442.87	5289.61
443.05	5320.04
443.24	5160.88
443.43	5355.15
443.61	5254.50
443.80	5385.57
443.98	5282.59
444.17	5165.56
444.35	5235.78
444.54	5380.89
444.73	5240.46
444.91	5301.31
445.10	5483.88
445.28	5357.49
445.47	5476.85
445.65	5420.68
445.84	5427.70
446.02	5437.06
446.21	5324.72
446.39	5476.85
446.58	5521.32
446.77	5521.32
446.95	5315.36
447.14	5476.85
447.32	5530.69
447.51	5413.66
447.69	5392.59
447.88	5577.50
448.06	5540.05
448.25	5509.62
448.43	5530.69
448.62	5561.11
448.80	5565.79
448.99	5598.56
449.17	5643.03
449.36	5572.82
449.54	5839.64
449.73	5914.53
449.91	5783.46
450.10	5685.16
450.28	5856.02
450.46	5900.49
450.65	5760.06
450.83	5879.43
451.02	5987.09
451.20	5916.87
451.39	5905.17
451.57	5966.03
451.76	5902.83
451.94	5949.64
452.13	6012.84
452.31	6012.84
452.49	5891.13
452.68	5912.19
452.86	5830.27
453.05	5968.37
453.23	6127.52
453.42	5966.03
453.60	5947.30
453.78	6125.18
453.97	5944.96
454.15	6094.76
454.34	6136.88
454.52	6050.28
454.70	6176.67
454.89	6342.85
455.07	6319.45
455.26	6370.94
455.44	6464.56
455.62	6490.31
455.81	6190.72
455.99	6375.62
456.17	6324.13
456.36	6338.17
456.54	6328.81
456.73	6509.03
456.91	6729.04
457.09	6546.48
457.28	6626.06
457.46	6677.55
457.64	6621.38
457.83	6710.32
458.01	6661.16
458.19	6825.00
458.38	6775.85
458.56	6785.21
458.74	6658.82
458.93	6906.92
459.11	7033.31
459.29	6902.24
459.48	6967.77
459.66	6911.60
459.84	6977.14
460.03	6986.50
460.21	7101.19
460.39	6937.35
460.57	7040.33
460.76	7143.32
460.94	7180.76
461.12	7236.94
461.31	7426.52
461.49	7171.40
461.67	7145.66
461.85	7227.57
462.04	7164.38
462.22	7702.70
462.40	7459.29
462.59	7274.38
462.77	7302.47
462.95	7258.00
463.13	7311.83
463.32	7442.90
463.50	7346.94
463.68	7489.71
463.86	7550.57
464.05	7550.57
464.23	7316.51
464.41	7431.20
464.59	7360.98
464.78	7698.02
464.96	7604.40
465.14	7358.64
465.32	7581.00
465.50	7721.43
465.69	7681.64
465.87	7545.89
466.05	7712.07
466.23	7644.19
466.41	7676.96
466.60	7957.82
466.78	7880.58
466.96	7768.24
467.14	7941.44
467.32	7880.58
467.51	8018.68
467.69	7602.06
467.87	7798.66
468.05	7829.09
468.23	7976.55
468.41	7906.33
468.60	8107.62
468.78	8035.06
468.96	7974.21
469.14	8095.91
469.32	8344.01
469.50	8046.76
469.69	8212.94
469.87	8234.00
470.05	8407.20
470.23	8311.24
470.41	8196.56
470.59	8512.53
470.77	8241.03
470.95	8535.93
471.14	8542.96
471.32	8322.94
471.50	8641.26
471.68	8559.34
471.86	8664.66
472.04	8753.60
472.22	8662.32
472.40	8674.03
472.58	8805.10
472.77	9104.68
472.95	8879.99
473.13	9186.60
473.31	9060.21
473.49	9048.51
473.67	8980.64
473.85	9217.03
474.03	9362.14
474.21	9165.54
474.39	9329.38
474.57	9200.65
474.75	9497.89
474.93	9188.94
475.12	9378.53
475.30	9415.98
475.48	9413.63
475.66	9643.01
475.84	9544.70
476.02	9701.52
476.20	9614.92
476.38	9870.04
476.56	10071.33
476.74	10153.24
476.92	9996.43
477.10	9947.28
477.28	10188.35
477.46	10195.37
477.64	10387.30
477.82	10256.23
478.00	10633.05
478.18	10576.88
478.36	10609.65
478.54	10771.15
478.72	10855.40
478.90	10679.86
479.08	11068.39
479.26	11309.47
479.44	10937.32
479.62	11098.82
479.80	11112.86
479.98	11391.39
480.16	11531.82
480.34	11480.33
480.52	11651.19
480.70	11599.70
480.88	11719.06
481.06	11562.25
481.24	11618.42
481.41	11908.65
481.59	12039.72
481.77	11995.25
481.95	12226.96
482.13	12395.48
482.31	12257.39
482.49	12638.89
482.67	12814.43
482.85	12931.46
483.03	12751.24
483.21	12896.35
483.39	13284.88
483.57	12908.05
483.74	13261.48
483.92	13406.59
484.10	13118.70
484.28	13383.18
484.46	13722.56
484.64	13823.20
484.82	13736.60
485.00	13851.29
485.18	14143.86
485.35	14436.42
485.53	14228.12
485.71	14286.63
485.89	14721.97
486.07	14380.25
486.25	14801.55
486.43	14654.09
486.61	14609.62
486.78	15393.70
486.96	15012.20
487.14	14979.43
487.32	15279.02
487.50	15438.17
487.68	15412.43
487.85	15449.88
488.03	15702.65
488.21	15983.52
488.39	16105.23
488.57	16250.34
488.75	16404.81
488.92	16435.24
489.10	16556.95
489.28	16755.90
489.46	16681.00
489.64	16776.96
489.81	16793.34
489.99	17252.09
490.17	17153.79
490.35	17448.69
490.53	17521.25
490.70	17741.26
490.88	17605.51
491.06	17788.07
491.24	17977.65
491.41	18197.67
491.59	18338.10
491.77	18106.38
491.95	18551.09
492.13	18525.34
492.30	18738.33
492.48	18630.66
492.66	18607.26
492.84	18558.11
493.01	19222.82
493.19	19283.67
493.37	18986.43
493.54	19396.02
493.72	19524.75
493.90	19459.21
494.08	19688.59
494.25	20039.67
494.43	19782.21
494.61	20203.50
494.79	20311.17
494.96	19929.66
495.14	20610.76
495.32	20467.98
495.49	20554.58
495.67	20891.62
495.85	20732.47
496.02	20936.09
496.20	21256.75
496.38	21736.56
496.55	21060.14
496.73	21717.83
496.91	21556.33
497.09	21537.61
497.26	21542.29
497.44	21591.44
497.62	22029.12
497.79	21928.48
497.97	22038.48
498.14	22419.99
498.32	22347.44
498.50	22651.70
498.67	22333.39
498.85	22640.00
499.03	22464.46
499.20	22696.17
499.38	22810.86
499.56	22836.61
499.73	23239.18
499.91	23580.90
500.08	23101.09
500.26	23208.75
500.44	23590.26
500.61	23606.64
500.79	23367.91
500.97	23791.55
501.14	24187.10
501.32	24257.31
501.49	23857.08
501.67	24156.67
501.84	24016.24
502.02	23990.49
502.20	24091.13
502.37	24482.00
502.55	24421.15
502.72	24587.33
502.90	24416.47
503.07	24437.53
503.25	24996.92
503.43	24477.32
503.60	24961.81
503.78	24835.42
503.95	24938.41
504.13	25593.76
504.30	25413.54
504.48	25249.70
504.65	25408.86
504.83	25689.72
505.01	25614.82
505.18	25291.83
505.36	25858.24
505.53	25722.49
505.71	26017.40
505.88	26080.59
506.06	25919.09
506.23	26223.36
506.41	26148.46
506.58	26218.68
506.76	26429.33
506.93	26590.83
507.11	26567.42
507.28	26647.00
507.46	26354.43
507.63	26728.92
507.81	26967.65
507.98	26614.23
508.16	26988.72
508.33	27243.84
508.50	27484.91
508.68	27049.57
508.85	27716.62
509.03	27431.08
509.20	27604.28
509.38	27934.29
509.55	27576.19
509.73	27847.69
509.90	27695.56
510.08	27894.50
510.25	27651.09
510.42	28404.74
510.60	28371.97
510.77	28266.65
510.95	28421.13
511.12	28210.48
511.30	28706.67
511.47	28650.50
511.64	28685.61
511.82	28940.72
511.99	28872.85
512.17	28999.24
512.34	28900.94
512.51	29120.95
512.69	29134.99
512.86	29029.66
513.04	29418.19
513.21	29788.00
513.38	29392.45
513.56	29764.59
513.73	29570.33
513.90	29497.77
514.08	29567.99
514.25	29677.99
514.43	29778.64
514.60	29729.48
514.77	29916.73
514.95	29989.28
515.12	30213.98
515.29	30211.64
515.47	30258.45
515.64	30497.18
515.81	30235.04
515.99	30080.56
516.16	30675.06
516.33	30878.69
516.51	30663.36
516.68	30085.25
516.85	30958.27
517.03	31239.13
517.20	30836.56
517.37	31056.57
517.54	31012.10
517.72	31075.29
517.89	31625.32
518.06	31187.64
518.24	30972.31
518.41	31297.64
518.58	31510.63
518.75	31702.56
518.93	32055.98
519.10	31417.01
519.27	31536.38
519.45	31679.15
519.62	31859.37
519.79	31810.22
519.96	32037.25
520.14	32224.50
520.31	32142.58
520.48	32025.55
520.65	32444.51
520.83	32872.82
521.00	32943.04
521.17	32666.86
521.34	32650.47
521.52	32521.74
521.69	32917.29
521.86	32851.76
522.03	32879.85
522.20	33230.93
522.38	33174.75
522.55	33399.44
522.72	33256.67
522.89	33535.20
523.07	33656.90
523.24	33144.33
523.41	33642.86
523.58	33170.07
523.75	34024.37
523.92	33654.56
524.10	33628.82
524.27	33689.67
524.44	33706.05
524.61	34043.09
524.78	33841.81
524.96	34094.58
525.13	34583.76
525.30	34522.90
525.47	34665.67
525.64	34761.64
525.81	34457.37
525.98	34300.55
526.16	34541.63
526.33	33942.45
526.50	34761.64
526.67	34265.44
526.84	34590.78
527.01	34988.67
527.18	34653.97
527.36	34983.99
527.53	34749.93
527.70	35288.26
527.87	35405.28
528.04	35208.68
528.21	34911.43
528.38	35206.34
528.55	35079.95
528.72	35194.64
528.89	35349.11
529.07	35309.32
529.24	35040.16
529.41	35796.15
529.58	35887.43
529.75	35761.05
529.92	35732.96
530.09	35351.45
530.26	35353.79
530.43	35887.43
530.60	35695.51
530.77	35519.97
530.94	36093.40
531.11	35950.63
531.28	36116.81
531.46	36292.35
531.63	35983.40
531.80	36037.23
531.97	36297.03
532.14	36292.35
532.31	35695.51
532.48	36500.65
532.65	36767.48
532.82	36495.97
532.99	36662.15
533.16	36315.75
533.33	36772.16
533.50	36891.52
533.67	36680.88
533.84	36505.34
534.01	36814.29
534.18	36872.80
534.35	37205.16
534.52	37357.29
534.69	37273.03
534.86	37031.96
535.03	37148.98
535.20	37745.82
535.37	37347.93
535.54	37390.06
535.71	37209.84
535.88	37364.31
536.05	37170.05
536.22	37612.41
536.38	37350.27
536.55	37574.96
536.72	37893.27
536.89	37340.91
537.06	38330.95
537.23	37907.32
537.40	38237.33
537.57	37738.80
537.74	37867.53
537.91	38249.03
538.08	38022.00
538.25	38237.33
538.42	38148.39
538.59	38457.34
538.75	38560.33
538.92	38396.49
539.09	38363.72
539.26	38447.98
539.43	38588.41
539.60	38885.66
539.77	38279.46
539.94	38813.10
540.11	38768.63
540.28	38335.63
540.44	38649.27
540.61	38597.77
540.78	38438.62
540.95	39054.18
541.12	38548.62
541.29	38789.70
541.46	38801.40
541.62	38682.03
541.79	39206.31
541.96	38590.75
542.13	38511.17
542.30	38925.45
542.47	39398.24
542.63	38974.60
542.80	39400.58
542.97	39325.68
543.14	39576.12
543.31	39569.10
543.48	39323.34
543.64	39791.45
543.81	39988.05
543.98	39899.11
544.15	40339.13
544.32	39742.30
544.48	40102.74
544.65	40247.85
544.82	40011.46
544.99	39636.97
545.16	40336.79
545.32	39924.86
545.49	40306.37
545.66	40645.74
545.83	40470.20
546.00	40938.31
546.16	40477.22
546.33	40598.93
546.50	40051.25
546.67	40861.07
546.83	40158.91
547.00	40407.01
547.17	40390.62
547.34	40318.07
547.50	41223.86
547.67	40807.24
547.84	41090.44
548.00	41127.89
548.17	41390.03
548.34	41160.66
548.51	41172.36
548.67	40903.20
548.84	40790.86
549.01	40952.35
549.18	40760.43
549.34	41163.00
549.51	41570.25
549.68	41287.05
549.84	41270.67
550.01	41385.35
550.18	40968.74
550.34	41429.82
550.51	41404.08
550.68	41567.91
550.84	41237.90
551.01	41570.25
551.18	41668.56
551.34	41450.89
551.51	41612.38
551.68	41628.77
551.84	41251.94
552.01	41647.49
552.18	41762.18
552.34	41830.05
552.51	41993.89
552.68	41713.03
552.84	41586.64
553.01	41715.37
553.18	41846.44
553.34	42057.09
553.51	41694.30
553.67	41998.57
553.84	42110.92
554.01	41710.69
554.17	42199.86
554.34	42183.48
554.51	41944.74
554.67	42253.69
554.84	42609.45
555.00	42122.62
555.17	41972.83
555.33	42366.04
555.50	42452.64
555.67	42092.19
555.83	42436.25
556.00	42518.17
556.16	42759.25
556.33	42480.72
556.50	42476.04
556.66	42752.23
556.83	42541.58
556.99	42693.71
557.16	43105.65
557.32	42918.40
557.49	42719.46
557.65	43086.92
557.82	42586.05
557.98	42405.83
558.15	42803.72
558.32	42850.53
558.48	42808.40
558.65	42590.73
558.81	42883.30
558.98	43316.29
559.14	42543.92
559.31	42583.71
559.47	42930.11
559.64	43243.74
559.80	42871.59
559.97	43248.42
560.13	42614.13
560.30	43126.71
560.46	43952.92
560.63	43452.05
560.79	43246.08
560.96	43531.62
561.12	43370.13
561.29	43119.69
561.45	43255.44
561.61	43253.10
561.78	43171.18
561.94	43466.09
562.11	43328.00
562.27	43786.74
562.44	43086.92
562.60	43395.87
562.77	43592.48
562.93	43328.00
563.10	43784.40
563.26	43225.01
563.42	43381.83
563.59	43683.76
563.75	43573.75
563.92	43784.40
564.08	43817.17
564.24	43882.70
564.41	43878.02
564.57	43423.96
564.74	43779.72
564.90	43543.33
565.07	43917.81
565.23	43737.59
565.39	43796.10
565.56	44088.67
565.72	43573.75
565.88	43915.47
566.05	43459.07
566.21	43873.34
566.38	43737.59
566.54	43826.53
566.70	44030.16
566.87	43667.37
567.03	43639.29
567.19	44243.15
567.36	44399.96
567.52	44079.31
567.68	43871.00
567.85	43831.21
568.01	44081.65
568.17	43988.03
568.34	44179.95
568.50	44184.63
568.66	43749.29
568.83	44170.59
568.99	44580.18
569.15	44236.12
569.32	44423.37
569.48	43929.51
569.64	44477.20
569.81	44226.76
569.97	44444.43
570.13	44591.89
570.30	44327.41
570.46	44912.54
570.62	44137.82
570.78	44451.45
570.95	43924.83
571.11	44641.04
571.27	44121.44
571.43	44477.20
571.60	44538.05
571.76	44453.79
571.92	44161.23
572.09	44563.80
572.25	44179.95
572.41	44430.39
572.57	44339.11
572.74	45006.16
572.90	44170.59
573.06	44807.22
573.22	44896.16
573.38	44837.64
573.55	44584.86
573.71	44865.73
573.87	44481.88
574.03	44626.99
574.20	44516.99
574.36	44552.10
574.52	44659.76
574.68	45017.86
574.84	44900.84
575.01	44793.17
575.17	44626.99
575.33	44741.68
575.49	44247.83
575.65	44435.07
575.82	44493.58
575.98	44961.69
576.14	45109.14
576.30	45177.02
576.46	44758.06
576.62	44783.81
576.79	44582.52
576.95	44264.21
577.11	44528.69
577.27	44720.62
577.43	44524.01
577.59	44638.70
577.75	44666.78
577.92	44219.74
578.08	44521.67
578.24	45319.79
578.40	45001.48
578.56	44924.24
578.72	45013.18
578.88	44828.28
579.04	44816.58
579.21	44910.20
579.37	44772.11
579.53	45270.64
579.69	44917.22
579.85	44243.15
580.01	44797.85
580.17	44828.28
580.33	44804.88
580.49	44999.14
580.65	45027.23
580.82	44697.21
580.98	44854.03
581.14	44229.10
581.30	44891.48
581.46	44626.99
581.62	44978.07
581.78	44713.59
581.94	45083.40
582.10	44935.95
582.26	45265.96
582.42	45083.40
582.58	44821.26
582.74	44854.03
582.90	44952.33
583.06	45162.98
583.22	45198.09
583.38	45429.80
583.54	45148.93
583.70	44788.49
583.86	44832.96
584.02	45081.06
584.18	45303.41
584.34	44999.14
584.50	45247.24
584.66	45064.67
584.82	44971.05
584.98	45450.86
585.14	45277.66
585.30	44732.32
585.46	45174.68
585.62	45088.08
585.78	44924.24
585.94	44701.89
586.10	44912.54
586.26	45249.58
586.42	44690.19
586.58	44889.13
586.74	44858.71
586.90	44959.35
587.06	44825.94
587.22	45476.61
587.38	45111.49
587.54	44889.13
587.70	45415.76
587.86	45319.79
588.02	45298.73
588.18	45221.49
588.34	44818.92
588.49	45546.82
588.65	45057.65
588.81	44666.78
588.97	45603.00
589.13	45272.98
589.29	44905.52
589.45	45092.76
589.61	45146.59
589.77	45177.02
589.93	45078.72
590.08	46057.06
590.24	45815.99
590.40	45392.35
590.56	45591.30
590.72	45361.92
590.88	45235.53
591.04	44964.03
591.20	45247.24
591.35	45708.32
591.51	45535.12
591.67	45794.92
591.83	45968.12
591.99	45443.84
592.15	45317.45
592.31	45249.58
592.46	45525.76
592.62	45584.27
592.78	45696.62
592.94	45815.99
593.10	45851.09
593.26	45794.92
593.41	46188.13
593.57	45708.32
593.73	45823.01
593.89	45942.38
594.05	45986.85
594.20	45635.77
594.36	46099.19
594.52	45940.04
594.68	45703.64
594.84	45675.55
594.99	45593.64
595.15	45551.51
595.31	45528.10
595.47	45661.51
595.62	46019.61
595.78	45436.82
595.94	45865.14
596.10	45399.37
596.25	46220.90
596.41	45586.61
596.57	45757.47
596.73	45261.28
596.88	45888.54
597.04	46155.36
597.20	45986.85
597.36	45738.75
597.51	45808.96
597.67	45727.05
597.83	45535.12
597.99	46162.39
598.14	45525.76
598.30	45911.95
598.46	45820.67
598.61	46469.00
598.77	45823.01
598.93	45682.58
599.09	46113.23
599.24	46021.95
599.40	45574.91
599.56	46031.32
599.71	46190.47
599.87	46443.25
600.03	46319.20
600.18	46169.41
600.34	45806.62
600.50	45897.91
600.65	45825.35
600.81	45958.76
600.97	46171.75
601.12	45977.48
601.28	45853.44
601.44	46036.00
601.59	46316.86
601.75	45806.62
601.91	46344.95
602.06	46028.98
602.22	46328.56
602.37	45762.15
602.53	46085.15
602.69	46021.95
602.84	45942.38
603.00	45930.67
603.16	46092.17
603.31	46106.21
603.47	46485.38
603.62	45846.41
603.78	46621.13
603.94	46087.49
604.09	46092.17
604.25	45766.84
604.40	45514.06
604.56	45813.65
604.71	46361.33
604.87	45874.50
605.03	45977.48
605.18	45624.06
605.34	45935.35
605.49	45944.72
605.65	46354.31
605.80	46059.40
605.96	45642.79
606.12	45790.24
606.27	45790.24
606.43	45689.60
606.58	45867.48
606.74	45720.02
606.89	46096.85
607.05	46010.25
607.20	46021.95
607.36	45848.75
607.51	45081.06
607.67	45446.18
607.82	45333.84
607.98	45783.22
608.13	45949.40
608.29	45764.49
608.44	45481.29
608.60	45415.76
608.75	45460.23
608.91	45556.19
609.06	45478.95
609.22	45883.86
609.37	45621.72
609.53	45518.74
609.68	45628.74
609.84	45628.74
609.99	45654.49
610.15	45666.19
610.30	45851.09
610.46	45638.11
610.61	45661.51
610.76	45769.18
610.92	45745.77
611.07	45322.13
611.23	45272.98
611.38	45982.16
611.54	45610.02
611.69	45858.12
611.84	45551.51
612.00	45310.43
612.15	45354.90
612.31	45918.97
612.46	45198.09
612.62	45528.10
612.77	45446.18
612.92	45497.67
613.08	44957.01
613.23	45647.47
613.39	45336.18
613.54	44882.11
613.69	45848.75
613.85	45125.53
614.00	45652.15
614.15	45593.64
614.31	45109.14
614.46	45134.89
614.62	44732.32
614.77	45631.08
614.92	45167.66
615.08	45242.56
615.23	45151.27
615.38	45848.75
615.54	45017.86
615.69	45340.86
615.84	45460.23
616.00	45254.26
616.15	45071.70
616.30	45350.22
616.46	45338.52
616.61	44706.57
616.76	45006.16
616.92	44863.39
617.07	44879.77
617.22	44645.72
617.37	44371.88
617.53	44875.09
617.68	45029.57
617.83	44851.69
617.99	45741.09
618.14	45542.14
618.29	44835.30
618.45	44851.69
618.60	44524.01
618.75	44671.46
618.90	44786.15
619.06	44575.50
619.21	45001.48
619.36	44886.79
619.51	44694.87
619.67	43964.62
619.82	44186.97
619.97	44727.64
620.12	44795.51
620.28	44554.44
620.43	44463.16
620.58	44732.32
620.73	44608.27
620.89	44891.48
621.04	45422.78
621.19	44116.76
621.34	44790.83
621.49	44137.82
621.65	44774.45
621.80	44851.69
621.95	44598.91
622.10	44451.45
622.25	44245.49
622.41	44397.62
622.56	44250.17
622.71	44341.45
622.86	44144.84
623.01	44102.71
623.16	44285.28
623.32	44116.76
623.47	44435.07
623.62	44210.38
623.77	43962.28
623.92	44058.24
624.07	43938.88
624.23	44194.00
624.38	44493.58
624.53	44060.58
624.68	43997.39
624.83	43739.93
624.98	43658.01
625.13	43899.09
625.29	43585.46
625.44	44060.58
625.59	43688.44
625.74	44257.19
625.89	43683.76
626.04	43634.61
626.19	43749.29
626.34	43749.29
626.49	43716.53
626.65	42899.68
626.80	43686.10
626.95	43232.04
627.10	43093.94
627.25	43257.78
627.40	43232.04
627.55	43229.69
627.70	43512.90
627.85	43491.83
628.00	43168.84
628.15	43318.64
628.30	43592.48
628.45	42775.63
628.60	42993.30
628.76	43203.95
628.91	43342.04
629.06	42852.87
629.21	43349.06
629.36	43194.59
629.51	43430.98
629.66	43391.19
629.81	43119.69
629.96	42955.85
630.11	43133.73
630.26	43159.48
630.41	43260.12
630.56	42801.38
630.71	43021.39
630.86	42649.24
631.01	42630.52
631.16	43037.77
631.31	42698.39
631.46	42525.19
631.61	43475.45
631.76	43023.73
631.91	43028.41
632.06	43243.74
632.21	42672.65
632.36	43033.09
632.51	42382.42
632.66	43082.24
632.81	42579.03
632.96	42937.13
633.10	42424.55
633.25	42665.63
633.40	42440.93
633.55	42777.97
633.70	42873.93
633.85	42190.50
634.00	42436.25
634.15	42377.74
634.30	42438.59
634.45	42361.36
634.60	42164.75
634.75	42108.58
634.90	42595.41
635.05	42064.11
635.19	42314.55
635.34	42370.72
635.49	42078.15
635.64	42232.63
635.79	42298.16
635.94	42518.17
636.09	42476.04
636.24	41647.49
636.39	42260.71
636.53	42307.52
636.68	42181.13
636.83	42014.96
636.98	41649.83
637.13	41933.04
637.28	42073.47
637.43	42054.75
637.57	42160.07
637.72	41778.56
637.87	42024.32
638.02	42335.61
638.17	41661.54
638.32	41991.55
638.46	41617.07
638.61	41647.49
638.76	41418.12
638.91	42143.69
639.06	41591.32
639.20	41275.35
639.35	41223.86
639.50	41191.09
639.65	41450.89
639.80	41539.83
639.94	41741.11
640.09	41645.15
640.24	41427.48
640.39	41635.79
640.54	41448.55
640.68	41361.95
640.83	41607.70
640.98	41647.49
641.13	41053.00
641.27	41748.14
641.42	41340.88
641.57	41270.67
641.72	41265.99
641.86	40882.14
642.01	40627.02
642.16	40889.16
642.31	40559.14
642.45	41448.55
642.60	40945.33
642.75	40954.69
642.90	40917.25
643.04	41001.50
643.19	40774.47
643.34	40748.73
643.48	40383.60
643.63	40486.59
643.78	40954.69
643.93	40952.35
644.07	41134.92
644.22	40748.73
644.37	40636.38
644.51	40814.26
644.66	40760.43
644.81	40655.11
644.95	40795.54
645.10	40456.16
645.25	40362.54
645.39	40027.84
645.54	40856.39
645.69	40289.98
645.83	40226.79
645.98	40226.79
646.13	40505.31
646.27	40650.42
646.42	40032.52
646.57	40493.61
646.71	40395.31
646.86	40856.39
647.00	40416.37
647.15	40739.36
647.30	40603.61
647.44	40395.31
647.59	40081.67
647.74	40177.64
647.88	40067.63
648.03	40299.34
648.17	40650.42
648.32	40313.39
648.47	40730.00
648.61	39990.39
648.76	39959.97
648.90	39908.47
649.05	39985.71
649.20	40128.48
649.34	40198.70
649.49	40119.12
649.63	40470.20
649.78	40311.05
649.92	40566.16
650.07	40332.11
650.21	39812.51
650.36	40151.89
650.51	39777.40
650.65	39966.99
650.80	40041.88
650.94	39962.31
651.09	39974.01
651.23	39468.45
651.38	39700.17
651.52	39468.45
651.67	39447.39
651.81	39643.99
651.96	39227.38
652.10	39063.54
652.25	39068.22
652.39	39728.25
652.54	39578.46
652.68	39035.45
652.83	39157.16
652.97	39704.85
653.12	39445.05
653.26	38995.67
653.41	39239.08
653.55	39573.78
653.70	39482.50
653.84	39573.78
653.99	39536.33
654.13	39468.45
654.27	39402.92
654.42	39372.49
654.56	39007.37
654.71	39625.27
654.85	39360.79
655.00	39381.85
655.14	38953.54
655.29	39096.31
655.43	39515.26
655.57	38911.41
655.72	38651.61
655.86	38885.66
656.01	38827.15
656.15	38616.50
656.30	39213.34
656.44	38864.60
656.58	38738.21
656.73	38944.17
656.87	38653.95
657.01	38534.58
657.16	38845.87
657.30	38464.36
657.45	38604.80
657.59	38391.81
657.73	38059.45
657.88	38333.29
658.02	38749.91
658.16	38349.68
658.31	38515.86
658.45	38536.92
658.60	38455.00
658.74	38583.73
658.88	38422.23
659.03	38309.89
659.17	37963.49
659.31	37825.40
659.46	38099.24
659.60	38176.48
659.74	37825.40
659.89	37401.76
660.03	37830.08
660.17	38527.56
660.32	38129.67
660.46	38026.68
660.60	37425.17
660.74	37996.26
660.89	37699.01
661.03	37516.45
661.17	37572.62
661.32	37062.38
661.46	37469.64
661.60	37415.80
661.74	37368.99
661.89	37383.04
662.03	37488.36
662.17	36603.64
662.31	37125.58
662.46	37558.58
662.60	36884.50
662.74	36863.44
662.88	36788.54
663.03	36989.83
663.17	36765.14
663.31	36690.24
663.45	36875.14
663.60	37148.98
663.74	36940.68
663.88	37130.26
664.02	36591.94
664.17	37034.30
664.31	36547.47
664.45	36123.83
664.59	36783.86
664.73	36238.51
664.88	36224.47
665.02	36318.09
665.16	35915.52
665.30	36109.78
665.44	36266.60
665.59	35978.72
665.73	35543.38
665.87	35896.80
666.01	36091.06
666.15	35969.35
666.29	35618.27
666.44	35922.54
666.58	35718.92
666.72	35510.61
666.86	36041.91
667.00	35859.35
667.14	35440.39
667.28	35431.03
667.43	35819.56
667.57	35337.41
667.71	35325.71
667.85	35196.98
667.99	35814.88
668.13	35159.53
668.27	34810.79
668.41	34658.65
668.56	34445.66
668.70	34300.55
668.84	34735.89
668.98	34504.18
669.12	34796.74
669.26	34785.04
669.40	34487.79
669.54	34466.73
669.68	34419.92
669.82	34007.98
669.96	34071.18
670.10	34073.52
670.25	34113.31
670.39	34347.36
670.53	34354.38
670.67	34094.58
670.81	34209.27
670.95	34068.84
671.09	33816.06
671.23	33659.24
671.37	33682.65
671.51	33713.08
671.65	33418.17
671.79	33455.62
671.93	33137.30
672.07	33703.71
672.21	33034.32
672.35	33310.50
672.49	33249.65
672.63	33504.77
672.77	33109.22
672.91	33256.67
673.05	33092.83
673.19	32730.05
673.33	32685.58
673.47	32573.24
673.61	32102.79
673.75	32297.05
673.89	32381.31
674.03	32503.02
674.17	31470.84
674.31	32165.98
674.45	31833.63
674.59	32074.70
674.73	31913.20
674.87	31873.42
675.01	31611.28
675.15	31803.20
675.29	31424.03
675.43	31360.84
675.56	31730.64
675.70	31379.56
675.84	31608.93
675.98	30277.17
676.12	30965.29
676.26	31358.50
676.40	31054.23
676.54	30960.61
676.68	30866.98
676.82	30331.00
676.96	30726.55
677.10	30740.60
677.23	30513.56
677.37	30618.89
677.51	30132.06
677.65	30597.82
677.79	29745.87
677.93	30263.13
678.07	29523.52
678.21	29628.84
678.34	29621.82
678.48	29776.30
678.62	29797.36
678.76	29252.02
678.90	29242.65
679.04	29294.14
679.18	29556.28
679.31	29160.73
679.45	28966.47
679.59	28919.66
679.73	29074.13
679.87	28535.81
680.00	28914.98
680.14	28706.67
680.28	28421.13
680.42	28404.74
680.56	27915.57
680.70	28130.90
680.83	28002.17
680.97	27885.14
681.11	27840.67
681.25	27878.12
681.39	27463.85
681.52	27887.48
681.66	27559.81
681.80	27044.89
681.94	26803.82
682.07	27262.56
682.21	26941.91
682.35	26838.92
682.49	27117.45
682.62	26628.27
682.76	27321.07
682.90	26897.44
683.04	26923.18
683.17	27044.89
683.31	26356.77
683.45	26167.19
683.59	26061.87
683.72	26415.29
683.86	26080.59
684.00	26300.60
684.13	25888.67
684.27	25345.66
684.41	25975.27
684.55	25212.25
684.68	25483.75
684.82	25553.97
684.96	25219.27
685.09	25355.02
685.23	25226.29
685.37	25516.52
685.50	25659.29
685.64	25462.69
685.78	25032.03
685.91	24734.78
686.05	24369.66
686.19	24020.92
686.32	24383.70
686.46	24142.63
686.60	23988.15
686.73	24257.31
686.87	24006.87
687.01	24084.11
687.14	24231.57
687.28	23704.95
687.42	23906.23
687.55	23601.96
687.69	23803.25
687.82	23381.95
687.96	23679.20
688.10	23283.65
688.23	23070.66
688.37	23557.49
688.50	23171.30
688.64	23311.74
688.78	22780.43
688.91	22806.18
689.05	23009.81
689.18	22820.22
689.32	22340.41
689.46	22136.79
689.59	22654.05
689.73	22876.40
689.86	22539.36
690.00	22160.19
690.13	22267.86
690.27	22129.77
690.41	22066.57
690.54	21659.32
690.68	21727.19
690.81	21886.35
690.95	21488.46
691.08	21380.79
691.22	21214.62
691.35	21303.56
691.49	21315.26
691.62	21303.56
691.76	20599.05
691.89	20833.11
692.03	20711.40
692.16	20692.68
692.30	20477.35
692.43	20570.97
692.57	20322.87
692.70	20250.32
692.84	20238.61
692.97	19971.79
693.11	20217.55
693.24	19887.53
693.38	19597.31
693.51	19831.36
693.65	19700.29
693.78	19470.92
693.92	19550.49
694.05	19756.46
694.19	19286.01
694.32	19274.31
694.45	19618.37
694.59	19484.96
694.72	19641.78
694.86	19021.53
694.99	18824.93
695.13	18735.99
695.26	18771.10
695.39	18464.49
695.53	18401.29
695.66	18551.09
695.80	18389.59
695.93	18422.36
696.07	18609.60
696.20	17865.31
696.33	17816.16
696.47	17755.30
696.60	17703.81
696.73	17877.01
696.87	17963.61
697.00	17621.89
697.14	17750.62
697.27	17451.03
697.40	17720.20
697.54	17504.87
697.67	17280.18
697.80	17315.28
697.94	17275.49
698.07	17128.04
698.21	17006.33
698.34	17111.66
698.47	17008.67
698.61	16468.01
698.74	16456.31
698.87	16549.93
699.01	16297.15
699.14	16521.84
699.27	16226.93
699.40	16400.13
699.54	16126.29
699.67	16056.08
699.80	16161.40
699.94	15836.06
700.07	16170.76
700.20	15822.02
700.34	15751.81
700.47	15662.86
700.60	15831.38
700.73	15599.67
700.87	15414.77
701.00	15351.57
701.13	15129.22
701.26	15295.40
701.40	15229.87
701.53	15272.00
701.66	15145.61
701.79	14967.73
701.93	14761.76
702.06	14567.49
702.19	14738.35
702.32	14813.25
702.46	14787.50
702.59	14988.79
702.72	14675.16
702.85	14651.75
702.99	14614.30
703.12	14181.31
703.25	14413.02
703.38	14204.71
703.51	14127.47
703.65	14094.71
703.78	13818.52
703.91	13680.43
704.04	13921.51
704.17	13486.17
704.31	13565.74
704.44	13612.56
704.57	13467.44
704.70	13689.79
704.83	13528.30
704.96	13296.58
705.10	13228.71
705.23	13240.41
>>>>>End Processed Spectral Data<<<<<
