SpectraSuite Data File
++++++++++++++++++++++++++++++++++++
Date: Fri Oct 25 10:47:47 EDT 2013
User: price-jones
Dark Spectrum Present: No
Reference Spectrum Present: No
Number of Sampled Component Spectra: 1
Spectrometers: USB2+H05261
Integration Time (usec): 100000 (USB2+H05261)
Spectra Averaged: 1 (USB2+H05261)
Boxcar Smoothing: 0 (USB2+H05261)
Correct for Electrical Dark: No (USB2+H05261)
Strobe/Lamp Enabled: No (USB2+H05261)
Correct for Detector Non-linearity: No (USB2+H05261)
Correct for Stray Light: No (USB2+H05261)
Number of Pixels in Processed Spectrum: 2048
>>>>>Begin Processed Spectral Data<<<<<
365.73	91.28
365.92	91.28
366.12	91.28
366.32	28.09
366.52	23.41
366.72	0.00
366.91	44.47
367.11	0.00
367.31	32.77
367.51	102.98
367.70	0.00
367.90	77.24
368.10	0.00
368.30	30.43
368.49	0.00
368.69	79.58
368.89	14.04
369.09	81.92
369.28	88.94
369.48	84.26
369.68	107.66
369.87	65.54
370.07	131.07
370.27	121.71
370.47	149.79
370.66	386.19
370.86	365.12
371.06	463.43
371.25	465.77
371.45	437.68
371.65	447.04
371.84	418.96
372.04	500.87
372.24	514.92
372.44	482.15
372.63	526.62
372.83	461.09
373.03	477.47
373.22	561.73
373.42	594.50
373.62	543.00
373.81	526.62
374.01	610.88
374.21	580.45
374.40	519.60
374.60	613.22
374.79	545.34
374.99	578.11
375.19	388.53
375.38	566.41
375.58	456.40
375.78	603.86
375.97	510.24
376.17	603.86
376.37	620.24
376.56	545.34
376.76	564.07
376.95	608.54
377.15	596.84
377.35	636.63
377.54	573.43
377.74	657.69
377.93	624.92
378.13	599.18
378.33	601.52
378.52	603.86
378.72	613.22
378.91	629.60
379.11	697.48
379.31	645.99
379.50	624.92
379.70	594.50
379.89	683.44
380.09	617.90
380.28	650.67
380.48	669.39
380.68	638.97
380.87	624.92
381.07	678.76
381.26	641.31
381.46	695.14
381.65	664.71
381.85	648.33
382.04	674.07
382.24	669.39
382.43	692.80
382.63	674.07
382.83	688.12
383.02	727.91
383.22	753.65
383.41	622.58
383.61	741.95
383.80	784.08
384.00	779.40
384.19	751.31
384.39	718.54
384.58	664.71
384.78	753.65
384.97	709.18
385.17	844.93
385.36	678.76
385.56	716.20
385.75	692.80
385.95	823.87
386.14	819.19
386.34	777.06
386.53	835.57
386.72	746.63
386.92	793.44
387.11	812.17
387.31	898.77
387.50	823.87
387.70	802.80
387.89	844.93
388.09	798.12
388.28	826.21
388.48	873.02
388.67	826.21
388.86	837.91
389.06	849.61
389.25	931.53
389.45	866.00
389.64	856.64
389.84	971.32
390.03	938.55
390.22	922.17
390.42	964.30
390.61	894.08
390.81	976.00
391.00	938.55
391.19	931.53
391.39	933.87
391.58	922.17
391.78	961.96
391.97	938.55
392.16	912.81
392.36	973.66
392.55	1034.52
392.75	990.05
392.94	992.39
393.13	954.94
393.33	898.77
393.52	976.00
393.71	1004.09
393.91	994.73
394.10	950.26
394.29	999.41
394.49	1057.92
394.68	997.07
394.88	1071.97
395.07	1048.56
395.26	1130.48
395.46	1116.44
395.65	1114.10
395.84	1188.99
396.04	1282.61
396.23	1104.73
396.42	1100.05
396.62	1074.31
396.81	1135.16
397.00	1153.88
397.19	1210.06
397.39	1259.21
397.58	1128.14
397.77	1235.80
397.97	1296.66
398.16	1177.29
398.35	1280.27
398.55	1322.40
398.74	1275.59
398.93	1329.42
399.12	1369.21
399.32	1355.17
399.51	1430.07
399.70	1411.34
399.90	1350.49
400.09	1357.51
400.28	1462.83
400.47	1483.90
400.67	1411.34
400.86	1434.75
401.05	1448.79
401.24	1427.73
401.44	1507.30
401.63	1497.94
401.82	1577.52
402.01	1549.43
402.21	1568.16
402.40	1493.26
402.59	1500.28
402.78	1519.01
402.97	1544.75
403.17	1563.48
403.36	1626.67
403.55	1603.27
403.74	1650.08
403.93	1617.31
404.13	1732.00
404.32	1640.72
404.51	1661.78
404.70	1633.69
404.89	1659.44
405.09	1750.72
405.28	1853.70
405.47	1748.38
405.66	1713.27
405.85	1682.85
406.05	1715.61
406.24	1727.32
406.43	1797.53
406.62	1856.04
406.81	1942.64
407.00	1774.13
407.20	1792.85
407.39	1856.04
407.58	1944.99
407.77	1891.15
407.96	1989.46
408.15	1900.52
408.34	1963.71
408.54	2052.65
408.73	1956.69
408.92	2097.12
409.11	2015.20
409.30	2134.57
409.49	2146.27
409.68	2080.74
409.87	1949.67
410.07	2118.18
410.26	2129.89
410.45	2235.21
410.64	2195.42
410.83	2307.77
411.02	2174.36
411.21	2349.90
411.40	2349.90
411.59	2289.04
411.78	2246.91
411.98	2291.38
412.17	2333.51
412.36	2373.30
412.55	2448.20
412.74	2443.52
412.93	2422.45
413.12	2420.11
413.31	2504.37
413.50	2424.80
413.69	2492.67
413.88	2621.40
414.07	2597.99
414.26	2581.61
414.45	2588.63
414.64	2518.42
414.83	2630.76
415.02	2628.42
415.22	2738.43
415.41	2843.75
415.60	2736.09
415.79	2815.66
415.98	2906.95
416.17	2841.41
416.36	2902.26
416.55	2888.22
416.74	2958.44
416.93	2881.20
417.12	3021.63
417.31	2932.69
417.50	2960.78
417.69	2967.80
417.88	3009.93
418.07	3152.70
418.26	3131.64
418.45	3049.72
418.64	3234.62
418.83	3211.22
419.02	3054.40
419.21	3052.06
419.39	3279.09
419.58	3227.60
419.77	3232.28
419.96	3262.71
420.15	3194.83
420.34	3290.79
420.53	3269.73
420.72	3524.85
420.91	3524.85
421.10	3382.07
421.29	3424.20
421.48	3339.94
421.67	3466.33
421.86	3379.73
422.05	3375.05
422.24	3501.44
422.43	3440.59
422.61	3515.48
422.80	3684.00
422.99	3545.91
423.18	3398.46
423.37	3468.67
423.56	3529.53
423.75	3503.78
423.94	3506.12
424.13	3391.44
424.32	3407.82
424.50	3583.36
424.69	3618.47
424.88	3658.26
425.07	3471.01
425.26	3524.85
425.45	3564.64
425.64	3515.48
425.83	3515.48
426.01	3606.77
426.20	3681.66
426.39	3627.83
426.58	3564.64
426.77	3492.08
426.96	3581.02
427.15	3620.81
427.33	3632.51
427.52	3660.60
427.71	3887.63
427.90	3838.48
428.09	3794.01
428.28	3674.64
428.46	3911.04
428.65	3777.62
428.84	3815.07
429.03	3990.61
429.22	3772.94
429.40	3763.58
429.59	3810.39
429.78	3515.48
429.97	3599.74
430.16	3772.94
430.34	3840.82
430.53	3866.56
430.72	3768.26
430.91	3826.78
431.10	3971.89
431.28	4070.19
431.47	4032.74
431.66	4135.73
431.85	4159.13
432.03	4208.28
432.22	4269.14
432.41	4121.68
432.60	4229.35
432.79	4159.13
432.97	4266.80
433.16	4346.37
433.35	4283.18
433.54	4311.27
433.72	4114.66
433.91	4269.14
434.10	4372.12
434.28	4346.37
434.47	4400.21
434.66	4292.54
434.85	4461.06
435.03	4587.45
435.22	4444.68
435.41	4798.10
435.59	4629.58
435.78	4540.64
435.97	4620.22
436.16	4465.74
436.34	4547.66
436.53	4634.26
436.72	4741.93
436.90	4568.73
437.09	4622.56
437.28	4472.76
437.46	4645.96
437.65	4578.09
437.84	4606.17
438.02	4671.71
438.21	4758.31
438.40	4737.24
438.58	5001.72
438.77	4877.68
438.96	4954.91
439.14	5118.75
439.33	4943.21
439.52	5203.01
439.70	5224.08
439.89	5118.75
440.08	5137.48
440.26	5186.63
440.45	5121.09
440.63	5158.54
440.82	5338.76
441.01	5430.04
441.19	5423.02
441.38	5371.53
441.57	5355.15
441.75	5563.45
441.94	5584.52
442.12	5476.85
442.31	5664.10
442.50	5722.61
442.68	5591.54
442.87	5696.86
443.05	5619.63
443.24	5961.34
443.43	5781.12
443.61	5762.40
443.80	6010.50
443.98	5565.79
444.17	5640.69
444.35	5785.80
444.54	6033.90
444.73	6003.47
444.91	5837.30
445.10	5664.10
445.28	5769.42
445.47	5746.02
445.65	5762.40
445.84	6005.81
446.02	6015.18
446.21	5806.87
446.39	5799.85
446.58	5935.60
446.77	6026.88
446.95	5975.39
447.14	5921.56
447.32	6024.54
447.51	6017.52
447.69	6001.13
447.88	6108.80
448.06	5982.41
448.25	5804.53
448.43	6022.20
448.62	6223.48
448.80	5991.77
448.99	6181.35
449.17	6148.59
449.36	6036.24
449.54	6354.55
449.73	6251.57
449.91	6396.68
450.10	6382.64
450.28	6375.62
450.46	6370.94
450.65	6483.28
450.83	6321.79
451.02	6195.40
451.20	6607.33
451.39	6497.33
451.57	6246.89
451.76	6249.23
451.94	6417.75
452.13	6658.82
452.31	6384.98
452.49	6296.04
452.68	6473.92
452.86	6396.68
453.05	6689.25
453.23	6612.01
453.42	6452.86
453.60	6623.72
453.78	6597.97
453.97	6658.82
454.15	6722.02
454.34	6604.99
454.52	6834.36
454.70	6792.23
454.89	6836.70
455.07	6782.87
455.26	6918.62
455.44	6878.83
455.62	6977.14
455.81	6923.30
455.99	6958.41
456.17	7059.06
456.36	6883.52
456.54	7187.79
456.73	7131.61
456.91	7379.71
457.09	7360.98
457.28	7368.01
457.46	7194.81
457.64	7372.69
457.83	7410.14
458.01	7227.57
458.19	7510.78
458.38	7253.32
458.56	7473.33
458.74	7311.83
458.93	7545.89
459.11	7382.05
459.29	7534.18
459.48	7375.03
459.66	7527.16
459.84	7606.74
460.03	7611.42
460.21	7609.08
460.39	7808.03
460.57	7573.97
460.76	7634.83
460.94	7819.73
461.12	7606.74
461.31	7859.52
461.49	7927.39
461.67	7571.63
461.85	7981.23
462.04	7772.92
462.22	8446.99
462.40	7957.82
462.59	8173.15
462.77	8018.68
462.95	8201.24
463.13	8138.04
463.32	7913.35
463.50	8156.77
463.68	8161.45
463.86	8264.43
464.05	8208.26
464.23	8135.70
464.41	8156.77
464.59	7990.59
464.78	8138.04
464.96	8163.79
465.14	8016.33
465.32	8224.64
465.50	8292.52
465.69	8500.83
465.87	8290.18
466.05	8119.32
466.23	8414.23
466.41	8376.78
466.60	8655.30
466.78	8402.52
466.96	8400.18
467.14	8353.37
467.32	8475.08
467.51	8627.21
467.69	8388.48
467.87	8582.74
468.05	8751.26
468.23	8706.79
468.41	8461.04
468.60	8781.69
468.78	8765.31
468.96	8678.71
469.14	8652.96
469.32	8854.25
469.50	8554.66
469.69	8898.72
469.87	9036.81
470.05	8872.97
470.23	9067.24
470.41	8879.99
470.59	8950.21
470.77	9006.38
470.95	9231.07
471.14	9270.86
471.32	9060.21
471.50	9195.96
471.68	9231.07
471.86	9441.72
472.04	9401.93
472.22	9596.20
472.40	9149.15
472.58	9432.36
472.77	9481.51
472.95	9572.79
473.13	10029.20
473.31	9448.74
473.49	9593.86
473.67	9572.79
473.85	9654.71
474.03	9994.09
474.21	9827.91
474.39	9930.89
474.57	10178.99
474.75	10012.81
474.93	10207.08
475.12	10043.24
475.30	10310.06
475.48	10303.04
475.66	10452.83
475.84	10244.52
476.02	10289.00
476.20	10382.62
476.38	10373.25
476.56	10616.67
476.74	10885.83
476.92	10904.56
477.10	10871.79
477.28	10743.06
477.46	10970.09
477.64	11112.86
477.82	11281.38
478.00	11201.80
478.18	11257.98
478.36	11335.21
478.54	11754.17
478.72	11606.72
478.90	11892.26
479.08	11871.20
479.26	11988.22
479.44	11892.26
479.62	11896.94
479.80	12182.49
479.98	12343.99
480.16	12341.64
480.34	12222.28
480.52	12430.59
480.70	12592.08
480.88	12435.27
481.06	12423.56
481.24	12685.70
481.41	13032.10
481.59	13130.41
481.77	12999.34
481.95	13111.68
482.13	13418.29
482.31	13252.11
482.49	13586.81
482.67	13352.76
482.85	13834.91
483.03	13668.73
483.21	13898.10
483.39	14017.47
483.57	13895.76
483.74	14272.59
483.92	14265.57
484.10	14160.24
484.28	14499.62
484.46	14600.26
484.64	15213.48
484.82	14670.48
485.00	14841.34
485.18	15096.46
485.35	15112.84
485.53	15021.56
485.71	15047.30
485.89	15293.06
486.07	15218.16
486.25	15370.30
486.43	15529.45
486.61	15824.36
486.78	15878.19
486.96	15861.81
487.14	16224.59
487.32	16137.99
487.50	16713.77
487.68	16526.52
487.85	16996.97
488.03	16989.95
488.21	16992.29
488.39	17011.01
488.57	17338.69
488.75	17465.08
488.92	17617.21
489.10	17909.78
489.28	17729.56
489.46	17898.08
489.64	18160.22
489.81	18567.47
489.99	18654.07
490.17	18333.42
490.35	18951.32
490.53	18562.79
490.70	18796.84
490.88	18855.36
491.06	19037.92
491.24	18988.77
491.41	19119.84
491.59	19187.71
491.77	19063.66
491.95	19580.92
492.13	19627.73
492.30	19690.93
492.48	19997.54
492.66	20182.44
492.84	19913.28
493.01	20383.73
493.19	20273.72
493.37	20418.83
493.54	20734.81
493.72	20828.43
493.90	20943.11
494.08	21186.53
494.25	21205.25
494.43	21252.06
494.61	21341.00
494.79	21242.70
494.96	21542.29
495.14	21558.67
495.32	21912.10
495.49	21846.56
495.67	22045.51
495.85	21813.79
496.02	22349.78
496.20	22375.52
496.38	22181.26
496.55	22342.75
496.73	23250.88
496.91	22871.72
497.09	22838.95
497.26	23206.41
497.44	23084.70
497.62	22902.14
497.79	23491.96
497.97	23133.86
498.14	23487.28
498.32	23639.41
498.50	23901.55
498.67	24271.36
498.85	23948.36
499.03	24053.69
499.20	24016.24
499.38	23990.49
499.56	24479.66
499.73	24128.58
499.91	24615.41
500.08	24479.66
500.26	24039.64
500.44	25053.09
500.61	24891.60
500.79	24992.24
500.97	24929.05
501.14	25275.45
501.32	25385.45
501.49	25642.91
501.67	25427.58
501.84	25380.77
502.02	25500.14
502.20	25663.97
502.37	25687.38
502.55	25701.42
502.72	25685.04
502.90	26108.68
503.07	25905.05
503.25	26092.29
503.43	26120.38
503.60	26129.74
503.78	25839.51
503.95	26120.38
504.13	26457.42
504.30	26998.08
504.48	26338.05
504.65	26618.91
504.83	26979.36
505.01	27197.02
505.18	26986.38
505.36	27520.02
505.53	27398.31
505.71	27414.69
505.88	27805.56
506.06	26962.97
506.23	27580.87
506.41	27363.20
506.58	27543.42
506.76	27548.11
506.93	27967.06
507.11	27697.90
507.28	27859.40
507.46	28261.97
507.63	28252.61
507.81	28161.33
507.98	28264.31
508.16	28266.65
508.33	28170.69
508.50	28528.79
508.68	28648.16
508.85	28870.51
509.03	28589.64
509.20	29233.29
509.38	28936.04
509.55	29177.12
509.73	29249.67
509.90	29127.97
510.08	29142.01
510.25	29205.20
510.42	29778.64
510.60	29380.74
510.77	29575.01
510.95	29916.73
511.12	29862.90
511.30	29816.08
511.47	30370.79
511.64	30082.91
511.82	30590.80
511.99	30064.18
512.17	30265.47
512.34	30160.14
512.51	30331.00
512.69	30972.31
512.86	30426.96
513.04	30764.00
513.21	30801.45
513.38	30866.98
513.56	30602.50
513.73	30691.44
513.90	31131.47
514.08	30572.08
514.25	31122.10
514.43	30955.93
514.60	30756.98
514.77	30541.65
514.95	31585.53
515.12	31189.98
515.29	31459.14
515.47	31618.30
515.64	32170.66
515.81	31700.22
515.99	31576.17
516.16	31611.28
516.33	31854.69
516.51	31770.43
516.68	31716.60
516.85	31716.60
517.03	31709.58
517.20	32121.51
517.37	32147.26
517.54	32156.62
517.72	32488.98
517.89	32079.38
518.06	32294.71
518.24	32283.01
518.41	32648.13
518.58	32371.95
518.75	32369.61
518.93	32870.48
519.10	32732.39
519.27	32877.51
519.45	33088.15
519.62	33132.62
519.79	33333.91
519.96	33270.72
520.14	33247.31
520.31	33163.05
520.48	33532.86
520.65	33450.94
520.83	33479.02
521.00	33450.94
521.17	33369.02
521.34	33708.40
521.52	34040.75
521.69	33811.38
521.86	33937.77
522.03	34024.37
522.20	33968.19
522.38	34724.19
522.55	34284.17
522.72	34279.49
522.89	34522.90
523.07	34532.26
523.24	34403.53
523.41	34558.01
523.58	34644.61
523.75	35161.87
523.92	34771.00
524.10	35541.03
524.27	35180.59
524.44	35260.17
524.61	34794.40
524.78	35248.47
524.96	35379.54
525.13	35414.65
525.30	35477.84
525.47	35948.29
525.64	35536.35
525.81	35454.44
525.98	35182.93
526.16	35154.85
526.33	35683.81
526.50	35215.70
526.67	35676.79
526.84	35644.02
527.01	35903.82
527.18	35770.41
527.36	35690.83
527.53	36196.38
527.70	36292.35
527.87	36418.74
528.04	36126.17
528.21	36306.39
528.38	36301.71
528.55	36690.24
528.72	36627.04
528.89	36786.20
529.07	36884.50
529.24	36201.07
529.41	36943.02
529.58	37074.09
529.75	36671.51
529.92	37003.87
530.09	37195.79
530.26	36856.42
530.43	37071.75
530.60	36708.96
530.77	37088.13
530.94	37748.16
531.11	36896.20
531.28	37235.58
531.46	37357.29
531.63	37474.32
531.80	37078.77
531.97	37514.11
532.14	37228.56
532.31	37270.69
532.48	37490.70
532.65	37663.90
532.82	38024.34
532.99	38033.71
533.16	37509.43
533.33	37462.61
533.50	38047.75
533.67	37654.54
533.84	37926.04
534.01	37968.17
534.18	37839.44
534.35	38089.88
534.52	38227.97
534.69	38515.86
534.86	38625.86
535.03	38082.86
535.20	38239.67
535.37	38967.58
535.54	38707.78
535.71	38429.26
535.88	38621.18
536.05	38918.43
536.22	39023.75
536.38	38941.83
536.55	38897.36
536.72	38895.02
536.89	38057.11
537.06	38471.39
537.23	38937.15
537.40	38803.74
537.57	38658.63
537.74	39119.71
537.91	39257.81
538.08	39136.10
538.25	38859.91
538.42	39185.25
538.59	39281.21
538.75	38787.36
538.92	39585.48
539.09	39208.65
539.26	39110.35
539.43	39784.43
539.60	39555.05
539.77	39660.38
539.94	39641.65
540.11	38876.30
540.28	39398.24
540.44	39639.31
540.61	39746.98
540.78	39351.43
540.95	39562.08
541.12	39468.45
541.29	39849.96
541.46	39571.44
541.62	40011.46
541.79	40233.81
541.96	39667.40
542.13	40107.42
542.30	39789.11
542.47	39665.06
542.63	39901.45
542.80	40058.27
542.97	40037.20
543.14	40877.46
543.31	40886.82
543.48	40437.44
543.64	40999.16
543.81	40540.42
543.98	40456.16
544.15	40699.58
544.32	41226.20
544.48	41013.21
544.65	40910.22
544.82	41118.53
544.99	40692.55
545.16	41481.31
545.32	40732.34
545.49	40795.54
545.66	41031.93
545.83	40961.72
546.00	41345.56
546.16	41038.95
546.33	40786.18
546.50	40650.42
546.67	41277.69
546.83	40868.09
547.00	40938.31
547.17	41123.21
547.34	41209.81
547.50	41687.28
547.67	41474.29
547.84	41846.44
548.00	41846.44
548.17	42108.58
548.34	41645.15
548.51	41755.16
548.67	41586.64
548.84	41975.17
549.01	41577.28
549.18	41743.45
549.34	41652.17
549.51	41682.60
549.68	42061.77
549.84	41883.89
550.01	42546.26
550.18	41607.70
550.34	42082.83
550.51	42017.30
550.68	41918.99
550.84	41411.10
551.01	42286.46
551.18	41940.06
551.34	42270.08
551.51	42199.86
551.68	42047.72
551.84	42162.41
552.01	42349.65
552.18	42347.31
552.34	42220.92
552.51	42342.63
552.68	42106.24
552.84	42532.22
553.01	42693.71
553.18	42190.50
553.34	42241.99
553.51	42216.24
553.67	42429.23
553.84	42913.72
554.01	42773.29
554.17	43220.33
554.34	42899.68
554.51	43136.07
554.67	43264.80
554.84	42817.76
555.00	42740.52
555.17	42792.01
555.33	43093.94
555.50	42742.86
555.67	43037.77
555.83	42679.67
556.00	43196.93
556.16	43416.94
556.33	42990.96
556.50	42717.12
556.66	43494.18
556.83	43243.74
556.99	43328.00
557.16	43248.42
557.32	43379.49
557.49	43452.05
557.65	42616.47
557.82	43309.27
557.98	43110.33
558.15	43433.32
558.32	43185.22
558.48	43171.18
558.65	43288.21
558.81	43468.43
558.98	43232.04
559.14	43262.46
559.31	43236.72
559.47	43447.36
559.64	43524.60
559.80	43775.04
559.97	43524.60
560.13	43138.41
560.30	43714.19
560.46	43866.32
560.63	43571.41
560.79	43913.13
560.96	43807.81
561.12	43524.60
561.29	43821.85
561.45	43489.49
561.61	43777.38
561.78	43782.06
561.94	43903.77
562.11	43917.81
562.27	43819.51
562.44	43674.40
562.60	43763.34
562.77	43847.60
562.93	43690.78
563.10	43629.93
563.26	43838.23
563.42	44013.77
563.59	43807.81
563.75	43768.02
563.92	43882.70
564.08	44140.16
564.24	44278.25
564.41	44250.17
564.57	44065.27
564.74	44128.46
564.90	43831.21
565.07	44044.20
565.23	43763.34
565.39	44100.37
565.56	44201.02
565.72	43885.04
565.88	44289.96
566.05	44392.94
566.21	44210.38
566.38	44346.13
566.54	44051.22
566.70	44339.11
566.87	44694.87
567.03	44280.60
567.19	44392.94
567.36	44313.36
567.52	44002.07
567.68	44395.28
567.85	44526.35
568.01	44318.04
568.17	44011.43
568.34	44341.45
568.50	44282.94
568.66	44247.83
568.83	44926.58
568.99	44006.75
569.15	44299.32
569.32	44257.19
569.48	43868.66
569.64	44755.72
569.81	44369.54
569.97	44072.29
570.13	44671.46
570.30	44041.86
570.46	44147.18
570.62	43840.57
570.78	44219.74
570.95	44353.15
571.11	44222.08
571.27	43833.55
571.43	44343.79
571.60	44421.03
571.76	44304.00
571.92	44182.29
572.09	44411.67
572.25	44552.10
572.41	44151.87
572.57	44203.36
572.74	45251.92
572.90	44390.60
573.06	44201.02
573.22	44357.83
573.38	44793.17
573.55	44439.75
573.71	44973.39
573.87	44570.82
574.03	44264.21
574.20	44458.48
574.36	44449.11
574.52	44751.04
574.68	44687.85
574.84	44877.43
575.01	44531.03
575.17	44631.68
575.33	44491.24
575.49	44409.32
575.65	45006.16
575.82	45006.16
575.98	44758.06
576.14	44545.08
576.30	44519.33
576.46	44275.91
576.62	44149.53
576.79	44533.37
576.95	44306.34
577.11	44526.35
577.27	44360.17
577.43	44657.42
577.59	44737.00
577.75	44516.99
577.92	44404.64
578.08	43985.69
578.24	44559.12
578.40	44526.35
578.56	44266.55
578.72	44776.79
578.88	45228.51
579.04	44825.94
579.21	44339.11
579.37	44699.55
579.53	44479.54
579.69	44638.70
579.85	44655.08
580.01	44732.32
580.17	44924.24
580.33	44818.92
580.49	45177.02
580.65	44493.58
580.82	44491.24
580.98	44804.88
581.14	44589.55
581.30	44746.36
581.46	44975.73
581.62	44636.36
581.78	44479.54
581.94	45153.62
582.10	44942.97
582.26	44842.32
582.42	45041.27
582.58	44774.45
582.74	44666.78
582.90	44947.65
583.06	44720.62
583.22	44884.45
583.38	45109.14
583.54	44994.46
583.70	44631.68
583.86	44715.93
584.02	44655.08
584.18	44931.26
584.34	45249.58
584.50	44884.45
584.66	44751.04
584.82	44540.39
584.98	45511.72
585.14	44823.60
585.30	44933.60
585.46	44605.93
585.62	44591.89
585.78	44509.97
585.94	44610.61
586.10	44938.29
586.26	44774.45
586.42	44999.14
586.58	44603.59
586.74	45027.23
586.90	44500.61
587.06	44549.76
587.22	44802.53
587.38	44584.86
587.54	45193.40
587.70	45083.40
587.86	45205.11
588.02	44842.32
588.18	44938.29
588.34	44584.86
588.49	44339.11
588.65	44451.45
588.81	44465.50
588.97	44474.86
589.13	44678.49
589.29	44526.35
589.45	44701.89
589.61	45064.67
589.77	44856.37
589.93	45092.76
590.08	44577.84
590.24	45233.19
590.40	45319.79
590.56	44783.81
590.72	45099.78
590.88	44868.07
591.04	45324.47
591.20	45434.48
591.35	44964.03
591.51	45504.70
591.67	45497.67
591.83	44942.97
591.99	44404.64
592.15	44807.22
592.31	44811.90
592.46	44994.46
592.62	44823.60
592.78	44884.45
592.94	45614.70
593.10	44816.58
593.26	44793.17
593.41	45181.70
593.57	44978.07
593.73	44954.67
593.89	45649.81
594.05	45254.26
594.20	45062.33
594.36	45134.89
594.52	45078.72
594.68	44622.31
594.84	45155.96
594.99	45050.63
595.15	45350.22
595.31	45532.78
595.47	45280.00
595.62	44842.32
595.78	45277.66
595.94	45617.04
596.10	45490.65
596.25	45380.65
596.41	45174.68
596.57	45158.30
596.73	45223.83
596.88	45191.06
597.04	44727.64
597.20	45092.76
597.36	45631.08
597.51	45170.00
597.67	45240.21
597.83	45289.37
597.99	45256.60
598.14	45581.93
598.30	45085.74
598.46	45170.00
598.61	45167.66
598.77	45464.91
598.93	45041.27
599.09	45256.60
599.24	45563.21
599.40	45436.82
599.56	45434.48
599.71	45202.77
599.87	44980.42
600.03	45233.19
600.18	45048.29
600.34	45703.64
600.50	44975.73
600.65	45392.35
600.81	45675.55
600.97	45595.98
601.12	45808.96
601.28	45560.87
601.44	45357.24
601.59	45153.62
601.75	45338.52
601.91	45010.84
602.06	44704.23
602.22	45610.02
602.37	45450.86
602.53	45193.40
602.69	45373.63
602.84	45298.73
603.00	45251.92
603.16	45373.63
603.31	45165.32
603.47	45158.30
603.62	45237.87
603.78	45368.94
603.94	45179.36
604.09	44863.39
604.25	45745.77
604.40	45167.66
604.56	45265.96
604.71	45333.84
604.87	44980.42
605.03	45043.61
605.18	44959.35
605.34	45595.98
605.49	44596.57
605.65	45205.11
605.80	44870.41
605.96	45382.99
606.12	45666.19
606.27	45265.96
606.43	44837.64
606.58	45144.25
606.74	44994.46
606.89	44732.32
607.05	44994.46
607.20	44795.51
607.36	44940.63
607.51	45546.82
607.67	44800.19
607.82	44931.26
607.98	44966.37
608.13	44643.38
608.29	44957.01
608.44	44814.24
608.60	44325.07
608.75	44865.73
608.91	44472.52
609.06	44996.80
609.22	45111.49
609.37	44994.46
609.53	44631.68
609.68	44762.75
609.84	44839.98
609.99	44720.62
610.15	44898.50
610.30	44458.48
610.46	44568.48
610.61	44346.13
610.76	44472.52
610.92	44568.48
611.07	44662.10
611.23	44488.90
611.38	44828.28
611.54	44856.37
611.69	44727.64
611.84	44765.09
612.00	44671.46
612.15	44346.13
612.31	44526.35
612.46	44767.43
612.62	44589.55
612.77	44296.98
612.92	44889.13
613.08	44332.09
613.23	44184.63
613.39	44304.00
613.54	44664.44
613.69	44196.34
613.85	44542.74
614.00	44289.96
614.15	44371.88
614.31	44278.25
614.46	44868.07
614.62	44247.83
614.77	44119.10
614.92	44247.83
615.08	43569.07
615.23	44502.95
615.38	44224.42
615.54	44041.86
615.69	44102.71
615.84	43929.51
616.00	44105.06
616.15	44039.52
616.30	44203.36
616.46	43892.07
616.61	43866.32
616.76	44009.09
616.92	43845.26
617.07	44081.65
617.22	43749.29
617.37	43950.58
617.53	44023.14
617.68	43999.73
617.83	43718.87
617.99	44165.91
618.14	44140.16
618.29	43889.73
618.45	43482.47
618.60	43739.93
618.75	43545.67
618.90	43817.17
619.06	43800.79
619.21	43648.65
619.36	43803.13
619.51	44086.33
619.67	43409.92
619.82	43653.33
619.97	43992.71
620.12	42869.25
620.28	42993.30
620.43	43477.79
620.58	43440.34
620.73	43325.66
620.89	43470.77
621.04	43770.36
621.19	43236.72
621.34	42864.57
621.49	42988.62
621.65	43100.97
621.80	43147.78
621.95	42618.81
622.10	43227.35
622.25	42986.28
622.41	42337.95
622.56	42768.61
622.71	43313.95
622.86	42628.18
623.01	43026.07
623.16	43213.31
623.32	43299.91
623.47	43140.75
623.62	43042.45
623.77	42857.55
623.92	42916.06
624.07	42665.63
624.23	42897.34
624.38	42674.99
624.53	42806.06
624.68	42632.86
624.83	42934.79
624.98	43049.47
625.13	42740.52
625.29	42679.67
625.44	42895.00
625.59	42246.67
625.74	42328.59
625.89	42012.62
626.04	42061.77
626.19	42330.93
626.34	42890.32
626.49	42792.01
626.65	42557.96
626.80	42593.07
626.95	42103.90
627.10	41766.86
627.25	42218.58
627.40	41933.04
627.55	41780.90
627.70	41553.87
627.85	42024.32
628.00	42323.91
628.15	42209.22
628.30	42057.09
628.45	42277.10
628.60	41996.23
628.76	42389.44
628.91	42038.36
629.06	41944.74
629.21	41848.78
629.36	41888.57
629.51	41380.67
629.66	41787.92
629.81	41455.57
629.96	41668.56
630.11	42213.90
630.26	42220.92
630.41	42012.62
630.56	41570.25
630.71	41811.33
630.86	41076.40
631.01	41273.01
631.16	41598.34
631.31	41191.09
631.46	41165.34
631.61	41207.47
631.76	41324.50
631.91	41691.96
632.06	41572.60
632.21	41801.97
632.36	41600.68
632.51	41366.63
632.66	41596.00
632.81	40811.92
632.96	41158.32
633.10	41111.51
633.25	41024.91
633.40	41165.34
633.55	41621.75
633.70	41275.35
633.85	40875.12
634.00	41418.12
634.15	41013.21
634.30	41170.02
634.45	41310.46
634.60	40781.49
634.75	40781.49
634.90	41111.51
635.05	40973.42
635.19	41268.33
635.34	41617.07
635.49	40725.32
635.64	41237.90
635.79	40449.14
635.94	41085.76
636.09	40718.30
636.24	40589.57
636.39	40514.67
636.53	40369.56
636.68	40304.02
636.83	40577.87
636.98	40411.69
637.13	40671.49
637.28	40907.88
637.43	40378.92
637.57	40531.06
637.72	40289.98
637.87	40275.94
638.02	40287.64
638.17	40821.28
638.32	40158.91
638.46	39814.85
638.61	39999.76
638.76	39955.29
638.91	40130.83
639.06	40477.22
639.20	40074.65
639.35	40535.74
639.50	40074.65
639.65	40467.86
639.80	40774.47
639.94	40016.14
640.09	39700.17
640.24	39859.32
640.39	39864.00
640.54	39569.10
640.68	40011.46
640.83	39723.57
640.98	39466.11
641.13	39725.91
641.27	40156.57
641.42	39901.45
641.57	39812.51
641.72	39981.03
641.86	39866.34
642.01	39538.67
642.16	40004.44
642.31	39555.05
642.45	39648.68
642.60	39419.30
642.75	39653.36
642.90	39189.93
643.04	39700.17
643.19	39402.92
643.34	39157.16
643.48	39580.80
643.63	39529.31
643.78	39391.22
643.93	39009.71
644.07	39028.43
644.22	38909.07
644.37	39531.65
644.51	38824.81
644.66	39063.54
644.81	39288.23
644.95	39318.66
645.10	39477.82
645.25	39206.31
645.39	39206.31
645.54	38960.56
645.69	39344.41
645.83	38923.11
645.98	38916.09
646.13	39143.12
646.27	39103.33
646.42	38590.75
646.57	38899.70
646.71	38728.84
646.86	39313.98
647.00	38733.53
647.15	39622.93
647.30	39061.20
647.44	38962.90
647.59	38981.62
647.74	38820.13
647.88	38857.57
648.03	38391.81
648.17	38719.48
648.32	38321.59
648.47	38478.41
648.61	38494.79
648.76	38717.14
648.90	38799.06
649.05	38265.42
649.20	38698.42
649.34	38211.59
649.49	38230.31
649.63	38328.61
649.78	38593.09
649.92	38295.85
650.07	38595.43
650.21	38349.68
650.36	38583.73
650.51	38122.65
650.65	38532.24
650.80	39089.29
650.94	38569.69
651.09	38309.89
651.23	38426.92
651.38	38270.10
651.52	38185.84
651.67	38043.07
651.81	38347.34
651.96	38101.58
652.10	37912.00
652.25	37280.05
652.39	37696.67
652.54	38305.21
652.68	38103.92
652.83	38162.43
652.97	37930.72
653.12	38354.36
653.26	37862.85
653.41	37794.97
653.55	37748.16
653.70	37518.79
653.84	37345.59
653.99	38143.71
654.13	37722.41
654.27	37787.95
654.42	37521.13
654.56	37743.48
654.71	37474.32
654.85	37301.12
655.00	37406.44
655.14	37127.92
655.29	37390.06
655.43	37471.98
655.57	36868.12
655.72	36877.48
655.86	36968.76
656.01	37258.99
656.15	36886.84
656.30	37352.61
656.44	37184.09
656.58	37146.64
656.73	36737.05
656.87	36884.50
657.01	37010.89
657.16	37214.52
657.30	36725.35
657.45	36825.99
657.59	36980.46
657.73	36776.84
657.88	37020.25
658.02	37095.15
658.16	36664.49
658.31	37254.31
658.45	36563.85
658.60	36863.44
658.74	37092.81
658.88	36463.21
659.03	36275.96
659.17	36566.19
659.31	36430.44
659.46	36477.25
659.60	36194.04
659.74	36222.13
659.89	36362.56
660.03	36446.82
660.17	36697.26
660.32	36187.02
660.46	36627.04
660.60	36769.82
660.74	36280.64
660.89	36313.41
661.03	35810.20
661.17	36044.25
661.32	35676.79
661.46	35639.34
661.60	35496.56
661.74	35779.77
661.89	35697.85
662.03	35833.60
662.17	35494.22
662.31	35264.85
662.46	35906.16
662.60	35754.02
662.74	35688.49
662.88	35126.76
663.03	35332.73
663.17	35222.72
663.31	35033.14
663.45	34948.88
663.60	35089.31
663.74	34658.65
663.88	34941.86
664.02	34546.31
664.17	35393.58
664.31	34651.63
664.45	34939.52
664.59	34810.79
664.73	34675.04
664.88	34588.44
665.02	34696.10
665.16	34281.83
665.30	34717.17
665.44	34298.21
665.59	34185.86
665.73	34466.73
665.87	33930.75
666.01	34239.70
666.15	33944.79
666.29	34263.10
666.44	34534.60
666.58	34239.70
666.72	34382.47
666.86	34382.47
667.00	34298.21
667.14	33846.49
667.28	34066.50
667.43	33830.10
667.57	33926.07
667.71	33879.25
667.85	33434.55
667.99	33701.37
668.13	33666.27
668.27	33593.71
668.41	33682.65
668.56	33298.80
668.70	33579.67
668.84	33411.15
668.98	33172.41
669.12	33427.53
669.26	33001.55
669.40	32914.95
669.54	33092.83
669.68	33209.86
669.82	33003.89
669.96	33223.90
670.10	32823.67
670.25	33172.41
670.39	32701.96
670.53	32690.26
670.67	32657.49
670.81	32547.49
670.95	32598.98
671.09	32402.38
671.23	32739.41
671.37	32741.75
671.51	32547.49
671.65	32510.04
671.79	32271.31
671.93	32088.74
672.07	32173.00
672.21	32133.21
672.35	32243.22
672.49	31955.33
672.63	31943.63
672.77	32051.30
672.91	31873.42
673.05	31765.75
673.19	31599.57
673.33	31562.12
673.47	31534.04
673.61	31440.42
673.75	31339.77
673.89	31133.81
674.03	31028.48
674.17	30932.52
674.31	31110.40
674.45	30904.43
674.59	31168.91
674.73	31208.70
674.87	31131.47
675.01	31215.72
675.15	31094.02
675.29	30958.27
675.43	30405.90
675.56	30642.29
675.70	30284.19
675.84	30192.91
675.98	29401.81
676.12	30129.72
676.26	29972.90
676.40	30080.56
676.54	29940.13
676.68	29764.59
676.82	29345.64
676.96	29846.51
677.10	29465.00
677.23	29315.21
677.37	29624.16
677.51	29399.47
677.65	29514.16
677.79	29118.60
677.93	28926.68
678.07	28877.53
678.21	28900.94
678.34	28559.22
678.48	28407.08
678.62	28556.88
678.76	28381.34
678.90	28381.34
679.04	28692.63
679.18	28568.58
679.31	28013.87
679.45	27978.76
679.59	27573.85
679.73	27798.54
679.87	28077.07
680.00	27634.71
680.14	27524.70
680.28	27564.49
680.42	27473.21
680.56	27700.24
680.70	27211.07
680.83	27292.99
680.97	27300.01
681.11	27056.59
681.25	26794.45
681.39	27222.77
681.52	27353.84
681.66	26782.75
681.80	26857.65
681.94	26499.55
682.07	26679.77
682.21	26614.23
682.35	26417.63
682.49	26464.44
682.62	26338.05
682.76	26230.38
682.90	25909.73
683.04	26068.89
683.17	26160.17
683.31	25689.72
683.45	25652.27
683.59	25596.10
683.72	25584.40
683.86	25528.22
684.00	25090.54
684.13	25525.88
684.27	25465.03
684.41	25261.40
684.55	24905.64
684.68	24858.83
684.82	24343.91
684.96	24812.02
685.09	24280.72
685.23	24264.33
685.37	24393.06
685.50	24477.32
685.64	24327.53
685.78	24498.39
685.91	24582.65
686.05	24231.57
686.19	23946.02
686.32	24184.76
686.46	23726.01
686.60	23278.97
686.73	23503.66
686.87	23484.94
687.01	23419.40
687.14	23339.82
687.28	23255.56
687.42	23122.15
687.55	22794.48
687.69	23211.09
687.82	22843.63
687.96	22867.03
688.10	22984.06
688.23	22576.81
688.37	22742.99
688.50	22019.76
688.64	22555.74
688.78	22122.74
688.91	22251.47
689.05	22097.00
689.18	21907.41
689.32	21867.63
689.46	22085.30
689.59	22012.74
689.73	22324.03
689.86	22073.59
690.00	21516.54
690.13	21820.81
690.27	21748.26
690.41	21598.46
690.54	21048.44
690.68	21191.21
690.81	21111.63
690.95	21139.72
691.08	21071.84
691.22	20987.58
691.35	21181.85
691.49	21097.59
691.62	20830.77
691.76	21013.33
691.89	20662.25
692.03	20402.45
692.16	20247.97
692.30	20210.53
692.43	20517.14
692.57	20060.73
692.70	20105.20
692.84	20027.96
692.97	20088.82
693.11	19784.55
693.24	19857.10
693.38	19946.05
693.51	19449.85
693.65	19300.06
693.78	19381.98
693.92	19152.60
694.05	19372.61
694.19	19108.13
694.32	19047.28
694.45	19234.52
694.59	19080.05
694.72	19089.41
694.86	18925.57
694.99	18422.36
695.13	18532.36
695.26	18473.85
695.39	18434.06
695.53	18443.42
695.66	18305.33
695.80	18295.97
695.93	18223.41
696.07	18024.47
696.20	18412.99
696.33	18235.11
696.47	17759.98
696.60	18190.64
696.73	17895.74
696.87	17600.83
697.00	17736.58
697.14	17525.93
697.27	17565.72
697.40	17392.52
697.54	17605.51
697.67	16989.95
697.80	17177.19
697.94	17273.15
698.07	17263.79
698.21	17308.26
698.34	17238.05
698.47	17081.23
698.61	16212.89
698.74	16573.33
698.87	16538.23
699.01	16578.01
699.14	16690.36
699.27	16332.26
699.40	16257.36
699.54	16374.39
699.67	16027.99
699.80	16070.12
699.94	16130.97
700.07	16119.27
700.20	15864.15
700.34	15829.04
700.47	15927.35
700.60	15861.81
700.73	15786.91
700.87	15822.02
701.00	15660.52
701.13	15569.24
701.26	15484.98
701.40	15442.85
701.53	15370.30
701.66	15190.08
701.79	15044.96
701.93	14820.27
702.06	15126.88
702.19	14766.44
702.32	15154.97
702.46	14794.53
702.59	14979.43
702.72	14862.40
702.85	14934.96
702.99	14677.50
703.12	14668.14
703.25	14831.97
703.38	14637.71
703.51	14200.03
703.65	14155.56
703.78	14448.13
703.91	14424.72
704.04	14106.41
704.17	13867.67
704.31	13947.25
704.44	13706.18
704.57	13586.81
704.70	13547.02
704.83	13745.97
704.96	14017.47
705.10	13905.12
705.23	13909.80
>>>>>End Processed Spectral Data<<<<<
