SpectraSuite Data File
++++++++++++++++++++++++++++++++++++
Date: Fri Oct 25 10:48:34 EDT 2013
User: price-jones
Dark Spectrum Present: No
Reference Spectrum Present: No
Number of Sampled Component Spectra: 1
Spectrometers: USB2+H05261
Integration Time (usec): 100000 (USB2+H05261)
Spectra Averaged: 1 (USB2+H05261)
Boxcar Smoothing: 0 (USB2+H05261)
Correct for Electrical Dark: No (USB2+H05261)
Strobe/Lamp Enabled: No (USB2+H05261)
Correct for Detector Non-linearity: No (USB2+H05261)
Correct for Stray Light: No (USB2+H05261)
Number of Pixels in Processed Spectrum: 2048
>>>>>Begin Processed Spectral Data<<<<<
365.73	227.03
365.92	227.03
366.12	227.03
366.32	46.81
366.52	51.49
366.72	21.06
366.91	100.64
367.11	63.19
367.31	16.38
367.51	23.41
367.70	16.38
367.90	91.28
368.10	49.15
368.30	67.88
368.49	35.11
368.69	0.00
368.89	65.54
369.09	107.66
369.28	49.15
369.48	30.43
369.68	0.00
369.87	84.26
370.07	65.54
370.27	147.45
370.47	173.20
370.66	386.19
370.86	470.45
371.06	505.56
371.25	538.32
371.45	484.49
371.65	564.07
371.84	533.64
372.04	519.60
372.24	493.85
372.44	543.00
372.63	507.90
372.83	571.09
373.03	437.68
373.22	599.18
373.42	603.86
373.62	578.11
373.81	505.56
374.01	634.29
374.21	643.65
374.40	561.73
374.60	601.52
374.79	531.30
374.99	568.75
375.19	657.69
375.38	624.92
375.58	697.48
375.78	704.50
375.97	631.94
376.17	683.44
376.37	664.71
376.56	676.41
376.76	624.92
376.95	669.39
377.15	699.82
377.35	727.91
377.54	737.27
377.74	589.82
377.93	674.07
378.13	753.65
378.33	718.54
378.52	681.10
378.72	716.20
378.91	676.41
379.11	711.52
379.31	690.46
379.50	737.27
379.70	706.84
379.89	748.97
380.09	753.65
380.28	748.97
380.48	760.67
380.68	723.23
380.87	727.91
381.07	784.08
381.26	798.12
381.46	763.01
381.65	746.63
381.85	758.33
382.04	800.46
382.24	678.76
382.43	685.78
382.63	770.04
382.83	709.18
383.02	786.42
383.22	858.98
383.41	709.18
383.61	746.63
383.80	765.36
384.00	758.33
384.19	753.65
384.39	908.13
384.58	880.04
384.78	837.91
384.97	858.98
385.17	898.77
385.36	861.32
385.56	849.61
385.75	868.34
385.95	889.40
386.14	903.45
386.34	858.98
386.53	933.87
386.72	887.06
386.92	940.90
387.11	917.49
387.31	875.36
387.50	809.83
387.70	896.43
387.89	926.85
388.09	926.85
388.28	924.51
388.48	861.32
388.67	966.64
388.86	990.05
389.06	1018.13
389.25	973.66
389.45	1071.97
389.64	952.60
389.84	1083.67
390.03	1156.22
390.22	1013.45
390.42	1076.65
390.61	1050.90
390.81	1135.16
391.00	1062.60
391.19	1125.80
391.39	1004.09
391.58	1076.65
391.78	1097.71
391.97	1151.54
392.16	1086.01
392.36	1104.73
392.55	1116.44
392.75	1060.26
392.94	1055.58
393.13	1078.99
393.33	1011.11
393.52	1025.15
393.71	1132.82
393.91	1296.66
394.10	1130.48
394.29	1163.25
394.49	1233.46
394.68	1275.59
394.88	1247.51
395.07	1313.04
395.26	1310.70
395.46	1270.91
395.65	1294.32
395.84	1238.14
396.04	1324.74
396.23	1261.55
396.42	1256.87
396.62	1331.76
396.81	1217.08
397.00	1235.80
397.19	1289.64
397.39	1322.40
397.58	1476.88
397.77	1355.17
397.97	1556.46
398.16	1516.67
398.35	1617.31
398.55	1523.69
398.74	1540.07
398.93	1687.53
399.12	1537.73
399.32	1502.62
399.51	1610.29
399.70	1619.65
399.90	1621.99
400.09	1673.48
400.28	1799.87
400.47	1699.23
400.67	1853.70
400.86	1769.44
401.05	1720.29
401.24	1694.55
401.44	1764.76
401.63	1870.09
401.82	1802.21
402.01	1729.66
402.21	1837.32
402.40	1818.60
402.59	1792.85
402.78	1809.23
402.97	1818.60
403.17	1795.19
403.36	1834.98
403.55	1874.77
403.74	1891.15
403.93	1975.41
404.13	1930.94
404.32	1907.54
404.51	1881.79
404.70	1926.26
404.89	2031.58
405.09	2040.95
405.28	2139.25
405.47	2099.46
405.66	2057.33
405.85	1937.96
406.05	2106.48
406.24	2073.71
406.43	2228.19
406.62	2003.50
406.81	2179.04
407.00	2200.10
407.20	2155.63
407.39	2188.40
407.58	2237.55
407.77	2305.43
407.96	2317.13
408.15	2394.37
408.34	2326.49
408.54	2373.30
408.73	2342.88
408.92	2396.71
409.11	2373.30
409.30	2506.71
409.49	2368.62
409.68	2525.44
409.87	2452.88
410.07	2469.27
410.26	2427.14
410.45	2429.48
410.64	2523.10
410.83	2768.85
411.02	2588.63
411.21	2708.00
411.40	2642.46
411.59	2815.66
411.78	2656.51
411.98	2558.21
412.17	2832.05
412.36	2766.51
412.55	2822.69
412.74	2789.92
412.93	2820.35
413.12	2759.49
413.31	2902.26
413.50	2949.08
413.69	2846.09
413.88	3077.80
414.07	3141.00
414.26	3101.21
414.45	3173.77
414.64	3035.67
414.83	3192.49
415.02	3197.17
415.22	3187.81
415.41	3208.87
415.60	3274.41
415.79	3330.58
415.98	3368.03
416.17	3328.24
416.36	3417.18
416.55	3361.01
416.74	3318.88
416.93	3403.14
417.12	3433.57
417.31	3468.67
417.50	3440.59
417.69	3524.85
417.88	3503.78
418.07	3529.53
418.26	3552.93
418.45	3562.30
418.64	3641.87
418.83	3609.11
419.02	3658.26
419.21	3742.52
419.39	3599.74
419.58	3733.15
419.77	3698.05
419.96	3819.75
420.15	3889.97
420.34	3866.56
420.53	3845.50
420.72	3915.72
420.91	4021.04
421.10	4070.19
421.29	3990.61
421.48	3882.95
421.67	4016.36
421.86	3985.93
422.05	3983.59
422.24	3833.80
422.43	4086.58
422.61	4058.49
422.80	3985.93
422.99	4044.45
423.18	4093.60
423.37	4016.36
423.56	4175.52
423.75	4039.76
423.94	3990.61
424.13	3847.84
424.32	3943.80
424.50	4182.54
424.69	4231.69
424.88	4131.05
425.07	4112.32
425.26	4053.81
425.45	3999.98
425.64	4002.32
425.83	4077.21
426.01	4245.73
426.20	4142.75
426.39	4189.56
426.58	4074.87
426.77	3960.19
426.96	4138.07
427.15	4451.70
427.33	4173.18
427.52	4255.09
427.71	4292.54
427.90	4241.05
428.09	4231.69
428.28	4301.90
428.46	4264.46
428.65	4416.59
428.84	4458.72
429.03	4500.85
429.22	4163.81
429.40	4337.01
429.59	4510.21
429.78	4091.26
429.97	4051.47
430.16	4187.22
430.34	4231.69
430.53	4332.33
430.72	4437.66
430.91	4400.21
431.10	4411.91
431.28	4606.17
431.47	4788.74
431.66	4922.15
431.85	4844.91
432.03	4805.12
432.22	4873.00
432.41	4795.76
432.60	4751.29
432.79	4856.61
432.97	4964.28
433.16	4884.70
433.35	4837.89
433.54	4924.49
433.72	4788.74
433.91	4802.78
434.10	5102.37
434.28	4788.74
434.47	5034.49
434.66	5088.32
434.85	4961.94
435.03	5142.16
435.22	5200.67
435.41	5273.23
435.59	5287.27
435.78	5327.06
435.97	5294.29
436.16	5348.12
436.34	5135.14
436.53	5390.25
436.72	5432.38
436.90	5270.89
437.09	5378.55
437.28	5270.89
437.46	5270.89
437.65	5303.65
437.84	5404.30
438.02	5378.55
438.21	5392.59
438.40	5329.40
438.58	5504.94
438.77	5631.33
438.96	5636.01
439.14	5722.61
439.33	5900.49
439.52	5783.46
439.70	5816.23
439.89	5982.41
440.08	6005.81
440.26	5874.74
440.45	6059.65
440.63	6218.80
440.82	6132.20
441.01	6150.93
441.19	6230.51
441.38	6169.65
441.57	6209.44
441.75	6368.60
441.94	6492.65
442.12	6612.01
442.31	6621.38
442.50	6616.69
442.68	6642.44
442.87	6574.56
443.05	6651.80
443.24	6612.01
443.43	6548.82
443.61	6731.38
443.80	6647.12
443.98	6534.78
444.17	6368.60
444.35	6850.75
444.54	6862.45
444.73	6806.28
444.91	6848.41
445.10	6703.29
445.28	6525.41
445.47	6679.89
445.65	6518.39
445.84	6635.42
446.02	6899.90
446.21	6750.10
446.39	6640.10
446.58	6991.18
446.77	6827.34
446.95	6768.83
447.14	7040.33
447.32	6958.41
447.51	6965.43
447.69	6953.73
447.88	7014.59
448.06	7040.33
448.25	6806.28
448.43	7009.90
448.62	7056.72
448.80	6773.51
448.99	6967.77
449.17	7028.63
449.36	7030.97
449.54	7136.29
449.73	7302.47
449.91	7262.68
450.10	7398.43
450.28	7365.67
450.46	7346.94
450.65	7604.40
450.83	7578.65
451.02	7461.63
451.20	7531.84
451.39	7576.31
451.57	7389.07
451.76	7440.56
451.94	7588.02
452.13	7445.24
452.31	7353.96
452.49	7426.52
452.68	7651.21
452.86	7468.65
453.05	7375.03
453.23	7901.65
453.42	7627.81
453.60	7744.83
453.78	7754.19
453.97	7538.87
454.15	7644.19
454.34	7674.62
454.52	7775.26
454.70	7878.24
454.89	7737.81
455.07	7955.48
455.26	7735.47
455.44	8060.80
455.62	8116.98
455.81	7995.27
455.99	8030.38
456.17	8423.59
456.36	8163.79
456.54	8292.52
456.73	8198.90
456.91	8458.70
457.09	8468.06
457.28	8519.55
457.46	8313.58
457.64	8528.91
457.83	8397.84
458.01	8315.92
458.19	8203.58
458.38	8304.22
458.56	8837.86
458.74	8461.04
458.93	8336.99
459.11	8393.16
459.29	8713.81
459.48	8510.19
459.66	8648.28
459.84	8779.35
460.03	8645.94
460.21	8725.52
460.39	8769.99
460.57	8681.05
460.76	8959.57
460.94	8849.57
461.12	8870.63
461.31	8919.78
461.49	8772.33
461.67	9137.45
461.85	9312.99
462.04	8898.72
462.22	9493.21
462.40	9240.44
462.59	9181.92
462.77	9205.33
462.95	9231.07
463.13	9296.61
463.32	9312.99
463.50	9287.25
463.68	9343.42
463.86	9249.80
464.05	9217.03
464.23	9200.65
464.41	9137.45
464.59	9170.22
464.78	9504.92
464.96	9549.39
465.14	9233.41
465.32	9628.96
465.50	9612.58
465.69	9753.01
465.87	9387.89
466.05	9661.73
466.23	9355.12
466.41	9444.06
466.60	9708.54
466.78	9561.09
466.96	9242.78
467.14	9678.12
467.32	9635.99
467.51	9858.34
467.69	9530.66
467.87	9689.82
468.05	9912.17
468.23	9745.99
468.41	9905.15
468.60	9888.76
468.78	9898.13
468.96	9963.66
469.14	10008.13
469.32	10097.07
469.50	9940.26
469.69	9975.36
469.87	10171.97
470.05	10251.55
470.23	10216.44
470.41	10347.51
470.59	10108.77
470.77	10373.25
470.95	10368.57
471.14	10518.37
471.32	10338.15
471.50	10534.75
471.68	10705.61
471.86	10949.03
472.04	10700.93
472.22	10906.90
472.40	10792.21
472.58	10824.98
472.77	10602.63
472.95	10740.72
473.13	11452.24
473.31	10902.22
473.49	10785.19
473.67	11040.31
473.85	10846.04
474.03	11316.49
474.21	11066.05
474.39	11255.64
474.57	11424.15
474.75	11506.07
474.93	11653.53
475.12	11597.35
475.30	11779.92
475.48	11756.51
475.66	11751.83
475.84	11655.87
476.02	11740.13
476.20	11749.49
476.38	11896.94
476.56	12203.55
476.74	12112.27
476.92	12126.32
477.10	12241.00
477.28	12362.71
477.46	12472.71
477.64	12627.19
477.82	12748.90
478.00	12996.99
478.18	12908.05
478.36	13132.75
478.54	13088.28
478.72	13181.90
478.90	13369.14
479.08	13312.97
479.26	13460.42
479.44	13404.25
479.62	13633.62
479.80	13635.96
479.98	13872.36
480.16	14141.52
480.34	14071.30
480.52	14314.72
480.70	14431.74
480.88	14291.31
481.06	14363.87
481.24	14370.89
481.41	14665.80
481.59	14888.15
481.77	14583.88
481.95	14925.60
482.13	15101.14
482.31	15183.06
482.49	15503.71
482.67	15571.58
482.85	15197.10
483.03	15543.50
483.21	15896.92
483.39	15967.13
483.57	15768.19
483.74	16224.59
483.92	16027.99
484.10	16128.63
484.28	16341.62
484.46	16950.16
484.64	16538.23
484.82	16563.97
485.00	16833.13
485.18	16905.69
485.35	16952.50
485.53	16545.25
485.71	16830.79
485.89	17029.74
486.07	16702.06
486.25	17200.60
486.43	17343.37
486.61	17465.08
486.78	17781.05
486.96	17841.90
487.14	18134.47
487.32	18214.05
487.50	18347.46
487.68	18714.92
487.85	19014.51
488.03	19119.84
488.21	19374.95
488.39	19199.41
488.57	19147.92
488.75	19620.71
488.92	19761.14
489.10	20095.84
489.28	20095.84
489.46	20306.49
489.64	20439.90
489.81	20905.66
489.99	20823.75
490.17	21018.01
490.35	21062.48
490.53	20884.60
490.70	21406.54
490.88	21209.93
491.06	21387.82
491.24	21261.43
491.41	21678.04
491.59	21666.34
491.77	21671.02
491.95	21994.01
492.13	22008.06
492.30	22412.97
492.48	22499.57
492.66	22284.24
492.84	22494.89
493.01	22953.63
493.19	22710.22
493.37	23040.23
493.54	23281.31
493.72	23260.24
493.90	23421.74
494.08	23454.51
494.25	24079.43
494.43	24374.34
494.61	24194.12
494.79	24290.08
494.96	24266.67
495.14	24233.91
495.32	24528.81
495.49	24388.38
495.67	24638.82
495.85	24900.96
496.02	25088.20
496.20	25025.01
496.38	25268.42
496.55	25380.77
496.73	25663.97
496.91	25619.50
497.09	25743.55
497.26	25844.20
497.44	26099.31
497.62	25858.24
497.79	26314.64
497.97	25734.19
498.14	26586.15
498.32	26408.26
498.50	26188.25
498.67	26845.94
498.85	26867.01
499.03	27182.98
499.20	27391.29
499.38	27178.30
499.56	27398.31
499.73	27297.67
499.91	27145.53
500.08	27122.13
500.26	27669.81
500.44	27681.52
500.61	27360.86
500.79	27520.02
500.97	27964.72
501.14	28102.81
501.32	28102.81
501.49	28180.05
501.67	28348.57
501.84	28474.96
502.02	28252.61
502.20	28608.37
502.37	28254.95
502.55	28636.45
502.72	28849.44
502.90	28917.32
503.07	28971.15
503.25	28936.04
503.43	28938.38
503.60	29048.39
503.78	29177.12
503.95	29254.36
504.13	29626.50
504.30	29486.07
504.48	29294.14
504.65	30146.10
504.83	29802.04
505.01	29965.88
505.18	29879.28
505.36	30651.66
505.53	30441.01
505.71	30953.58
505.88	30665.70
506.06	30356.75
506.23	30602.50
506.41	30504.20
506.58	30810.81
506.76	30679.74
506.93	30845.92
507.11	30787.41
507.28	31206.36
507.46	30822.51
507.63	30925.50
507.81	31150.19
507.98	31014.44
508.16	31491.91
508.33	31765.75
508.50	31782.13
508.68	31800.86
508.85	32271.31
509.03	32055.98
509.20	31641.70
509.38	32229.18
509.55	32397.70
509.73	32088.74
509.90	32053.64
510.08	31803.20
510.25	32311.10
510.42	32692.60
510.60	32844.74
510.77	32858.78
510.95	33228.59
511.12	32533.45
511.30	33015.60
511.47	33352.63
511.64	33141.99
511.82	33652.22
511.99	33153.69
512.17	33170.07
512.34	33399.44
512.51	33628.82
512.69	34066.50
512.86	33956.49
513.04	34298.21
513.21	34256.08
513.38	33799.68
513.56	33954.15
513.73	33706.05
513.90	33778.61
514.08	34321.62
514.25	34658.65
514.43	34450.35
514.60	34188.21
514.77	34546.31
514.95	34892.71
515.12	34469.07
515.29	34668.02
515.47	34773.34
515.64	35026.12
515.81	34857.60
515.99	34651.63
516.16	35103.35
516.33	34735.89
516.51	34913.77
516.68	34433.96
516.85	34227.99
517.03	34824.83
517.20	35164.21
517.37	35777.43
517.54	35637.00
517.72	34967.60
517.89	35115.06
518.06	35154.85
518.24	35136.12
518.41	35356.13
518.58	35271.87
518.75	35545.72
518.93	36212.77
519.10	36088.72
519.27	36165.96
519.45	35627.63
519.62	36641.09
519.79	36187.02
519.96	36332.14
520.14	36378.95
520.31	36538.10
520.48	36840.03
520.65	36669.17
520.83	37003.87
521.00	36690.24
521.17	36603.64
521.34	36966.42
521.52	37331.54
521.69	37333.89
521.86	37418.14
522.03	37509.43
522.20	37291.76
522.38	37198.13
522.55	37794.97
522.72	37151.32
522.89	37422.83
523.07	38061.79
523.24	37614.75
523.41	38099.24
523.58	38022.00
523.75	38253.72
523.92	38225.63
524.10	38316.91
524.27	38342.66
524.44	38396.49
524.61	38789.70
524.78	38607.14
524.96	38574.37
525.13	38651.61
525.30	38944.17
525.47	38988.64
525.64	38719.48
525.81	38827.15
525.98	38593.09
526.16	38213.93
526.33	38518.20
526.50	38653.95
526.67	38520.54
526.84	38305.21
527.01	38511.17
527.18	38799.06
527.36	39079.92
527.53	39110.35
527.70	39826.56
527.87	39409.94
528.04	39360.79
528.21	39702.51
528.38	39730.59
528.55	39976.35
528.72	39690.80
528.89	40336.79
529.07	40119.12
529.24	39660.38
529.41	40055.93
529.58	39929.54
529.75	39924.86
529.92	40416.37
530.09	40245.51
530.26	40486.59
530.43	40706.60
530.60	40027.84
530.77	40247.85
530.94	40282.96
531.11	40739.36
531.28	40257.21
531.46	40580.21
531.63	40935.97
531.80	40547.44
531.97	40402.33
532.14	40622.34
532.31	40156.57
532.48	41130.23
532.65	40662.13
532.82	40919.59
532.99	41394.71
533.16	40868.09
533.33	41038.95
533.50	41722.39
533.67	40825.96
533.84	40718.30
534.01	40884.48
534.18	41422.80
534.35	41446.21
534.52	41572.60
534.69	41808.99
534.86	41844.10
535.03	41361.95
535.20	41785.58
535.37	41762.18
535.54	41991.55
535.71	41904.95
535.88	41783.24
536.05	41933.04
536.22	41869.84
536.38	42115.60
536.55	41996.23
536.72	41675.58
536.89	41663.88
537.06	41893.25
537.23	42389.44
537.40	42560.30
537.57	42225.60
537.74	42293.48
537.91	42471.36
538.08	42396.46
538.25	42202.20
538.42	42600.09
538.59	42452.64
538.75	42192.84
538.92	42513.49
539.09	42686.69
539.26	42536.90
539.43	42588.39
539.60	42539.24
539.77	42377.74
539.94	42529.87
540.11	42665.63
540.28	42227.95
540.44	42410.51
540.61	42534.56
540.78	42560.30
540.95	42637.54
541.12	42637.54
541.29	42792.01
541.46	42836.48
541.62	42885.64
541.79	43274.16
541.96	42609.45
542.13	42944.15
542.30	43313.95
542.47	43021.39
542.63	43402.89
542.80	43267.14
542.97	43634.61
543.14	43618.22
543.31	43292.89
543.48	43632.27
543.64	44065.27
543.81	43952.92
543.98	43697.80
544.15	43772.70
544.32	44182.29
544.48	44739.34
544.65	44381.24
544.82	44151.87
544.99	43510.56
545.16	44238.47
545.32	43824.19
545.49	44500.61
545.66	44652.74
545.83	44615.29
546.00	44828.28
546.16	44109.74
546.33	44264.21
546.50	44016.11
546.67	44381.24
546.83	44002.07
547.00	44704.23
547.17	44491.24
547.34	44493.58
547.50	44531.03
547.67	44765.09
547.84	44610.61
548.00	44603.59
548.17	44814.24
548.34	44987.44
548.51	44861.05
548.67	45209.79
548.84	44706.57
549.01	44718.28
549.18	44900.84
549.34	45027.23
549.51	45132.55
549.68	45041.27
549.84	45170.00
550.01	45411.07
550.18	44905.52
550.34	45090.42
550.51	45059.99
550.68	44942.97
550.84	44701.89
551.01	44980.42
551.18	45413.41
551.34	45240.21
551.51	45270.64
551.68	45097.44
551.84	45043.61
552.01	45177.02
552.18	45289.37
552.34	45455.54
552.51	45502.35
552.68	45516.40
552.84	45523.42
553.01	45588.95
553.18	45411.07
553.34	45797.26
553.51	45228.51
553.67	45666.19
553.84	45834.71
554.01	45855.78
554.17	46099.19
554.34	46169.41
554.51	45792.58
554.67	46188.13
554.84	46014.93
555.00	46057.06
555.17	45675.55
555.33	45872.16
555.50	45626.40
555.67	46092.17
555.83	46272.39
556.00	46335.59
556.16	46244.30
556.33	46010.25
556.50	45820.67
556.66	46536.87
556.83	45705.98
556.99	46157.70
557.16	46377.72
557.32	46256.01
557.49	46424.53
557.65	46508.79
557.82	46096.85
557.98	45790.24
558.15	46309.84
558.32	46199.83
558.48	46274.73
558.65	46323.88
558.81	46176.43
558.98	46218.56
559.14	46368.35
559.31	45989.19
559.47	46344.95
559.64	46461.97
559.80	46614.11
559.97	46452.61
560.13	46279.41
560.30	46150.68
560.46	46492.40
560.63	46286.43
560.79	46834.12
560.96	46906.68
561.12	46752.20
561.29	46632.83
561.45	46265.37
561.61	46838.80
561.78	46380.06
561.94	46639.86
562.11	46663.26
562.27	46328.56
562.44	47065.83
562.60	46827.10
562.77	46562.62
562.93	46667.94
563.10	47124.35
563.26	46817.74
563.42	46674.96
563.59	46602.41
563.75	46614.11
563.92	46925.40
564.08	47058.81
564.24	46845.82
564.41	46913.70
564.57	46997.96
564.74	46653.90
564.90	47068.17
565.07	46712.41
565.23	46735.82
565.39	47110.30
565.56	46972.21
565.72	46820.08
565.88	47009.66
566.05	46906.68
566.21	47136.05
566.38	47122.01
566.54	47077.54
566.70	46939.44
566.87	47494.15
567.03	47222.65
567.19	47622.88
567.36	47304.57
567.52	47323.29
567.68	46803.69
567.85	46759.22
568.01	46740.50
568.17	46799.01
568.34	47419.25
568.50	47093.92
568.66	47056.47
568.83	46775.61
568.99	46934.76
569.15	46490.06
569.32	46747.52
569.48	47096.26
569.64	46960.51
569.81	47608.84
569.97	46710.07
570.13	47199.24
570.30	46609.43
570.46	46838.80
570.62	47033.07
570.78	46927.74
570.95	46693.69
571.11	47201.58
571.27	46679.64
571.43	47152.43
571.60	47262.44
571.76	47054.13
571.92	47203.92
572.09	47391.17
572.25	47306.91
572.41	47262.44
572.57	46995.62
572.74	47756.29
572.90	47557.35
573.06	47358.40
573.22	47498.83
573.38	46951.15
573.55	46834.12
573.71	47334.99
573.87	47470.75
574.03	47213.29
574.20	47246.05
574.36	47227.33
574.52	47370.10
574.68	47040.09
574.84	47206.26
575.01	47227.33
575.17	46918.38
575.33	47030.72
575.49	46930.08
575.65	47531.60
575.82	47232.01
575.98	47126.69
576.14	47194.56
576.30	47159.45
576.46	47332.65
576.62	47084.56
576.79	47208.61
576.95	46761.56
577.11	47189.88
577.27	47327.97
577.43	47107.96
577.59	47234.35
577.75	47416.91
577.92	46969.87
578.08	46918.38
578.24	47365.42
578.40	47363.08
578.56	47201.58
578.72	47126.69
578.88	47367.76
579.04	47037.75
579.21	46946.47
579.37	47456.70
579.53	47189.88
579.69	47206.26
579.85	47578.41
580.01	47395.85
580.17	47299.89
580.33	47330.31
580.49	47353.72
580.65	47253.08
580.82	47489.47
580.98	47079.88
581.14	47327.97
581.30	47594.79
581.46	47412.23
581.62	47529.26
581.78	47356.06
581.94	47400.53
582.10	47480.11
582.26	47789.06
582.42	47557.35
582.58	47391.17
582.74	47185.20
582.90	47496.49
583.06	47529.26
583.22	47353.72
583.38	47239.03
583.54	47657.99
583.70	47484.79
583.86	47068.17
584.02	47138.39
584.18	47232.01
584.34	47473.09
584.50	47503.51
584.66	47276.48
584.82	47412.23
584.98	47159.45
585.14	47351.38
585.30	47316.27
585.46	47569.05
585.62	47309.25
585.78	47313.93
585.94	46941.78
586.10	46862.21
586.26	47093.92
586.42	47723.52
586.58	47334.99
586.74	47356.06
586.90	47636.92
587.06	47430.96
587.22	47306.91
587.38	47290.52
587.54	47503.51
587.70	47547.98
587.86	47196.90
588.02	47140.73
588.18	47484.79
588.34	47222.65
588.49	46499.42
588.65	46873.91
588.81	47208.61
588.97	47171.16
589.13	47543.30
589.29	46993.28
589.45	46902.00
589.61	47660.33
589.77	47035.41
589.93	47346.70
590.08	47501.17
590.24	47592.45
590.40	47590.11
590.56	47999.71
590.72	47459.04
590.88	47517.56
591.04	47470.75
591.20	47959.92
591.35	47419.25
591.51	47515.22
591.67	47590.11
591.83	47798.42
591.99	47749.27
592.15	47047.11
592.31	47641.60
592.46	47653.31
592.62	47576.07
592.78	47573.73
592.94	47327.97
593.10	47271.80
593.26	47856.93
593.41	47264.78
593.57	47746.93
593.73	47344.36
593.89	47835.87
594.05	47320.95
594.20	47012.00
594.36	47735.23
594.52	47243.71
594.68	47721.18
594.84	47379.46
594.99	47540.96
595.15	47524.58
595.31	47688.42
595.47	47503.51
595.62	47470.75
595.78	47529.26
595.94	47433.30
596.10	48058.22
596.25	47700.12
596.41	47339.68
596.57	47679.05
596.73	47854.59
596.88	47498.83
597.04	47665.01
597.20	47611.18
597.36	47524.58
597.51	47824.17
597.67	47784.38
597.83	47533.94
597.99	47945.87
598.14	47646.29
598.30	47313.93
598.46	47550.32
598.61	47524.58
598.77	46990.94
598.93	47449.68
599.09	47353.72
599.24	47922.47
599.40	47482.45
599.56	47709.48
599.71	47416.91
599.87	47784.38
600.03	47639.26
600.18	47416.91
600.34	47512.88
600.50	47517.56
600.65	47552.66
600.81	47721.18
600.97	47571.39
601.12	47381.80
601.28	47697.78
601.44	47599.47
601.59	47164.14
601.75	47330.31
601.91	47428.62
602.06	47114.98
602.22	47243.71
602.37	47054.13
602.53	47356.06
602.69	48102.69
602.84	47559.69
603.00	47695.44
603.16	47391.17
603.31	47346.70
603.47	47461.38
603.62	47433.30
603.78	47587.77
603.94	47753.95
604.09	47924.81
604.25	47342.02
604.40	47377.12
604.56	47592.45
604.71	48172.91
604.87	47330.31
605.03	47519.90
605.18	47400.53
605.34	47320.95
605.49	47274.14
605.65	47555.00
605.80	47243.71
605.96	47571.39
606.12	47463.72
606.27	47817.14
606.43	47620.54
606.58	47938.85
606.74	47459.04
606.89	47152.43
607.05	47103.28
607.20	47569.05
607.36	47288.18
607.51	47583.09
607.67	47463.72
607.82	47557.35
607.98	47194.56
608.13	47374.78
608.29	47065.83
608.44	47117.32
608.60	46541.55
608.75	46990.94
608.91	46946.47
609.06	46892.63
609.22	47765.65
609.37	46806.03
609.53	46555.60
609.68	47311.59
609.84	47253.08
609.99	47290.52
610.15	46866.89
610.30	46850.50
610.46	46518.15
610.61	46684.33
610.76	47147.75
610.92	47058.81
611.07	47327.97
611.23	46522.83
611.38	47000.30
611.54	46497.08
611.69	46576.66
611.84	46600.07
612.00	46403.46
612.15	46588.36
612.31	46810.71
612.46	46607.09
612.62	46801.35
612.77	46569.64
612.92	47016.68
613.08	46621.13
613.23	47044.77
613.39	46337.93
613.54	46260.69
613.69	46218.56
613.85	46375.37
614.00	46684.33
614.15	46457.29
614.31	46380.06
614.46	46885.61
614.62	46305.16
614.77	46225.58
614.92	46295.80
615.08	46328.56
615.23	46433.89
615.38	46363.67
615.54	45764.49
615.69	46129.62
615.84	46033.66
616.00	45982.16
616.15	46003.23
616.30	46307.50
616.46	46234.94
616.61	45738.75
616.76	46167.07
616.92	46024.29
617.07	45825.35
617.22	46138.98
617.37	45635.77
617.53	46204.52
617.68	45986.85
617.83	46078.13
617.99	45970.46
618.14	45703.64
618.29	45698.96
618.45	45986.85
618.60	45682.58
618.75	45523.42
618.90	45713.00
619.06	45752.79
619.21	45439.16
619.36	45979.82
619.51	45729.39
619.67	45336.18
619.82	45705.98
619.97	45921.31
620.12	45280.00
620.28	44783.81
620.43	45420.44
620.58	45401.71
620.73	45120.85
620.89	45202.77
621.04	45223.83
621.19	45233.19
621.34	45071.70
621.49	45062.33
621.65	45097.44
621.80	45598.32
621.95	45134.89
622.10	45240.21
622.25	44772.11
622.41	44989.78
622.56	44966.37
622.71	44940.63
622.86	44985.10
623.01	45188.72
623.16	45158.30
623.32	45041.27
623.47	45050.63
623.62	45275.32
623.77	44931.26
623.92	44945.31
624.07	45036.59
624.23	44348.47
624.38	44818.92
624.53	44542.74
624.68	44423.37
624.83	44776.79
624.98	44704.23
625.13	44409.32
625.29	44397.62
625.44	44573.16
625.59	44779.13
625.74	44229.10
625.89	44051.22
626.04	43950.58
626.19	44123.78
626.34	44516.99
626.49	44570.82
626.65	43992.71
626.80	44509.97
626.95	44002.07
627.10	44208.04
627.25	44292.30
627.40	43669.72
627.55	43629.93
627.70	43126.71
627.85	43686.10
628.00	43400.55
628.15	43880.36
628.30	43889.73
628.45	43978.67
628.60	44058.24
628.76	44140.16
628.91	44292.30
629.06	44083.99
629.21	43896.75
629.36	43337.36
629.51	43728.23
629.66	43505.88
629.81	43686.10
629.96	43615.88
630.11	43849.94
630.26	43786.74
630.41	44002.07
630.56	43454.39
630.71	43819.51
630.86	43480.13
631.01	42965.21
631.16	43466.09
631.31	43122.03
631.46	43068.20
631.61	43599.50
631.76	43225.01
631.91	43468.43
632.06	43379.49
632.21	43122.03
632.36	43756.32
632.51	43353.74
632.66	43157.14
632.81	42770.95
632.96	42866.91
633.10	42906.70
633.25	43164.16
633.40	43112.67
633.55	43421.62
633.70	43028.41
633.85	42873.93
634.00	42766.27
634.15	42770.95
634.30	42909.04
634.45	43054.15
634.60	42892.66
634.75	43065.86
634.90	42838.83
635.05	42653.92
635.19	43213.31
635.34	43021.39
635.49	42909.04
635.64	42703.07
635.79	42527.53
635.94	42293.48
636.09	42492.43
636.24	42199.86
636.39	42382.42
636.53	42272.42
636.68	42085.17
636.83	42473.70
636.98	42616.47
637.13	42000.91
637.28	42625.84
637.43	42426.89
637.57	42340.29
637.72	41750.48
637.87	42010.28
638.02	42389.44
638.17	42057.09
638.32	42333.27
638.46	42043.04
638.61	41879.21
638.76	41804.31
638.91	42293.48
639.06	41935.38
639.20	42174.11
639.35	42321.57
639.50	42351.99
639.65	42134.32
639.80	42211.56
639.94	41759.84
640.09	42045.38
640.24	41869.84
640.39	41895.59
640.54	41495.36
640.68	41207.47
640.83	41544.51
640.98	41408.76
641.13	41422.80
641.27	41715.37
641.42	41827.71
641.57	41317.48
641.72	41841.76
641.86	41418.12
642.01	41530.47
642.16	41504.72
642.31	41010.87
642.45	41600.68
642.60	40797.88
642.75	41443.87
642.90	41446.21
643.04	41198.11
643.19	40928.95
643.34	41507.06
643.48	40914.90
643.63	41081.08
643.78	41001.50
643.93	40797.88
644.07	41024.91
644.22	40856.39
644.37	40910.22
644.51	40701.92
644.66	40694.89
644.81	41006.19
644.95	41017.89
645.10	40650.42
645.25	41125.55
645.39	41155.98
645.54	40905.54
645.69	41153.64
645.83	41003.85
645.98	40456.16
646.13	40612.98
646.27	40774.47
646.42	40603.61
646.57	40973.42
646.71	41048.32
646.86	40746.39
647.00	40605.95
647.15	40903.20
647.30	40615.32
647.44	40795.54
647.59	40629.36
647.74	40566.16
647.88	39995.07
648.03	40067.63
648.17	40397.65
648.32	39892.09
648.47	40418.71
648.61	40217.43
648.76	40175.30
648.90	40247.85
649.05	39913.16
649.20	40680.85
649.34	40278.28
649.49	40067.63
649.63	39749.32
649.78	39976.35
649.92	39866.34
650.07	40198.70
650.21	39695.49
650.36	39667.40
650.51	40224.45
650.65	40168.27
650.80	39849.96
650.94	39704.85
651.09	40194.02
651.23	40039.54
651.38	39864.00
651.52	39707.19
651.67	39849.96
651.81	39641.65
651.96	39414.62
652.10	39643.99
652.25	39175.89
652.39	39751.66
652.54	39440.37
652.68	39409.94
652.83	39576.12
652.97	39676.76
653.12	39945.92
653.26	39152.48
653.41	39487.18
653.55	39423.98
653.70	39531.65
653.84	38794.38
653.99	39592.50
654.13	39248.44
654.27	38829.49
654.42	39384.19
654.56	38850.55
654.71	39358.45
654.85	39388.88
655.00	39344.41
655.14	38670.33
655.29	38909.07
655.43	38843.53
655.57	38550.96
655.72	38391.81
655.86	38490.11
656.01	38197.54
656.15	38473.73
656.30	38188.18
656.44	38431.60
656.58	38132.01
656.73	38249.03
656.87	38153.07
657.01	38239.67
657.16	37944.76
657.30	38143.71
657.45	37888.59
657.59	38206.90
657.73	37991.58
657.88	38607.14
658.02	38354.36
658.16	38333.29
658.31	38225.63
658.45	38520.54
658.60	38328.61
658.74	38181.16
658.88	38464.36
659.03	38068.81
659.17	37968.17
659.31	38022.00
659.46	37907.32
659.60	38185.84
659.74	37633.47
659.89	37495.38
660.03	37638.15
660.17	37986.89
660.32	37846.46
660.46	37951.79
660.60	37652.20
660.74	37361.97
660.89	37722.41
661.03	37801.99
661.17	37228.56
661.32	37521.13
661.46	37158.34
661.60	37460.27
661.74	37034.30
661.89	37305.80
662.03	37427.51
662.17	37364.31
662.31	37167.71
662.46	37462.61
662.60	37017.91
662.74	36898.55
662.88	36935.99
663.03	36308.73
663.17	36648.11
663.31	36531.08
663.45	36725.35
663.60	36198.73
663.74	36041.91
663.88	35810.20
664.02	36165.96
664.17	36339.16
664.31	36421.08
664.45	36327.45
664.59	36299.37
664.73	35908.50
664.88	36521.72
665.02	36114.47
665.16	36517.04
665.30	36245.54
665.44	35971.69
665.59	35747.00
665.73	35702.53
665.87	35807.86
666.01	35674.45
666.15	35709.55
666.29	35421.67
666.44	35899.14
666.58	35339.75
666.72	35641.68
666.86	35828.92
667.00	35599.55
667.14	35077.61
667.28	34836.53
667.43	35440.39
667.57	35442.73
667.71	35108.04
667.85	35402.94
667.99	34665.67
668.13	34621.20
668.27	34731.21
668.41	34916.11
668.56	34845.90
668.70	34902.07
668.84	34504.18
668.98	34731.21
669.12	34890.37
669.26	34335.66
669.40	34553.33
669.54	34092.24
669.68	34745.25
669.82	34291.19
669.96	34412.90
670.10	34061.82
670.25	34347.36
670.39	34244.38
670.53	34148.42
670.67	33783.29
670.81	33930.75
670.95	34136.71
671.09	33914.36
671.23	33851.17
671.37	33876.91
671.51	33902.66
671.65	33277.74
671.79	33251.99
671.93	33298.80
672.07	33703.71
672.21	33378.38
672.35	33574.98
672.49	33677.97
672.63	33048.36
672.77	33191.14
672.91	33261.35
673.05	33186.46
673.19	32844.74
673.33	33043.68
673.47	33099.86
673.61	32510.04
673.75	32121.51
673.89	32144.92
674.03	32067.68
674.17	32364.93
674.31	32680.90
674.45	32369.61
674.59	32238.54
674.73	32287.69
674.87	31931.93
675.01	32243.22
675.15	32180.03
675.29	32329.82
675.43	32002.14
675.56	31945.97
675.70	31501.27
675.84	31754.05
675.98	30913.80
676.12	31409.99
676.26	31370.20
676.40	30932.52
676.54	30789.75
676.68	31131.47
676.82	30712.51
676.96	31222.75
677.10	30487.82
677.23	30869.33
677.37	30478.46
677.51	30162.48
677.65	30239.72
677.79	29958.86
677.93	30108.65
678.07	30115.67
678.21	29603.10
678.34	29823.11
678.48	29839.49
678.62	29748.21
678.76	29729.48
678.90	29259.04
679.04	29556.28
679.18	29273.08
679.31	28985.19
679.45	29088.18
679.59	28713.69
679.73	28940.72
679.87	29022.64
680.00	28655.18
680.14	28613.05
680.28	28720.71
680.42	28198.77
680.56	28503.04
680.70	28180.05
680.83	28669.22
680.97	28325.16
681.11	28278.35
681.25	28116.86
681.39	27946.00
681.52	27690.88
681.66	27442.78
681.80	27473.21
681.94	27723.65
682.07	27812.59
682.21	27239.15
682.35	27658.11
682.49	27316.39
682.62	27559.81
682.76	27122.13
682.90	27372.57
683.04	27147.87
683.17	27257.88
683.31	26831.90
683.45	26600.19
683.59	26754.66
683.72	26258.47
683.86	26316.98
684.00	26033.78
684.13	26448.05
684.27	26214.00
684.41	26071.23
684.55	25846.54
684.68	25586.74
684.82	25846.54
684.96	25673.34
685.09	25682.70
685.23	25661.63
685.37	25715.47
685.50	25652.27
685.64	25488.43
685.78	25350.34
685.91	25095.22
686.05	25268.42
686.19	24922.02
686.32	24905.64
686.46	24556.90
686.60	24163.69
686.73	24531.15
686.87	23700.26
687.01	23613.66
687.14	23770.48
687.28	23770.48
687.42	24177.73
687.55	24044.32
687.69	23756.44
687.82	23545.79
687.96	23529.41
688.10	23323.44
688.23	23601.96
688.37	23288.33
688.50	23173.64
688.64	22909.16
688.78	23098.75
688.91	22494.89
689.05	22892.78
689.18	22569.79
689.32	22366.16
689.46	22773.41
689.59	22995.76
689.73	22705.54
689.86	22698.52
690.00	22061.89
690.13	22520.63
690.27	22286.58
690.41	22387.22
690.54	21759.96
690.68	21682.72
690.81	21823.16
690.95	21853.58
691.08	22045.51
691.22	22036.14
691.35	21692.08
691.49	21888.69
691.62	21905.07
691.76	21771.66
691.89	21638.25
692.03	21762.30
692.16	21046.10
692.30	21188.87
692.43	21088.23
692.57	20713.74
692.70	20423.51
692.84	20603.74
692.97	20755.87
693.11	20245.63
693.24	20334.57
693.38	20798.00
693.51	20332.23
693.65	20287.76
693.78	20486.71
693.92	20255.00
694.05	20224.57
694.19	19747.10
694.32	20018.60
694.45	19985.83
694.59	19936.68
694.72	19454.53
694.86	19634.75
694.99	19248.57
695.13	19480.28
695.26	18963.02
695.39	19073.03
695.53	19077.71
695.66	18822.59
695.80	19012.17
695.93	18892.80
696.07	18644.71
696.20	18773.44
696.33	18750.03
696.47	18927.91
696.60	18792.16
696.73	18600.24
696.87	18530.02
697.00	18537.04
697.14	18391.93
697.27	18576.83
697.40	18218.73
697.54	18185.96
697.67	17867.65
697.80	18185.96
697.94	17441.67
698.07	17710.83
698.21	18148.51
698.34	17778.71
698.47	17720.20
698.61	17029.74
698.74	17174.85
698.87	17319.96
699.01	17191.23
699.14	16940.80
699.27	16863.56
699.40	17317.62
699.54	16842.50
699.67	16889.31
699.80	16950.16
699.94	16475.03
700.07	16531.20
700.20	16531.20
700.34	16304.17
700.47	16460.99
700.60	16472.69
700.73	16322.90
700.87	16105.23
701.00	16081.82
701.13	15967.13
701.26	15899.26
701.40	16301.83
701.53	15829.04
701.66	15967.13
701.79	15880.53
701.93	15351.57
702.06	15398.38
702.19	15398.38
702.32	15594.99
702.46	15417.11
702.59	15386.68
702.72	15449.88
702.85	15442.85
702.99	15276.68
703.12	15145.61
703.25	14911.55
703.38	14792.19
703.51	14951.34
703.65	14839.00
703.78	14541.75
703.91	14574.52
704.04	14609.62
704.17	14317.06
704.31	14368.55
704.44	14260.88
704.57	14078.32
704.70	14169.60
704.83	14146.20
704.96	14300.67
705.10	14298.33
705.23	13963.64
>>>>>End Processed Spectral Data<<<<<
