SpectraSuite Data File
++++++++++++++++++++++++++++++++++++
Date: Fri Oct 25 11:33:55 EDT 2013
User: price-jones
Dark Spectrum Present: No
Reference Spectrum Present: No
Number of Sampled Component Spectra: 1
Spectrometers: USB2+H05261
Integration Time (usec): 100000 (USB2+H05261)
Spectra Averaged: 1 (USB2+H05261)
Boxcar Smoothing: 0 (USB2+H05261)
Correct for Electrical Dark: No (USB2+H05261)
Strobe/Lamp Enabled: No (USB2+H05261)
Correct for Detector Non-linearity: No (USB2+H05261)
Correct for Stray Light: No (USB2+H05261)
Number of Pixels in Processed Spectrum: 2048
>>>>>Begin Processed Spectral Data<<<<<
365.73	259.80
365.92	259.80
366.12	259.80
366.32	187.24
366.52	117.03
366.72	194.26
366.91	248.10
367.11	133.41
367.31	170.86
367.51	229.37
367.70	184.90
367.90	266.82
368.10	93.62
368.30	182.56
368.49	210.65
368.69	215.33
368.89	194.26
369.09	201.29
369.28	231.71
369.48	243.42
369.68	212.99
369.87	320.65
370.07	224.69
370.27	315.97
370.47	348.74
370.66	437.68
370.86	517.26
371.06	547.69
371.25	564.07
371.45	540.66
371.65	531.30
371.84	526.62
372.04	559.39
372.24	627.26
372.44	533.64
372.63	587.47
372.83	624.92
373.03	641.31
373.22	599.18
373.42	667.05
373.62	667.05
373.81	688.12
374.01	631.94
374.21	643.65
374.40	660.03
374.60	671.73
374.79	676.41
374.99	660.03
375.19	641.31
375.38	720.88
375.58	730.25
375.78	592.16
375.97	704.50
376.17	713.86
376.37	739.61
376.56	720.88
376.76	636.63
376.95	770.04
377.15	751.31
377.35	709.18
377.54	702.16
377.74	674.07
377.93	601.52
378.13	669.39
378.33	730.25
378.52	746.63
378.72	727.91
378.91	683.44
379.11	777.06
379.31	744.29
379.50	683.44
379.70	755.99
379.89	709.18
380.09	718.54
380.28	676.41
380.48	706.84
380.68	732.59
380.87	744.29
381.07	784.08
381.26	741.95
381.46	702.16
381.65	833.23
381.85	739.61
382.04	730.25
382.24	734.93
382.43	748.97
382.63	779.40
382.83	777.06
383.02	847.27
383.22	795.78
383.41	723.23
383.61	744.29
383.80	877.70
384.00	814.51
384.19	685.78
384.39	812.17
384.58	746.63
384.78	760.67
384.97	877.70
385.17	777.06
385.36	861.32
385.56	882.38
385.75	826.21
385.95	884.72
386.14	814.51
386.34	875.36
386.53	887.06
386.72	812.17
386.92	905.79
387.11	870.68
387.31	875.36
387.50	889.40
387.70	861.32
387.89	964.30
388.09	868.34
388.28	863.66
388.48	985.37
388.67	854.30
388.86	903.45
389.06	908.13
389.25	905.79
389.45	973.66
389.64	861.32
389.84	901.11
390.03	912.81
390.22	924.51
390.42	919.83
390.61	898.77
390.81	966.64
391.00	1013.45
391.19	1004.09
391.39	908.13
391.58	1039.20
391.78	997.07
391.97	1128.14
392.16	999.41
392.36	1118.78
392.55	1090.69
392.75	1095.37
392.94	1050.90
393.13	997.07
393.33	978.34
393.52	1137.50
393.71	1111.75
393.91	1064.94
394.10	1102.39
394.29	1069.62
394.49	1102.39
394.68	1139.84
394.88	1172.61
395.07	1086.01
395.26	1102.39
395.46	1086.01
395.65	1121.12
395.84	1142.18
396.04	1137.50
396.23	1167.93
396.42	1116.44
396.62	1224.10
396.81	1249.85
397.00	1313.04
397.19	1224.10
397.39	1188.99
397.58	1282.61
397.77	1200.69
397.97	1184.31
398.16	1238.14
398.35	1277.93
398.55	1273.25
398.74	1277.93
398.93	1404.32
399.12	1231.12
399.32	1296.66
399.51	1306.02
399.70	1357.51
399.90	1341.13
400.09	1406.66
400.28	1392.62
400.47	1364.53
400.67	1371.55
400.86	1299.00
401.05	1387.94
401.24	1413.68
401.44	1420.71
401.63	1394.96
401.82	1495.60
402.01	1427.73
402.21	1514.33
402.40	1378.58
402.59	1542.41
402.78	1469.86
402.97	1511.99
403.17	1390.28
403.36	1504.96
403.55	1572.84
403.74	1598.59
403.93	1610.29
404.13	1614.97
404.32	1633.69
404.51	1528.37
404.70	1666.46
404.89	1624.33
405.09	1710.93
405.28	1652.42
405.47	1675.82
405.66	1593.90
405.85	1739.02
406.05	1687.53
406.24	1717.95
406.43	1673.48
406.62	1844.34
406.81	1834.98
407.00	1680.50
407.20	1699.23
407.39	1734.34
407.58	1884.13
407.77	1949.67
407.96	1879.45
408.15	1806.89
408.34	1783.49
408.54	1994.14
408.73	1912.22
408.92	1891.15
409.11	1940.30
409.30	1933.28
409.49	1935.62
409.68	1994.14
409.87	1963.71
410.07	2059.67
410.26	1982.43
410.45	2050.31
410.64	2162.66
410.83	2162.66
411.02	2101.80
411.21	2181.38
411.40	2169.68
411.59	2275.00
411.78	2216.49
411.98	2115.84
412.17	2246.91
412.36	2270.32
412.55	2312.45
412.74	2340.54
412.93	2300.75
413.12	2275.00
413.31	2516.08
413.50	2305.43
413.69	2331.17
413.88	2422.45
414.07	2431.82
414.26	2406.07
414.45	2565.23
414.64	2443.52
414.83	2560.55
415.02	2621.40
415.22	2656.51
415.41	2736.09
415.60	2623.74
415.79	2775.88
415.98	2778.22
416.17	2825.03
416.36	2733.75
416.55	2689.28
416.74	2850.77
416.93	2670.55
417.12	2815.66
417.31	2897.58
417.50	2832.05
417.69	2972.48
417.88	2939.71
418.07	2878.86
418.26	2988.86
418.45	3087.17
418.64	3117.59
418.83	3040.36
419.02	2986.52
419.21	3141.00
419.39	2972.48
419.58	3059.08
419.77	3096.53
419.96	3052.06
420.15	3222.92
420.34	3234.62
420.53	3208.87
420.72	3150.36
420.91	3148.02
421.10	3166.74
421.29	3288.45
421.48	3311.86
421.67	3400.80
421.86	3255.69
422.05	3258.03
422.24	3206.53
422.43	3368.03
422.61	3442.93
422.80	3361.01
422.99	3337.60
423.18	3513.14
423.37	3396.12
423.56	3335.26
423.75	3412.50
423.94	3384.41
424.13	3215.90
424.32	3311.86
424.50	3435.91
424.69	3396.12
424.88	3253.34
425.07	3300.16
425.26	3403.14
425.45	3433.57
425.64	3342.28
425.83	3384.41
426.01	3499.10
426.20	3506.12
426.39	3400.80
426.58	3452.29
426.77	3421.86
426.96	3480.38
427.15	3412.50
427.33	3536.55
427.52	3641.87
427.71	3597.40
427.90	3583.36
428.09	3606.77
428.28	3702.73
428.46	3674.64
428.65	3606.77
428.84	3796.35
429.03	3843.16
429.22	3552.93
429.40	3726.13
429.59	3658.26
429.78	3660.60
429.97	3632.51
430.16	3719.11
430.34	3894.65
430.53	3957.85
430.72	3763.58
430.91	3768.26
431.10	3939.12
431.28	4011.68
431.47	3971.89
431.66	3969.55
431.85	3873.59
432.03	3967.21
432.22	4007.00
432.41	3894.65
432.60	4018.70
432.79	4070.19
432.97	4002.32
433.16	4117.00
433.35	4086.58
433.54	4161.47
433.72	4128.70
433.91	4161.47
434.10	4208.28
434.28	4107.64
434.47	4149.77
434.66	4318.29
434.85	4327.65
435.03	4304.25
435.22	4224.67
435.41	4468.08
435.59	4236.37
435.78	4395.53
435.97	4329.99
436.16	4369.78
436.34	4400.21
436.53	4365.10
436.72	4531.28
436.90	4379.14
437.09	4409.57
437.28	4376.80
437.46	4432.97
437.65	4645.96
437.84	4566.39
438.02	4545.32
438.21	4620.22
438.40	4587.45
438.58	4730.22
438.77	4758.31
438.96	4524.26
439.14	4777.03
439.33	4938.53
439.52	4915.12
439.70	4812.14
439.89	4985.34
440.08	5078.96
440.26	4973.64
440.45	5048.54
440.63	5181.95
440.82	5203.01
441.01	4898.74
441.19	5123.43
441.38	5352.81
441.57	5233.44
441.75	5268.55
441.94	5294.29
442.12	5334.08
442.31	5284.93
442.50	5401.96
442.68	5383.23
442.87	5242.80
443.05	5476.85
443.24	5703.89
443.43	5320.04
443.61	5500.26
443.80	5703.89
443.98	5439.40
444.17	5357.49
444.35	5561.11
444.54	5486.22
444.73	5713.25
444.91	5579.84
445.10	5518.98
445.28	5509.62
445.47	5605.58
445.65	5671.12
445.84	5605.58
446.02	5673.46
446.21	5694.52
446.39	5570.48
446.58	5830.27
446.77	5657.07
446.95	5586.86
447.14	5568.13
447.32	5614.95
447.51	5778.78
447.69	5708.57
447.88	5636.01
448.06	5734.31
448.25	5666.44
448.43	5689.84
448.62	5741.33
448.80	5706.23
448.99	5769.42
449.17	5874.74
449.36	5762.40
449.54	5961.34
449.73	5987.09
449.91	6153.27
450.10	5895.81
450.28	6080.71
450.46	6164.97
450.65	6101.78
450.83	6043.26
451.02	6207.10
451.20	6242.21
451.39	6104.12
451.57	5944.96
451.76	6085.39
451.94	6270.30
452.13	6143.91
452.31	6260.93
452.49	6214.12
452.68	6274.98
452.86	6277.32
453.05	6466.90
453.23	6333.49
453.42	6291.36
453.60	6188.38
453.78	6354.55
453.97	6258.59
454.15	6352.21
454.34	6200.08
454.52	6509.03
454.70	6675.21
454.89	6661.16
455.07	6518.39
455.26	6736.06
455.44	6642.44
455.62	6619.04
455.81	6604.99
455.99	6782.87
456.17	6764.15
456.36	6623.72
456.54	6883.52
456.73	6869.47
456.91	7007.56
457.09	6895.22
457.28	7049.69
457.46	7014.59
457.64	7002.88
457.83	7009.90
458.01	7054.37
458.19	7115.23
458.38	7119.91
458.56	7056.72
458.74	7258.00
458.93	7073.10
459.11	7176.08
459.29	7218.21
459.48	7152.68
459.66	7112.89
459.84	7346.94
460.03	7391.41
460.21	7351.62
460.39	7265.02
460.57	7339.92
460.76	7417.16
460.94	7389.07
461.12	7581.00
461.31	7431.20
461.49	7360.98
461.67	7557.59
461.85	7499.08
462.04	7442.90
462.22	8102.93
462.40	7772.92
462.59	7744.83
462.77	7609.08
462.95	7906.33
463.13	7723.77
463.32	7751.85
463.50	7885.26
463.68	7646.53
463.86	7887.61
464.05	7698.02
464.23	7934.42
464.41	7843.14
464.59	7676.96
464.78	8191.88
464.96	8077.19
465.14	7866.54
465.32	8156.77
465.50	7932.08
465.69	8116.98
465.87	8262.09
466.05	8058.46
466.23	8088.89
466.41	8170.81
466.60	8278.47
466.78	8025.70
466.96	7999.95
467.14	8084.21
467.32	8170.81
467.51	8362.73
467.69	8025.70
467.87	8121.66
468.05	8404.86
468.23	8212.94
468.41	8369.76
468.60	8484.44
468.78	8601.47
468.96	8241.03
469.14	8477.42
469.32	8559.34
469.50	8344.01
469.69	8538.27
469.87	8662.32
470.05	8755.94
470.23	8767.65
470.41	8627.21
470.59	8718.50
470.77	8879.99
470.95	8725.52
471.14	8999.36
471.32	8964.25
471.50	9132.77
471.68	8772.33
471.86	9039.15
472.04	9128.09
472.22	9268.52
472.40	8912.76
472.58	8994.68
472.77	9081.28
472.95	9184.26
473.13	9437.04
473.31	9245.12
473.49	9397.25
473.67	9415.98
473.85	9448.74
474.03	9525.98
474.21	9687.48
474.39	9706.20
474.57	9703.86
474.75	9738.97
474.93	9881.74
475.12	9701.52
475.30	10092.39
475.48	9830.25
475.66	10202.40
475.84	10010.47
476.02	10125.16
476.20	10148.56
476.38	10345.17
476.56	10665.82
476.74	10387.30
476.92	10541.77
477.10	10347.51
477.28	10588.58
477.46	10427.09
477.64	10752.42
477.82	10855.40
478.00	11150.31
478.18	11070.73
478.36	10979.45
478.54	11040.31
478.72	11267.34
478.90	11599.70
479.08	11653.53
479.26	11403.09
479.44	11611.40
479.62	11829.07
479.80	11765.87
479.98	11878.22
480.16	11903.96
480.34	11988.22
480.52	11983.54
480.70	12086.53
480.88	11908.65
481.06	12411.86
481.24	12381.43
481.41	12449.31
481.59	12809.75
481.77	12802.73
481.95	12617.83
482.13	13046.15
482.31	12910.40
482.49	13373.82
482.67	13172.54
482.85	13345.73
483.03	13343.39
483.21	13596.17
483.39	13547.02
483.57	13558.72
483.74	13973.00
483.92	13715.54
484.10	13933.21
484.28	14164.92
484.46	14326.42
484.64	14553.45
484.82	14155.56
485.00	14508.98
485.18	14803.89
485.35	14946.66
485.53	14857.72
485.71	15138.58
485.89	15389.02
486.07	14925.60
486.25	15403.07
486.43	15580.95
486.61	15550.52
486.78	15665.21
486.96	15707.34
487.14	15960.11
487.32	16238.64
487.50	16149.70
487.68	16280.77
487.85	16482.05
488.03	16470.35
488.21	16622.48
488.39	16922.07
488.57	17020.38
488.75	17160.81
488.92	17062.51
489.10	17249.75
489.28	17392.52
489.46	17577.42
489.64	17547.00
489.81	18090.00
489.99	18237.45
490.17	18134.47
490.35	18380.23
490.53	18270.22
490.70	18415.34
490.88	18485.55
491.06	18572.15
491.24	18977.06
491.41	18740.67
491.59	19042.60
491.77	18948.98
491.95	19281.33
492.13	19536.45
492.30	19496.66
492.48	19702.63
492.66	19550.49
492.84	19503.68
493.01	20088.82
493.19	19920.30
493.37	20140.31
493.54	20336.91
493.72	20154.35
493.90	20407.13
494.08	20372.02
494.25	21057.80
494.43	21006.31
494.61	20966.52
494.79	20713.74
494.96	21296.53
495.14	21584.42
495.32	21589.10
495.49	21348.03
495.67	21671.02
495.85	21832.52
496.02	21797.41
496.20	22029.12
496.38	22104.02
496.55	22363.82
496.73	22534.68
496.91	22394.25
497.09	22719.58
497.26	23030.87
497.44	22647.02
497.62	23143.22
497.79	23433.44
497.97	22988.74
498.14	23618.35
498.32	23707.29
498.50	23304.71
498.67	23459.19
498.85	23634.73
499.03	23749.42
499.20	23805.59
499.38	24126.24
499.56	24231.57
499.73	24067.73
499.91	24130.92
500.08	24299.44
500.26	24606.05
500.44	24381.36
500.61	24711.38
500.79	24893.94
500.97	24978.20
501.14	25202.89
501.32	25170.12
501.49	25071.82
501.67	25020.33
501.84	25394.81
502.02	25041.39
502.20	25357.36
502.37	25556.31
502.55	25088.20
502.72	25521.20
502.90	25685.04
503.07	25778.66
503.25	26129.74
503.43	25963.56
503.60	26232.72
503.78	26045.48
503.95	26515.93
504.13	26192.94
504.30	26838.92
504.48	26396.56
504.65	26663.38
504.83	26799.13
505.01	26766.37
505.18	26836.58
505.36	26888.07
505.53	27138.51
505.71	27447.46
505.88	27232.13
506.06	27005.10
506.23	27484.91
506.41	27562.15
506.58	27367.88
506.76	27805.56
506.93	27613.64
507.11	27861.74
507.28	27821.95
507.46	27772.80
507.63	28137.92
507.81	28507.72
507.98	27950.68
508.16	28128.56
508.33	28547.51
508.50	28254.95
508.68	28453.89
508.85	28856.46
509.03	28531.13
509.20	28463.25
509.38	28950.09
509.55	29188.82
509.73	29003.92
509.90	29350.32
510.08	29291.80
510.25	28994.56
510.42	29308.19
510.60	29179.46
510.77	29495.43
510.95	29748.21
511.12	29687.36
511.30	29923.75
511.47	29874.60
511.64	29626.50
511.82	30094.61
511.99	29926.09
512.17	30199.93
512.34	30218.66
512.51	30480.80
512.69	30316.96
512.86	30445.69
513.04	30370.79
513.21	30838.90
513.38	30773.36
513.56	30787.41
513.73	30625.91
513.90	31157.21
514.08	30871.67
514.25	31197.00
514.43	31302.32
514.60	31524.68
514.77	31351.48
514.95	31433.39
515.12	31648.72
515.29	31641.70
515.47	31393.61
515.64	32156.62
515.81	31878.10
515.99	31833.63
516.16	32259.60
516.33	32039.59
516.51	32133.21
516.68	32273.65
516.85	32161.30
517.03	32311.10
517.20	32601.32
517.37	32797.93
517.54	32481.95
517.72	32929.00
517.89	32844.74
518.06	32968.79
518.24	32559.19
518.41	32713.67
518.58	32826.01
518.75	32669.20
518.93	33167.73
519.10	32830.69
519.27	33516.47
519.45	32879.85
519.62	33104.54
519.79	33450.94
519.96	33310.50
520.14	33137.30
520.31	33338.59
520.48	33703.71
520.65	33673.29
520.83	33832.44
521.00	34230.33
521.17	34146.08
521.34	34227.99
521.52	33977.56
521.69	34284.17
521.86	34501.84
522.03	34560.35
522.20	34747.59
522.38	34707.80
522.55	35112.72
522.72	34539.29
522.89	34314.59
523.07	35435.71
523.24	35220.38
523.41	35138.46
523.58	35063.57
523.75	35182.93
523.92	35255.49
524.10	35091.65
524.27	35321.02
524.44	35393.58
524.61	35531.67
524.78	35667.42
524.96	35943.61
525.13	35978.72
525.30	35515.29
525.47	35702.53
525.64	35945.95
525.81	35660.40
525.98	35955.31
526.16	35952.97
526.33	36189.36
526.50	36456.18
526.67	36079.36
526.84	35969.35
527.01	36009.14
527.18	36233.83
527.36	36432.78
527.53	36634.06
527.70	36613.00
527.87	36837.69
528.04	36673.85
528.21	36634.06
528.38	36591.94
528.55	36605.98
528.72	36875.14
528.89	36559.17
529.07	36765.14
529.24	36673.85
529.41	37116.22
529.58	37076.43
529.75	36996.85
529.92	37486.02
530.09	37347.93
530.26	37275.37
530.43	37776.25
530.60	37441.55
530.77	37551.56
530.94	37743.48
531.11	37626.45
531.28	37631.13
531.46	37773.91
531.63	37317.50
531.80	37792.63
531.97	38139.03
532.14	37895.61
532.31	38148.39
532.48	37942.42
532.65	38288.82
532.82	38354.36
532.99	38068.81
533.16	38134.35
533.33	38066.47
533.50	38141.37
533.67	38780.34
533.84	38253.72
534.01	38684.37
534.18	38492.45
534.35	38756.93
534.52	38684.37
534.69	39005.03
534.86	39126.74
535.03	38852.89
535.20	38733.53
535.37	39421.64
535.54	39522.29
535.71	39145.46
535.88	39234.40
536.05	38817.78
536.22	39564.42
536.38	39213.34
536.55	39641.65
536.72	39477.82
536.89	39290.57
537.06	39550.37
537.23	39702.51
537.40	39367.81
537.57	39569.10
537.74	39681.44
537.91	39997.41
538.08	39796.13
538.25	39583.14
538.42	39618.25
538.59	40149.55
538.75	39952.94
538.92	40004.44
539.09	39910.82
539.26	40264.24
539.43	40105.08
539.60	40327.43
539.77	40301.68
539.94	40360.20
540.11	40409.35
540.28	40275.94
540.44	40659.79
540.61	40512.33
540.78	40149.55
540.95	40371.90
541.12	40196.36
541.29	40311.05
541.46	40818.94
541.62	40928.95
541.79	41083.42
541.96	40205.72
542.13	40610.64
542.30	40678.51
542.47	41038.95
542.63	41256.62
542.80	41343.22
542.97	41296.41
543.14	41530.47
543.31	41488.34
543.48	41167.68
543.64	41874.52
543.81	42202.20
543.98	41893.25
544.15	41614.72
544.32	41497.70
544.48	41703.67
544.65	41993.89
544.82	42190.50
544.99	41909.63
545.16	41876.86
545.32	41748.14
545.49	41783.24
545.66	42504.13
545.83	42211.56
546.00	42064.11
546.16	41703.67
546.33	41935.38
546.50	41879.21
546.67	42363.70
546.83	41972.83
547.00	42117.94
547.17	42408.17
547.34	42635.20
547.50	42693.71
547.67	43049.47
547.84	42382.42
548.00	42588.39
548.17	42885.64
548.34	43208.63
548.51	42902.02
548.67	42951.17
548.84	42895.00
549.01	43049.47
549.18	42941.81
549.34	43077.56
549.51	43096.28
549.68	43044.79
549.84	43213.31
550.01	43262.46
550.18	43239.06
550.34	43236.72
550.51	43100.97
550.68	43873.34
550.84	43241.40
551.01	43482.47
551.18	42890.32
551.34	43105.65
551.51	43377.15
551.68	43189.91
551.84	43531.62
552.01	43222.67
552.18	43339.70
552.34	43555.03
552.51	43459.07
552.68	43800.79
552.84	43744.61
553.01	43709.50
553.18	43608.86
553.34	43957.60
553.51	43995.05
553.67	44119.10
553.84	43831.21
554.01	43840.57
554.17	43969.30
554.34	44355.49
554.51	44006.75
554.67	44121.44
554.84	45118.51
555.00	44144.84
555.17	44023.14
555.33	44502.95
555.50	44222.08
555.67	44399.96
555.83	44346.13
556.00	44708.91
556.16	44545.08
556.33	44495.92
556.50	44432.73
556.66	44498.26
556.83	44367.20
556.99	44678.49
557.16	44807.22
557.32	45251.92
557.49	44851.69
557.65	44313.36
557.82	44680.83
557.98	44725.30
558.15	44437.41
558.32	44830.62
558.48	44610.61
558.65	44872.75
558.81	44694.87
558.98	44643.38
559.14	44921.90
559.31	45001.48
559.47	44825.94
559.64	44851.69
559.80	45347.88
559.97	45352.56
560.13	44832.96
560.30	45022.54
560.46	45268.30
560.63	45399.37
560.79	44973.39
560.96	45581.93
561.12	45179.36
561.29	45216.81
561.45	45446.18
561.61	45043.61
561.78	45319.79
561.94	44886.79
562.11	45436.82
562.27	45371.28
562.44	45282.34
562.60	45413.41
562.77	45478.95
562.93	45361.92
563.10	45652.15
563.26	45064.67
563.42	45996.21
563.59	45120.85
563.75	45888.54
563.92	45289.37
564.08	45151.27
564.24	45743.43
564.41	45422.78
564.57	45347.88
564.74	45900.25
564.90	45610.02
565.07	45713.00
565.23	45366.60
565.39	45764.49
565.56	45659.17
565.72	45478.95
565.88	45986.85
566.05	45808.96
566.21	46080.47
566.38	45937.69
566.54	45909.61
566.70	45881.52
566.87	45933.01
567.03	45977.48
567.19	46195.15
567.36	46005.57
567.52	45794.92
567.68	46117.92
567.85	46064.08
568.01	45951.74
568.17	45956.42
568.34	46000.89
568.50	45710.66
568.66	46260.69
568.83	45902.59
568.99	45790.24
569.15	46527.51
569.32	46089.83
569.48	45982.16
569.64	46295.80
569.81	46660.92
569.97	46497.08
570.13	46665.60
570.30	45928.33
570.46	46560.28
570.62	46469.00
570.78	46096.85
570.95	45986.85
571.11	46450.27
571.27	46244.30
571.43	46295.80
571.60	46571.98
571.76	46450.27
571.92	46529.85
572.09	46293.46
572.25	46323.88
572.41	46143.66
572.57	46471.34
572.74	46651.56
572.90	46541.55
573.06	46635.17
573.22	46817.74
573.38	46536.87
573.55	46553.26
573.71	46724.11
573.87	46892.63
574.03	46611.77
574.20	46916.04
574.36	46417.50
574.52	46438.57
574.68	46703.05
574.84	46990.94
575.01	46405.80
575.17	46576.66
575.33	46822.42
575.49	46323.88
575.65	46677.30
575.82	46370.69
575.98	46583.68
576.14	46958.17
576.30	46649.22
576.46	46822.42
576.62	46625.81
576.79	46735.82
576.95	46309.84
577.11	46389.42
577.27	46656.24
577.43	46801.35
577.59	46897.31
577.75	46644.54
577.92	46567.30
578.08	46735.82
578.24	47082.22
578.40	46679.64
578.56	46834.12
578.72	46747.52
578.88	46801.35
579.04	46457.29
579.21	46263.03
579.37	47070.51
579.53	46925.40
579.69	46389.42
579.85	46351.97
580.01	47363.08
580.17	46380.06
580.33	47091.58
580.49	46756.88
580.65	46806.03
580.82	46838.80
580.98	46532.19
581.14	46508.79
581.30	46752.20
581.46	46473.68
581.62	46820.08
581.78	47035.41
581.94	46621.13
582.10	46897.31
582.26	47000.30
582.42	46712.41
582.58	47327.97
582.74	47014.34
582.90	47026.04
583.06	46909.02
583.22	46461.97
583.38	47037.75
583.54	47138.39
583.70	46831.78
583.86	46859.87
584.02	46913.70
584.18	47327.97
584.34	47103.28
584.50	47510.53
584.66	47110.30
584.82	46885.61
584.98	47374.78
585.14	46955.83
585.30	46883.27
585.46	46749.86
585.62	46817.74
585.78	47042.43
585.94	46635.17
586.10	47068.17
586.26	46871.57
586.42	47154.77
586.58	47309.25
586.74	47026.04
586.90	46419.84
587.06	46782.63
587.22	46899.65
587.38	46841.14
587.54	47110.30
587.70	47405.21
587.86	47339.68
588.02	46864.55
588.18	46724.11
588.34	47014.34
588.49	47215.63
588.65	47072.85
588.81	47613.52
588.97	47110.30
589.13	47056.47
589.29	47150.09
589.45	47576.07
589.61	47381.80
589.77	47222.65
589.93	47349.04
590.08	47398.19
590.24	47540.96
590.40	47559.69
590.56	47854.59
590.72	47290.52
590.88	47283.50
591.04	47203.92
591.20	47309.25
591.35	47709.48
591.51	47873.32
591.67	47952.90
591.83	47676.71
591.99	47112.64
592.15	47426.28
592.31	47363.08
592.46	47372.44
592.62	47393.51
592.78	47515.22
592.94	47775.02
593.10	47585.43
593.26	48034.81
593.41	47952.90
593.57	47480.11
593.73	47641.60
593.89	48095.67
594.05	48121.41
594.20	47772.67
594.36	48271.21
594.52	47777.36
594.68	47683.73
594.84	47683.73
594.99	47847.57
595.15	47636.92
595.31	47557.35
595.47	47531.60
595.62	47716.50
595.78	47571.39
595.94	47650.97
596.10	47688.42
596.25	47704.80
596.41	47920.13
596.57	47611.18
596.73	48203.33
596.88	47950.56
597.04	48051.20
597.20	47901.40
597.36	47557.35
597.51	47690.76
597.67	47547.98
597.83	47515.22
597.99	47786.72
598.14	47419.25
598.30	47915.45
598.46	47461.38
598.61	48002.05
598.77	47976.30
598.93	48147.16
599.09	47812.46
599.24	48074.60
599.40	47938.85
599.56	47978.64
599.71	48294.61
599.87	48182.27
600.03	48296.95
600.18	47749.27
600.34	48046.52
600.50	47936.51
600.65	47732.89
600.81	48013.75
600.97	48023.11
601.12	48318.02
601.28	47978.64
601.44	47976.30
601.59	47782.04
601.75	47613.52
601.91	48123.75
602.06	48018.43
602.22	48062.90
602.37	47643.94
602.53	47976.30
602.69	48048.86
602.84	47770.33
603.00	47777.36
603.16	48041.84
603.31	47866.30
603.47	47931.83
603.62	47515.22
603.78	47990.34
603.94	48046.52
604.09	48060.56
604.25	47454.36
604.40	47615.86
604.56	47934.17
604.71	48498.24
604.87	47847.57
605.03	47646.29
605.18	47856.93
605.34	47807.78
605.49	47735.23
605.65	48231.42
605.80	47571.39
605.96	47449.68
606.12	47936.51
606.27	47971.62
606.43	47711.82
606.58	48158.86
606.74	48002.05
606.89	47952.90
607.05	48112.05
607.20	47838.21
607.36	47812.46
607.51	47463.72
607.67	47906.08
607.82	48081.63
607.98	47718.84
608.13	47908.43
608.29	47402.87
608.44	47934.17
608.60	47370.10
608.75	48004.39
608.91	47632.24
609.06	47428.62
609.22	48184.61
609.37	47398.19
609.53	48020.77
609.68	47676.71
609.84	47503.51
609.99	47917.79
610.15	47777.36
610.30	47627.56
610.46	47487.13
610.61	47292.86
610.76	47416.91
610.92	47718.84
611.07	47222.65
611.23	47508.19
611.38	47454.36
611.54	47246.05
611.69	47683.73
611.84	47821.83
612.00	47445.00
612.15	47246.05
612.31	47653.31
612.46	47110.30
612.62	47180.52
612.77	47412.23
612.92	47426.28
613.08	47489.47
613.23	47269.46
613.39	47320.95
613.54	46684.33
613.69	47765.65
613.85	47040.09
614.00	47419.25
614.15	47159.45
614.31	47189.88
614.46	46939.44
614.62	46770.93
614.77	47253.08
614.92	47201.58
615.08	46967.53
615.23	47454.36
615.38	47126.69
615.54	46967.53
615.69	47414.57
615.84	47423.93
616.00	47550.32
616.15	47288.18
616.30	47147.75
616.46	47042.43
616.61	46899.65
616.76	47061.15
616.92	47136.05
617.07	46920.72
617.22	46969.87
617.37	46579.00
617.53	46796.67
617.68	46939.44
617.83	46522.83
617.99	47234.35
618.14	46761.56
618.29	46916.04
618.45	46693.69
618.60	46323.88
618.75	46735.82
618.90	46307.50
619.06	46635.17
619.21	46628.15
619.36	46726.46
619.51	46323.88
619.67	46473.68
619.82	46806.03
619.97	46693.69
620.12	46951.15
620.28	46550.91
620.43	46625.81
620.58	46686.67
620.73	46429.21
620.89	46873.91
621.04	46637.51
621.19	46520.49
621.34	46632.83
621.49	46153.02
621.65	46649.22
621.80	46602.41
621.95	46396.44
622.10	46679.64
622.25	46497.08
622.41	46354.31
622.56	46562.62
622.71	46478.36
622.86	46272.39
623.01	46644.54
623.16	46258.35
623.32	46529.85
623.47	46609.43
623.62	46356.65
623.77	46358.99
623.92	46316.86
624.07	46134.30
624.23	46295.80
624.38	46319.20
624.53	46403.46
624.68	45713.00
624.83	45762.15
624.98	46136.64
625.13	45455.54
625.29	46211.54
625.44	45888.54
625.59	46092.17
625.74	45769.18
625.89	45668.53
626.04	45663.85
626.19	45673.21
626.34	45720.02
626.49	45715.34
626.65	45366.60
626.80	45705.98
626.95	45202.77
627.10	45125.53
627.25	45701.30
627.40	45436.82
627.55	45780.88
627.70	45324.47
627.85	45900.25
628.00	45752.79
628.15	45277.66
628.30	44905.52
628.45	44814.24
628.60	45052.97
628.76	44987.44
628.91	45195.74
629.06	44720.62
629.21	44942.97
629.36	44999.14
629.51	44933.60
629.66	45401.71
629.81	45235.53
629.96	45160.64
630.11	44931.26
630.26	44938.29
630.41	45099.78
630.56	44910.20
630.71	44966.37
630.86	45003.82
631.01	44949.99
631.16	44470.18
631.31	45195.74
631.46	44505.29
631.61	44690.19
631.76	44900.84
631.91	44790.83
632.06	45375.97
632.21	45113.83
632.36	45092.76
632.51	44486.56
632.66	44978.07
632.81	44516.99
632.96	44308.68
633.10	44816.58
633.25	44687.85
633.40	44397.62
633.55	45191.06
633.70	44151.87
633.85	44287.62
634.00	44626.99
634.15	44463.16
634.30	44179.95
634.45	43826.53
634.60	44547.42
634.75	44610.61
634.90	44706.57
635.05	44509.97
635.19	44641.04
635.34	44240.81
635.49	44107.40
635.64	44364.85
635.79	44322.72
635.94	44055.90
636.09	44491.24
636.24	44137.82
636.39	44453.79
636.53	44322.72
636.68	43709.50
636.83	43917.81
636.98	43791.42
637.13	43906.11
637.28	43744.61
637.43	43505.88
637.57	44058.24
637.72	43510.56
637.87	44100.37
638.02	43959.94
638.17	43599.50
638.32	43880.36
638.46	43512.90
638.61	43292.89
638.76	43674.40
638.91	43571.41
639.06	43367.79
639.20	43276.51
639.35	43440.34
639.50	43140.75
639.65	43931.86
639.80	43400.55
639.94	43517.58
640.09	43393.53
640.24	43667.37
640.39	43180.54
640.54	43304.59
640.68	43508.22
640.83	43646.31
640.98	43625.25
641.13	43164.16
641.27	43810.15
641.42	43313.95
641.57	43079.90
641.72	43086.92
641.86	43562.05
642.01	42693.71
642.16	43068.20
642.31	42831.80
642.45	43033.09
642.60	42525.19
642.75	42911.38
642.90	43117.35
643.04	43026.07
643.19	42777.97
643.34	42504.13
643.48	42689.03
643.63	42770.95
643.78	42693.71
643.93	42838.83
644.07	43126.71
644.22	42951.17
644.37	42525.19
644.51	43042.45
644.66	43157.14
644.81	42628.18
644.95	42857.55
645.10	42834.14
645.25	42323.91
645.39	42684.35
645.54	42518.17
645.69	42270.08
645.83	42555.62
645.98	42473.70
646.13	42967.55
646.27	42614.13
646.42	42522.85
646.57	42192.84
646.71	42703.07
646.86	42689.03
647.00	42672.65
647.15	42202.20
647.30	42361.36
647.44	42462.00
647.59	42176.45
647.74	42024.32
647.88	42026.66
648.03	42520.51
648.17	42064.11
648.32	42471.36
648.47	42543.92
648.61	42190.50
648.76	42115.60
648.90	42197.52
649.05	41991.55
649.20	41855.80
649.34	42174.11
649.49	41776.22
649.63	42080.49
649.78	41977.51
649.92	41563.23
650.07	42466.68
650.21	41977.51
650.36	42237.31
650.51	42082.83
650.65	42078.15
650.80	42096.88
650.94	41572.60
651.09	41645.15
651.23	41345.56
651.38	41502.38
651.52	41771.54
651.67	41411.10
651.81	41769.20
651.96	41493.02
652.10	41329.18
652.25	41401.74
652.39	41364.29
652.54	41549.19
652.68	41343.22
652.83	41642.81
652.97	41921.34
653.12	41521.10
653.26	41434.50
653.41	41401.74
653.55	41514.08
653.70	41551.53
653.84	41773.88
653.99	41298.75
654.13	41172.36
654.27	41139.60
654.42	41097.47
654.56	41305.77
654.71	41060.02
654.85	41163.00
655.00	40795.54
655.14	41275.35
655.29	41368.97
655.43	40992.14
655.57	41165.34
655.72	40903.20
655.86	40835.33
656.01	40910.22
656.15	40498.29
656.30	40559.14
656.44	40807.24
656.58	40898.52
656.73	41050.66
656.87	40465.52
657.01	40594.25
657.16	40847.03
657.30	41034.27
657.45	40507.65
657.59	40395.31
657.73	40250.19
657.88	40055.93
658.02	40446.80
658.16	40893.84
658.31	40418.71
658.45	39992.73
658.60	40119.12
658.74	40577.87
658.88	40268.92
659.03	40093.38
659.17	40163.59
659.31	40460.84
659.46	39646.33
659.60	40240.83
659.74	39721.23
659.89	39922.52
660.03	39515.26
660.17	39559.73
660.32	39915.50
660.46	39807.83
660.60	39381.85
660.74	39285.89
660.89	39948.26
661.03	39634.63
661.17	38799.06
661.32	39290.57
661.46	39281.21
661.60	39007.37
661.74	39019.07
661.89	39398.24
662.03	39185.25
662.17	39005.03
662.31	38965.24
662.46	39210.99
662.60	38969.92
662.74	38897.36
662.88	38452.66
663.03	38951.20
663.17	38473.73
663.31	38560.33
663.45	38712.46
663.60	38939.49
663.74	38644.59
663.88	38583.73
664.02	38330.95
664.17	38494.79
664.31	38415.21
664.45	38415.21
664.59	38155.41
664.73	38012.64
664.88	37897.95
665.02	37792.63
665.16	37951.79
665.30	37970.51
665.44	38082.86
665.59	37546.87
665.73	38019.66
665.87	37291.76
666.01	37738.80
666.15	37736.46
666.29	37621.77
666.44	37656.88
666.58	37605.39
666.72	37624.11
666.86	37759.86
667.00	37495.38
667.14	37237.92
667.28	37493.04
667.43	37696.67
667.57	36935.99
667.71	36797.90
667.85	37420.48
667.99	36994.51
668.13	36886.84
668.27	37074.09
668.41	36816.63
668.56	36449.16
668.70	36912.59
668.84	36142.55
668.98	36177.66
669.12	36622.36
669.26	36671.51
669.40	36318.09
669.54	36318.09
669.68	36446.82
669.82	36182.34
669.96	35903.82
670.10	35913.18
670.25	35854.67
670.39	36025.53
670.53	35433.37
670.67	35943.61
670.81	36121.49
670.95	36327.45
671.09	35672.10
671.23	35775.09
671.37	35604.23
671.51	35211.02
671.65	35723.60
671.79	35065.91
671.93	35213.36
672.07	35379.54
672.21	34794.40
672.35	34553.33
672.49	35367.84
672.63	35283.58
672.77	34862.28
672.91	34595.46
673.05	34134.37
673.19	34618.86
673.33	34087.56
673.47	34588.44
673.61	34522.90
673.75	34054.79
673.89	34277.15
674.03	33743.50
674.17	33890.96
674.31	33750.52
674.45	33933.09
674.59	33598.39
674.73	33692.01
674.87	33373.70
675.01	33294.12
675.15	33303.48
675.29	32879.85
675.43	33401.79
675.56	33401.79
675.70	33191.14
675.84	32858.78
675.98	31765.75
676.12	32968.79
676.26	33209.86
676.40	32568.55
676.54	32657.49
676.68	32339.18
676.82	32369.61
676.96	32250.24
677.10	32098.11
677.23	32130.87
677.37	32027.89
677.51	31948.31
677.65	32084.06
677.79	31878.10
677.93	31964.70
678.07	31501.27
678.21	31072.95
678.34	31068.27
678.48	31236.79
678.62	31335.09
678.76	31077.63
678.90	31257.85
679.04	30656.34
679.18	31009.76
679.31	30771.02
679.45	30359.09
679.59	30469.09
679.73	30569.74
679.87	30036.09
680.00	30366.11
680.14	30022.05
680.28	30326.32
680.42	29970.56
680.56	30029.07
680.70	29764.59
680.83	29706.08
680.97	29436.92
681.11	29486.07
681.25	29326.91
681.39	28868.17
681.52	29163.08
681.66	28992.22
681.80	28432.83
681.94	28283.03
682.07	28772.21
682.21	28643.48
682.35	28264.31
682.49	28847.10
682.62	27981.10
682.76	28336.87
682.90	28512.41
683.04	28348.57
683.17	28231.54
683.31	27971.74
683.45	27917.91
683.59	27211.07
683.72	27597.26
683.86	27438.10
684.00	27175.96
684.13	27440.44
684.27	27068.30
684.41	27023.83
684.55	27501.29
684.68	26611.89
684.82	26340.39
684.96	26642.32
685.09	26284.22
685.23	26630.62
685.37	26661.04
685.50	26630.62
685.64	26501.89
685.78	26174.21
685.91	26113.36
686.05	26155.49
686.19	25631.21
686.32	25750.57
686.46	25212.25
686.60	25263.74
686.73	25488.43
686.87	25352.68
687.01	25401.83
687.14	25486.09
687.28	25369.07
687.42	25230.98
687.55	24940.75
687.69	25118.63
687.82	24980.54
687.96	24650.52
688.10	25085.86
688.23	24645.84
688.37	24505.41
688.50	24657.54
688.64	24397.74
688.78	24222.20
688.91	24449.24
689.05	24081.77
689.18	23726.01
689.32	23527.06
689.46	23566.85
689.59	23541.11
689.73	23704.95
689.86	23508.34
690.00	23351.52
690.13	23681.54
690.27	23178.33
690.41	22972.36
690.54	22700.86
690.68	22916.19
690.81	22436.38
690.95	22593.19
691.08	22272.54
691.22	22326.37
691.35	22485.53
691.49	22401.27
691.62	22221.05
691.76	22026.78
691.89	21949.54
692.03	21408.88
692.16	21647.61
692.30	21774.00
692.43	21699.11
692.57	21642.93
692.70	21434.63
692.84	21305.90
692.97	21069.50
693.11	21158.44
693.24	21008.65
693.38	20875.24
693.51	20751.19
693.65	20514.80
693.78	20718.42
693.92	20404.79
694.05	20482.03
694.19	20395.43
694.32	20350.96
694.45	20753.53
694.59	20285.42
694.72	20369.68
694.86	19943.70
694.99	19875.83
695.13	19775.19
695.26	19653.48
695.39	19693.27
695.53	19424.11
695.66	19419.42
695.80	19262.61
695.93	19447.51
696.07	19028.56
696.20	18909.19
696.33	19096.43
696.47	18717.26
696.60	18890.46
696.73	19218.14
696.87	18799.18
697.00	18595.56
697.14	18616.62
697.27	18295.97
697.40	18443.42
697.54	18523.00
697.67	18146.17
697.80	18513.64
697.94	17963.61
698.07	17963.61
698.21	17834.88
698.34	17816.16
698.47	17802.11
698.61	17305.92
698.74	17383.16
698.87	17521.25
699.01	17436.99
699.14	17324.65
699.27	17509.55
699.40	17256.77
699.54	17106.98
699.67	17092.93
699.80	17008.67
699.94	16776.96
700.07	16842.50
700.20	16760.58
700.34	16367.37
700.47	16744.19
700.60	16702.06
700.73	16676.32
700.87	16397.79
701.00	15892.24
701.13	16067.78
701.26	15866.49
701.40	16091.18
701.53	15885.22
701.66	16039.69
701.79	15927.35
701.93	15590.31
702.06	15580.95
702.19	15384.34
702.32	15527.11
702.46	15569.24
702.59	15690.95
702.72	15580.95
702.85	15173.69
702.99	15494.35
703.12	15241.57
703.25	14960.70
703.38	14871.76
703.51	14850.70
703.65	14771.12
703.78	14363.87
703.91	14501.96
704.04	14328.76
704.17	14141.52
704.31	14438.76
704.44	14537.07
704.57	14207.05
704.70	14090.02
704.83	14080.66
704.96	13928.53
705.10	13912.14
705.23	13570.43
>>>>>End Processed Spectral Data<<<<<
