SpectraSuite Data File
++++++++++++++++++++++++++++++++++++
Date: Fri Oct 25 10:48:32 EDT 2013
User: price-jones
Dark Spectrum Present: No
Reference Spectrum Present: No
Number of Sampled Component Spectra: 1
Spectrometers: USB2+H05261
Integration Time (usec): 100000 (USB2+H05261)
Spectra Averaged: 1 (USB2+H05261)
Boxcar Smoothing: 0 (USB2+H05261)
Correct for Electrical Dark: No (USB2+H05261)
Strobe/Lamp Enabled: No (USB2+H05261)
Correct for Detector Non-linearity: No (USB2+H05261)
Correct for Stray Light: No (USB2+H05261)
Number of Pixels in Processed Spectrum: 2048
>>>>>Begin Processed Spectral Data<<<<<
365.73	177.88
365.92	177.88
366.12	177.88
366.32	32.77
366.52	74.90
366.72	84.26
366.91	42.13
367.11	21.06
367.31	44.47
367.51	30.43
367.70	9.36
367.90	65.54
368.10	65.54
368.30	44.47
368.49	23.41
368.69	37.45
368.89	100.64
369.09	93.62
369.28	117.03
369.48	37.45
369.68	42.13
369.87	124.05
370.07	100.64
370.27	250.44
370.47	168.52
370.66	397.89
370.86	521.94
371.06	458.74
371.25	545.34
371.45	435.34
371.65	461.09
371.84	463.43
372.04	500.87
372.24	491.51
372.44	521.94
372.63	472.79
372.83	545.34
373.03	554.71
373.22	538.32
373.42	486.83
373.62	519.60
373.81	535.98
374.01	582.79
374.21	596.84
374.40	589.82
374.60	620.24
374.79	627.26
374.99	582.79
375.19	564.07
375.38	599.18
375.58	578.11
375.78	608.54
375.97	674.07
376.17	711.52
376.37	589.82
376.56	620.24
376.76	643.65
376.95	667.05
377.15	660.03
377.35	713.86
377.54	695.14
377.74	655.35
377.93	718.54
378.13	690.46
378.33	641.31
378.52	624.92
378.72	704.50
378.91	702.16
379.11	655.35
379.31	571.09
379.50	704.50
379.70	755.99
379.89	720.88
380.09	748.97
380.28	739.61
380.48	716.20
380.68	720.88
380.87	751.31
381.07	751.31
381.26	760.67
381.46	758.33
381.65	791.10
381.85	713.86
382.04	699.82
382.24	798.12
382.43	706.84
382.63	763.01
382.83	739.61
383.02	821.53
383.22	814.51
383.41	758.33
383.61	725.57
383.80	823.87
384.00	875.36
384.19	926.85
384.39	823.87
384.58	851.96
384.78	873.02
384.97	788.76
385.17	760.67
385.36	849.61
385.56	826.21
385.75	889.40
385.95	922.17
386.14	830.89
386.34	828.55
386.53	917.49
386.72	856.64
386.92	933.87
387.11	861.32
387.31	922.17
387.50	849.61
387.70	868.34
387.89	833.23
388.09	849.61
388.28	877.70
388.48	952.60
388.67	987.71
388.86	901.11
389.06	945.58
389.25	940.90
389.45	1027.50
389.64	947.92
389.84	994.73
390.03	1022.81
390.22	1057.92
390.42	1100.05
390.61	980.68
390.81	1097.71
391.00	1083.67
391.19	1050.90
391.39	1174.95
391.58	1111.75
391.78	1102.39
391.97	1083.67
392.16	1055.58
392.36	1153.88
392.55	1109.41
392.75	1029.84
392.94	1015.79
393.13	1050.90
393.33	1071.97
393.52	1048.56
393.71	1100.05
393.91	1060.26
394.10	1116.44
394.29	1193.67
394.49	1210.06
394.68	1296.66
394.88	1196.01
395.07	1270.91
395.26	1188.99
395.46	1228.78
395.65	1317.72
395.84	1310.70
396.04	1301.34
396.23	1184.31
396.42	1228.78
396.62	1128.14
396.81	1233.46
397.00	1289.64
397.19	1355.17
397.39	1434.75
397.58	1401.98
397.77	1490.92
397.97	1413.68
398.16	1418.36
398.35	1572.84
398.55	1530.71
398.74	1427.73
398.93	1650.08
399.12	1540.07
399.32	1521.35
399.51	1493.26
399.70	1586.88
399.90	1633.69
400.09	1673.48
400.28	1685.19
400.47	1678.16
400.67	1598.59
400.86	1722.63
401.05	1785.83
401.24	1666.46
401.44	1720.29
401.63	1785.83
401.82	1790.51
402.01	1636.03
402.21	1724.97
402.40	1781.15
402.59	1881.79
402.78	1764.76
402.97	1804.55
403.17	1872.43
403.36	1802.21
403.55	1961.37
403.74	1921.58
403.93	1870.09
404.13	1944.99
404.32	1806.89
404.51	1849.02
404.70	1942.64
404.89	1916.90
405.09	2054.99
405.28	2022.22
405.47	1980.09
405.66	2080.74
405.85	1944.99
406.05	1982.43
406.24	2092.44
406.43	2019.88
406.62	2066.69
406.81	2134.57
407.00	2162.66
407.20	2071.37
407.39	2118.18
407.58	2169.68
407.77	2221.17
407.96	2223.51
408.15	2291.38
408.34	2265.64
408.54	2356.92
408.73	2186.06
408.92	2368.62
409.11	2455.22
409.30	2258.62
409.49	2289.04
409.68	2256.28
409.87	2317.13
410.07	2331.17
410.26	2387.35
410.45	2392.03
410.64	2518.42
410.83	2513.74
411.02	2511.39
411.21	2495.01
411.40	2623.74
411.59	2555.86
411.78	2595.65
411.98	2672.89
412.17	2684.59
412.36	2850.77
412.55	2773.53
412.74	2736.09
412.93	2729.06
413.12	2710.34
413.31	2958.44
413.50	2944.39
413.69	2932.69
413.88	3131.64
414.07	2906.95
414.26	2974.82
414.45	3063.76
414.64	2977.16
414.83	3052.06
415.02	3110.57
415.22	3033.33
415.41	3103.55
415.60	3187.81
415.79	3166.74
415.98	3368.03
416.17	3438.25
416.36	3243.98
416.55	3293.13
416.74	3461.65
416.93	3300.16
417.12	3307.18
417.31	3407.82
417.50	3391.44
417.69	3492.08
417.88	3344.63
418.07	3527.19
418.26	3541.23
418.45	3599.74
418.64	3648.90
418.83	3585.70
419.02	3492.08
419.21	3597.40
419.39	3676.98
419.58	3634.85
419.77	3499.10
419.96	3730.81
420.15	3721.45
420.34	3709.75
420.53	3904.01
420.72	3934.44
420.91	3913.38
421.10	3852.52
421.29	4037.42
421.48	3864.22
421.67	4028.06
421.86	3709.75
422.05	3932.10
422.24	3796.35
422.43	3796.35
422.61	3887.63
422.80	3985.93
422.99	4140.41
423.18	4086.58
423.37	3896.99
423.56	4044.45
423.75	4152.11
423.94	3873.59
424.13	3801.03
424.32	3843.16
424.50	4196.58
424.69	4039.76
424.88	4131.05
425.07	3925.08
425.26	4042.11
425.45	3911.04
425.64	4091.26
425.83	4142.75
426.01	4177.86
426.20	4154.45
426.39	4016.36
426.58	3946.14
426.77	4016.36
426.96	4107.64
427.15	4037.42
427.33	4177.86
427.52	4222.33
427.71	4147.43
427.90	4337.01
428.09	4362.76
428.28	4222.33
428.46	4198.92
428.65	4234.03
428.84	4393.19
429.03	4306.59
429.22	4161.47
429.40	4313.61
429.59	4285.52
429.78	3913.38
429.97	3941.46
430.16	4065.51
430.34	4138.07
430.53	4252.75
430.72	4154.45
430.91	4313.61
431.10	4290.20
431.28	4587.45
431.47	4645.96
431.66	4727.88
431.85	4592.13
432.03	4662.35
432.22	4762.99
432.41	4748.95
432.60	4725.54
432.79	4849.59
432.97	4858.95
433.16	4861.29
433.35	4692.77
433.54	4774.69
433.72	4777.03
433.91	4849.59
434.10	4901.08
434.28	4746.61
434.47	4950.23
434.66	4875.34
434.85	5104.71
435.03	5125.77
435.22	5025.13
435.41	5226.42
435.59	5097.69
435.78	5378.55
435.97	5191.31
436.16	5247.48
436.34	5135.14
436.53	5280.25
436.72	5315.36
436.90	5247.48
437.09	5362.17
437.28	5263.86
437.46	5191.31
437.65	5231.10
437.84	5352.81
438.02	5280.25
438.21	5287.27
438.40	5210.03
438.58	5544.73
438.77	5479.19
438.96	5645.37
439.14	5668.78
439.33	5717.93
439.52	5764.74
439.70	5736.65
439.89	5746.02
440.08	5844.32
440.26	5893.47
440.45	5863.04
440.63	6019.86
440.82	6036.24
441.01	5900.49
441.19	6256.25
441.38	6162.63
441.57	6317.11
441.75	6202.42
441.94	6211.78
442.12	6401.37
442.31	6389.66
442.50	6452.86
442.68	6361.58
442.87	6387.32
443.05	6445.84
443.24	6581.59
443.43	6511.37
443.61	6675.21
443.80	6682.23
443.98	6352.21
444.17	6513.71
444.35	6703.29
444.54	6707.98
444.73	6691.59
444.91	6665.85
445.10	6665.85
445.28	6778.19
445.47	6565.20
445.65	6480.94
445.84	6544.14
446.02	6719.68
446.21	6686.91
446.39	6752.45
446.58	6654.14
446.77	6780.53
446.95	6698.61
447.14	6836.70
447.32	6995.86
447.51	6693.93
447.69	6644.78
447.88	6918.62
448.06	6860.11
448.25	6773.51
448.43	6864.79
448.62	6649.46
448.80	6775.85
448.99	6974.80
449.17	6986.50
449.36	7012.24
449.54	7068.42
449.73	7250.98
449.91	7241.62
450.10	7389.07
450.28	7288.43
450.46	7302.47
450.65	7321.20
450.83	7356.30
451.02	7199.49
451.20	7531.84
451.39	7290.77
451.57	7370.35
451.76	7234.60
451.94	7375.03
452.13	7379.71
452.31	7283.75
452.49	7250.98
452.68	7386.73
452.86	7288.43
453.05	7545.89
453.23	7473.33
453.42	7442.90
453.60	7651.21
453.78	7597.38
453.97	7513.12
454.15	7391.41
454.34	7456.95
454.52	7616.10
454.70	7836.11
454.89	7770.58
455.07	7705.04
455.26	7716.75
455.44	7948.46
455.62	7922.71
455.81	7768.24
455.99	7749.51
456.17	7882.92
456.36	7915.69
456.54	8028.04
456.73	7995.27
456.91	8212.94
457.09	8287.84
457.28	8507.85
457.46	8131.02
457.64	8168.47
457.83	8287.84
458.01	8128.68
458.19	8421.25
458.38	8189.53
458.56	8404.86
458.74	8425.93
458.93	8346.35
459.11	8425.93
459.29	8519.55
459.48	8594.45
459.66	8407.20
459.84	8479.76
460.03	8592.11
460.21	8767.65
460.39	8582.74
460.57	8744.24
460.76	8798.07
460.94	8868.29
461.12	8758.28
461.31	8854.25
461.49	8594.45
461.67	8725.52
461.85	8990.00
462.04	8847.22
462.22	9301.29
462.40	9186.60
462.59	9011.06
462.77	9090.64
462.95	9092.98
463.13	9069.58
463.32	9191.28
463.50	9174.90
463.68	9385.55
463.86	9032.13
464.05	9195.96
464.23	9071.92
464.41	9317.67
464.59	9179.58
464.78	9453.42
464.96	9214.69
465.14	9130.43
465.32	9291.93
465.50	9525.98
465.69	9387.89
465.87	9350.44
466.05	9362.14
466.23	9399.59
466.41	9235.75
466.60	9720.24
466.78	9362.14
466.96	9511.94
467.14	9408.95
467.32	9317.67
467.51	9635.99
467.69	9327.03
467.87	9504.92
468.05	9521.30
468.23	9565.77
468.41	9509.60
468.60	9650.03
468.78	9757.69
468.96	9614.92
469.14	10162.61
469.32	9968.34
469.50	9834.93
469.69	9750.67
469.87	9767.06
470.05	9881.74
470.23	10085.37
470.41	9846.63
470.59	10031.54
470.77	9970.68
470.95	10303.04
471.14	10237.50
471.32	10120.48
471.50	10504.32
471.68	10401.34
471.86	10822.64
472.04	10663.48
472.22	10834.34
472.40	10621.35
472.58	10794.55
472.77	10558.16
472.95	10782.85
473.13	11080.10
473.31	10700.93
473.49	10998.18
473.67	10869.45
473.85	10803.91
474.03	11084.78
474.21	11103.50
474.39	11250.96
474.57	11410.11
474.75	11145.63
474.93	11508.41
475.12	11028.60
475.30	11311.81
475.48	11419.47
475.66	11396.07
475.84	11515.44
476.02	11587.99
476.20	11721.40
476.38	11978.86
476.56	11885.24
476.74	11999.93
476.92	11971.84
477.10	12126.32
477.28	12343.99
477.46	12388.46
477.64	12432.93
477.82	12669.32
478.00	12823.80
478.18	12674.00
478.36	12837.84
478.54	12821.45
478.72	13219.35
478.90	13097.64
479.08	13156.15
479.26	13350.42
479.44	13483.83
479.62	13383.18
479.80	13764.69
479.98	13771.71
480.16	13912.14
480.34	13523.62
480.52	13933.21
480.70	13827.88
480.88	13771.71
481.06	14181.31
481.24	14104.07
481.41	14457.49
481.59	14600.26
481.77	14937.30
481.95	14796.87
482.13	14775.80
482.31	14686.86
482.49	15105.82
482.67	15143.27
482.85	15227.53
483.03	15578.61
483.21	15522.43
483.39	15501.37
483.57	15648.82
483.74	15885.22
483.92	16030.33
484.10	15786.91
484.28	15920.32
484.46	16449.28
484.64	16475.03
484.82	16444.60
485.00	16549.93
485.18	16636.53
485.35	16821.43
485.53	16578.01
485.71	16578.01
485.89	16812.07
486.07	16503.12
486.25	16947.82
486.43	17441.67
486.61	17352.73
486.78	17486.14
486.96	17628.92
487.14	17975.31
487.32	18082.98
487.50	18398.95
487.68	18558.11
487.85	18733.65
488.03	18689.18
488.21	18956.00
488.39	18988.77
488.57	19185.37
488.75	19276.65
488.92	19601.99
489.10	19840.72
489.28	19908.60
489.46	20081.80
489.64	19775.19
489.81	20285.42
489.99	20444.58
490.17	20556.93
490.35	20769.91
490.53	20968.86
490.70	20926.73
490.88	21097.59
491.06	21366.75
491.24	21043.76
491.41	21357.39
491.59	21345.69
491.77	20931.41
491.95	21369.09
492.13	22008.06
492.30	22251.47
492.48	21949.54
492.66	22157.85
492.84	22045.51
493.01	22586.17
493.19	22312.33
493.37	22462.12
493.54	22813.20
493.72	23035.55
493.90	22815.54
494.08	23194.71
494.25	23253.22
494.43	23597.28
494.61	23887.51
494.79	23983.47
494.96	23775.16
495.14	23950.70
495.32	24147.31
495.49	24149.65
495.67	24386.04
495.85	24690.31
496.02	24533.50
496.20	24783.93
496.38	24907.98
496.55	25153.74
496.73	25443.96
496.91	25153.74
497.09	25736.53
497.26	25579.71
497.44	25507.16
497.62	25577.37
497.79	25832.49
497.97	25799.73
498.14	26103.99
498.32	26167.19
498.50	26040.80
498.67	26696.15
498.85	26190.59
499.03	26558.06
499.20	26749.98
499.38	26920.84
499.56	27161.92
499.73	26981.70
499.91	27014.46
500.08	26920.84
500.26	26862.33
500.44	27517.68
500.61	27119.79
500.79	27094.04
500.97	27454.48
501.14	27784.50
501.32	27686.20
501.49	27800.88
501.67	27751.73
501.84	27704.92
502.02	27639.39
502.20	28252.61
502.37	27995.15
502.55	28297.08
502.72	28762.84
502.90	28446.87
503.07	28453.89
503.25	28861.15
503.43	28659.86
503.60	28713.69
503.78	28732.42
503.95	28828.38
504.13	29336.27
504.30	29230.95
504.48	29343.30
504.65	29610.12
504.83	29734.17
505.01	29958.86
505.18	29830.13
505.36	30092.27
505.53	29621.82
505.71	30300.58
505.88	30169.51
506.06	29888.64
506.23	30370.79
506.41	30260.79
506.58	30534.63
506.76	30436.33
506.93	30635.27
507.11	30408.24
507.28	30593.14
507.46	30368.45
507.63	30445.69
507.81	31115.08
507.98	30691.44
508.16	31035.50
508.33	31395.95
508.50	31391.26
508.68	31023.80
508.85	31796.18
509.03	31360.84
509.20	31674.47
509.38	31817.24
509.55	31908.52
509.73	31936.61
509.90	31892.14
510.08	32034.91
510.25	32081.72
510.42	32381.31
510.60	32290.03
510.77	32463.23
510.95	32063.00
511.12	32378.97
511.30	32816.65
511.47	32919.63
511.64	33020.28
511.82	32753.46
511.99	32842.40
512.17	33570.30
512.34	32711.33
512.51	33343.27
512.69	33713.08
512.86	33343.27
513.04	33790.31
513.21	33888.62
513.38	33439.23
513.56	33425.19
513.73	33469.66
513.90	33867.55
514.08	33780.95
514.25	33790.31
514.43	33893.30
514.60	33727.12
514.77	34103.95
514.95	34052.45
515.12	34047.77
515.29	34157.78
515.47	34663.33
515.64	34714.83
515.81	34485.45
515.99	33972.88
516.16	34227.99
516.33	34270.12
516.51	34249.06
516.68	33984.58
516.85	34115.65
517.03	34206.93
517.20	34890.37
517.37	34906.75
517.54	35002.71
517.72	34831.85
517.89	34789.72
518.06	34284.17
518.24	34881.00
518.41	35014.41
518.58	35299.96
518.75	34946.54
518.93	35157.19
519.10	35115.06
519.27	35510.61
519.45	35835.94
519.62	36175.32
519.79	35892.12
519.96	36343.84
520.14	36423.42
520.31	35644.02
520.48	36198.73
520.65	36510.02
520.83	36620.02
521.00	36664.49
521.17	36503.00
521.34	36886.84
521.52	36989.83
521.69	36945.36
521.86	37319.84
522.03	36879.82
522.20	36648.11
522.38	37336.23
522.55	37422.83
522.72	37233.24
522.89	37062.38
523.07	37270.69
523.24	37001.53
523.41	37460.27
523.58	37275.37
523.75	38101.58
523.92	37708.37
524.10	37727.10
524.27	38403.51
524.44	38171.80
524.61	37823.06
524.78	37722.41
524.96	38143.71
525.13	38284.14
525.30	37954.13
525.47	38562.67
525.64	38286.48
525.81	38265.42
525.98	37996.26
526.16	38019.66
526.33	37453.25
526.50	38237.33
526.67	37928.38
526.84	38562.67
527.01	38314.57
527.18	38181.16
527.36	38890.34
527.53	38890.34
527.70	39349.09
527.87	39129.08
528.04	38895.02
528.21	39290.57
528.38	39533.99
528.55	39697.83
528.72	39533.99
528.89	39426.32
529.07	39447.39
529.24	39365.47
529.41	39409.94
529.58	39299.94
529.75	39072.90
529.92	39782.09
530.09	39662.72
530.26	39878.05
530.43	39732.93
530.60	39732.93
530.77	40257.21
530.94	40439.78
531.11	40179.98
531.28	39899.11
531.46	40430.41
531.63	40304.02
531.80	40591.91
531.97	40432.75
532.14	40172.96
532.31	40004.44
532.48	40109.76
532.65	40512.33
532.82	40126.14
532.99	40746.39
533.16	40156.57
533.33	40423.39
533.50	40514.67
533.67	40533.40
533.84	40744.05
534.01	40629.36
534.18	40912.56
534.35	41303.43
534.52	41060.02
534.69	41144.28
534.86	41216.83
535.03	40767.45
535.20	41546.85
535.37	41633.45
535.54	41837.08
535.71	41331.52
535.88	41471.95
536.05	41603.02
536.22	41432.16
536.38	41947.08
536.55	41970.49
536.72	41457.91
536.89	41148.96
537.06	41364.29
537.23	41923.68
537.40	41902.61
537.57	41996.23
537.74	41558.55
537.91	42227.95
538.08	42293.48
538.25	41918.99
538.42	41844.10
538.59	42319.23
538.75	41628.77
538.92	42298.16
539.09	42082.83
539.26	41975.17
539.43	42113.26
539.60	42141.35
539.77	42078.15
539.94	42106.24
540.11	42054.75
540.28	42316.89
540.44	42033.68
540.61	41823.03
540.78	42204.54
540.95	42951.17
541.12	42579.03
541.29	42438.59
541.46	42623.50
541.62	42707.76
541.79	43337.36
541.96	42674.99
542.13	42689.03
542.30	42761.59
542.47	43203.95
542.63	42801.38
542.80	42925.42
542.97	43332.68
543.14	43447.36
543.31	43323.32
543.48	43337.36
543.64	43861.64
543.81	44137.82
543.98	43564.39
544.15	43753.97
544.32	43625.25
544.48	44067.61
544.65	43746.95
544.82	44020.80
544.99	43365.45
545.16	43737.59
545.32	43885.04
545.49	44037.18
545.66	44357.83
545.83	44027.82
546.00	44133.14
546.16	43831.21
546.33	43854.62
546.50	43800.79
546.67	43988.03
546.83	43927.17
547.00	43978.67
547.17	43962.28
547.34	43730.57
547.50	44105.06
547.67	44402.30
547.84	44037.18
548.00	44203.36
548.17	44924.24
548.34	44411.67
548.51	44706.57
548.67	44582.52
548.84	44493.58
549.01	44453.79
549.18	44648.06
549.34	44589.55
549.51	44545.08
549.68	44680.83
549.84	44945.31
550.01	45045.95
550.18	44329.75
550.34	44882.11
550.51	44383.58
550.68	44144.84
550.84	44163.57
551.01	45036.59
551.18	44896.16
551.34	45038.93
551.51	45120.85
551.68	45191.06
551.84	45261.28
552.01	44802.53
552.18	45106.80
552.34	44809.56
552.51	45469.59
552.68	45062.33
552.84	45689.60
553.01	45317.45
553.18	45207.45
553.34	45453.20
553.51	44900.84
553.67	45453.20
553.84	45979.82
554.01	45621.72
554.17	45593.64
554.34	45570.23
554.51	45635.77
554.67	45724.71
554.84	45947.06
555.00	45624.06
555.17	45701.30
555.33	45411.07
555.50	45825.35
555.67	45860.46
555.83	45729.39
556.00	45628.74
556.16	45780.88
556.33	45654.49
556.50	45638.11
556.66	45897.91
556.83	45378.31
556.99	45993.87
557.16	46061.74
557.32	45855.78
557.49	45993.87
557.65	45504.70
557.82	45862.80
557.98	45497.67
558.15	45553.85
558.32	45993.87
558.48	45846.41
558.65	46014.93
558.81	45801.94
558.98	45844.07
559.14	46108.55
559.31	46394.10
559.47	46052.38
559.64	45909.61
559.80	46689.01
559.97	46230.26
560.13	46237.28
560.30	46181.11
560.46	46403.46
560.63	46564.96
560.79	46024.29
560.96	46373.03
561.12	46024.29
561.29	46384.74
561.45	46412.82
561.61	46094.51
561.78	46251.33
561.94	46447.93
562.11	46424.53
562.27	46171.75
562.44	46284.09
562.60	46824.76
562.77	46679.64
562.93	46330.90
563.10	46852.84
563.26	46490.06
563.42	46843.48
563.59	46225.58
563.75	46089.83
563.92	46887.95
564.08	46698.37
564.24	46490.06
564.41	46799.01
564.57	46197.49
564.74	46241.96
564.90	46777.95
565.07	46396.44
565.23	46181.11
565.39	46185.79
565.56	46813.05
565.72	46169.41
565.88	46234.94
566.05	46581.34
566.21	46412.82
566.38	46621.13
566.54	46887.95
566.70	46890.29
566.87	46813.05
567.03	46611.77
567.19	47147.75
567.36	46866.89
567.52	46370.69
567.68	47000.30
567.85	46335.59
568.01	46602.41
568.17	46251.33
568.34	46838.80
568.50	46438.57
568.66	46286.43
568.83	46979.23
568.99	46794.33
569.15	46794.33
569.32	46721.77
569.48	46546.23
569.64	46576.66
569.81	47260.10
569.97	47124.35
570.13	46756.88
570.30	46417.50
570.46	46417.50
570.62	46511.13
570.78	46480.70
570.95	46595.38
571.11	46696.03
571.27	46518.15
571.43	46789.65
571.60	46958.17
571.76	46866.89
571.92	47122.01
572.09	46869.23
572.25	46096.85
572.41	47264.78
572.57	46710.07
572.74	47456.70
572.90	47075.19
573.06	47203.92
573.22	46899.65
573.38	46752.20
573.55	46759.22
573.71	47283.50
573.87	47131.37
574.03	46698.37
574.20	47346.70
574.36	47178.18
574.52	47026.04
574.68	47082.22
574.84	47084.56
575.01	47058.81
575.17	46791.99
575.33	46667.94
575.49	46773.27
575.65	47358.40
575.82	47222.65
575.98	47058.81
576.14	46969.87
576.30	46658.58
576.46	46801.35
576.62	46946.47
576.79	46520.49
576.95	46356.65
577.11	46623.47
577.27	47028.38
577.43	47103.28
577.59	46894.97
577.75	46726.46
577.92	46480.70
578.08	46696.03
578.24	46433.89
578.40	46880.93
578.56	46997.96
578.72	47119.66
578.88	46946.47
579.04	47054.13
579.21	46880.93
579.37	46909.02
579.53	46445.59
579.69	47002.64
579.85	47217.97
580.01	47653.31
580.17	47199.24
580.33	47016.68
580.49	46974.55
580.65	47168.82
580.82	47140.73
580.98	46768.58
581.14	46635.17
581.30	47124.35
581.46	46738.16
581.62	47374.78
581.78	47402.87
581.94	47126.69
582.10	46696.03
582.26	47199.24
582.42	47349.04
582.58	47435.64
582.74	46766.24
582.90	47320.95
583.06	47327.97
583.22	47159.45
583.38	47423.93
583.54	46997.96
583.70	46955.83
583.86	47180.52
584.02	46897.31
584.18	47435.64
584.34	46665.60
584.50	47440.32
584.66	46845.82
584.82	46836.46
584.98	47168.82
585.14	46731.14
585.30	47208.61
585.46	46693.69
585.62	47002.64
585.78	46759.22
585.94	46684.33
586.10	46653.90
586.26	46958.17
586.42	47035.41
586.58	47454.36
586.74	47189.88
586.90	46820.08
587.06	46791.99
587.22	47636.92
587.38	46777.95
587.54	47185.20
587.70	47241.37
587.86	47309.25
588.02	46951.15
588.18	47180.52
588.34	46731.14
588.49	46433.89
588.65	46672.62
588.81	46639.86
588.97	46574.32
589.13	46902.00
589.29	46909.02
589.45	46831.78
589.61	46927.74
589.77	47159.45
589.93	47082.22
590.08	47510.53
590.24	47056.47
590.40	46813.05
590.56	47243.71
590.72	47721.18
590.88	46852.84
591.04	46925.40
591.20	47657.99
591.35	47203.92
591.51	47583.09
591.67	46841.14
591.83	47426.28
591.99	46862.21
592.15	46710.07
592.31	47222.65
592.46	47023.70
592.62	47416.91
592.78	47173.50
592.94	47693.10
593.10	47208.61
593.26	47229.67
593.41	47192.22
593.57	46988.60
593.73	47400.53
593.89	47618.20
594.05	46841.14
594.20	47351.38
594.36	47391.17
594.52	47262.44
594.68	46855.18
594.84	47199.24
594.99	47421.59
595.15	47377.12
595.31	47330.31
595.47	47281.16
595.62	47339.68
595.78	47744.59
595.94	47260.10
596.10	47552.66
596.25	47508.19
596.41	47379.46
596.57	47807.78
596.73	47566.71
596.88	46930.08
597.04	47515.22
597.20	47217.97
597.36	47318.61
597.51	47906.08
597.67	47344.36
597.83	47393.51
597.99	47583.09
598.14	47222.65
598.30	47283.50
598.46	47454.36
598.61	46941.78
598.77	46951.15
598.93	47047.11
599.09	47590.11
599.24	47503.51
599.40	47746.93
599.56	47447.34
599.71	47449.68
599.87	47393.51
600.03	47557.35
600.18	47349.04
600.34	47334.99
600.50	47171.16
600.65	47250.74
600.81	47716.50
600.97	47515.22
601.12	47749.27
601.28	47166.48
601.44	47196.90
601.59	47246.05
601.75	46918.38
601.91	47332.65
602.06	46761.56
602.22	47524.58
602.37	47246.05
602.53	47271.80
602.69	47496.49
602.84	47334.99
603.00	47189.88
603.16	47606.50
603.31	47098.60
603.47	46894.97
603.62	47344.36
603.78	47650.97
603.94	46934.76
604.09	47580.75
604.25	47227.33
604.40	47154.77
604.56	47007.32
604.71	47365.42
604.87	47381.80
605.03	46990.94
605.18	47468.40
605.34	47344.36
605.49	46986.25
605.65	47318.61
605.80	47468.40
605.96	47164.14
606.12	47337.33
606.27	47384.15
606.43	47192.22
606.58	47210.95
606.74	47065.83
606.89	46738.16
607.05	47126.69
607.20	47555.00
607.36	47152.43
607.51	47482.45
607.67	47440.32
607.82	47107.96
607.98	47126.69
608.13	47028.38
608.29	47023.70
608.44	46342.61
608.60	46754.54
608.75	46426.87
608.91	46248.99
609.06	46635.17
609.22	47185.20
609.37	46520.49
609.53	46972.21
609.68	47103.28
609.84	46890.29
609.99	46731.14
610.15	46616.45
610.30	46623.47
610.46	46447.93
610.61	46377.72
610.76	46478.36
610.92	46562.62
611.07	46459.63
611.23	46749.86
611.38	46373.03
611.54	46485.38
611.69	46419.84
611.84	46370.69
612.00	46017.27
612.15	46342.61
612.31	46504.10
612.46	45729.39
612.62	46766.24
612.77	46450.27
612.92	46885.61
613.08	46284.09
613.23	46241.96
613.39	46153.02
613.54	46127.28
613.69	46377.72
613.85	46433.89
614.00	46836.46
614.15	46429.21
614.31	46389.42
614.46	46263.03
614.62	45911.95
614.77	45825.35
614.92	46363.67
615.08	45881.52
615.23	46274.73
615.38	46213.88
615.54	45778.54
615.69	46312.18
615.84	45280.00
616.00	46302.82
616.15	45567.89
616.30	46066.42
616.46	45727.05
616.61	45808.96
616.76	45790.24
616.92	45303.41
617.07	45595.98
617.22	45764.49
617.37	45759.81
617.53	45729.39
617.68	45766.84
617.83	45902.59
617.99	45717.68
618.14	45581.93
618.29	45977.48
618.45	45380.65
618.60	45741.09
618.75	45448.52
618.90	45607.68
619.06	45607.68
619.21	45467.25
619.36	45694.28
619.51	45586.61
619.67	45411.07
619.82	45897.91
619.97	45874.50
620.12	45483.63
620.28	44692.53
620.43	44814.24
620.58	45022.54
620.73	45001.48
620.89	44832.96
621.04	45364.26
621.19	45148.93
621.34	44924.24
621.49	45158.30
621.65	44758.06
621.80	45162.98
621.95	44582.52
622.10	45191.06
622.25	44816.58
622.41	44851.69
622.56	45038.93
622.71	45191.06
622.86	44884.45
623.01	44772.11
623.16	44657.42
623.32	45254.26
623.47	45167.66
623.62	44849.35
623.77	44477.20
623.92	44989.78
624.07	44411.67
624.23	44582.52
624.38	44231.44
624.53	44751.04
624.68	44868.07
624.83	44748.70
624.98	44322.72
625.13	44449.11
625.29	44509.97
625.44	45003.82
625.59	44243.15
625.74	44053.56
625.89	44299.32
626.04	43903.77
626.19	44706.57
626.34	44289.96
626.49	43751.63
626.65	44334.43
626.80	44378.90
626.95	43966.96
627.10	44060.58
627.25	43693.12
627.40	44046.54
627.55	43768.02
627.70	43337.36
627.85	43519.92
628.00	43433.32
628.15	44231.44
628.30	43887.39
628.45	43782.06
628.60	43899.09
628.76	44254.85
628.91	43873.34
629.06	43826.53
629.21	43899.09
629.36	43550.35
629.51	43330.34
629.66	43075.22
629.81	43133.73
629.96	43299.91
630.11	43421.62
630.26	43548.01
630.41	43578.43
630.56	43222.67
630.71	43161.82
630.86	43302.25
631.01	43168.84
631.16	43510.56
631.31	42763.93
631.46	42822.44
631.61	43154.80
631.76	43274.16
631.91	43117.35
632.06	43807.81
632.21	43477.79
632.36	43721.21
632.51	42887.98
632.66	43491.83
632.81	42492.43
632.96	42693.71
633.10	42883.30
633.25	42625.84
633.40	42686.69
633.55	42763.93
633.70	42918.40
633.85	43030.75
634.00	42710.10
634.15	42515.83
634.30	42787.33
634.45	42616.47
634.60	42916.06
634.75	42616.47
634.90	42450.30
635.05	42525.19
635.19	42693.71
635.34	42698.39
635.49	42532.22
635.64	41820.69
635.79	42124.96
635.94	42160.07
636.09	42359.02
636.24	42272.42
636.39	41975.17
636.53	42588.39
636.68	42005.59
636.83	42094.53
636.98	42312.20
637.13	42005.59
637.28	42396.46
637.43	42909.04
637.57	42426.89
637.72	42087.51
637.87	42387.10
638.02	42274.76
638.17	42206.88
638.32	41397.06
638.46	41694.30
638.61	41675.58
638.76	41827.71
638.91	41755.16
639.06	41764.52
639.20	41837.08
639.35	42237.31
639.50	41710.69
639.65	41855.80
639.80	41729.41
639.94	41488.34
640.09	42003.25
640.24	41366.63
640.39	41490.68
640.54	41516.42
640.68	41113.85
640.83	41064.70
640.98	41701.32
641.13	41483.66
641.27	41467.27
641.42	41324.50
641.57	41493.02
641.72	41191.09
641.86	41368.97
642.01	41022.57
642.16	41298.75
642.31	40926.61
642.45	41350.24
642.60	40891.50
642.75	41265.99
642.90	41399.40
643.04	41057.68
643.19	41181.73
643.34	41179.39
643.48	41160.66
643.63	40715.96
643.78	40561.48
643.93	40715.96
644.07	40879.80
644.22	40746.39
644.37	40683.19
644.51	40538.08
644.66	40800.22
644.81	40973.42
644.95	41125.55
645.10	41280.03
645.25	41006.19
645.39	40685.53
645.54	40779.15
645.69	40517.01
645.83	40465.52
645.98	40627.02
646.13	40725.32
646.27	40935.97
646.42	40432.75
646.57	40821.28
646.71	40430.41
646.86	40542.76
647.00	40313.39
647.15	40297.00
647.30	40402.33
647.44	40011.46
647.59	40163.59
647.74	40313.39
647.88	40175.30
648.03	39821.87
648.17	40201.04
648.32	40266.58
648.47	40306.37
648.61	40198.70
648.76	40161.25
648.90	39901.45
649.05	40339.13
649.20	40095.72
649.34	40158.91
649.49	39796.13
649.63	39903.79
649.78	40076.99
649.92	39920.18
650.07	40264.24
650.21	39800.81
650.36	39784.43
650.51	40067.63
650.65	40465.52
650.80	40037.20
650.94	39931.88
651.09	40060.61
651.23	39735.27
651.38	38927.79
651.52	39475.48
651.67	39491.86
651.81	39587.82
651.96	39667.40
652.10	39442.71
652.25	39157.16
652.39	39274.19
652.54	39014.39
652.68	39381.85
652.83	39454.41
652.97	39152.48
653.12	39461.43
653.26	39423.98
653.41	39489.52
653.55	38885.66
653.70	39318.66
653.84	39674.42
653.99	38862.26
654.13	39215.68
654.27	39407.60
654.42	38808.42
654.56	38955.88
654.71	39407.60
654.85	38946.51
655.00	38981.62
655.14	38834.17
655.29	38665.65
655.43	38962.90
655.57	38300.53
655.72	38352.02
655.86	37949.45
656.01	38373.08
656.15	38260.74
656.30	38106.26
656.44	38256.06
656.58	38068.81
656.73	37888.59
656.87	38202.22
657.01	38260.74
657.16	38363.72
657.30	38012.64
657.45	37895.61
657.59	38316.91
657.73	37738.80
657.88	38192.86
658.02	38185.84
658.16	38253.72
658.31	38464.36
658.45	38462.02
658.60	38178.82
658.74	38480.75
658.88	38120.31
659.03	37542.19
659.17	37867.53
659.31	38227.97
659.46	37495.38
659.60	38115.62
659.74	37727.10
659.89	37691.99
660.03	37677.94
660.17	37813.70
660.32	37757.52
660.46	37823.06
660.60	37766.88
660.74	37654.54
660.89	38012.64
661.03	36935.99
661.17	37359.63
661.32	36769.82
661.46	37502.40
661.60	37006.21
661.74	37200.47
661.89	37542.19
662.03	37378.36
662.17	36872.80
662.31	36774.50
662.46	37060.04
662.60	37371.33
662.74	36601.30
662.88	36924.29
663.03	36987.49
663.17	36355.54
663.31	36264.26
663.45	36741.73
663.60	36367.24
663.74	35957.65
663.88	36706.62
664.02	36306.39
664.17	36411.71
664.31	35747.00
664.45	35894.46
664.59	36385.97
664.73	36451.50
664.88	36397.67
665.02	35796.15
665.16	36041.91
665.30	36257.24
665.44	35775.09
665.59	35920.20
665.73	35730.62
665.87	35672.10
666.01	35908.50
666.15	35796.15
666.29	35917.86
666.44	36208.09
666.58	35573.80
666.72	35697.85
666.86	35695.51
667.00	35534.01
667.14	35688.49
667.28	34927.81
667.43	34841.21
667.57	34911.43
667.71	35016.75
667.85	35049.52
667.99	34871.64
668.13	34611.84
668.27	34768.66
668.41	34733.55
668.56	34998.03
668.70	34836.53
668.84	35206.34
668.98	34583.76
669.12	34595.46
669.26	34459.71
669.40	34586.10
669.54	34330.98
669.68	34209.27
669.82	34309.91
669.96	34176.50
670.10	34263.10
670.25	33684.99
670.39	34019.69
670.53	33991.60
670.67	33921.38
670.81	34424.60
670.95	34216.29
671.09	34174.16
671.23	33530.51
671.37	34110.97
671.51	33680.31
671.65	33589.03
671.79	33116.24
671.93	33109.22
672.07	33497.75
672.21	33249.65
672.35	33116.24
672.49	32669.20
672.63	33453.28
672.77	32493.66
672.91	32844.74
673.05	32573.24
673.19	32879.85
673.33	33020.28
673.47	32486.64
673.61	32229.18
673.75	32367.27
673.89	32362.59
674.03	32006.83
674.17	32100.45
674.31	32231.52
674.45	31981.08
674.59	32458.55
674.73	31971.72
674.87	31995.12
675.01	32039.59
675.15	31824.26
675.29	32063.00
675.43	32203.43
675.56	31887.46
675.70	31498.93
675.84	31147.85
675.98	30703.15
676.12	31489.57
676.26	31089.34
676.40	30820.17
676.54	30920.82
676.68	30668.04
676.82	30288.87
676.96	30960.61
677.10	30712.51
677.23	30637.61
677.37	30312.28
677.51	30707.83
677.65	30525.27
677.79	30206.95
677.93	30263.13
678.07	29890.98
678.21	29677.99
678.34	29694.38
678.48	29441.60
678.62	29514.16
678.76	29500.11
678.90	29612.46
679.04	29404.15
679.18	29486.07
679.31	28858.81
679.45	29427.56
679.59	28907.96
679.73	29085.84
679.87	29104.56
680.00	28978.17
680.14	28978.17
680.28	28559.22
680.42	28828.38
680.56	28610.71
680.70	28266.65
680.83	28180.05
680.97	28137.92
681.11	28327.50
681.25	27819.61
681.39	27873.44
681.52	28156.64
681.66	27894.50
681.80	27782.16
681.94	27906.21
682.07	27431.08
682.21	27262.56
682.35	27339.80
682.49	27122.13
682.62	27388.95
682.76	26883.39
682.90	26719.56
683.04	27147.87
683.17	26803.82
683.31	26712.53
683.45	26820.20
683.59	26455.08
683.72	26106.34
683.86	26026.76
684.00	26113.36
684.13	26326.35
684.27	26352.09
684.41	25883.98
684.55	25830.15
684.68	25799.73
684.82	25500.14
684.96	25544.61
685.09	25797.38
685.23	25308.21
685.37	25425.24
685.50	25514.18
685.64	25474.39
685.78	25273.10
685.91	25329.28
686.05	24975.86
686.19	24397.74
686.32	24830.74
686.46	24402.43
686.60	24006.87
686.73	24226.89
686.87	24049.00
687.01	23477.91
687.14	23845.38
687.28	23845.38
687.42	23812.61
687.55	23606.64
687.69	23236.84
687.82	23662.82
687.96	23658.14
688.10	23335.14
688.23	23590.26
688.37	23178.33
688.50	22955.97
688.64	23002.78
688.78	23105.77
688.91	22707.88
689.05	22920.87
689.18	22586.17
689.32	22562.76
689.46	22581.49
689.59	22876.40
689.73	22621.28
689.86	22745.33
690.00	22328.71
690.13	22698.52
690.27	22384.88
690.41	22043.17
690.54	21975.29
690.68	22068.91
690.81	21631.23
690.95	21696.77
691.08	21692.08
691.22	21666.34
691.35	21673.36
691.49	21488.46
691.62	21778.68
691.76	21804.43
691.89	21762.30
692.03	21392.50
692.16	21106.95
692.30	21153.76
692.43	21015.67
692.57	20767.57
692.70	20486.71
692.84	20900.98
692.97	20603.74
693.11	20589.69
693.24	20294.79
693.38	20334.57
693.51	20088.82
693.65	20133.29
693.78	20287.76
693.92	20049.03
694.05	19985.83
694.19	19885.19
694.32	19751.78
694.45	19711.99
694.59	19555.18
694.72	19604.33
694.86	19183.03
694.99	19344.53
695.13	19218.14
695.26	19389.00
695.39	19110.47
695.53	19239.20
695.66	19225.16
695.80	19021.53
695.93	19075.37
696.07	18867.06
696.20	18799.18
696.33	18506.62
696.47	18518.32
696.60	18675.13
696.73	18515.98
696.87	18279.58
697.00	18300.65
697.14	18265.54
697.27	18380.23
697.40	18097.02
697.54	17926.16
697.67	17888.71
697.80	17638.28
697.94	17853.61
698.07	17638.28
698.21	17752.96
698.34	17881.69
698.47	17315.28
698.61	17102.29
698.74	17240.39
698.87	17114.00
699.01	16812.07
699.14	16828.45
699.27	16891.65
699.40	16912.71
699.54	16872.92
699.67	16655.25
699.80	16828.45
699.94	16521.84
700.07	16624.83
700.20	16243.32
700.34	16294.81
700.47	16526.52
700.60	16734.83
700.73	16379.07
700.87	16290.13
701.00	15962.45
701.13	16161.40
701.26	15864.15
701.40	15941.39
701.53	15824.36
701.66	15688.61
701.79	15609.03
701.93	15555.20
702.06	15379.66
702.19	15314.13
702.32	15396.04
702.46	15220.50
702.59	15201.78
702.72	15250.93
702.85	15194.76
702.99	15262.63
703.12	15136.24
703.25	15136.24
703.38	14972.41
703.51	14871.76
703.65	14586.22
703.78	14721.97
703.91	14721.97
704.04	14843.68
704.17	14710.27
704.31	14537.07
704.44	14001.08
704.57	14256.20
704.70	14108.75
704.83	14132.15
704.96	14221.10
705.10	14347.48
705.23	14167.26
>>>>>End Processed Spectral Data<<<<<
