SpectraSuite Data File
++++++++++++++++++++++++++++++++++++
Date: Fri Oct 25 10:43:20 EDT 2013
User: price-jones
Dark Spectrum Present: No
Reference Spectrum Present: No
Number of Sampled Component Spectra: 1
Spectrometers: USB2+H05261
Integration Time (usec): 100000 (USB2+H05261)
Spectra Averaged: 1 (USB2+H05261)
Boxcar Smoothing: 0 (USB2+H05261)
Correct for Electrical Dark: No (USB2+H05261)
Strobe/Lamp Enabled: No (USB2+H05261)
Correct for Detector Non-linearity: No (USB2+H05261)
Correct for Stray Light: No (USB2+H05261)
Number of Pixels in Processed Spectrum: 2048
>>>>>Begin Processed Spectral Data<<<<<
365.73	154.48
365.92	154.48
366.12	154.48
366.32	70.22
366.52	0.00
366.72	53.83
366.91	16.38
367.11	37.45
367.31	28.09
367.51	0.00
367.70	32.77
367.90	25.75
368.10	51.49
368.30	0.00
368.49	25.75
368.69	21.06
368.89	100.64
369.09	21.06
369.28	77.24
369.48	0.00
369.68	25.75
369.87	67.88
370.07	91.28
370.27	163.84
370.47	243.42
370.66	402.57
370.86	526.62
371.06	458.74
371.25	433.00
371.45	491.51
371.65	528.96
371.84	397.89
372.04	482.15
372.24	468.11
372.44	477.47
372.63	505.56
372.83	510.24
373.03	505.56
373.22	468.11
373.42	503.22
373.62	510.24
373.81	601.52
374.01	528.96
374.21	531.30
374.40	608.54
374.60	578.11
374.79	566.41
374.99	543.00
375.19	493.85
375.38	596.84
375.58	627.26
375.78	582.79
375.97	552.37
376.17	716.20
376.37	533.64
376.56	531.30
376.76	650.67
376.95	603.86
377.15	697.48
377.35	664.71
377.54	615.56
377.74	671.73
377.93	688.12
378.13	671.73
378.33	662.37
378.52	629.60
378.72	704.50
378.91	601.52
379.11	615.56
379.31	615.56
379.50	667.05
379.70	688.12
379.89	697.48
380.09	671.73
380.28	641.31
380.48	613.22
380.68	624.92
380.87	720.88
381.07	617.90
381.26	765.36
381.46	685.78
381.65	704.50
381.85	664.71
382.04	676.41
382.24	706.84
382.43	737.27
382.63	681.10
382.83	655.35
383.02	704.50
383.22	702.16
383.41	650.67
383.61	716.20
383.80	737.27
384.00	767.70
384.19	779.40
384.39	802.80
384.58	699.82
384.78	851.96
384.97	793.44
385.17	833.23
385.36	819.19
385.56	772.38
385.75	774.72
385.95	819.19
386.14	924.51
386.34	877.70
386.53	755.99
386.72	858.98
386.92	957.28
387.11	812.17
387.31	929.19
387.50	828.55
387.70	833.23
387.89	863.66
388.09	866.00
388.28	877.70
388.48	915.15
388.67	912.81
388.86	887.06
389.06	922.17
389.25	971.32
389.45	973.66
389.64	947.92
389.84	968.98
390.03	1025.15
390.22	980.68
390.42	1001.75
390.61	959.62
390.81	1029.84
391.00	1055.58
391.19	1116.44
391.39	1029.84
391.58	1086.01
391.78	1060.26
391.97	1090.69
392.16	1015.79
392.36	1165.59
392.55	940.90
392.75	1062.60
392.94	957.28
393.13	1027.50
393.33	987.71
393.52	987.71
393.71	1055.58
393.91	1034.52
394.10	1093.03
394.29	1174.95
394.49	1139.84
394.68	1219.42
394.88	1238.14
395.07	1249.85
395.26	1259.21
395.46	1275.59
395.65	1224.10
395.84	1125.80
396.04	1254.53
396.23	1247.51
396.42	1128.14
396.62	1256.87
396.81	1247.51
397.00	1207.72
397.19	1226.44
397.39	1301.34
397.58	1364.53
397.77	1439.43
397.97	1369.21
398.16	1437.09
398.35	1420.71
398.55	1490.92
398.74	1406.66
398.93	1472.20
399.12	1519.01
399.32	1439.43
399.51	1439.43
399.70	1563.48
399.90	1572.84
400.09	1598.59
400.28	1600.93
400.47	1460.49
400.67	1542.41
400.86	1591.56
401.05	1586.88
401.24	1565.82
401.44	1657.10
401.63	1769.44
401.82	1652.42
402.01	1701.57
402.21	1720.29
402.40	1699.23
402.59	1701.57
402.78	1764.76
402.97	1804.55
403.17	1813.92
403.36	1827.96
403.55	1923.92
403.74	1827.96
403.93	1856.04
404.13	1856.04
404.32	1788.17
404.51	1849.02
404.70	1895.83
404.89	1832.64
405.09	2008.18
405.28	1926.26
405.47	2031.58
405.66	2076.06
405.85	1952.01
406.05	1977.75
406.24	1973.07
406.43	1987.11
406.62	2071.37
406.81	2190.74
407.00	2069.03
407.20	1959.03
407.39	2085.42
407.58	2167.34
407.77	2113.50
407.96	2104.14
408.15	2172.02
408.34	2291.38
408.54	2157.97
408.73	2197.76
408.92	2282.02
409.11	2363.94
409.30	2228.19
409.49	2246.91
409.68	2406.07
409.87	2176.70
410.07	2331.17
410.26	2363.94
410.45	2363.94
410.64	2469.27
410.83	2487.99
411.02	2516.08
411.21	2520.76
411.40	2502.03
411.59	2509.05
411.78	2640.12
411.98	2511.39
412.17	2548.84
412.36	2785.24
412.55	2710.34
412.74	2775.88
412.93	2745.45
413.12	2635.44
413.31	2902.26
413.50	2869.50
413.69	2853.11
413.88	3040.36
414.07	2906.95
414.26	2958.44
414.45	2881.20
414.64	2857.79
414.83	2972.48
415.02	2953.76
415.22	3054.40
415.41	3056.74
415.60	3105.89
415.79	3178.45
415.98	3246.32
416.17	3222.92
416.36	3286.11
416.55	3204.19
416.74	3178.45
416.93	3258.03
417.12	3173.77
417.31	3248.66
417.50	3162.06
417.69	3463.99
417.88	3492.08
418.07	3290.79
418.26	3349.31
418.45	3524.85
418.64	3566.98
418.83	3510.80
419.02	3454.63
419.21	3506.12
419.39	3548.25
419.58	3550.59
419.77	3590.38
419.96	3651.24
420.15	3646.55
420.34	3662.94
420.53	3653.58
420.72	3737.84
420.91	3911.04
421.10	3749.54
421.29	3957.85
421.48	3676.98
421.67	3875.93
421.86	3726.13
422.05	3812.73
422.24	3789.33
422.43	3808.05
422.61	3833.80
422.80	3866.56
422.99	3880.61
423.18	3840.82
423.37	4007.00
423.56	4049.13
423.75	4014.02
423.94	3836.14
424.13	3761.24
424.32	3777.62
424.50	3885.29
424.69	3918.06
424.88	3929.76
425.07	3847.84
425.26	3943.80
425.45	3964.87
425.64	3852.52
425.83	3742.52
426.01	3955.51
426.20	4023.38
426.39	3948.48
426.58	3822.09
426.77	3758.90
426.96	3929.76
427.15	3964.87
427.33	4079.55
427.52	3997.64
427.71	4156.79
427.90	4173.18
428.09	4306.59
428.28	4058.49
428.46	4098.28
428.65	4152.11
428.84	4414.25
429.03	4308.93
429.22	4067.85
429.40	4173.18
429.59	4011.68
429.78	3955.51
429.97	4016.36
430.16	4072.53
430.34	4077.21
430.53	4044.45
430.72	4131.05
430.91	4149.77
431.10	4259.78
431.28	4465.74
431.47	4688.09
431.66	4615.54
431.85	4561.70
432.03	4652.98
432.22	4791.08
432.41	4650.64
432.60	4706.82
432.79	4650.64
432.97	4524.26
433.16	4676.39
433.35	4587.45
433.54	4695.11
433.72	4784.06
433.91	4587.45
434.10	4723.20
434.28	4816.82
434.47	4807.46
434.66	4896.40
434.85	4929.17
435.03	5093.01
435.22	5125.77
435.41	5186.63
435.59	5064.92
435.78	5060.24
435.97	5095.35
436.16	4966.62
436.34	5062.58
436.53	5226.42
436.72	5200.67
436.90	5095.35
437.09	5163.22
437.28	5020.45
437.46	5210.03
437.65	5203.01
437.84	5128.11
438.02	5139.82
438.21	5207.69
438.40	5104.71
438.58	5261.52
438.77	5275.57
438.96	5343.44
439.14	5547.07
439.33	5542.39
439.52	5540.05
439.70	5647.71
439.89	5551.75
440.08	5694.52
440.26	5544.73
440.45	5729.63
440.63	5788.14
440.82	5940.28
441.01	5788.14
441.19	6015.18
441.38	6197.74
441.57	6164.97
441.75	6171.99
441.94	6279.66
442.12	6399.02
442.31	6345.19
442.50	6214.12
442.68	6216.46
442.87	6125.18
443.05	6377.96
443.24	6331.15
443.43	6450.52
443.61	6497.33
443.80	6406.05
443.98	6359.24
444.17	6291.36
444.35	6530.09
444.54	6260.93
444.73	6455.20
444.91	6478.60
445.10	6729.04
445.28	6504.35
445.47	6427.11
445.65	6314.77
445.84	6429.45
446.02	6361.58
446.21	6382.64
446.39	6544.14
446.58	6803.94
446.77	6668.19
446.95	6532.44
447.14	6576.91
447.32	6806.28
447.51	6684.57
447.69	6633.08
447.88	6555.84
448.06	6607.33
448.25	6710.32
448.43	6633.08
448.62	6670.53
448.80	6712.66
448.99	6766.49
449.17	6712.66
449.36	6710.32
449.54	6939.69
449.73	7054.37
449.91	7007.56
450.10	7075.44
450.28	7253.32
450.46	7108.21
450.65	7166.72
450.83	7178.42
451.02	7077.78
451.20	7279.07
451.39	7300.13
451.57	7091.82
451.76	7110.55
451.94	7164.38
452.13	7148.00
452.31	7248.64
452.49	6892.88
452.68	7295.45
452.86	7082.46
453.05	7124.59
453.23	7234.60
453.42	7339.92
453.60	7325.88
453.78	7344.60
453.97	7232.26
454.15	7403.11
454.34	7290.77
454.52	7538.87
454.70	7379.71
454.89	7470.99
455.07	7487.37
455.26	7485.03
455.44	7723.77
455.62	7707.38
455.81	7747.17
455.99	7625.47
456.17	7747.17
456.36	7761.22
456.54	7885.26
456.73	7983.57
456.91	8119.32
457.09	8121.66
457.28	8124.00
457.46	7915.69
457.64	8248.05
457.83	8201.24
458.01	7882.92
458.19	8191.88
458.38	8112.30
458.56	8355.71
458.74	8152.09
458.93	8191.88
459.11	8182.51
459.29	8203.58
459.48	8334.65
459.66	8091.23
459.84	8397.84
460.03	8386.14
460.21	8301.88
460.39	8463.38
460.57	8376.78
460.76	8521.89
460.94	8472.74
461.12	8741.90
461.31	8681.05
461.49	8463.38
461.67	8496.14
461.85	8755.94
462.04	8791.05
462.22	9167.88
462.40	8641.26
462.59	8730.20
462.77	8669.34
462.95	8872.97
463.13	8978.30
463.32	8781.69
463.50	8896.38
463.68	8929.14
463.86	8950.21
464.05	8856.59
464.23	8744.24
464.41	9013.40
464.59	8828.50
464.78	9118.73
464.96	8901.06
465.14	9172.56
465.32	9301.29
465.50	9130.43
465.69	9252.14
465.87	9036.81
466.05	9130.43
466.23	8933.82
466.41	9177.24
466.60	9254.48
466.78	9156.18
466.96	9320.01
467.14	9242.78
467.32	9324.69
467.51	9462.79
467.69	8959.57
467.87	9263.84
468.05	9533.00
468.23	9207.67
468.41	9495.55
468.60	9441.72
468.78	9589.17
468.96	9472.15
469.14	9652.37
469.32	9738.97
469.50	9341.08
469.69	9593.86
469.87	9685.14
470.05	9944.94
470.23	9645.35
470.41	9565.77
470.59	9797.48
470.77	9863.02
470.95	9675.77
471.14	10078.35
471.32	9930.89
471.50	10314.74
471.68	10347.51
471.86	10260.91
472.04	10258.57
472.22	10429.43
472.40	10146.22
472.58	10415.38
472.77	10581.56
472.95	10534.75
473.13	10808.59
473.31	10478.58
473.49	10441.13
473.67	10590.92
473.85	10714.97
474.03	10778.17
474.21	11040.31
474.39	10944.34
474.57	11035.63
474.75	11037.97
474.93	11080.10
475.12	11143.29
475.30	11323.51
475.48	10951.37
475.66	11407.77
475.84	11131.59
476.02	11157.33
476.20	11335.21
476.38	11604.38
476.56	11681.61
476.74	11749.49
476.92	11557.57
477.10	11779.92
477.28	12018.65
477.46	11882.90
477.64	12025.67
477.82	12372.07
478.00	12514.84
478.18	12255.04
478.36	12269.09
478.54	12472.71
478.72	12575.70
478.90	12802.73
479.08	13011.04
479.26	13008.70
479.44	12793.37
479.62	12966.57
479.80	13291.90
479.98	13114.02
480.16	13554.04
480.34	13392.55
480.52	13540.00
480.70	13561.06
480.88	13446.38
481.06	13827.88
481.24	13671.07
481.41	14010.45
481.59	14118.11
481.77	14286.63
481.95	14389.61
482.13	14441.11
482.31	14398.98
482.49	14607.28
482.67	14853.04
482.85	14930.28
483.03	15033.26
483.21	15304.76
483.39	15171.35
483.57	15489.67
483.74	15318.81
483.92	15484.98
484.10	15566.90
484.28	15564.56
484.46	15948.41
484.64	16140.33
484.82	15964.79
485.00	15833.72
485.18	16292.47
485.35	16313.53
485.53	15892.24
485.71	15957.77
485.89	16507.80
486.07	16458.65
486.25	16650.57
486.43	16849.52
486.61	16702.06
486.78	17104.64
486.96	17268.47
487.14	17282.52
487.32	17570.40
487.50	17923.82
487.68	18073.62
487.85	18164.90
488.03	18244.48
488.21	18363.84
488.39	18464.49
488.57	18527.68
488.75	18951.32
488.92	19028.56
489.10	19033.24
489.28	19389.00
489.46	19452.19
489.64	19363.25
489.81	20079.46
489.99	19976.47
490.17	19592.62
490.35	20156.69
490.53	19997.54
490.70	20357.98
490.88	20332.23
491.06	20926.73
491.24	20320.53
491.41	20585.01
491.59	20477.35
491.77	20634.16
491.95	20788.64
492.13	21146.74
492.30	21766.98
492.48	21296.53
492.66	21907.41
492.84	21771.66
493.01	21942.52
493.19	21738.90
493.37	22097.00
493.54	21891.03
493.72	22717.24
493.90	22438.72
494.08	22712.56
494.25	22920.87
494.43	23065.98
494.61	23199.39
494.79	23297.69
494.96	23285.99
495.14	23082.36
495.32	23293.01
495.49	23620.69
495.67	24020.92
495.85	23779.84
496.02	24058.37
496.20	24465.62
496.38	24034.96
496.55	24257.31
496.73	24694.99
496.91	24636.48
497.09	24753.51
497.26	25151.40
497.44	24790.95
497.62	24737.12
497.79	25188.85
497.97	24971.18
498.14	25326.94
498.32	25357.36
498.50	25933.14
498.67	25516.52
498.85	25888.67
499.03	25645.25
499.20	25743.55
499.38	26036.12
499.56	26398.90
499.73	26003.35
499.91	26111.02
500.08	26815.52
500.26	26178.89
500.44	26448.05
500.61	26448.05
500.79	26677.43
500.97	26785.09
501.14	26859.99
501.32	26998.08
501.49	27091.70
501.67	27112.77
501.84	27360.86
502.02	27424.06
502.20	27665.13
502.37	27740.03
502.55	27644.07
502.72	27728.33
502.90	27864.08
503.07	27887.48
503.25	27812.59
503.43	27800.88
503.60	27835.99
503.78	27590.24
503.95	27999.83
504.13	28479.64
504.30	28552.20
504.48	28500.70
504.65	28329.84
504.83	28804.97
505.01	28816.68
505.18	28776.89
505.36	29439.26
505.53	29322.23
505.71	29455.64
505.88	29670.97
506.06	29406.49
506.23	29462.66
506.41	29303.51
506.58	29476.71
506.76	29656.93
506.93	29560.97
507.11	29673.31
507.28	29823.11
507.46	29542.24
507.63	29823.11
507.81	30284.19
507.98	30005.67
508.16	29699.06
508.33	30742.94
508.50	30281.85
508.68	30274.83
508.85	30862.30
509.03	30869.33
509.20	30773.36
509.38	31159.55
509.55	30782.73
509.73	30988.69
509.90	31901.50
510.08	31218.07
510.25	31552.76
510.42	31407.65
510.60	31435.74
510.77	31599.57
510.95	31693.19
511.12	31571.49
511.30	31711.92
511.47	31761.07
511.64	32102.79
511.82	32109.81
511.99	31512.97
512.17	32325.14
512.34	32285.35
512.51	32201.09
512.69	32416.42
512.86	32430.46
513.04	32856.44
513.21	32828.35
513.38	32589.62
513.56	32610.68
513.73	32205.77
513.90	32779.20
514.08	32704.31
514.25	32657.49
514.43	33390.08
514.60	32826.01
514.77	33310.50
514.95	33151.35
515.12	32994.53
515.29	33392.42
515.47	33872.23
515.64	33596.05
515.81	33525.83
515.99	33472.00
516.16	33696.69
516.33	33649.88
516.51	33256.67
516.68	32835.38
516.85	32727.71
517.03	33167.73
517.20	34136.71
517.37	34150.76
517.54	34326.30
517.72	33743.50
517.89	33642.86
518.06	34277.15
518.24	33708.40
518.41	34078.20
518.58	34178.84
518.75	34436.30
518.93	34338.00
519.10	34246.72
519.27	34857.60
519.45	35091.65
519.62	34803.77
519.79	35164.21
519.96	34979.31
520.14	35409.96
520.31	34719.51
520.48	35302.30
520.65	35316.34
520.83	35587.85
521.00	35522.31
521.17	35475.50
521.34	35700.19
521.52	35906.16
521.69	35548.06
521.86	36048.93
522.03	35901.48
522.20	35459.12
522.38	35828.92
522.55	36570.87
522.72	36320.43
522.89	35852.33
523.07	36402.35
523.24	36231.49
523.41	36844.71
523.58	36357.88
523.75	37317.50
523.92	36704.28
524.10	36818.97
524.27	36950.04
524.44	36844.71
524.61	36931.31
524.78	37102.17
524.96	37275.37
525.13	37226.22
525.30	37158.34
525.47	37198.13
525.64	36971.10
525.81	37486.02
525.98	37357.29
526.16	37064.72
526.33	37006.21
526.50	36928.97
526.67	36629.38
526.84	37216.86
527.01	37092.81
527.18	37724.75
527.36	37944.76
527.53	37820.72
527.70	38124.99
527.87	38059.45
528.04	37841.78
528.21	38202.22
528.38	38251.38
528.55	38667.99
528.72	38415.21
528.89	38541.60
529.07	38267.76
529.24	38438.62
529.41	38415.21
529.58	38323.93
529.75	39236.74
529.92	38962.90
530.09	38740.55
530.26	39016.73
530.43	39112.69
530.60	38836.51
530.77	38775.66
530.94	39566.76
531.11	39285.89
531.28	39311.64
531.46	39330.36
531.63	39353.77
531.80	38981.62
531.97	38693.74
532.14	39079.92
532.31	38869.28
532.48	39250.78
532.65	39508.24
532.82	39220.36
532.99	39533.99
533.16	39634.63
533.33	39323.34
533.50	39861.66
533.67	39737.62
533.84	39606.55
534.01	39592.50
534.18	39660.38
534.35	39964.65
534.52	40095.72
534.69	40076.99
534.86	40229.13
535.03	40194.02
535.20	40737.02
535.37	40594.25
535.54	40481.91
535.71	40446.80
535.88	40575.53
536.05	40233.81
536.22	40273.60
536.38	40774.47
536.55	39927.20
536.72	40739.36
536.89	40219.77
537.06	40177.64
537.23	41120.87
537.40	41057.68
537.57	40825.96
537.74	40779.15
537.91	41111.51
538.08	40776.81
538.25	40795.54
538.42	41020.23
538.59	40919.59
538.75	40509.99
538.92	41027.25
539.09	40891.50
539.26	41329.18
539.43	41050.66
539.60	41284.71
539.77	40942.99
539.94	41392.37
540.11	40989.80
540.28	41586.64
540.44	41235.56
540.61	41366.63
540.78	41532.81
540.95	41443.87
541.12	41310.46
541.29	41940.06
541.46	41268.33
541.62	41490.68
541.79	41930.70
541.96	41170.02
542.13	41289.39
542.30	41610.04
542.47	41823.03
542.63	41546.85
542.80	41841.76
542.97	42349.65
543.14	42199.86
543.31	42174.11
543.48	41977.51
543.64	42295.82
543.81	42433.91
543.98	42674.99
544.15	42520.51
544.32	42843.51
544.48	43133.73
544.65	42780.31
544.82	42447.96
544.99	42422.21
545.16	42436.25
545.32	42487.74
545.49	42689.03
545.66	43023.73
545.83	42155.39
546.00	43023.73
546.16	42759.25
546.33	42848.19
546.50	41951.76
546.67	42803.72
546.83	42693.71
547.00	42789.67
547.17	43152.46
547.34	42410.51
547.50	42838.83
547.67	43320.98
547.84	43145.44
548.00	43515.24
548.17	43337.36
548.34	43580.78
548.51	43615.88
548.67	43735.25
548.84	43117.35
549.01	43342.04
549.18	43332.68
549.34	43386.51
549.51	43751.63
549.68	43510.56
549.84	43351.40
550.01	43819.51
550.18	43423.96
550.34	43503.54
550.51	43388.85
550.68	43337.36
550.84	43178.20
551.01	43810.15
551.18	43253.10
551.34	43613.54
551.51	43777.38
551.68	43941.22
551.84	43826.53
552.01	44128.46
552.18	43931.86
552.34	43501.20
552.51	43817.17
552.68	43906.11
552.84	44205.70
553.01	44044.20
553.18	44126.12
553.34	44147.18
553.51	44009.09
553.67	44383.58
553.84	44451.45
554.01	44486.56
554.17	44589.55
554.34	44573.16
554.51	44549.76
554.67	44748.70
554.84	44643.38
555.00	44329.75
555.17	44154.21
555.33	44725.30
555.50	44718.28
555.67	44547.42
555.83	44575.50
556.00	44748.70
556.16	44830.62
556.33	44076.97
556.50	44428.05
556.66	44493.58
556.83	44271.23
556.99	44430.39
557.16	44591.89
557.32	45031.91
557.49	44531.03
557.65	44304.00
557.82	44577.84
557.98	44818.92
558.15	44910.20
558.32	44786.15
558.48	44247.83
558.65	45069.36
558.81	44079.31
558.98	44378.90
559.14	44982.76
559.31	44659.76
559.47	44655.08
559.64	45165.32
559.80	44816.58
559.97	44856.37
560.13	44729.98
560.30	45340.86
560.46	44713.59
560.63	44715.93
560.79	45287.03
560.96	45345.54
561.12	45291.71
561.29	45057.65
561.45	45212.13
561.61	45062.33
561.78	44980.42
561.94	45078.72
562.11	45471.93
562.27	45130.21
562.44	45603.00
562.60	45464.91
562.77	45305.75
562.93	45317.45
563.10	45551.51
563.26	44704.23
563.42	45387.67
563.59	45607.68
563.75	45280.00
563.92	45179.36
564.08	45607.68
564.24	45109.14
564.41	45109.14
564.57	45172.34
564.74	45380.65
564.90	45280.00
565.07	45390.01
565.23	45081.06
565.39	45233.19
565.56	45507.04
565.72	45008.50
565.88	45368.94
566.05	45450.86
566.21	44931.26
566.38	45427.46
566.54	45298.73
566.70	45570.23
566.87	45603.00
567.03	45282.34
567.19	45834.71
567.36	45656.83
567.52	45399.37
567.68	45675.55
567.85	45413.41
568.01	45404.05
568.17	45729.39
568.34	45696.62
568.50	45785.56
568.66	45170.00
568.83	45432.14
568.99	45296.39
569.15	45378.31
569.32	45392.35
569.48	46113.23
569.64	45717.68
569.81	45867.48
569.97	45612.36
570.13	45497.67
570.30	45485.97
570.46	45305.75
570.62	45052.97
570.78	45174.68
570.95	45001.48
571.11	45322.13
571.27	45343.20
571.43	45703.64
571.60	45397.03
571.76	45631.08
571.92	45577.25
572.09	45722.37
572.25	45930.67
572.41	45729.39
572.57	45783.22
572.74	46260.69
572.90	45675.55
573.06	46131.96
573.22	45823.01
573.38	45951.74
573.55	45481.29
573.71	45837.05
573.87	45907.27
574.03	45322.13
574.20	45612.36
574.36	45771.52
574.52	45883.86
574.68	45673.21
574.84	45741.09
575.01	45762.15
575.17	45755.13
575.33	45151.27
575.49	45851.09
575.65	45902.59
575.82	45949.40
575.98	45612.36
576.14	45710.66
576.30	45607.68
576.46	45291.71
576.62	45247.24
576.79	45610.02
576.95	45474.27
577.11	45813.65
577.27	45546.82
577.43	45626.40
577.59	45806.62
577.75	45502.35
577.92	45429.80
578.08	45497.67
578.24	45324.47
578.40	45640.45
578.56	45350.22
578.72	45375.97
578.88	46012.59
579.04	45928.33
579.21	45804.28
579.37	45275.32
579.53	45815.99
579.69	45764.49
579.85	46050.04
580.01	45806.62
580.17	45567.89
580.33	46192.81
580.49	46274.73
580.65	45521.08
580.82	45380.65
580.98	45792.58
581.14	45579.59
581.30	46335.59
581.46	45682.58
581.62	45916.63
581.78	46171.75
581.94	46115.58
582.10	45830.03
582.26	45979.82
582.42	45771.52
582.58	45780.88
582.74	46043.02
582.90	46185.79
583.06	46057.06
583.22	46054.72
583.38	45972.80
583.54	46082.81
583.70	46007.91
583.86	46024.29
584.02	45715.34
584.18	46134.30
584.34	45731.73
584.50	46183.45
584.66	45769.18
584.82	45610.02
584.98	45998.55
585.14	45698.96
585.30	45429.80
585.46	45918.97
585.62	45748.11
585.78	45689.60
585.94	45265.96
586.10	45766.84
586.26	46061.74
586.42	45701.30
586.58	46356.65
586.74	45979.82
586.90	45687.26
587.06	45727.05
587.22	46040.68
587.38	45993.87
587.54	45874.50
587.70	46045.36
587.86	45940.04
588.02	45603.00
588.18	45986.85
588.34	45563.21
588.49	45605.34
588.65	45404.05
588.81	45200.43
588.97	45305.75
589.13	45027.23
589.29	45537.46
589.45	45574.91
589.61	45752.79
589.77	45996.21
589.93	46293.46
590.08	46141.32
590.24	46143.66
590.40	46349.63
590.56	46136.64
590.72	45780.88
590.88	45933.01
591.04	46113.23
591.20	46557.94
591.35	46445.59
591.51	46576.66
591.67	45811.31
591.83	45778.54
591.99	46099.19
592.15	45942.38
592.31	46211.54
592.46	46464.32
592.62	45605.34
592.78	45989.19
592.94	46553.26
593.10	46108.55
593.26	45907.27
593.41	45893.22
593.57	45881.52
593.73	45862.80
593.89	46038.34
594.05	46153.02
594.20	45834.71
594.36	46115.58
594.52	46230.26
594.68	45752.79
594.84	45724.71
594.99	46141.32
595.15	45975.14
595.31	46508.79
595.47	46124.94
595.62	46241.96
595.78	46616.45
595.94	46438.57
596.10	46328.56
596.25	46309.84
596.41	45537.46
596.57	46045.36
596.73	46085.15
596.88	45867.48
597.04	46106.21
597.20	45752.79
597.36	45586.61
597.51	46314.52
597.67	45738.75
597.83	46101.53
597.99	46457.29
598.14	46192.81
598.30	46300.48
598.46	45930.67
598.61	46050.04
598.77	45687.26
598.93	45769.18
599.09	45848.75
599.24	46410.48
599.40	46625.81
599.56	46251.33
599.71	45860.46
599.87	46150.68
600.03	46129.62
600.18	46253.67
600.34	45504.70
600.50	45893.22
600.65	46181.11
600.81	45663.85
600.97	46188.13
601.12	46398.78
601.28	46103.87
601.44	45694.28
601.59	46134.30
601.75	45811.31
601.91	45942.38
602.06	45935.35
602.22	45717.68
602.37	45794.92
602.53	45853.44
602.69	46305.16
602.84	45970.46
603.00	45858.12
603.16	45794.92
603.31	45827.69
603.47	45603.00
603.62	45537.46
603.78	45813.65
603.94	46424.53
604.09	45904.93
604.25	46284.09
604.40	46120.26
604.56	45909.61
604.71	46059.40
604.87	45895.56
605.03	45928.33
605.18	45839.39
605.34	46150.68
605.49	45752.79
605.65	46057.06
605.80	45874.50
605.96	45717.68
606.12	45443.84
606.27	45930.67
606.43	45640.45
606.58	46246.65
606.74	45820.67
606.89	45724.71
607.05	45563.21
607.20	45762.15
607.36	45698.96
607.51	45933.01
607.67	45720.02
607.82	45572.57
607.98	45500.01
608.13	45713.00
608.29	45387.67
608.44	45551.51
608.60	44968.71
608.75	45155.96
608.91	45478.95
609.06	45551.51
609.22	46064.08
609.37	45563.21
609.53	45696.62
609.68	45687.26
609.84	45394.69
609.99	45551.51
610.15	45588.95
610.30	45408.73
610.46	44924.24
610.61	44959.35
610.76	45422.78
610.92	45584.27
611.07	45551.51
611.23	45865.14
611.38	45654.49
611.54	45523.42
611.69	45090.42
611.84	45181.70
612.00	44896.16
612.15	45024.89
612.31	45261.28
612.46	45474.27
612.62	45134.89
612.77	45064.67
612.92	45191.06
613.08	45258.94
613.23	45069.36
613.39	44327.41
613.54	44545.08
613.69	44678.49
613.85	44570.82
614.00	45062.33
614.15	44788.49
614.31	44706.57
614.46	44531.03
614.62	45469.59
614.77	44545.08
614.92	44816.58
615.08	44854.03
615.23	44725.30
615.38	45010.84
615.54	44561.46
615.69	44418.69
615.84	44390.60
616.00	44669.12
616.15	44959.35
616.30	44928.92
616.46	44514.65
616.61	44491.24
616.76	44430.39
616.92	44271.23
617.07	44191.65
617.22	44182.29
617.37	44451.45
617.53	44713.59
617.68	44610.61
617.83	44414.01
617.99	44788.49
618.14	44058.24
618.29	44376.56
618.45	44037.18
618.60	44135.48
618.75	43658.01
618.90	43807.81
619.06	44023.14
619.21	43604.18
619.36	44182.29
619.51	43559.71
619.67	43749.29
619.82	44041.86
619.97	44088.67
620.12	43564.39
620.28	43456.73
620.43	43700.14
620.58	43995.05
620.73	43634.61
620.89	43702.48
621.04	43959.94
621.19	44299.32
621.34	43430.98
621.49	43533.96
621.65	43971.64
621.80	43686.10
621.95	43203.95
622.10	43482.47
622.25	43742.27
622.41	43438.00
622.56	43147.78
622.71	43578.43
622.86	43552.69
623.01	43196.93
623.16	43716.53
623.32	43332.68
623.47	43510.56
623.62	43236.72
623.77	43435.66
623.92	43299.91
624.07	43124.37
624.23	42485.40
624.38	42831.80
624.53	43297.57
624.68	43180.54
624.83	43330.34
624.98	43302.25
625.13	43217.99
625.29	43112.67
625.44	42986.28
625.59	42436.25
625.74	43021.39
625.89	42909.04
626.04	42490.09
626.19	42871.59
626.34	42895.00
626.49	43005.00
626.65	42541.58
626.80	42569.66
626.95	42557.96
627.10	42878.61
627.25	42808.40
627.40	42555.62
627.55	42579.03
627.70	42185.82
627.85	42375.40
628.00	42232.63
628.15	42391.78
628.30	42312.20
628.45	42480.72
628.60	42277.10
628.76	42637.54
628.91	42483.06
629.06	42012.62
629.21	42234.97
629.36	41977.51
629.51	41631.11
629.66	42422.21
629.81	42050.06
629.96	42057.09
630.11	42471.36
630.26	42464.34
630.41	41977.51
630.56	41663.88
630.71	42122.62
630.86	42188.16
631.01	41596.00
631.16	42103.90
631.31	41736.43
631.46	41675.58
631.61	41769.20
631.76	41846.44
631.91	42155.39
632.06	41844.10
632.21	41853.46
632.36	41703.67
632.51	41713.03
632.66	41706.01
632.81	41439.18
632.96	41834.74
633.10	41230.88
633.25	41352.58
633.40	41832.39
633.55	42150.71
633.70	41270.67
633.85	41607.70
634.00	41645.15
634.15	41347.90
634.30	41591.32
634.45	41507.06
634.60	41223.86
634.75	40924.27
634.90	41081.08
635.05	41181.73
635.19	41219.17
635.34	41401.74
635.49	41502.38
635.64	41371.31
635.79	41111.51
635.94	41043.63
636.09	41071.72
636.24	40912.56
636.39	40856.39
636.53	40954.69
636.68	40685.53
636.83	40641.06
636.98	41244.92
637.13	40701.92
637.28	41057.68
637.43	41155.98
637.57	41104.49
637.72	40371.90
637.87	40376.58
638.02	40844.69
638.17	41006.19
638.32	40942.99
638.46	40275.94
638.61	40336.79
638.76	40622.34
638.91	40708.94
639.06	40531.06
639.20	40512.33
639.35	40802.56
639.50	40332.11
639.65	40243.17
639.80	40587.23
639.94	40451.48
640.09	40783.83
640.24	40233.81
640.39	40053.59
640.54	40219.77
640.68	40243.17
640.83	39842.94
640.98	40135.51
641.13	39756.34
641.27	40109.76
641.42	39892.09
641.57	39981.03
641.72	40322.75
641.86	40133.17
642.01	39597.18
642.16	40154.23
642.31	39461.43
642.45	39803.15
642.60	39461.43
642.75	40058.27
642.90	40142.53
643.04	39842.94
643.19	39421.64
643.34	39693.15
643.48	39365.47
643.63	39931.88
643.78	39658.04
643.93	39819.53
644.07	39714.21
644.22	39735.27
644.37	39569.10
644.51	39182.91
644.66	39798.47
644.81	39672.08
644.95	39632.29
645.10	39592.50
645.25	39016.73
645.39	39393.56
645.54	39267.17
645.69	39236.74
645.83	39447.39
645.98	39431.01
646.13	39201.63
646.27	39428.66
646.42	39168.87
646.57	39236.74
646.71	39281.21
646.86	38986.30
647.00	39194.61
647.15	38953.54
647.30	39154.82
647.44	39154.82
647.59	38888.00
647.74	38948.85
647.88	38815.44
648.03	38948.85
648.17	38691.40
648.32	38813.10
648.47	38696.08
648.61	38630.54
648.76	39002.69
648.90	38670.33
649.05	39117.37
649.20	38600.12
649.34	38464.36
649.49	38230.31
649.63	38749.91
649.78	38536.92
649.92	38782.68
650.07	38787.36
650.21	38209.25
650.36	38410.53
650.51	38476.07
650.65	39201.63
650.80	39007.37
650.94	38518.20
651.09	38141.37
651.23	38127.33
651.38	37996.26
651.52	37993.92
651.67	37893.27
651.81	37993.92
651.96	38270.10
652.10	37846.46
652.25	37975.19
652.39	38047.75
652.54	38431.60
652.68	38246.69
652.83	38380.10
652.97	38433.94
653.12	38288.82
653.26	37949.45
653.41	37996.26
653.55	37839.44
653.70	37858.17
653.84	38153.07
653.99	37305.80
654.13	37886.25
654.27	38185.84
654.42	38506.49
654.56	37823.06
654.71	37666.24
654.85	37867.53
655.00	38073.49
655.14	37525.81
655.29	37223.88
655.43	37399.42
655.57	37170.05
655.72	37139.62
655.86	37266.01
656.01	36882.16
656.15	36484.27
656.30	36624.70
656.44	36753.43
656.58	36678.54
656.73	36987.49
656.87	36914.93
657.01	36964.08
657.16	37263.67
657.30	36940.68
657.45	36556.83
657.59	37043.66
657.73	36999.19
657.88	36975.78
658.02	36975.78
658.16	36950.04
658.31	37277.71
658.45	36947.70
658.60	36685.56
658.74	36868.12
658.88	37329.20
659.03	37120.90
659.17	36582.57
659.31	36575.55
659.46	36315.75
659.60	36699.60
659.74	36748.75
659.89	36423.42
660.03	36194.04
660.17	36620.02
660.32	36378.95
660.46	36594.28
660.60	35735.30
660.74	36123.83
660.89	36430.44
661.03	36275.96
661.17	36098.08
661.32	35922.54
661.46	35693.17
661.60	35866.37
661.74	35959.99
661.89	36011.48
662.03	35763.39
662.17	36041.91
662.31	36320.43
662.46	36130.85
662.60	36107.44
662.74	36123.83
662.88	35625.29
663.03	35765.73
663.17	35564.44
663.31	35082.29
663.45	35316.34
663.60	35302.30
663.74	35494.22
663.88	35178.25
664.02	35108.04
664.17	35438.05
664.31	34862.28
664.45	35161.87
664.59	35021.44
664.73	35093.99
664.88	35012.07
665.02	34529.92
665.16	34433.96
665.30	34251.40
665.44	34424.60
665.59	34448.00
665.73	34532.26
665.87	33888.62
666.01	34747.59
666.15	34471.41
666.29	34380.13
666.44	34478.43
666.58	34485.45
666.72	34256.08
666.86	34506.52
667.00	34190.55
667.14	34122.67
667.28	34120.33
667.43	33900.32
667.57	34389.49
667.71	33802.02
667.85	33692.01
667.99	33804.36
668.13	34202.25
668.27	33797.34
668.41	33933.09
668.56	33731.80
668.70	33811.38
668.84	33457.96
668.98	33163.05
669.12	33298.80
669.26	33769.25
669.40	33041.34
669.54	33013.26
669.68	32982.83
669.82	32900.91
669.96	32692.60
670.10	32816.65
670.25	32634.09
670.39	32851.76
670.53	32601.32
670.67	32491.32
670.81	32421.10
670.95	32856.44
671.09	32538.13
671.23	32271.31
671.37	32404.72
671.51	32287.69
671.65	32334.50
671.79	32034.91
671.93	32004.49
672.07	32051.30
672.21	31896.82
672.35	32297.05
672.49	31910.86
672.63	31952.99
672.77	31620.64
672.91	31662.77
673.05	31824.26
673.19	31833.63
673.33	31386.58
673.47	31199.34
673.61	31307.01
673.75	31267.22
673.89	31058.91
674.03	31505.95
674.17	30916.14
674.31	31218.07
674.45	31218.07
674.59	31346.79
674.73	31145.51
674.87	31007.42
675.01	30759.32
675.15	30520.59
675.29	30476.12
675.43	30895.07
675.56	30611.87
675.70	30607.19
675.84	30611.87
675.98	29385.43
676.12	30164.82
676.26	30569.74
676.40	30148.44
676.54	30101.63
676.68	29626.50
676.82	29493.09
676.96	29773.95
677.10	29474.37
677.23	29535.22
677.37	29476.71
677.51	29156.05
677.65	29242.65
677.79	28673.90
677.93	28943.06
678.07	28591.98
678.21	28795.61
678.34	28613.05
678.48	28449.21
678.62	28318.14
678.76	28297.08
678.90	28144.94
679.04	27950.68
679.18	27903.87
679.31	27974.08
679.45	27831.31
679.59	27950.68
679.73	27943.66
679.87	27901.53
680.00	27740.03
680.14	27543.42
680.28	27414.69
680.42	27679.18
680.56	27543.42
680.70	27393.63
680.83	27122.13
680.97	27098.72
681.11	26918.50
681.25	26684.45
681.39	27199.37
681.52	26780.41
681.66	26609.55
681.80	26513.59
681.94	26398.90
682.07	26497.20
682.21	26338.05
682.35	26192.94
682.49	26188.25
682.62	26096.97
682.76	26096.97
682.90	25755.26
683.04	26089.95
683.17	25617.16
683.31	25378.43
683.45	25675.68
683.59	25443.96
683.72	25408.86
683.86	25495.46
684.00	25177.14
684.13	25057.78
684.27	25195.87
684.41	25027.35
684.55	24835.42
684.68	24659.88
684.82	24599.03
684.96	24610.73
685.09	24931.39
685.23	24397.74
685.37	24760.53
685.50	24624.78
685.64	24142.63
685.78	24393.06
685.91	24203.48
686.05	23999.85
686.19	23740.05
686.32	23524.72
686.46	23637.07
686.60	23119.81
686.73	23332.80
686.87	23412.38
687.01	23133.86
687.14	22792.14
687.28	22939.59
687.42	22944.27
687.55	23091.73
687.69	23070.66
687.82	22742.99
687.96	22635.32
688.10	21968.27
688.23	22436.38
688.37	22382.54
688.50	22178.92
688.64	22443.40
688.78	22492.55
688.91	22010.40
689.05	21855.92
689.18	21848.90
689.32	21645.27
689.46	21858.26
689.59	21886.35
689.73	21818.47
689.86	21598.46
690.00	21462.71
690.13	21418.24
690.27	21238.02
690.41	21209.93
690.54	21294.19
690.68	21209.93
690.81	21432.29
690.95	20720.76
691.08	21041.42
691.22	20915.03
691.35	20879.92
691.49	20734.81
691.62	20919.71
691.76	20664.59
691.89	20741.83
692.03	20236.27
692.16	20255.00
692.30	20271.38
692.43	20262.02
692.57	19836.04
692.70	20058.39
692.84	19899.23
692.97	19234.52
693.11	19782.21
693.24	19147.92
693.38	19307.08
693.51	19431.13
693.65	19068.34
693.78	19459.21
693.92	19073.03
694.05	19250.91
694.19	18963.02
694.32	18993.45
694.45	19344.53
694.59	19143.24
694.72	18537.04
694.86	18864.72
694.99	18684.50
695.13	18831.95
695.26	18403.63
695.39	18480.87
695.53	18403.63
695.66	18431.72
695.80	18466.83
695.93	18211.71
696.07	18087.66
696.20	18242.14
696.33	17839.56
696.47	18153.20
696.60	17694.45
696.73	17439.33
696.87	17481.46
697.00	17628.92
697.14	17111.66
697.27	17214.64
697.40	17434.65
697.54	17348.05
697.67	17006.33
697.80	16982.93
697.94	17177.19
698.07	16795.68
698.21	16992.29
698.34	17259.11
698.47	16971.22
698.61	16430.56
698.74	16758.24
698.87	16685.68
699.01	16482.05
699.14	16203.53
699.27	16168.42
699.40	16170.76
699.54	16292.47
699.67	16042.03
699.80	15770.53
699.94	15807.98
700.07	16388.43
700.20	16002.24
700.34	15833.72
700.47	15751.81
700.60	15447.54
700.73	15772.87
700.87	15707.34
701.00	15667.55
701.13	15260.29
701.26	15131.56
701.40	15117.52
701.53	15094.11
701.66	14895.17
701.79	14810.91
701.93	15087.09
702.06	14899.85
702.19	14677.50
702.32	15073.05
702.46	14918.57
702.59	14780.48
702.72	14525.36
702.85	14452.81
702.99	14406.00
703.12	14307.69
703.25	14204.71
703.38	14321.74
703.51	14260.88
703.65	14129.81
703.78	13781.07
703.91	13879.38
704.04	13991.72
704.17	13738.94
704.31	13912.14
704.44	13671.07
704.57	13717.88
704.70	13645.32
704.83	13507.23
704.96	13666.39
705.10	13483.83
705.23	13418.29
>>>>>End Processed Spectral Data<<<<<
