SpectraSuite Data File
++++++++++++++++++++++++++++++++++++
Date: Fri Oct 25 10:48:27 EDT 2013
User: price-jones
Dark Spectrum Present: No
Reference Spectrum Present: No
Number of Sampled Component Spectra: 1
Spectrometers: USB2+H05261
Integration Time (usec): 100000 (USB2+H05261)
Spectra Averaged: 1 (USB2+H05261)
Boxcar Smoothing: 0 (USB2+H05261)
Correct for Electrical Dark: No (USB2+H05261)
Strobe/Lamp Enabled: No (USB2+H05261)
Correct for Detector Non-linearity: No (USB2+H05261)
Correct for Stray Light: No (USB2+H05261)
Number of Pixels in Processed Spectrum: 2048
>>>>>Begin Processed Spectral Data<<<<<
365.73	117.03
365.92	117.03
366.12	117.03
366.32	46.81
366.52	16.38
366.72	114.69
366.91	0.00
367.11	39.79
367.31	53.83
367.51	35.11
367.70	107.66
367.90	70.22
368.10	4.68
368.30	121.71
368.49	65.54
368.69	93.62
368.89	65.54
369.09	86.60
369.28	72.56
369.48	0.00
369.68	67.88
369.87	100.64
370.07	163.84
370.27	201.29
370.47	210.65
370.66	362.78
370.86	388.53
371.06	465.77
371.25	531.30
371.45	437.68
371.65	475.13
371.84	477.47
372.04	512.58
372.24	521.94
372.44	472.79
372.63	498.53
372.83	568.75
373.03	552.37
373.22	493.85
373.42	444.70
373.62	561.73
373.81	468.11
374.01	606.20
374.21	582.79
374.40	596.84
374.60	571.09
374.79	641.31
374.99	650.67
375.19	620.24
375.38	627.26
375.58	596.84
375.78	638.97
375.97	606.20
376.17	706.84
376.37	575.77
376.56	587.47
376.76	648.33
376.95	690.46
377.15	589.82
377.35	617.90
377.54	589.82
377.74	615.56
377.93	699.82
378.13	676.41
378.33	664.71
378.52	624.92
378.72	655.35
378.91	725.57
379.11	657.69
379.31	653.01
379.50	706.84
379.70	720.88
379.89	702.16
380.09	669.39
380.28	624.92
380.48	697.48
380.68	692.80
380.87	730.25
381.07	734.93
381.26	695.14
381.46	636.63
381.65	739.61
381.85	758.33
382.04	685.78
382.24	683.44
382.43	798.12
382.63	730.25
382.83	725.57
383.02	758.33
383.22	732.59
383.41	667.05
383.61	793.44
383.80	851.96
384.00	774.72
384.19	770.04
384.39	774.72
384.58	767.70
384.78	837.91
384.97	746.63
385.17	788.76
385.36	798.12
385.56	805.14
385.75	798.12
385.95	919.83
386.14	781.74
386.34	896.43
386.53	940.90
386.72	882.38
386.92	889.40
387.11	915.15
387.31	821.53
387.50	793.44
387.70	929.19
387.89	891.74
388.09	891.74
388.28	823.87
388.48	837.91
388.67	924.51
388.86	997.07
389.06	940.90
389.25	961.96
389.45	992.39
389.64	945.58
389.84	1036.86
390.03	1027.50
390.22	964.30
390.42	1036.86
390.61	994.73
390.81	1107.07
391.00	1032.18
391.19	1064.94
391.39	1050.90
391.58	1050.90
391.78	1076.65
391.97	992.39
392.16	1050.90
392.36	1046.22
392.55	1053.24
392.75	1060.26
392.94	1022.81
393.13	1156.22
393.33	987.71
393.52	1121.12
393.71	1118.78
393.91	1121.12
394.10	1046.22
394.29	1191.33
394.49	1107.07
394.68	1240.48
394.88	1163.25
395.07	1193.67
395.26	1238.14
395.46	1296.66
395.65	1214.74
395.84	1357.51
396.04	1205.38
396.23	1205.38
396.42	1252.19
396.62	1203.04
396.81	1172.61
397.00	1226.44
397.19	1263.89
397.39	1320.06
397.58	1394.96
397.77	1366.87
397.97	1439.43
398.16	1406.66
398.35	1490.92
398.55	1451.13
398.74	1362.19
398.93	1568.16
399.12	1423.05
399.32	1446.45
399.51	1479.22
399.70	1533.05
399.90	1474.54
400.09	1476.88
400.28	1584.54
400.47	1558.80
400.67	1598.59
400.86	1605.61
401.05	1692.21
401.24	1624.33
401.44	1685.19
401.63	1703.91
401.82	1675.82
402.01	1717.95
402.21	1675.82
402.40	1799.87
402.59	1647.74
402.78	1741.36
402.97	1776.47
403.17	1851.36
403.36	1685.19
403.55	1767.10
403.74	1792.85
403.93	1818.60
404.13	1717.95
404.32	1846.68
404.51	1762.42
404.70	1774.13
404.89	1928.60
405.09	1923.92
405.28	1956.69
405.47	1909.88
405.66	1956.69
405.85	1942.64
406.05	1987.11
406.24	2045.63
406.43	2062.01
406.62	1996.48
406.81	2050.31
407.00	2040.95
407.20	2062.01
407.39	2045.63
407.58	2012.86
407.77	2153.29
407.96	2162.66
408.15	2204.78
408.34	2157.97
408.54	2202.44
408.73	2228.19
408.92	2134.57
409.11	2256.28
409.30	2190.74
409.49	2223.51
409.68	2228.19
409.87	2359.26
410.07	2235.21
410.26	2338.20
410.45	2436.50
410.64	2345.22
410.83	2396.71
411.02	2408.41
411.21	2464.58
411.40	2626.08
411.59	2534.80
411.78	2537.14
411.98	2593.31
412.17	2478.63
412.36	2605.02
412.55	2546.50
412.74	2658.85
412.93	2668.21
413.12	2614.38
413.31	2729.06
413.50	2813.32
413.69	2733.75
413.88	2780.56
414.07	2825.03
414.26	2864.82
414.45	2932.69
414.64	2827.37
414.83	2974.82
415.02	2944.39
415.22	3063.76
415.41	3087.17
415.60	3098.87
415.79	3033.33
415.98	3248.66
416.17	3066.10
416.36	3131.64
416.55	3096.53
416.74	3253.34
416.93	3162.06
417.12	3251.00
417.31	3311.86
417.50	3328.24
417.69	3407.82
417.88	3342.28
418.07	3356.33
418.26	3365.69
418.45	3452.29
418.64	3569.32
418.83	3447.61
419.02	3552.93
419.21	3456.97
419.39	3461.65
419.58	3492.08
419.77	3487.40
419.96	3562.30
420.15	3611.45
420.34	3559.95
420.53	3658.26
420.72	3775.28
420.91	3721.45
421.10	3733.15
421.29	3831.46
421.48	3775.28
421.67	3784.65
421.86	3831.46
422.05	3733.15
422.24	3772.94
422.43	3740.18
422.61	3826.78
422.80	3728.47
422.99	3880.61
423.18	4004.66
423.37	3786.99
423.56	3887.63
423.75	3782.31
423.94	3857.20
424.13	3543.57
424.32	3665.28
424.50	3967.21
424.69	3997.64
424.88	3899.33
425.07	3815.07
425.26	3871.25
425.45	3735.50
425.64	3838.48
425.83	3857.20
426.01	4007.00
426.20	3997.64
426.39	3850.18
426.58	3871.25
426.77	3733.15
426.96	3969.55
427.15	3976.57
427.33	3955.51
427.52	3925.08
427.71	4121.68
427.90	4067.85
428.09	4035.08
428.28	4135.73
428.46	3999.98
428.65	4187.22
428.84	4304.25
429.03	4266.80
429.22	3950.82
429.40	4086.58
429.59	4063.17
429.78	3922.74
429.97	3946.14
430.16	4039.76
430.34	4002.32
430.53	4063.17
430.72	4173.18
430.91	4053.81
431.10	4222.33
431.28	4414.25
431.47	4571.07
431.66	4575.75
431.85	4521.92
432.03	4484.47
432.22	4573.41
432.41	4505.53
432.60	4547.66
432.79	4699.80
432.97	4596.81
433.16	4667.03
433.35	4587.45
433.54	4606.17
433.72	4479.79
433.91	4606.17
434.10	4823.84
434.28	4727.88
434.47	4821.50
434.66	4772.35
434.85	4863.63
435.03	4851.93
435.22	4868.31
435.41	5027.47
435.59	4971.30
435.78	5053.22
435.97	5025.13
436.16	4994.70
436.34	5095.35
436.53	5095.35
436.72	5027.47
436.90	5015.77
437.09	5013.43
437.28	4903.42
437.46	4975.98
437.65	5181.95
437.84	5179.61
438.02	5050.88
438.21	5137.48
438.40	5263.86
438.58	5277.91
438.77	5355.15
438.96	5284.93
439.14	5301.31
439.33	5476.85
439.52	5551.75
439.70	5659.42
439.89	5598.56
440.08	5673.46
440.26	5556.43
440.45	5614.95
440.63	5823.25
440.82	5902.83
441.01	5703.89
441.19	5797.51
441.38	6040.92
441.57	5767.08
441.75	6146.25
441.94	5980.07
442.12	6155.61
442.31	6029.22
442.50	6146.25
442.68	6069.01
442.87	6321.79
443.05	6214.12
443.24	6249.23
443.43	6427.11
443.61	6352.21
443.80	6382.64
443.98	6298.38
444.17	6171.99
444.35	6396.68
444.54	6551.16
444.73	6244.55
444.91	6310.08
445.10	6342.85
445.28	6312.42
445.47	6347.53
445.65	6387.32
445.84	6319.45
446.02	6406.05
446.21	6485.62
446.39	6415.41
446.58	6595.63
446.77	6588.61
446.95	6314.77
447.14	6633.08
447.32	6822.66
447.51	6560.52
447.69	6686.91
447.88	6670.53
448.06	6768.83
448.25	6537.12
448.43	6670.53
448.62	6736.06
448.80	6457.54
448.99	6691.59
449.17	6796.92
449.36	6686.91
449.54	6719.68
449.73	6902.24
449.91	7028.63
450.10	7000.54
450.28	7028.63
450.46	6902.24
450.65	6986.50
450.83	6946.71
451.02	6937.35
451.20	6843.73
451.39	7199.49
451.57	7012.24
451.76	6848.41
451.94	6930.33
452.13	7192.47
452.31	7052.03
452.49	6956.07
452.68	7000.54
452.86	7026.29
453.05	7136.29
453.23	7096.50
453.42	7169.06
453.60	7126.93
453.78	7225.23
453.97	7307.15
454.15	7344.60
454.34	7255.66
454.52	7529.50
454.70	7412.48
454.89	7428.86
455.07	7407.80
455.26	7419.50
455.44	7552.91
455.62	7592.70
455.81	7667.60
455.99	7793.98
456.17	7653.55
456.36	7674.62
456.54	7644.19
456.73	7709.72
456.91	7894.63
457.09	7932.08
457.28	8131.02
457.46	7964.84
457.64	8009.31
457.83	7932.08
458.01	7978.89
458.19	8107.62
458.38	8138.04
458.56	8114.64
458.74	8063.15
458.93	8058.46
459.11	8105.28
459.29	8049.10
459.48	8187.19
459.66	7971.86
459.84	8311.24
460.03	8393.16
460.21	8187.19
460.39	8304.22
460.57	8634.24
460.76	8676.37
460.94	8229.32
461.12	8226.98
461.31	8517.21
461.49	8353.37
461.67	8491.46
461.85	8669.34
462.04	8393.16
462.22	9095.32
462.40	8879.99
462.59	8645.94
462.77	8645.94
462.95	8844.88
463.13	8667.00
463.32	8788.71
463.50	8891.70
463.68	8814.46
463.86	8929.14
464.05	8727.86
464.23	8791.05
464.41	9011.06
464.59	8667.00
464.78	9029.79
464.96	8894.04
465.14	8891.70
465.32	9231.07
465.50	9097.66
465.69	9069.58
465.87	8997.02
466.05	8975.95
466.23	9092.98
466.41	9050.85
466.60	9282.56
466.78	9015.74
466.96	9128.09
467.14	9282.56
467.32	9282.56
467.51	9315.33
467.69	9146.81
467.87	9125.75
468.05	9418.32
468.23	9195.96
468.41	9350.44
468.60	9312.99
468.78	9502.58
468.96	9376.19
469.14	9568.11
469.32	9549.39
469.50	9362.14
469.69	9607.90
469.87	9643.01
470.05	9640.67
470.23	9462.79
470.41	9617.26
470.59	9837.27
470.77	9540.02
470.95	9837.27
471.14	9928.55
471.32	10061.96
471.50	10211.76
471.68	10223.46
471.86	10101.75
472.04	10221.12
472.22	10443.47
472.40	9825.57
472.58	10321.76
472.77	10223.46
472.95	10317.08
473.13	10644.76
473.31	10178.99
473.49	10399.00
473.67	10443.47
473.85	10471.56
474.03	10743.06
474.21	10750.08
474.39	10979.45
474.57	10927.96
474.75	11007.54
474.93	11190.10
475.12	10942.00
475.30	10974.77
475.48	10890.51
475.66	11035.63
475.84	11021.58
476.02	11201.80
476.20	11176.06
476.38	11412.45
476.56	11665.23
476.74	11674.59
476.92	11644.17
477.10	11597.35
477.28	11782.26
477.46	11831.41
477.64	12095.89
477.82	11929.71
478.00	12278.45
478.18	12255.04
478.36	12346.33
478.54	12369.73
478.72	12772.30
478.90	12695.07
479.08	12901.03
479.26	13032.10
479.44	13111.68
479.62	12929.12
479.80	12996.99
479.98	13415.95
480.16	13523.62
480.34	13287.22
480.52	13486.17
480.70	13420.63
480.88	13334.03
481.06	13469.78
481.24	13689.79
481.41	14125.13
481.59	14143.86
481.77	14050.24
481.95	14270.25
482.13	14724.31
482.31	14221.10
482.49	14864.74
482.67	14661.12
482.85	14703.25
483.03	15033.26
483.21	15075.39
483.39	15272.00
483.57	15367.96
483.74	15290.72
483.92	15215.82
484.10	15648.82
484.28	15733.08
484.46	15810.32
484.64	16006.92
484.82	15754.15
485.00	15920.32
485.18	16416.52
485.35	16580.36
485.53	16358.00
485.71	16123.95
485.89	16430.56
486.07	16313.53
486.25	16439.92
486.43	16716.11
486.61	16877.60
486.78	17153.79
486.96	17067.19
487.14	17678.07
487.32	17544.66
487.50	17397.20
487.68	17579.76
487.85	18267.88
488.03	18251.50
488.21	18473.85
488.39	18705.56
488.57	18480.87
488.75	18590.88
488.92	18700.88
489.10	19033.24
489.28	19140.90
489.46	19456.87
489.64	19424.11
489.81	19857.10
489.99	19908.60
490.17	20034.99
490.35	20063.07
490.53	20020.94
490.70	20266.70
490.88	20114.56
491.06	20554.58
491.24	20561.61
491.41	20489.05
491.59	20552.24
491.77	20395.43
491.95	20877.58
492.13	21013.33
492.30	21458.03
492.48	21577.40
492.66	21717.83
492.84	21603.14
493.01	21717.83
493.19	21593.78
493.37	21708.47
493.54	22199.98
493.72	22448.08
493.90	22305.31
494.08	22728.94
494.25	22820.22
494.43	22932.57
494.61	22860.01
494.79	23260.24
494.96	22967.68
495.14	23187.69
495.32	23473.23
495.49	23536.43
495.67	23578.56
495.85	23683.88
496.02	23990.49
496.20	24156.67
496.38	24168.37
496.55	24432.85
496.73	24856.49
496.91	24599.03
497.09	24491.37
497.26	24528.81
497.44	24753.51
497.62	24863.51
497.79	25165.44
497.97	24678.61
498.14	25345.66
498.32	25539.93
498.50	25383.11
498.67	25685.04
498.85	26057.18
499.03	26174.21
499.20	26045.48
499.38	25956.54
499.56	25867.60
499.73	26513.59
499.91	26251.45
500.08	26569.76
500.26	26239.75
500.44	26314.64
500.61	26349.75
500.79	26616.57
500.97	26583.80
501.14	26874.03
501.32	27103.40
501.49	26647.00
501.67	27213.41
501.84	27115.11
502.02	26637.64
502.20	27112.77
502.37	27789.18
502.55	26972.33
502.72	27665.13
502.90	27971.74
503.07	27630.02
503.25	28166.01
503.43	28048.98
503.60	27861.74
503.78	28058.34
503.95	28119.20
504.13	28088.77
504.30	28393.04
504.48	28842.42
504.65	28659.86
504.83	28898.59
505.01	28844.76
505.18	28926.68
505.36	29207.55
505.53	28891.57
505.71	29682.67
505.88	29427.56
506.06	28933.70
506.23	29268.40
506.41	29116.26
506.58	29605.44
506.76	29642.88
506.93	29750.55
507.11	29921.41
507.28	29914.39
507.46	29703.74
507.63	29893.32
507.81	29876.94
507.98	30272.49
508.16	30199.93
508.33	30359.09
508.50	30312.28
508.68	30391.86
508.85	30696.13
509.03	30527.61
509.20	30944.22
509.38	30995.71
509.55	30946.56
509.73	31243.81
509.90	31164.23
510.08	31388.92
510.25	31234.45
510.42	31356.16
510.60	31793.84
510.77	31688.51
510.95	31716.60
511.12	31763.41
511.30	31667.45
511.47	32086.40
511.64	32091.09
511.82	32318.12
511.99	32105.13
512.17	32259.60
512.34	31974.06
512.51	32514.72
512.69	32528.77
512.86	32540.47
513.04	32767.50
513.21	32809.63
513.38	32477.27
513.56	32762.82
513.73	32322.80
513.90	32828.35
514.08	32697.28
514.25	32765.16
514.43	33233.27
514.60	32851.76
514.77	33013.26
514.95	33354.97
515.12	33420.51
515.29	33635.84
515.47	33439.23
515.64	33954.15
515.81	33811.38
515.99	33745.84
516.16	33673.29
516.33	33567.96
516.51	33502.43
516.68	32994.53
516.85	33525.83
517.03	33408.81
517.20	33811.38
517.37	33825.42
517.54	34302.89
517.72	34244.38
517.89	34125.01
518.06	33972.88
518.24	33825.42
518.41	34251.40
518.58	34799.08
518.75	34431.62
518.93	34724.19
519.10	34508.86
519.27	35023.78
519.45	35089.31
519.62	35033.14
519.79	34930.16
519.96	35225.06
520.14	35349.11
520.31	35302.30
520.48	35634.66
520.65	35150.17
520.83	35192.30
521.00	35618.27
521.17	35569.12
521.34	35952.97
521.52	36306.39
521.69	35845.30
521.86	35981.06
522.03	36100.42
522.20	36182.34
522.38	36299.37
522.55	36615.34
522.72	36126.17
522.89	35648.70
523.07	36233.83
523.24	36100.42
523.41	36531.08
523.58	36290.01
523.75	37118.56
523.92	37172.39
524.10	37097.49
524.27	37130.26
524.44	37017.91
524.61	37235.58
524.78	37401.76
524.96	37581.98
525.13	37338.57
525.30	37626.45
525.47	37921.36
525.64	37834.76
525.81	37249.63
525.98	37102.17
526.16	36985.15
526.33	37036.64
526.50	37464.96
526.67	37624.11
526.84	37551.56
527.01	37057.70
527.18	37724.75
527.36	37500.06
527.53	38040.73
527.70	38422.23
527.87	38478.41
528.04	38075.84
528.21	38106.26
528.38	38583.73
528.55	38581.39
528.72	38588.41
528.89	38796.72
529.07	38464.36
529.24	38773.31
529.41	38265.42
529.58	38040.73
529.75	38775.66
529.92	38770.97
530.09	39150.14
530.26	38785.02
530.43	39459.09
530.60	38880.98
530.77	39248.44
530.94	39330.36
531.11	39454.41
531.28	39313.98
531.46	39342.06
531.63	39421.64
531.80	39321.00
531.97	39714.21
532.14	39407.60
532.31	39367.81
532.48	39381.85
532.65	39594.84
532.82	39559.73
532.99	39643.99
533.16	39377.17
533.33	40226.79
533.50	39636.97
533.67	39871.03
533.84	39978.69
534.01	39957.63
534.18	40062.95
534.35	40252.53
534.52	40060.61
534.69	40245.51
534.86	40353.18
535.03	40222.11
535.20	40505.31
535.37	40304.02
535.54	40657.45
535.71	40325.09
535.88	40671.49
536.05	40327.43
536.22	40297.00
536.38	40690.21
536.55	40802.56
536.72	40620.00
536.89	40481.91
537.06	40790.86
537.23	40627.02
537.40	40655.11
537.57	41137.26
537.74	40816.60
537.91	41205.13
538.08	41181.73
538.25	40828.30
538.42	41050.66
538.59	41305.77
538.75	41099.81
538.92	41230.88
539.09	41368.97
539.26	41097.47
539.43	41001.50
539.60	41483.66
539.77	41280.03
539.94	41680.26
540.11	40959.38
540.28	41483.66
540.44	41319.82
540.61	41265.99
540.78	41132.57
540.95	41523.44
541.12	41698.98
541.29	41518.76
541.46	42052.41
541.62	41755.16
541.79	42249.01
541.96	41652.17
542.13	42162.41
542.30	41916.65
542.47	42054.75
542.63	41961.12
542.80	42241.99
542.97	42405.83
543.14	42684.35
543.31	42466.68
543.48	42469.02
543.64	43311.61
543.81	42789.67
543.98	42689.03
544.15	42635.20
544.32	42946.49
544.48	43217.99
544.65	43452.05
544.82	43220.33
544.99	42630.52
545.16	42925.42
545.32	43145.44
545.49	43047.13
545.66	43243.74
545.83	43012.02
546.00	43456.73
546.16	43405.23
546.33	43199.27
546.50	43330.34
546.67	43033.09
546.83	42658.60
547.00	42925.42
547.17	43044.79
547.34	43510.56
547.50	43608.86
547.67	43796.10
547.84	43442.68
548.00	43826.53
548.17	43894.41
548.34	43847.60
548.51	44037.18
548.67	44088.67
548.84	43950.58
549.01	43662.69
549.18	43805.47
549.34	43899.09
549.51	43892.07
549.68	44037.18
549.84	43969.30
550.01	44215.06
550.18	43746.95
550.34	44194.00
550.51	43618.22
550.68	44055.90
550.84	43679.08
551.01	44425.71
551.18	43964.62
551.34	43662.69
551.51	44222.08
551.68	44275.91
551.84	44472.52
552.01	44062.93
552.18	43889.73
552.34	44304.00
552.51	44502.95
552.68	44018.46
552.84	44786.15
553.01	44662.10
553.18	44685.51
553.34	44177.61
553.51	44392.94
553.67	44657.42
553.84	44729.98
554.01	44905.52
554.17	44851.69
554.34	44940.63
554.51	44751.04
554.67	44875.09
554.84	44769.77
555.00	44708.91
555.17	44596.57
555.33	45263.62
555.50	44886.79
555.67	44863.39
555.83	44552.10
556.00	45045.95
556.16	45275.32
556.33	45174.68
556.50	45059.99
556.66	45184.04
556.83	44734.66
556.99	45125.53
557.16	45148.93
557.32	44825.94
557.49	45354.90
557.65	44767.43
557.82	45076.38
557.98	44989.78
558.15	44907.86
558.32	45333.84
558.48	44863.39
558.65	45116.17
558.81	45003.82
558.98	45099.78
559.14	45361.92
559.31	44978.07
559.47	45485.97
559.64	45275.32
559.80	45436.82
559.97	45652.15
560.13	45074.04
560.30	45469.59
560.46	45544.48
560.63	45401.71
560.79	45317.45
560.96	45663.85
561.12	45464.91
561.29	45549.17
561.45	45642.79
561.61	45495.33
561.78	45574.91
561.94	45467.25
562.11	45485.97
562.27	45261.28
562.44	45750.45
562.60	45815.99
562.77	45710.66
562.93	45308.09
563.10	46038.34
563.26	45677.90
563.42	46003.23
563.59	45738.75
563.75	45811.31
563.92	45855.78
564.08	45921.31
564.24	46134.30
564.41	45778.54
564.57	46080.47
564.74	45801.94
564.90	46066.42
565.07	45930.67
565.23	45876.84
565.39	46007.91
565.56	46038.34
565.72	45930.67
565.88	46141.32
566.05	46033.66
566.21	45914.29
566.38	45691.94
566.54	45764.49
566.70	46007.91
566.87	46387.08
567.03	45993.87
567.19	46256.01
567.36	46089.83
567.52	45769.18
567.68	46417.50
567.85	46174.09
568.01	45902.59
568.17	45801.94
568.34	46316.86
568.50	46028.98
568.66	46082.81
568.83	45815.99
568.99	45694.28
569.15	46223.24
569.32	46284.09
569.48	45925.99
569.64	46190.47
569.81	46162.39
569.97	46031.32
570.13	46206.86
570.30	45762.15
570.46	46040.68
570.62	45876.84
570.78	45766.84
570.95	45771.52
571.11	46146.00
571.27	46237.28
571.43	45858.12
571.60	46478.36
571.76	46000.89
571.92	46195.15
572.09	46260.69
572.25	46169.41
572.41	45949.40
572.57	46426.87
572.74	47023.70
572.90	46087.49
573.06	45975.14
573.22	46225.58
573.38	46251.33
573.55	45951.74
573.71	46129.62
573.87	45888.54
574.03	45743.43
574.20	46373.03
574.36	46342.61
574.52	46148.34
574.68	46108.55
574.84	46508.79
575.01	45993.87
575.17	45844.07
575.33	46363.67
575.49	45977.48
575.65	46857.52
575.82	46534.53
575.98	45881.52
576.14	46597.73
576.30	46188.13
576.46	46120.26
576.62	46277.07
576.79	46307.50
576.95	45918.97
577.11	46574.32
577.27	46054.72
577.43	46328.56
577.59	46300.48
577.75	45830.03
577.92	45691.94
578.08	46103.87
578.24	45909.61
578.40	46176.43
578.56	45970.46
578.72	46284.09
578.88	46391.76
579.04	46398.78
579.21	46005.57
579.37	46461.97
579.53	46370.69
579.69	45961.10
579.85	46611.77
580.01	46146.00
580.17	46897.31
580.33	46394.10
580.49	46494.74
580.65	46380.06
580.82	46052.38
580.98	46220.90
581.14	46457.29
581.30	46419.84
581.46	46583.68
581.62	46684.33
581.78	46492.40
581.94	46525.17
582.10	46616.45
582.26	46831.78
582.42	46286.43
582.58	46232.60
582.74	46445.59
582.90	46087.49
583.06	46396.44
583.22	46890.29
583.38	46801.35
583.54	46438.57
583.70	46246.65
583.86	46763.90
584.02	46108.55
584.18	46623.47
584.34	46440.91
584.50	46260.69
584.66	46340.27
584.82	46616.45
584.98	46939.44
585.14	46513.47
585.30	46576.66
585.46	46525.17
585.62	46351.97
585.78	46251.33
585.94	45820.67
586.10	46335.59
586.26	46234.94
586.42	46260.69
586.58	46885.61
586.74	46431.55
586.90	45954.08
587.06	46204.52
587.22	46424.53
587.38	46295.80
587.54	46543.89
587.70	46731.14
587.86	46363.67
588.02	46410.48
588.18	46429.21
588.34	46328.56
588.49	45970.46
588.65	45855.78
588.81	45858.12
588.97	46031.32
589.13	46005.57
589.29	45977.48
589.45	45862.80
589.61	46232.60
589.77	46387.08
589.93	46450.27
590.08	46677.30
590.24	46651.56
590.40	46658.58
590.56	46670.28
590.72	46618.79
590.88	46787.31
591.04	46300.48
591.20	46976.89
591.35	46609.43
591.51	46934.76
591.67	46902.00
591.83	46569.64
591.99	46562.62
592.15	46632.83
592.31	46864.55
592.46	46536.87
592.62	47000.30
592.78	46754.54
592.94	46770.93
593.10	46305.16
593.26	46967.53
593.41	46473.68
593.57	46506.44
593.73	46642.20
593.89	46635.17
594.05	46057.06
594.20	46728.80
594.36	46951.15
594.52	46890.29
594.68	46686.67
594.84	46513.47
594.99	47075.19
595.15	46639.86
595.31	46941.78
595.47	46885.61
595.62	46672.62
595.78	46848.16
595.94	46670.28
596.10	46866.89
596.25	47173.50
596.41	46754.54
596.57	46745.18
596.73	46773.27
596.88	46454.95
597.04	46501.76
597.20	46876.25
597.36	46653.90
597.51	46932.42
597.67	46705.39
597.83	47103.28
597.99	46543.89
598.14	46693.69
598.30	46703.05
598.46	46349.63
598.61	46981.57
598.77	46623.47
598.93	46639.86
599.09	46740.50
599.24	46754.54
599.40	46630.49
599.56	46817.74
599.71	46979.23
599.87	47091.58
600.03	46569.64
600.18	46946.47
600.34	46590.70
600.50	46628.15
600.65	46955.83
600.81	47337.33
600.97	47002.64
601.12	47302.23
601.28	46642.20
601.44	46784.97
601.59	46916.04
601.75	46174.09
601.91	46916.04
602.06	46698.37
602.22	46948.81
602.37	46412.82
602.53	46714.75
602.69	46962.85
602.84	46913.70
603.00	46447.93
603.16	46494.74
603.31	46993.28
603.47	46681.98
603.62	46232.60
603.78	46635.17
603.94	46616.45
604.09	46436.23
604.25	46981.57
604.40	46499.42
604.56	46550.91
604.71	46653.90
604.87	46579.00
605.03	46749.86
605.18	46557.94
605.34	46813.05
605.49	46522.83
605.65	46981.57
605.80	46831.78
605.96	46745.18
606.12	46787.31
606.27	46916.04
606.43	46499.42
606.58	46820.08
606.74	46340.27
606.89	46550.91
607.05	46754.54
607.20	46672.62
607.36	46424.53
607.51	46948.81
607.67	46852.84
607.82	46361.33
607.98	46721.77
608.13	46520.49
608.29	46286.43
608.44	46129.62
608.60	46459.63
608.75	46270.05
608.91	45951.74
609.06	46064.08
609.22	46639.86
609.37	45757.47
609.53	46412.82
609.68	46351.97
609.84	46260.69
609.99	46777.95
610.15	46298.14
610.30	46239.62
610.46	45757.47
610.61	46174.09
610.76	46274.73
610.92	46019.61
611.07	45914.29
611.23	45925.99
611.38	46213.88
611.54	45844.07
611.69	45954.08
611.84	45516.40
612.00	46206.86
612.15	45820.67
612.31	45944.72
612.46	45736.41
612.62	46206.86
612.77	45858.12
612.92	46358.99
613.08	46040.68
613.23	45862.80
613.39	45918.97
613.54	45333.84
613.69	45888.54
613.85	45502.35
614.00	45764.49
614.15	46043.02
614.31	45734.07
614.46	46040.68
614.62	45347.88
614.77	45855.78
614.92	45815.99
615.08	45717.68
615.23	45382.99
615.38	45404.05
615.54	45408.73
615.69	45429.80
615.84	45240.21
616.00	45148.93
616.15	45567.89
616.30	45134.89
616.46	45191.06
616.61	44893.82
616.76	44884.45
616.92	44907.86
617.07	44978.07
617.22	45167.66
617.37	45228.51
617.53	45251.92
617.68	45263.62
617.83	45162.98
617.99	45474.27
618.14	45371.28
618.29	45174.68
618.45	44882.11
618.60	44919.56
618.75	44868.07
618.90	45064.67
619.06	44875.09
619.21	44971.05
619.36	45610.02
619.51	44949.99
619.67	45209.79
619.82	44758.06
619.97	45324.47
620.12	44952.33
620.28	44425.71
620.43	44547.42
620.58	44854.03
620.73	44699.55
620.89	44643.38
621.04	44844.66
621.19	44851.69
621.34	44390.60
621.49	44264.21
621.65	44198.68
621.80	44641.04
621.95	44444.43
622.10	44219.74
622.25	44355.49
622.41	44280.60
622.56	43878.02
622.71	44559.12
622.86	44320.38
623.01	44589.55
623.16	44559.12
623.32	44577.84
623.47	44570.82
623.62	44701.89
623.77	44186.97
623.92	44414.01
624.07	44002.07
624.23	43775.04
624.38	43744.61
624.53	44004.41
624.68	43915.47
624.83	44275.91
624.98	44179.95
625.13	44196.34
625.29	44039.52
625.44	43803.13
625.59	43999.73
625.74	43742.27
625.89	43388.85
626.04	42986.28
626.19	43971.64
626.34	43885.04
626.49	43702.48
626.65	43728.23
626.80	43393.53
626.95	43447.36
627.10	43445.02
627.25	43295.23
627.40	43103.31
627.55	43213.31
627.70	42951.17
627.85	43363.11
628.00	42962.87
628.15	43234.38
628.30	43435.66
628.45	43227.35
628.60	43225.01
628.76	43323.32
628.91	43248.42
629.06	42909.04
629.21	42714.78
629.36	43117.35
629.51	43042.45
629.66	42946.49
629.81	42761.59
629.96	43264.80
630.11	42920.74
630.26	43115.01
630.41	43328.00
630.56	42972.24
630.71	42763.93
630.86	43014.37
631.01	42464.34
631.16	42799.04
631.31	42403.49
631.46	42120.28
631.61	42700.73
631.76	42845.85
631.91	42492.43
632.06	42747.54
632.21	42658.60
632.36	42595.41
632.51	42642.22
632.66	42499.45
632.81	42024.32
632.96	42274.76
633.10	41858.14
633.25	42160.07
633.40	42447.96
633.55	42333.27
633.70	42408.17
633.85	42344.97
634.00	42429.23
634.15	42314.55
634.30	42483.06
634.45	42206.88
634.60	42363.70
634.75	42213.90
634.90	42110.92
635.05	42431.57
635.19	42136.66
635.34	42562.64
635.49	42061.77
635.64	41951.76
635.79	41830.05
635.94	41635.79
636.09	42115.60
636.24	41918.99
636.39	42129.64
636.53	41656.85
636.68	41736.43
636.83	41359.61
636.98	42075.81
637.13	41509.40
637.28	41638.13
637.43	42518.17
637.57	41766.86
637.72	41471.95
637.87	41731.75
638.02	41518.76
638.17	41584.30
638.32	41439.18
638.46	41233.22
638.61	41525.78
638.76	41298.75
638.91	41060.02
639.06	41521.10
639.20	41366.63
639.35	41303.43
639.50	41411.10
639.65	41684.94
639.80	41198.11
639.94	41439.18
640.09	40999.16
640.24	41345.56
640.39	40758.09
640.54	40741.71
640.68	40697.24
640.83	40964.06
640.98	41015.55
641.13	40554.46
641.27	41209.81
641.42	40720.64
641.57	41223.86
641.72	41165.34
641.86	40652.76
642.01	40830.65
642.16	41146.62
642.31	40245.51
642.45	40982.78
642.60	40467.86
642.75	40608.29
642.90	40549.78
643.04	40390.62
643.19	40889.16
643.34	40753.41
643.48	40699.58
643.63	40811.92
643.78	40123.80
643.93	40404.67
644.07	40334.45
644.22	40395.31
644.37	40371.90
644.51	40025.50
644.66	40655.11
644.81	40666.81
644.95	40261.90
645.10	40280.62
645.25	40491.27
645.39	40484.25
645.54	40226.79
645.69	40081.67
645.83	40112.10
645.98	40360.20
646.13	39845.28
646.27	39793.79
646.42	39920.18
646.57	40222.11
646.71	40210.40
646.86	40009.12
647.00	40205.72
647.15	40076.99
647.30	40463.18
647.44	40135.51
647.59	40041.88
647.74	39955.29
647.88	39983.37
648.03	39981.03
648.17	39945.92
648.32	39498.88
648.47	39707.19
648.61	39559.73
648.76	39938.90
648.90	39856.98
649.05	39672.08
649.20	39552.71
649.34	39550.37
649.49	39524.63
649.63	39431.01
649.78	39903.79
649.92	39274.19
650.07	39604.20
650.21	38815.44
650.36	39557.39
650.51	39852.30
650.65	39611.23
650.80	39772.72
650.94	39337.38
651.09	39285.89
651.23	39346.75
651.38	39239.08
651.52	39328.02
651.67	38899.70
651.81	39206.31
651.96	38888.00
652.10	39093.97
652.25	39016.73
652.39	38965.24
652.54	38866.94
652.68	39480.16
652.83	39105.67
652.97	39452.07
653.12	39021.41
653.26	38951.20
653.41	38871.62
653.55	38359.04
653.70	38799.06
653.84	38745.23
653.99	39058.86
654.13	39009.71
654.27	38717.14
654.42	38658.63
654.56	39044.82
654.71	38913.75
654.85	38714.80
655.00	38836.51
655.14	38335.63
655.29	38057.11
655.43	38480.75
655.57	38127.33
655.72	37649.86
655.86	37593.68
656.01	38316.91
656.15	37792.63
656.30	37759.86
656.44	37729.44
656.58	37645.18
656.73	37691.99
656.87	37706.03
657.01	37350.27
657.16	37888.59
657.30	37706.03
657.45	37806.67
657.59	37757.52
657.73	37591.34
657.88	38113.28
658.02	37713.05
658.16	37881.57
658.31	37951.79
658.45	37897.95
658.60	37900.29
658.74	37926.04
658.88	37862.85
659.03	37722.41
659.17	37453.25
659.31	37071.75
659.46	37322.18
659.60	37823.06
659.74	36982.80
659.89	37881.57
660.03	37268.35
660.17	37174.73
660.32	37029.62
660.46	37347.93
660.60	37137.28
660.74	37340.91
660.89	37219.20
661.03	36952.38
661.17	36781.52
661.32	36744.07
661.46	36711.30
661.60	36561.51
661.74	36697.26
661.89	36994.51
662.03	36730.03
662.17	36582.57
662.31	36474.91
662.46	36788.54
662.60	36341.50
662.74	36814.29
662.88	36236.17
663.03	36079.36
663.17	36760.45
663.31	36341.50
663.45	36620.02
663.60	36154.26
663.74	36072.34
663.88	35969.35
664.02	36044.25
664.17	36105.10
664.31	35957.65
664.45	35672.10
664.59	35737.64
664.73	35974.03
664.88	35840.62
665.02	36027.87
665.16	35627.63
665.30	35480.18
665.44	35864.03
665.59	35248.47
665.73	35601.89
665.87	35328.05
666.01	35388.90
666.15	35182.93
666.29	35096.33
666.44	35246.13
666.58	35147.82
666.72	35178.25
666.86	35283.58
667.00	35264.85
667.14	34881.00
667.28	34785.04
667.43	34529.92
667.57	34506.52
667.71	35143.14
667.85	34450.35
667.99	34110.97
668.13	34370.77
668.27	34501.84
668.41	34726.53
668.56	34139.05
668.70	34682.06
668.84	34136.71
668.98	34059.48
669.12	33923.72
669.26	34096.92
669.40	34169.48
669.54	34101.61
669.68	34010.32
669.82	34267.78
669.96	33507.11
670.10	33336.25
670.25	33776.27
670.39	33574.98
670.53	33504.77
670.67	33207.52
670.81	33591.37
670.95	33949.47
671.09	33797.34
671.23	33752.87
671.37	33776.27
671.51	33060.07
671.65	33111.56
671.79	32898.57
671.93	33081.13
672.07	33003.89
672.21	32952.40
672.35	32577.92
672.49	32678.56
672.63	33181.77
672.77	32659.84
672.91	32760.48
673.05	32224.50
673.19	32692.60
673.33	32898.57
673.47	32666.86
673.61	32154.28
673.75	32121.51
673.89	31908.52
674.03	31786.82
674.17	31651.06
674.31	31875.76
674.45	31765.75
674.59	31772.77
674.73	31662.77
674.87	31477.86
675.01	31552.76
675.15	31754.05
675.29	31590.21
675.43	31503.61
675.56	31358.50
675.70	30988.69
675.84	31065.93
675.98	30642.29
676.12	31009.76
676.26	30710.17
676.40	30312.28
676.54	30583.78
676.68	30417.60
676.82	30139.08
676.96	30457.39
677.10	30319.30
677.23	30513.56
677.37	30543.99
677.51	30199.93
677.65	30057.16
677.79	29902.68
677.93	30221.00
678.07	30106.31
678.21	29572.67
678.34	29418.19
678.48	29156.05
678.62	29472.03
678.76	29315.21
678.90	29078.82
679.04	29242.65
679.18	28999.24
679.31	28709.01
679.45	28463.25
679.59	28709.01
679.73	28292.40
679.87	28414.10
680.00	28339.21
680.14	28414.10
680.28	28297.08
680.42	28245.58
680.56	27796.20
680.70	27957.70
680.83	27943.66
680.97	27737.69
681.11	27824.29
681.25	27768.12
681.39	27611.30
681.52	27871.10
681.66	27658.11
681.80	27410.01
681.94	27316.39
682.07	27370.22
682.21	27047.23
682.35	27150.21
682.49	27042.55
682.62	26944.25
682.76	26909.14
682.90	26965.31
683.04	27051.91
683.17	26581.46
683.31	26492.52
683.45	26195.28
683.59	26316.98
683.72	26171.87
683.86	26190.59
684.00	25781.00
684.13	25907.39
684.27	25563.33
684.41	25975.27
684.55	25586.74
684.68	25638.23
684.82	25200.55
684.96	25345.66
685.09	25380.77
685.23	25308.21
685.37	25249.70
685.50	25387.79
685.64	25195.87
685.78	25156.08
685.91	25177.14
686.05	24592.01
686.19	24496.05
686.32	24582.65
686.46	24023.26
686.60	23892.19
686.73	23800.91
686.87	23700.26
687.01	23779.84
687.14	23831.33
687.28	23477.91
687.42	23506.00
687.55	23536.43
687.69	23220.45
687.82	23384.29
687.96	23054.28
688.10	23449.83
688.23	23309.40
688.37	23051.94
688.50	22822.56
688.64	22965.34
688.78	22958.31
688.91	22661.07
689.05	22494.89
689.18	22602.55
689.32	22022.10
689.46	22448.08
689.59	22742.99
689.73	22567.45
689.86	22408.29
690.00	22581.49
690.13	22380.20
690.27	22129.77
690.41	22183.60
690.54	21642.93
690.68	21755.28
690.81	21521.23
690.95	21497.82
691.08	21507.18
691.22	21341.00
691.35	21432.29
691.49	21441.65
691.62	21495.48
691.76	20940.77
691.89	21317.60
692.03	20989.92
692.16	20919.71
692.30	21106.95
692.43	21132.70
692.57	20699.70
692.70	20538.20
692.84	20493.73
692.97	20613.10
693.11	20126.27
693.24	20130.95
693.38	20126.27
693.51	19845.40
693.65	20063.07
693.78	20212.87
693.92	19939.02
694.05	19487.30
694.19	19793.91
694.32	19829.02
694.45	19616.03
694.59	19342.19
694.72	19396.02
694.86	19208.78
694.99	19051.96
695.13	18939.62
695.26	18801.52
695.39	18389.59
695.53	18867.06
695.66	19115.16
695.80	18581.51
695.93	18679.82
696.07	18324.05
696.20	18544.06
696.33	18574.49
696.47	18403.63
696.60	18150.85
696.73	18394.27
696.87	18160.22
697.00	18134.47
697.14	18221.07
697.27	17832.54
697.40	18239.79
697.54	17460.40
697.67	17748.28
697.80	17642.96
697.94	17657.00
698.07	17479.12
698.21	17179.53
698.34	17219.32
698.47	17415.93
698.61	17109.32
698.74	17118.68
698.87	17334.01
699.01	16912.71
699.14	16891.65
699.27	16943.14
699.40	16741.85
699.54	16624.83
699.67	16470.35
699.80	16657.59
699.94	16336.94
700.07	16327.58
700.20	16259.70
700.34	16411.84
700.47	16334.60
700.60	16327.58
700.73	16255.02
700.87	16217.57
701.00	15707.34
701.13	15936.71
701.26	16035.01
701.40	15613.71
701.53	15637.12
701.66	15889.90
701.79	15400.72
701.93	15358.60
702.06	15346.89
702.19	15150.29
702.32	15339.87
702.46	15096.46
702.59	15026.24
702.72	15166.67
702.85	14930.28
702.99	15026.24
703.12	15257.95
703.25	14675.16
703.38	14717.29
703.51	14654.09
703.65	15000.49
703.78	14534.73
703.91	14466.85
704.04	14565.15
704.17	14420.04
704.31	14420.04
704.44	13895.76
704.57	14005.77
704.70	13731.92
704.83	13877.04
704.96	14043.21
705.10	14195.35
705.23	14171.94
>>>>>End Processed Spectral Data<<<<<
