SpectraSuite Data File
++++++++++++++++++++++++++++++++++++
Date: Fri Oct 25 11:34:09 EDT 2013
User: price-jones
Dark Spectrum Present: No
Reference Spectrum Present: No
Number of Sampled Component Spectra: 1
Spectrometers: USB2+H05261
Integration Time (usec): 100000 (USB2+H05261)
Spectra Averaged: 1 (USB2+H05261)
Boxcar Smoothing: 0 (USB2+H05261)
Correct for Electrical Dark: No (USB2+H05261)
Strobe/Lamp Enabled: No (USB2+H05261)
Correct for Detector Non-linearity: No (USB2+H05261)
Correct for Stray Light: No (USB2+H05261)
Number of Pixels in Processed Spectrum: 2048
>>>>>Begin Processed Spectral Data<<<<<
365.73	248.10
365.92	248.10
366.12	248.10
366.32	210.65
366.52	175.54
366.72	198.95
366.91	166.18
367.11	159.16
367.31	119.37
367.51	159.16
367.70	177.88
367.90	203.63
368.10	187.24
368.30	126.39
368.49	208.31
368.69	212.99
368.89	184.90
369.09	245.76
369.28	250.44
369.48	257.46
369.68	203.63
369.87	320.65
370.07	252.78
370.27	250.44
370.47	383.85
370.66	491.51
370.86	524.28
371.06	524.28
371.25	538.32
371.45	557.05
371.65	575.77
371.84	512.58
372.04	526.62
372.24	533.64
372.44	594.50
372.63	601.52
372.83	638.97
373.03	589.82
373.22	683.44
373.42	648.33
373.62	587.47
373.81	561.73
374.01	610.88
374.21	678.76
374.40	620.24
374.60	657.69
374.79	578.11
374.99	620.24
375.19	695.14
375.38	650.67
375.58	674.07
375.78	629.60
375.97	613.22
376.17	664.71
376.37	620.24
376.56	690.46
376.76	676.41
376.95	662.37
377.15	657.69
377.35	730.25
377.54	723.23
377.74	645.99
377.93	664.71
378.13	650.67
378.33	650.67
378.52	645.99
378.72	788.76
378.91	788.76
379.11	795.78
379.31	737.27
379.50	706.84
379.70	814.51
379.89	781.74
380.09	681.10
380.28	681.10
380.48	653.01
380.68	758.33
380.87	678.76
381.07	716.20
381.26	779.40
381.46	744.29
381.65	805.14
381.85	741.95
382.04	751.31
382.24	772.38
382.43	709.18
382.63	667.05
382.83	788.76
383.02	837.91
383.22	816.85
383.41	793.44
383.61	809.83
383.80	866.00
384.00	816.85
384.19	781.74
384.39	823.87
384.58	788.76
384.78	802.80
384.97	807.48
385.17	779.40
385.36	791.10
385.56	791.10
385.75	798.12
385.95	854.30
386.14	856.64
386.34	844.93
386.53	910.47
386.72	873.02
386.92	894.08
387.11	875.36
387.31	875.36
387.50	868.34
387.70	868.34
387.89	894.08
388.09	1015.79
388.28	929.19
388.48	833.23
388.67	835.57
388.86	889.40
389.06	917.49
389.25	938.55
389.45	954.94
389.64	858.98
389.84	926.85
390.03	917.49
390.22	973.66
390.42	952.60
390.61	912.81
390.81	950.26
391.00	1029.84
391.19	1022.81
391.39	873.02
391.58	966.64
391.78	992.39
391.97	1034.52
392.16	1001.75
392.36	1128.14
392.55	1090.69
392.75	1032.18
392.94	952.60
393.13	1071.97
393.33	959.62
393.52	997.07
393.71	1039.20
393.91	1121.12
394.10	1116.44
394.29	964.30
394.49	1036.86
394.68	1043.88
394.88	1041.54
395.07	1078.99
395.26	1179.63
395.46	1144.52
395.65	1235.80
395.84	1062.60
396.04	1184.31
396.23	1088.35
396.42	1167.93
396.62	1217.08
396.81	1196.01
397.00	1210.06
397.19	1214.74
397.39	1188.99
397.58	1156.22
397.77	1238.14
397.97	1210.06
398.16	1196.01
398.35	1317.72
398.55	1284.95
398.74	1240.48
398.93	1357.51
399.12	1280.27
399.32	1228.78
399.51	1252.19
399.70	1341.13
399.90	1275.59
400.09	1336.45
400.28	1320.06
400.47	1261.55
400.67	1448.79
400.86	1387.94
401.05	1383.26
401.24	1322.40
401.44	1394.96
401.63	1483.90
401.82	1441.77
402.01	1430.07
402.21	1504.96
402.40	1446.45
402.59	1418.36
402.78	1432.41
402.97	1465.18
403.17	1600.93
403.36	1509.65
403.55	1472.20
403.74	1584.54
403.93	1533.05
404.13	1481.56
404.32	1631.35
404.51	1535.39
404.70	1647.74
404.89	1579.86
405.09	1582.20
405.28	1743.70
405.47	1614.97
405.66	1596.25
405.85	1788.17
406.05	1657.10
406.24	1645.40
406.43	1741.36
406.62	1846.68
406.81	1813.92
407.00	1750.72
407.20	1661.78
407.39	1664.12
407.58	1774.13
407.77	1846.68
407.96	1750.72
408.15	1877.11
408.34	1795.19
408.54	1837.32
408.73	1973.07
408.92	1914.56
409.11	1926.26
409.30	1933.28
409.49	1919.24
409.68	1919.24
409.87	2101.80
410.07	1989.46
410.26	1963.71
410.45	1919.24
410.64	2120.53
410.83	2069.03
411.02	2024.56
411.21	2120.53
411.40	1982.43
411.59	2197.76
411.78	2179.04
411.98	2090.10
412.17	2218.83
412.36	2242.23
412.55	2146.27
412.74	2270.32
412.93	2284.36
413.12	2333.51
413.31	2408.41
413.50	2225.85
413.69	2387.35
413.88	2307.77
414.07	2392.03
414.26	2490.33
414.45	2417.77
414.64	2443.52
414.83	2651.83
415.02	2593.31
415.22	2565.23
415.41	2586.29
415.60	2548.84
415.79	2628.42
415.98	2836.73
416.17	2670.55
416.36	2705.66
416.55	2635.44
416.74	2754.81
416.93	2818.00
417.12	2785.24
417.31	2855.45
417.50	2792.26
417.69	2860.13
417.88	2937.37
418.07	2857.79
418.26	2860.13
418.45	2906.95
418.64	2890.56
418.83	2878.86
419.02	2939.71
419.21	2979.50
419.39	3061.42
419.58	2963.12
419.77	2984.18
419.96	3019.29
420.15	3148.02
420.34	3122.27
420.53	3091.85
420.72	3108.23
420.91	3087.17
421.10	3262.71
421.29	3241.64
421.48	3295.47
421.67	3119.93
421.86	3199.51
422.05	3346.97
422.24	3243.98
422.43	3370.37
422.61	3449.95
422.80	3459.31
422.99	3283.77
423.18	3321.22
423.37	3351.65
423.56	3344.63
423.75	3229.94
423.94	3133.98
424.13	3080.14
424.32	3267.39
424.50	3283.77
424.69	3384.41
424.88	3218.24
425.07	3288.45
425.26	3344.63
425.45	3372.71
425.64	3363.35
425.83	3269.73
426.01	3384.41
426.20	3421.86
426.39	3368.03
426.58	3342.28
426.77	3538.89
426.96	3471.01
427.15	3438.25
427.33	3419.52
427.52	3552.93
427.71	3536.55
427.90	3485.06
428.09	3637.19
428.28	3576.34
428.46	3541.23
428.65	3548.25
428.84	3665.28
429.03	3789.33
429.22	3578.68
429.40	3660.60
429.59	3686.34
429.78	3583.36
429.97	3536.55
430.16	3648.90
430.34	3606.77
430.53	3810.39
430.72	3674.64
430.91	3824.44
431.10	3819.75
431.28	3712.09
431.47	3859.54
431.66	3953.16
431.85	3943.80
432.03	3854.86
432.22	3990.61
432.41	3955.51
432.60	4035.08
432.79	3955.51
432.97	4011.68
433.16	4081.89
433.35	3875.93
433.54	4053.81
433.72	4119.34
433.91	4007.00
434.10	4173.18
434.28	4032.74
434.47	4154.45
434.66	4154.45
434.85	4344.03
435.03	4273.82
435.22	4187.22
435.41	4278.50
435.59	4222.33
435.78	4346.37
435.97	4390.84
436.16	4301.90
436.34	4264.46
436.53	4194.24
436.72	4437.66
436.90	4283.18
437.09	4505.53
437.28	4348.72
437.46	4372.12
437.65	4304.25
437.84	4339.35
438.02	4367.44
438.21	4580.43
438.40	4409.57
438.58	4596.81
438.77	4631.92
438.96	4683.41
439.14	4755.97
439.33	4842.57
439.52	4758.31
439.70	4706.82
439.89	4887.04
440.08	4945.55
440.26	4821.50
440.45	4819.16
440.63	4884.70
440.82	5020.45
441.01	5053.22
441.19	5177.26
441.38	5167.90
441.57	5057.90
441.75	5034.49
441.94	5268.55
442.12	5275.57
442.31	5324.72
442.50	5320.04
442.68	5259.18
442.87	5235.78
443.05	5362.17
443.24	5411.32
443.43	5270.89
443.61	5479.19
443.80	5596.22
443.98	5289.61
444.17	5313.02
444.35	5383.23
444.54	5600.90
444.73	5355.15
444.91	5514.30
445.10	5504.94
445.28	5458.13
445.47	5488.56
445.65	5486.22
445.84	5586.86
446.02	5708.57
446.21	5476.85
446.39	5502.60
446.58	5621.97
446.77	5682.82
446.95	5387.91
447.14	5486.22
447.32	5624.31
447.51	5767.08
447.69	5497.92
447.88	5650.05
448.06	5540.05
448.25	5694.52
448.43	5523.66
448.62	5659.42
448.80	5504.94
448.99	5771.76
449.17	5680.48
449.36	5682.82
449.54	5830.27
449.73	5933.26
449.91	5968.37
450.10	5792.83
450.28	5987.09
450.46	5928.58
450.65	6076.03
450.83	6015.18
451.02	5853.68
451.20	6162.63
451.39	6038.58
451.57	5968.37
451.76	5912.19
451.94	6005.81
452.13	5951.98
452.31	6090.07
452.49	6090.07
452.68	6106.46
452.86	5898.15
453.05	6228.17
453.23	6167.31
453.42	6190.72
453.60	6197.74
453.78	6211.78
453.97	6256.25
454.15	6310.08
454.34	6244.55
454.52	6284.34
454.70	6399.02
454.89	6408.39
455.07	6319.45
455.26	6558.18
455.44	6485.62
455.62	6422.43
455.81	6609.67
455.99	6607.33
456.17	6558.18
456.36	6773.51
456.54	6635.42
456.73	6654.14
456.91	6899.90
457.09	6867.13
457.28	6878.83
457.46	6612.01
457.64	6932.67
457.83	6932.67
458.01	6836.70
458.19	7033.31
458.38	6817.98
458.56	6977.14
458.74	6906.92
458.93	7045.01
459.11	6993.52
459.29	7101.19
459.48	7229.91
459.66	7091.82
459.84	7077.78
460.03	7276.73
460.21	7173.74
460.39	7190.13
460.57	7091.82
460.76	7225.23
460.94	7428.86
461.12	7358.64
461.31	7234.60
461.49	7243.96
461.67	7342.26
461.85	7538.87
462.04	7297.79
462.22	7962.50
462.40	7590.36
462.59	7531.84
462.77	7487.37
462.95	7524.82
463.13	7494.40
463.32	7522.48
463.50	7761.22
463.68	7772.92
463.86	7609.08
464.05	7639.51
464.23	7595.04
464.41	7805.69
464.59	7691.00
464.78	7892.29
464.96	7868.88
465.14	7805.69
465.32	7995.27
465.50	7894.63
465.69	7962.50
465.87	7997.61
466.05	7911.01
466.23	7796.32
466.41	7829.09
466.60	8180.17
466.78	8046.76
466.96	7915.69
467.14	8030.38
467.32	8021.02
467.51	8067.83
467.69	7901.65
467.87	8208.26
468.05	8079.53
468.23	8053.78
468.41	7995.27
468.60	8126.34
468.78	8369.76
468.96	8332.31
469.14	8386.14
469.32	8362.73
469.50	8390.82
469.69	8393.16
469.87	8554.66
470.05	8636.58
470.23	8365.07
470.41	8432.95
470.59	8683.39
470.77	8669.34
470.95	8809.78
471.14	8784.03
471.32	8512.53
471.50	8791.05
471.68	8919.78
471.86	8744.24
472.04	8805.10
472.22	9071.92
472.40	8959.57
472.58	8940.85
472.77	9050.85
472.95	9135.11
473.13	9427.68
473.31	9247.46
473.49	9254.48
473.67	9095.32
473.85	9109.36
474.03	9617.26
474.21	9329.38
474.39	9355.12
474.57	9600.88
474.75	9769.40
474.93	9736.63
475.12	9783.44
475.30	9748.33
475.48	10008.13
475.66	9785.78
475.84	9755.35
476.02	9937.91
476.20	9984.73
476.38	9961.32
476.56	10230.48
476.74	10286.65
476.92	10326.44
477.10	10164.95
477.28	10593.26
477.46	10452.83
477.64	10551.14
477.82	10532.41
478.00	10782.85
478.18	10658.80
478.36	11054.35
478.54	11332.87
478.72	11129.25
478.90	11213.51
479.08	11325.85
479.26	11293.08
479.44	11442.88
479.62	11515.44
479.80	11351.60
479.98	11653.53
480.16	11910.99
480.34	11599.70
480.52	11712.04
480.70	12163.76
480.88	11824.39
481.06	12191.85
481.24	12297.17
481.41	12058.44
481.59	12556.97
481.77	12484.42
481.95	12629.53
482.13	12781.67
482.31	12681.02
482.49	13179.56
482.67	12688.04
482.85	13128.06
483.03	13163.17
483.21	13275.52
483.39	13226.37
483.57	13373.82
483.74	13619.58
483.92	13729.58
484.10	13532.98
484.28	13846.61
484.46	13858.31
484.64	14267.91
484.82	14040.87
485.00	14232.80
485.18	14417.70
485.35	14773.46
485.53	14789.85
485.71	14752.40
485.89	15002.83
486.07	14951.34
486.25	14906.87
486.43	15470.94
486.61	15295.40
486.78	15442.85
486.96	15716.70
487.14	15672.23
487.32	15723.72
487.50	15630.10
487.68	15969.48
487.85	16123.95
488.03	16123.95
488.21	16446.94
488.39	16437.58
488.57	17149.11
488.75	16781.64
488.92	16828.45
489.10	16950.16
489.28	17111.66
489.46	16905.69
489.64	17305.92
489.81	17865.31
489.99	17645.30
490.17	17565.72
490.35	17736.58
490.53	17710.83
490.70	18204.69
490.88	18291.29
491.06	18614.28
491.24	18366.18
491.41	18597.90
491.59	18642.37
491.77	18546.40
491.95	18956.00
492.13	19080.05
492.30	19250.91
492.48	19185.37
492.66	19007.49
492.84	19318.78
493.01	19323.46
493.19	19442.83
493.37	19606.67
493.54	19751.78
493.72	19906.26
493.90	20128.61
494.08	20395.43
494.25	20294.79
494.43	20769.91
494.61	20367.34
494.79	20603.74
494.96	20638.84
495.14	20676.29
495.32	21371.43
495.49	21050.78
495.67	21025.03
495.85	21135.04
496.02	21612.51
496.20	22061.89
496.38	21759.96
496.55	21884.01
496.73	22480.85
496.91	22183.60
497.09	22134.45
497.26	22230.41
497.44	22211.68
497.62	22424.67
497.79	22799.16
497.97	22689.15
498.14	23051.94
498.32	22820.22
498.50	22974.70
498.67	23365.57
498.85	23187.69
499.03	23449.83
499.20	23665.16
499.38	23873.46
499.56	23665.16
499.73	23857.08
499.91	23711.97
500.08	24013.90
500.26	24002.19
500.44	24086.45
500.61	24191.78
500.79	24020.92
500.97	24432.85
501.14	24957.13
501.32	24379.02
501.49	24746.48
501.67	24606.05
501.84	24809.68
502.02	24776.91
502.20	24943.09
502.37	24556.90
502.55	24891.60
502.72	25034.37
502.90	25233.32
503.07	25043.73
503.25	25254.38
503.43	24945.43
503.60	25266.08
503.78	25785.68
503.95	25507.16
504.13	25734.19
504.30	25848.88
504.48	25907.39
504.65	26003.35
504.83	25998.67
505.01	26611.89
505.18	26525.29
505.36	26761.69
505.53	26485.50
505.71	26726.58
505.88	26471.46
506.06	26686.79
506.23	26661.04
506.41	26920.84
506.58	27117.45
506.76	27414.69
506.93	27386.61
507.11	27281.28
507.28	27606.62
507.46	27456.82
507.63	27365.54
507.81	27910.89
507.98	27814.93
508.16	27594.92
508.33	27838.33
508.50	27828.97
508.68	28067.70
508.85	27892.16
509.03	28287.71
509.20	28196.43
509.38	28503.04
509.55	28166.01
509.73	28601.35
509.90	28788.59
510.08	28449.21
510.25	28528.79
510.42	28858.81
510.60	29008.60
510.77	28996.90
510.95	29312.87
511.12	29326.91
511.30	28947.75
511.47	29256.70
511.64	29376.06
511.82	29415.85
511.99	29195.84
512.17	29467.34
512.34	29336.27
512.51	29741.19
512.69	29673.31
512.86	30263.13
513.04	30134.40
513.21	30309.94
513.38	30326.32
513.56	30148.44
513.73	30153.12
513.90	30295.89
514.08	30213.98
514.25	30773.36
514.43	30707.83
514.60	31049.55
514.77	30820.17
514.95	30890.39
515.12	30813.15
515.29	30632.93
515.47	30932.52
515.64	31016.78
515.81	31316.37
515.99	31379.56
516.16	31681.49
516.33	31379.56
516.51	31508.29
516.68	31391.26
516.85	31426.37
517.03	31660.43
517.20	31889.80
517.37	31941.29
517.54	31484.89
517.72	31934.27
517.89	31990.44
518.06	31824.26
518.24	31828.95
518.41	32245.56
518.58	32285.35
518.75	31850.01
518.93	32575.58
519.10	32444.51
519.27	32589.62
519.45	32685.58
519.62	33064.75
519.79	32395.35
519.96	32868.14
520.14	32851.76
520.31	32486.64
520.48	32959.42
520.65	33139.65
520.83	33221.56
521.00	33310.50
521.17	33441.57
521.34	33308.16
521.52	33324.55
521.69	33638.18
521.86	33750.52
522.03	33404.13
522.20	33837.12
522.38	34153.10
522.55	34412.90
522.72	34019.69
522.89	34576.73
523.07	34721.85
523.24	34043.09
523.41	34284.17
523.58	34052.45
523.75	34333.32
523.92	34794.40
524.10	34513.54
524.27	34892.71
524.44	34553.33
524.61	35108.04
524.78	34848.24
524.96	35007.39
525.13	35019.10
525.30	35255.49
525.47	35049.52
525.64	34597.80
525.81	35314.00
525.98	35342.09
526.16	35033.14
526.33	35412.31
526.50	35835.94
526.67	35314.00
526.84	35510.61
527.01	35693.17
527.18	35431.03
527.36	36133.19
527.53	35894.46
527.70	36397.67
527.87	36091.06
528.04	36130.85
528.21	36400.01
528.38	35833.60
528.55	36290.01
528.72	36222.13
528.89	36596.62
529.07	35819.56
529.24	35564.44
529.41	35985.74
529.58	36643.43
529.75	36552.15
529.92	36603.64
530.09	36376.61
530.26	36500.65
530.43	36596.62
530.60	36299.37
530.77	36158.94
530.94	36802.58
531.11	36631.72
531.28	36746.41
531.46	36655.13
531.63	36849.39
531.80	37326.86
531.97	37116.22
532.14	37486.02
532.31	36823.65
532.48	37273.03
532.65	37385.38
532.82	37607.73
532.99	37759.86
533.16	37366.65
533.33	37607.73
533.50	37673.26
533.67	37855.82
533.84	37610.07
534.01	37816.04
534.18	38071.15
534.35	38120.31
534.52	38099.24
534.69	38323.93
534.86	38504.15
535.03	38045.41
535.20	38148.39
535.37	38447.98
535.54	38782.68
535.71	38342.66
535.88	38637.56
536.05	38497.13
536.22	38394.15
536.38	38410.53
536.55	38455.00
536.72	38417.55
536.89	38663.31
537.06	38504.15
537.23	39119.71
537.40	38710.12
537.57	38885.66
537.74	38607.14
537.91	38939.49
538.08	39026.09
538.25	39065.88
538.42	39278.87
538.59	39098.65
538.75	39281.21
538.92	39283.55
539.09	39821.87
539.26	39208.65
539.43	39257.81
539.60	39395.90
539.77	39475.48
539.94	39786.77
540.11	39838.26
540.28	40172.96
540.44	39199.29
540.61	39655.70
540.78	39325.68
540.95	39538.67
541.12	39700.17
541.29	39601.86
541.46	40222.11
541.62	39477.82
541.79	40053.59
541.96	39835.92
542.13	39599.52
542.30	40158.91
542.47	40610.64
542.63	40341.47
542.80	40425.73
542.97	40945.33
543.14	40737.02
543.31	40790.86
543.48	40322.75
543.64	40889.16
543.81	40971.08
543.98	40788.52
544.15	40767.45
544.32	41043.63
544.48	41277.69
544.65	40942.99
544.82	41392.37
544.99	40561.48
545.16	40762.77
545.32	40961.72
545.49	41408.76
545.66	41621.75
545.83	41359.61
546.00	41333.86
546.16	41361.95
546.33	41013.21
546.50	41361.95
546.67	41446.21
546.83	41057.68
547.00	41163.00
547.17	41118.53
547.34	41986.87
547.50	41883.89
547.67	41647.49
547.84	41720.05
548.00	41808.99
548.17	42337.95
548.34	41904.95
548.51	42068.79
548.67	41560.89
548.84	42026.66
549.01	42110.92
549.18	42082.83
549.34	42129.64
549.51	42351.99
549.68	42225.60
549.84	42426.89
550.01	42665.63
550.18	42115.60
550.34	42220.92
550.51	42836.48
550.68	42689.03
550.84	42504.13
551.01	42815.42
551.18	42478.38
551.34	42581.37
551.51	42794.36
551.68	42595.41
551.84	42412.85
552.01	42564.98
552.18	42923.08
552.34	42644.56
552.51	42733.50
552.68	42454.98
552.84	42562.64
553.01	43035.43
553.18	43075.22
553.34	42960.53
553.51	42703.07
553.67	43344.38
553.84	43311.61
554.01	43533.96
554.17	43468.43
554.34	43782.06
554.51	43360.76
554.67	43360.76
554.84	43735.25
555.00	42873.93
555.17	43468.43
555.33	44004.41
555.50	43648.65
555.67	43442.68
555.83	43742.27
556.00	44044.20
556.16	44257.19
556.33	44320.38
556.50	43510.56
556.66	43936.54
556.83	43700.14
556.99	44030.16
557.16	43807.81
557.32	43821.85
557.49	43906.11
557.65	43604.18
557.82	43990.37
557.98	44191.65
558.15	43819.51
558.32	44060.58
558.48	44161.23
558.65	44470.18
558.81	43775.04
558.98	43728.23
559.14	43761.00
559.31	43852.28
559.47	43955.26
559.64	43775.04
559.80	43880.36
559.97	44385.92
560.13	43672.06
560.30	44203.36
560.46	44357.83
560.63	44463.16
560.79	44472.52
560.96	44662.10
561.12	44580.18
561.29	44301.66
561.45	44737.00
561.61	44603.59
561.78	44278.25
561.94	44353.15
562.11	44406.98
562.27	44746.36
562.44	44603.59
562.60	45081.06
562.77	45057.65
562.93	44720.62
563.10	44875.09
563.26	44444.43
563.42	44755.72
563.59	44226.76
563.75	44538.05
563.92	44631.68
564.08	44980.42
564.24	44959.35
564.41	44311.02
564.57	45127.87
564.74	44835.30
564.90	44313.36
565.07	44641.04
565.23	45127.87
565.39	44655.08
565.56	44734.66
565.72	45043.61
565.88	45118.51
566.05	45193.40
566.21	44914.88
566.38	44767.43
566.54	45043.61
566.70	45380.65
566.87	45008.50
567.03	45078.72
567.19	45160.64
567.36	45249.58
567.52	44828.28
567.68	45261.28
567.85	45261.28
568.01	45617.04
568.17	45411.07
568.34	45476.61
568.50	45488.31
568.66	45553.85
568.83	45109.14
568.99	45184.04
569.15	45340.86
569.32	45092.76
569.48	45064.67
569.64	46003.23
569.81	45696.62
569.97	45382.99
570.13	45820.67
570.30	45294.05
570.46	45717.68
570.62	45507.04
570.78	45162.98
570.95	45319.79
571.11	45216.81
571.27	45584.27
571.43	45155.96
571.60	45654.49
571.76	45404.05
571.92	45202.77
572.09	45347.88
572.25	45811.31
572.41	45361.92
572.57	45476.61
572.74	46108.55
572.90	45195.74
573.06	45956.42
573.22	45839.39
573.38	45846.41
573.55	45509.38
573.71	45923.65
573.87	45698.96
574.03	45436.82
574.20	45502.35
574.36	46155.36
574.52	45771.52
574.68	45677.90
574.84	45865.14
575.01	45713.00
575.17	45904.93
575.33	45851.09
575.49	45338.52
575.65	45918.97
575.82	46103.87
575.98	45336.18
576.14	46052.38
576.30	46087.49
576.46	46174.09
576.62	45909.61
576.79	46054.72
576.95	45813.65
577.11	45574.91
577.27	45977.48
577.43	45867.48
577.59	46014.93
577.75	45862.80
577.92	45631.08
578.08	46066.42
578.24	46127.28
578.40	45895.56
578.56	46206.86
578.72	46230.26
578.88	46127.28
579.04	46096.85
579.21	45680.24
579.37	45975.14
579.53	46232.60
579.69	45776.20
579.85	45975.14
580.01	46124.94
580.17	45769.18
580.33	46028.98
580.49	46054.72
580.65	45839.39
580.82	45979.82
580.98	45647.47
581.14	45783.22
581.30	45792.58
581.46	46047.70
581.62	46253.67
581.78	46110.89
581.94	46000.89
582.10	45694.28
582.26	46122.60
582.42	45743.43
582.58	46550.91
582.74	46117.92
582.90	45820.67
583.06	46260.69
583.22	45537.46
583.38	46052.38
583.54	45989.19
583.70	45935.35
583.86	46707.73
584.02	46396.44
584.18	46138.98
584.34	46471.34
584.50	46305.16
584.66	46234.94
584.82	46220.90
584.98	46543.89
585.14	46419.84
585.30	46085.15
585.46	46146.00
585.62	46153.02
585.78	46113.23
585.94	45923.65
586.10	46071.10
586.26	46326.22
586.42	46068.76
586.58	46298.14
586.74	46010.25
586.90	45996.21
587.06	46328.56
587.22	46066.42
587.38	46106.21
587.54	46115.58
587.70	46871.57
587.86	46171.75
588.02	46321.54
588.18	46218.56
588.34	46473.68
588.49	46358.99
588.65	45947.06
588.81	46653.90
588.97	46752.20
589.13	46080.47
589.29	46454.95
589.45	46204.52
589.61	46703.05
589.77	46389.42
589.93	46569.64
590.08	46241.96
590.24	47030.72
590.40	46813.05
590.56	47035.41
590.72	46583.68
590.88	46461.97
591.04	46188.13
591.20	47033.07
591.35	46564.96
591.51	46993.28
591.67	46693.69
591.83	47054.13
591.99	46363.67
592.15	46513.47
592.31	46635.17
592.46	46366.01
592.62	46719.43
592.78	46780.29
592.94	46740.50
593.10	47107.96
593.26	46803.69
593.41	47030.72
593.57	47049.45
593.73	46857.52
593.89	47370.10
594.05	47220.31
594.20	46873.91
594.36	47175.84
594.52	46990.94
594.68	46838.80
594.84	46817.74
594.99	47009.66
595.15	46710.07
595.31	47086.90
595.47	47246.05
595.62	47096.26
595.78	46660.92
595.94	46838.80
596.10	46277.07
596.25	47058.81
596.41	47487.13
596.57	46763.90
596.73	47103.28
596.88	47100.94
597.04	47068.17
597.20	47540.96
597.36	46965.19
597.51	47086.90
597.67	46829.44
597.83	46653.90
597.99	47007.32
598.14	46637.51
598.30	46892.63
598.46	47082.22
598.61	46990.94
598.77	47182.86
598.93	47241.37
599.09	46796.67
599.24	47274.14
599.40	46820.08
599.56	46780.29
599.71	47480.11
599.87	47594.79
600.03	47196.90
600.18	47391.17
600.34	46976.89
600.50	47063.49
600.65	47110.30
600.81	47477.77
600.97	47189.88
601.12	47093.92
601.28	47091.58
601.44	47180.52
601.59	46862.21
601.75	47316.27
601.91	47653.31
602.06	46885.61
602.22	47358.40
602.37	47377.12
602.53	47096.26
602.69	46972.21
602.84	46871.57
603.00	46707.73
603.16	46897.31
603.31	46829.44
603.47	47079.88
603.62	47250.74
603.78	47665.01
603.94	47419.25
604.09	47386.49
604.25	47157.11
604.40	47173.50
604.56	47276.48
604.71	47585.43
604.87	46944.12
605.03	46302.82
605.18	46986.25
605.34	46829.44
605.49	46681.98
605.65	47103.28
605.80	46976.89
605.96	47124.35
606.12	46871.57
606.27	47019.02
606.43	46934.76
606.58	46941.78
606.74	47051.79
606.89	46831.78
607.05	47686.07
607.20	46883.27
607.36	47332.65
607.51	47058.81
607.67	46829.44
607.82	47147.75
607.98	46932.42
608.13	46773.27
608.29	46885.61
608.44	47049.45
608.60	46911.36
608.75	46639.86
608.91	46902.00
609.06	46440.91
609.22	46754.54
609.37	46836.46
609.53	46948.81
609.68	46834.12
609.84	47007.32
609.99	47002.64
610.15	46775.61
610.30	46806.03
610.46	46845.82
610.61	46714.75
610.76	47349.04
610.92	46593.04
611.07	46869.23
611.23	46403.46
611.38	46192.81
611.54	46864.55
611.69	46892.63
611.84	46773.27
612.00	46583.68
612.15	46316.86
612.31	46373.03
612.46	46206.86
612.62	46829.44
612.77	46354.31
612.92	47126.69
613.08	46328.56
613.23	46457.29
613.39	46333.24
613.54	46508.79
613.69	46859.87
613.85	46375.37
614.00	46258.35
614.15	46663.26
614.31	45977.48
614.46	46342.61
614.62	46005.57
614.77	46618.79
614.92	46497.08
615.08	46263.03
615.23	46361.33
615.38	46801.35
615.54	46492.40
615.69	46724.11
615.84	46153.02
616.00	46188.13
616.15	46707.73
616.30	46763.90
616.46	46003.23
616.61	46089.83
616.76	46597.73
616.92	46131.96
617.07	46117.92
617.22	46429.21
617.37	45797.26
617.53	46256.01
617.68	45762.15
617.83	46202.18
617.99	46174.09
618.14	46583.68
618.29	45963.44
618.45	45408.73
618.60	45631.08
618.75	45539.80
618.90	45975.14
619.06	45769.18
619.21	45858.12
619.36	46050.04
619.51	45713.00
619.67	46050.04
619.82	45923.65
619.97	45930.67
620.12	45776.20
620.28	45801.94
620.43	46131.96
620.58	45930.67
620.73	45965.78
620.89	45549.17
621.04	45696.62
621.19	45713.00
621.34	45118.51
621.49	45670.87
621.65	45537.46
621.80	45549.17
621.95	45638.11
622.10	45595.98
622.25	45411.07
622.41	45556.19
622.56	45727.05
622.71	45605.34
622.86	45724.71
623.01	45504.70
623.16	45476.61
623.32	45151.27
623.47	45558.53
623.62	45244.90
623.77	45441.50
623.92	45567.89
624.07	45319.79
624.23	45504.70
624.38	45382.99
624.53	45401.71
624.68	44992.12
624.83	45034.25
624.98	45411.07
625.13	45074.04
625.29	45045.95
625.44	45244.90
625.59	44989.78
625.74	44903.18
625.89	44952.33
626.04	44727.64
626.19	45280.00
626.34	45015.52
626.49	44591.89
626.65	44315.70
626.80	44690.19
626.95	45010.84
627.10	44259.53
627.25	45200.43
627.40	44886.79
627.55	44748.70
627.70	44678.49
627.85	44481.88
628.00	44369.54
628.15	44952.33
628.30	44266.55
628.45	44432.73
628.60	44385.92
628.76	44098.03
628.91	44074.63
629.06	44098.03
629.21	44189.31
629.36	44446.77
629.51	44374.22
629.66	44816.58
629.81	44231.44
629.96	44589.55
630.11	44364.85
630.26	44273.57
630.41	44154.21
630.56	44205.70
630.71	44032.50
630.86	44175.27
631.01	43894.41
631.16	43892.07
631.31	43885.04
631.46	43901.43
631.61	44264.21
631.76	44243.15
631.91	44046.54
632.06	44114.42
632.21	44322.72
632.36	44215.06
632.51	44201.02
632.66	44381.24
632.81	43583.12
632.96	44123.78
633.10	43725.89
633.25	43810.15
633.40	43791.42
633.55	44130.80
633.70	43583.12
633.85	44112.08
634.00	43580.78
634.15	43688.44
634.30	43690.78
634.45	43533.96
634.60	43793.76
634.75	43831.21
634.90	43700.14
635.05	43634.61
635.19	43147.78
635.34	43524.60
635.49	43943.56
635.64	43646.31
635.79	44222.08
635.94	43260.12
636.09	43608.86
636.24	43344.38
636.39	43365.45
636.53	43903.77
636.68	43456.73
636.83	43075.22
636.98	43042.45
637.13	43063.52
637.28	42824.78
637.43	43496.52
637.57	42951.17
637.72	42822.44
637.87	42941.81
638.02	42789.67
638.17	43033.09
638.32	43086.92
638.46	42948.83
638.61	42361.36
638.76	42646.90
638.91	42782.65
639.06	42939.47
639.20	42494.77
639.35	42494.77
639.50	42363.70
639.65	42307.52
639.80	42859.89
639.94	42801.38
640.09	42564.98
640.24	42808.40
640.39	42887.98
640.54	41858.14
640.68	42789.67
640.83	42946.49
640.98	42263.05
641.13	42745.20
641.27	42792.01
641.42	42106.24
641.57	42272.42
641.72	42567.32
641.86	42260.71
642.01	42347.31
642.16	42466.68
642.31	42052.41
642.45	42038.36
642.60	42272.42
642.75	42073.47
642.90	42513.49
643.04	42115.60
643.19	42120.28
643.34	41937.72
643.48	41745.80
643.63	41780.90
643.78	42326.25
643.93	42251.35
644.07	42183.48
644.22	42178.79
644.37	41532.81
644.51	42146.03
644.66	41858.14
644.81	42220.92
644.95	42251.35
645.10	41596.00
645.25	41762.18
645.39	41706.01
645.54	41851.12
645.69	41338.54
645.83	41598.34
645.98	41720.05
646.13	41596.00
646.27	41628.77
646.42	41507.06
646.57	41612.38
646.71	41886.23
646.86	41886.23
647.00	41649.83
647.15	41420.46
647.30	41577.28
647.44	41918.99
647.59	41359.61
647.74	41640.47
647.88	41715.37
648.03	41500.04
648.17	41425.14
648.32	41633.45
648.47	41528.13
648.61	41364.29
648.76	41195.77
648.90	41254.28
649.05	40512.33
649.20	41097.47
649.34	41015.55
649.49	41207.47
649.63	41153.64
649.78	41118.53
649.92	41535.15
650.07	41638.13
650.21	41191.09
650.36	41556.21
650.51	41462.59
650.65	41223.86
650.80	41029.59
650.94	41343.22
651.09	41041.29
651.23	40608.29
651.38	40439.78
651.52	40170.61
651.67	40664.47
651.81	41050.66
651.96	40996.82
652.10	40484.25
652.25	40399.99
652.39	40517.01
652.54	40341.47
652.68	40535.74
652.83	40458.50
652.97	41013.21
653.12	40495.95
653.26	40458.50
653.41	40753.41
653.55	41057.68
653.70	40634.04
653.84	40872.78
653.99	40641.06
654.13	40416.37
654.27	40378.92
654.42	40655.11
654.56	40161.25
654.71	40189.34
654.85	40360.20
655.00	40009.12
655.14	40444.46
655.29	40591.91
655.43	40470.20
655.57	40451.48
655.72	39882.73
655.86	40037.20
656.01	39985.71
656.15	39861.66
656.30	40187.00
656.44	39812.51
656.58	39833.58
656.73	40184.66
656.87	39856.98
657.01	39723.57
657.16	39311.64
657.30	40182.32
657.45	39807.83
657.59	39246.10
657.73	39236.74
657.88	39423.98
658.02	39524.63
658.16	39971.67
658.31	39782.09
658.45	39466.11
658.60	39363.13
658.74	39662.72
658.88	39643.99
659.03	39459.09
659.17	39267.17
659.31	39332.70
659.46	39311.64
659.60	39475.48
659.74	39267.17
659.89	39117.37
660.03	38429.26
660.17	39140.78
660.32	39363.13
660.46	38667.99
660.60	38459.68
660.74	38892.68
660.89	39007.37
661.03	38572.03
661.17	38543.94
661.32	38525.22
661.46	38792.04
661.60	38630.54
661.74	38632.88
661.89	38782.68
662.03	38742.89
662.17	38373.08
662.31	38286.48
662.46	37972.85
662.60	38373.08
662.74	38033.71
662.88	37879.23
663.03	37488.36
663.17	37811.35
663.31	37745.82
663.45	38120.31
663.60	38431.60
663.74	38064.13
663.88	38068.81
664.02	37816.04
664.17	38014.98
664.31	37446.23
664.45	37404.10
664.59	37645.18
664.73	37434.53
664.88	37666.24
665.02	37333.89
665.16	37493.04
665.30	37654.54
665.44	37535.17
665.59	36774.50
665.73	36954.72
665.87	36547.47
666.01	37277.71
666.15	37053.02
666.29	36533.42
666.44	37132.60
666.58	36973.44
666.72	36994.51
666.86	36655.13
667.00	36844.71
667.14	36615.34
667.28	36769.82
667.43	36786.20
667.57	36737.05
667.71	36650.45
667.85	36727.69
667.99	36563.85
668.13	36137.87
668.27	35915.52
668.41	36165.96
668.56	35606.57
668.70	35920.20
668.84	35349.11
668.98	35833.60
669.12	35414.65
669.26	35784.45
669.40	35587.85
669.54	35810.20
669.68	35494.22
669.82	35271.87
669.96	34888.03
670.10	35166.55
670.25	35384.22
670.39	35033.14
670.53	34948.88
670.67	35105.70
670.81	35318.68
670.95	34782.70
671.09	35166.55
671.23	34979.31
671.37	35461.46
671.51	34593.12
671.65	34532.26
671.79	34604.82
671.93	34485.45
672.07	34707.80
672.21	34398.85
672.35	34155.44
672.49	34506.52
672.63	34263.10
672.77	34209.27
672.91	34185.86
673.05	33968.19
673.19	33762.23
673.33	33869.89
673.47	33823.08
673.61	34019.69
673.75	33486.04
673.89	33589.03
674.03	33099.86
674.17	32917.29
674.31	32711.33
674.45	32884.53
674.59	33165.39
674.73	33221.56
674.87	32694.94
675.01	32631.75
675.15	32545.15
675.29	32430.46
675.43	32465.57
675.56	32287.69
675.70	32580.26
675.84	32177.68
675.98	31447.44
676.12	32205.77
676.26	32233.86
676.40	31789.16
676.54	32084.06
676.68	32060.66
676.82	31332.75
676.96	31875.76
677.10	31477.86
677.23	31407.65
677.37	31393.61
677.51	31503.61
677.65	31510.63
677.79	30969.97
677.93	31374.88
678.07	30927.84
678.21	30703.15
678.34	30649.32
678.48	30579.10
678.62	30623.57
678.76	30122.69
678.90	30143.76
679.04	30398.88
679.18	30801.45
679.31	30000.99
679.45	29670.97
679.59	29827.79
679.73	29869.92
679.87	29427.56
680.00	29460.32
680.14	29495.43
680.28	29635.86
680.42	29907.37
680.56	29097.54
680.70	29102.22
680.83	29076.48
680.97	28783.91
681.11	29301.17
681.25	28711.35
681.39	28561.56
681.52	28748.80
681.66	28395.38
681.80	28006.85
681.94	27789.18
682.07	28105.15
682.21	27981.10
682.35	27852.38
682.49	27718.96
682.62	27756.41
682.76	27756.41
682.90	27793.86
683.04	27779.82
683.17	27782.16
683.31	27281.28
683.45	27405.33
683.59	26792.11
683.72	27140.85
683.86	26719.56
684.00	26574.44
684.13	26813.18
684.27	26342.73
684.41	26551.04
684.55	26658.70
684.68	26146.12
684.82	26232.72
684.96	26340.39
685.09	25963.56
685.23	26169.53
685.37	26363.79
685.50	26536.99
685.64	25792.70
685.78	25537.59
685.91	25656.95
686.05	25184.16
686.19	25399.49
686.32	25060.12
686.46	25034.37
686.60	24739.46
686.73	25172.46
686.87	24917.34
687.01	25366.73
687.14	25046.07
687.28	24671.59
687.42	24800.32
687.55	24451.58
687.69	24762.87
687.82	24655.20
687.96	23878.15
688.10	24201.14
688.23	23885.17
688.37	24077.09
688.50	24016.24
688.64	23709.63
688.78	23770.48
688.91	23473.23
689.05	23908.57
689.18	23480.25
689.32	23108.11
689.46	22862.35
689.59	22878.74
689.73	23150.24
689.86	23105.77
690.00	22948.95
690.13	22871.72
690.27	22838.95
690.41	22897.46
690.54	22593.19
690.68	22253.81
690.81	22326.37
690.95	22157.85
691.08	22345.09
691.22	21923.80
691.35	21891.03
691.49	22181.26
691.62	22054.87
691.76	21769.32
691.89	21413.56
692.03	21537.61
692.16	21252.06
692.30	21170.15
692.43	21312.92
692.57	20957.16
692.70	21589.10
692.84	20634.16
692.97	20826.09
693.11	20631.82
693.24	20444.58
693.38	20460.96
693.51	20521.82
693.65	20325.21
693.78	20049.03
693.92	20079.46
694.05	20060.73
694.19	20009.24
694.32	19843.06
694.45	20285.42
694.59	20027.96
694.72	19929.66
694.86	19531.77
694.99	19754.12
695.13	19531.77
695.26	19030.90
695.39	18778.12
695.53	19157.28
695.66	19098.77
695.80	18920.89
695.93	19096.43
696.07	18817.91
696.20	18633.00
696.33	18630.66
696.47	18099.36
696.60	18466.83
696.73	18583.85
696.87	18398.95
697.00	18370.86
697.14	18263.20
697.27	18045.53
697.40	18122.77
697.54	18101.70
697.67	17954.25
697.80	17991.70
697.94	17469.76
698.07	17937.87
698.21	17472.10
698.34	17603.17
698.47	17460.40
698.61	16964.20
698.74	17261.45
698.87	16980.59
699.01	17109.32
699.14	16905.69
699.27	17181.87
699.40	16636.53
699.54	16622.48
699.67	16699.72
699.80	16814.41
699.94	16264.38
700.07	16498.44
700.20	16432.90
700.34	16088.84
700.47	16248.00
700.60	16578.01
700.73	16152.04
700.87	16079.48
701.00	15829.04
701.13	15971.82
701.26	15854.79
701.40	15625.42
701.53	15276.68
701.66	15765.85
701.79	15800.96
701.93	15325.83
702.06	15220.50
702.19	15014.54
702.32	15318.81
702.46	15260.29
702.59	15178.37
702.72	15389.02
702.85	15241.57
702.99	15180.71
703.12	14586.22
703.25	14768.78
703.38	14590.90
703.51	14731.33
703.65	14356.85
703.78	14237.48
703.91	14335.78
704.04	14328.76
704.17	14272.59
704.31	14200.03
704.44	14288.97
704.57	13870.01
704.70	13839.59
704.83	13867.67
704.96	13664.05
705.10	13710.86
705.23	13383.18
>>>>>End Processed Spectral Data<<<<<
