SpectraSuite Data File
++++++++++++++++++++++++++++++++++++
Date: Fri Oct 25 10:48:10 EDT 2013
User: price-jones
Dark Spectrum Present: No
Reference Spectrum Present: No
Number of Sampled Component Spectra: 1
Spectrometers: USB2+H05261
Integration Time (usec): 100000 (USB2+H05261)
Spectra Averaged: 1 (USB2+H05261)
Boxcar Smoothing: 0 (USB2+H05261)
Correct for Electrical Dark: No (USB2+H05261)
Strobe/Lamp Enabled: No (USB2+H05261)
Correct for Detector Non-linearity: No (USB2+H05261)
Correct for Stray Light: No (USB2+H05261)
Number of Pixels in Processed Spectrum: 2048
>>>>>Begin Processed Spectral Data<<<<<
365.73	117.03
365.92	117.03
366.12	117.03
366.32	107.66
366.52	0.00
366.72	72.56
366.91	93.62
367.11	70.22
367.31	46.81
367.51	74.90
367.70	93.62
367.90	81.92
368.10	0.00
368.30	91.28
368.49	4.68
368.69	110.01
368.89	67.88
369.09	63.19
369.28	65.54
369.48	100.64
369.68	126.39
369.87	131.07
370.07	98.30
370.27	159.16
370.47	198.95
370.66	395.55
370.86	482.15
371.06	500.87
371.25	470.45
371.45	454.06
371.65	498.53
371.84	500.87
372.04	505.56
372.24	442.36
372.44	477.47
372.63	493.85
372.83	470.45
373.03	531.30
373.22	491.51
373.42	435.34
373.62	599.18
373.81	489.17
374.01	594.50
374.21	559.39
374.40	531.30
374.60	535.98
374.79	528.96
374.99	559.39
375.19	498.53
375.38	580.45
375.58	580.45
375.78	613.22
375.97	517.26
376.17	547.69
376.37	526.62
376.56	627.26
376.76	533.64
376.95	543.00
377.15	538.32
377.35	606.20
377.54	594.50
377.74	559.39
377.93	636.63
378.13	592.16
378.33	655.35
378.52	568.75
378.72	589.82
378.91	571.09
379.11	596.84
379.31	580.45
379.50	599.18
379.70	615.56
379.89	683.44
380.09	634.29
380.28	603.86
380.48	727.91
380.68	617.90
380.87	645.99
381.07	678.76
381.26	685.78
381.46	660.03
381.65	723.23
381.85	688.12
382.04	667.05
382.24	704.50
382.43	631.94
382.63	685.78
382.83	767.70
383.02	699.82
383.22	791.10
383.41	674.07
383.61	669.39
383.80	779.40
384.00	739.61
384.19	702.16
384.39	753.65
384.58	737.27
384.78	793.44
384.97	753.65
385.17	716.20
385.36	847.27
385.56	847.27
385.75	734.93
385.95	674.07
386.14	788.76
386.34	823.87
386.53	861.32
386.72	795.78
386.92	863.66
387.11	779.40
387.31	765.36
387.50	807.48
387.70	751.31
387.89	875.36
388.09	744.29
388.28	791.10
388.48	812.17
388.67	980.68
388.86	826.21
389.06	910.47
389.25	887.06
389.45	929.19
389.64	863.66
389.84	919.83
390.03	971.32
390.22	910.47
390.42	908.13
390.61	961.96
390.81	936.21
391.00	992.39
391.19	940.90
391.39	922.17
391.58	1039.20
391.78	844.93
391.97	924.51
392.16	959.62
392.36	980.68
392.55	994.73
392.75	1064.94
392.94	1004.09
393.13	931.53
393.33	926.85
393.52	1015.79
393.71	1006.43
393.91	1004.09
394.10	1069.62
394.29	1095.37
394.49	999.41
394.68	1034.52
394.88	1071.97
395.07	1083.67
395.26	1071.97
395.46	1057.92
395.65	1109.41
395.84	1158.57
396.04	1121.12
396.23	1121.12
396.42	1149.20
396.62	1116.44
396.81	1116.44
397.00	1158.57
397.19	1097.71
397.39	1156.22
397.58	1245.16
397.77	1261.55
397.97	1315.38
398.16	1158.57
398.35	1355.17
398.55	1259.21
398.74	1331.76
398.93	1341.13
399.12	1256.87
399.32	1359.85
399.51	1310.70
399.70	1427.73
399.90	1439.43
400.09	1380.92
400.28	1373.89
400.47	1397.30
400.67	1348.15
400.86	1479.22
401.05	1521.35
401.24	1416.02
401.44	1504.96
401.63	1465.18
401.82	1483.90
402.01	1535.39
402.21	1523.69
402.40	1486.24
402.59	1549.43
402.78	1528.37
402.97	1549.43
403.17	1565.82
403.36	1612.63
403.55	1568.16
403.74	1547.09
403.93	1703.91
404.13	1636.03
404.32	1682.85
404.51	1720.29
404.70	1652.42
404.89	1629.01
405.09	1760.08
405.28	1802.21
405.47	1710.93
405.66	1834.98
405.85	1776.47
406.05	1727.32
406.24	1703.91
406.43	1729.66
406.62	1767.10
406.81	1879.45
407.00	1858.39
407.20	1802.21
407.39	1858.39
407.58	1856.04
407.77	1874.77
407.96	1872.43
408.15	1832.64
408.34	2040.95
408.54	1944.99
408.73	2040.95
408.92	1994.14
409.11	1970.73
409.30	2022.22
409.49	1977.75
409.68	2022.22
409.87	2064.35
410.07	2099.46
410.26	2181.38
410.45	2108.82
410.64	1959.03
410.83	2129.89
411.02	2251.60
411.21	2253.94
411.40	2312.45
411.59	2361.60
411.78	2314.79
411.98	2239.89
412.17	2305.43
412.36	2331.17
412.55	2392.03
412.74	2476.29
412.93	2366.28
413.12	2209.47
413.31	2410.75
413.50	2356.92
413.69	2492.67
413.88	2532.46
414.07	2509.05
414.26	2562.89
414.45	2619.06
414.64	2663.53
414.83	2698.64
415.02	2637.78
415.22	2719.70
415.41	2771.19
415.60	2841.41
415.79	2820.35
415.98	2913.97
416.17	2972.48
416.36	2726.72
416.55	2818.00
416.74	3040.36
416.93	2909.29
417.12	2970.14
417.31	2916.31
417.50	2890.56
417.69	3049.72
417.88	3126.96
418.07	3080.14
418.26	3066.10
418.45	3199.51
418.64	3145.68
418.83	3171.43
419.02	3133.98
419.21	3225.26
419.39	3176.11
419.58	3126.96
419.77	3030.99
419.96	3260.37
420.15	3346.97
420.34	3246.32
420.53	3344.63
420.72	3447.61
420.91	3365.69
421.10	3232.28
421.29	3372.71
421.48	3358.67
421.67	3417.18
421.86	3302.50
422.05	3391.44
422.24	3379.73
422.43	3353.99
422.61	3463.99
422.80	3440.59
422.99	3529.53
423.18	3571.66
423.37	3585.70
423.56	3555.27
423.75	3445.27
423.94	3414.84
424.13	3375.05
424.32	3346.97
424.50	3475.70
424.69	3669.96
424.88	3536.55
425.07	3471.01
425.26	3555.27
425.45	3407.82
425.64	3471.01
425.83	3496.76
426.01	3548.25
426.20	3508.46
426.39	3538.89
426.58	3744.86
426.77	3651.24
426.96	3632.51
427.15	3555.27
427.33	3545.91
427.52	3562.30
427.71	3695.71
427.90	3674.64
428.09	3585.70
428.28	3695.71
428.46	3700.39
428.65	3812.73
428.84	3840.82
429.03	3765.92
429.22	3691.02
429.40	3840.82
429.59	3808.05
429.78	3779.97
429.97	3705.07
430.16	3716.77
430.34	3852.52
430.53	3950.82
430.72	3911.04
430.91	3854.86
431.10	3950.82
431.28	4070.19
431.47	4095.94
431.66	4002.32
431.85	3985.93
432.03	4173.18
432.22	4074.87
432.41	4173.18
432.60	4243.39
432.79	4297.22
432.97	4315.95
433.16	4107.64
433.35	4217.65
433.54	4285.52
433.72	4257.43
433.91	4273.82
434.10	4222.33
434.28	4248.07
434.47	4329.99
434.66	4409.57
434.85	4414.25
435.03	4444.68
435.22	4493.83
435.41	4758.31
435.59	4461.06
435.78	4454.04
435.97	4498.51
436.16	4638.94
436.34	4475.10
436.53	4603.83
436.72	4617.88
436.90	4685.75
437.09	4608.51
437.28	4643.62
437.46	4573.41
437.65	4748.95
437.84	4610.86
438.02	4678.73
438.21	4734.90
438.40	4643.62
438.58	4887.04
438.77	4917.47
438.96	4784.06
439.14	4873.00
439.33	4959.60
439.52	5018.11
439.70	4983.00
439.89	5064.92
440.08	5118.75
440.26	5128.11
440.45	5179.61
440.63	5345.78
440.82	5273.23
441.01	5259.18
441.19	5338.76
441.38	5460.47
441.57	5263.86
441.75	5549.41
441.94	5661.76
442.12	5589.20
442.31	5612.60
442.50	5364.51
442.68	5638.35
442.87	5701.54
443.05	5619.63
443.24	5650.05
443.43	5659.42
443.61	5741.33
443.80	5870.06
443.98	5621.97
444.17	5575.16
444.35	5659.42
444.54	5729.63
444.73	5881.77
444.91	5778.78
445.10	5881.77
445.28	5851.34
445.47	5806.87
445.65	5874.74
445.84	5741.33
446.02	5998.79
446.21	5741.33
446.39	5909.85
446.58	5898.15
446.77	6059.65
446.95	5980.07
447.14	5734.31
447.32	6099.44
447.51	6078.37
447.69	5942.62
447.88	5870.06
448.06	5970.71
448.25	5898.15
448.43	6155.61
448.62	5996.45
448.80	5823.25
448.99	6033.90
449.17	5989.43
449.36	6069.01
449.54	6036.24
449.73	6167.31
449.91	6202.42
450.10	6347.53
450.28	6558.18
450.46	6420.09
450.65	6389.66
450.83	6394.34
451.02	6314.77
451.20	6345.19
451.39	6361.58
451.57	6237.53
451.76	6352.21
451.94	6403.71
452.13	6485.62
452.31	6410.73
452.49	6546.48
452.68	6450.52
452.86	6361.58
453.05	6593.29
453.23	6478.60
453.42	6523.07
453.60	6595.63
453.78	6649.46
453.97	6520.73
454.15	6569.88
454.34	6530.09
454.52	6684.57
454.70	6670.53
454.89	6750.10
455.07	6771.17
455.26	6754.79
455.44	6813.30
455.62	6686.91
455.81	6806.28
455.99	7185.44
456.17	7026.29
456.36	7033.31
456.54	7000.54
456.73	7122.25
456.91	7208.85
457.09	7211.19
457.28	7246.30
457.46	7152.68
457.64	7391.41
457.83	7353.96
458.01	7056.72
458.19	7337.58
458.38	7265.02
458.56	7304.81
458.74	7332.90
458.93	7339.92
459.11	7461.63
459.29	7485.03
459.48	7538.87
459.66	7485.03
459.84	7440.56
460.03	7536.52
460.21	7555.25
460.39	7688.66
460.57	7550.57
460.76	7705.04
460.94	7676.96
461.12	7691.00
461.31	7686.32
461.49	7810.37
461.67	7779.94
461.85	7915.69
462.04	7742.49
462.22	8280.82
462.40	7934.42
462.59	7906.33
462.77	8042.08
462.95	7843.14
463.13	7981.23
463.32	8116.98
463.50	8063.15
463.68	8095.91
463.86	7880.58
464.05	7964.84
464.23	8105.28
464.41	8219.96
464.59	7943.78
464.78	8327.63
464.96	8156.77
465.14	7889.95
465.32	8234.00
465.50	8297.20
465.69	8432.95
465.87	8243.37
466.05	8271.45
466.23	8053.78
466.41	8353.37
466.60	8498.49
466.78	8325.29
466.96	8245.71
467.14	8322.94
467.32	8306.56
467.51	8444.65
467.69	8435.29
467.87	8599.13
468.05	8580.40
468.23	8645.94
468.41	8482.10
468.60	8627.21
468.78	8676.37
468.96	8690.41
469.14	8833.18
469.32	8800.41
469.50	8582.74
469.69	8720.84
469.87	8795.73
470.05	8842.54
470.23	8854.25
470.41	8800.41
470.59	8849.57
470.77	8952.55
470.95	9048.51
471.14	9046.17
471.32	9022.77
471.50	9181.92
471.68	9284.91
471.86	9277.88
472.04	9254.48
472.22	9378.53
472.40	9294.27
472.58	9240.44
472.77	9186.60
472.95	9540.02
473.13	9844.29
473.31	9607.90
473.49	9331.72
473.67	9542.36
473.85	9603.22
474.03	9783.44
474.21	9844.29
474.39	9830.25
474.57	9879.40
474.75	10181.33
474.93	10181.33
475.12	9872.38
475.30	10293.68
475.48	10125.16
475.66	10399.00
475.84	10310.06
476.02	10274.95
476.20	10359.21
476.38	10436.45
476.56	10925.62
476.74	10672.84
476.92	10665.82
477.10	10602.63
477.28	10775.83
477.46	10853.06
477.64	10937.32
477.82	11019.24
478.00	11133.93
478.18	11304.79
478.36	11307.13
478.54	11445.22
478.72	11452.24
478.90	11901.62
479.08	11613.74
479.26	11925.03
479.44	11772.89
479.62	11978.86
479.80	11950.78
479.98	12271.43
480.16	12259.73
480.34	12248.02
480.52	12458.67
480.70	12479.74
480.88	12507.82
481.06	12484.42
481.24	12360.37
481.41	12828.48
481.59	12751.24
481.77	12964.23
481.95	12870.61
482.13	13195.94
482.31	13053.17
482.49	13626.60
482.67	13415.95
482.85	13650.00
483.03	13647.66
483.21	13738.94
483.39	14090.02
483.57	13980.02
483.74	14003.43
483.92	14174.28
484.10	14071.30
484.28	14279.61
484.46	14590.90
484.64	15105.82
484.82	14721.97
485.00	14633.03
485.18	15033.26
485.35	14916.23
485.53	14871.76
485.71	15094.11
485.89	14946.66
486.07	15176.03
486.25	15253.27
486.43	15609.03
486.61	15669.89
486.78	15676.91
486.96	16011.60
487.14	16276.09
487.32	16308.85
487.50	16517.16
487.68	16299.49
487.85	16615.46
488.03	16762.92
488.21	17018.04
488.39	16753.55
488.57	16898.67
488.75	17158.47
488.92	17582.10
489.10	17668.70
489.28	17661.68
489.46	17589.13
489.64	17989.36
489.81	18204.69
489.99	18326.39
490.17	18333.42
490.35	18743.01
490.53	18813.23
490.70	18616.62
490.88	18546.40
491.06	18801.52
491.24	18633.00
491.41	18932.59
491.59	18696.20
491.77	19236.86
491.95	19143.24
492.13	19644.12
492.30	19651.14
492.48	20086.48
492.66	19733.06
492.84	19812.63
493.01	20016.26
493.19	20240.95
493.37	20563.95
493.54	20559.27
493.72	20622.46
493.90	20685.65
494.08	20802.68
494.25	20947.79
494.43	21163.12
494.61	21282.49
494.79	21366.75
494.96	21132.70
495.14	21348.03
495.32	21701.45
495.49	21717.83
495.67	21970.61
495.85	22113.38
496.02	22422.33
496.20	22157.85
496.38	22314.67
496.55	22513.61
496.73	23065.98
496.91	22448.08
497.09	22579.15
497.26	22803.84
497.44	22948.95
497.62	23037.89
497.79	23513.02
497.97	23112.79
498.14	23641.75
498.32	23424.08
498.50	23599.62
498.67	23960.06
498.85	23730.69
499.03	24231.57
499.20	23730.69
499.38	24156.67
499.56	24313.48
499.73	24442.21
499.91	24533.50
500.08	24821.38
500.26	24343.91
500.44	24713.72
500.61	24989.90
500.79	24549.88
500.97	24987.56
501.14	25081.18
501.32	25326.94
501.49	25001.60
501.67	25666.31
501.84	25226.29
502.02	25427.58
502.20	25483.75
502.37	25500.14
502.55	25663.97
502.72	25818.45
502.90	25883.98
503.07	25883.98
503.25	26038.46
503.43	25961.22
503.60	26094.63
503.78	26221.02
503.95	26281.88
504.13	26340.39
504.30	26651.68
504.48	26324.01
504.65	26494.86
504.83	26572.10
505.01	26939.57
505.18	26930.20
505.36	27197.02
505.53	27035.53
505.71	27124.47
505.88	27407.67
506.06	27187.66
506.23	27536.40
506.41	27061.27
506.58	27737.69
506.76	27461.51
506.93	27735.35
507.11	27770.46
507.28	28009.19
507.46	27627.68
507.63	28093.45
507.81	27740.03
507.98	27821.95
508.16	27889.82
508.33	28453.89
508.50	28112.17
508.68	28360.27
508.85	28746.46
509.03	28496.02
509.20	28964.13
509.38	28973.49
509.55	28636.45
509.73	28690.29
509.90	29214.57
510.08	29146.69
510.25	29153.71
510.42	29034.35
510.60	29427.56
510.77	29216.91
510.95	29804.38
511.12	29418.19
511.30	29640.54
511.47	30321.64
511.64	30052.48
511.82	30003.33
511.99	29626.50
512.17	30333.34
512.34	29869.92
512.51	30328.66
512.69	30604.84
512.86	30307.60
513.04	30492.50
513.21	30527.61
513.38	30593.14
513.56	30649.32
513.73	30433.99
513.90	30658.68
514.08	30635.27
514.25	30916.14
514.43	30359.09
514.60	31143.17
514.77	30962.95
514.95	31173.60
515.12	31061.25
515.29	31154.87
515.47	31901.50
515.64	31742.35
515.81	31229.77
515.99	31789.16
516.16	31971.72
516.33	31548.08
516.51	31707.24
516.68	31505.95
516.85	31723.62
517.03	32107.47
517.20	31323.39
517.37	31835.97
517.54	32140.24
517.72	32144.92
517.89	31775.11
518.06	32348.54
518.24	32222.16
518.41	31941.29
518.58	32591.96
518.75	32226.84
518.93	32900.91
519.10	32388.33
519.27	32814.31
519.45	32823.67
519.62	33006.23
519.79	32968.79
519.96	32737.07
520.14	33563.28
520.31	32608.34
520.48	33366.68
520.65	33184.12
520.83	33289.44
521.00	33713.08
521.17	33422.85
521.34	33479.02
521.52	33975.22
521.69	33661.58
521.86	33865.21
522.03	33919.04
522.20	34113.31
522.38	34064.16
522.55	34459.71
522.72	33942.45
522.89	34080.54
523.07	34574.39
523.24	33963.51
523.41	34469.07
523.58	34270.12
523.75	35306.98
523.92	34532.26
524.10	34682.06
524.27	34873.98
524.44	34909.09
524.61	35384.22
524.78	34834.19
524.96	35206.34
525.13	35222.72
525.30	35234.42
525.47	35295.28
525.64	35189.95
525.81	35126.76
525.98	35332.73
526.16	34955.90
526.33	35639.34
526.50	35505.93
526.67	35501.25
526.84	35449.75
527.01	35227.40
527.18	35557.42
527.36	35826.58
527.53	35725.94
527.70	36072.34
527.87	36362.56
528.04	35938.93
528.21	36224.47
528.38	35974.03
528.55	36224.47
528.72	36346.18
528.89	36748.75
529.07	36488.95
529.24	36030.21
529.41	36336.82
529.58	36259.58
529.75	36278.30
529.92	36872.80
530.09	36364.90
530.26	36748.75
530.43	36549.81
530.60	36608.32
530.77	36535.76
530.94	36851.73
531.11	36638.75
531.28	37188.77
531.46	36959.40
531.63	37188.77
531.80	37132.60
531.97	36748.75
532.14	37181.75
532.31	37038.98
532.48	37394.74
532.65	37354.95
532.82	37258.99
532.99	37694.33
533.16	37223.88
533.33	37308.14
533.50	37979.87
533.67	37757.52
533.84	37268.35
534.01	37769.22
534.18	37965.83
534.35	38469.04
534.52	37792.63
534.69	37940.08
534.86	37567.94
535.03	38068.81
535.20	38127.33
535.37	38267.76
535.54	38431.60
535.71	38644.59
535.88	38644.59
536.05	38438.62
536.22	38033.71
536.38	38000.94
536.55	38253.72
536.72	38396.49
536.89	38698.42
537.06	38293.50
537.23	38670.33
537.40	38258.40
537.57	38808.42
537.74	38885.66
537.91	39173.55
538.08	38918.43
538.25	38110.94
538.42	38803.74
538.59	39185.25
538.75	38604.80
538.92	38983.96
539.09	39459.09
539.26	38862.26
539.43	39421.64
539.60	39367.81
539.77	38979.28
539.94	39072.90
540.11	38988.64
540.28	39566.76
540.44	39227.38
540.61	39533.99
540.78	39409.94
540.95	39171.21
541.12	38913.75
541.29	39452.07
541.46	39880.39
541.62	39604.20
541.79	39697.83
541.96	39285.89
542.13	39557.39
542.30	40184.66
542.47	39978.69
542.63	39658.04
542.80	40161.25
542.97	40453.82
543.14	40556.80
543.31	40582.55
543.48	40428.07
543.64	40428.07
543.81	40624.68
543.98	40236.15
544.15	40545.10
544.32	40545.10
544.48	41038.95
544.65	40762.77
544.82	40898.52
544.99	40486.59
545.16	40748.73
545.32	40730.00
545.49	40910.22
545.66	41170.02
545.83	40828.30
546.00	40954.69
546.16	41141.94
546.33	41125.55
546.50	40669.15
546.67	40804.90
546.83	40781.49
547.00	40559.14
547.17	41038.95
547.34	40912.56
547.50	41509.40
547.67	41265.99
547.84	41542.17
548.00	41462.59
548.17	41610.04
548.34	41687.28
548.51	41483.66
548.67	41387.69
548.84	41635.79
549.01	41535.15
549.18	41502.38
549.34	41649.83
549.51	42014.96
549.68	42040.70
549.84	41855.80
550.01	41757.50
550.18	42017.30
550.34	42120.28
550.51	42220.92
550.68	41696.64
550.84	41633.45
551.01	42099.22
551.18	41675.58
551.34	42064.11
551.51	42113.26
551.68	42401.14
551.84	42019.64
552.01	42284.12
552.18	42284.12
552.34	42181.13
552.51	42253.69
552.68	42188.16
552.84	42490.09
553.01	42806.06
553.18	42389.44
553.34	42391.78
553.51	42089.85
553.67	42759.25
553.84	42473.70
554.01	42295.82
554.17	42677.33
554.34	42745.20
554.51	42684.35
554.67	42777.97
554.84	43012.02
555.00	42384.76
555.17	42667.97
555.33	42185.82
555.50	42649.24
555.67	43206.29
555.83	42815.42
556.00	43049.47
556.16	43346.72
556.33	42679.67
556.50	43103.31
556.66	43508.22
556.83	42564.98
556.99	43119.69
557.16	43309.27
557.32	42885.64
557.49	42752.23
557.65	42621.16
557.82	43133.73
557.98	42789.67
558.15	43037.77
558.32	43391.19
558.48	43292.89
558.65	43019.05
558.81	43248.42
558.98	43089.26
559.14	43332.68
559.31	42967.55
559.47	43393.53
559.64	43543.33
559.80	43452.05
559.97	43878.02
560.13	43143.09
560.30	43267.14
560.46	43199.27
560.63	43091.60
560.79	43552.69
560.96	43587.80
561.12	43667.37
561.29	43966.96
561.45	43793.76
561.61	43660.35
561.78	43669.72
561.94	43353.74
562.11	43344.38
562.27	43313.95
562.44	43208.63
562.60	44030.16
562.77	43828.87
562.93	43587.80
563.10	43931.86
563.26	43267.14
563.42	43931.86
563.59	43730.57
563.75	43360.76
563.92	43688.44
564.08	43924.83
564.24	43896.75
564.41	43910.79
564.57	43716.53
564.74	43831.21
564.90	43672.06
565.07	43842.92
565.23	43840.57
565.39	43798.44
565.56	44292.30
565.72	43889.73
565.88	44083.99
566.05	43742.27
566.21	43650.99
566.38	43997.39
566.54	43379.49
566.70	44289.96
566.87	44409.32
567.03	43957.60
567.19	44442.09
567.36	44091.01
567.52	44013.77
567.68	44346.13
567.85	44020.80
568.01	43966.96
568.17	44016.11
568.34	44292.30
568.50	43913.13
568.66	43723.55
568.83	44196.34
568.99	43821.85
569.15	44170.59
569.32	44041.86
569.48	44006.75
569.64	44170.59
569.81	44268.89
569.97	44404.64
570.13	44282.94
570.30	44259.53
570.46	44177.61
570.62	44055.90
570.78	44006.75
570.95	44023.14
571.11	44116.76
571.27	44210.38
571.43	44432.73
571.60	44308.68
571.76	44463.16
571.92	44388.26
572.09	44341.45
572.25	44491.24
572.41	44397.62
572.57	44250.17
572.74	44713.59
572.90	44563.80
573.06	44238.47
573.22	44516.99
573.38	44755.72
573.55	44224.42
573.71	44399.96
573.87	44165.91
574.03	44151.87
574.20	44346.13
574.36	44683.17
574.52	44472.52
574.68	44678.49
574.84	44409.32
575.01	44271.23
575.17	44280.60
575.33	44177.61
575.49	44549.76
575.65	44378.90
575.82	44692.53
575.98	44790.83
576.14	44671.46
576.30	44168.25
576.46	44364.85
576.62	44039.52
576.79	44610.61
576.95	44474.86
577.11	44353.15
577.27	44554.44
577.43	44980.42
577.59	44474.86
577.75	44257.19
577.92	44458.48
578.08	44128.46
578.24	44133.14
578.40	44561.46
578.56	44734.66
578.72	44559.12
578.88	44722.96
579.04	44608.27
579.21	44294.64
579.37	44451.45
579.53	44147.18
579.69	44435.07
579.85	44629.34
580.01	44619.97
580.17	44652.74
580.33	44968.71
580.49	44360.17
580.65	44795.51
580.82	44638.70
580.98	44715.93
581.14	44294.64
581.30	45017.86
581.46	44748.70
581.62	44545.08
581.78	44748.70
581.94	45099.78
582.10	44512.31
582.26	44708.91
582.42	44636.36
582.58	44671.46
582.74	44697.21
582.90	44610.61
583.06	45069.36
583.22	44954.67
583.38	44500.61
583.54	44069.95
583.70	44905.52
583.86	44725.30
584.02	44346.13
584.18	45350.22
584.34	44643.38
584.50	44645.72
584.66	44563.80
584.82	44776.79
584.98	44891.48
585.14	44765.09
585.30	44657.42
585.46	44797.85
585.62	44254.85
585.78	44484.22
585.94	44549.76
586.10	44945.31
586.26	44421.03
586.42	44844.66
586.58	44643.38
586.74	44376.56
586.90	44760.40
587.06	44676.15
587.22	44690.19
587.38	44509.97
587.54	45106.80
587.70	45027.23
587.86	44865.73
588.02	44741.68
588.18	44783.81
588.34	44882.11
588.49	44491.24
588.65	44858.71
588.81	44655.08
588.97	44362.51
589.13	44088.67
589.29	44718.28
589.45	44762.75
589.61	44563.80
589.77	44772.11
589.93	44708.91
590.08	44994.46
590.24	44919.56
590.40	44732.32
590.56	44629.34
590.72	45076.38
590.88	44666.78
591.04	45017.86
591.20	45195.74
591.35	45226.17
591.51	45345.54
591.67	44952.33
591.83	44807.22
591.99	44931.26
592.15	44800.19
592.31	44797.85
592.46	45207.45
592.62	44788.49
592.78	45308.09
592.94	45483.63
593.10	44982.76
593.26	44692.53
593.41	44669.12
593.57	45191.06
593.73	44793.17
593.89	44896.16
594.05	44744.02
594.20	44470.18
594.36	44907.86
594.52	45020.20
594.68	45160.64
594.84	45207.45
594.99	45490.65
595.15	45188.72
595.31	45127.87
595.47	45085.74
595.62	45539.80
595.78	45425.12
595.94	45104.46
596.10	45462.57
596.25	45312.77
596.41	45170.00
596.57	45106.80
596.73	45558.53
596.88	44767.43
597.04	45291.71
597.20	44912.54
597.36	45464.91
597.51	45469.59
597.67	45062.33
597.83	45588.95
597.99	45390.01
598.14	45216.81
598.30	44996.80
598.46	44818.92
598.61	45439.16
598.77	44800.19
598.93	44793.17
599.09	45237.87
599.24	45586.61
599.40	45427.46
599.56	45408.73
599.71	45195.74
599.87	45600.66
600.03	45184.04
600.18	45048.29
600.34	45371.28
600.50	44989.78
600.65	45125.53
600.81	45483.63
600.97	45404.05
601.12	45331.50
601.28	45422.78
601.44	45008.50
601.59	45118.51
601.75	45090.42
601.91	45331.50
602.06	45221.49
602.22	44980.42
602.37	45310.43
602.53	45361.92
602.69	45478.95
602.84	45408.73
603.00	45134.89
603.16	45184.04
603.31	44872.75
603.47	44907.86
603.62	45233.19
603.78	45280.00
603.94	45155.96
604.09	45186.38
604.25	45322.13
604.40	44980.42
604.56	45041.27
604.71	44889.13
604.87	45034.25
605.03	44825.94
605.18	45137.23
605.34	45095.10
605.49	44694.87
605.65	45256.60
605.80	45095.10
605.96	45123.19
606.12	44732.32
606.27	45673.21
606.43	44903.18
606.58	45539.80
606.74	44699.55
606.89	45067.02
607.05	44996.80
607.20	45205.11
607.36	44900.84
607.51	45600.66
607.67	45111.49
607.82	44786.15
607.98	45092.76
608.13	44392.94
608.29	45078.72
608.44	44992.12
608.60	44580.18
608.75	44961.69
608.91	44329.75
609.06	44643.38
609.22	45315.11
609.37	44495.92
609.53	44648.06
609.68	44444.43
609.84	44788.49
609.99	44832.96
610.15	44982.76
610.30	44739.34
610.46	44432.73
610.61	44414.01
610.76	44470.18
610.92	44533.37
611.07	44346.13
611.23	44575.50
611.38	44786.15
611.54	44266.55
611.69	44210.38
611.84	44795.51
612.00	44086.33
612.15	44758.06
612.31	44638.70
612.46	44348.47
612.62	44584.86
612.77	44051.22
612.92	44561.46
613.08	43962.28
613.23	43847.60
613.39	44184.63
613.54	44009.09
613.69	44128.46
613.85	44545.08
614.00	44299.32
614.15	44318.04
614.31	43973.98
614.46	44161.23
614.62	44385.92
614.77	44147.18
614.92	44587.21
615.08	44114.42
615.23	44201.02
615.38	43931.86
615.54	43725.89
615.69	43594.82
615.84	43826.53
616.00	43782.06
616.15	43962.28
616.30	43950.58
616.46	44112.08
616.61	43828.87
616.76	44069.95
616.92	43730.57
617.07	43913.13
617.22	43842.92
617.37	43852.28
617.53	44369.54
617.68	44004.41
617.83	43936.54
617.99	44039.52
618.14	43576.09
618.29	43519.92
618.45	43426.30
618.60	43302.25
618.75	43632.27
618.90	43908.45
619.06	43737.59
619.21	43597.16
619.36	43847.60
619.51	43573.75
619.67	43225.01
619.82	43873.34
619.97	43620.56
620.12	43124.37
620.28	42918.40
620.43	43351.40
620.58	42941.81
620.73	43379.49
620.89	43161.82
621.04	43182.88
621.19	43234.38
621.34	42974.58
621.49	42993.30
621.65	42988.62
621.80	43199.27
621.95	42784.99
622.10	42990.96
622.25	43374.81
622.41	42651.58
622.56	42810.74
622.71	43049.47
622.86	43241.40
623.01	42969.90
623.16	43103.31
623.32	43119.69
623.47	43264.80
623.62	42951.17
623.77	43014.37
623.92	42646.90
624.07	42515.83
624.23	42663.28
624.38	42281.78
624.53	42759.25
624.68	43051.81
624.83	42801.38
624.98	42733.50
625.13	42249.01
625.29	42677.33
625.44	42693.71
625.59	42291.14
625.74	42000.91
625.89	42043.04
626.04	41930.70
626.19	42216.24
626.34	42342.63
626.49	42106.24
626.65	42328.59
626.80	42560.30
626.95	42391.78
627.10	42078.15
627.25	42176.45
627.40	41811.33
627.55	42036.02
627.70	41478.97
627.85	41635.79
628.00	42031.34
628.15	41897.93
628.30	41832.39
628.45	42094.53
628.60	41645.15
628.76	42075.81
628.91	42213.90
629.06	41642.81
629.21	41546.85
629.36	41652.17
629.51	41715.37
629.66	41443.87
629.81	41256.62
629.96	41577.28
630.11	41429.82
630.26	41724.73
630.41	41993.89
630.56	41418.12
630.71	41853.46
630.86	40868.09
631.01	41228.54
631.16	41261.30
631.31	41251.94
631.46	40914.90
631.61	41387.69
631.76	41450.89
631.91	41757.50
632.06	41532.81
632.21	41729.41
632.36	41418.12
632.51	41202.79
632.66	41205.13
632.81	41048.32
632.96	41338.54
633.10	40980.44
633.25	40720.64
633.40	41153.64
633.55	41324.50
633.70	41268.33
633.85	40776.81
634.00	41120.87
634.15	41022.57
634.30	40912.56
634.45	41757.50
634.60	40982.78
634.75	41050.66
634.90	40526.38
635.05	40678.51
635.19	40821.28
635.34	40928.95
635.49	41261.30
635.64	40573.19
635.79	40601.27
635.94	40521.69
636.09	40217.43
636.24	40547.44
636.39	40566.16
636.53	40439.78
636.68	40346.15
636.83	40325.09
636.98	40605.95
637.13	40098.06
637.28	40407.01
637.43	40484.25
637.57	40371.90
637.72	40098.06
637.87	41067.04
638.02	40226.79
638.17	40297.00
638.32	40194.02
638.46	40821.28
638.61	40116.78
638.76	40453.82
638.91	40168.27
639.06	40460.84
639.20	40252.53
639.35	40044.23
639.50	39789.11
639.65	40154.23
639.80	40102.74
639.94	40231.47
640.09	39866.34
640.24	39695.49
640.39	39744.64
640.54	39732.93
640.68	40114.44
640.83	39917.84
640.98	39826.56
641.13	39381.85
641.27	39665.06
641.42	39784.43
641.57	40212.74
641.72	39491.86
641.86	39903.79
642.01	39660.38
642.16	39440.37
642.31	38696.08
642.45	39559.73
642.60	39412.28
642.75	39304.62
642.90	39599.52
643.04	39299.94
643.19	39152.48
643.34	39309.30
643.48	39590.16
643.63	39122.05
643.78	39138.44
643.93	39360.79
644.07	38990.98
644.22	39220.36
644.37	38969.92
644.51	39384.19
644.66	39306.96
644.81	39529.31
644.95	39374.83
645.10	39402.92
645.25	39370.15
645.39	39175.89
645.54	39440.37
645.69	38979.28
645.83	38513.52
645.98	38965.24
646.13	39192.27
646.27	39171.21
646.42	38890.34
646.57	39147.80
646.71	38749.91
646.86	38918.43
647.00	38998.01
647.15	38766.29
647.30	38845.87
647.44	38436.28
647.59	38829.49
647.74	38565.01
647.88	38424.57
648.03	38831.83
648.17	38522.88
648.32	38579.05
648.47	38410.53
648.61	38387.13
648.76	38665.65
648.90	38836.51
649.05	38405.85
649.20	38543.94
649.34	38677.35
649.49	37996.26
649.63	38710.12
649.78	38284.14
649.92	38218.61
650.07	38490.11
650.21	38302.87
650.36	38047.75
650.51	38178.82
650.65	38476.07
650.80	38394.15
650.94	38419.89
651.09	38298.19
651.23	38464.36
651.38	38295.85
651.52	37907.32
651.67	38263.08
651.81	38124.99
651.96	37928.38
652.10	37839.44
652.25	37848.80
652.39	37780.93
652.54	38363.72
652.68	38033.71
652.83	37886.25
652.97	37727.10
653.12	37949.45
653.26	37755.18
653.41	37937.74
653.55	37464.96
653.70	37457.93
653.84	37743.48
653.99	37397.08
654.13	37191.11
654.27	37434.53
654.42	37954.13
654.56	37483.68
654.71	37614.75
654.85	37401.76
655.00	37399.42
655.14	37586.66
655.29	37359.63
655.43	37158.34
655.57	37123.24
655.72	36987.49
655.86	37097.49
656.01	36678.54
656.15	37017.91
656.30	36917.27
656.44	36851.73
656.58	36950.04
656.73	37020.25
656.87	36699.60
657.01	36603.64
657.16	36730.03
657.30	36353.20
657.45	36828.33
657.59	36715.98
657.73	36346.18
657.88	36807.26
658.02	36907.91
658.16	37041.32
658.31	37046.00
658.45	36877.48
658.60	36774.50
658.74	36800.24
658.88	36879.82
659.03	36400.01
659.17	36367.24
659.31	36402.35
659.46	35997.44
659.60	36250.22
659.74	36212.77
659.89	35580.82
660.03	36133.19
660.17	36161.28
660.32	36245.54
660.46	36858.76
660.60	36327.45
660.74	36048.93
660.89	36041.91
661.03	36004.46
661.17	35838.28
661.32	35639.34
661.46	35690.83
661.60	35817.22
661.74	35704.87
661.89	35892.12
662.03	35831.26
662.17	35789.13
662.31	35337.41
662.46	35655.72
662.60	35611.25
662.74	35693.17
662.88	35510.61
663.03	35468.48
663.17	35419.33
663.31	35213.36
663.45	35339.75
663.60	35372.52
663.74	34642.27
663.88	34909.09
664.02	34801.43
664.17	35395.92
664.31	34520.56
664.45	34649.29
664.59	34862.28
664.73	35091.65
664.88	35269.53
665.02	34572.05
665.16	34815.47
665.30	35283.58
665.44	34595.46
665.59	34153.10
665.73	34321.62
665.87	34616.52
666.01	34160.12
666.15	33975.22
666.29	34251.40
666.44	34312.25
666.58	34134.37
666.72	33881.60
666.86	34309.91
667.00	34024.37
667.14	33993.94
667.28	34387.15
667.43	33825.42
667.57	33731.80
667.71	33640.52
667.85	33684.99
667.99	33799.68
668.13	33242.63
668.27	33619.46
668.41	33518.81
668.56	33195.82
668.70	33570.30
668.84	33144.33
668.98	33371.36
669.12	33326.89
669.26	33518.81
669.40	32914.95
669.54	33125.60
669.68	32828.35
669.82	32737.07
669.96	32924.32
670.10	32713.67
670.25	33291.78
670.39	32919.63
670.53	32732.39
670.67	32390.67
670.81	32821.33
670.95	32851.76
671.09	32821.33
671.23	32568.55
671.37	32610.68
671.51	32402.38
671.65	32364.93
671.79	32444.51
671.93	32079.38
672.07	32058.32
672.21	32369.61
672.35	31634.68
672.49	31906.18
672.63	32030.23
672.77	31548.08
672.91	31594.89
673.05	31714.26
673.19	31531.70
673.33	31697.88
673.47	31379.56
673.61	31367.86
673.75	31285.94
673.89	31007.42
674.03	30778.04
674.17	30817.83
674.31	30941.88
674.45	30904.43
674.59	30883.37
674.73	30953.58
674.87	30972.31
675.01	30789.75
675.15	30918.48
675.29	30796.77
675.43	30670.38
675.56	30824.86
675.70	30787.41
675.84	30431.65
675.98	29472.03
676.12	30443.35
676.26	29811.40
676.40	29890.98
676.54	29954.18
676.68	29961.20
676.82	29338.62
676.96	29647.57
677.10	29226.27
677.23	29432.24
677.37	29689.70
677.51	29252.02
677.65	29546.92
677.79	28940.72
677.93	29020.30
678.07	29104.56
678.21	28582.62
678.34	28641.14
678.48	28606.03
678.62	28692.63
678.76	28395.38
678.90	28512.41
679.04	28325.16
679.18	28687.95
679.31	28236.22
679.45	28114.52
679.59	27653.43
679.73	27803.22
679.87	27938.97
680.00	27859.40
680.14	27920.25
680.28	27606.62
680.42	27388.95
680.56	27501.29
680.70	27314.05
680.83	27182.98
680.97	27236.81
681.11	26892.76
681.25	26757.00
681.39	27239.15
681.52	26661.04
681.66	26663.38
681.80	26918.50
681.94	26735.94
682.07	26551.04
682.21	26389.54
682.35	26108.68
682.49	26122.72
682.62	26405.92
682.76	26326.35
682.90	26047.82
683.04	25834.83
683.17	26108.68
683.31	25586.74
683.45	25820.79
683.59	25481.41
683.72	25502.48
683.86	25296.51
684.00	25099.90
684.13	25221.61
684.27	25322.26
684.41	25205.23
684.55	24816.70
684.68	24781.59
684.82	24702.01
684.96	24479.66
685.09	24652.86
685.23	24566.26
685.37	24477.32
685.50	24680.95
685.64	24362.64
685.78	24336.89
685.91	24339.23
686.05	23821.97
686.19	23681.54
686.32	24191.78
686.46	23817.29
686.60	23674.52
686.73	23419.40
686.87	23381.95
687.01	23484.94
687.14	23206.41
687.28	23426.42
687.42	22881.08
687.55	22899.80
687.69	22927.89
687.82	23007.47
687.96	23016.83
688.10	22761.71
688.23	22651.70
688.37	22237.43
688.50	22295.94
688.64	22265.52
688.78	22295.94
688.91	22127.42
689.05	22111.04
689.18	22197.64
689.32	21546.97
689.46	21923.80
689.59	22097.00
689.73	21998.70
689.86	21345.69
690.00	21972.95
690.13	21734.21
690.27	21741.24
690.41	21528.25
690.54	21455.69
690.68	21308.24
690.81	21064.82
690.95	21048.44
691.08	20870.56
691.22	20915.03
691.35	21170.15
691.49	21085.89
691.62	21076.52
691.76	20891.62
691.89	20849.49
692.03	20489.05
692.16	20414.15
692.30	20489.05
692.43	20664.59
692.57	20407.13
692.70	20184.78
692.84	20088.82
692.97	19667.52
693.11	19772.85
693.24	19709.65
693.38	19550.49
693.51	19363.25
693.65	19545.81
693.78	19307.08
693.92	19482.62
694.05	19271.97
694.19	18923.23
694.32	19288.35
694.45	19122.18
694.59	19138.56
694.72	18904.51
694.86	18853.02
694.99	18684.50
695.13	18420.02
695.26	18214.05
695.39	18284.26
695.53	18633.00
695.66	18670.45
695.80	18284.26
695.93	18354.48
696.07	18242.14
696.20	18075.96
696.33	17881.69
696.47	17811.48
696.60	17951.91
696.73	17720.20
696.87	17563.38
697.00	17961.27
697.14	17788.07
697.27	17432.31
697.40	17563.38
697.54	17345.71
697.67	17305.92
697.80	17174.85
697.94	17125.70
698.07	17104.64
698.21	17071.87
698.34	16901.01
698.47	16741.85
698.61	16753.55
698.74	16627.17
698.87	16465.67
699.01	16159.06
699.14	16397.79
699.27	16379.07
699.40	16273.74
699.54	15934.37
699.67	16053.73
699.80	16294.81
699.94	16322.90
700.07	15932.03
700.20	16063.10
700.34	16023.31
700.47	15789.25
700.60	15693.29
700.73	15908.62
700.87	15885.22
701.00	15527.11
701.13	15374.98
701.26	15536.48
701.40	15426.47
701.53	15288.38
701.66	15307.10
701.79	15164.33
701.93	15190.08
702.06	14967.73
702.19	14890.49
702.32	15007.52
702.46	14637.71
702.59	14565.15
702.72	14658.78
702.85	14654.09
702.99	14707.93
703.12	14668.14
703.25	14373.23
703.38	14441.11
703.51	14537.07
703.65	14630.69
703.78	14359.19
703.91	14230.46
704.04	14146.20
704.17	13923.85
704.31	13853.63
704.44	13755.33
704.57	13696.82
704.70	13406.59
704.83	13671.07
704.96	13458.08
705.10	13530.64
705.23	13626.60
>>>>>End Processed Spectral Data<<<<<
