SpectraSuite Data File
++++++++++++++++++++++++++++++++++++
Date: Fri Oct 25 10:47:27 EDT 2013
User: price-jones
Dark Spectrum Present: No
Reference Spectrum Present: No
Number of Sampled Component Spectra: 1
Spectrometers: USB2+H05261
Integration Time (usec): 100000 (USB2+H05261)
Spectra Averaged: 1 (USB2+H05261)
Boxcar Smoothing: 0 (USB2+H05261)
Correct for Electrical Dark: No (USB2+H05261)
Strobe/Lamp Enabled: No (USB2+H05261)
Correct for Detector Non-linearity: No (USB2+H05261)
Correct for Stray Light: No (USB2+H05261)
Number of Pixels in Processed Spectrum: 2048
>>>>>Begin Processed Spectral Data<<<<<
365.73	84.26
365.92	84.26
366.12	84.26
366.32	14.04
366.52	81.92
366.72	124.05
366.91	30.43
367.11	21.06
367.31	0.00
367.51	72.56
367.70	18.72
367.90	70.22
368.10	0.00
368.30	21.06
368.49	32.77
368.69	65.54
368.89	84.26
369.09	42.13
369.28	46.81
369.48	51.49
369.68	105.32
369.87	147.45
370.07	135.75
370.27	140.43
370.47	234.05
370.66	451.72
370.86	339.38
371.06	400.23
371.25	479.81
371.45	444.70
371.65	456.40
371.84	411.93
372.04	510.24
372.24	440.02
372.44	477.47
372.63	463.43
372.83	498.53
373.03	540.66
373.22	545.34
373.42	620.24
373.62	589.82
373.81	528.96
374.01	528.96
374.21	486.83
374.40	564.07
374.60	566.41
374.79	585.13
374.99	608.54
375.19	538.32
375.38	653.01
375.58	538.32
375.78	554.71
375.97	580.45
376.17	547.69
376.37	589.82
376.56	470.45
376.76	498.53
376.95	606.20
377.15	573.43
377.35	547.69
377.54	634.29
377.74	554.71
377.93	641.31
378.13	627.26
378.33	622.58
378.52	671.73
378.72	664.71
378.91	660.03
379.11	610.88
379.31	575.77
379.50	589.82
379.70	662.37
379.89	688.12
380.09	617.90
380.28	660.03
380.48	645.99
380.68	606.20
380.87	634.29
381.07	709.18
381.26	620.24
381.46	699.82
381.65	709.18
381.85	622.58
382.04	692.80
382.24	744.29
382.43	739.61
382.63	648.33
382.83	627.26
383.02	674.07
383.22	732.59
383.41	748.97
383.61	737.27
383.80	645.99
384.00	688.12
384.19	653.01
384.39	655.35
384.58	737.27
384.78	730.25
384.97	739.61
385.17	760.67
385.36	730.25
385.56	737.27
385.75	683.44
385.95	709.18
386.14	793.44
386.34	706.84
386.53	765.36
386.72	809.83
386.92	812.17
387.11	807.48
387.31	788.76
387.50	788.76
387.70	755.99
387.89	889.40
388.09	821.53
388.28	706.84
388.48	763.01
388.67	870.68
388.86	800.46
389.06	770.04
389.25	854.30
389.45	940.90
389.64	849.61
389.84	901.11
390.03	873.02
390.22	861.32
390.42	873.02
390.61	936.21
390.81	894.08
391.00	844.93
391.19	938.55
391.39	973.66
391.58	882.38
391.78	908.13
391.97	924.51
392.16	945.58
392.36	1053.24
392.55	985.37
392.75	1022.81
392.94	1008.77
393.13	1006.43
393.33	1006.43
393.52	936.21
393.71	945.58
393.91	1029.84
394.10	971.32
394.29	1062.60
394.49	1144.52
394.68	1116.44
394.88	1036.86
395.07	1069.62
395.26	1083.67
395.46	1118.78
395.65	1165.59
395.84	1064.94
396.04	1196.01
396.23	1139.84
396.42	999.41
396.62	1102.39
396.81	1153.88
397.00	1078.99
397.19	1256.87
397.39	1196.01
397.58	1158.57
397.77	1198.35
397.97	1291.98
398.16	1203.04
398.35	1299.00
398.55	1320.06
398.74	1247.51
398.93	1341.13
399.12	1378.58
399.32	1299.00
399.51	1280.27
399.70	1324.74
399.90	1362.19
400.09	1413.68
400.28	1387.94
400.47	1338.79
400.67	1378.58
400.86	1453.47
401.05	1373.89
401.24	1334.11
401.44	1575.18
401.63	1523.69
401.82	1596.25
402.01	1509.65
402.21	1540.07
402.40	1441.77
402.59	1516.67
402.78	1511.99
402.97	1540.07
403.17	1633.69
403.36	1549.43
403.55	1561.14
403.74	1598.59
403.93	1584.54
404.13	1631.35
404.32	1624.33
404.51	1621.99
404.70	1617.31
404.89	1650.08
405.09	1654.76
405.28	1638.38
405.47	1689.87
405.66	1732.00
405.85	1703.91
406.05	1736.68
406.24	1781.15
406.43	1727.32
406.62	1729.66
406.81	1732.00
407.00	1750.72
407.20	1729.66
407.39	1792.85
407.58	1842.00
407.77	1802.21
407.96	1940.30
408.15	2019.88
408.34	1898.17
408.54	1949.67
408.73	1963.71
408.92	1933.28
409.11	1914.56
409.30	2054.99
409.49	1879.45
409.68	1975.41
409.87	2050.31
410.07	1940.30
410.26	1987.11
410.45	2073.71
410.64	2118.18
410.83	2106.48
411.02	2183.72
411.21	2279.68
411.40	2181.38
411.59	2289.04
411.78	2225.85
411.98	2207.13
412.17	2326.49
412.36	2328.83
412.55	2387.35
412.74	2354.58
412.93	2485.65
413.12	2448.20
413.31	2452.88
413.50	2368.62
413.69	2354.58
413.88	2534.80
414.07	2408.41
414.26	2445.86
414.45	2630.76
414.64	2644.81
414.83	2579.27
415.02	2642.46
415.22	2600.34
415.41	2726.72
415.60	2719.70
415.79	2691.62
415.98	2942.05
416.17	2806.30
416.36	2768.85
416.55	2937.37
416.74	2827.37
416.93	2874.18
417.12	2850.77
417.31	2874.18
417.50	2857.79
417.69	3101.21
417.88	3033.33
418.07	3030.99
418.26	2953.76
418.45	3026.31
418.64	3185.47
418.83	3049.72
419.02	3068.44
419.21	3038.02
419.39	3152.70
419.58	3087.17
419.77	3126.96
419.96	3145.68
420.15	3239.30
420.34	3124.62
420.53	3211.22
420.72	3382.07
420.91	3218.24
421.10	3281.43
421.29	3375.05
421.48	3407.82
421.67	3433.57
421.86	3321.22
422.05	3274.41
422.24	3318.88
422.43	3485.06
422.61	3243.98
422.80	3400.80
422.99	3424.20
423.18	3527.19
423.37	3557.61
423.56	3405.48
423.75	3424.20
423.94	3405.48
424.13	3218.24
424.32	3506.12
424.50	3485.06
424.69	3522.51
424.88	3517.83
425.07	3506.12
425.26	3534.21
425.45	3442.93
425.64	3461.65
425.83	3463.99
426.01	3618.47
426.20	3541.23
426.39	3515.48
426.58	3562.30
426.77	3508.46
426.96	3442.93
427.15	3522.51
427.33	3702.73
427.52	3646.55
427.71	3742.52
427.90	3728.47
428.09	3672.30
428.28	3602.08
428.46	3754.22
428.65	3602.08
428.84	3794.01
429.03	3794.01
429.22	3681.66
429.40	3676.98
429.59	3686.34
429.78	3592.72
429.97	3637.19
430.16	3740.18
430.34	3829.12
430.53	3889.97
430.72	3826.78
430.91	3735.50
431.10	3873.59
431.28	4100.62
431.47	4058.49
431.66	4119.34
431.85	4004.66
432.03	4124.02
432.22	4023.38
432.41	4018.70
432.60	4203.60
432.79	4156.79
432.97	4140.41
433.16	3983.59
433.35	4227.01
433.54	4154.45
433.72	4105.30
433.91	4170.83
434.10	4234.03
434.28	4018.70
434.47	4334.67
434.66	4259.78
434.85	4348.72
435.03	4465.74
435.22	4383.82
435.41	4559.36
435.59	4418.93
435.78	4517.23
435.97	4449.36
436.16	4493.83
436.34	4355.74
436.53	4535.96
436.72	4587.45
436.90	4486.81
437.09	4603.83
437.28	4418.93
437.46	4617.88
437.65	4517.23
437.84	4650.64
438.02	4676.39
438.21	4575.75
438.40	4531.28
438.58	4765.33
438.77	4823.84
438.96	4826.18
439.14	4877.68
439.33	4931.51
439.52	5011.09
439.70	5004.07
439.89	4908.10
440.08	5006.41
440.26	5095.35
440.45	5041.51
440.63	5053.22
440.82	5125.77
441.01	5221.74
441.19	5270.89
441.38	5266.21
441.57	5397.28
441.75	5540.05
441.94	5533.03
442.12	5516.64
442.31	5565.79
442.50	5636.01
442.68	5530.69
442.87	5563.45
443.05	5504.94
443.24	5636.01
443.43	5537.71
443.61	5685.16
443.80	5813.89
443.98	5502.60
444.17	5418.34
444.35	5753.04
444.54	5797.51
444.73	5647.71
444.91	5778.78
445.10	5741.33
445.28	5579.84
445.47	5689.84
445.65	5853.68
445.84	5795.17
446.02	5701.54
446.21	5652.39
446.39	5809.21
446.58	5851.34
446.77	5877.09
446.95	5809.21
447.14	5849.00
447.32	6003.47
447.51	5834.96
447.69	5851.34
447.88	5944.96
448.06	5760.06
448.25	5963.68
448.43	5867.72
448.62	6045.60
448.80	5982.41
448.99	5959.00
449.17	6099.44
449.36	5968.37
449.54	6090.07
449.73	6272.64
449.91	6167.31
450.10	6228.17
450.28	6352.21
450.46	6200.08
450.65	6253.91
450.83	6216.46
451.02	6319.45
451.20	6291.36
451.39	6246.89
451.57	6113.48
451.76	6251.57
451.94	6272.64
452.13	6408.39
452.31	6445.84
452.49	6373.28
452.68	6597.97
452.86	6340.51
453.05	6352.21
453.23	6539.46
453.42	6569.88
453.60	6321.79
453.78	6525.41
453.97	6516.05
454.15	6373.28
454.34	6548.82
454.52	6710.32
454.70	6651.80
454.89	6553.50
455.07	6724.36
455.26	6684.57
455.44	6724.36
455.62	6771.17
455.81	6733.72
455.99	6808.62
456.17	7005.22
456.36	7077.78
456.54	6988.84
456.73	6895.22
456.91	7091.82
457.09	7232.26
457.28	7377.37
457.46	7178.42
457.64	7105.87
457.83	6871.81
458.01	7028.63
458.19	7304.81
458.38	7232.26
458.56	7255.66
458.74	7473.33
458.93	7445.24
459.11	7314.17
459.29	7183.10
459.48	7414.82
459.66	7442.90
459.84	7389.07
460.03	7681.64
460.21	7445.24
460.39	7545.89
460.57	7515.46
460.76	7475.67
460.94	7616.10
461.12	7676.96
461.31	7639.51
461.49	7573.97
461.67	7700.36
461.85	7653.55
462.04	7674.62
462.22	8273.79
462.40	7786.96
462.59	7880.58
462.77	7838.45
462.95	7852.50
463.13	7789.30
463.32	7810.37
463.50	7899.31
463.68	7920.37
463.86	7932.08
464.05	7868.88
464.23	7833.77
464.41	7803.35
464.59	7873.56
464.78	8138.04
464.96	8109.96
465.14	7955.48
465.32	8173.15
465.50	8306.56
465.69	8184.85
465.87	8287.84
466.05	8226.98
466.23	8259.75
466.41	8182.51
466.60	8456.36
466.78	8280.82
466.96	8166.13
467.14	8346.35
467.32	8336.99
467.51	8659.98
467.69	8119.32
467.87	8264.43
468.05	8524.23
468.23	8325.29
468.41	8311.24
468.60	8507.85
468.78	8608.49
468.96	8454.02
469.14	8521.89
469.32	8734.88
469.50	8423.59
469.69	8676.37
469.87	8802.75
470.05	8781.69
470.23	8870.63
470.41	8617.85
470.59	8858.93
470.77	8727.86
470.95	8957.23
471.14	9149.15
471.32	8765.31
471.50	9114.05
471.68	9107.02
471.86	9165.54
472.04	9109.36
472.22	9432.36
472.40	9210.01
472.58	9167.88
472.77	9434.70
472.95	9659.39
473.13	9474.49
473.31	9392.57
473.49	9558.75
473.67	9441.72
473.85	9439.38
474.03	9856.00
474.21	9909.83
474.39	10043.24
474.57	9678.12
474.75	9848.97
474.93	9940.26
475.12	9912.17
475.30	10281.97
475.48	10087.71
475.66	9966.00
475.84	9895.78
476.02	10272.61
476.20	10326.44
476.38	10527.73
476.56	10499.64
476.74	10466.88
476.92	10469.22
477.10	10649.44
477.28	10937.32
477.46	11077.76
477.64	10808.59
477.82	10913.92
478.00	11344.58
478.18	11068.39
478.36	11070.73
478.54	11349.26
478.72	11529.48
478.90	11513.10
479.08	11730.76
479.26	11775.24
479.44	11810.34
479.62	11906.31
479.80	11826.73
479.98	12203.55
480.16	12217.60
480.34	12131.00
480.52	12266.75
480.70	12360.37
480.88	12070.14
481.06	12255.04
481.24	12320.58
481.41	12585.06
481.59	12592.08
481.77	12807.41
481.95	13036.78
482.13	13025.08
482.31	12980.61
482.49	13334.03
482.67	13214.66
482.85	13596.17
483.03	13722.56
483.21	13511.91
483.39	13750.65
483.57	13776.39
483.74	13823.20
483.92	13886.40
484.10	14059.60
484.28	14293.65
484.46	14387.27
484.64	14752.40
484.82	14368.55
485.00	14616.65
485.18	14738.35
485.35	14775.80
485.53	14984.11
485.71	14953.68
485.89	14904.53
486.07	15283.70
486.25	15255.61
486.43	15468.60
486.61	15494.35
486.78	15683.93
486.96	15822.02
487.14	15964.79
487.32	16191.83
487.50	16025.65
487.68	16294.81
487.85	16636.53
488.03	16788.66
488.21	16702.06
488.39	17015.69
488.57	16732.49
488.75	17191.23
488.92	17259.11
489.10	17315.28
489.28	17392.52
489.46	17713.17
489.64	17823.18
489.81	17961.27
489.99	18340.44
490.17	18340.44
490.35	18291.29
490.53	18239.79
490.70	18354.48
490.88	18569.81
491.06	18459.81
491.24	18888.12
491.41	18778.12
491.59	19246.23
491.77	19267.29
491.95	19089.41
492.13	19534.11
492.30	19637.09
492.48	19597.31
492.66	19524.75
492.84	19730.72
493.01	20095.84
493.19	20016.26
493.37	20306.49
493.54	20042.01
493.72	20287.76
493.90	20573.31
494.08	20971.20
494.25	20856.51
494.43	21060.14
494.61	21181.85
494.79	21212.28
494.96	21345.69
495.14	21226.32
495.32	21556.33
495.49	21680.38
495.67	21696.77
495.85	21731.87
496.02	22031.46
496.20	21963.59
496.38	22099.34
496.55	22111.04
496.73	22906.82
496.91	22492.55
497.09	22412.97
497.26	22602.55
497.44	22560.42
497.62	22813.20
497.79	23033.21
497.97	23089.38
498.14	22862.35
498.32	23332.80
498.50	23173.64
498.67	23592.60
498.85	23531.75
499.03	23807.93
499.20	23601.96
499.38	23939.00
499.56	24224.54
499.73	24034.96
499.91	24147.31
500.08	24285.40
500.26	24170.71
500.44	24191.78
500.61	24350.93
500.79	24531.15
500.97	24357.96
501.14	25137.35
501.32	25219.27
501.49	24842.45
501.67	24592.01
501.84	24929.05
502.02	25153.74
502.20	25177.14
502.37	25448.64
502.55	25303.53
502.72	25315.23
502.90	25584.40
503.07	25827.81
503.25	25844.20
503.43	25308.21
503.60	25919.09
503.78	26120.38
503.95	25621.84
504.13	26129.74
504.30	26230.38
504.48	26132.08
504.65	26445.71
504.83	26565.08
505.01	26527.63
505.18	26672.74
505.36	27030.85
505.53	26665.72
505.71	26803.82
505.88	27419.38
506.06	26492.52
506.23	26965.31
506.41	27080.00
506.58	27234.47
506.76	27398.31
506.93	27772.80
507.11	27393.63
507.28	27557.47
507.46	27470.87
507.63	27749.39
507.81	27913.23
507.98	27653.43
508.16	27749.39
508.33	27679.18
508.50	28058.34
508.68	28173.03
508.85	28147.28
509.03	28570.92
509.20	28863.49
509.38	28765.18
509.55	28807.31
509.73	28811.99
509.90	28662.20
510.08	28795.61
510.25	28922.00
510.42	28877.53
510.60	29083.50
510.77	29259.04
510.95	29294.14
511.12	28922.00
511.30	29500.11
511.47	29612.46
511.64	29799.70
511.82	29860.55
511.99	29755.23
512.17	29661.61
512.34	29699.06
512.51	30213.98
512.69	30054.82
512.86	30096.95
513.04	30417.60
513.21	30558.03
513.38	30087.59
513.56	30394.20
513.73	30094.61
513.90	30511.22
514.08	30382.49
514.25	30972.31
514.43	30906.77
514.60	31269.56
514.77	30742.94
514.95	30857.62
515.12	30885.71
515.29	30874.01
515.47	30782.73
515.64	31470.84
515.81	31119.76
515.99	31428.71
516.16	30972.31
516.33	31475.52
516.51	31243.81
516.68	31103.38
516.85	31243.81
517.03	31669.79
517.20	31903.84
517.37	31875.76
517.54	31878.10
517.72	31950.65
517.89	32114.49
518.06	31639.36
518.24	31800.86
518.41	31934.27
518.58	32154.28
518.75	31981.08
518.93	32355.57
519.10	32322.80
519.27	32250.24
519.45	32636.43
519.62	32638.77
519.79	32762.82
519.96	33062.41
520.14	33109.22
520.31	33120.92
520.48	32931.34
520.65	32842.40
520.83	33324.55
521.00	33177.09
521.17	33266.03
521.34	33127.94
521.52	33684.99
521.69	33184.12
521.86	33724.78
522.03	33521.15
522.20	34043.09
522.38	34134.37
522.55	34059.48
522.72	33888.62
522.89	34103.95
523.07	33984.58
523.24	33979.90
523.41	34174.16
523.58	33996.28
523.75	34543.97
523.92	34338.00
524.10	34710.14
524.27	34319.28
524.44	34616.52
524.61	34754.61
524.78	34857.60
524.96	35037.82
525.13	34981.65
525.30	34766.32
525.47	35164.21
525.64	34782.70
525.81	35288.26
525.98	34941.86
526.16	35070.59
526.33	35480.18
526.50	35204.00
526.67	35075.27
526.84	35555.08
527.01	35145.48
527.18	35323.36
527.36	35543.38
527.53	35721.26
527.70	36009.14
527.87	35648.70
528.04	35777.43
528.21	35709.55
528.38	35634.66
528.55	36025.53
528.72	36353.20
528.89	36737.05
529.07	36133.19
529.24	35976.37
529.41	36290.01
529.58	36301.71
529.75	36250.22
529.92	36503.00
530.09	36444.48
530.26	36311.07
530.43	36563.85
530.60	36259.58
530.77	36596.62
530.94	36596.62
531.11	36334.48
531.28	36671.51
531.46	37064.72
531.63	36800.24
531.80	36959.40
531.97	36975.78
532.14	36748.75
532.31	36999.19
532.48	36673.85
532.65	36900.89
532.82	37036.64
532.99	37633.47
533.16	36737.05
533.33	37273.03
533.50	37415.80
533.67	37521.13
533.84	37420.48
534.01	37621.77
534.18	37453.25
534.35	37890.93
534.52	37394.74
534.69	37413.46
534.86	37596.03
535.03	37745.82
535.20	38440.96
535.37	38160.09
535.54	38302.87
535.71	37778.59
535.88	38199.88
536.05	37993.92
536.22	38567.35
536.38	38429.26
536.55	38417.55
536.72	38176.48
536.89	37851.14
537.06	38382.45
537.23	38457.34
537.40	38094.56
537.57	38618.84
537.74	38714.80
537.91	39070.56
538.08	38506.49
538.25	38373.08
538.42	38667.99
538.59	38803.74
538.75	38450.32
538.92	38295.85
539.09	39054.18
539.26	39063.54
539.43	39002.69
539.60	38988.64
539.77	39009.71
539.94	38724.16
540.11	39028.43
540.28	38941.83
540.44	39138.44
540.61	39009.71
540.78	38878.64
540.95	38995.67
541.12	38988.64
541.29	39285.89
541.46	39269.51
541.62	39222.70
541.79	40016.14
541.96	39019.07
542.13	39622.93
542.30	39559.73
542.47	39405.26
542.63	39983.37
542.80	39697.83
542.97	40268.92
543.14	40299.34
543.31	40390.62
543.48	40076.99
543.64	40657.45
543.81	40025.50
543.98	40339.13
544.15	40463.18
544.32	40421.05
544.48	40744.05
544.65	40264.24
544.82	40706.60
544.99	39805.49
545.16	40650.42
545.32	40231.47
545.49	40767.45
545.66	40732.34
545.83	40718.30
546.00	40994.48
546.16	40715.96
546.33	40861.07
546.50	40266.58
546.67	41036.61
546.83	39920.18
547.00	40442.12
547.17	40683.19
547.34	40987.46
547.50	41146.62
547.67	40952.35
547.84	41132.57
548.00	41263.64
548.17	41453.23
548.34	40910.22
548.51	41280.03
548.67	41364.29
548.84	41329.18
549.01	41280.03
549.18	41200.45
549.34	41631.11
549.51	41600.68
549.68	41794.95
549.84	41640.47
550.01	41968.15
550.18	41713.03
550.34	41703.67
550.51	41163.00
550.68	41130.23
550.84	41577.28
551.01	41462.59
551.18	41724.73
551.34	41911.97
551.51	41933.04
551.68	41741.11
551.84	41801.97
552.01	41916.65
552.18	42078.15
552.34	41598.34
552.51	42312.20
552.68	42199.86
552.84	42061.77
553.01	42314.55
553.18	42031.34
553.34	41893.25
553.51	41876.86
553.67	42043.04
553.84	42682.01
554.01	42253.69
554.17	42644.56
554.34	42611.79
554.51	42829.46
554.67	42431.57
554.84	42674.99
555.00	42249.01
555.17	42682.01
555.33	42635.20
555.50	42684.35
555.67	42869.25
555.83	42513.49
556.00	42529.87
556.16	43225.01
556.33	42546.26
556.50	42871.59
556.66	42588.39
556.83	42567.32
556.99	42799.04
557.16	42890.32
557.32	42560.30
557.49	43042.45
557.65	42728.82
557.82	42440.93
557.98	42674.99
558.15	42658.60
558.32	43133.73
558.48	43049.47
558.65	43194.59
558.81	42714.78
558.98	42621.16
559.14	42789.67
559.31	42981.60
559.47	42925.42
559.64	43115.01
559.80	43175.86
559.97	43180.54
560.13	42958.19
560.30	43107.99
560.46	43213.31
560.63	43269.48
560.79	43285.87
560.96	43548.01
561.12	43402.89
561.29	43126.71
561.45	42887.98
561.61	43281.19
561.78	43548.01
561.94	43463.75
562.11	43501.20
562.27	43400.55
562.44	42988.62
562.60	43295.23
562.77	43580.78
562.93	43351.40
563.10	43941.22
563.26	43084.58
563.42	43758.66
563.59	43370.13
563.75	43576.09
563.92	43667.37
564.08	43533.96
564.24	44030.16
564.41	43524.60
564.57	43377.15
564.74	43606.52
564.90	44196.34
565.07	43700.14
565.23	43580.78
565.39	43737.59
565.56	44210.38
565.72	43648.65
565.88	43786.74
566.05	43885.04
566.21	43405.23
566.38	43096.28
566.54	43604.18
566.70	44224.42
566.87	44257.19
567.03	43538.65
567.19	44392.94
567.36	43786.74
567.52	43817.17
567.68	43728.23
567.85	43892.07
568.01	43913.13
568.17	43608.86
568.34	44196.34
568.50	43761.00
568.66	43917.81
568.83	44062.93
568.99	43709.50
569.15	43863.98
569.32	43590.14
569.48	44081.65
569.64	44196.34
569.81	43934.20
569.97	43686.10
570.13	44552.10
570.30	43824.19
570.46	43730.57
570.62	44055.90
570.78	43746.95
570.95	44285.28
571.11	44406.98
571.27	43775.04
571.43	44273.57
571.60	44112.08
571.76	44189.31
571.92	43711.84
572.09	44224.42
572.25	43948.24
572.41	44039.52
572.57	44072.29
572.74	44191.65
572.90	44612.95
573.06	44198.68
573.22	44275.91
573.38	44619.97
573.55	44060.58
573.71	44030.16
573.87	44039.52
574.03	44301.66
574.20	44151.87
574.36	43629.93
574.52	44524.01
574.68	43983.35
574.84	44509.97
575.01	44465.50
575.17	44079.31
575.33	44402.30
575.49	44016.11
575.65	44053.56
575.82	44493.58
575.98	44608.27
576.14	44556.78
576.30	44226.76
576.46	43803.13
576.62	44069.95
576.79	44128.46
576.95	43601.84
577.11	44797.85
577.27	44135.48
577.43	44481.88
577.59	44414.01
577.75	43885.04
577.92	43557.37
578.08	44250.17
578.24	43772.70
578.40	44172.93
578.56	44081.65
578.72	43955.26
578.88	44449.11
579.04	44402.30
579.21	44039.52
579.37	44151.87
579.53	44479.54
579.69	43859.30
579.85	44182.29
580.01	44774.45
580.17	44100.37
580.33	44701.89
580.49	44463.16
580.65	44470.18
580.82	44582.52
580.98	44619.97
581.14	44039.52
581.30	44905.52
581.46	44453.79
581.62	44825.94
581.78	44465.50
581.94	44713.59
582.10	44296.98
582.26	44832.96
582.42	44762.75
582.58	44856.37
582.74	43936.54
582.90	44495.92
583.06	44626.99
583.22	44655.08
583.38	44666.78
583.54	44746.36
583.70	44381.24
583.86	44088.67
584.02	44051.22
584.18	44364.85
584.34	44376.56
584.50	44603.59
584.66	43852.28
584.82	44044.20
584.98	44666.78
585.14	44680.83
585.30	44140.16
585.46	43812.49
585.62	44147.18
585.78	44549.76
585.94	43728.23
586.10	44327.41
586.26	44409.32
586.42	44282.94
586.58	44107.40
586.74	44416.35
586.90	44495.92
587.06	44348.47
587.22	44566.14
587.38	44563.80
587.54	45074.04
587.70	44467.84
587.86	44495.92
588.02	44844.66
588.18	44556.78
588.34	44313.36
588.49	44479.54
588.65	44470.18
588.81	43697.80
588.97	44259.53
589.13	44320.38
589.29	44219.74
589.45	44830.62
589.61	44259.53
589.77	44776.79
589.93	44685.51
590.08	44540.39
590.24	45036.59
590.40	44528.69
590.56	45221.49
590.72	44769.77
590.88	44634.02
591.04	44718.28
591.20	44669.12
591.35	44952.33
591.51	45193.40
591.67	45322.13
591.83	44741.68
591.99	44678.49
592.15	44404.64
592.31	44648.06
592.46	44854.03
592.62	44652.74
592.78	45095.10
592.94	44835.30
593.10	45022.54
593.26	45237.87
593.41	44954.67
593.57	44715.93
593.73	44886.79
593.89	45043.61
594.05	44552.10
594.20	45024.89
594.36	45062.33
594.52	44591.89
594.68	44683.17
594.84	44634.02
594.99	45191.06
595.15	44690.19
595.31	45139.57
595.47	45153.62
595.62	45001.48
595.78	44612.95
595.94	44985.10
596.10	44886.79
596.25	45045.95
596.41	44898.50
596.57	44671.46
596.73	45237.87
596.88	44428.05
597.04	44694.87
597.20	45095.10
597.36	44863.39
597.51	45003.82
597.67	44694.87
597.83	45371.28
597.99	44935.95
598.14	45146.59
598.30	44783.81
598.46	44521.67
598.61	44863.39
598.77	44519.33
598.93	44692.53
599.09	45006.16
599.24	45404.05
599.40	45167.66
599.56	45240.21
599.71	45055.31
599.87	45099.78
600.03	44837.64
600.18	44886.79
600.34	45050.63
600.50	45249.58
600.65	44891.48
600.81	45240.21
600.97	45401.71
601.12	45102.12
601.28	45230.85
601.44	45118.51
601.59	44903.18
601.75	44786.15
601.91	44603.59
602.06	45027.23
602.22	45296.39
602.37	44985.10
602.53	45357.24
602.69	45188.72
602.84	44772.11
603.00	45095.10
603.16	44800.19
603.31	44704.23
603.47	44624.65
603.62	44575.50
603.78	44800.19
603.94	45034.25
604.09	45111.49
604.25	45275.32
604.40	45031.91
604.56	44971.05
604.71	45041.27
604.87	44748.70
605.03	44769.77
605.18	44439.75
605.34	44851.69
605.49	44893.82
605.65	44804.88
605.80	44687.85
605.96	44949.99
606.12	45186.38
606.27	44961.69
606.43	44802.53
606.58	44828.28
606.74	45050.63
606.89	45057.65
607.05	44889.13
607.20	45102.12
607.36	44692.53
607.51	45020.20
607.67	44671.46
607.82	44589.55
607.98	45081.06
608.13	44823.60
608.29	44465.50
608.44	44479.54
608.60	44179.95
608.75	44147.18
608.91	44189.31
609.06	44652.74
609.22	44664.44
609.37	44388.26
609.53	44467.84
609.68	44198.68
609.84	44619.97
609.99	44395.28
610.15	44444.43
610.30	44516.99
610.46	44189.31
610.61	44383.58
610.76	44257.19
610.92	44535.71
611.07	44395.28
611.23	44364.85
611.38	44725.30
611.54	43875.68
611.69	43658.01
611.84	43800.79
612.00	44409.32
612.15	43910.79
612.31	44098.03
612.46	44446.77
612.62	44456.14
612.77	44116.76
612.92	43929.51
613.08	44048.88
613.23	44294.64
613.39	43868.66
613.54	43564.39
613.69	43798.44
613.85	43751.63
614.00	44327.41
614.15	44453.79
614.31	43973.98
614.46	44308.68
614.62	44217.40
614.77	43845.26
614.92	44037.18
615.08	43576.09
615.23	43849.94
615.38	43845.26
615.54	43435.66
615.69	43297.57
615.84	43683.76
616.00	43388.85
616.15	43529.28
616.30	43723.55
616.46	43360.76
616.61	43388.85
616.76	43650.99
616.92	42925.42
617.07	43494.18
617.22	43227.35
617.37	43332.68
617.53	43924.83
617.68	43761.00
617.83	43641.63
617.99	43428.64
618.14	43662.69
618.29	42953.51
618.45	42866.91
618.60	43255.44
618.75	43416.94
618.90	43234.38
619.06	43377.15
619.21	43920.15
619.36	43330.34
619.51	42953.51
619.67	43531.62
619.82	42892.66
619.97	43337.36
620.12	42995.64
620.28	42974.58
620.43	42808.40
620.58	43426.30
620.73	43154.80
620.89	42997.98
621.04	43009.68
621.19	43365.45
621.34	42806.06
621.49	42665.63
621.65	43019.05
621.80	42562.64
621.95	42473.70
622.10	43107.99
622.25	43213.31
622.41	42326.25
622.56	42841.17
622.71	42518.17
622.86	42660.94
623.01	43182.88
623.16	42993.30
623.32	42609.45
623.47	42871.59
623.62	42665.63
623.77	42459.66
623.92	42660.94
624.07	42693.71
624.23	42160.07
624.38	42197.52
624.53	41954.10
624.68	42204.54
624.83	42190.50
624.98	42525.19
625.13	42548.60
625.29	42270.08
625.44	42436.25
625.59	42227.95
625.74	42040.70
625.89	42401.14
626.04	41858.14
626.19	42176.45
626.34	42199.86
626.49	42103.90
626.65	42007.94
626.80	42408.17
626.95	41942.40
627.10	41865.16
627.25	41783.24
627.40	41794.95
627.55	41469.61
627.70	41500.04
627.85	41937.72
628.00	41933.04
628.15	42464.34
628.30	41954.10
628.45	41830.05
628.60	41628.77
628.76	42148.37
628.91	41673.24
629.06	41773.88
629.21	41598.34
629.36	41516.42
629.51	41617.07
629.66	41092.79
629.81	41273.01
629.96	41280.03
630.11	41474.29
630.26	41703.67
630.41	41273.01
630.56	41469.61
630.71	41706.01
630.86	41670.90
631.01	41141.94
631.16	41273.01
631.31	41188.75
631.46	41027.25
631.61	41237.90
631.76	41371.31
631.91	41214.49
632.06	41148.96
632.21	41347.90
632.36	41366.63
632.51	41036.61
632.66	41308.11
632.81	40825.96
632.96	41163.00
633.10	40652.76
633.25	40704.26
633.40	41031.93
633.55	40987.46
633.70	40898.52
633.85	40945.33
634.00	40517.01
634.15	40582.55
634.30	40720.64
634.45	40421.05
634.60	40737.02
634.75	40472.54
634.90	40449.14
635.05	40388.28
635.19	40439.78
635.34	40741.71
635.49	40456.16
635.64	40458.50
635.79	40371.90
635.94	39971.67
636.09	40100.40
636.24	40179.98
636.39	40238.49
636.53	40343.81
636.68	39721.23
636.83	40509.99
636.98	40605.95
637.13	39952.94
637.28	40088.70
637.43	40318.07
637.57	40374.24
637.72	40348.50
637.87	40470.20
638.02	40147.21
638.17	39756.34
638.32	39672.08
638.46	39920.18
638.61	40025.50
638.76	39510.58
638.91	39945.92
639.06	39924.86
639.20	40011.46
639.35	40289.98
639.50	39934.22
639.65	39728.25
639.80	40165.93
639.94	39800.81
640.09	40039.54
640.24	39218.02
640.39	39723.57
640.54	39765.70
640.68	39922.52
640.83	39597.18
640.98	39171.21
641.13	39498.88
641.27	39763.36
641.42	39775.06
641.57	39693.15
641.72	39761.02
641.86	39218.02
642.01	39037.80
642.16	39222.70
642.31	39068.22
642.45	39517.60
642.60	39199.29
642.75	38998.01
642.90	39206.31
643.04	38986.30
643.19	39218.02
643.34	39255.46
643.48	39496.54
643.63	39700.17
643.78	38918.43
643.93	39243.76
644.07	39131.42
644.22	39325.68
644.37	38871.62
644.51	38951.20
644.66	39115.03
644.81	38883.32
644.95	39159.50
645.10	38864.60
645.25	38775.66
645.39	38941.83
645.54	39349.09
645.69	38859.91
645.83	38862.26
645.98	38745.23
646.13	38845.87
646.27	38895.02
646.42	38192.86
646.57	38974.60
646.71	38778.00
646.86	38522.88
647.00	38859.91
647.15	39278.87
647.30	38651.61
647.44	38822.47
647.59	38843.53
647.74	38653.95
647.88	38101.58
648.03	38609.48
648.17	38801.40
648.32	38192.86
648.47	38101.58
648.61	38253.72
648.76	38618.84
648.90	38277.12
649.05	38239.67
649.20	38576.71
649.34	38738.21
649.49	38143.71
649.63	38206.90
649.78	38160.09
649.92	38120.31
650.07	38497.13
650.21	38518.20
650.36	38312.23
650.51	37827.74
650.65	38326.27
650.80	39035.45
650.94	38258.40
651.09	38265.42
651.23	37776.25
651.38	37893.27
651.52	37862.85
651.67	37968.17
651.81	37799.65
651.96	37839.44
652.10	38115.62
652.25	37563.26
652.39	37638.15
652.54	37727.10
652.68	37961.15
652.83	37963.49
652.97	37560.92
653.12	37532.83
653.26	37787.95
653.41	37993.92
653.55	37317.50
653.70	37699.01
653.84	37532.83
653.99	37357.29
654.13	37504.74
654.27	37436.87
654.42	37268.35
654.56	37165.37
654.71	37373.67
654.85	37359.63
655.00	37645.18
655.14	37338.57
655.29	36790.88
655.43	37212.18
655.57	37010.89
655.72	36921.95
655.86	36861.10
656.01	36811.95
656.15	36671.51
656.30	36882.16
656.44	36767.48
656.58	36694.92
656.73	36802.58
656.87	36563.85
657.01	36673.85
657.16	36545.12
657.30	36772.16
657.45	36664.49
657.59	36699.60
657.73	36285.33
657.88	37057.70
658.02	36751.09
658.16	36598.96
658.31	36561.51
658.45	36687.90
658.60	36414.05
658.74	36676.19
658.88	36528.74
659.03	36350.86
659.17	36072.34
659.31	36381.29
659.46	36236.17
659.60	36121.49
659.74	36290.01
659.89	35864.03
660.03	36238.51
660.17	36367.24
660.32	35866.37
660.46	35969.35
660.60	36084.04
660.74	36320.43
660.89	35871.05
661.03	35585.50
661.17	35262.51
661.32	35426.35
661.46	35566.78
661.60	35122.08
661.74	35637.00
661.89	35407.62
662.03	35463.80
662.17	35686.15
662.31	35377.20
662.46	35487.20
662.60	35342.09
662.74	35695.51
662.88	35232.08
663.03	35253.15
663.17	35276.55
663.31	34986.33
663.45	35103.35
663.60	35035.48
663.74	34913.77
663.88	35189.95
664.02	34670.36
664.17	34780.36
664.31	34574.39
664.45	34965.26
664.59	34625.89
664.73	34511.20
664.88	34731.21
665.02	34220.97
665.16	34602.48
665.30	34553.33
665.44	34204.59
665.59	34279.49
665.73	33804.36
665.87	34136.71
666.01	34211.61
666.15	34323.96
666.29	34033.73
666.44	34071.18
666.58	34064.16
666.72	34120.33
666.86	33935.43
667.00	33902.66
667.14	33785.63
667.28	34162.46
667.43	33294.12
667.57	34174.16
667.71	33509.45
667.85	33720.10
667.99	33731.80
668.13	33560.94
668.27	33273.06
668.41	33514.13
668.56	33380.72
668.70	33469.66
668.84	33273.06
668.98	33188.80
669.12	33139.65
669.26	32905.59
669.40	32966.45
669.54	32444.51
669.68	32931.34
669.82	32786.22
669.96	32921.98
670.10	32554.51
670.25	33027.30
670.39	32774.52
670.53	32741.75
670.67	32341.52
670.81	32542.81
670.95	32549.83
671.09	32737.07
671.23	32318.12
671.37	32624.73
671.51	32236.20
671.65	31899.16
671.79	32137.90
671.93	32009.17
672.07	32119.17
672.21	31903.84
672.35	31931.93
672.49	32081.72
672.63	31941.29
672.77	31363.18
672.91	31702.56
673.05	31332.75
673.19	31438.08
673.33	31452.12
673.47	31218.07
673.61	31318.71
673.75	31220.41
673.89	31096.36
674.03	30632.93
674.17	30614.21
674.31	31079.97
674.45	30675.06
674.59	31281.26
674.73	30934.86
674.87	30955.93
675.01	30618.89
675.15	30483.14
675.29	30466.75
675.43	30274.83
675.56	30768.68
675.70	30022.05
675.84	30045.46
675.98	29048.39
676.12	29996.31
676.26	29504.79
676.40	29556.28
676.54	29378.40
676.68	29685.01
676.82	29347.98
676.96	29481.39
677.10	29626.50
677.23	29378.40
677.37	29357.34
677.51	29223.93
677.65	29062.43
677.79	28971.15
677.93	28624.75
678.07	28739.44
678.21	28692.63
678.34	28533.47
678.48	28243.24
678.62	28371.97
678.76	28514.75
678.90	27831.31
679.04	28240.90
679.18	28299.42
679.31	28142.60
679.45	27971.74
679.59	27496.61
679.73	27854.72
679.87	27915.57
680.00	28238.56
680.14	27772.80
680.28	27405.33
680.42	27285.97
680.56	27108.08
680.70	27047.23
680.83	27061.27
680.97	27349.16
681.11	26803.82
681.25	26412.95
681.39	26946.59
681.52	27285.97
681.66	26806.16
681.80	26785.09
681.94	26565.08
682.07	26331.03
682.21	26335.71
682.35	26242.09
682.49	26026.76
682.62	26291.24
682.76	25666.31
682.90	26153.15
683.04	25855.90
683.17	25951.86
683.31	26038.46
683.45	25792.70
683.59	25635.89
683.72	25273.10
683.86	25221.61
684.00	25324.60
684.13	25247.36
684.27	25188.85
684.41	25081.18
684.55	24924.36
684.68	24751.17
684.82	24994.58
684.96	24905.64
685.09	24465.62
685.23	24776.91
685.37	24098.16
685.50	24397.74
685.64	24327.53
685.78	24187.10
685.91	23995.17
686.05	24201.14
686.19	23529.41
686.32	23913.25
686.46	23793.89
686.60	23356.21
686.73	23623.03
686.87	23356.21
687.01	23145.56
687.14	23297.69
687.28	23208.75
687.42	23220.45
687.55	22888.10
687.69	22789.80
687.82	22810.86
687.96	22693.83
688.10	22398.93
688.23	22625.96
688.37	22036.14
688.50	21975.29
688.64	21921.46
688.78	22396.59
688.91	22202.32
689.05	22080.61
689.18	21928.48
689.32	21249.72
689.46	21839.54
689.59	21727.19
689.73	22162.53
689.86	21685.06
690.00	21848.90
690.13	21486.12
690.27	21116.31
690.41	21401.86
690.54	21289.51
690.68	20996.95
690.81	21074.18
690.95	20992.26
691.08	21083.55
691.22	20779.28
691.35	20622.46
691.49	21003.97
691.62	20690.34
691.76	20573.31
691.89	20606.08
692.03	20531.18
692.16	20299.47
692.30	20423.51
692.43	20135.63
692.57	20168.40
692.70	20182.44
692.84	20130.95
692.97	19948.39
693.11	19719.01
693.24	19789.23
693.38	19302.40
693.51	19573.90
693.65	19386.66
693.78	19751.78
693.92	19222.82
694.05	19131.54
694.19	18834.29
694.32	19199.41
694.45	19112.81
694.59	18827.27
694.72	18829.61
694.86	18555.77
694.99	18890.46
695.13	18590.88
695.26	18506.62
695.39	18375.55
695.53	18483.21
695.66	18338.10
695.80	18312.35
695.93	18209.37
696.07	17884.03
696.20	17991.70
696.33	17886.37
696.47	18085.32
696.60	17610.19
696.73	17706.15
696.87	17750.62
697.00	17823.18
697.14	17907.44
697.27	17390.18
697.40	17390.18
697.54	17179.53
697.67	17378.48
697.80	17277.83
697.94	17092.93
698.07	16809.73
698.21	16915.05
698.34	16910.37
698.47	16720.79
698.61	16601.42
698.74	16519.50
698.87	16224.59
699.01	16133.31
699.14	16278.43
699.27	16395.45
699.40	16154.38
699.54	15943.73
699.67	15978.84
699.80	16205.87
699.94	15756.49
700.07	15967.13
700.20	16058.42
700.34	15508.39
700.47	15487.32
700.60	15737.76
700.73	15807.98
700.87	15470.94
701.00	15473.28
701.13	15527.11
701.26	15342.21
701.40	15290.72
701.53	15171.35
701.66	15131.56
701.79	15082.41
701.93	14986.45
702.06	14848.36
702.19	14693.88
702.32	14953.68
702.46	14979.43
702.59	14700.90
702.72	14363.87
702.85	14747.72
702.99	14478.55
703.12	14686.86
703.25	14420.04
703.38	14391.95
703.51	14230.46
703.65	14651.75
703.78	14295.99
703.91	14104.07
704.04	14118.11
704.17	13870.01
704.31	13851.29
704.44	13612.56
704.57	13579.79
704.70	13401.91
704.83	13439.36
704.96	13694.47
705.10	13832.57
705.23	13460.42
>>>>>End Processed Spectral Data<<<<<
