SpectraSuite Data File
++++++++++++++++++++++++++++++++++++
Date: Fri Oct 25 10:47:33 EDT 2013
User: price-jones
Dark Spectrum Present: No
Reference Spectrum Present: No
Number of Sampled Component Spectra: 1
Spectrometers: USB2+H05261
Integration Time (usec): 100000 (USB2+H05261)
Spectra Averaged: 1 (USB2+H05261)
Boxcar Smoothing: 0 (USB2+H05261)
Correct for Electrical Dark: No (USB2+H05261)
Strobe/Lamp Enabled: No (USB2+H05261)
Correct for Detector Non-linearity: No (USB2+H05261)
Correct for Stray Light: No (USB2+H05261)
Number of Pixels in Processed Spectrum: 2048
>>>>>Begin Processed Spectral Data<<<<<
365.73	170.86
365.92	170.86
366.12	170.86
366.32	70.22
366.52	0.00
366.72	9.36
366.91	37.45
367.11	63.19
367.31	9.36
367.51	98.30
367.70	30.43
367.90	42.13
368.10	67.88
368.30	79.58
368.49	0.00
368.69	84.26
368.89	117.03
369.09	46.81
369.28	131.07
369.48	53.83
369.68	117.03
369.87	161.50
370.07	91.28
370.27	126.39
370.47	152.13
370.66	301.93
370.86	454.06
371.06	400.23
371.25	458.74
371.45	339.38
371.65	454.06
371.84	517.26
372.04	477.47
372.24	477.47
372.44	447.04
372.63	507.90
372.83	521.94
373.03	543.00
373.22	489.17
373.42	517.26
373.62	524.28
373.81	489.17
374.01	580.45
374.21	507.90
374.40	465.77
374.60	543.00
374.79	613.22
374.99	592.16
375.19	566.41
375.38	512.58
375.58	589.82
375.78	671.73
375.97	606.20
376.17	582.79
376.37	491.51
376.56	479.81
376.76	493.85
376.95	557.05
377.15	568.75
377.35	550.03
377.54	585.13
377.74	580.45
377.93	561.73
378.13	519.60
378.33	592.16
378.52	592.16
378.72	608.54
378.91	636.63
379.11	566.41
379.31	641.31
379.50	507.90
379.70	683.44
379.89	592.16
380.09	638.97
380.28	636.63
380.48	547.69
380.68	674.07
380.87	587.47
381.07	629.60
381.26	692.80
381.46	634.29
381.65	678.76
381.85	706.84
382.04	699.82
382.24	767.70
382.43	615.56
382.63	629.60
382.83	685.78
383.02	734.93
383.22	650.67
383.41	676.41
383.61	730.25
383.80	732.59
384.00	706.84
384.19	751.31
384.39	744.29
384.58	772.38
384.78	809.83
384.97	779.40
385.17	737.27
385.36	727.91
385.56	688.12
385.75	753.65
385.95	793.44
386.14	798.12
386.34	781.74
386.53	807.48
386.72	856.64
386.92	795.78
387.11	809.83
387.31	821.53
387.50	716.20
387.70	870.68
387.89	842.59
388.09	779.40
388.28	788.76
388.48	795.78
388.67	863.66
388.86	828.55
389.06	847.27
389.25	849.61
389.45	821.53
389.64	863.66
389.84	875.36
390.03	873.02
390.22	891.74
390.42	816.85
390.61	947.92
390.81	880.04
391.00	901.11
391.19	854.30
391.39	950.26
391.58	973.66
391.78	889.40
391.97	1006.43
392.16	905.79
392.36	903.45
392.55	1041.54
392.75	931.53
392.94	1001.75
393.13	903.45
393.33	1043.88
393.52	1046.22
393.71	1029.84
393.91	952.60
394.10	980.68
394.29	1111.75
394.49	1060.26
394.68	1137.50
394.88	1128.14
395.07	1259.21
395.26	1083.67
395.46	1083.67
395.65	1210.06
395.84	1060.26
396.04	1100.05
396.23	1151.54
396.42	1097.71
396.62	1104.73
396.81	992.39
397.00	1121.12
397.19	1167.93
397.39	1123.46
397.58	1240.48
397.77	1128.14
397.97	1242.82
398.16	1217.08
398.35	1289.64
398.55	1205.38
398.74	1252.19
398.93	1240.48
399.12	1299.00
399.32	1315.38
399.51	1214.74
399.70	1287.29
399.90	1259.21
400.09	1364.53
400.28	1474.54
400.47	1334.11
400.67	1397.30
400.86	1460.49
401.05	1392.62
401.24	1376.24
401.44	1434.75
401.63	1364.53
401.82	1418.36
402.01	1364.53
402.21	1500.28
402.40	1462.83
402.59	1500.28
402.78	1465.18
402.97	1568.16
403.17	1502.62
403.36	1430.07
403.55	1486.24
403.74	1650.08
403.93	1561.14
404.13	1685.19
404.32	1600.93
404.51	1554.12
404.70	1675.82
404.89	1600.93
405.09	1699.23
405.28	1638.38
405.47	1680.50
405.66	1603.27
405.85	1675.82
406.05	1619.65
406.24	1699.23
406.43	1703.91
406.62	1804.55
406.81	1811.57
407.00	1727.32
407.20	1839.66
407.39	1769.44
407.58	1837.32
407.77	1748.38
407.96	1888.81
408.15	1933.28
408.34	1935.62
408.54	1898.17
408.73	1949.67
408.92	1966.05
409.11	1998.82
409.30	1991.80
409.49	1902.86
409.68	1991.80
409.87	1942.64
410.07	1980.09
410.26	2062.01
410.45	2008.18
410.64	2125.21
410.83	2160.31
411.02	2221.17
411.21	2193.08
411.40	2148.61
411.59	2181.38
411.78	2211.81
411.98	2209.47
412.17	2155.63
412.36	2235.21
412.55	2340.54
412.74	2361.60
412.93	2389.69
413.12	2293.72
413.31	2417.77
413.50	2438.84
413.69	2307.77
413.88	2438.84
414.07	2476.29
414.26	2541.82
414.45	2546.50
414.64	2635.44
414.83	2609.70
415.02	2509.05
415.22	2675.23
415.41	2761.83
415.60	2710.34
415.79	2654.17
415.98	2757.15
416.17	2754.81
416.36	2780.56
416.55	2686.94
416.74	2923.33
416.93	2909.29
417.12	2869.50
417.31	2808.64
417.50	2813.32
417.69	2965.46
417.88	2958.44
418.07	2963.12
418.26	2963.12
418.45	3005.25
418.64	3103.55
418.83	3075.46
419.02	3131.64
419.21	3199.51
419.39	3066.10
419.58	3023.97
419.77	3061.42
419.96	3194.83
420.15	3293.13
420.34	3103.55
420.53	3300.16
420.72	3356.33
420.91	3382.07
421.10	3272.07
421.29	3358.67
421.48	3215.90
421.67	3393.78
421.86	3330.58
422.05	3307.18
422.24	3260.37
422.43	3412.50
422.61	3438.25
422.80	3344.63
422.99	3440.59
423.18	3391.44
423.37	3433.57
423.56	3473.36
423.75	3365.69
423.94	3325.90
424.13	3157.38
424.32	3274.41
424.50	3358.67
424.69	3468.67
424.88	3463.99
425.07	3302.50
425.26	3485.06
425.45	3384.41
425.64	3482.72
425.83	3480.38
426.01	3517.83
426.20	3389.10
426.39	3386.76
426.58	3449.95
426.77	3393.78
426.96	3520.17
427.15	3571.66
427.33	3749.54
427.52	3595.06
427.71	3499.10
427.90	3524.85
428.09	3550.59
428.28	3616.13
428.46	3630.17
428.65	3702.73
428.84	3861.88
429.03	3684.00
429.22	3592.72
429.40	3777.62
429.59	3672.30
429.78	3644.21
429.97	3555.27
430.16	3698.05
430.34	3674.64
430.53	3878.27
430.72	3815.07
430.91	3758.90
431.10	3789.33
431.28	3953.16
431.47	4091.26
431.66	4086.58
431.85	3936.78
432.03	4098.28
432.22	3885.29
432.41	4100.62
432.60	4079.55
432.79	4131.05
432.97	4208.28
433.16	4128.70
433.35	4161.47
433.54	3978.91
433.72	4170.83
433.91	4294.88
434.10	4222.33
434.28	4227.01
434.47	4320.63
434.66	4222.33
434.85	4346.37
435.03	4395.53
435.22	4287.86
435.41	4428.29
435.59	4484.47
435.78	4397.87
435.97	4329.99
436.16	4325.31
436.34	4442.34
436.53	4442.34
436.72	4440.00
436.90	4383.82
437.09	4589.79
437.28	4423.61
437.46	4337.01
437.65	4390.84
437.84	4552.34
438.02	4540.64
438.21	4636.60
438.40	4578.09
438.58	4877.68
438.77	4713.84
438.96	4737.24
439.14	4835.55
439.33	4858.95
439.52	4999.38
439.70	4882.36
439.89	5018.11
440.08	5088.32
440.26	4868.31
440.45	5055.56
440.63	5062.58
440.82	5291.95
441.01	5191.31
441.19	5167.90
441.38	5441.75
441.57	5266.21
441.75	5221.74
441.94	5472.17
442.12	5350.46
442.31	5547.07
442.50	5462.81
442.68	5617.29
442.87	5526.00
443.05	5614.95
443.24	5575.16
443.43	5650.05
443.61	5584.52
443.80	5671.12
443.98	5577.50
444.17	5469.83
444.35	5563.45
444.54	5610.26
444.73	5561.11
444.91	5575.16
445.10	5729.63
445.28	5572.82
445.47	5722.61
445.65	5654.73
445.84	5671.12
446.02	5694.52
446.21	5647.71
446.39	5767.08
446.58	5846.66
446.77	5746.02
446.95	5746.02
447.14	5734.31
447.32	5841.98
447.51	5762.40
447.69	5870.06
447.88	5809.21
448.06	5884.11
448.25	5851.34
448.43	6024.54
448.62	5947.30
448.80	5830.27
448.99	5926.24
449.17	6001.13
449.36	5832.62
449.54	6129.86
449.73	5951.98
449.91	6197.74
450.10	6132.20
450.28	6359.24
450.46	6148.59
450.65	6197.74
450.83	6263.27
451.02	6197.74
451.20	6380.30
451.39	6249.23
451.57	6242.21
451.76	6216.46
451.94	6249.23
452.13	6246.89
452.31	6141.57
452.49	6108.80
452.68	6157.95
452.86	6207.10
453.05	6406.05
453.23	6356.90
453.42	6532.44
453.60	6232.85
453.78	6441.15
453.97	6394.34
454.15	6326.47
454.34	6396.68
454.52	6469.24
454.70	6590.95
454.89	6682.23
455.07	6672.87
455.26	6661.16
455.44	6904.58
455.62	6712.66
455.81	6855.43
455.99	6724.36
456.17	6965.43
456.36	6733.72
456.54	6998.20
456.73	6925.65
456.91	7145.66
457.09	7021.61
457.28	7201.83
457.46	6956.07
457.64	7192.47
457.83	6965.43
458.01	7073.10
458.19	7087.14
458.38	7082.46
458.56	7346.94
458.74	7248.64
458.93	7030.97
459.11	7218.21
459.29	7110.55
459.48	7194.81
459.66	7190.13
459.84	7470.99
460.03	7492.05
460.21	7485.03
460.39	7293.11
460.57	7489.71
460.76	7487.37
460.94	7452.27
461.12	7499.08
461.31	7651.21
461.49	7679.30
461.67	7581.00
461.85	7632.49
462.04	7478.01
462.22	8114.64
462.40	7803.35
462.59	7887.61
462.77	7880.58
462.95	7843.14
463.13	7815.05
463.32	7880.58
463.50	7772.92
463.68	7971.86
463.86	7810.37
464.05	7859.52
464.23	7728.45
464.41	7943.78
464.59	7763.56
464.78	8196.56
464.96	8079.53
465.14	7946.12
465.32	8231.66
465.50	8168.47
465.69	8182.51
465.87	8114.64
466.05	8030.38
466.23	8107.62
466.41	8042.08
466.60	8081.87
466.78	8056.12
466.96	7997.61
467.14	8313.58
467.32	8355.71
467.51	8346.35
467.69	8124.00
467.87	8095.91
468.05	8238.69
468.23	8212.94
468.41	8411.89
468.60	8498.49
468.78	8341.67
468.96	8351.03
469.14	8690.41
469.32	8601.47
469.50	8278.47
469.69	8451.67
469.87	8662.32
470.05	8835.52
470.23	8634.24
470.41	8875.31
470.59	8755.94
470.77	8702.11
470.95	8987.66
471.14	8959.57
471.32	8636.58
471.50	8980.64
471.68	9088.30
471.86	8978.30
472.04	9195.96
472.22	9270.86
472.40	9132.77
472.58	9121.07
472.77	9170.22
472.95	9184.26
473.13	9525.98
473.31	9355.12
473.49	9366.82
473.67	9486.19
473.85	9551.73
474.03	9657.05
474.21	9591.52
474.39	9685.14
474.57	9731.95
474.75	10052.60
474.93	9771.74
475.12	9830.25
475.30	10040.90
475.48	9923.87
475.66	9879.40
475.84	9841.95
476.02	10127.50
476.20	10047.92
476.38	10230.48
476.56	10265.59
476.74	10333.47
476.92	10408.36
477.10	10623.69
477.28	10422.41
477.46	10520.71
477.64	10803.91
477.82	10949.03
478.00	11154.99
478.18	11250.96
478.36	10986.47
478.54	11077.76
478.72	11239.25
478.90	11616.08
479.08	11295.43
479.26	11557.57
479.44	11412.45
479.62	11686.29
479.80	11609.06
479.98	11901.62
480.16	11927.37
480.34	12105.25
480.52	12241.00
480.70	12362.71
480.88	12166.10
481.06	12098.23
481.24	12264.41
481.41	12648.26
481.59	12727.83
481.77	12545.27
481.95	12821.45
482.13	12814.43
482.31	13118.70
482.49	13135.09
482.67	13483.83
482.85	13359.78
483.03	13532.98
483.21	13420.63
483.39	13448.72
483.57	13518.93
483.74	13469.78
483.92	13837.25
484.10	13823.20
484.28	14441.11
484.46	14113.43
484.64	14473.87
484.82	14331.10
485.00	14293.65
485.18	14534.73
485.35	14939.64
485.53	14581.54
485.71	14869.42
485.89	15016.88
486.07	14822.61
486.25	15150.29
486.43	15262.63
486.61	15325.83
486.78	15524.77
486.96	15489.67
487.14	16133.31
487.32	15896.92
487.50	16063.10
487.68	16219.91
487.85	16381.41
488.03	16259.70
488.21	16538.23
488.39	16671.64
488.57	16779.30
488.75	16931.44
488.92	17008.67
489.10	17521.25
489.28	17338.69
489.46	17319.96
489.64	17439.33
489.81	17802.11
489.99	18164.90
490.17	18118.09
490.35	18249.16
490.53	18059.57
490.70	17888.71
490.88	18375.55
491.06	18850.67
491.24	18752.37
491.41	18834.29
491.59	18773.44
491.77	18628.32
491.95	19138.56
492.13	19101.11
492.30	19293.04
492.48	19335.17
492.66	19538.79
492.84	19646.46
493.01	19599.65
493.19	19800.93
493.37	20039.67
493.54	19829.02
493.72	20297.13
493.90	20655.23
494.08	20624.80
494.25	20903.32
494.43	20786.30
494.61	21104.61
494.79	20938.43
494.96	20919.71
495.14	21247.38
495.32	21317.60
495.49	21451.01
495.67	21481.44
495.85	21348.03
496.02	21303.56
496.20	21869.97
496.38	21774.00
496.55	21848.90
496.73	22532.34
496.91	22115.72
497.09	22490.21
497.26	22614.26
497.44	22693.83
497.62	22464.46
497.79	22717.24
497.97	23164.28
498.14	23049.60
498.32	23393.65
498.50	23077.68
498.67	23384.29
498.85	23318.76
499.03	23477.91
499.20	23414.72
499.38	23878.15
499.56	23880.49
499.73	23974.11
499.91	24086.45
500.08	23936.66
500.26	23601.96
500.44	23903.89
500.61	23924.96
500.79	24147.31
500.97	24353.27
501.14	24596.69
501.32	24844.79
501.49	24856.49
501.67	24552.22
501.84	24917.34
502.02	25060.12
502.20	25165.44
502.37	25326.94
502.55	25193.53
502.72	25401.83
502.90	25380.77
503.07	25036.71
503.25	25600.78
503.43	25614.82
503.60	26111.02
503.78	25570.35
503.95	25874.62
504.13	25642.91
504.30	26171.87
504.48	25809.09
504.65	26410.60
504.83	26436.35
505.01	26221.02
505.18	25888.67
505.36	26728.92
505.53	26979.36
505.71	26518.27
505.88	26836.58
506.06	26801.47
506.23	26890.41
506.41	27201.71
506.58	27175.96
506.76	26827.22
506.93	27314.05
507.11	27292.99
507.28	27435.76
507.46	27091.70
507.63	27201.71
507.81	27566.83
507.98	27304.69
508.16	27665.13
508.33	28051.32
508.50	27868.76
508.68	28041.96
508.85	28353.25
509.03	27988.13
509.20	28208.14
509.38	28142.60
509.55	28301.76
509.73	28545.17
509.90	28374.31
510.08	28629.43
510.25	28603.69
510.42	28751.14
510.60	28423.47
510.77	28917.32
510.95	29212.23
511.12	28779.23
511.30	28772.21
511.47	29333.93
511.64	29607.78
511.82	29476.71
511.99	29404.15
512.17	29539.90
512.34	29317.55
512.51	29429.90
512.69	30253.76
512.86	29788.00
513.04	29916.73
513.21	30162.48
513.38	30003.33
513.56	30064.18
513.73	29991.62
513.90	30251.42
514.08	30150.78
514.25	30433.99
514.43	30391.86
514.60	30157.80
514.77	30469.09
514.95	30848.26
515.12	30604.84
515.29	30501.86
515.47	31026.14
515.64	31047.21
515.81	30883.37
515.99	31421.69
516.16	30932.52
516.33	30752.30
516.51	31112.74
516.68	31037.84
516.85	31168.91
517.03	31346.79
517.20	31356.16
517.37	31253.17
517.54	31597.23
517.72	31531.70
517.89	31728.30
518.06	31538.72
518.24	31632.34
518.41	31461.48
518.58	31559.78
518.75	31875.76
518.93	32224.50
519.10	32016.19
519.27	32299.39
519.45	32397.70
519.62	32210.45
519.79	32360.25
519.96	32507.70
520.14	33034.32
520.31	32451.53
520.48	32816.65
520.65	32421.10
520.83	33017.94
521.00	32809.63
521.17	32624.73
521.34	33436.89
521.52	33376.04
521.69	33219.22
521.86	33558.60
522.03	33081.13
522.20	33305.82
522.38	33673.29
522.55	33692.01
522.72	33472.00
522.89	33502.43
523.07	33818.40
523.24	34319.28
523.41	34026.71
523.58	33319.87
523.75	34136.71
523.92	34073.52
524.10	34164.80
524.27	34396.51
524.44	34675.04
524.61	34382.47
524.78	34703.12
524.96	34602.48
525.13	34698.44
525.30	34817.81
525.47	34635.25
525.64	35030.80
525.81	34740.57
525.98	34958.24
526.16	34440.98
526.33	34565.03
526.50	34822.49
526.67	34902.07
526.84	34665.67
527.01	34668.02
527.18	35379.54
527.36	35323.36
527.53	35407.62
527.70	35683.81
527.87	35407.62
528.04	35412.31
528.21	35576.14
528.38	35807.86
528.55	35351.45
528.72	36194.04
528.89	35744.66
529.07	36006.80
529.24	35782.11
529.41	35847.64
529.58	35906.16
529.75	35833.60
529.92	35931.90
530.09	36044.25
530.26	36453.84
530.43	35988.08
530.60	36100.42
530.77	36095.74
530.94	36343.84
531.11	36135.53
531.28	36549.81
531.46	36397.67
531.63	36809.61
531.80	36533.42
531.97	36563.85
532.14	36961.74
532.31	36524.06
532.48	36631.72
532.65	37291.76
532.82	36767.48
532.99	36847.05
533.16	36615.34
533.33	37258.99
533.50	37017.91
533.67	36975.78
533.84	37172.39
534.01	37153.66
534.18	37289.42
534.35	37244.94
534.52	37205.16
534.69	37703.69
534.86	37818.38
535.03	37394.74
535.20	37443.89
535.37	37855.82
535.54	37954.13
535.71	37872.21
535.88	38092.22
536.05	38054.77
536.22	38124.99
536.38	38036.05
536.55	38134.35
536.72	37961.15
536.89	37600.71
537.06	37759.86
537.23	37944.76
537.40	38335.63
537.57	37984.55
537.74	37687.31
537.91	38555.64
538.08	38213.93
538.25	37989.24
538.42	38438.62
538.59	38714.80
538.75	38396.49
538.92	38300.53
539.09	38951.20
539.26	38749.91
539.43	38670.33
539.60	38845.87
539.77	38298.19
539.94	38897.36
540.11	38595.43
540.28	38595.43
540.44	38789.70
540.61	38787.36
540.78	38574.37
540.95	38948.85
541.12	38787.36
541.29	38841.19
541.46	38880.98
541.62	39374.83
541.79	39629.95
541.96	38967.58
542.13	39346.75
542.30	38995.67
542.47	39440.37
542.63	39622.93
542.80	39585.48
542.97	39573.78
543.14	39978.69
543.31	39866.34
543.48	39737.62
543.64	40294.66
543.81	40020.82
543.98	39861.66
544.15	39782.09
544.32	40201.04
544.48	40425.73
544.65	40545.10
544.82	40350.84
544.99	39835.92
545.16	40435.10
545.32	39875.71
545.49	40458.50
545.66	40212.74
545.83	40559.14
546.00	40769.79
546.16	39838.26
546.33	40407.01
546.50	40259.55
546.67	40732.34
546.83	40388.28
547.00	40650.42
547.17	40582.55
547.34	40573.19
547.50	40730.00
547.67	40985.12
547.84	40804.90
548.00	40842.35
548.17	40884.48
548.34	40744.05
548.51	41083.42
548.67	40982.78
548.84	40797.88
549.01	40701.92
549.18	41057.68
549.34	40917.25
549.51	41317.48
549.68	40968.74
549.84	41270.67
550.01	41364.29
550.18	41036.61
550.34	41317.48
550.51	41357.27
550.68	40907.88
550.84	40500.63
551.01	41303.43
551.18	41298.75
551.34	41476.63
551.51	41567.91
551.68	41237.90
551.84	41687.28
552.01	41521.10
552.18	41785.58
552.34	41294.07
552.51	41668.56
552.68	41736.43
552.84	42078.15
553.01	42197.52
553.18	42148.37
553.34	41982.19
553.51	41567.91
553.67	41738.77
553.84	42054.75
554.01	42319.23
554.17	41977.51
554.34	42497.11
554.51	42520.51
554.67	42401.14
554.84	41961.12
555.00	41923.68
555.17	41862.82
555.33	42557.96
555.50	42295.82
555.67	42141.35
555.83	42419.87
556.00	42059.43
556.16	42756.91
556.33	42787.33
556.50	42433.91
556.66	42387.10
556.83	42412.85
556.99	42586.05
557.16	42319.23
557.32	42490.09
557.49	42398.80
557.65	42323.91
557.82	42665.63
557.98	42272.42
558.15	42581.37
558.32	42614.13
558.48	42326.25
558.65	42560.30
558.81	42656.26
558.98	42621.16
559.14	42361.36
559.31	42277.10
559.47	42696.05
559.64	43049.47
559.80	42752.23
559.97	42993.30
560.13	42679.67
560.30	42843.51
560.46	42600.09
560.63	42904.36
560.79	43110.33
560.96	43241.40
561.12	43236.72
561.29	43131.39
561.45	42808.40
561.61	42946.49
561.78	42829.46
561.94	42895.00
562.11	43196.93
562.27	42925.42
562.44	42871.59
562.60	43447.36
562.77	43325.66
562.93	43299.91
563.10	43012.02
563.26	42689.03
563.42	43608.86
563.59	42595.41
563.75	43400.55
563.92	43225.01
564.08	43295.23
564.24	43405.23
564.41	43384.17
564.57	43569.07
564.74	43690.78
564.90	43606.52
565.07	43400.55
565.23	43508.22
565.39	43393.53
565.56	43297.57
565.72	43203.95
565.88	43440.34
566.05	43599.50
566.21	43482.47
566.38	43625.25
566.54	43475.45
566.70	43643.97
566.87	43849.94
567.03	43489.49
567.19	43679.08
567.36	43786.74
567.52	43356.08
567.68	43583.12
567.85	43796.10
568.01	43634.61
568.17	43632.27
568.34	43658.01
568.50	43847.60
568.66	43924.83
568.83	43737.59
568.99	43292.89
569.15	43533.96
569.32	43379.49
569.48	43435.66
569.64	44112.08
569.81	43606.52
569.97	43854.62
570.13	43262.46
570.30	43463.75
570.46	43461.41
570.62	43325.66
570.78	43421.62
570.95	43578.43
571.11	44107.40
571.27	43856.96
571.43	43550.35
571.60	43608.86
571.76	43775.04
571.92	43552.69
572.09	43871.00
572.25	43550.35
572.41	43604.18
572.57	44147.18
572.74	44203.36
572.90	43983.35
573.06	43590.14
573.22	43714.19
573.38	43627.59
573.55	43658.01
573.71	44154.21
573.87	43840.57
574.03	43515.24
574.20	43585.46
574.36	43910.79
574.52	44055.90
574.68	43826.53
574.84	43742.27
575.01	44002.07
575.17	43952.92
575.33	43863.98
575.49	43878.02
575.65	44311.02
575.82	43990.37
575.98	44114.42
576.14	44055.90
576.30	44470.18
576.46	44179.95
576.62	43274.16
576.79	43805.47
576.95	43751.63
577.11	44034.84
577.27	43906.11
577.43	44149.53
577.59	44381.24
577.75	43779.72
577.92	43826.53
578.08	43852.28
578.24	43494.18
578.40	43985.69
578.56	44041.86
578.72	44067.61
578.88	44069.95
579.04	43482.47
579.21	44158.89
579.37	44013.77
579.53	44025.48
579.69	43763.34
579.85	44112.08
580.01	43871.00
580.17	43990.37
580.33	44465.50
580.49	44100.37
580.65	44060.58
580.82	44371.88
580.98	44182.29
581.14	43913.13
581.30	44547.42
581.46	43711.84
581.62	44346.13
581.78	44296.98
581.94	44264.21
582.10	44409.32
582.26	44208.04
582.42	44123.78
582.58	44060.58
582.74	44072.29
582.90	44142.50
583.06	44577.84
583.22	44367.20
583.38	44357.83
583.54	44175.27
583.70	44285.28
583.86	44126.12
584.02	43849.94
584.18	44652.74
584.34	44257.19
584.50	44144.84
584.66	44105.06
584.82	43878.02
584.98	44093.35
585.14	44224.42
585.30	44142.50
585.46	44348.47
585.62	44126.12
585.78	44100.37
585.94	43660.35
586.10	43899.09
586.26	43899.09
586.42	44252.51
586.58	44409.32
586.74	44502.95
586.90	44009.09
587.06	43824.19
587.22	43859.30
587.38	43812.49
587.54	44484.22
587.70	44601.25
587.86	44512.31
588.02	44226.76
588.18	44306.34
588.34	44245.49
588.49	44203.36
588.65	43845.26
588.81	43878.02
588.97	43906.11
589.13	43945.90
589.29	44224.42
589.45	44163.57
589.61	44315.70
589.77	44308.68
589.93	44687.85
590.08	44334.43
590.24	44521.67
590.40	45106.80
590.56	44327.41
590.72	44531.03
590.88	44201.02
591.04	44430.39
591.20	44575.50
591.35	44699.55
591.51	44669.12
591.67	44636.36
591.83	44308.68
591.99	44617.63
592.15	44374.22
592.31	44467.84
592.46	44184.63
592.62	44182.29
592.78	44610.61
592.94	44641.04
593.10	44774.45
593.26	44481.88
593.41	44430.39
593.57	44776.79
593.73	44481.88
593.89	44465.50
594.05	44360.17
594.20	44404.64
594.36	44673.81
594.52	44933.60
594.68	44549.76
594.84	44458.48
594.99	44861.05
595.15	44952.33
595.31	44910.20
595.47	44746.36
595.62	44626.99
595.78	44458.48
595.94	45092.76
596.10	45062.33
596.25	44568.48
596.41	44975.73
596.57	44568.48
596.73	44584.86
596.88	44601.25
597.04	44266.55
597.20	44802.53
597.36	44708.91
597.51	44753.38
597.67	44659.76
597.83	44549.76
597.99	44989.78
598.14	44453.79
598.30	44893.82
598.46	44643.38
598.61	44456.14
598.77	44701.89
598.93	44765.09
599.09	44605.93
599.24	44961.69
599.40	44837.64
599.56	44666.78
599.71	44931.26
599.87	45338.52
600.03	44732.32
600.18	44655.08
600.34	44561.46
600.50	44823.60
600.65	44308.68
600.81	44802.53
600.97	44935.95
601.12	45324.47
601.28	44839.98
601.44	44219.74
601.59	44601.25
601.75	44271.23
601.91	44701.89
602.06	44018.46
602.22	44547.42
602.37	44404.64
602.53	44545.08
602.69	45680.24
602.84	45036.59
603.00	44266.55
603.16	44713.59
603.31	44479.54
603.47	44355.49
603.62	44416.35
603.78	44715.93
603.94	45184.04
604.09	44797.85
604.25	44697.21
604.40	44575.50
604.56	44942.97
604.71	44484.22
604.87	44381.24
605.03	44210.38
605.18	44612.95
605.34	44776.79
605.49	44208.04
605.65	44385.92
605.80	44797.85
605.96	44378.90
606.12	44837.64
606.27	44828.28
606.43	44453.79
606.58	44617.63
606.74	44320.38
606.89	44404.64
607.05	44308.68
607.20	44601.25
607.36	44439.75
607.51	44884.45
607.67	44694.87
607.82	44100.37
607.98	44320.38
608.13	44568.48
608.29	44215.06
608.44	44158.89
608.60	43922.49
608.75	43995.05
608.91	43995.05
609.06	44140.16
609.22	44327.41
609.37	44268.89
609.53	44538.05
609.68	44149.53
609.84	44219.74
609.99	44339.11
610.15	43838.23
610.30	43824.19
610.46	44144.84
610.61	43643.97
610.76	44030.16
610.92	44243.15
611.07	43732.91
611.23	44013.77
611.38	44074.63
611.54	43938.88
611.69	43999.73
611.84	43969.30
612.00	43859.30
612.15	44128.46
612.31	44009.09
612.46	43854.62
612.62	44259.53
612.77	43761.00
612.92	44261.87
613.08	43866.32
613.23	43840.57
613.39	43772.70
613.54	43519.92
613.69	43941.22
613.85	43739.93
614.00	44051.22
614.15	43810.15
614.31	43634.61
614.46	43920.15
614.62	44025.48
614.77	43353.74
614.92	43281.19
615.08	43440.34
615.23	43655.67
615.38	43852.28
615.54	43583.12
615.69	43398.21
615.84	43107.99
616.00	43349.06
616.15	43629.93
616.30	43784.40
616.46	43255.44
616.61	43290.55
616.76	43398.21
616.92	43147.78
617.07	43332.68
617.22	43351.40
617.37	43077.56
617.53	43519.92
617.68	43264.80
617.83	43248.42
617.99	43779.72
618.14	43335.02
618.29	42747.54
618.45	43428.64
618.60	43012.02
618.75	43049.47
618.90	43239.06
619.06	43304.59
619.21	43267.14
619.36	43636.95
619.51	42913.72
619.67	43173.52
619.82	43346.72
619.97	43313.95
620.12	42789.67
620.28	42508.81
620.43	42686.69
620.58	42541.58
620.73	42724.14
620.89	42883.30
621.04	42267.73
621.19	42768.61
621.34	42780.31
621.49	42745.20
621.65	42373.06
621.80	42920.74
621.95	42368.38
622.10	42703.07
622.25	42806.06
622.41	42146.03
622.56	42623.50
622.71	42527.53
622.86	42600.09
623.01	42211.56
623.16	42401.14
623.32	42534.56
623.47	42501.79
623.62	43005.00
623.77	42536.90
623.92	42279.44
624.07	42422.21
624.23	42047.72
624.38	41904.95
624.53	42134.32
624.68	42256.03
624.83	42513.49
624.98	42307.52
625.13	42199.86
625.29	41937.72
625.44	42134.32
625.59	42059.43
625.74	41539.83
625.89	41394.71
626.04	41448.55
626.19	41893.25
626.34	41804.31
626.49	41780.90
626.65	41816.01
626.80	42045.38
626.95	41851.12
627.10	41984.53
627.25	41141.94
627.40	41631.11
627.55	41163.00
627.70	41408.76
627.85	41202.79
628.00	41535.15
628.15	41701.32
628.30	41663.88
628.45	41956.44
628.60	41736.43
628.76	41656.85
628.91	41701.32
629.06	41818.35
629.21	41434.50
629.36	41315.14
629.51	40966.40
629.66	41097.47
629.81	41013.21
629.96	41383.01
630.11	41036.61
630.26	41450.89
630.41	41226.20
630.56	41200.45
630.71	41399.40
630.86	40828.30
631.01	40931.29
631.16	41270.67
631.31	40840.01
631.46	40158.91
631.61	40912.56
631.76	41165.34
631.91	41174.70
632.06	41088.10
632.21	41029.59
632.36	41113.85
632.51	40741.71
632.66	40872.78
632.81	40261.90
632.96	40917.25
633.10	40631.70
633.25	40711.28
633.40	40765.11
633.55	40891.50
633.70	40292.32
633.85	40643.40
634.00	40917.25
634.15	40371.90
634.30	40519.35
634.45	39969.33
634.60	40701.92
634.75	40383.60
634.90	40275.94
635.05	39995.07
635.19	40201.04
635.34	40388.28
635.49	40100.40
635.64	40428.07
635.79	40203.38
635.94	40289.98
636.09	40631.70
636.24	40304.02
636.39	39761.02
636.53	39475.48
636.68	39896.77
636.83	39814.85
636.98	39941.24
637.13	39627.61
637.28	40247.85
637.43	40226.79
637.57	40507.65
637.72	39831.24
637.87	39990.39
638.02	39866.34
638.17	40037.20
638.32	39716.55
638.46	39498.88
638.61	39683.78
638.76	39452.07
638.91	39917.84
639.06	39566.76
639.20	39976.35
639.35	39882.73
639.50	39393.56
639.65	39482.50
639.80	39896.77
639.94	39651.02
640.09	39938.90
640.24	39768.04
640.39	39328.02
640.54	39571.44
640.68	39421.64
640.83	39646.33
640.98	39096.31
641.13	39407.60
641.27	39494.20
641.42	39466.11
641.57	39335.04
641.72	39356.11
641.86	39119.71
642.01	39143.12
642.16	39192.27
642.31	38639.90
642.45	39063.54
642.60	38918.43
642.75	38869.28
642.90	38712.46
643.04	38855.23
643.19	38904.38
643.34	39299.94
643.48	38953.54
643.63	39086.95
643.78	38937.15
643.93	38785.02
644.07	38174.14
644.22	38773.31
644.37	38635.22
644.51	38415.21
644.66	39098.65
644.81	38969.92
644.95	39023.75
645.10	38967.58
645.25	38799.06
645.39	38693.74
645.54	38511.17
645.69	38754.59
645.83	38288.82
645.98	38370.74
646.13	38541.60
646.27	38635.22
646.42	38277.12
646.57	38581.39
646.71	38670.33
646.86	38909.07
647.00	38981.62
647.15	38693.74
647.30	38712.46
647.44	38487.77
647.59	38368.40
647.74	37942.42
647.88	38380.10
648.03	38361.38
648.17	38309.89
648.32	38010.30
648.47	38000.94
648.61	38167.12
648.76	38160.09
648.90	38277.12
649.05	38326.27
649.20	37900.29
649.34	38326.27
649.49	38073.49
649.63	38160.09
649.78	38143.71
649.92	38230.31
650.07	38422.23
650.21	37436.87
650.36	38291.16
650.51	37570.28
650.65	38124.99
650.80	38291.16
650.94	38270.10
651.09	38092.22
651.23	37806.67
651.38	37631.13
651.52	37668.58
651.67	37823.06
651.81	37708.37
651.96	37331.54
652.10	37460.27
652.25	37387.72
652.39	37631.13
652.54	37394.74
652.68	37509.43
652.83	37460.27
652.97	37376.01
653.12	37558.58
653.26	37497.72
653.41	37333.89
653.55	37294.10
653.70	37085.79
653.84	37240.26
653.99	37331.54
654.13	37144.30
654.27	37563.26
654.42	37284.73
654.56	37123.24
654.71	37249.63
654.85	36980.46
655.00	37521.13
655.14	36779.18
655.29	36627.04
655.43	36776.84
655.57	36730.03
655.72	36631.72
655.86	36580.23
656.01	36830.67
656.15	36573.21
656.30	36453.84
656.44	36917.27
656.58	36467.89
656.73	36898.55
656.87	36259.58
657.01	36348.52
657.16	36884.50
657.30	36231.49
657.45	36533.42
657.59	36304.05
657.73	36460.87
657.88	36397.67
658.02	36205.75
658.16	36400.01
658.31	36580.23
658.45	36533.42
658.60	36168.30
658.74	36266.60
658.88	36573.21
659.03	36023.19
659.17	35936.59
659.31	36077.02
659.46	35983.40
659.60	36067.66
659.74	35807.86
659.89	35754.02
660.03	35798.49
660.17	35831.26
660.32	35880.41
660.46	36460.87
660.60	35885.09
660.74	35770.41
660.89	35985.74
661.03	35306.98
661.17	35377.20
661.32	35501.25
661.46	35349.11
661.60	35281.24
661.74	35236.77
661.89	35026.12
662.03	35704.87
662.17	35892.12
662.31	34883.34
662.46	35398.26
662.60	35218.04
662.74	35171.23
662.88	34630.57
663.03	35424.01
663.17	35000.37
663.31	34529.92
663.45	34756.96
663.60	34787.38
663.74	34279.49
663.88	34480.77
664.02	34745.25
664.17	34450.35
664.31	34333.32
664.45	34728.87
664.59	34803.77
664.73	34583.76
664.88	34733.55
665.02	34298.21
665.16	34206.93
665.30	34347.36
665.44	34000.96
665.59	33724.78
665.73	34115.65
665.87	33890.96
666.01	33645.20
666.15	34036.07
666.29	34059.48
666.44	33766.91
666.58	33888.62
666.72	33729.46
666.86	33902.66
667.00	34110.97
667.14	33926.07
667.28	33640.52
667.43	33621.80
667.57	33495.41
667.71	33109.22
667.85	33345.61
667.99	33287.10
668.13	32870.48
668.27	33359.66
668.41	33486.04
668.56	33134.96
668.70	32779.20
668.84	32868.14
668.98	33200.50
669.12	32809.63
669.26	32929.00
669.40	32788.56
669.54	32753.46
669.68	32903.25
669.82	32437.48
669.96	32517.06
670.10	32524.08
670.25	32844.74
670.39	32439.82
670.53	32486.64
670.67	31983.42
670.81	32383.65
670.95	32486.64
671.09	32320.46
671.23	32287.69
671.37	32290.03
671.51	32037.25
671.65	32027.89
671.79	31571.49
671.93	31845.33
672.07	31814.90
672.21	31894.48
672.35	31491.91
672.49	31517.65
672.63	31679.15
672.77	31590.21
672.91	31519.99
673.05	31512.97
673.19	30888.05
673.33	30684.42
673.47	31255.51
673.61	31248.49
673.75	30644.63
673.89	30745.28
674.03	30799.11
674.17	30876.35
674.31	30632.93
674.45	30703.15
674.59	30595.48
674.73	31049.55
674.87	30782.73
675.01	30497.18
675.15	30291.21
675.29	30698.47
675.43	30377.81
675.56	30309.94
675.70	30443.35
675.84	29975.24
675.98	29123.29
676.12	29670.97
676.26	29729.48
676.40	29888.64
676.54	29621.82
676.68	29617.14
676.82	29378.40
676.96	29060.09
677.10	29249.67
677.23	29071.79
677.37	29310.53
677.51	29263.72
677.65	28924.34
677.79	28437.51
677.93	28620.07
678.07	28430.49
678.21	28723.05
678.34	28709.01
678.48	28142.60
678.62	28287.71
678.76	28271.33
678.90	27833.65
679.04	28053.66
679.18	28144.94
679.31	27934.29
679.45	27613.64
679.59	27583.21
679.73	27356.18
679.87	27468.53
680.00	27583.21
680.14	27447.46
680.28	27445.12
680.42	27012.12
680.56	27225.11
680.70	26930.20
680.83	27197.02
680.97	26639.98
681.11	26916.16
681.25	26436.35
681.39	26654.02
681.52	26698.49
681.66	26506.57
681.80	26492.52
681.94	26150.81
682.07	26450.39
682.21	25811.43
682.35	25752.91
682.49	25773.98
682.62	26403.58
682.76	25963.56
682.90	25944.84
683.04	25919.09
683.17	25785.68
683.31	25479.07
683.45	25766.96
683.59	25483.75
683.72	25362.04
683.86	25039.05
684.00	24844.79
684.13	25120.97
684.27	25214.59
684.41	24716.06
684.55	25109.27
684.68	24458.60
684.82	24437.53
684.96	24498.39
685.09	24479.66
685.23	24233.91
685.37	24269.01
685.50	24386.04
685.64	24416.47
685.78	24355.61
685.91	24123.90
686.05	23789.20
686.19	23620.69
686.32	23597.28
686.46	23566.85
686.60	23061.30
686.73	23381.95
686.87	23208.75
687.01	23026.19
687.14	23028.53
687.28	22843.63
687.42	22946.61
687.55	22775.75
687.69	22726.60
687.82	22714.90
687.96	22885.76
688.10	22789.80
688.23	22518.29
688.37	22345.09
688.50	21916.78
688.64	22403.61
688.78	22363.82
688.91	21942.52
689.05	22080.61
689.18	22169.55
689.32	21570.38
689.46	21727.19
689.59	21729.53
689.73	22089.98
689.86	21706.13
690.00	21600.80
690.13	21266.11
690.27	21352.71
690.41	21273.13
690.54	20954.82
690.68	21085.89
690.81	21027.37
690.95	21158.44
691.08	20594.37
691.22	20760.55
691.35	20575.65
691.49	20702.04
691.62	20512.46
691.76	20400.11
691.89	20531.18
692.03	20276.06
692.16	20140.31
692.30	20154.35
692.43	20222.23
692.57	20046.69
692.70	19751.78
692.84	19470.92
692.97	19669.86
693.11	19426.45
693.24	19929.66
693.38	19566.88
693.51	19082.39
693.65	19543.47
693.78	19232.18
693.92	19414.74
694.05	19250.91
694.19	18934.93
694.32	19002.81
694.45	18883.44
694.59	18703.22
694.72	18546.40
694.86	18670.45
694.99	18511.30
695.13	18178.94
695.26	18401.29
695.39	18136.81
695.53	18171.92
695.66	18368.52
695.80	18281.92
695.93	18097.02
696.07	17844.24
696.20	18024.47
696.33	17804.46
696.47	17956.59
696.60	17511.89
696.73	17561.04
696.87	18066.60
697.00	17532.95
697.14	17523.59
697.27	17610.19
697.40	17544.66
697.54	17570.40
697.67	17144.42
697.80	17238.05
697.94	16828.45
698.07	16776.96
698.21	16863.56
698.34	16636.53
698.47	16713.77
698.61	16393.11
698.74	16423.54
698.87	16376.73
699.01	16182.46
699.14	16067.78
699.27	16322.90
699.40	16184.80
699.54	16002.24
699.67	16128.63
699.80	15990.54
699.94	15852.45
700.07	15882.88
700.20	15838.41
700.34	15667.55
700.47	15873.51
700.60	15751.81
700.73	15623.08
700.87	15517.75
701.00	15227.53
701.13	15365.62
701.26	15379.66
701.40	15279.02
701.53	15129.22
701.66	15157.31
701.79	15002.83
701.93	14883.47
702.06	14888.15
702.19	14642.39
702.32	14457.49
702.46	14700.90
702.59	14757.08
702.72	14366.21
702.85	14539.41
702.99	14630.69
703.12	14492.60
703.25	14553.45
703.38	14354.51
703.51	14216.41
703.65	14211.73
703.78	14022.15
703.91	13919.17
704.04	13778.73
704.17	13865.33
704.31	13792.78
704.44	13654.69
704.57	13668.73
704.70	13551.70
704.83	13425.31
704.96	13570.43
705.10	13614.90
705.23	13591.49
>>>>>End Processed Spectral Data<<<<<
