SpectraSuite Data File
++++++++++++++++++++++++++++++++++++
Date: Fri Oct 25 10:44:19 EDT 2013
User: price-jones
Dark Spectrum Present: No
Reference Spectrum Present: No
Number of Sampled Component Spectra: 1
Spectrometers: USB2+H05261
Integration Time (usec): 100000 (USB2+H05261)
Spectra Averaged: 1 (USB2+H05261)
Boxcar Smoothing: 0 (USB2+H05261)
Correct for Electrical Dark: No (USB2+H05261)
Strobe/Lamp Enabled: No (USB2+H05261)
Correct for Detector Non-linearity: No (USB2+H05261)
Correct for Stray Light: No (USB2+H05261)
Number of Pixels in Processed Spectrum: 2048
>>>>>Begin Processed Spectral Data<<<<<
365.73	147.45
365.92	147.45
366.12	147.45
366.32	70.22
366.52	14.04
366.72	65.54
366.91	58.51
367.11	0.00
367.31	2.34
367.51	0.00
367.70	0.00
367.90	53.83
368.10	63.19
368.30	112.35
368.49	70.22
368.69	65.54
368.89	79.58
369.09	35.11
369.28	65.54
369.48	77.24
369.68	105.32
369.87	23.41
370.07	112.35
370.27	63.19
370.47	241.08
370.66	341.72
370.86	482.15
371.06	418.96
371.25	468.11
371.45	416.62
371.65	465.77
371.84	447.04
372.04	507.90
372.24	491.51
372.44	496.19
372.63	531.30
372.83	505.56
373.03	465.77
373.22	540.66
373.42	535.98
373.62	571.09
373.81	496.19
374.01	559.39
374.21	552.37
374.40	601.52
374.60	526.62
374.79	575.77
374.99	510.24
375.19	543.00
375.38	657.69
375.58	592.16
375.78	622.58
375.97	589.82
376.17	575.77
376.37	662.37
376.56	744.29
376.76	634.29
376.95	624.92
377.15	592.16
377.35	620.24
377.54	709.18
377.74	608.54
377.93	636.63
378.13	634.29
378.33	697.48
378.52	624.92
378.72	627.26
378.91	620.24
379.11	617.90
379.31	603.86
379.50	674.07
379.70	702.16
379.89	690.46
380.09	699.82
380.28	748.97
380.48	795.78
380.68	716.20
380.87	739.61
381.07	713.86
381.26	702.16
381.46	671.73
381.65	746.63
381.85	704.50
382.04	723.23
382.24	681.10
382.43	669.39
382.63	681.10
382.83	798.12
383.02	685.78
383.22	709.18
383.41	725.57
383.61	816.85
383.80	772.38
384.00	723.23
384.19	896.43
384.39	791.10
384.58	854.30
384.78	788.76
384.97	873.02
385.17	744.29
385.36	863.66
385.56	741.95
385.75	777.06
385.95	695.14
386.14	952.60
386.34	826.21
386.53	840.25
386.72	830.89
386.92	894.08
387.11	880.04
387.31	873.02
387.50	840.25
387.70	947.92
387.89	898.77
388.09	1008.77
388.28	929.19
388.48	922.17
388.67	887.06
388.86	1027.50
389.06	1069.62
389.25	973.66
389.45	961.96
389.64	1022.81
389.84	1057.92
390.03	1064.94
390.22	1050.90
390.42	1074.31
390.61	997.07
390.81	1004.09
391.00	1086.01
391.19	1011.11
391.39	1111.75
391.58	1104.73
391.78	1050.90
391.97	1118.78
392.16	1076.65
392.36	1097.71
392.55	1083.67
392.75	987.71
392.94	983.02
393.13	1032.18
393.33	1090.69
393.52	1074.31
393.71	1121.12
393.91	1057.92
394.10	1170.27
394.29	1144.52
394.49	1177.29
394.68	1270.91
394.88	1160.91
395.07	1357.51
395.26	1261.55
395.46	1291.98
395.65	1224.10
395.84	1207.72
396.04	1401.98
396.23	1116.44
396.42	1191.33
396.62	1165.59
396.81	1310.70
397.00	1191.33
397.19	1310.70
397.39	1364.53
397.58	1425.39
397.77	1448.79
397.97	1458.15
398.16	1483.90
398.35	1514.33
398.55	1535.39
398.74	1523.69
398.93	1526.03
399.12	1561.14
399.32	1451.13
399.51	1535.39
399.70	1652.42
399.90	1591.56
400.09	1701.57
400.28	1750.72
400.47	1664.12
400.67	1715.61
400.86	1734.34
401.05	1762.42
401.24	1806.89
401.44	1816.26
401.63	1870.09
401.82	1732.00
402.01	1717.95
402.21	1755.40
402.40	1877.11
402.59	1820.94
402.78	1736.68
402.97	1783.49
403.17	1776.47
403.36	1834.98
403.55	1893.49
403.74	1879.45
403.93	1977.75
404.13	1856.04
404.32	1930.94
404.51	1923.92
404.70	2008.18
404.89	2003.50
405.09	1991.80
405.28	2078.40
405.47	1959.03
405.66	2099.46
405.85	2066.69
406.05	1994.14
406.24	2097.12
406.43	2211.81
406.62	2232.87
406.81	2160.31
407.00	2038.61
407.20	2050.31
407.39	2214.15
407.58	2197.76
407.77	2333.51
407.96	2225.85
408.15	2246.91
408.34	2256.28
408.54	2265.64
408.73	2394.37
408.92	2331.17
409.11	2431.82
409.30	2396.71
409.49	2338.20
409.68	2389.69
409.87	2321.81
410.07	2401.39
410.26	2354.58
410.45	2469.27
410.64	2490.33
410.83	2555.86
411.02	2663.53
411.21	2689.28
411.40	2752.47
411.59	2677.57
411.78	2708.00
411.98	2654.17
412.17	2595.65
412.36	2841.41
412.55	2736.09
412.74	2881.20
412.93	2745.45
413.12	2841.41
413.31	2979.50
413.50	2780.56
413.69	2888.22
413.88	3075.46
414.07	2958.44
414.26	2967.80
414.45	3030.99
414.64	3176.11
414.83	3136.32
415.02	3077.80
415.22	3190.15
415.41	3173.77
415.60	3136.32
415.79	3173.77
415.98	3286.11
416.17	3346.97
416.36	3262.71
416.55	3274.41
416.74	3304.84
416.93	3356.33
417.12	3361.01
417.31	3459.31
417.50	3463.99
417.69	3611.45
417.88	3585.70
418.07	3559.95
418.26	3538.89
418.45	3658.26
418.64	3651.24
418.83	3637.19
419.02	3623.15
419.21	3665.28
419.39	3681.66
419.58	3655.92
419.77	3627.83
419.96	3641.87
420.15	3803.37
420.34	3847.84
420.53	3887.63
420.72	3934.44
420.91	3960.19
421.10	4009.34
421.29	3948.48
421.48	3854.86
421.67	4065.51
421.86	3791.67
422.05	3948.48
422.24	3885.29
422.43	3749.54
422.61	3901.67
422.80	4072.53
422.99	4021.04
423.18	4086.58
423.37	4182.54
423.56	4004.66
423.75	4018.70
423.94	3983.59
424.13	3857.20
424.32	3964.87
424.50	4257.43
424.69	4100.62
424.88	4002.32
425.07	4060.83
425.26	4009.34
425.45	4124.02
425.64	4028.06
425.83	4159.13
426.01	4109.98
426.20	4070.19
426.39	4217.65
426.58	4112.32
426.77	4046.79
426.96	4077.21
427.15	4140.41
427.33	4234.03
427.52	4156.79
427.71	4386.16
427.90	4187.22
428.09	4180.20
428.28	4285.52
428.46	4255.09
428.65	4198.92
428.84	4479.79
429.03	4400.21
429.22	4170.83
429.40	4339.35
429.59	4198.92
429.78	3967.21
429.97	4049.13
430.16	4053.81
430.34	4386.16
430.53	4203.60
430.72	4259.78
430.91	4287.86
431.10	4559.36
431.28	4620.22
431.47	4882.36
431.66	4620.22
431.85	4674.05
432.03	4732.56
432.22	4737.24
432.41	4664.69
432.60	4690.43
432.79	4730.22
432.97	4828.53
433.16	4905.76
433.35	4786.40
433.54	4716.18
433.72	4746.61
433.91	4858.95
434.10	4959.60
434.28	4919.81
434.47	4940.87
434.66	4947.89
434.85	4950.23
435.03	4929.17
435.22	5116.41
435.41	5444.09
435.59	5158.54
435.78	5254.50
435.97	5210.03
436.16	5371.53
436.34	5284.93
436.53	5327.06
436.72	5458.13
436.90	5280.25
437.09	5364.51
437.28	5282.59
437.46	5357.49
437.65	5411.32
437.84	5521.32
438.02	5320.04
438.21	5188.97
438.40	5235.78
438.58	5413.66
438.77	5591.54
438.96	5577.50
439.14	5605.58
439.33	5919.21
439.52	5689.84
439.70	5874.74
439.89	5788.14
440.08	5827.93
440.26	5867.72
440.45	6080.71
440.63	5966.03
440.82	6057.31
441.01	6083.05
441.19	6169.65
441.38	6258.59
441.57	6256.25
441.75	6403.71
441.94	6450.52
442.12	6558.18
442.31	6541.80
442.50	6534.78
442.68	6410.73
442.87	6562.86
443.05	6614.35
443.24	6593.29
443.43	6616.69
443.61	6689.25
443.80	6764.15
443.98	6516.05
444.17	6345.19
444.35	6696.27
444.54	6813.30
444.73	6822.66
444.91	6703.29
445.10	6656.48
445.28	6789.89
445.47	6647.12
445.65	6663.51
445.84	6665.85
446.02	6773.51
446.21	6789.89
446.39	6738.40
446.58	6794.58
446.77	6902.24
446.95	6794.58
447.14	6949.05
447.32	6925.65
447.51	6930.33
447.69	6883.52
447.88	6906.92
448.06	6963.09
448.25	6895.22
448.43	6897.56
448.62	6860.11
448.80	6960.75
448.99	6890.54
449.17	7140.97
449.36	6920.96
449.54	7096.50
449.73	7279.07
449.91	7353.96
450.10	7236.94
450.28	7290.77
450.46	7370.35
450.65	7344.60
450.83	7562.27
451.02	7295.45
451.20	7403.11
451.39	7573.97
451.57	7431.20
451.76	7468.65
451.94	7272.04
452.13	7557.59
452.31	7407.80
452.49	7089.48
452.68	7470.99
452.86	7405.46
453.05	7522.48
453.23	7496.74
453.42	7452.27
453.60	7653.55
453.78	7712.07
453.97	7536.52
454.15	7681.64
454.34	7824.41
454.52	7971.86
454.70	7793.98
454.89	7833.77
455.07	7702.70
455.26	7971.86
455.44	8044.42
455.62	8074.85
455.81	8184.85
455.99	7920.37
456.17	8248.05
456.36	8011.65
456.54	8269.11
456.73	8222.30
456.91	8198.90
457.09	8297.20
457.28	8475.08
457.46	8210.60
457.64	8425.93
457.83	8234.00
458.01	8271.45
458.19	8358.05
458.38	8332.31
458.56	8636.58
458.74	8416.57
458.93	8393.16
459.11	8414.23
459.29	8514.87
459.48	8299.54
459.66	8449.33
459.84	8685.73
460.03	8830.84
460.21	8622.53
460.39	8800.41
460.57	8741.90
460.76	8877.65
460.94	9015.74
461.12	8847.22
461.31	9022.77
461.49	8910.42
461.67	8767.65
461.85	9025.11
462.04	9076.60
462.22	9348.10
462.40	9254.48
462.59	9006.38
462.77	9163.20
462.95	9172.56
463.13	9277.88
463.32	9261.50
463.50	9266.18
463.68	9266.18
463.86	9425.34
464.05	8954.89
464.23	9252.14
464.41	9200.65
464.59	8917.44
464.78	9418.32
464.96	9294.27
465.14	9263.84
465.32	9469.81
465.50	9584.49
465.69	9617.26
465.87	9380.87
466.05	9430.02
466.23	9441.72
466.41	9444.06
466.60	9816.21
466.78	9540.02
466.96	9511.94
467.14	9514.28
467.32	9811.53
467.51	9767.06
467.69	9755.35
467.87	9605.56
468.05	9790.46
468.23	9638.33
468.41	9497.89
468.60	9888.76
468.78	9961.32
468.96	9914.51
469.14	9984.73
469.32	10171.97
469.50	9565.77
469.69	9844.29
469.87	10080.69
470.05	10059.62
470.23	9956.64
470.41	10008.13
470.59	10225.80
470.77	10209.42
470.95	10190.69
471.14	10232.82
471.32	10244.52
471.50	10829.66
471.68	10455.17
471.86	10492.62
472.04	10768.80
472.22	10841.36
472.40	10693.91
472.58	10752.42
472.77	10530.07
472.95	10764.12
473.13	11267.34
473.31	11077.76
473.49	10799.23
473.67	10927.96
473.85	11007.54
474.03	11173.72
474.21	11147.97
474.39	11524.80
474.57	11267.34
474.75	11461.60
474.93	11639.48
475.12	11445.22
475.30	11604.38
475.48	11428.84
475.66	11538.84
475.84	11611.40
476.02	11887.58
476.20	11939.07
476.38	12030.35
476.56	12212.92
476.74	12006.95
476.92	12042.06
477.10	12241.00
477.28	12233.98
477.46	12423.56
477.64	12800.39
477.82	12870.61
478.00	13041.46
478.18	12989.97
478.36	12791.03
478.54	13020.40
478.72	13008.70
478.90	13121.04
479.08	13472.12
479.26	13750.65
479.44	13593.83
479.62	13696.82
479.80	13614.90
479.98	13717.88
480.16	14010.45
480.34	14017.47
480.52	14141.52
480.70	14370.89
480.88	14064.28
481.06	14417.70
481.24	14389.61
481.41	14576.86
481.59	14895.17
481.77	14623.67
481.95	14796.87
482.13	15016.88
482.31	14909.21
482.49	15468.60
482.67	15281.36
482.85	15468.60
483.03	15531.80
483.21	15625.42
483.39	15681.59
483.57	15707.34
483.74	15737.76
483.92	16065.44
484.10	15798.62
484.28	16042.03
484.46	16428.22
484.64	16730.15
484.82	16276.09
485.00	16858.88
485.18	16762.92
485.35	16840.15
485.53	16533.54
485.71	16659.93
485.89	16989.95
486.07	16926.75
486.25	17104.64
486.43	17268.47
486.61	17521.25
486.78	17837.22
486.96	17767.01
487.14	18300.65
487.32	18001.06
487.50	18473.85
487.68	18630.66
487.85	18679.82
488.03	18853.02
488.21	19150.26
488.39	18998.13
488.57	19161.97
488.75	19365.59
488.92	19852.42
489.10	19576.24
489.28	19924.98
489.46	20051.37
489.64	20093.50
489.81	20505.43
489.99	20610.76
490.17	20566.29
490.35	20954.82
490.53	21123.33
490.70	20814.38
490.88	21200.57
491.06	21680.38
491.24	21383.13
491.41	21329.30
491.59	21436.97
491.77	21259.09
491.95	21624.21
492.13	22260.84
492.30	21678.04
492.48	22249.13
492.66	22640.00
492.84	22544.04
493.01	22782.77
493.19	22672.77
493.37	22810.86
493.54	23108.11
493.72	23082.36
493.90	23454.51
494.08	23639.41
494.25	23728.35
494.43	23810.27
494.61	24151.99
494.79	24154.33
494.96	24032.62
495.14	23896.87
495.32	24472.64
495.49	24294.76
495.67	24315.83
495.85	24645.84
496.02	24835.42
496.20	24694.99
496.38	24950.11
496.55	25394.81
496.73	25872.28
496.91	25479.07
497.09	25631.21
497.26	25825.47
497.44	25940.16
497.62	25645.25
497.79	25764.62
497.97	25832.49
498.14	26174.21
498.32	26047.82
498.50	26181.23
498.67	26785.09
498.85	26801.47
499.03	27063.61
499.20	26918.50
499.38	26625.93
499.56	26810.84
499.73	27080.00
499.91	27147.87
500.08	27246.18
500.26	27112.77
500.44	27161.92
500.61	27388.95
500.79	27026.17
500.97	27332.78
501.14	27908.55
501.32	27538.74
501.49	27405.33
501.67	27852.38
501.84	28229.20
502.02	28353.25
502.20	27967.06
502.37	28510.07
502.55	28018.55
502.72	28664.54
502.90	28940.72
503.07	28725.39
503.25	28837.74
503.43	28793.27
503.60	28634.11
503.78	29046.05
503.95	28797.95
504.13	29076.48
504.30	29373.72
504.48	29713.10
504.65	29331.59
504.83	29916.73
505.01	29968.22
505.18	29696.72
505.36	30185.89
505.53	30134.40
505.71	30134.40
505.88	30555.69
506.06	30258.45
506.23	30333.34
506.41	30375.47
506.58	30431.65
506.76	30518.25
506.93	30504.20
507.11	30651.66
507.28	30504.20
507.46	30930.18
507.63	30656.34
507.81	30834.22
507.98	30740.60
508.16	31087.00
508.33	31058.91
508.50	31398.29
508.68	31538.72
508.85	31988.10
509.03	31625.32
509.20	32067.68
509.38	32023.21
509.55	31826.60
509.73	32011.51
509.90	32018.53
510.08	32173.00
510.25	32084.06
510.42	32189.39
510.60	32694.94
510.77	32769.84
510.95	32713.67
511.12	32460.89
511.30	32790.91
511.47	33031.98
511.64	32847.08
511.82	33612.43
511.99	32540.47
512.17	33373.70
512.34	32861.12
512.51	32989.85
512.69	33617.11
512.86	33329.23
513.04	33596.05
513.21	33394.76
513.38	33589.03
513.56	33638.18
513.73	33427.53
513.90	33645.20
514.08	33621.80
514.25	33652.22
514.43	33933.09
514.60	34338.00
514.77	34047.77
514.95	34450.35
515.12	34012.66
515.29	34225.65
515.47	35026.12
515.64	34969.94
515.81	34244.38
515.99	34588.44
516.16	34782.70
516.33	34660.99
516.51	34405.88
516.68	34110.97
516.85	34080.54
517.03	33895.64
517.20	34377.79
517.37	34693.76
517.54	34892.71
517.72	35002.71
517.89	34387.15
518.06	34864.62
518.24	35028.46
518.41	35388.90
518.58	34686.74
518.75	35400.60
518.93	35828.92
519.10	35536.35
519.27	36161.28
519.45	35950.63
519.62	36154.26
519.79	35988.08
519.96	36465.55
520.14	36404.69
520.31	35775.09
520.48	35871.05
520.65	36299.37
520.83	36657.47
521.00	37223.88
521.17	36105.10
521.34	36821.31
521.52	37172.39
521.69	36734.71
521.86	37404.10
522.03	36891.52
522.20	37060.04
522.38	36919.61
522.55	37226.22
522.72	37406.44
522.89	37146.64
523.07	37469.64
523.24	37294.10
523.41	37565.60
523.58	37523.47
523.75	38031.36
523.92	37820.72
524.10	38139.03
524.27	37876.89
524.44	37900.29
524.61	38213.93
524.78	38010.30
524.96	38019.66
525.13	38565.01
525.30	38181.16
525.47	38536.92
525.64	38586.07
525.81	38560.33
525.98	38335.63
526.16	38223.29
526.33	37809.01
526.50	38211.59
526.67	37982.21
526.84	38251.38
527.01	38178.82
527.18	38759.27
527.36	38761.61
527.53	38693.74
527.70	39220.36
527.87	39454.41
528.04	38682.03
528.21	39358.45
528.38	39555.05
528.55	39629.95
528.72	39744.64
528.89	39524.63
529.07	39517.60
529.24	39257.81
529.41	39210.99
529.58	39438.03
529.75	39847.62
529.92	39412.28
530.09	39873.37
530.26	40238.49
530.43	40240.83
530.60	40198.70
530.77	40179.98
530.94	40437.44
531.11	40002.10
531.28	40521.69
531.46	40685.53
531.63	40222.11
531.80	40184.66
531.97	40098.06
532.14	40119.12
532.31	40133.17
532.48	40112.10
532.65	40612.98
532.82	40034.86
532.99	40573.19
533.16	40622.34
533.33	40816.60
533.50	40840.01
533.67	40882.14
533.84	40722.98
534.01	40685.53
534.18	40641.06
534.35	41390.03
534.52	41125.55
534.69	40903.20
534.86	40868.09
535.03	40905.54
535.20	41633.45
535.37	41603.02
535.54	41820.69
535.71	41816.01
535.88	41420.46
536.05	41467.27
536.22	41830.05
536.38	41771.54
536.55	41689.62
536.72	41392.37
536.89	41549.19
537.06	41462.59
537.23	42103.90
537.40	41748.14
537.57	42155.39
537.74	41551.53
537.91	42330.93
538.08	41975.17
538.25	41766.86
538.42	42265.39
538.59	42075.81
538.75	41670.90
538.92	42548.60
539.09	42141.35
539.26	42064.11
539.43	41916.65
539.60	42258.37
539.77	42340.29
539.94	42340.29
540.11	42298.16
540.28	42506.47
540.44	42396.46
540.61	42522.85
540.78	42131.98
540.95	42143.69
541.12	42199.86
541.29	42593.07
541.46	42574.34
541.62	43152.46
541.79	42405.83
541.96	42241.99
542.13	42508.81
542.30	42363.70
542.47	42646.90
542.63	43208.63
542.80	42649.24
542.97	43650.99
543.14	43302.25
543.31	43620.56
543.48	43658.01
543.64	44027.82
543.81	44013.77
543.98	43786.74
544.15	43463.75
544.32	43349.06
544.48	44121.44
544.65	43875.68
544.82	43896.75
544.99	43735.25
545.16	43957.60
545.32	43650.99
545.49	43901.43
545.66	43957.60
545.83	44229.10
546.00	44100.37
546.16	43985.69
546.33	43674.40
546.50	43531.62
546.67	44027.82
546.83	43622.90
547.00	43847.60
547.17	44495.92
547.34	43950.58
547.50	44390.60
547.67	44680.83
547.84	43903.77
548.00	44748.70
548.17	44470.18
548.34	44301.66
548.51	44809.56
548.67	44126.12
548.84	44549.76
549.01	44498.26
549.18	44594.23
549.34	44486.56
549.51	44573.16
549.68	44570.82
549.84	44762.75
550.01	44664.44
550.18	44680.83
550.34	44910.20
550.51	44802.53
550.68	44795.51
550.84	44107.40
551.01	44966.37
551.18	44758.06
551.34	45041.27
551.51	44886.79
551.68	44959.35
551.84	45249.58
552.01	44505.29
552.18	44896.16
552.34	45003.82
552.51	44861.05
552.68	44914.88
552.84	45312.77
553.01	45235.53
553.18	45179.36
553.34	45233.19
553.51	45380.65
553.67	45399.37
553.84	45755.13
554.01	45607.68
554.17	45745.77
554.34	45127.87
554.51	45326.81
554.67	45631.08
554.84	45603.00
555.00	45312.77
555.17	45624.06
555.33	45406.39
555.50	45041.27
555.67	45078.72
555.83	45516.40
556.00	45509.38
556.16	46277.07
556.33	45535.12
556.50	45647.47
556.66	45705.98
556.83	45397.03
556.99	45373.63
557.16	46017.27
557.32	45713.00
557.49	45773.86
557.65	45708.32
557.82	45736.41
557.98	46188.13
558.15	45937.69
558.32	45698.96
558.48	45811.31
558.65	45731.73
558.81	45310.43
558.98	45397.03
559.14	46286.43
559.31	45771.52
559.47	45827.69
559.64	46375.37
559.80	46117.92
559.97	45935.35
560.13	45483.63
560.30	46064.08
560.46	46134.30
560.63	46188.13
560.79	46672.62
560.96	45855.78
561.12	46291.12
561.29	46099.19
561.45	46150.68
561.61	46082.81
561.78	46068.76
561.94	46370.69
562.11	46394.10
562.27	46295.80
562.44	46129.62
562.60	46248.99
562.77	46520.49
562.93	46309.84
563.10	46651.56
563.26	46281.75
563.42	46237.28
563.59	46244.30
563.75	46103.87
563.92	46710.07
564.08	46497.08
564.24	46541.55
564.41	46328.56
564.57	45888.54
564.74	46211.54
564.90	46389.42
565.07	46487.72
565.23	46370.69
565.39	46256.01
565.56	46185.79
565.72	45937.69
565.88	46492.40
566.05	46153.02
566.21	46286.43
566.38	46328.56
566.54	45900.25
566.70	46314.52
566.87	46850.50
567.03	46487.72
567.19	47086.90
567.36	46672.62
567.52	46576.66
567.68	46424.53
567.85	46492.40
568.01	46674.96
568.17	46899.65
568.34	46581.34
568.50	46279.41
568.66	46176.43
568.83	46590.70
568.99	46248.99
569.15	46110.89
569.32	46499.42
569.48	46529.85
569.64	46756.88
569.81	46927.74
569.97	46742.84
570.13	46429.21
570.30	46469.00
570.46	46562.62
570.62	45970.46
570.78	46197.49
570.95	45982.16
571.11	46876.25
571.27	46471.34
571.43	46752.20
571.60	46707.73
571.76	46440.91
571.92	47014.34
572.09	46536.87
572.25	46925.40
572.41	46476.02
572.57	46927.74
572.74	47075.19
572.90	46829.44
573.06	46780.29
573.22	46536.87
573.38	46747.52
573.55	46169.41
573.71	47140.73
573.87	46852.84
574.03	46370.69
574.20	46829.44
574.36	46375.37
574.52	46890.29
574.68	46667.94
574.84	46815.40
575.01	46836.46
575.17	46445.59
575.33	46632.83
575.49	46279.41
575.65	46944.12
575.82	46906.68
575.98	46717.09
576.14	46658.58
576.30	46637.51
576.46	46429.21
576.62	46782.63
576.79	46770.93
576.95	46672.62
577.11	46939.44
577.27	47093.92
577.43	47131.37
577.59	46892.63
577.75	46447.93
577.92	46136.64
578.08	46377.72
578.24	46450.27
578.40	46651.56
578.56	46305.16
578.72	46351.97
578.88	47042.43
579.04	46810.71
579.21	46754.54
579.37	46691.35
579.53	46674.96
579.69	46216.22
579.85	46604.75
580.01	47147.75
580.17	46569.64
580.33	46813.05
580.49	46576.66
580.65	47030.72
580.82	46834.12
580.98	47154.77
581.14	46632.83
581.30	46906.68
581.46	47086.90
581.62	46850.50
581.78	46890.29
581.94	46796.67
582.10	46614.11
582.26	47126.69
582.42	46513.47
582.58	46927.74
582.74	46562.62
582.90	46820.08
583.06	47110.30
583.22	46909.02
583.38	47182.86
583.54	47150.09
583.70	46939.44
583.86	46492.40
584.02	46590.70
584.18	46857.52
584.34	47007.32
584.50	46897.31
584.66	46567.30
584.82	46857.52
584.98	46700.71
585.14	46511.13
585.30	47110.30
585.46	46925.40
585.62	47004.98
585.78	46569.64
585.94	46323.88
586.10	46719.43
586.26	46841.14
586.42	46801.35
586.58	46944.12
586.74	46836.46
586.90	46527.51
587.06	46614.11
587.22	46981.57
587.38	46918.38
587.54	46990.94
587.70	47035.41
587.86	47117.32
588.02	46663.26
588.18	46660.92
588.34	46960.51
588.49	46103.87
588.65	45986.85
588.81	46387.08
588.97	46885.61
589.13	45989.19
589.29	46349.63
589.45	46653.90
589.61	46499.42
589.77	46995.62
589.93	46841.14
590.08	46962.85
590.24	46885.61
590.40	47192.22
590.56	47201.58
590.72	47082.22
590.88	46300.48
591.04	46967.53
591.20	47344.36
591.35	47496.49
591.51	47161.79
591.67	46794.33
591.83	47166.48
591.99	46773.27
592.15	47157.11
592.31	46770.93
592.46	47009.66
592.62	47009.66
592.78	46986.25
592.94	47173.50
593.10	46600.07
593.26	47419.25
593.41	46712.41
593.57	46478.36
593.73	46913.70
593.89	47187.54
594.05	46988.60
594.20	46777.95
594.36	47337.33
594.52	47105.62
594.68	46857.52
594.84	46829.44
594.99	47524.58
595.15	47028.38
595.31	47206.26
595.47	47065.83
595.62	47257.76
595.78	47012.00
595.94	46829.44
596.10	47175.84
596.25	46899.65
596.41	47414.57
596.57	46871.57
596.73	47047.11
596.88	46920.72
597.04	47016.68
597.20	47122.01
597.36	46855.18
597.51	47229.67
597.67	47267.12
597.83	47178.18
597.99	47665.01
598.14	46681.98
598.30	47372.44
598.46	46471.34
598.61	47203.92
598.77	46761.56
598.93	46623.47
599.09	46930.08
599.24	47484.79
599.40	47388.83
599.56	47206.26
599.71	47299.89
599.87	47098.60
600.03	47126.69
600.18	47124.35
600.34	47182.86
600.50	46784.97
600.65	47000.30
600.81	47138.39
600.97	47154.77
601.12	47484.79
601.28	46843.48
601.44	46913.70
601.59	46794.33
601.75	46742.84
601.91	46396.44
602.06	47140.73
602.22	47014.34
602.37	46745.18
602.53	47182.86
602.69	47330.31
602.84	47082.22
603.00	47426.28
603.16	46944.12
603.31	47227.33
603.47	47093.92
603.62	46794.33
603.78	47309.25
603.94	46983.91
604.09	47107.96
604.25	47442.66
604.40	46651.56
604.56	47079.88
604.71	47122.01
604.87	47159.45
605.03	46588.36
605.18	46703.05
605.34	46990.94
605.49	46286.43
605.65	46813.05
605.80	47058.81
605.96	46916.04
606.12	46630.49
606.27	47257.76
606.43	46604.75
606.58	46607.09
606.74	46478.36
606.89	46621.13
607.05	46972.21
607.20	47002.64
607.36	46934.76
607.51	46960.51
607.67	46660.92
607.82	46469.00
607.98	46670.28
608.13	46579.00
608.29	46689.01
608.44	46499.42
608.60	46454.95
608.75	46382.40
608.91	46237.28
609.06	46153.02
609.22	46689.01
609.37	46258.35
609.53	46590.70
609.68	46335.59
609.84	46469.00
609.99	46567.30
610.15	46113.23
610.30	46124.94
610.46	46169.41
610.61	46211.54
610.76	46471.34
610.92	46548.57
611.07	46656.24
611.23	46466.66
611.38	46513.47
611.54	46241.96
611.69	45998.55
611.84	46054.72
612.00	46241.96
612.15	46239.62
612.31	46410.48
612.46	45879.18
612.62	45940.04
612.77	46330.90
612.92	46483.04
613.08	45935.35
613.23	45881.52
613.39	46218.56
613.54	45343.20
613.69	45675.55
613.85	45565.55
614.00	45773.86
614.15	46141.32
614.31	46216.22
614.46	46071.10
614.62	45909.61
614.77	45879.18
614.92	45645.13
615.08	45783.22
615.23	45485.97
615.38	45661.51
615.54	45336.18
615.69	45408.73
615.84	45558.53
616.00	45305.75
616.15	45305.75
616.30	45502.35
616.46	45354.90
616.61	45364.26
616.76	45481.29
616.92	44811.90
617.07	45284.68
617.22	45111.49
617.37	45233.19
617.53	45764.49
617.68	45415.76
617.83	45249.58
617.99	45696.62
618.14	45701.30
618.29	45137.23
618.45	45172.34
618.60	45104.46
618.75	45036.59
618.90	45333.84
619.06	45305.75
619.21	45003.82
619.36	45584.27
619.51	45013.18
619.67	44481.88
619.82	44968.71
619.97	44903.18
620.12	45078.72
620.28	44617.63
620.43	44905.52
620.58	44744.02
620.73	44715.93
620.89	44655.08
621.04	44865.73
621.19	44498.26
621.34	45247.24
621.49	44844.66
621.65	44769.77
621.80	44942.97
621.95	44931.26
622.10	44519.33
622.25	44371.88
622.41	44615.29
622.56	44416.35
622.71	44477.20
622.86	44343.79
623.01	44793.17
623.16	44273.57
623.32	44257.19
623.47	44493.58
623.62	44318.04
623.77	43941.22
623.92	44224.42
624.07	44247.83
624.23	44219.74
624.38	43887.39
624.53	44161.23
624.68	44280.60
624.83	44257.19
624.98	44151.87
625.13	43564.39
625.29	43587.80
625.44	43931.86
625.59	43690.78
625.74	43091.60
625.89	43540.99
626.04	43856.96
626.19	43620.56
626.34	43899.09
626.49	43819.51
626.65	43796.10
626.80	43555.03
626.95	43206.29
627.10	43309.27
627.25	43475.45
627.40	43100.97
627.55	43112.67
627.70	43461.41
627.85	43182.88
628.00	43079.90
628.15	43395.87
628.30	43367.79
628.45	43295.23
628.60	43423.96
628.76	43536.30
628.91	43377.15
629.06	43044.79
629.21	43021.39
629.36	43105.65
629.51	42714.78
629.66	42848.19
629.81	42930.11
629.96	42602.43
630.11	42918.40
630.26	43255.44
630.41	43290.55
630.56	42714.78
630.71	42920.74
630.86	42499.45
631.01	42471.36
631.16	42983.94
631.31	42656.26
631.46	42253.69
631.61	42487.74
631.76	42726.48
631.91	42513.49
632.06	42665.63
632.21	42733.50
632.36	42976.92
632.51	42623.50
632.66	42536.90
632.81	42218.58
632.96	42316.89
633.10	42129.64
633.25	42579.03
633.40	42249.01
633.55	42749.88
633.70	42431.57
633.85	42258.37
634.00	42195.18
634.15	42110.92
634.30	42169.43
634.45	41972.83
634.60	42541.58
634.75	42232.63
634.90	41930.70
635.05	42314.55
635.19	42330.93
635.34	42167.09
635.49	42192.84
635.64	42096.88
635.79	41706.01
635.94	42150.71
636.09	41832.39
636.24	41612.38
636.39	41783.24
636.53	41977.51
636.68	41731.75
636.83	42103.90
636.98	41588.98
637.13	41518.76
637.28	41703.67
637.43	42057.09
637.57	41698.98
637.72	41240.24
637.87	41514.08
638.02	41375.99
638.17	41542.17
638.32	41855.80
638.46	41153.64
638.61	42007.94
638.76	41322.16
638.91	41352.58
639.06	41310.46
639.20	41546.85
639.35	41876.86
639.50	41106.83
639.65	41198.11
639.80	41359.61
639.94	41368.97
640.09	41312.80
640.24	41106.83
640.39	40875.12
640.54	41258.96
640.68	41226.20
640.83	40809.58
640.98	41048.32
641.13	40942.99
641.27	41289.39
641.42	40954.69
641.57	40931.29
641.72	40907.88
641.86	40755.75
642.01	40339.13
642.16	40561.48
642.31	40432.75
642.45	40882.14
642.60	40304.02
642.75	40332.11
642.90	40961.72
643.04	40620.00
643.19	40877.46
643.34	40748.73
643.48	40367.22
643.63	40692.55
643.78	40294.66
643.93	40514.67
644.07	40627.02
644.22	40381.26
644.37	39868.69
644.51	40020.82
644.66	40877.46
644.81	40615.32
644.95	40535.74
645.10	40161.25
645.25	40313.39
645.39	40610.64
645.54	40439.78
645.69	40257.21
645.83	39985.71
645.98	40088.70
646.13	40119.12
646.27	40011.46
646.42	40004.44
646.57	39924.86
646.71	40318.07
646.86	39639.31
647.00	40297.00
647.15	40254.87
647.30	39931.88
647.44	40187.00
647.59	39445.05
647.74	40154.23
647.88	39496.54
648.03	39309.30
648.17	40098.06
648.32	39435.69
648.47	39676.76
648.61	39423.98
648.76	39859.32
648.90	39639.31
649.05	39875.71
649.20	39587.82
649.34	39335.04
649.49	39379.51
649.63	39241.42
649.78	39545.69
649.92	39587.82
650.07	39725.91
650.21	39189.93
650.36	39185.25
650.51	39356.11
650.65	39803.15
650.80	39847.62
650.94	39456.75
651.09	39255.46
651.23	39372.49
651.38	39138.44
651.52	39185.25
651.67	39227.38
651.81	38789.70
651.96	39005.03
652.10	38504.15
652.25	39023.75
652.39	39175.89
652.54	38958.22
652.68	39173.55
652.83	39122.05
652.97	39164.18
653.12	39152.48
653.26	38946.51
653.41	38714.80
653.55	38263.08
653.70	38778.00
653.84	38897.36
653.99	39147.80
654.13	38618.84
654.27	38115.62
654.42	38136.69
654.56	38244.35
654.71	38663.31
654.85	38419.89
655.00	38740.55
655.14	38705.44
655.29	38298.19
655.43	38134.35
655.57	37846.46
655.72	37827.74
655.86	37741.14
656.01	37654.54
656.15	37406.44
656.30	37872.21
656.44	37809.01
656.58	37111.53
656.73	37813.70
656.87	37801.99
657.01	37830.08
657.16	37832.42
657.30	37471.98
657.45	37680.28
657.59	37848.80
657.73	37633.47
657.88	38031.36
658.02	37890.93
658.16	38122.65
658.31	37935.40
658.45	37818.38
658.60	38169.46
658.74	37787.95
658.88	37521.13
659.03	37200.47
659.17	37088.13
659.31	37184.09
659.46	37223.88
659.60	37591.34
659.74	38003.28
659.89	37060.04
660.03	36996.85
660.17	37270.69
660.32	37624.11
660.46	37486.02
660.60	37092.81
660.74	37294.10
660.89	37053.02
661.03	36783.86
661.17	36910.25
661.32	36449.16
661.46	37001.53
661.60	36779.18
661.74	37060.04
661.89	36701.94
662.03	37036.64
662.17	36161.28
662.31	36381.29
662.46	36596.62
662.60	36575.55
662.74	36273.62
662.88	36416.40
663.03	36285.33
663.17	36334.48
663.31	36271.28
663.45	35997.44
663.60	35854.67
663.74	36093.40
663.88	36226.81
664.02	36137.87
664.17	36233.83
664.31	36048.93
664.45	35899.14
664.59	35831.26
664.73	35796.15
664.88	35833.60
665.02	35346.77
665.16	35381.88
665.30	35751.68
665.44	35215.70
665.59	34862.28
665.73	35166.55
665.87	35295.28
666.01	35344.43
666.15	35267.19
666.29	35278.89
666.44	35335.07
666.58	34881.00
666.72	35215.70
666.86	34801.43
667.00	34843.56
667.14	34965.26
667.28	34614.18
667.43	34595.46
667.57	34824.83
667.71	34291.19
667.85	34326.30
667.99	34450.35
668.13	34679.72
668.27	34703.12
668.41	34583.76
668.56	34321.62
668.70	34934.84
668.84	34223.31
668.98	34038.41
669.12	34490.13
669.26	33858.19
669.40	33670.95
669.54	34080.54
669.68	34169.48
669.82	33837.12
669.96	33256.67
670.10	33635.84
670.25	33816.06
670.39	33600.73
670.53	33137.30
670.67	33362.00
670.81	33425.19
670.95	33762.23
671.09	33130.28
671.23	33378.38
671.37	33291.78
671.51	33322.21
671.65	32994.53
671.79	32814.31
671.93	32818.99
672.07	32959.42
672.21	33240.29
672.35	32800.27
672.49	33008.58
672.63	33081.13
672.77	32313.44
672.91	32425.78
673.05	32496.00
673.19	31999.80
673.33	32161.30
673.47	32013.85
673.61	32369.61
673.75	31962.36
673.89	31770.43
674.03	31426.37
674.17	31857.03
674.31	31480.21
674.45	31878.10
674.59	31763.41
674.73	31824.26
674.87	31503.61
675.01	31414.67
675.15	31524.68
675.29	31353.82
675.43	31255.51
675.56	31105.72
675.70	30593.14
675.84	30864.64
675.98	30019.71
676.12	30813.15
676.26	30974.65
676.40	30836.56
676.54	30497.18
676.68	30705.49
676.82	30345.05
676.96	30356.75
677.10	30588.46
677.23	30483.14
677.37	29795.02
677.51	30071.20
677.65	29799.70
677.79	29656.93
677.93	29759.91
678.07	29890.98
678.21	29006.26
678.34	29338.62
678.48	29060.09
678.62	29256.70
678.76	29074.13
678.90	28610.71
679.04	28584.96
679.18	28669.22
679.31	28697.31
679.45	28538.15
679.59	28531.13
679.73	28313.46
679.87	28362.61
680.00	27838.33
680.14	28182.39
680.28	27850.03
680.42	28156.64
680.56	28240.90
680.70	27529.38
680.83	28074.73
680.97	27805.56
681.11	28222.18
681.25	27578.53
681.39	27571.51
681.52	27812.59
681.66	27260.22
681.80	27353.84
681.94	27351.50
682.07	27124.47
682.21	26764.03
682.35	27131.49
682.49	26607.21
682.62	26419.97
682.76	26747.64
682.90	26267.83
683.04	26277.19
683.17	26347.41
683.31	26417.63
683.45	26338.05
683.59	26366.13
683.72	25855.90
683.86	25867.60
684.00	26101.65
684.13	25776.32
684.27	25762.28
684.41	25752.91
684.55	25392.47
684.68	25458.01
684.82	25317.57
684.96	25355.02
685.09	25406.52
685.23	25111.61
685.37	25085.86
685.50	24950.11
685.64	24858.83
685.78	24524.13
685.91	24643.50
686.05	24657.54
686.19	24510.09
686.32	24095.82
686.46	24041.98
686.60	23489.62
686.73	23711.97
686.87	23690.90
687.01	23531.75
687.14	23295.35
687.28	23241.52
687.42	23253.22
687.55	23608.98
687.69	23742.39
687.82	23363.23
687.96	23051.94
688.10	23316.42
688.23	23049.60
688.37	22492.55
688.50	22726.60
688.64	23096.41
688.78	23042.57
688.91	22478.50
689.05	22869.37
689.18	22607.23
689.32	22228.07
689.46	22328.71
689.59	22485.53
689.73	22590.85
689.86	22333.39
690.00	22085.30
690.13	21949.54
690.27	22176.58
690.41	21855.92
690.54	21535.27
690.68	21640.59
690.81	21357.39
690.95	21259.09
691.08	21289.51
691.22	21720.17
691.35	21212.28
691.49	21493.14
691.62	21294.19
691.76	21018.01
691.89	20924.39
692.03	20608.42
692.16	20833.11
692.30	20711.40
692.43	20807.36
692.57	20262.02
692.70	20554.58
692.84	20390.75
692.97	20524.16
693.11	20037.33
693.24	20025.62
693.38	19796.25
693.51	19976.47
693.65	19915.62
693.78	19730.72
693.92	19864.13
694.05	19922.64
694.19	19428.79
694.32	19660.50
694.45	19524.75
694.59	19609.01
694.72	19271.97
694.86	19332.82
694.99	18984.09
695.13	19119.84
695.26	19000.47
695.39	18750.03
695.53	18972.38
695.66	18876.42
695.80	18801.52
695.93	18445.76
696.07	18768.76
696.20	18508.96
696.33	18476.19
696.47	18331.08
696.60	18298.31
696.73	17998.72
696.87	17855.95
697.00	17954.25
697.14	18078.30
697.27	17963.61
697.40	17809.14
697.54	17832.54
697.67	17584.44
697.80	17804.46
697.94	17434.65
698.07	17348.05
698.21	17184.21
698.34	17172.51
698.47	17116.34
698.61	16706.74
698.74	16840.15
698.87	16657.59
699.01	16341.62
699.14	16290.13
699.27	16453.97
699.40	16444.60
699.54	16517.16
699.67	16573.33
699.80	16290.13
699.94	16152.04
700.07	16135.65
700.20	16208.21
700.34	15836.06
700.47	16182.46
700.60	16196.51
700.73	16416.52
700.87	16145.02
701.00	15971.82
701.13	15906.28
701.26	15810.32
701.40	15597.33
701.53	15456.90
701.66	15604.35
701.79	15253.27
701.93	15531.80
702.06	15187.74
702.19	14920.92
702.32	15019.22
702.46	14869.42
702.59	14883.47
702.72	15007.52
702.85	15068.37
702.99	14574.52
703.12	14614.30
703.25	14572.18
703.38	14288.97
703.51	14450.47
703.65	14644.73
703.78	14422.38
703.91	14462.17
704.04	14249.18
704.17	14389.61
704.31	14394.29
704.44	14099.39
704.57	13991.72
704.70	13935.55
704.83	14188.33
704.96	14066.62
705.10	14031.51
705.23	14001.08
>>>>>End Processed Spectral Data<<<<<
