SpectraSuite Data File
++++++++++++++++++++++++++++++++++++
Date: Fri Oct 25 10:43:13 EDT 2013
User: price-jones
Dark Spectrum Present: No
Reference Spectrum Present: No
Number of Sampled Component Spectra: 1
Spectrometers: USB2+H05261
Integration Time (usec): 100000 (USB2+H05261)
Spectra Averaged: 1 (USB2+H05261)
Boxcar Smoothing: 0 (USB2+H05261)
Correct for Electrical Dark: No (USB2+H05261)
Strobe/Lamp Enabled: No (USB2+H05261)
Correct for Detector Non-linearity: No (USB2+H05261)
Correct for Stray Light: No (USB2+H05261)
Number of Pixels in Processed Spectrum: 2048
>>>>>Begin Processed Spectral Data<<<<<
365.73	98.30
365.92	98.30
366.12	98.30
366.32	102.98
366.52	0.00
366.72	58.51
366.91	35.11
367.11	35.11
367.31	60.85
367.51	16.38
367.70	23.41
367.90	58.51
368.10	46.81
368.30	0.00
368.49	0.00
368.69	14.04
368.89	23.41
369.09	2.34
369.28	102.98
369.48	70.22
369.68	42.13
369.87	93.62
370.07	58.51
370.27	145.11
370.47	182.56
370.66	430.66
370.86	428.32
371.06	430.66
371.25	454.06
371.45	454.06
371.65	500.87
371.84	437.68
372.04	440.02
372.24	425.98
372.44	533.64
372.63	477.47
372.83	475.13
373.03	468.11
373.22	468.11
373.42	585.13
373.62	468.11
373.81	538.32
374.01	617.90
374.21	514.92
374.40	578.11
374.60	528.96
374.79	479.81
374.99	585.13
375.19	528.96
375.38	585.13
375.58	531.30
375.78	575.77
375.97	547.69
376.17	692.80
376.37	638.97
376.56	594.50
376.76	594.50
376.95	617.90
377.15	650.67
377.35	620.24
377.54	660.03
377.74	550.03
377.93	655.35
378.13	592.16
378.33	711.52
378.52	545.34
378.72	629.60
378.91	617.90
379.11	634.29
379.31	592.16
379.50	610.88
379.70	767.70
379.89	718.54
380.09	671.73
380.28	678.76
380.48	720.88
380.68	678.76
380.87	660.03
381.07	650.67
381.26	788.76
381.46	669.39
381.65	711.52
381.85	755.99
382.04	669.39
382.24	676.41
382.43	770.04
382.63	695.14
382.83	674.07
383.02	711.52
383.22	702.16
383.41	664.71
383.61	692.80
383.80	795.78
384.00	741.95
384.19	809.83
384.39	758.33
384.58	833.23
384.78	765.36
384.97	744.29
385.17	800.46
385.36	807.48
385.56	828.55
385.75	826.21
385.95	800.46
386.14	828.55
386.34	875.36
386.53	802.80
386.72	805.14
386.92	877.70
387.11	933.87
387.31	870.68
387.50	858.98
387.70	901.11
387.89	828.55
388.09	905.79
388.28	880.04
388.48	889.40
388.67	922.17
388.86	926.85
389.06	933.87
389.25	1001.75
389.45	992.39
389.64	971.32
389.84	1076.65
390.03	985.37
390.22	945.58
390.42	952.60
390.61	1097.71
390.81	938.55
391.00	1043.88
391.19	1076.65
391.39	1043.88
391.58	1076.65
391.78	1071.97
391.97	1008.77
392.16	947.92
392.36	1083.67
392.55	929.19
392.75	1001.75
392.94	952.60
393.13	980.68
393.33	1001.75
393.52	1090.69
393.71	1076.65
393.91	1118.78
394.10	1170.27
394.29	1153.88
394.49	1071.97
394.68	1060.26
394.88	1233.46
395.07	1254.53
395.26	1296.66
395.46	1196.01
395.65	1387.94
395.84	1275.59
396.04	1135.16
396.23	1165.59
396.42	1160.91
396.62	1156.22
396.81	1224.10
397.00	1198.35
397.19	1299.00
397.39	1280.27
397.58	1289.64
397.77	1341.13
397.97	1502.62
398.16	1362.19
398.35	1481.56
398.55	1397.30
398.74	1526.03
398.93	1434.75
399.12	1425.39
399.32	1502.62
399.51	1383.26
399.70	1577.52
399.90	1570.50
400.09	1617.31
400.28	1570.50
400.47	1570.50
400.67	1659.44
400.86	1605.61
401.05	1650.08
401.24	1678.16
401.44	1750.72
401.63	1727.32
401.82	1781.15
402.01	1708.59
402.21	1708.59
402.40	1783.49
402.59	1764.76
402.78	1729.66
402.97	1781.15
403.17	1816.26
403.36	1853.70
403.55	1846.68
403.74	1860.73
403.93	1806.89
404.13	1874.77
404.32	1820.94
404.51	1877.11
404.70	1907.54
404.89	1860.73
405.09	2083.08
405.28	1909.88
405.47	1891.15
405.66	1994.14
405.85	1900.52
406.05	1839.66
406.24	2050.31
406.43	1905.20
406.62	2012.86
406.81	2097.12
407.00	1989.46
407.20	1989.46
407.39	2139.25
407.58	1982.43
407.77	2169.68
407.96	2127.55
408.15	2235.21
408.34	2197.76
408.54	2338.20
408.73	2282.02
408.92	2218.83
409.11	2232.87
409.30	2347.56
409.49	2338.20
409.68	2312.45
409.87	2204.78
410.07	2291.38
410.26	2380.32
410.45	2473.95
410.64	2368.62
410.83	2438.84
411.02	2576.93
411.21	2574.59
411.40	2597.99
411.59	2590.97
411.78	2605.02
411.98	2548.84
412.17	2583.95
412.36	2658.85
412.55	2754.81
412.74	2712.68
412.93	2729.06
413.12	2616.72
413.31	2771.19
413.50	2668.21
413.69	2862.48
413.88	2920.99
414.07	2818.00
414.26	2827.37
414.45	2986.52
414.64	2998.23
414.83	2913.97
415.02	2991.20
415.22	3038.02
415.41	3119.93
415.60	3112.91
415.79	3295.47
415.98	3276.75
416.17	3309.52
416.36	3185.47
416.55	3258.03
416.74	3297.81
416.93	3297.81
417.12	3255.69
417.31	3288.45
417.50	3311.86
417.69	3489.74
417.88	3419.52
418.07	3445.27
418.26	3471.01
418.45	3449.95
418.64	3541.23
418.83	3538.89
419.02	3442.93
419.21	3585.70
419.39	3471.01
419.58	3517.83
419.77	3463.99
419.96	3548.25
420.15	3702.73
420.34	3658.26
420.53	3861.88
420.72	3885.29
420.91	3754.22
421.10	3859.54
421.29	3997.64
421.48	3679.32
421.67	3906.35
421.86	3857.20
422.05	3702.73
422.24	3723.79
422.43	3864.22
422.61	3833.80
422.80	3850.18
422.99	3878.27
423.18	3892.31
423.37	3969.55
423.56	3962.53
423.75	3829.12
423.94	3859.54
424.13	3571.66
424.32	3854.86
424.50	3866.56
424.69	4011.68
424.88	3920.40
425.07	3864.22
425.26	3882.95
425.45	3932.10
425.64	3953.16
425.83	3969.55
426.01	3939.12
426.20	4037.42
426.39	3995.29
426.58	4004.66
426.77	3967.21
426.96	3957.85
427.15	3971.89
427.33	4011.68
427.52	3948.48
427.71	4095.94
427.90	4056.15
428.09	4222.33
428.28	4248.07
428.46	4255.09
428.65	4173.18
428.84	4109.98
429.03	4224.67
429.22	4077.21
429.40	4049.13
429.59	4138.07
429.78	3974.23
429.97	3981.25
430.16	3974.23
430.34	4131.05
430.53	4093.60
430.72	4189.56
430.91	4243.39
431.10	4355.74
431.28	4503.19
431.47	4610.86
431.66	4641.28
431.85	4667.03
432.03	4615.54
432.22	4788.74
432.41	4592.13
432.60	4582.77
432.79	4760.65
432.97	4674.05
433.16	4589.79
433.35	4683.41
433.54	4629.58
433.72	4603.83
433.91	4737.24
434.10	4795.76
434.28	4739.58
434.47	4751.29
434.66	4826.18
434.85	5008.75
435.03	4919.81
435.22	4737.24
435.41	5104.71
435.59	5039.17
435.78	5205.35
435.97	5151.52
436.16	4980.66
436.34	5048.54
436.53	5238.12
436.72	5268.55
436.90	5046.20
437.09	5078.96
437.28	5011.09
437.46	5121.09
437.65	5102.37
437.84	5217.05
438.02	5233.44
438.21	5085.98
438.40	5018.11
438.58	5369.19
438.77	5406.64
438.96	5261.52
439.14	5605.58
439.33	5586.86
439.52	5467.49
439.70	5713.25
439.89	5706.23
440.08	5626.65
440.26	5788.14
440.45	5722.61
440.63	5919.21
440.82	6015.18
441.01	5947.30
441.19	6094.76
441.38	6090.07
441.57	6218.80
441.75	6354.55
441.94	6204.76
442.12	6244.55
442.31	6396.68
442.50	6258.59
442.68	6321.79
442.87	6270.30
443.05	6289.02
443.24	6253.91
443.43	6499.67
443.61	6445.84
443.80	6590.95
443.98	6333.49
444.17	6225.82
444.35	6452.86
444.54	6715.00
444.73	6569.88
444.91	6513.71
445.10	6487.96
445.28	6504.35
445.47	6265.61
445.65	6511.37
445.84	6532.44
446.02	6647.12
446.21	6434.13
446.39	6574.56
446.58	6562.86
446.77	6635.42
446.95	6572.22
447.14	6686.91
447.32	6700.95
447.51	6677.55
447.69	6576.91
447.88	6588.61
448.06	6696.27
448.25	6668.19
448.43	6806.28
448.62	6689.25
448.80	6752.45
448.99	6806.28
449.17	6698.61
449.36	6490.31
449.54	7066.08
449.73	7052.03
449.91	7265.02
450.10	7056.72
450.28	7136.29
450.46	7166.72
450.65	7047.35
450.83	7316.51
451.02	7087.14
451.20	7208.85
451.39	7229.91
451.57	7213.53
451.76	7105.87
451.94	7101.19
452.13	7215.87
452.31	7042.67
452.49	7126.93
452.68	7286.09
452.86	7173.74
453.05	7330.56
453.23	7379.71
453.42	7213.53
453.60	7173.74
453.78	7468.65
453.97	7250.98
454.15	7426.52
454.34	7279.07
454.52	7428.86
454.70	7510.78
454.89	7531.84
455.07	7569.29
455.26	7545.89
455.44	7726.11
455.62	7644.19
455.81	7751.85
455.99	7840.79
456.17	7529.50
456.36	7901.65
456.54	7878.24
456.73	7974.21
456.91	7941.44
457.09	8013.99
457.28	8133.36
457.46	7920.37
457.64	8070.17
457.83	8088.89
458.01	7838.45
458.19	8264.43
458.38	8208.26
458.56	8203.58
458.74	8182.51
458.93	8236.35
459.11	8367.42
459.29	8142.72
459.48	8327.63
459.66	8297.20
459.84	8416.57
460.03	8613.17
460.21	8425.93
460.39	8519.55
460.57	8435.29
460.76	8603.81
460.94	8477.42
461.12	8692.75
461.31	8638.92
461.49	8554.66
461.67	8725.52
461.85	8662.32
462.04	8772.33
462.22	9291.93
462.40	9004.04
462.59	8842.54
462.77	8549.98
462.95	8987.66
463.13	8875.31
463.32	8706.79
463.50	9013.40
463.68	9100.00
463.86	8793.39
464.05	8894.04
464.23	8943.19
464.41	9167.88
464.59	9041.49
464.78	9125.75
464.96	9011.06
465.14	9025.11
465.32	9149.15
465.50	9277.88
465.69	9170.22
465.87	9224.05
466.05	9083.62
466.23	9207.67
466.41	9252.14
466.60	9380.87
466.78	9231.07
466.96	9259.16
467.14	9275.54
467.32	9350.44
467.51	9355.12
467.69	9060.21
467.87	9263.84
468.05	9348.10
468.23	9366.82
468.41	9303.63
468.60	9343.42
468.78	9626.62
468.96	9554.07
469.14	9497.89
469.32	9657.05
469.50	9418.32
469.69	9713.22
469.87	9888.76
470.05	9771.74
470.23	9722.59
470.41	9975.36
470.59	9984.73
470.77	9970.68
470.95	9687.48
471.14	10052.60
471.32	9874.72
471.50	10296.02
471.68	10164.95
471.86	10373.25
472.04	10551.14
472.22	10534.75
472.40	10167.29
472.58	10375.59
472.77	10530.07
472.95	10611.99
473.13	10839.02
473.31	10558.16
473.49	10424.75
473.67	10623.69
473.85	10724.33
474.03	10995.84
474.21	10843.70
474.39	11115.20
474.57	11108.18
474.75	11026.26
474.93	11077.76
475.12	11126.91
475.30	11262.66
475.48	11246.27
475.66	11012.22
475.84	11265.00
476.02	11283.72
476.20	11290.74
476.38	11674.59
476.56	11815.02
476.74	11929.71
476.92	11756.51
477.10	11726.08
477.28	12095.89
477.46	11927.37
477.64	12042.06
477.82	12498.46
478.00	12582.72
478.18	12760.60
478.36	12545.27
478.54	12851.88
478.72	12718.47
478.90	12896.35
479.08	13090.62
479.26	13181.90
479.44	13205.30
479.62	13284.88
479.80	13462.76
479.98	13561.06
480.16	13619.58
480.34	13518.93
480.52	13554.04
480.70	13701.50
480.88	13584.47
481.06	13687.45
481.24	13741.29
481.41	14359.19
481.59	14221.10
481.77	14293.65
481.95	14258.54
482.13	14670.48
482.31	14438.76
482.49	14614.30
482.67	14960.70
482.85	14787.50
483.03	14892.83
483.21	15382.00
483.39	15389.02
483.57	15286.04
483.74	15360.94
483.92	15765.85
484.10	15484.98
484.28	15747.12
484.46	15974.16
484.64	16161.40
484.82	16056.08
485.00	16098.20
485.18	16425.88
485.35	16222.25
485.53	16276.09
485.71	16079.48
485.89	16287.79
486.07	16477.37
486.25	16400.13
486.43	16709.08
486.61	17029.74
486.78	17261.45
486.96	17249.75
487.14	17687.43
487.32	17607.85
487.50	17996.38
487.68	18125.11
487.85	18373.21
488.03	18511.30
488.21	18689.18
488.39	17987.02
488.57	18661.09
488.75	18661.09
488.92	18920.89
489.10	19213.46
489.28	19489.64
489.46	19913.28
489.64	19688.59
489.81	19960.09
489.99	19936.68
490.17	20032.65
490.35	20493.73
490.53	20641.18
490.70	20336.91
490.88	20372.02
491.06	20821.41
491.24	20594.37
491.41	20505.43
491.59	20603.74
491.77	20437.56
491.95	20669.27
492.13	21298.88
492.30	21376.11
492.48	21902.73
492.66	21561.02
492.84	21720.17
493.01	22019.76
493.19	21813.79
493.37	22155.51
493.54	22108.70
493.72	22398.93
493.90	22443.40
494.08	22682.13
494.25	23393.65
494.43	22864.69
494.61	23339.82
494.79	22993.42
494.96	23185.35
495.14	23208.75
495.32	23620.69
495.49	23641.75
495.67	23878.15
495.85	23812.61
496.02	23812.61
496.20	24393.06
496.38	24393.06
496.55	24570.94
496.73	25184.16
496.91	24393.06
497.09	24781.59
497.26	24734.78
497.44	24936.07
497.62	25348.00
497.79	25165.44
497.97	25221.61
498.14	25685.04
498.32	25380.77
498.50	25245.02
498.67	25663.97
498.85	26040.80
499.03	25923.77
499.20	25940.16
499.38	26099.31
499.56	26291.24
499.73	26441.03
499.91	26342.73
500.08	26455.08
500.26	25898.03
500.44	26305.28
500.61	26623.59
500.79	26565.08
500.97	26558.06
501.14	27365.54
501.32	27260.22
501.49	27262.56
501.67	26813.18
501.84	27395.97
502.02	27344.48
502.20	27917.91
502.37	27531.72
502.55	27936.63
502.72	27924.93
502.90	27929.61
503.07	28027.92
503.25	28121.54
503.43	27990.47
503.60	27861.74
503.78	28327.50
503.95	28217.50
504.13	28175.37
504.30	28601.35
504.48	28397.72
504.65	28929.02
504.83	28975.83
505.01	29081.16
505.18	29130.31
505.36	29097.54
505.53	29453.30
505.71	29600.76
505.88	29340.96
506.06	29544.58
506.23	30228.02
506.41	29397.13
506.58	29502.45
506.76	29806.72
506.93	29916.73
507.11	29825.45
507.28	29783.32
507.46	29935.45
507.63	30050.14
507.81	30340.36
507.98	29783.32
508.16	30096.95
508.33	30333.34
508.50	30389.52
508.68	30885.71
508.85	30976.99
509.03	31157.21
509.20	30871.67
509.38	30696.13
509.55	30993.37
509.73	31007.42
509.90	31323.39
510.08	31255.51
510.25	31119.76
510.42	31688.51
510.60	31484.89
510.77	31737.66
510.95	32065.34
511.12	31653.40
511.30	31889.80
511.47	32149.60
511.64	32266.63
511.82	32247.90
511.99	31922.57
512.17	31861.71
512.34	32098.11
512.51	32245.56
512.69	32631.75
512.86	32451.53
513.04	32914.95
513.21	32650.47
513.38	32456.21
513.56	32266.63
513.73	32645.79
513.90	32690.26
514.08	32552.17
514.25	32802.61
514.43	32673.88
514.60	33408.81
514.77	33064.75
514.95	33163.05
515.12	33376.04
515.29	33479.02
515.47	33727.12
515.64	34045.43
515.81	33743.50
515.99	33785.63
516.16	33752.87
516.33	33326.89
516.51	33626.48
516.68	33188.80
516.85	33139.65
517.03	33106.88
517.20	33464.98
517.37	34202.25
517.54	34206.93
517.72	34368.43
517.89	33809.04
518.06	34122.67
518.24	33502.43
518.41	34291.19
518.58	34567.37
518.75	34249.06
518.93	34630.57
519.10	34660.99
519.27	34759.30
519.45	34677.38
519.62	35182.93
519.79	34979.31
519.96	35351.45
520.14	35007.39
520.31	34991.01
520.48	34944.20
520.65	35302.30
520.83	35681.47
521.00	35913.18
521.17	35442.73
521.34	35747.00
521.52	35878.07
521.69	36023.19
521.86	35978.72
522.03	36306.39
522.20	36245.54
522.38	36353.20
522.55	36128.51
522.72	35838.28
522.89	36126.17
523.07	36315.75
523.24	36322.77
523.41	36844.71
523.58	36849.39
523.75	37102.17
523.92	36947.70
524.10	36713.64
524.27	37076.43
524.44	37315.16
524.61	37345.59
524.78	37076.43
524.96	37294.10
525.13	37081.11
525.30	37462.61
525.47	37909.66
525.64	37633.47
525.81	37769.22
525.98	37467.30
526.16	36919.61
526.33	37237.92
526.50	37020.25
526.67	37111.53
526.84	37013.23
527.01	37083.45
527.18	37535.17
527.36	37684.97
527.53	37961.15
527.70	38356.70
527.87	37806.67
528.04	38012.64
528.21	38277.12
528.38	38164.78
528.55	38735.87
528.72	38583.73
528.89	38672.67
529.07	38459.68
529.24	38455.00
529.41	38389.47
529.58	38604.80
529.75	38274.78
529.92	38813.10
530.09	38637.56
530.26	38841.19
530.43	39194.61
530.60	38862.26
530.77	39054.18
530.94	39173.55
531.11	38759.27
531.28	39269.51
531.46	39196.95
531.63	39732.93
531.80	39103.33
531.97	39002.69
532.14	39281.21
532.31	38583.73
532.48	39346.75
532.65	39358.45
532.82	39758.68
532.99	39164.18
533.16	39557.39
533.33	39732.93
533.50	39777.40
533.67	39786.77
533.84	39564.42
534.01	39313.98
534.18	39817.19
534.35	39643.99
534.52	39824.22
534.69	40154.23
534.86	40315.73
535.03	40212.74
535.20	40399.99
535.37	40477.22
535.54	40605.95
535.71	40458.50
535.88	40446.80
536.05	40479.57
536.22	40446.80
536.38	40708.94
536.55	40917.25
536.72	40278.28
536.89	40093.38
537.06	40458.50
537.23	40966.40
537.40	40634.04
537.57	40467.86
537.74	41083.42
537.91	41418.12
538.08	41235.56
538.25	40781.49
538.42	41305.77
538.59	41240.24
538.75	40886.82
538.92	41050.66
539.09	41174.70
539.26	41261.30
539.43	40891.50
539.60	40690.21
539.77	40739.36
539.94	41055.34
540.11	40514.67
540.28	41280.03
540.44	41385.35
540.61	41090.44
540.78	41277.69
540.95	41118.53
541.12	40832.99
541.29	41151.30
541.46	41385.35
541.62	41769.20
541.79	41951.76
541.96	41177.04
542.13	41825.37
542.30	41638.13
542.47	42064.11
542.63	41570.25
542.80	41935.38
542.97	42431.57
543.14	42340.29
543.31	42157.73
543.48	42377.74
543.64	42674.99
543.81	42499.45
543.98	42396.46
544.15	42576.69
544.32	42871.59
544.48	42911.38
544.65	42532.22
544.82	42239.65
544.99	42178.79
545.16	42373.06
545.32	42344.97
545.49	43400.55
545.66	43274.16
545.83	42895.00
546.00	43026.07
546.16	42632.86
546.33	42110.92
546.50	42590.73
546.67	43000.32
546.83	42380.08
547.00	42986.28
547.17	42871.59
547.34	42651.58
547.50	43297.57
547.67	43372.47
547.84	43185.22
548.00	43304.59
548.17	43484.81
548.34	43583.12
548.51	43440.34
548.67	43452.05
548.84	43178.20
549.01	43274.16
549.18	43131.39
549.34	43117.35
549.51	43145.44
549.68	43838.23
549.84	43328.00
550.01	43597.16
550.18	43599.50
550.34	43775.04
550.51	43660.35
550.68	43620.56
550.84	43086.92
551.01	43695.46
551.18	43688.44
551.34	43732.91
551.51	43643.97
551.68	43878.02
551.84	43798.44
552.01	44088.67
552.18	43777.38
552.34	43428.64
552.51	43756.32
552.68	43679.08
552.84	43948.24
553.01	43964.62
553.18	44011.43
553.34	44165.91
553.51	44229.10
553.67	44603.59
553.84	44392.94
554.01	44751.04
554.17	44577.84
554.34	44439.75
554.51	44105.06
554.67	45067.02
554.84	44156.55
555.00	44505.29
555.17	44226.76
555.33	44521.67
555.50	44638.70
555.67	44566.14
555.83	44512.31
556.00	44552.10
556.16	44404.64
556.33	44884.45
556.50	44734.66
556.66	44631.68
556.83	44341.45
556.99	44301.66
557.16	44589.55
557.32	44924.24
557.49	44999.14
557.65	44264.21
557.82	44947.65
557.98	44837.64
558.15	44636.36
558.32	45085.74
558.48	44446.77
558.65	44390.60
558.81	44769.77
558.98	44512.31
559.14	44760.40
559.31	44231.44
559.47	44741.68
559.64	44671.46
559.80	44718.28
559.97	45022.54
560.13	44786.15
560.30	45179.36
560.46	45123.19
560.63	44938.29
560.79	45155.96
560.96	45272.98
561.12	44959.35
561.29	44849.35
561.45	45050.63
561.61	44912.54
561.78	45092.76
561.94	45045.95
562.11	44849.35
562.27	44755.72
562.44	45109.14
562.60	45450.86
562.77	45387.67
562.93	45427.46
563.10	45251.92
563.26	44818.92
563.42	45097.44
563.59	45127.87
563.75	45059.99
563.92	45219.15
564.08	45471.93
564.24	45401.71
564.41	45265.96
564.57	45064.67
564.74	44912.54
564.90	45167.66
565.07	45584.27
565.23	45406.39
565.39	45071.70
565.56	45308.09
565.72	45209.79
565.88	45296.39
566.05	45212.13
566.21	45170.00
566.38	45261.28
566.54	45174.68
566.70	45745.77
566.87	45860.46
567.03	45591.30
567.19	45813.65
567.36	45621.72
567.52	45254.26
567.68	45502.35
567.85	45088.08
568.01	45497.67
568.17	45649.81
568.34	45834.71
568.50	45221.49
568.66	45067.02
568.83	45731.73
568.99	45390.01
569.15	45296.39
569.32	45500.01
569.48	45703.64
569.64	45944.72
569.81	45235.53
569.97	45930.67
570.13	45565.55
570.30	45317.45
570.46	45425.12
570.62	44823.60
570.78	45560.87
570.95	44842.32
571.11	45530.44
571.27	45247.24
571.43	45727.05
571.60	45392.35
571.76	45492.99
571.92	45209.79
572.09	45846.41
572.25	45610.02
572.41	45537.46
572.57	45621.72
572.74	46272.39
572.90	45963.44
573.06	45680.24
573.22	45649.81
573.38	45701.30
573.55	45270.64
573.71	45954.08
573.87	45947.06
574.03	45886.20
574.20	45642.79
574.36	45490.65
574.52	45755.13
574.68	45626.40
574.84	45387.67
575.01	45434.48
575.17	45336.18
575.33	45390.01
575.49	45521.08
575.65	45930.67
575.82	45467.25
575.98	45720.02
576.14	45883.86
576.30	46328.56
576.46	45808.96
576.62	45610.02
576.79	45507.04
576.95	45425.12
577.11	45876.84
577.27	45799.60
577.43	45251.92
577.59	45638.11
577.75	45120.85
577.92	45221.49
578.08	45460.23
578.24	45558.53
578.40	45495.33
578.56	45621.72
578.72	45876.84
578.88	45600.66
579.04	46061.74
579.21	45179.36
579.37	45647.47
579.53	45710.66
579.69	45371.28
579.85	45567.89
580.01	45462.57
580.17	45523.42
580.33	46312.18
580.49	46061.74
580.65	45579.59
580.82	45785.56
580.98	45521.08
581.14	45317.45
581.30	45855.78
581.46	45600.66
581.62	46007.91
581.78	45734.07
581.94	46202.18
582.10	45944.72
582.26	45799.60
582.42	45736.41
582.58	45865.14
582.74	45933.01
582.90	45785.56
583.06	45998.55
583.22	46080.47
583.38	45689.60
583.54	46120.26
583.70	46087.49
583.86	45680.24
584.02	45979.82
584.18	45921.31
584.34	46021.95
584.50	45792.58
584.66	45708.32
584.82	45956.42
584.98	45743.43
585.14	45933.01
585.30	45895.56
585.46	45724.71
585.62	45441.50
585.78	45858.12
585.94	45703.64
586.10	45649.81
586.26	45450.86
586.42	46483.04
586.58	46057.06
586.74	46174.09
586.90	45965.78
587.06	46160.05
587.22	46021.95
587.38	45937.69
587.54	45588.95
587.70	46204.52
587.86	45542.14
588.02	45607.68
588.18	46031.32
588.34	45162.98
588.49	45368.94
588.65	45097.44
588.81	45631.08
588.97	45701.30
589.13	45221.49
589.29	45200.43
589.45	45378.31
589.61	45834.71
589.77	46124.94
589.93	45818.33
590.08	46136.64
590.24	45731.73
590.40	45722.37
590.56	46340.27
590.72	45916.63
590.88	45876.84
591.04	45989.19
591.20	46068.76
591.35	46443.25
591.51	46464.32
591.67	45689.60
591.83	46176.43
591.99	45301.07
592.15	46300.48
592.31	45907.27
592.46	45937.69
592.62	46227.92
592.78	46230.26
592.94	46286.43
593.10	46218.56
593.26	46103.87
593.41	46043.02
593.57	46043.02
593.73	46052.38
593.89	46188.13
594.05	46202.18
594.20	45673.21
594.36	45977.48
594.52	46136.64
594.68	45935.35
594.84	45895.56
594.99	46281.75
595.15	46057.06
595.31	46588.36
595.47	45998.55
595.62	46089.83
595.78	46174.09
595.94	46251.33
596.10	45977.48
596.25	46050.04
596.41	45558.53
596.57	45593.64
596.73	46061.74
596.88	45640.45
597.04	45925.99
597.20	45914.29
597.36	46148.34
597.51	46244.30
597.67	46028.98
597.83	45982.16
597.99	46321.54
598.14	46143.66
598.30	45918.97
598.46	45970.46
598.61	46202.18
598.77	46220.90
598.93	45869.82
599.09	46038.34
599.24	46326.22
599.40	46323.88
599.56	46574.32
599.71	46328.56
599.87	46286.43
600.03	46202.18
600.18	46057.06
600.34	45879.18
600.50	45984.51
600.65	45902.59
600.81	46014.93
600.97	46183.45
601.12	46480.70
601.28	45705.98
601.44	46087.49
601.59	45923.65
601.75	45500.01
601.91	46021.95
602.06	46349.63
602.22	45998.55
602.37	46387.08
602.53	46562.62
602.69	46328.56
602.84	46103.87
603.00	45876.84
603.16	45696.62
603.31	45736.41
603.47	45823.01
603.62	45600.66
603.78	46138.98
603.94	46316.86
604.09	46050.04
604.25	45900.25
604.40	46012.59
604.56	46164.73
604.71	46452.61
604.87	45907.27
605.03	46050.04
605.18	45689.60
605.34	45834.71
605.49	45787.90
605.65	45996.21
605.80	45764.49
605.96	45844.07
606.12	45773.86
606.27	45918.97
606.43	45375.97
606.58	46073.45
606.74	45776.20
606.89	45944.72
607.05	46248.99
607.20	45743.43
607.36	45867.48
607.51	45794.92
607.67	45855.78
607.82	45752.79
607.98	45656.83
608.13	45511.72
608.29	45675.55
608.44	45624.06
608.60	45343.20
608.75	45741.09
608.91	45528.10
609.06	45380.65
609.22	45422.78
609.37	45497.67
609.53	45361.92
609.68	45626.40
609.84	45794.92
609.99	45027.23
610.15	45099.78
610.30	45263.62
610.46	45078.72
610.61	45811.31
610.76	45392.35
610.92	45315.11
611.07	45249.58
611.23	45467.25
611.38	45394.69
611.54	44931.26
611.69	45280.00
611.84	45095.10
612.00	45228.51
612.15	45504.70
612.31	45155.96
612.46	45326.81
612.62	45071.70
612.77	45399.37
612.92	45460.23
613.08	45017.86
613.23	44938.29
613.39	44849.35
613.54	44809.56
613.69	44996.80
613.85	44423.37
614.00	44968.71
614.15	45247.24
614.31	44832.96
614.46	45015.52
614.62	44713.59
614.77	44823.60
614.92	44392.94
615.08	44746.36
615.23	44725.30
615.38	44699.55
615.54	44428.05
615.69	44425.71
615.84	44549.76
616.00	44247.83
616.15	44451.45
616.30	44825.94
616.46	44289.96
616.61	43971.64
616.76	44044.20
616.92	44456.14
617.07	44378.90
617.22	44573.16
617.37	44491.24
617.53	44636.36
617.68	44217.40
617.83	44692.53
617.99	44130.80
618.14	44577.84
618.29	44041.86
618.45	44023.14
618.60	44025.48
618.75	44039.52
618.90	43536.30
619.06	43924.83
619.21	44009.09
619.36	43929.51
619.51	44140.16
619.67	43442.68
619.82	44098.03
619.97	44013.77
620.12	43833.55
620.28	43100.97
620.43	43889.73
620.58	44179.95
620.73	44147.18
620.89	43849.94
621.04	44161.23
621.19	44268.89
621.34	43763.34
621.49	43594.82
621.65	43810.15
621.80	43665.03
621.95	43524.60
622.10	43910.79
622.25	43328.00
622.41	43405.23
622.56	43325.66
622.71	43716.53
622.86	43470.77
623.01	43423.96
623.16	43573.75
623.32	43117.35
623.47	43346.72
623.62	42813.08
623.77	43232.04
623.92	43143.09
624.07	43405.23
624.23	42693.71
624.38	42916.06
624.53	43093.94
624.68	43005.00
624.83	42909.04
624.98	43023.73
625.13	42232.63
625.29	43086.92
625.44	43091.60
625.59	42703.07
625.74	42792.01
625.89	42351.99
626.04	42808.40
626.19	42644.56
626.34	42808.40
626.49	42871.59
626.65	42518.17
626.80	43124.37
626.95	42249.01
627.10	42506.47
627.25	42595.41
627.40	42438.59
627.55	42431.57
627.70	42553.28
627.85	42204.54
628.00	42609.45
628.15	42621.16
628.30	42401.14
628.45	42557.96
628.60	42574.34
628.76	42237.31
628.91	42218.58
629.06	42227.95
629.21	42354.33
629.36	42176.45
629.51	41942.40
629.66	42375.40
629.81	41930.70
629.96	41984.53
630.11	42227.95
630.26	42246.67
630.41	42309.86
630.56	42014.96
630.71	42394.12
630.86	42265.39
631.01	41834.74
631.16	41881.55
631.31	41713.03
631.46	41378.33
631.61	41457.91
631.76	42143.69
631.91	42120.28
632.06	42122.62
632.21	41801.97
632.36	41792.61
632.51	42061.77
632.66	41776.22
632.81	41453.23
632.96	41797.29
633.10	41256.62
633.25	41654.51
633.40	41329.18
633.55	41617.07
633.70	41682.60
633.85	41846.44
634.00	41516.42
634.15	41310.46
634.30	41666.22
634.45	41057.68
634.60	41270.67
634.75	41523.44
634.90	41001.50
635.05	41354.93
635.19	41214.49
635.34	41354.93
635.49	41235.56
635.64	41265.99
635.79	40737.02
635.94	41095.13
636.09	40882.14
636.24	40849.37
636.39	40488.93
636.53	40781.49
636.68	40308.71
636.83	40746.39
636.98	40868.09
637.13	40921.93
637.28	41221.52
637.43	41001.50
637.57	40865.75
637.72	40547.44
637.87	40722.98
638.02	40563.82
638.17	40950.01
638.32	40875.12
638.46	40287.64
638.61	40187.00
638.76	40238.49
638.91	40655.11
639.06	40591.91
639.20	40706.60
639.35	40692.55
639.50	40521.69
639.65	40416.37
639.80	40612.98
639.94	40645.74
640.09	40430.41
640.24	40554.46
640.39	40390.62
640.54	40067.63
640.68	40264.24
640.83	39763.36
640.98	39882.73
641.13	39564.42
641.27	40147.21
641.42	40002.10
641.57	39604.20
641.72	39950.60
641.86	39587.82
642.01	39871.03
642.16	39704.85
642.31	39695.49
642.45	40259.55
642.60	39433.35
642.75	39688.46
642.90	40058.27
643.04	39810.17
643.19	39826.56
643.34	39955.29
643.48	39470.79
643.63	39985.71
643.78	40051.25
643.93	39468.45
644.07	39454.41
644.22	39241.42
644.37	39239.08
644.51	39447.39
644.66	39505.90
644.81	39791.45
644.95	39426.32
645.10	39262.49
645.25	39206.31
645.39	39414.62
645.54	38857.57
645.69	39260.15
645.83	39122.05
645.98	39171.21
646.13	39178.23
646.27	38979.28
646.42	38607.14
646.57	39278.87
646.71	39105.67
646.86	38990.98
647.00	39367.81
647.15	38990.98
647.30	39070.56
647.44	39627.61
647.59	38848.21
647.74	38756.93
647.88	38703.10
648.03	38483.09
648.17	38696.08
648.32	38328.61
648.47	38817.78
648.61	38356.70
648.76	39077.58
648.90	38408.19
649.05	38934.81
649.20	38822.47
649.34	38663.31
649.49	38639.90
649.63	38838.85
649.78	38506.49
649.92	38279.46
650.07	38892.68
650.21	38319.25
650.36	38270.10
650.51	38464.36
650.65	39192.27
650.80	38986.30
650.94	38417.55
651.09	38253.72
651.23	38176.48
651.38	38064.13
651.52	37654.54
651.67	38171.80
651.81	38146.05
651.96	37715.39
652.10	38026.68
652.25	38183.50
652.39	38333.29
652.54	38462.02
652.68	38527.56
652.83	38265.42
652.97	38361.38
653.12	37914.34
653.26	37816.04
653.41	38181.16
653.55	38047.75
653.70	38178.82
653.84	38117.96
653.99	37909.66
654.13	37785.61
654.27	38206.90
654.42	37846.46
654.56	37596.03
654.71	38127.33
654.85	37682.62
655.00	37598.37
655.14	37638.15
655.29	37326.86
655.43	37050.68
655.57	37223.88
655.72	37298.78
655.86	37151.32
656.01	36809.61
656.15	36921.95
656.30	36739.39
656.44	37188.77
656.58	37156.00
656.73	36809.61
656.87	36629.38
657.01	36495.97
657.16	36924.29
657.30	36835.35
657.45	36917.27
657.59	36615.34
657.73	36914.93
657.88	37233.24
658.02	36856.42
658.16	36861.10
658.31	36809.61
658.45	37008.55
658.60	36760.45
658.74	37202.82
658.88	37078.77
659.03	36568.53
659.17	36510.02
659.31	36224.47
659.46	36416.40
659.60	36165.96
659.74	36531.08
659.89	36011.48
660.03	36268.94
660.17	36526.40
660.32	36512.36
660.46	36229.15
660.60	36566.19
660.74	36435.12
660.89	36346.18
661.03	36231.49
661.17	35995.10
661.32	36088.72
661.46	35747.00
661.60	35487.20
661.74	35929.56
661.89	35786.79
662.03	35709.55
662.17	35765.73
662.31	35541.03
662.46	35922.54
662.60	36245.54
662.74	35859.35
662.88	35468.48
663.03	35388.90
663.17	35314.00
663.31	35091.65
663.45	35391.24
663.60	35592.53
663.74	34857.60
663.88	35112.72
664.02	34930.16
664.17	34829.51
664.31	34998.03
664.45	35222.72
664.59	34536.94
664.73	35044.84
664.88	34906.75
665.02	34515.88
665.16	34422.26
665.30	34242.04
665.44	34726.53
665.59	34272.46
665.73	34637.59
665.87	34412.90
666.01	34490.13
666.15	34342.68
666.29	34134.37
666.44	34305.23
666.58	34426.94
666.72	34382.47
666.86	33916.70
667.00	34450.35
667.14	34038.41
667.28	33848.83
667.43	33565.62
667.57	34007.98
667.71	33549.24
667.85	34019.69
667.99	33865.21
668.13	33989.26
668.27	33649.88
668.41	34047.77
668.56	33457.96
668.70	33275.40
668.84	33631.16
668.98	33226.24
669.12	33387.74
669.26	33369.02
669.40	33139.65
669.54	32950.06
669.68	32797.93
669.82	32917.29
669.96	32659.84
670.10	32568.55
670.25	32741.75
670.39	32952.40
670.53	32669.20
670.67	32463.23
670.81	32451.53
670.95	32126.19
671.09	32577.92
671.23	32598.98
671.37	32107.47
671.51	32252.58
671.65	32271.31
671.79	32283.01
671.93	31950.65
672.07	32011.51
672.21	31625.32
672.35	31723.62
672.49	31732.98
672.63	31672.13
672.77	31744.69
672.91	31950.65
673.05	31400.63
673.19	31241.47
673.33	31508.29
673.47	30904.43
673.61	31204.02
673.75	31323.39
673.89	31079.97
674.03	30941.88
674.17	30721.87
674.31	31276.58
674.45	31129.12
674.59	31110.40
674.73	31211.04
674.87	31192.32
675.01	30785.07
675.15	30848.26
675.29	30618.89
675.43	30298.23
675.56	30396.54
675.70	30312.28
675.84	30785.07
675.98	29369.04
676.12	30085.25
676.26	30146.10
676.40	30312.28
676.54	30195.25
676.68	30003.33
676.82	29118.60
676.96	29914.39
677.10	29418.19
677.23	29598.41
677.37	29460.32
677.51	29177.12
677.65	29076.48
677.79	28816.68
677.93	28793.27
678.07	28917.32
678.21	28254.95
678.34	28411.76
678.48	28503.04
678.62	28086.43
678.76	28348.57
678.90	27943.66
679.04	28081.75
679.18	28086.43
679.31	27370.22
679.45	27484.91
679.59	27922.59
679.73	27807.90
679.87	27662.79
680.00	27372.57
680.14	27817.27
680.28	27187.66
680.42	27243.84
680.56	27711.94
680.70	27318.73
680.83	27166.60
680.97	26888.07
681.11	26874.03
681.25	26693.81
681.39	26672.74
681.52	26635.30
681.66	26806.16
681.80	26525.29
681.94	26459.76
682.07	26260.81
682.21	26679.77
682.35	26361.45
682.49	25874.62
682.62	25907.39
682.76	25989.31
682.90	25645.25
683.04	25708.44
683.17	25869.94
683.31	25600.78
683.45	25956.54
683.59	25333.96
683.72	25682.70
683.86	25661.63
684.00	24868.19
684.13	24863.51
684.27	24893.94
684.41	24835.42
684.55	24840.11
684.68	24840.11
684.82	24643.50
684.96	24650.52
685.09	24673.93
685.23	24606.05
685.37	24306.46
685.50	24400.08
685.64	24149.65
685.78	24397.74
685.91	23903.89
686.05	24063.05
686.19	23325.78
686.32	23892.19
686.46	23337.48
686.60	23332.80
686.73	23159.60
686.87	23175.98
687.01	23126.83
687.14	22670.43
687.28	22668.09
687.42	22906.82
687.55	22780.43
687.69	22855.33
687.82	22726.60
687.96	23028.53
688.10	22544.04
688.23	22651.70
688.37	22485.53
688.50	22188.28
688.64	22015.08
688.78	22422.33
688.91	21586.76
689.05	21895.71
689.18	21436.97
689.32	21607.83
689.46	21699.11
689.59	21905.07
689.73	21652.30
689.86	21308.24
690.00	21273.13
690.13	21568.04
690.27	21193.55
690.41	21343.35
690.54	21263.77
690.68	21256.75
690.81	21032.05
690.95	21029.71
691.08	21104.61
691.22	21172.49
691.35	20718.42
691.49	20980.56
691.62	20779.28
691.76	20601.40
691.89	20287.76
692.03	20486.71
692.16	20657.57
692.30	20194.14
692.43	20175.42
692.57	20107.54
692.70	19733.06
692.84	19836.04
692.97	19419.42
693.11	19644.12
693.24	19393.68
693.38	19501.34
693.51	19637.09
693.65	19330.48
693.78	19506.02
693.92	19246.23
694.05	19145.58
694.19	18881.10
694.32	19323.46
694.45	19152.60
694.59	18874.08
694.72	18895.14
694.86	18787.48
694.99	18452.78
695.13	18829.61
695.26	18382.57
695.39	18663.43
695.53	18431.72
695.66	18197.67
695.80	18188.30
695.93	18279.58
696.07	17905.10
696.20	18256.18
696.33	17874.67
696.47	17942.55
696.60	17823.18
696.73	17820.84
696.87	17523.59
697.00	17577.42
697.14	17476.78
697.27	17261.45
697.40	17207.62
697.54	16978.25
697.67	17001.65
697.80	17097.61
697.94	16982.93
698.07	16734.83
698.21	17109.32
698.34	16805.05
698.47	16678.66
698.61	16484.39
698.74	16629.51
698.87	16472.69
699.01	16133.31
699.14	16266.72
699.27	16329.92
699.40	16243.32
699.54	16217.57
699.67	15981.18
699.80	16114.59
699.94	15915.64
700.07	16114.59
700.20	15592.65
700.34	15747.12
700.47	15873.51
700.60	15611.37
700.73	15740.10
700.87	15580.95
701.00	15452.22
701.13	15367.96
701.26	15173.69
701.40	15178.37
701.53	15007.52
701.66	15005.17
701.79	15070.71
701.93	14860.06
702.06	14867.08
702.19	14761.76
702.32	15012.20
702.46	15138.58
702.59	14738.35
702.72	14682.18
702.85	14600.26
702.99	14382.59
703.12	14611.96
703.25	14204.71
703.38	14284.29
703.51	14253.86
703.65	14057.26
703.78	13987.04
703.91	13781.07
704.04	13980.02
704.17	13937.89
704.31	13958.96
704.44	13757.67
704.57	13860.65
704.70	13411.27
704.83	13465.10
704.96	13671.07
705.10	13348.08
705.23	13387.86
>>>>>End Processed Spectral Data<<<<<
