SpectraSuite Data File
++++++++++++++++++++++++++++++++++++
Date: Fri Oct 25 11:34:43 EDT 2013
User: price-jones
Dark Spectrum Present: No
Reference Spectrum Present: No
Number of Sampled Component Spectra: 1
Spectrometers: USB2+H05261
Integration Time (usec): 100000 (USB2+H05261)
Spectra Averaged: 1 (USB2+H05261)
Boxcar Smoothing: 0 (USB2+H05261)
Correct for Electrical Dark: No (USB2+H05261)
Strobe/Lamp Enabled: No (USB2+H05261)
Correct for Detector Non-linearity: No (USB2+H05261)
Correct for Stray Light: No (USB2+H05261)
Number of Pixels in Processed Spectrum: 2048
>>>>>Begin Processed Spectral Data<<<<<
365.73	320.65
365.92	320.65
366.12	320.65
366.32	159.16
366.52	210.65
366.72	198.95
366.91	140.43
367.11	142.77
367.31	140.43
367.51	152.13
367.70	166.18
367.90	227.03
368.10	196.60
368.30	198.95
368.49	170.86
368.69	248.10
368.89	147.45
369.09	175.54
369.28	227.03
369.48	198.95
369.68	224.69
369.87	227.03
370.07	234.05
370.27	220.01
370.47	339.38
370.66	442.36
370.86	414.27
371.06	566.41
371.25	596.84
371.45	533.64
371.65	538.32
371.84	589.82
372.04	512.58
372.24	608.54
372.44	610.88
372.63	585.13
372.83	535.98
373.03	547.69
373.22	629.60
373.42	641.31
373.62	547.69
373.81	599.18
374.01	620.24
374.21	585.13
374.40	685.78
374.60	688.12
374.79	603.86
374.99	615.56
375.19	627.26
375.38	599.18
375.58	711.52
375.78	716.20
375.97	681.10
376.17	678.76
376.37	613.22
376.56	741.95
376.76	631.94
376.95	634.29
377.15	674.07
377.35	624.92
377.54	688.12
377.74	627.26
377.93	568.75
378.13	674.07
378.33	702.16
378.52	737.27
378.72	720.88
378.91	683.44
379.11	650.67
379.31	711.52
379.50	648.33
379.70	781.74
379.89	734.93
380.09	748.97
380.28	697.48
380.48	786.42
380.68	723.23
380.87	702.16
381.07	662.37
381.26	727.91
381.46	732.59
381.65	781.74
381.85	812.17
382.04	713.86
382.24	732.59
382.43	727.91
382.63	826.21
382.83	866.00
383.02	765.36
383.22	798.12
383.41	739.61
383.61	763.01
383.80	777.06
384.00	823.87
384.19	819.19
384.39	816.85
384.58	814.51
384.78	734.93
384.97	795.78
385.17	929.19
385.36	802.80
385.56	847.27
385.75	699.82
385.95	809.83
386.14	917.49
386.34	837.91
386.53	821.53
386.72	770.04
386.92	873.02
387.11	840.25
387.31	873.02
387.50	868.34
387.70	889.40
387.89	896.43
388.09	898.77
388.28	896.43
388.48	961.96
388.67	971.32
388.86	898.77
389.06	931.53
389.25	950.26
389.45	884.72
389.64	903.45
389.84	922.17
390.03	875.36
390.22	844.93
390.42	882.38
390.61	954.94
390.81	964.30
391.00	891.74
391.19	971.32
391.39	957.28
391.58	992.39
391.78	990.05
391.97	929.19
392.16	917.49
392.36	990.05
392.55	1008.77
392.75	1036.86
392.94	1057.92
393.13	1074.31
393.33	1018.13
393.52	1034.52
393.71	1046.22
393.91	987.71
394.10	1018.13
394.29	1090.69
394.49	1057.92
394.68	1069.62
394.88	1034.52
395.07	1067.28
395.26	1046.22
395.46	1107.07
395.65	1121.12
395.84	1055.58
396.04	1238.14
396.23	1163.25
396.42	1151.54
396.62	1177.29
396.81	1165.59
397.00	1167.93
397.19	1207.72
397.39	1146.86
397.58	1238.14
397.77	1235.80
397.97	1207.72
398.16	1179.63
398.35	1254.53
398.55	1184.31
398.74	1217.08
398.93	1284.95
399.12	1226.44
399.32	1200.69
399.51	1324.74
399.70	1336.45
399.90	1331.76
400.09	1273.25
400.28	1317.72
400.47	1383.26
400.67	1451.13
400.86	1446.45
401.05	1392.62
401.24	1357.51
401.44	1387.94
401.63	1411.34
401.82	1434.75
402.01	1394.96
402.21	1493.26
402.40	1416.02
402.59	1406.66
402.78	1465.18
402.97	1519.01
403.17	1614.97
403.36	1556.46
403.55	1458.15
403.74	1591.56
403.93	1458.15
404.13	1483.90
404.32	1465.18
404.51	1497.94
404.70	1638.38
404.89	1516.67
405.09	1654.76
405.28	1727.32
405.47	1572.84
405.66	1640.72
405.85	1739.02
406.05	1673.48
406.24	1682.85
406.43	1699.23
406.62	1629.01
406.81	1694.55
407.00	1598.59
407.20	1689.87
407.39	1760.08
407.58	1823.28
407.77	1813.92
407.96	1757.74
408.15	1764.76
408.34	1816.26
408.54	1797.53
408.73	1811.57
408.92	1778.81
409.11	1933.28
409.30	1937.96
409.49	1872.43
409.68	1902.86
409.87	1898.17
410.07	1940.30
410.26	2022.22
410.45	1980.09
410.64	2019.88
410.83	2010.52
411.02	2045.63
411.21	2047.97
411.40	2113.50
411.59	2040.95
411.78	2085.42
411.98	2050.31
412.17	2155.63
412.36	2080.74
412.55	2134.57
412.74	2106.48
412.93	2195.42
413.12	2258.62
413.31	2310.11
413.50	2244.57
413.69	2368.62
413.88	2263.30
414.07	2392.03
414.26	2394.37
414.45	2480.97
414.64	2466.92
414.83	2485.65
415.02	2548.84
415.22	2441.18
415.41	2546.50
415.60	2602.68
415.79	2544.16
415.98	2635.44
416.17	2567.57
416.36	2663.53
416.55	2614.38
416.74	2609.70
416.93	2579.27
417.12	2626.08
417.31	2722.04
417.50	2792.26
417.69	2764.17
417.88	2928.01
418.07	2820.35
418.26	2806.30
418.45	2818.00
418.64	2930.35
418.83	2991.20
419.02	2850.77
419.21	2963.12
419.39	2937.37
419.58	2925.67
419.77	2888.22
419.96	3026.31
420.15	3038.02
420.34	3005.25
420.53	3108.23
420.72	3049.72
420.91	2986.52
421.10	3087.17
421.29	3171.43
421.48	3087.17
421.67	3173.77
421.86	3091.85
422.05	3105.89
422.24	3178.45
422.43	3286.11
422.61	3119.93
422.80	3206.53
422.99	3286.11
423.18	3220.58
423.37	3358.67
423.56	3431.23
423.75	3169.09
423.94	3180.79
424.13	3026.31
424.32	3145.68
424.50	3211.22
424.69	3318.88
424.88	3424.20
425.07	3105.89
425.26	3075.46
425.45	3309.52
425.64	3330.58
425.83	3251.00
426.01	3328.24
426.20	3243.98
426.39	3274.41
426.58	3372.71
426.77	3307.18
426.96	3396.12
427.15	3307.18
427.33	3419.52
427.52	3328.24
427.71	3520.17
427.90	3323.56
428.09	3414.84
428.28	3449.95
428.46	3480.38
428.65	3473.36
428.84	3726.13
429.03	3606.77
429.22	3506.12
429.40	3548.25
429.59	3585.70
429.78	3485.06
429.97	3492.08
430.16	3676.98
430.34	3723.79
430.53	3641.87
430.72	3712.09
430.91	3658.26
431.10	3478.04
431.28	3751.88
431.47	3786.99
431.66	3939.12
431.85	3798.69
432.03	3845.50
432.22	3946.14
432.41	3833.80
432.60	3843.16
432.79	3765.92
432.97	3904.01
433.16	3915.72
433.35	3796.35
433.54	3913.38
433.72	3934.44
433.91	4028.06
434.10	3988.27
434.28	3953.16
434.47	4002.32
434.66	4049.13
434.85	4086.58
435.03	4128.70
435.22	4177.86
435.41	4154.45
435.59	4159.13
435.78	4273.82
435.97	4224.67
436.16	4203.60
436.34	4140.41
436.53	4138.07
436.72	4327.65
436.90	4276.16
437.09	4280.84
437.28	4161.47
437.46	4201.26
437.65	4241.05
437.84	4409.57
438.02	4269.14
438.21	4421.27
438.40	4236.37
438.58	4337.01
438.77	4383.82
438.96	4535.96
439.14	4662.35
439.33	4669.37
439.52	4641.28
439.70	4741.93
439.89	4854.27
440.08	4809.80
440.26	4816.82
440.45	4737.24
440.63	4739.58
440.82	4954.91
441.01	4875.34
441.19	4947.89
441.38	4968.96
441.57	4858.95
441.75	5078.96
441.94	5090.67
442.12	5139.82
442.31	5172.58
442.50	5107.05
442.68	5050.88
442.87	5125.77
443.05	5203.01
443.24	5322.38
443.43	5263.86
443.61	5273.23
443.80	5401.96
443.98	5191.31
444.17	5118.75
444.35	5294.29
444.54	5404.30
444.73	5132.79
444.91	5348.12
445.10	5348.12
445.28	5401.96
445.47	5284.93
445.65	5408.98
445.84	5427.70
446.02	5310.68
446.21	5430.04
446.39	5392.59
446.58	5378.55
446.77	5621.97
446.95	5249.82
447.14	5376.21
447.32	5364.51
447.51	5437.06
447.69	5369.19
447.88	5638.35
448.06	5502.60
448.25	5472.17
448.43	5523.66
448.62	5614.95
448.80	5425.36
448.99	5451.11
449.17	5507.28
449.36	5537.71
449.54	5621.97
449.73	5757.72
449.91	5682.82
450.10	5607.92
450.28	5729.63
450.46	5891.13
450.65	5760.06
450.83	5949.64
451.02	5799.85
451.20	5895.81
451.39	5837.30
451.57	5933.26
451.76	5804.53
451.94	5832.62
452.13	5949.64
452.31	6022.20
452.49	5907.51
452.68	5919.21
452.86	5954.32
453.05	6127.52
453.23	6073.69
453.42	6061.99
453.60	6120.50
453.78	6176.67
453.97	6026.88
454.15	6010.50
454.34	6111.14
454.52	6209.44
454.70	6071.35
454.89	6122.84
455.07	6256.25
455.26	6249.23
455.44	6377.96
455.62	6455.20
455.81	6317.11
455.99	6265.61
456.17	6345.19
456.36	6443.49
456.54	6448.18
456.73	6527.75
456.91	6782.87
457.09	6684.57
457.28	6726.70
457.46	6607.33
457.64	6806.28
457.83	6661.16
458.01	6572.22
458.19	6766.49
458.38	6469.24
458.56	6759.47
458.74	6956.07
458.93	6612.01
459.11	6782.87
459.29	7007.56
459.48	6944.37
459.66	6820.32
459.84	6810.96
460.03	7124.59
460.21	6918.62
460.39	6949.05
460.57	7082.46
460.76	7002.88
460.94	7119.91
461.12	7115.23
461.31	7028.63
461.49	7215.87
461.67	7080.12
461.85	7187.79
462.04	7096.50
462.22	7227.57
462.40	7454.61
462.59	7461.63
462.77	7297.79
462.95	7293.11
463.13	7229.91
463.32	7431.20
463.50	7573.97
463.68	7527.16
463.86	7669.94
464.05	7396.09
464.23	7492.05
464.41	7588.02
464.59	7496.74
464.78	7756.54
464.96	7456.95
465.14	7599.72
465.32	7730.79
465.50	7588.02
465.69	7613.76
465.87	7630.15
466.05	7555.25
466.23	7740.15
466.41	7920.37
466.60	7899.31
466.78	7817.39
466.96	7819.73
467.14	7623.12
467.32	7894.63
467.51	7782.28
467.69	7716.75
467.87	7939.10
468.05	8063.15
468.23	7822.07
468.41	7929.74
468.60	7850.16
468.78	7981.23
468.96	7969.52
469.14	8039.74
469.32	8138.04
469.50	8023.36
469.69	8177.83
469.87	8250.39
470.05	8226.98
470.23	8374.44
470.41	8264.43
470.59	8259.75
470.77	8229.32
470.95	8451.67
471.14	8456.36
471.32	8379.12
471.50	8507.85
471.68	8659.98
471.86	8519.55
472.04	8498.49
472.22	8926.80
472.40	8746.58
472.58	8664.66
472.77	8674.03
472.95	8795.73
473.13	8924.46
473.31	8856.59
473.49	8901.06
473.67	8882.33
473.85	8924.46
474.03	9238.09
474.21	9048.51
474.39	9245.12
474.57	9434.70
474.75	9186.60
474.93	9254.48
475.12	9472.15
475.30	9504.92
475.48	9289.59
475.66	9607.90
475.84	9458.10
476.02	9689.82
476.20	9713.22
476.38	9891.10
476.56	10061.96
476.74	9818.55
476.92	10174.31
477.10	9769.40
477.28	9982.38
477.46	10223.46
477.64	10120.48
477.82	10286.65
478.00	10782.85
478.18	10803.91
478.36	10345.17
478.54	10733.70
478.72	10689.23
478.90	10771.15
479.08	10944.34
479.26	11063.71
479.44	11070.73
479.62	11211.17
479.80	11204.14
479.98	11351.60
480.16	11517.78
480.34	11709.70
480.52	11573.95
480.70	11630.12
480.88	11470.97
481.06	11545.86
481.24	11609.06
481.41	12058.44
481.59	11971.84
481.77	11978.86
481.95	12327.60
482.13	12313.56
482.31	12400.16
482.49	12423.56
482.67	12561.66
482.85	12727.83
483.03	12769.96
483.21	12772.30
483.39	12957.21
483.57	12851.88
483.74	13121.04
483.92	13355.10
484.10	12840.18
484.28	13467.44
484.46	13687.45
484.64	13905.12
484.82	13460.42
485.00	14022.15
485.18	13722.56
485.35	14298.33
485.53	14115.77
485.71	14221.10
485.89	14534.73
486.07	14628.35
486.25	14724.31
486.43	14761.76
486.61	14920.92
486.78	14815.59
486.96	14801.55
487.14	15087.09
487.32	15220.50
487.50	15286.04
487.68	15463.92
487.85	15676.91
488.03	15971.82
488.21	16016.29
488.39	15815.00
488.57	16149.70
488.75	16170.76
488.92	16287.79
489.10	16531.20
489.28	16423.54
489.46	16819.09
489.64	16765.26
489.81	17050.80
489.99	17132.72
490.17	17427.63
490.35	17214.64
490.53	17284.86
490.70	17441.67
490.88	17226.34
491.06	17912.12
491.24	17961.27
491.41	18097.02
491.59	18174.26
491.77	18253.84
491.95	18087.66
492.13	18178.94
492.30	18494.91
492.48	18586.19
492.66	18551.09
492.84	18897.49
493.01	18916.21
493.19	19215.80
493.37	19168.99
493.54	19314.10
493.72	19173.67
493.90	19328.14
494.08	19812.63
494.25	19660.50
494.43	19810.29
494.61	20020.94
494.79	20280.74
494.96	20329.89
495.14	20144.99
495.32	20615.44
495.49	20547.56
495.67	20575.65
495.85	20842.47
496.02	21050.78
496.20	20751.19
496.38	21172.49
496.55	21198.23
496.73	21532.93
496.91	21317.60
497.09	21558.67
497.26	21474.42
497.44	21511.86
497.62	21879.33
497.79	22195.30
497.97	22150.83
498.14	22253.81
498.32	22333.39
498.50	22122.74
498.67	22544.04
498.85	22164.87
499.03	22855.33
499.20	22623.62
499.38	22913.84
499.56	23183.01
499.73	23225.14
499.91	23449.83
500.08	23016.83
500.26	23318.76
500.44	23351.52
500.61	23721.33
500.79	23316.42
500.97	23571.54
501.14	23976.45
501.32	23976.45
501.49	23667.50
501.67	24093.47
501.84	24051.34
502.02	23917.93
502.20	24320.51
502.37	24013.90
502.55	24149.65
502.72	24407.11
502.90	24437.53
503.07	24283.06
503.25	24767.55
503.43	24617.75
503.60	24568.60
503.78	24596.69
503.95	24896.28
504.13	24926.71
504.30	25020.33
504.48	25362.04
504.65	25001.60
504.83	25130.33
505.01	25685.04
505.18	25516.52
505.36	25649.93
505.53	25776.32
505.71	25979.95
505.88	25942.50
506.06	25603.12
506.23	26366.13
506.41	25788.02
506.58	26101.65
506.76	26340.39
506.93	26555.72
507.11	26391.88
507.28	26639.98
507.46	26567.42
507.63	26623.59
507.81	26859.99
507.98	26529.97
508.16	26670.40
508.33	27054.25
508.50	26892.76
508.68	26775.73
508.85	27241.50
509.03	27016.80
509.20	27250.86
509.38	27440.44
509.55	27466.19
509.73	27686.20
509.90	27850.03
510.08	27356.18
510.25	27789.18
510.42	27768.12
510.60	27995.15
510.77	28350.91
510.95	28388.36
511.12	28231.54
511.30	28371.97
511.47	28411.76
511.64	28376.66
511.82	28648.16
511.99	28657.52
512.17	28713.69
512.34	28711.35
512.51	28629.43
512.69	28947.75
512.86	28863.49
513.04	29078.82
513.21	29057.75
513.38	29181.80
513.56	29439.26
513.73	29022.64
513.90	29771.61
514.08	28987.53
514.25	29696.72
514.43	29376.06
514.60	29244.99
514.77	29600.76
514.95	29825.45
515.12	29624.16
515.29	29771.61
515.47	29872.26
515.64	30031.41
515.81	30132.06
515.99	30288.87
516.16	30637.61
516.33	30480.80
516.51	30543.99
516.68	30543.99
516.85	30677.40
517.03	30642.29
517.20	30845.92
517.37	30785.07
517.54	31108.06
517.72	30874.01
517.89	30848.26
518.06	31021.46
518.24	30890.39
518.41	31161.89
518.58	30831.88
518.75	31225.09
518.93	31417.01
519.10	31496.59
519.27	31690.85
519.45	31484.89
519.62	31793.84
519.79	31889.80
519.96	31850.01
520.14	32215.13
520.31	31896.82
520.48	32362.59
520.65	32072.36
520.83	32491.32
521.00	32966.45
521.17	32378.97
521.34	32341.52
521.52	32236.20
521.69	32388.33
521.86	32402.38
522.03	33090.49
522.20	32931.34
522.38	33109.22
522.55	33277.74
522.72	33102.20
522.89	32725.37
523.07	33275.40
523.24	33226.24
523.41	33184.12
523.58	33219.22
523.75	33219.22
523.92	33200.50
524.10	33923.72
524.27	33802.02
524.44	33626.48
524.61	34003.30
524.78	34176.50
524.96	34209.27
525.13	34050.11
525.30	34007.98
525.47	34054.79
525.64	33905.00
525.81	33902.66
525.98	34277.15
526.16	33905.00
526.33	34560.35
526.50	34726.53
526.67	34188.21
526.84	34286.51
527.01	34497.16
527.18	34513.54
527.36	34630.57
527.53	34326.30
527.70	35393.58
527.87	34749.93
528.04	34824.83
528.21	35103.35
528.38	34632.91
528.55	34808.45
528.72	35208.68
528.89	35227.40
529.07	35196.98
529.24	34967.60
529.41	35227.40
529.58	35187.61
529.75	35056.54
529.92	35658.06
530.09	35351.45
530.26	35562.10
530.43	35934.24
530.60	35665.08
530.77	35384.22
530.94	35826.58
531.11	35868.71
531.28	35428.69
531.46	35894.46
531.63	35779.77
531.80	36189.36
531.97	36128.51
532.14	36072.34
532.31	36034.89
532.48	36617.68
532.65	36360.22
532.82	36135.53
532.99	36524.06
533.16	36165.96
533.33	36627.04
533.50	36692.58
533.67	36282.98
533.84	36208.09
534.01	36254.90
534.18	36460.87
534.35	37303.46
534.52	36655.13
534.69	37338.57
534.86	37163.03
535.03	36690.24
535.20	37287.07
535.37	37385.38
535.54	36957.06
535.71	37408.78
535.88	37141.96
536.05	37022.59
536.22	37841.78
536.38	37949.45
536.55	37160.69
536.72	37542.19
536.89	37474.32
537.06	37261.33
537.23	37731.78
537.40	37661.56
537.57	37177.07
537.74	37670.92
537.91	38010.30
538.08	37567.94
538.25	37944.76
538.42	38246.69
538.59	38115.62
538.75	37703.69
538.92	38223.29
539.09	38260.74
539.26	37982.21
539.43	38321.59
539.60	37940.08
539.77	38330.95
539.94	38380.10
540.11	38305.21
540.28	38621.18
540.44	38534.58
540.61	38029.02
540.78	38394.15
540.95	38724.16
541.12	38352.02
541.29	38129.67
541.46	38368.40
541.62	38754.59
541.79	38862.26
541.96	38408.19
542.13	38543.94
542.30	38426.92
542.47	38670.33
542.63	39452.07
542.80	39321.00
542.97	39697.83
543.14	39665.06
543.31	39332.70
543.48	39798.47
543.64	39791.45
543.81	39611.23
543.98	39557.39
544.15	39707.19
544.32	40027.84
544.48	39936.56
544.65	39793.79
544.82	39901.45
544.99	39686.12
545.16	39531.65
545.32	39672.08
545.49	40165.93
545.66	40474.88
545.83	40357.86
546.00	40233.81
546.16	39887.41
546.33	40334.45
546.50	39629.95
546.67	40311.05
546.83	39999.76
547.00	40247.85
547.17	39590.16
547.34	40280.62
547.50	40236.15
547.67	40538.08
547.84	40657.45
548.00	40634.04
548.17	40746.39
548.34	40701.92
548.51	41015.55
548.67	41132.57
548.84	40734.68
549.01	40652.76
549.18	40947.67
549.34	40971.08
549.51	40992.14
549.68	41198.11
549.84	40942.99
550.01	41116.19
550.18	40776.81
550.34	41081.08
550.51	40942.99
550.68	41518.76
550.84	40732.34
551.01	41317.48
551.18	40959.38
551.34	41383.01
551.51	41642.81
551.68	40825.96
551.84	41357.27
552.01	41235.56
552.18	41675.58
552.34	41273.01
552.51	41837.08
552.68	41441.53
552.84	41586.64
553.01	41511.74
553.18	41471.95
553.34	41972.83
553.51	41404.08
553.67	41722.39
553.84	42267.73
554.01	41893.25
554.17	41598.34
554.34	42433.91
554.51	41638.13
554.67	42108.58
554.84	42174.11
555.00	42277.10
555.17	41886.23
555.33	42244.33
555.50	42314.55
555.67	42026.66
555.83	42068.79
556.00	42230.29
556.16	42784.99
556.33	42263.05
556.50	42281.78
556.66	42548.60
556.83	42199.86
556.99	42983.94
557.16	42572.00
557.32	42377.74
557.49	42972.24
557.65	42871.59
557.82	42347.31
557.98	42803.72
558.15	42705.41
558.32	42644.56
558.48	42295.82
558.65	42349.65
558.81	42817.76
558.98	42866.91
559.14	42852.87
559.31	42815.42
559.47	42939.47
559.64	42941.81
559.80	42880.95
559.97	43129.05
560.13	42520.51
560.30	42801.38
560.46	42866.91
560.63	42890.32
560.79	43021.39
560.96	43007.34
561.12	43063.52
561.29	43119.69
561.45	42850.53
561.61	43187.56
561.78	43089.26
561.94	43107.99
562.11	42974.58
562.27	43428.64
562.44	43047.13
562.60	43133.73
562.77	43615.88
562.93	43325.66
563.10	43620.56
563.26	43091.60
563.42	43519.92
563.59	43227.35
563.75	43945.90
563.92	42958.19
564.08	43360.76
564.24	43421.62
564.41	43496.52
564.57	43159.48
564.74	43580.78
564.90	43690.78
565.07	43360.76
565.23	43498.86
565.39	43377.15
565.56	43641.63
565.72	43243.74
565.88	43555.03
566.05	43576.09
566.21	43812.49
566.38	43650.99
566.54	43847.60
566.70	43667.37
566.87	43658.01
567.03	43629.93
567.19	43697.80
567.36	43288.21
567.52	43805.47
567.68	43948.24
567.85	43777.38
568.01	44378.90
568.17	43704.82
568.34	44107.40
568.50	43931.86
568.66	43662.69
568.83	44144.84
568.99	44046.54
569.15	43863.98
569.32	43690.78
569.48	43997.39
569.64	44264.21
569.81	43931.86
569.97	43739.93
570.13	43894.41
570.30	43700.14
570.46	44184.63
570.62	44168.25
570.78	43807.81
570.95	43543.33
571.11	44563.80
571.27	43817.17
571.43	43899.09
571.60	44364.85
571.76	43995.05
571.92	44039.52
572.09	44151.87
572.25	44140.16
572.41	43966.96
572.57	44285.28
572.74	44612.95
572.90	44076.97
573.06	44086.33
573.22	44512.31
573.38	44835.30
573.55	44500.61
573.71	44402.30
573.87	44245.49
574.03	44388.26
574.20	44687.85
574.36	44292.30
574.52	44280.60
574.68	44554.44
574.84	44687.85
575.01	44868.07
575.17	44346.13
575.33	44481.88
575.49	44245.49
575.65	44905.52
575.82	44252.51
575.98	44182.29
576.14	44807.22
576.30	44882.11
576.46	44556.78
576.62	44844.66
576.79	44584.86
576.95	44128.46
577.11	44416.35
577.27	44423.37
577.43	44619.97
577.59	44465.50
577.75	44140.16
577.92	44051.22
578.08	44254.85
578.24	44832.96
578.40	44514.65
578.56	44505.29
578.72	44762.75
578.88	44900.84
579.04	44561.46
579.21	44683.17
579.37	44666.78
579.53	44680.83
579.69	44509.97
579.85	45036.59
580.01	44430.39
580.17	44346.13
580.33	44240.81
580.49	44643.38
580.65	44669.12
580.82	44531.03
580.98	44753.38
581.14	43943.56
581.30	44556.78
581.46	44624.65
581.62	44453.79
581.78	44809.56
581.94	44996.80
582.10	44947.65
582.26	44814.24
582.42	44624.65
582.58	44872.75
582.74	44622.31
582.90	44425.71
583.06	44385.92
583.22	44416.35
583.38	44722.96
583.54	45043.61
583.70	44804.88
583.86	44816.58
584.02	44612.95
584.18	45179.36
584.34	44507.63
584.50	44938.29
584.66	44882.11
584.82	44404.64
584.98	44900.84
585.14	44601.25
585.30	45074.04
585.46	44692.53
585.62	44680.83
585.78	44868.07
585.94	44793.17
586.10	44437.41
586.26	44538.05
586.42	44783.81
586.58	45008.50
586.74	44282.94
586.90	44741.68
587.06	45048.29
587.22	45118.51
587.38	44811.90
587.54	45074.04
587.70	44842.32
587.86	45031.91
588.02	44942.97
588.18	44748.70
588.34	44460.82
588.49	44854.03
588.65	44987.44
588.81	44818.92
588.97	45024.89
589.13	45050.63
589.29	45052.97
589.45	45064.67
589.61	44783.81
589.77	45282.34
589.93	44849.35
590.08	45191.06
590.24	45645.13
590.40	45305.75
590.56	45429.80
590.72	45177.02
590.88	45226.17
591.04	45052.97
591.20	45549.17
591.35	45411.07
591.51	45715.34
591.67	45600.66
591.83	45656.83
591.99	45645.13
592.15	45062.33
592.31	44741.68
592.46	45305.75
592.62	45294.05
592.78	45254.26
592.94	45392.35
593.10	45544.48
593.26	45961.10
593.41	45628.74
593.57	45720.02
593.73	45333.84
593.89	45621.72
594.05	45860.46
594.20	45394.69
594.36	45584.27
594.52	45504.70
594.68	45741.09
594.84	45263.62
594.99	45900.25
595.15	45368.94
595.31	45425.12
595.47	45731.73
595.62	45516.40
595.78	45427.46
595.94	45535.12
596.10	45741.09
596.25	45691.94
596.41	45696.62
596.57	45483.63
596.73	45689.60
596.88	45818.33
597.04	45551.51
597.20	45881.52
597.36	45680.24
597.51	45361.92
597.67	45549.17
597.83	45710.66
597.99	45893.22
598.14	45705.98
598.30	45478.95
598.46	45193.40
598.61	45705.98
598.77	45600.66
598.93	45399.37
599.09	45839.39
599.24	45677.90
599.40	45818.33
599.56	45652.15
599.71	46087.49
599.87	46583.68
600.03	46206.86
600.18	45645.13
600.34	45825.35
600.50	45497.67
600.65	45401.71
600.81	46328.56
600.97	45820.67
601.12	46052.38
601.28	45806.62
601.44	45815.99
601.59	45525.76
601.75	45757.47
601.91	45989.19
602.06	45322.13
602.22	45970.46
602.37	45792.58
602.53	45581.93
602.69	45741.09
602.84	45464.91
603.00	45893.22
603.16	45940.04
603.31	45663.85
603.47	46265.37
603.62	45705.98
603.78	46017.27
603.94	45713.00
604.09	45815.99
604.25	45928.33
604.40	45130.21
604.56	46071.10
604.71	45940.04
604.87	46061.74
605.03	45294.05
605.18	45287.03
605.34	45792.58
605.49	45214.47
605.65	45888.54
605.80	45897.91
605.96	45516.40
606.12	45294.05
606.27	45698.96
606.43	45614.70
606.58	45703.64
606.74	45801.94
606.89	45354.90
607.05	45511.72
607.20	45858.12
607.36	45317.45
607.51	45570.23
607.67	45500.01
607.82	45118.51
607.98	45390.01
608.13	45289.37
608.29	45614.70
608.44	45460.23
608.60	45516.40
608.75	45668.53
608.91	45504.70
609.06	45429.80
609.22	45375.97
609.37	45691.94
609.53	45713.00
609.68	45907.27
609.84	45184.04
609.99	45371.28
610.15	45476.61
610.30	45420.44
610.46	44980.42
610.61	45516.40
610.76	45488.31
610.92	45008.50
611.07	45113.83
611.23	44825.94
611.38	45413.41
611.54	45134.89
611.69	45387.67
611.84	45516.40
612.00	45394.69
612.15	45350.22
612.31	45378.31
612.46	45045.95
612.62	44830.62
612.77	45240.21
612.92	45443.84
613.08	44949.99
613.23	45603.00
613.39	45429.80
613.54	44893.82
613.69	45207.45
613.85	44978.07
614.00	45099.78
614.15	44949.99
614.31	45034.25
614.46	44968.71
614.62	44758.06
614.77	45062.33
614.92	45017.86
615.08	45162.98
615.23	45319.79
615.38	45474.27
615.54	44987.44
615.69	45305.75
615.84	44795.51
616.00	45268.30
616.15	44989.78
616.30	44732.32
616.46	44903.18
616.61	44790.83
616.76	44802.53
616.92	44985.10
617.07	44783.81
617.22	45001.48
617.37	44327.41
617.53	44598.91
617.68	44418.69
617.83	45165.32
617.99	45333.84
618.14	44851.69
618.29	44385.92
618.45	44552.10
618.60	44294.64
618.75	44116.76
618.90	44493.58
619.06	44648.06
619.21	44313.36
619.36	44900.84
619.51	44123.78
619.67	44257.19
619.82	44212.72
619.97	44591.89
620.12	44168.25
620.28	44591.89
620.43	44257.19
620.58	44533.37
620.73	44463.16
620.89	44467.84
621.04	43739.93
621.19	44381.24
621.34	44119.10
621.49	44142.50
621.65	43981.01
621.80	44287.62
621.95	44091.01
622.10	43854.62
622.25	44287.62
622.41	44002.07
622.56	43952.92
622.71	44098.03
622.86	43470.77
623.01	43924.83
623.16	43761.00
623.32	44105.06
623.47	44032.50
623.62	43569.07
623.77	43629.93
623.92	43852.28
624.07	44224.42
624.23	44065.27
624.38	44137.82
624.53	43805.47
624.68	43587.80
624.83	43665.03
624.98	43545.67
625.13	43372.47
625.29	43653.33
625.44	43538.65
625.59	43761.00
625.74	43803.13
625.89	43143.09
626.04	43580.78
626.19	43868.66
626.34	43672.06
626.49	43281.19
626.65	43168.84
626.80	43447.36
626.95	43159.48
627.10	43194.59
627.25	43646.31
627.40	42958.19
627.55	43222.67
627.70	43068.20
627.85	43288.21
628.00	43309.27
628.15	43257.78
628.30	42749.88
628.45	43021.39
628.60	42534.56
628.76	42866.91
628.91	42927.77
629.06	42686.69
629.21	42988.62
629.36	42752.23
629.51	42768.61
629.66	43012.02
629.81	42515.83
629.96	43110.33
630.11	42487.74
630.26	43030.75
630.41	42850.53
630.56	42787.33
630.71	42616.47
630.86	42375.40
631.01	42532.22
631.16	42300.50
631.31	42597.75
631.46	42143.69
631.61	43262.46
631.76	42618.81
631.91	42593.07
632.06	42916.06
632.21	42948.83
632.36	42876.27
632.51	42019.64
632.66	42632.86
632.81	42555.62
632.96	42691.37
633.10	41923.68
633.25	42424.55
633.40	42677.33
633.55	42707.76
633.70	42026.66
633.85	41764.52
634.00	41717.71
634.15	42206.88
634.30	42099.22
634.45	42050.06
634.60	41970.49
634.75	42321.57
634.90	42216.24
635.05	42298.16
635.19	42052.41
635.34	42501.79
635.49	41832.39
635.64	42202.20
635.79	42211.56
635.94	41841.76
636.09	41771.54
636.24	41961.12
636.39	42087.51
636.53	42082.83
636.68	41766.86
636.83	41317.48
636.98	41839.42
637.13	41717.71
637.28	41509.40
637.43	41668.56
637.57	41872.18
637.72	41790.27
637.87	41715.37
638.02	41556.21
638.17	41750.48
638.32	41413.44
638.46	41074.06
638.61	41172.36
638.76	41373.65
638.91	41116.19
639.06	41298.75
639.20	40879.80
639.35	41544.51
639.50	40821.28
639.65	41493.02
639.80	41270.67
639.94	41411.10
640.09	41593.66
640.24	41656.85
640.39	40935.97
640.54	40739.36
640.68	41354.93
640.83	41277.69
640.98	40847.03
641.13	40870.43
641.27	41474.29
641.42	41034.27
641.57	40898.52
641.72	41167.68
641.86	40734.68
642.01	40762.77
642.16	40914.90
642.31	40512.33
642.45	41006.19
642.60	40769.79
642.75	40481.91
642.90	40512.33
643.04	40788.52
643.19	40392.97
643.34	40121.46
643.48	40528.72
643.63	40645.74
643.78	40713.62
643.93	40620.00
644.07	40697.24
644.22	40299.34
644.37	40444.46
644.51	40917.25
644.66	40662.13
644.81	40779.15
644.95	40524.04
645.10	40233.81
645.25	40339.13
645.39	40165.93
645.54	39878.05
645.69	39978.69
645.83	40243.17
645.98	40301.68
646.13	40313.39
646.27	40458.50
646.42	40079.33
646.57	40212.74
646.71	40549.78
646.86	40306.37
647.00	40325.09
647.15	40142.53
647.30	40168.27
647.44	40154.23
647.59	40217.43
647.74	39468.45
647.88	40313.39
648.03	40659.79
648.17	40020.82
648.32	40233.81
648.47	39856.98
648.61	39957.63
648.76	40175.30
648.90	40187.00
649.05	40142.53
649.20	39770.38
649.34	39854.64
649.49	40161.25
649.63	39714.21
649.78	39873.37
649.92	39372.49
650.07	40137.85
650.21	39700.17
650.36	39995.07
650.51	39847.62
650.65	39578.46
650.80	39931.88
650.94	39473.13
651.09	39571.44
651.23	39622.93
651.38	39306.96
651.52	39351.43
651.67	39072.90
651.81	39370.15
651.96	39941.24
652.10	39077.58
652.25	39037.80
652.39	39253.12
652.54	39505.90
652.68	39662.72
652.83	39381.85
652.97	39812.51
653.12	39189.93
653.26	39077.58
653.41	39370.15
653.55	39140.78
653.70	39288.23
653.84	38888.00
653.99	39700.17
654.13	39363.13
654.27	39117.37
654.42	38955.88
654.56	39042.48
654.71	38920.77
654.85	38808.42
655.00	38960.56
655.14	39009.71
655.29	39299.94
655.43	39180.57
655.57	38988.64
655.72	38085.20
655.86	38239.67
656.01	38686.71
656.15	38621.18
656.30	38913.75
656.44	38483.09
656.58	38567.35
656.73	38742.89
656.87	38438.62
657.01	38361.38
657.16	38258.40
657.30	38249.03
657.45	38312.23
657.59	38426.92
657.73	38246.69
657.88	38375.42
658.02	38288.82
658.16	39061.20
658.31	38635.22
658.45	38263.08
658.60	38068.81
658.74	38354.36
658.88	38220.95
659.03	38223.29
659.17	37074.09
659.31	37830.08
659.46	37703.69
659.60	37989.24
659.74	37727.10
659.89	37200.47
660.03	37240.26
660.17	37706.03
660.32	37724.75
660.46	37682.62
660.60	37443.89
660.74	37675.60
660.89	37799.65
661.03	36950.04
661.17	37247.29
661.32	37226.22
661.46	37106.85
661.60	37361.97
661.74	37287.07
661.89	37127.92
662.03	37167.71
662.17	36921.95
662.31	36847.05
662.46	36704.28
662.60	37053.02
662.74	36587.25
662.88	36357.88
663.03	36554.49
663.17	36332.14
663.31	36311.07
663.45	36861.10
663.60	36570.87
663.74	36704.28
663.88	36346.18
664.02	36360.22
664.17	37134.94
664.31	36027.87
664.45	36161.28
664.59	36339.16
664.73	36488.95
664.88	36329.80
665.02	35924.88
665.16	36004.46
665.30	35819.56
665.44	36048.93
665.59	35866.37
665.73	35707.21
665.87	35400.60
666.01	35599.55
666.15	35849.99
666.29	35412.31
666.44	35857.01
666.58	35700.19
666.72	35229.74
666.86	35599.55
667.00	35337.41
667.14	35096.33
667.28	35274.21
667.43	35150.17
667.57	35452.09
667.71	35131.44
667.85	35421.67
667.99	35019.10
668.13	34979.31
668.27	34763.98
668.41	34745.25
668.56	34445.66
668.70	34934.84
668.84	34312.25
668.98	34157.78
669.12	34515.88
669.26	34396.51
669.40	34368.43
669.54	34714.83
669.68	34031.39
669.82	34043.09
669.96	34127.35
670.10	33736.48
670.25	33895.64
670.39	33830.10
670.53	33762.23
670.67	33572.64
670.81	34185.86
670.95	34068.84
671.09	33642.86
671.23	33551.58
671.37	33984.58
671.51	33528.17
671.65	33780.95
671.79	33216.88
671.93	33120.92
672.07	33226.24
672.21	33642.86
672.35	33076.45
672.49	32861.12
672.63	33034.32
672.77	32671.54
672.91	32947.72
673.05	32577.92
673.19	32697.28
673.33	32397.70
673.47	32341.52
673.61	32442.17
673.75	32407.06
673.89	32177.68
674.03	32343.86
674.17	32109.81
674.31	32051.30
674.45	31660.43
674.59	32039.59
674.73	31653.40
674.87	31878.10
675.01	31187.64
675.15	31206.36
675.29	31564.46
675.43	31487.23
675.56	31349.14
675.70	31227.43
675.84	31033.16
675.98	30157.80
676.12	30735.92
676.26	31016.78
676.40	30733.57
676.54	30881.03
676.68	30515.90
676.82	30206.95
676.96	30607.19
677.10	30558.03
677.23	30508.88
677.37	30408.24
677.51	30361.43
677.65	30141.42
677.79	29923.75
677.93	29710.76
678.07	29591.39
678.21	29909.71
678.34	29467.34
678.48	29432.24
678.62	29137.33
678.76	29584.37
678.90	29408.83
679.04	29184.14
679.18	29228.61
679.31	28896.25
679.45	29149.03
679.59	28390.70
679.73	29034.35
679.87	28786.25
680.00	28659.86
680.14	28360.27
680.28	28173.03
680.42	28411.76
680.56	28194.09
680.70	27824.29
680.83	28091.11
680.97	27889.82
681.11	28067.70
681.25	27494.27
681.39	27445.12
681.52	27515.34
681.66	27552.79
681.80	26998.08
681.94	27054.25
682.07	26955.95
682.21	26979.36
682.35	26881.05
682.49	26529.97
682.62	26934.88
682.76	27260.22
682.90	26785.09
683.04	26555.72
683.17	26551.04
683.31	26438.69
683.45	26064.21
683.59	25905.05
683.72	25619.50
683.86	25446.30
684.00	25448.64
684.13	25759.94
684.27	25720.15
684.41	25680.36
684.55	25626.53
684.68	25556.31
684.82	25223.95
684.96	25383.11
685.09	25282.47
685.23	25200.55
685.37	25348.00
685.50	25233.32
685.64	25029.69
685.78	24617.75
685.91	24617.75
686.05	24404.77
686.19	24095.82
686.32	24049.00
686.46	23962.40
686.60	23840.70
686.73	24070.07
686.87	23934.32
687.01	24254.97
687.14	23791.55
687.28	23803.25
687.42	23534.09
687.55	23667.50
687.69	23358.55
687.82	23030.87
687.96	23569.19
688.10	23145.56
688.23	23285.99
688.37	23234.50
688.50	23094.07
688.64	23028.53
688.78	23096.41
688.91	22742.99
689.05	23164.28
689.18	22614.26
689.32	22291.26
689.46	22436.38
689.59	22176.58
689.73	22410.63
689.86	22101.68
690.00	22022.10
690.13	21935.50
690.27	21781.03
690.41	21848.90
690.54	21788.05
690.68	21797.41
690.81	21553.99
690.95	21027.37
691.08	20908.01
691.22	21315.26
691.35	20971.20
691.49	20865.88
691.62	20922.05
691.76	20596.71
691.89	20517.14
692.03	20456.28
692.16	20135.63
692.30	20430.54
692.43	20334.57
692.57	20156.69
692.70	20170.74
692.84	20063.07
692.97	19711.99
693.11	19840.72
693.24	19737.74
693.38	19613.69
693.51	19367.93
693.65	19768.16
693.78	19557.52
693.92	19583.26
694.05	19328.14
694.19	19468.58
694.32	19115.16
694.45	19513.05
694.59	19557.52
694.72	19330.48
694.86	19040.26
694.99	18726.63
695.13	18464.49
695.26	18335.76
695.39	18302.99
695.53	18515.98
695.66	18455.12
695.80	18251.50
695.93	18375.55
696.07	18031.49
696.20	17916.80
696.33	18134.47
696.47	17657.00
696.60	17778.71
696.73	17600.83
696.87	17961.27
697.00	17895.74
697.14	17638.28
697.27	17373.80
697.40	17455.72
697.54	17385.50
697.67	17621.89
697.80	17216.98
697.94	17256.77
698.07	16982.93
698.21	16903.35
698.34	17013.35
698.47	16964.20
698.61	16376.73
698.74	16592.06
698.87	16276.09
699.01	16248.00
699.14	16329.92
699.27	16290.13
699.40	16140.33
699.54	16173.10
699.67	15920.32
699.80	15978.84
699.94	15962.45
700.07	15899.26
700.20	15709.68
700.34	15770.53
700.47	15623.08
700.60	15611.37
700.73	15543.50
700.87	15229.87
701.00	15068.37
701.13	14937.30
701.26	14946.66
701.40	15082.41
701.53	15059.01
701.66	15101.14
701.79	14768.78
701.93	14665.80
702.06	14595.58
702.19	14764.10
702.32	14635.37
702.46	14714.95
702.59	14593.24
702.72	14436.42
702.85	14834.32
702.99	14389.61
703.12	14370.89
703.25	14097.05
703.38	14300.67
703.51	14134.50
703.65	13914.48
703.78	13743.63
703.91	13743.63
704.04	13748.31
704.17	13664.05
704.31	13554.04
704.44	13547.02
704.57	13432.33
704.70	13355.10
704.83	13172.54
704.96	12989.97
705.10	13256.79
705.23	12830.82
>>>>>End Processed Spectral Data<<<<<
