SpectraSuite Data File
++++++++++++++++++++++++++++++++++++
Date: Fri Oct 25 10:44:09 EDT 2013
User: price-jones
Dark Spectrum Present: No
Reference Spectrum Present: No
Number of Sampled Component Spectra: 1
Spectrometers: USB2+H05261
Integration Time (usec): 100000 (USB2+H05261)
Spectra Averaged: 1 (USB2+H05261)
Boxcar Smoothing: 0 (USB2+H05261)
Correct for Electrical Dark: No (USB2+H05261)
Strobe/Lamp Enabled: No (USB2+H05261)
Correct for Detector Non-linearity: No (USB2+H05261)
Correct for Stray Light: No (USB2+H05261)
Number of Pixels in Processed Spectrum: 2048
>>>>>Begin Processed Spectral Data<<<<<
365.73	114.69
365.92	114.69
366.12	114.69
366.32	25.75
366.52	51.49
366.72	4.68
366.91	65.54
367.11	46.81
367.31	7.02
367.51	30.43
367.70	84.26
367.90	16.38
368.10	44.47
368.30	58.51
368.49	0.00
368.69	79.58
368.89	7.02
369.09	44.47
369.28	70.22
369.48	16.38
369.68	77.24
369.87	79.58
370.07	53.83
370.27	95.96
370.47	161.50
370.66	372.15
370.86	456.40
371.06	404.91
371.25	477.47
371.45	435.34
371.65	463.43
371.84	507.90
372.04	421.30
372.24	475.13
372.44	482.15
372.63	491.51
372.83	521.94
373.03	521.94
373.22	554.71
373.42	568.75
373.62	535.98
373.81	566.41
374.01	505.56
374.21	585.13
374.40	491.51
374.60	592.16
374.79	554.71
374.99	512.58
375.19	596.84
375.38	622.58
375.58	627.26
375.78	594.50
375.97	610.88
376.17	641.31
376.37	592.16
376.56	627.26
376.76	627.26
376.95	615.56
377.15	648.33
377.35	650.67
377.54	627.26
377.74	599.18
377.93	657.69
378.13	638.97
378.33	723.23
378.52	704.50
378.72	660.03
378.91	638.97
379.11	662.37
379.31	582.79
379.50	575.77
379.70	629.60
379.89	655.35
380.09	638.97
380.28	688.12
380.48	744.29
380.68	730.25
380.87	650.67
381.07	704.50
381.26	727.91
381.46	716.20
381.65	688.12
381.85	725.57
382.04	727.91
382.24	669.39
382.43	725.57
382.63	732.59
382.83	641.31
383.02	676.41
383.22	650.67
383.41	683.44
383.61	784.08
383.80	760.67
384.00	767.70
384.19	840.25
384.39	791.10
384.58	765.36
384.78	741.95
384.97	695.14
385.17	854.30
385.36	793.44
385.56	875.36
385.75	746.63
385.95	809.83
386.14	873.02
386.34	807.48
386.53	887.06
386.72	807.48
386.92	800.46
387.11	781.74
387.31	748.97
387.50	833.23
387.70	854.30
387.89	807.48
388.09	891.74
388.28	809.83
388.48	873.02
388.67	950.26
388.86	964.30
389.06	926.85
389.25	985.37
389.45	983.02
389.64	936.21
389.84	985.37
390.03	1074.31
390.22	973.66
390.42	1034.52
390.61	950.26
390.81	976.00
391.00	980.68
391.19	1139.84
391.39	1018.13
391.58	1095.37
391.78	1088.35
391.97	1146.86
392.16	1004.09
392.36	1025.15
392.55	994.73
392.75	968.98
392.94	1015.79
393.13	1034.52
393.33	950.26
393.52	1057.92
393.71	1153.88
393.91	1104.73
394.10	1050.90
394.29	1006.43
394.49	1196.01
394.68	1160.91
394.88	1207.72
395.07	1151.54
395.26	1238.14
395.46	1238.14
395.65	1188.99
395.84	1252.19
396.04	1219.42
396.23	1172.61
396.42	1118.78
396.62	1095.37
396.81	1174.95
397.00	1036.86
397.19	1336.45
397.39	1282.61
397.58	1390.28
397.77	1458.15
397.97	1406.66
398.16	1413.68
398.35	1439.43
398.55	1493.26
398.74	1437.09
398.93	1547.09
399.12	1542.41
399.32	1411.34
399.51	1488.58
399.70	1514.33
399.90	1572.84
400.09	1572.84
400.28	1584.54
400.47	1593.90
400.67	1696.89
400.86	1750.72
401.05	1600.93
401.24	1643.06
401.44	1657.10
401.63	1806.89
401.82	1706.25
402.01	1612.63
402.21	1734.34
402.40	1748.38
402.59	1732.00
402.78	1727.32
402.97	1727.32
403.17	1743.70
403.36	1739.02
403.55	1839.66
403.74	1856.04
403.93	1764.76
404.13	1893.49
404.32	1858.39
404.51	1755.40
404.70	1984.77
404.89	1865.41
405.09	1998.82
405.28	2054.99
405.47	2071.37
405.66	1898.17
405.85	1966.05
406.05	1989.46
406.24	1935.62
406.43	2064.35
406.62	1987.11
406.81	2045.63
407.00	2026.90
407.20	1909.88
407.39	2099.46
407.58	2134.57
407.77	2160.31
407.96	2176.70
408.15	2307.77
408.34	2071.37
408.54	2183.72
408.73	2417.77
408.92	2289.04
409.11	2282.02
409.30	2237.55
409.49	2211.81
409.68	2319.47
409.87	2253.94
410.07	2244.57
410.26	2349.90
410.45	2441.18
410.64	2401.39
410.83	2443.52
411.02	2406.07
411.21	2495.01
411.40	2455.22
411.59	2621.40
411.78	2644.81
411.98	2548.84
412.17	2612.04
412.36	2661.19
412.55	2661.19
412.74	2839.07
412.93	2686.94
413.12	2609.70
413.31	2810.98
413.50	2717.36
413.69	2733.75
413.88	2885.88
414.07	2897.58
414.26	2928.01
414.45	2963.12
414.64	2918.65
414.83	2956.10
415.02	2937.37
415.22	2984.18
415.41	3049.72
415.60	3061.42
415.79	3173.77
415.98	3173.77
416.17	3274.41
416.36	3178.45
416.55	3150.36
416.74	3208.87
416.93	3232.28
417.12	3297.81
417.31	3255.69
417.50	3232.28
417.69	3370.37
417.88	3398.46
418.07	3405.48
418.26	3559.95
418.45	3449.95
418.64	3548.25
418.83	3452.29
419.02	3482.72
419.21	3595.06
419.39	3592.72
419.58	3529.53
419.77	3377.39
419.96	3433.57
420.15	3733.15
420.34	3630.17
420.53	3698.05
420.72	3772.94
420.91	3744.86
421.10	3667.62
421.29	3857.20
421.48	3676.98
421.67	3651.24
421.86	3716.77
422.05	3805.71
422.24	3775.28
422.43	3693.37
422.61	3803.37
422.80	3927.42
422.99	3761.24
423.18	3904.01
423.37	3962.53
423.56	3911.04
423.75	3815.07
423.94	3765.92
424.13	3693.37
424.32	3808.05
424.50	3831.46
424.69	4011.68
424.88	3988.27
425.07	3833.80
425.26	3798.69
425.45	3847.84
425.64	3873.59
425.83	3911.04
426.01	4053.81
426.20	3978.91
426.39	3960.19
426.58	3936.78
426.77	3833.80
426.96	3920.40
427.15	3953.16
427.33	3936.78
427.52	4163.81
427.71	4084.23
427.90	4131.05
428.09	3981.25
428.28	4044.45
428.46	4175.52
428.65	4140.41
428.84	4234.03
429.03	4402.55
429.22	4060.83
429.40	3969.55
429.59	4016.36
429.78	4133.39
429.97	3960.19
430.16	3864.22
430.34	3873.59
430.53	4173.18
430.72	4032.74
430.91	4212.96
431.10	4318.29
431.28	4369.78
431.47	4484.47
431.66	4528.94
431.85	4390.84
432.03	4505.53
432.22	4702.14
432.41	4507.87
432.60	4650.64
432.79	4678.73
432.97	4770.01
433.16	4786.40
433.35	4566.39
433.54	4610.86
433.72	4482.13
433.91	4617.88
434.10	4777.03
434.28	4681.07
434.47	4631.92
434.66	4828.53
434.85	4873.00
435.03	4999.38
435.22	4964.28
435.41	5011.09
435.59	4985.34
435.78	5022.79
435.97	5165.56
436.16	5081.30
436.34	5137.48
436.53	4992.36
436.72	5268.55
436.90	5102.37
437.09	5153.86
437.28	4973.64
437.46	5102.37
437.65	5034.49
437.84	5057.90
438.02	5200.67
438.21	5060.24
438.40	5128.11
438.58	5305.99
438.77	5317.70
438.96	5270.89
439.14	5434.72
439.33	5495.58
439.52	5643.03
439.70	5467.49
439.89	5474.51
440.08	5570.48
440.26	5659.42
440.45	5650.05
440.63	5771.76
440.82	5928.58
441.01	5893.47
441.19	5898.15
441.38	5977.73
441.57	6045.60
441.75	6174.33
441.94	6293.70
442.12	6073.69
442.31	6221.14
442.50	6342.85
442.68	6284.34
442.87	6317.11
443.05	6127.52
443.24	6267.95
443.43	6450.52
443.61	6537.12
443.80	6483.28
443.98	6300.72
444.17	6359.24
444.35	6579.25
444.54	6588.61
444.73	6518.39
444.91	6609.67
445.10	6497.33
445.28	6338.17
445.47	6235.19
445.65	6483.28
445.84	6249.23
446.02	6366.26
446.21	6623.72
446.39	6392.00
446.58	6394.34
446.77	6665.85
446.95	6420.09
447.14	6642.44
447.32	6604.99
447.51	6726.70
447.69	6525.41
447.88	6640.10
448.06	6628.40
448.25	6609.67
448.43	6555.84
448.62	6724.36
448.80	6443.49
448.99	6827.34
449.17	6822.66
449.36	6684.57
449.54	6899.90
449.73	7021.61
449.91	6942.03
450.10	7143.32
450.28	7023.95
450.46	7002.88
450.65	7005.22
450.83	7012.24
451.02	6993.52
451.20	7192.47
451.39	7126.93
451.57	7173.74
451.76	7213.53
451.94	7014.59
452.13	7101.19
452.31	7108.21
452.49	6979.48
452.68	7070.76
452.86	7073.10
453.05	7213.53
453.23	7187.79
453.42	7358.64
453.60	7225.23
453.78	7510.78
453.97	7360.98
454.15	7260.34
454.34	7368.01
454.52	7407.80
454.70	7155.02
454.89	7513.12
455.07	7419.50
455.26	7562.27
455.44	7655.89
455.62	7719.09
455.81	7639.51
455.99	7616.10
456.17	7667.60
456.36	7819.73
456.54	7779.94
456.73	7915.69
456.91	7873.56
457.09	7983.57
457.28	8084.21
457.46	7838.45
457.64	8063.15
457.83	8114.64
458.01	8046.76
458.19	8079.53
458.38	7925.05
458.56	8212.94
458.74	7927.39
458.93	8287.84
459.11	8173.15
459.29	8283.16
459.48	8386.14
459.66	8126.34
459.84	8327.63
460.03	8589.77
460.21	8498.49
460.39	8365.07
460.57	8472.74
460.76	8636.58
460.94	8538.27
461.12	8678.71
461.31	8564.02
461.49	8681.05
461.67	8482.10
461.85	8667.00
462.04	8816.80
462.22	8769.99
462.40	8922.12
462.59	8847.22
462.77	8858.93
462.95	8500.83
463.13	8772.33
463.32	8875.31
463.50	8844.88
463.68	9076.60
463.86	8865.95
464.05	8697.43
464.23	8699.77
464.41	8931.48
464.59	8793.39
464.78	9043.83
464.96	9036.81
465.14	8959.57
465.32	9146.81
465.50	9188.94
465.69	9146.81
465.87	9137.45
466.05	9100.00
466.23	9085.96
466.41	9198.31
466.60	9291.93
466.78	9107.02
466.96	8964.25
467.14	9301.29
467.32	9205.33
467.51	9385.55
467.69	8940.85
467.87	9231.07
468.05	9284.91
468.23	9266.18
468.41	9184.26
468.60	9420.66
468.78	9753.01
468.96	9525.98
469.14	9628.96
469.32	9781.10
469.50	9514.28
469.69	9469.81
469.87	9687.48
470.05	9774.08
470.23	9802.16
470.41	9584.49
470.59	9907.49
470.77	9947.28
470.95	10015.15
471.14	10045.58
471.32	9792.80
471.50	9907.49
471.68	10115.80
471.86	10223.46
472.04	10052.60
472.22	10588.58
472.40	10022.17
472.58	10244.52
472.77	10289.00
472.95	10415.38
473.13	10792.21
473.31	10284.31
473.49	10471.56
473.67	10452.83
473.85	10478.58
474.03	10750.08
474.21	10998.18
474.39	11044.99
474.57	10883.49
474.75	10892.85
474.93	10963.07
475.12	10951.37
475.30	11101.16
475.48	11176.06
475.66	11136.27
475.84	11087.12
476.02	11346.92
476.20	11318.83
476.38	11578.63
476.56	11688.64
476.74	11747.15
476.92	11569.27
477.10	11702.68
477.28	12030.35
477.46	12332.28
477.64	12051.42
477.82	12264.41
478.00	12414.20
478.18	12521.87
478.36	12414.20
478.54	12435.27
478.72	12556.97
478.90	12622.51
479.08	12688.04
479.26	12774.64
479.44	12877.63
479.62	13158.49
479.80	13385.52
479.98	13319.99
480.16	13380.84
480.34	13518.93
480.52	13593.83
480.70	13600.85
480.88	13635.96
481.06	13757.67
481.24	13654.69
481.41	14181.31
481.59	14286.63
481.77	14310.04
481.95	14104.07
482.13	14459.83
482.31	14508.98
482.49	15105.82
482.67	14703.25
482.85	14871.76
483.03	15026.24
483.21	15122.20
483.39	15442.85
483.57	15255.61
483.74	15583.29
483.92	15592.65
484.10	15169.01
484.28	15714.36
484.46	15789.25
484.64	16287.79
484.82	16016.29
485.00	15882.88
485.18	16123.95
485.35	16273.74
485.53	16271.40
485.71	15831.38
485.89	16112.25
486.07	16421.20
486.25	16587.38
486.43	16774.62
486.61	16875.26
486.78	16961.86
486.96	17334.01
487.14	17610.19
487.32	17364.43
487.50	17926.16
487.68	17811.48
487.85	18251.50
488.03	18452.78
488.21	18572.15
488.39	18256.18
488.57	18445.76
488.75	18689.18
488.92	18768.76
489.10	19094.09
489.28	19351.55
489.46	19620.71
489.64	19522.41
489.81	19838.38
489.99	19932.00
490.17	19697.95
490.35	20465.64
490.53	20098.18
490.70	20411.81
490.88	20229.25
491.06	20622.46
491.24	20327.55
491.41	20336.91
491.59	20709.06
491.77	20556.93
491.95	21006.31
492.13	20889.28
492.30	21483.78
492.48	21479.10
492.66	21516.54
492.84	21781.03
493.01	22003.38
493.19	21874.65
493.37	21893.37
493.54	22089.98
493.72	22391.91
493.90	22586.17
494.08	22546.38
494.25	22958.31
494.43	22852.99
494.61	23056.62
494.79	23264.92
494.96	23159.60
495.14	22913.84
495.32	23576.22
495.49	23339.82
495.67	23744.73
495.85	23782.18
496.02	24046.66
496.20	24467.96
496.38	24212.84
496.55	24430.51
496.73	24987.56
496.91	24535.84
497.09	24926.71
497.26	25296.51
497.44	25151.40
497.62	24973.52
497.79	25270.76
497.97	24835.42
498.14	25209.91
498.32	25366.73
498.50	25607.80
498.67	26024.42
498.85	25947.18
499.03	25862.92
499.20	25638.23
499.38	26316.98
499.56	26059.52
499.73	26164.85
499.91	26445.71
500.08	26291.24
500.26	26244.43
500.44	26305.28
500.61	26682.11
500.79	26410.60
500.97	26831.90
501.14	27157.24
501.32	26993.40
501.49	26705.51
501.67	27026.17
501.84	27246.18
502.02	27058.93
502.20	27424.06
502.37	27557.47
502.55	27702.58
502.72	27529.38
502.90	27955.36
503.07	27777.48
503.25	27857.06
503.43	27667.47
503.60	27681.52
503.78	27981.10
503.95	27906.21
504.13	28526.45
504.30	28325.16
504.48	28198.77
504.65	28563.90
504.83	28907.96
505.01	28973.49
505.18	29057.75
505.36	29387.77
505.53	29214.57
505.71	29296.49
505.88	29689.70
506.06	29443.94
506.23	29380.74
506.41	29448.62
506.58	29397.13
506.76	29619.48
506.93	30080.56
507.11	29685.01
507.28	29954.18
507.46	29996.31
507.63	30017.37
507.81	29886.30
507.98	29687.36
508.16	30419.94
508.33	30576.76
508.50	30408.24
508.68	30958.27
508.85	30913.80
509.03	30848.26
509.20	30958.27
509.38	31019.12
509.55	30738.26
509.73	31468.50
509.90	31164.23
510.08	31552.76
510.25	31246.15
510.42	30883.37
510.60	31538.72
510.77	31637.02
510.95	31538.72
511.12	31871.07
511.30	31669.79
511.47	32453.87
511.64	32158.96
511.82	32226.84
511.99	32009.17
512.17	32226.84
512.34	31770.43
512.51	32079.38
512.69	32584.94
512.86	32601.32
513.04	32896.23
513.21	32648.13
513.38	32201.09
513.56	32472.59
513.73	32648.13
513.90	32446.85
514.08	32950.06
514.25	32716.01
514.43	32954.74
514.60	32989.85
514.77	33034.32
514.95	33769.25
515.12	33441.57
515.29	33457.96
515.47	33977.56
515.64	33708.40
515.81	33577.33
515.99	33926.07
516.16	33584.35
516.33	33078.79
516.51	33474.34
516.68	33060.07
516.85	32896.23
517.03	33680.31
517.20	33830.10
517.37	33970.54
517.54	34459.71
517.72	33752.87
517.89	33673.29
518.06	33729.46
518.24	34190.55
518.41	34244.38
518.58	34253.74
518.75	34405.88
518.93	34726.53
519.10	34806.11
519.27	34768.66
519.45	34939.52
519.62	35541.03
519.79	34995.69
519.96	35023.78
520.14	35040.16
520.31	35103.35
520.48	35370.18
520.65	35496.56
520.83	35585.50
521.00	35667.42
521.17	35597.21
521.34	35475.50
521.52	35739.98
521.69	35910.84
521.86	36449.16
522.03	36287.67
522.20	35651.04
522.38	36189.36
522.55	36535.76
522.72	35786.79
522.89	35938.93
523.07	36699.60
523.24	36126.17
523.41	36825.99
523.58	36582.57
523.75	37010.89
523.92	36943.02
524.10	37200.47
524.27	36889.18
524.44	37263.67
524.61	36907.91
524.78	37301.12
524.96	37326.86
525.13	37528.15
525.30	37832.42
525.47	37942.42
525.64	37242.60
525.81	37446.23
525.98	37277.71
526.16	37319.84
526.33	37219.20
526.50	37354.95
526.67	37221.54
526.84	37198.13
527.01	37352.61
527.18	37394.74
527.36	38010.30
527.53	38148.39
527.70	38398.83
527.87	38424.57
528.04	37785.61
528.21	38380.10
528.38	38220.95
528.55	38642.24
528.72	38312.23
528.89	38309.89
529.07	38557.99
529.24	38387.13
529.41	38618.84
529.58	38630.54
529.75	38628.20
529.92	38944.17
530.09	39391.22
530.26	38892.68
530.43	39337.38
530.60	38993.32
530.77	38979.28
530.94	38944.17
531.11	39220.36
531.28	39220.36
531.46	39030.77
531.63	39278.87
531.80	39117.37
531.97	39365.47
532.14	39180.57
532.31	38770.97
532.48	39189.93
532.65	39084.61
532.82	39358.45
532.99	39227.38
533.16	39372.49
533.33	40032.52
533.50	40013.80
533.67	39833.58
533.84	39351.43
534.01	39725.91
534.18	40135.51
534.35	40147.21
534.52	40289.98
534.69	40093.38
534.86	40383.60
535.03	40512.33
535.20	40690.21
535.37	40694.89
535.54	40776.81
535.71	40645.74
535.88	40627.02
536.05	40341.47
536.22	40755.75
536.38	40271.26
536.55	40524.04
536.72	40722.98
536.89	40617.66
537.06	40734.68
537.23	40844.69
537.40	40996.82
537.57	41022.57
537.74	40952.35
537.91	41109.17
538.08	40954.69
538.25	40804.90
538.42	40715.96
538.59	41411.10
538.75	40608.29
538.92	40903.20
539.09	41560.89
539.26	41172.36
539.43	41258.96
539.60	41053.00
539.77	40774.47
539.94	41249.60
540.11	41294.07
540.28	41153.64
540.44	41160.66
540.61	41340.88
540.78	41373.65
540.95	41493.02
541.12	41298.75
541.29	41668.56
541.46	41504.72
541.62	41593.66
541.79	41834.74
541.96	41434.50
542.13	41736.43
542.30	41567.91
542.47	41366.63
542.63	41951.76
542.80	41841.76
542.97	42396.46
543.14	42590.73
543.31	42176.45
543.48	42483.06
543.64	42698.39
543.81	42904.36
543.98	42656.26
544.15	42312.20
544.32	42953.51
544.48	42864.57
544.65	42803.72
544.82	42609.45
544.99	42513.49
545.16	43215.65
545.32	42794.36
545.49	43346.72
545.66	43400.55
545.83	43026.07
546.00	43482.47
546.16	42749.88
546.33	42974.58
546.50	42396.46
546.67	43154.80
546.83	42862.23
547.00	42829.46
547.17	43147.78
547.34	43161.82
547.50	43028.41
547.67	43433.32
547.84	43309.27
548.00	43838.23
548.17	43838.23
548.34	43136.07
548.51	43927.17
548.67	43370.13
548.84	43559.71
549.01	43536.30
549.18	43641.63
549.34	43599.50
549.51	43817.17
549.68	44009.09
549.84	43290.55
550.01	43929.51
550.18	43866.32
550.34	44013.77
550.51	43901.43
550.68	43409.92
550.84	43634.61
551.01	43707.16
551.18	44053.56
551.34	43861.64
551.51	44282.94
551.68	44545.08
551.84	44076.97
552.01	43892.07
552.18	43981.01
552.34	43889.73
552.51	43842.92
552.68	44100.37
552.84	44144.84
553.01	44655.08
553.18	44004.41
553.34	43992.71
553.51	44051.22
553.67	44264.21
553.84	44444.43
554.01	44547.42
554.17	44500.61
554.34	44631.68
554.51	44713.59
554.67	44711.25
554.84	44715.93
555.00	44465.50
555.17	44449.11
555.33	44322.72
555.50	44172.93
555.67	44617.63
555.83	44495.92
556.00	44875.09
556.16	45055.31
556.33	44385.92
556.50	44673.81
556.66	44814.24
556.83	44814.24
556.99	45270.64
557.16	44910.20
557.32	45034.25
557.49	45069.36
557.65	44488.90
557.82	44973.39
557.98	45064.67
558.15	45020.20
558.32	44893.82
558.48	44268.89
558.65	45146.59
558.81	44603.59
558.98	44914.88
559.14	44921.90
559.31	45008.50
559.47	45296.39
559.64	45287.03
559.80	45434.48
559.97	44952.33
560.13	44851.69
560.30	45090.42
560.46	44863.39
560.63	44816.58
560.79	45399.37
560.96	45375.97
561.12	45429.80
561.29	45319.79
561.45	45177.02
561.61	45511.72
561.78	44959.35
561.94	45553.85
562.11	45219.15
562.27	44957.01
562.44	45275.32
562.60	45607.68
562.77	45504.70
562.93	45516.40
563.10	45567.89
563.26	44835.30
563.42	45551.51
563.59	45134.89
563.75	44809.56
563.92	45904.93
564.08	45340.86
564.24	45696.62
564.41	45626.40
564.57	45535.12
564.74	44896.16
564.90	45645.13
565.07	45397.03
565.23	45612.36
565.39	45483.63
565.56	45525.76
565.72	45287.03
565.88	45371.28
566.05	45488.31
566.21	45326.81
566.38	45745.77
566.54	45308.09
566.70	45698.96
566.87	45689.60
567.03	45478.95
567.19	45893.22
567.36	45888.54
567.52	45535.12
567.68	46033.66
567.85	45621.72
568.01	45921.31
568.17	45710.66
568.34	45518.74
568.50	45450.86
568.66	45490.65
568.83	45724.71
568.99	45558.53
569.15	45537.46
569.32	45698.96
569.48	45319.79
569.64	45736.41
569.81	46052.38
569.97	45647.47
570.13	45832.37
570.30	45509.38
570.46	45177.02
570.62	45258.94
570.78	45682.58
570.95	45408.73
571.11	45647.47
571.27	45556.19
571.43	45539.80
571.60	46000.89
571.76	45787.90
571.92	45801.94
572.09	45879.18
572.25	45755.13
572.41	46328.56
572.57	45818.33
572.74	46330.90
572.90	46043.02
573.06	45600.66
573.22	45570.23
573.38	46106.21
573.55	46136.64
573.71	46770.93
573.87	46192.81
574.03	45808.96
574.20	46010.25
574.36	45624.06
574.52	45895.56
574.68	46164.73
574.84	45462.57
575.01	46085.15
575.17	45993.87
575.33	45492.99
575.49	45661.51
575.65	46483.04
575.82	46195.15
575.98	45792.58
576.14	46288.77
576.30	46007.91
576.46	45869.82
576.62	45979.82
576.79	45998.55
576.95	45794.92
577.11	45968.12
577.27	46038.34
577.43	46316.86
577.59	45909.61
577.75	45694.28
577.92	45289.37
578.08	45673.21
578.24	45645.13
578.40	45811.31
578.56	45801.94
578.72	46050.04
578.88	46361.33
579.04	46387.08
579.21	45951.74
579.37	45799.60
579.53	45738.75
579.69	45666.19
579.85	45666.19
580.01	45928.33
580.17	46089.83
580.33	46021.95
580.49	46202.18
580.65	46543.89
580.82	46160.05
580.98	45872.16
581.14	45771.52
581.30	46494.74
581.46	46171.75
581.62	46162.39
581.78	46361.33
581.94	46344.95
582.10	46178.77
582.26	46227.92
582.42	45762.15
582.58	46153.02
582.74	46005.57
582.90	46021.95
583.06	46607.09
583.22	45993.87
583.38	46546.23
583.54	45982.16
583.70	45851.09
583.86	45989.19
584.02	46131.96
584.18	45965.78
584.34	46073.45
584.50	46036.00
584.66	45925.99
584.82	45862.80
584.98	46576.66
585.14	46403.46
585.30	46291.12
585.46	46099.19
585.62	45909.61
585.78	46075.79
585.94	46031.32
586.10	46155.36
586.26	46033.66
586.42	46356.65
586.58	46398.78
586.74	46075.79
586.90	45839.39
587.06	46185.79
587.22	45904.93
587.38	45991.53
587.54	46366.01
587.70	45930.67
587.86	46478.36
588.02	46185.79
588.18	46181.11
588.34	45469.59
588.49	45553.85
588.65	45471.93
588.81	45467.25
588.97	45691.94
589.13	45846.41
589.29	45846.41
589.45	45933.01
589.61	46057.06
589.77	46136.64
589.93	46239.62
590.08	45970.46
590.24	46429.21
590.40	46438.57
590.56	46443.25
590.72	46202.18
590.88	46461.97
591.04	46302.82
591.20	46450.27
591.35	46150.68
591.51	46389.42
591.67	46131.96
591.83	46747.52
591.99	46302.82
592.15	46066.42
592.31	46206.86
592.46	46199.83
592.62	46555.60
592.78	46618.79
592.94	46539.21
593.10	46239.62
593.26	46230.26
593.41	46174.09
593.57	46260.69
593.73	46099.19
593.89	46174.09
594.05	46192.81
594.20	46710.07
594.36	46164.73
594.52	46089.83
594.68	46295.80
594.84	45982.16
594.99	46618.79
595.15	46485.38
595.31	46323.88
595.47	46363.67
595.62	46354.31
595.78	46375.37
595.94	46548.57
596.10	46410.48
596.25	46204.52
596.41	46429.21
596.57	46178.77
596.73	46571.98
596.88	46344.95
597.04	46141.32
597.20	46309.84
597.36	46223.24
597.51	46557.94
597.67	46471.34
597.83	46323.88
597.99	46897.31
598.14	46492.40
598.30	46115.58
598.46	46028.98
598.61	46387.08
598.77	46204.52
598.93	46298.14
599.09	46089.83
599.24	46660.92
599.40	46843.48
599.56	46642.20
599.71	46859.87
599.87	46487.72
600.03	46354.31
600.18	45921.31
600.34	46171.75
600.50	46553.26
600.65	46028.98
600.81	46309.84
600.97	46684.33
601.12	46298.14
601.28	46445.59
601.44	46445.59
601.59	45956.42
601.75	46232.60
601.91	46080.47
602.06	46246.65
602.22	46745.18
602.37	46248.99
602.53	46447.93
602.69	46536.87
602.84	46511.13
603.00	45949.40
603.16	46160.05
603.31	46506.44
603.47	46253.67
603.62	46164.73
603.78	46295.80
603.94	46192.81
604.09	46487.72
604.25	46567.30
604.40	46085.15
604.56	46195.15
604.71	46377.72
604.87	46281.75
605.03	46216.22
605.18	45942.38
605.34	46382.40
605.49	45689.60
605.65	46277.07
605.80	45851.09
605.96	46513.47
606.12	46136.64
606.27	46602.41
606.43	45696.62
606.58	46162.39
606.74	45876.84
606.89	45757.47
607.05	46216.22
607.20	46213.88
607.36	46026.63
607.51	46057.06
607.67	45881.52
607.82	46291.12
607.98	46248.99
608.13	46129.62
608.29	45968.12
608.44	45673.21
608.60	46096.85
608.75	45750.45
608.91	45951.74
609.06	46127.28
609.22	46108.55
609.37	45830.03
609.53	46141.32
609.68	45769.18
609.84	45359.58
609.99	45631.08
610.15	45603.00
610.30	45865.14
610.46	45249.58
610.61	45560.87
610.76	45848.75
610.92	45949.40
611.07	45551.51
611.23	45893.22
611.38	45347.88
611.54	45539.80
611.69	45439.16
611.84	45364.26
612.00	45427.46
612.15	45507.04
612.31	45572.57
612.46	45574.91
612.62	45563.21
612.77	45411.07
612.92	45696.62
613.08	45296.39
613.23	45366.60
613.39	45228.51
613.54	45118.51
613.69	45221.49
613.85	45357.24
614.00	45277.66
614.15	45715.34
614.31	45357.24
614.46	45684.92
614.62	45787.90
614.77	45462.57
614.92	45223.83
615.08	45062.33
615.23	44973.39
615.38	44832.96
615.54	44882.11
615.69	44851.69
615.84	44715.93
616.00	44863.39
616.15	44898.50
616.30	44928.92
616.46	44669.12
616.61	44460.82
616.76	44472.52
616.92	44568.48
617.07	44453.79
617.22	44601.25
617.37	44676.15
617.53	44612.95
617.68	44947.65
617.83	44999.14
617.99	44847.00
618.14	44823.60
618.29	44917.22
618.45	44378.90
618.60	44329.75
618.75	44304.00
618.90	45127.87
619.06	44772.11
619.21	44341.45
619.36	45139.57
619.51	44311.02
619.67	44479.54
619.82	44844.66
619.97	44641.04
620.12	44472.52
620.28	44093.35
620.43	43966.96
620.58	44334.43
620.73	44062.93
620.89	44205.70
621.04	44100.37
621.19	44395.28
621.34	44360.17
621.49	44233.78
621.65	44140.16
621.80	44215.06
621.95	43817.17
622.10	43828.87
622.25	43812.49
622.41	43646.31
622.56	43643.97
622.71	43627.59
622.86	44189.31
623.01	44058.24
623.16	43639.29
623.32	43690.78
623.47	43957.60
623.62	43597.16
623.77	43452.05
623.92	44088.67
624.07	43503.54
624.23	43477.79
624.38	43550.35
624.53	43934.20
624.68	43632.27
624.83	43365.45
624.98	43517.58
625.13	42918.40
625.29	43569.07
625.44	43208.63
625.59	43660.35
625.74	42869.25
625.89	43248.42
626.04	42976.92
626.19	43063.52
626.34	43124.37
626.49	43384.17
626.65	43154.80
626.80	43555.03
626.95	42834.14
627.10	43091.60
627.25	42756.91
627.40	42316.89
627.55	42394.12
627.70	42445.62
627.85	42616.47
628.00	42323.91
628.15	42782.65
628.30	43019.05
628.45	43178.20
628.60	42515.83
628.76	43337.36
628.91	43154.80
629.06	42682.01
629.21	42342.63
629.36	42525.19
629.51	42969.90
629.66	42841.17
629.81	42632.86
629.96	42377.74
630.11	42593.07
630.26	42630.52
630.41	42672.65
630.56	42366.04
630.71	42274.76
630.86	42539.24
631.01	42178.79
631.16	42251.35
631.31	41787.92
631.46	41558.55
631.61	41879.21
631.76	41940.06
631.91	42019.64
632.06	42260.71
632.21	42347.31
632.36	42103.90
632.51	41825.37
632.66	41748.14
632.81	41902.61
632.96	41691.96
633.10	41970.49
633.25	41876.86
633.40	42099.22
633.55	41778.56
633.70	41752.82
633.85	41883.89
634.00	41600.68
634.15	41698.98
634.30	41827.71
634.45	42010.28
634.60	41780.90
634.75	41918.99
634.90	41383.01
635.05	41474.29
635.19	41771.54
635.34	41656.85
635.49	41577.28
635.64	41514.08
635.79	41216.83
635.94	41181.73
636.09	41610.04
636.24	41642.81
636.39	40879.80
636.53	41043.63
636.68	40847.03
636.83	41462.59
636.98	41113.85
637.13	41146.62
637.28	41354.93
637.43	41511.74
637.57	41572.60
637.72	40964.06
637.87	41085.76
638.02	41167.68
638.17	41282.37
638.32	41163.00
638.46	41198.11
638.61	40547.44
638.76	40706.60
638.91	40783.83
639.06	41319.82
639.20	41153.64
639.35	41123.21
639.50	40889.16
639.65	41195.77
639.80	40814.26
639.94	40699.58
640.09	40938.31
640.24	40329.77
640.39	40072.31
640.54	40091.04
640.68	40589.57
640.83	40301.68
640.98	40549.78
641.13	40304.02
641.27	40493.61
641.42	40149.55
641.57	40718.30
641.72	40282.96
641.86	39878.05
642.01	40154.23
642.16	40367.22
642.31	40037.20
642.45	40245.51
642.60	40046.57
642.75	40226.79
642.90	40112.10
643.04	40222.11
643.19	39950.60
643.34	39824.22
643.48	39936.56
643.63	39999.76
643.78	39739.96
643.93	40353.18
644.07	39913.16
644.22	39648.68
644.37	39896.77
644.51	39903.79
644.66	40105.08
644.81	39971.67
644.95	40189.34
645.10	39742.30
645.25	39761.02
645.39	39922.52
645.54	40271.26
645.69	39672.08
645.83	39512.92
645.98	39475.48
646.13	39838.26
646.27	39775.06
646.42	39419.30
646.57	39672.08
646.71	39515.26
646.86	39208.65
647.00	39597.18
647.15	39906.13
647.30	39288.23
647.44	39218.02
647.59	39552.71
647.74	38895.02
647.88	39271.85
648.03	39627.61
648.17	39035.45
648.32	38990.98
648.47	39374.83
648.61	39175.89
648.76	39468.45
648.90	38855.23
649.05	38862.26
649.20	38733.53
649.34	39199.29
649.49	38869.28
649.63	38827.15
649.78	38761.61
649.92	38677.35
650.07	39185.25
650.21	38789.70
650.36	38923.11
650.51	39150.14
650.65	39157.16
650.80	39086.95
650.94	39351.43
651.09	38972.26
651.23	38808.42
651.38	38431.60
651.52	38380.10
651.67	38710.12
651.81	38834.17
651.96	38256.06
652.10	38335.63
652.25	38670.33
652.39	38649.27
652.54	38394.15
652.68	38693.74
652.83	38550.96
652.97	38824.81
653.12	38382.45
653.26	38239.67
653.41	38321.59
653.55	37816.04
653.70	38143.71
653.84	38637.56
653.99	38022.00
654.13	38007.96
654.27	37710.71
654.42	37699.01
654.56	37998.60
654.71	38323.93
654.85	37682.62
655.00	37680.28
655.14	37647.52
655.29	37347.93
655.43	38150.73
655.57	37565.60
655.72	37111.53
655.86	37256.65
656.01	37214.52
656.15	36886.84
656.30	37113.87
656.44	37366.65
656.58	37095.15
656.73	37296.44
656.87	37523.47
657.01	37347.93
657.16	37521.13
657.30	37338.57
657.45	37043.66
657.59	37469.64
657.73	37104.51
657.88	37565.60
658.02	37383.04
658.16	37979.87
658.31	37457.93
658.45	37390.06
658.60	37734.12
658.74	37017.91
658.88	37123.24
659.03	36877.48
659.17	37099.83
659.31	36580.23
659.46	36996.85
659.60	36940.68
659.74	37088.13
659.89	36957.06
660.03	36739.39
660.17	36811.95
660.32	36371.92
660.46	36704.28
660.60	36994.51
660.74	36957.06
660.89	37041.32
661.03	36629.38
661.17	36484.27
661.32	35906.16
661.46	36053.61
661.60	36385.97
661.74	36250.22
661.89	36280.64
662.03	36488.95
662.17	36018.50
662.31	36341.50
662.46	36545.12
662.60	36339.16
662.74	36163.62
662.88	35917.86
663.03	35550.40
663.17	35548.06
663.31	35978.72
663.45	35466.14
663.60	35454.44
663.74	35541.03
663.88	35634.66
664.02	35438.05
664.17	35496.56
664.31	35578.48
664.45	35105.70
664.59	35140.80
664.73	35271.87
664.88	35615.93
665.02	35381.88
665.16	35154.85
665.30	34602.48
665.44	34899.73
665.59	34995.69
665.73	34808.45
665.87	35056.54
666.01	34888.03
666.15	34649.29
666.29	34939.52
666.44	34448.00
666.58	34417.58
666.72	34653.97
666.86	34644.61
667.00	34150.76
667.14	34071.18
667.28	34050.11
667.43	34204.59
667.57	34726.53
667.71	34148.42
667.85	34485.45
667.99	34164.80
668.13	33820.74
668.27	34176.50
668.41	34473.75
668.56	33769.25
668.70	34522.90
668.84	33516.47
668.98	33130.28
669.12	33408.81
669.26	33324.55
669.40	33153.69
669.54	33369.02
669.68	33467.32
669.82	33357.32
669.96	33230.93
670.10	33216.88
670.25	33549.24
670.39	32765.16
670.53	32673.88
670.67	33207.52
670.81	32910.27
670.95	32463.23
671.09	32999.21
671.23	32818.99
671.37	32753.46
671.51	32484.30
671.65	32837.72
671.79	32425.78
671.93	32491.32
672.07	32622.39
672.21	32364.93
672.35	32554.51
672.49	32432.80
672.63	32037.25
672.77	32418.76
672.91	32130.87
673.05	32156.62
673.19	31831.29
673.33	31728.30
673.47	31531.70
673.61	31487.23
673.75	31505.95
673.89	31470.84
674.03	31744.69
674.17	31339.77
674.31	31583.19
674.45	31159.55
674.59	31363.18
674.73	31374.88
674.87	31323.39
675.01	31199.34
675.15	30827.20
675.29	30927.84
675.43	30944.22
675.56	30810.81
675.70	30560.37
675.84	30501.86
675.98	29448.62
676.12	30567.40
676.26	31044.87
676.40	30302.92
676.54	30668.04
676.68	30403.56
676.82	29565.65
676.96	30272.49
677.10	29933.11
677.23	30120.35
677.37	29731.83
677.51	29727.14
677.65	29111.58
677.79	29032.00
677.93	29137.33
678.07	29163.08
678.21	28620.07
678.34	28748.80
678.48	28589.64
678.62	29008.60
678.76	28755.82
678.90	28058.34
679.04	28800.29
679.18	28664.54
679.31	27997.49
679.45	28060.68
679.59	27733.01
679.73	27885.14
679.87	27934.29
680.00	27817.27
680.14	28051.32
680.28	27906.21
680.42	28023.23
680.56	27988.13
680.70	27821.95
680.83	27744.71
680.97	27590.24
681.11	27459.16
681.25	26855.31
681.39	27711.94
681.52	27044.89
681.66	26876.37
681.80	27190.00
681.94	27096.38
682.07	26745.30
682.21	26714.87
682.35	26548.70
682.49	26749.98
682.62	26808.50
682.76	26391.88
682.90	26429.33
683.04	25795.04
683.17	26082.93
683.31	25713.13
683.45	25942.50
683.59	25729.51
683.72	25694.40
683.86	25678.02
684.00	25418.22
684.13	25666.31
684.27	25305.87
684.41	25254.38
684.55	25139.69
684.68	25212.25
684.82	25223.95
684.96	25069.48
685.09	24655.20
685.23	24828.40
685.37	24940.75
685.50	24910.32
685.64	24397.74
685.78	24484.34
685.91	24339.23
686.05	24285.40
686.19	23953.04
686.32	24217.52
686.46	23793.89
686.60	23398.34
686.73	23498.98
686.87	23108.11
687.01	22963.00
687.14	23276.63
687.28	23105.77
687.42	23372.59
687.55	23349.18
687.69	23187.69
687.82	23126.83
687.96	23065.98
688.10	22656.39
688.23	22712.56
688.37	22555.74
688.50	22714.90
688.64	22267.86
688.78	22434.03
688.91	22207.00
689.05	22537.02
689.18	22211.68
689.32	22026.78
689.46	22195.30
689.59	22129.77
689.73	22176.58
689.86	21729.53
690.00	21802.09
690.13	21729.53
690.27	21556.33
690.41	21434.63
690.54	20994.61
690.68	21329.30
690.81	21565.70
690.95	21092.91
691.08	21530.59
691.22	21139.72
691.35	21280.15
691.49	21111.63
691.62	21116.31
691.76	20638.84
691.89	20858.85
692.03	20372.02
692.16	20491.39
692.30	20332.23
692.43	20173.08
692.57	20142.65
692.70	20233.93
692.84	19953.07
692.97	20049.03
693.11	20016.26
693.24	19676.88
693.38	19695.61
693.51	19770.51
693.65	19658.16
693.78	19939.02
693.92	19517.73
694.05	19325.80
694.19	19384.32
694.32	19250.91
694.45	19199.41
694.59	19187.71
694.72	18899.83
694.86	18948.98
694.99	19026.21
695.13	18874.08
695.26	18705.56
695.39	18733.65
695.53	18647.05
695.66	18691.52
695.80	18607.26
695.93	18434.06
696.07	18228.09
696.20	18373.21
696.33	18225.75
696.47	18434.06
696.60	18258.52
696.73	17696.79
696.87	17804.46
697.00	17767.01
697.14	17745.94
697.27	17053.14
697.40	17661.68
697.54	17439.33
697.67	17352.73
697.80	17310.60
697.94	16973.56
698.07	17266.13
698.21	16854.20
698.34	17137.40
698.47	17111.66
698.61	16985.27
698.74	16793.34
698.87	16940.80
699.01	16503.12
699.14	16173.10
699.27	16299.49
699.40	16486.73
699.54	16313.53
699.67	15920.32
699.80	16255.02
699.94	15948.41
700.07	16369.71
700.20	15929.69
700.34	16025.65
700.47	16184.80
700.60	15955.43
700.73	16098.20
700.87	15941.39
701.00	15662.86
701.13	15538.82
701.26	15304.76
701.40	15440.51
701.53	15297.74
701.66	15431.15
701.79	15063.69
701.93	15232.21
702.06	14958.36
702.19	14913.89
702.32	14878.79
702.46	14831.97
702.59	14848.36
702.72	14785.16
702.85	15084.75
702.99	14878.79
703.12	14427.06
703.25	14665.80
703.38	14504.30
703.51	14445.79
703.65	14232.80
703.78	14583.88
703.91	14200.03
704.04	14019.81
704.17	13844.27
704.31	13916.83
704.44	13804.48
704.57	13895.76
704.70	13792.78
704.83	13699.16
704.96	13757.67
705.10	13820.86
705.23	13973.00
>>>>>End Processed Spectral Data<<<<<
