SpectraSuite Data File
++++++++++++++++++++++++++++++++++++
Date: Fri Oct 25 10:48:31 EDT 2013
User: price-jones
Dark Spectrum Present: No
Reference Spectrum Present: No
Number of Sampled Component Spectra: 1
Spectrometers: USB2+H05261
Integration Time (usec): 100000 (USB2+H05261)
Spectra Averaged: 1 (USB2+H05261)
Boxcar Smoothing: 0 (USB2+H05261)
Correct for Electrical Dark: No (USB2+H05261)
Strobe/Lamp Enabled: No (USB2+H05261)
Correct for Detector Non-linearity: No (USB2+H05261)
Correct for Stray Light: No (USB2+H05261)
Number of Pixels in Processed Spectrum: 2048
>>>>>Begin Processed Spectral Data<<<<<
365.73	126.39
365.92	126.39
366.12	126.39
366.32	60.85
366.52	70.22
366.72	110.01
366.91	4.68
367.11	70.22
367.31	16.38
367.51	95.96
367.70	51.49
367.90	0.00
368.10	39.79
368.30	0.00
368.49	74.90
368.69	32.77
368.89	117.03
369.09	100.64
369.28	131.07
369.48	128.73
369.68	196.60
369.87	74.90
370.07	152.13
370.27	173.20
370.47	154.48
370.66	423.64
370.86	463.43
371.06	540.66
371.25	512.58
371.45	430.66
371.65	524.28
371.84	531.30
372.04	528.96
372.24	491.51
372.44	510.24
372.63	428.32
372.83	486.83
373.03	559.39
373.22	470.45
373.42	585.13
373.62	587.47
373.81	528.96
374.01	543.00
374.21	606.20
374.40	596.84
374.60	641.31
374.79	587.47
374.99	664.71
375.19	599.18
375.38	634.29
375.58	596.84
375.78	631.94
375.97	636.63
376.17	727.91
376.37	641.31
376.56	599.18
376.76	723.23
376.95	681.10
377.15	655.35
377.35	606.20
377.54	697.48
377.74	676.41
377.93	720.88
378.13	713.86
378.33	704.50
378.52	727.91
378.72	690.46
378.91	610.88
379.11	657.69
379.31	697.48
379.50	692.80
379.70	678.76
379.89	720.88
380.09	739.61
380.28	774.72
380.48	718.54
380.68	774.72
380.87	725.57
381.07	657.69
381.26	706.84
381.46	746.63
381.65	760.67
381.85	788.76
382.04	772.38
382.24	683.44
382.43	737.27
382.63	741.95
382.83	695.14
383.02	767.70
383.22	711.52
383.41	746.63
383.61	816.85
383.80	812.17
384.00	837.91
384.19	788.76
384.39	847.27
384.58	908.13
384.78	798.12
384.97	828.55
385.17	922.17
385.36	889.40
385.56	894.08
385.75	816.85
385.95	861.32
386.14	873.02
386.34	863.66
386.53	947.92
386.72	847.27
386.92	884.72
387.11	833.23
387.31	894.08
387.50	866.00
387.70	922.17
387.89	936.21
388.09	894.08
388.28	961.96
388.48	957.28
388.67	973.66
388.86	1015.79
389.06	1034.52
389.25	1062.60
389.45	1015.79
389.64	1008.77
389.84	1090.69
390.03	1060.26
390.22	976.00
390.42	1064.94
390.61	1041.54
390.81	1095.37
391.00	1053.24
391.19	1107.07
391.39	1111.75
391.58	1104.73
391.78	1149.20
391.97	1064.94
392.16	997.07
392.36	1078.99
392.55	1053.24
392.75	1022.81
392.94	1013.45
393.13	1001.75
393.33	1123.46
393.52	1130.48
393.71	1090.69
393.91	1055.58
394.10	1217.08
394.29	1191.33
394.49	1142.18
394.68	1191.33
394.88	1200.69
395.07	1144.52
395.26	1266.23
395.46	1331.76
395.65	1268.57
395.84	1273.25
396.04	1303.68
396.23	1308.36
396.42	1188.99
396.62	1224.10
396.81	1252.19
397.00	1303.68
397.19	1362.19
397.39	1362.19
397.58	1455.81
397.77	1430.07
397.97	1465.18
398.16	1462.83
398.35	1502.62
398.55	1500.28
398.74	1418.36
398.93	1600.93
399.12	1638.38
399.32	1533.05
399.51	1479.22
399.70	1696.89
399.90	1537.73
400.09	1575.18
400.28	1671.14
400.47	1689.87
400.67	1678.16
400.86	1687.53
401.05	1617.31
401.24	1689.87
401.44	1729.66
401.63	1708.59
401.82	1769.44
402.01	1757.74
402.21	1713.27
402.40	1713.27
402.59	1678.16
402.78	1764.76
402.97	1753.06
403.17	1886.47
403.36	1914.56
403.55	1879.45
403.74	1956.69
403.93	1734.34
404.13	1844.34
404.32	1881.79
404.51	1888.81
404.70	1994.14
404.89	1989.46
405.09	1970.73
405.28	2047.97
405.47	1991.80
405.66	1952.01
405.85	2052.65
406.05	1994.14
406.24	1982.43
406.43	2043.29
406.62	2153.29
406.81	2244.57
407.00	2141.59
407.20	2052.65
407.39	2169.68
407.58	2282.02
407.77	2136.91
407.96	2197.76
408.15	2211.81
408.34	2335.85
408.54	2366.28
408.73	2436.50
408.92	2321.81
409.11	2473.95
409.30	2368.62
409.49	2265.64
409.68	2331.17
409.87	2310.11
410.07	2328.83
410.26	2422.45
410.45	2366.28
410.64	2452.88
410.83	2539.48
411.02	2548.84
411.21	2733.75
411.40	2523.10
411.59	2679.91
411.78	2677.57
411.98	2555.86
412.17	2806.30
412.36	2759.49
412.55	2661.19
412.74	2829.71
412.93	2813.32
413.12	2782.90
413.31	2897.58
413.50	2899.92
413.69	2937.37
413.88	2984.18
414.07	3028.65
414.26	2897.58
414.45	3026.31
414.64	2923.33
414.83	3084.83
415.02	2988.86
415.22	3101.21
415.41	3087.17
415.60	3101.21
415.79	3246.32
415.98	3227.60
416.17	3304.84
416.36	3295.47
416.55	3321.22
416.74	3370.37
416.93	3403.14
417.12	3368.03
417.31	3297.81
417.50	3344.63
417.69	3482.72
417.88	3569.32
418.07	3428.88
418.26	3454.63
418.45	3559.95
418.64	3728.47
418.83	3810.39
419.02	3632.51
419.21	3669.96
419.39	3613.79
419.58	3557.61
419.77	3641.87
419.96	3634.85
420.15	3707.41
420.34	3749.54
420.53	3789.33
420.72	3810.39
420.91	3957.85
421.10	3861.88
421.29	3934.44
421.48	3878.27
421.67	3822.09
421.86	3840.82
422.05	3915.72
422.24	3789.33
422.43	3899.33
422.61	3948.48
422.80	4084.23
422.99	4079.55
423.18	3985.93
423.37	4063.17
423.56	3887.63
423.75	3861.88
423.94	4053.81
424.13	3779.97
424.32	3868.91
424.50	4065.51
424.69	4063.17
424.88	4091.26
425.07	4044.45
425.26	3791.67
425.45	4084.23
425.64	3976.57
425.83	4028.06
426.01	4109.98
426.20	4170.83
426.39	3999.98
426.58	4086.58
426.77	3999.98
426.96	4021.04
427.15	4102.96
427.33	4131.05
427.52	4117.00
427.71	4278.50
427.90	4229.35
428.09	4322.97
428.28	4243.39
428.46	4418.93
428.65	4318.29
428.84	4287.86
429.03	4395.53
429.22	4287.86
429.40	4198.92
429.59	4138.07
429.78	4107.64
429.97	3941.46
430.16	4196.58
430.34	4140.41
430.53	4304.25
430.72	4339.35
430.91	4252.75
431.10	4365.10
431.28	4550.00
431.47	4823.84
431.66	4582.77
431.85	4561.70
432.03	4765.33
432.22	4697.46
432.41	4716.18
432.60	4760.65
432.79	4748.95
432.97	4814.48
433.16	4758.31
433.35	4868.31
433.54	4807.46
433.72	4699.80
433.91	4765.33
434.10	4814.48
434.28	4870.65
434.47	4922.15
434.66	5025.13
434.85	5057.90
435.03	5125.77
435.22	5064.92
435.41	5231.10
435.59	5139.82
435.78	5212.37
435.97	5198.33
436.16	5018.11
436.34	5322.38
436.53	5280.25
436.72	5416.00
436.90	5156.20
437.09	5174.92
437.28	5165.56
437.46	5217.05
437.65	5219.39
437.84	5296.63
438.02	5142.16
438.21	5240.46
438.40	5373.87
438.58	5343.44
438.77	5406.64
438.96	5441.75
439.14	5612.60
439.33	5720.27
439.52	5825.59
439.70	5631.33
439.89	5792.83
440.08	5717.93
440.26	5909.85
440.45	5755.38
440.63	5919.21
440.82	6169.65
441.01	6031.56
441.19	6033.90
441.38	6235.19
441.57	6122.84
441.75	6410.73
441.94	6530.09
442.12	6286.68
442.31	6375.62
442.50	6509.03
442.68	6422.43
442.87	6539.46
443.05	6445.84
443.24	6434.13
443.43	6396.68
443.61	6562.86
443.80	6705.63
443.98	6305.40
444.17	6298.38
444.35	6684.57
444.54	6754.79
444.73	6656.48
444.91	6539.46
445.10	6630.74
445.28	6471.58
445.47	6494.99
445.65	6595.63
445.84	6499.67
446.02	6661.16
446.21	6700.95
446.39	6635.42
446.58	6857.77
446.77	6693.93
446.95	6623.72
447.14	6703.29
447.32	6832.02
447.51	6693.93
447.69	6869.47
447.88	6897.56
448.06	6993.52
448.25	6946.71
448.43	6920.96
448.62	6913.94
448.80	6846.07
448.99	6874.15
449.17	7056.72
449.36	7028.63
449.54	7267.36
449.73	7290.77
449.91	7229.91
450.10	7456.95
450.28	7459.29
450.46	7094.16
450.65	7459.29
450.83	7375.03
451.02	7281.41
451.20	7288.43
451.39	7248.64
451.57	7368.01
451.76	7283.75
451.94	7328.22
452.13	7325.88
452.31	7368.01
452.49	7321.20
452.68	7372.69
452.86	7286.09
453.05	7660.57
453.23	7527.16
453.42	7363.33
453.60	7616.10
453.78	7419.50
453.97	7494.40
454.15	7487.37
454.34	7543.55
454.52	7763.56
454.70	7676.96
454.89	7665.25
455.07	7815.05
455.26	7845.48
455.44	7868.88
455.62	7822.07
455.81	7847.82
455.99	7936.76
456.17	8088.89
456.36	7960.16
456.54	8081.87
456.73	8159.11
456.91	8287.84
457.09	8201.24
457.28	8446.99
457.46	8315.92
457.64	8205.92
457.83	8322.94
458.01	8208.26
458.19	8451.67
458.38	8266.77
458.56	8463.38
458.74	8454.02
458.93	8173.15
459.11	8358.05
459.29	8465.72
459.48	8627.21
459.66	8521.89
459.84	8505.51
460.03	8496.14
460.21	8566.36
460.39	8692.75
460.57	8606.15
460.76	8748.92
460.94	8854.25
461.12	8716.16
461.31	8767.65
461.49	8769.99
461.67	8833.18
461.85	8999.36
462.04	8835.52
462.22	9420.66
462.40	9039.15
462.59	9025.11
462.77	9179.58
462.95	9125.75
463.13	9036.81
463.32	9004.04
463.50	9036.81
463.68	9179.58
463.86	9125.75
464.05	9069.58
464.23	8926.80
464.41	9280.22
464.59	9104.68
464.78	9149.15
464.96	9247.46
465.14	9277.88
465.32	9371.50
465.50	9383.21
465.69	9551.73
465.87	9427.68
466.05	9387.89
466.23	9392.57
466.41	9343.42
466.60	9460.45
466.78	9202.99
466.96	9472.15
467.14	9619.60
467.32	9397.25
467.51	9659.39
467.69	9338.74
467.87	9631.30
468.05	9640.67
468.23	9619.60
468.41	9760.03
468.60	9687.48
468.78	9933.23
468.96	9680.46
469.14	9774.08
469.32	9958.98
469.50	9713.22
469.69	10001.11
469.87	10005.79
470.05	9982.38
470.23	9907.49
470.41	9940.26
470.59	9956.64
470.77	10092.39
470.95	10132.18
471.14	10380.28
471.32	10125.16
471.50	10349.85
471.68	10218.78
471.86	10548.79
472.04	10389.64
472.22	10544.11
472.40	10541.77
472.58	10382.62
472.77	10731.36
472.95	10736.04
473.13	11126.91
473.31	10806.25
473.49	10691.57
473.67	11110.52
473.85	10965.41
474.03	10970.09
474.21	11157.33
474.39	11323.51
474.57	11239.25
474.75	11330.53
474.93	11321.17
475.12	11269.68
475.30	11520.12
475.48	11477.99
475.66	11477.99
475.84	11501.39
476.02	11545.86
476.20	11569.27
476.38	11831.41
476.56	11978.86
476.74	12002.27
476.92	12025.67
477.10	12079.50
477.28	12278.45
477.46	12336.96
477.64	12608.47
477.82	12805.07
478.00	12835.50
478.18	12776.98
478.36	12624.85
478.54	12959.55
478.72	12870.61
478.90	13001.68
479.08	13348.08
479.26	13474.46
479.44	13345.73
479.62	13348.08
479.80	13516.59
479.98	13778.73
480.16	13767.03
480.34	13490.85
480.52	14015.13
480.70	13839.59
480.88	13771.71
481.06	13973.00
481.24	14326.42
481.41	14326.42
481.59	14743.03
481.77	14745.38
481.95	14717.29
482.13	15073.05
482.31	14764.10
482.49	15279.02
482.67	15051.99
482.85	15515.41
483.03	15513.07
483.21	15602.01
483.39	15704.99
483.57	15831.38
483.74	15786.91
483.92	15777.55
484.10	15899.26
484.28	15981.18
484.46	16322.90
484.64	16416.52
484.82	16432.90
485.00	16601.42
485.18	16730.15
485.35	16620.14
485.53	16313.53
485.71	16350.98
485.89	16699.72
486.07	16716.11
486.25	16893.99
486.43	17081.23
486.61	17549.34
486.78	17404.22
486.96	17675.73
487.14	17954.25
487.32	18054.89
487.50	18204.69
487.68	18616.62
487.85	18714.92
488.03	18869.40
488.21	18881.10
488.39	18974.72
488.57	19026.21
488.75	19157.28
488.92	19583.26
489.10	19686.25
489.28	19637.09
489.46	20095.84
489.64	19857.10
489.81	20702.04
489.99	20379.04
490.17	20601.40
490.35	20879.92
490.53	20713.74
490.70	20688.00
490.88	20652.89
491.06	21376.11
491.24	21223.98
491.41	21296.53
491.59	21057.80
491.77	21233.34
491.95	21516.54
492.13	21734.21
492.30	21994.01
492.48	22331.05
492.66	22251.47
492.84	22293.60
493.01	22324.03
493.19	22368.50
493.37	22827.24
493.54	22485.53
493.72	22869.37
493.90	22944.27
494.08	23557.49
494.25	23524.72
494.43	23510.68
494.61	23754.10
494.79	23882.83
494.96	23789.20
495.14	23742.39
495.32	24280.72
495.49	24187.10
495.67	24514.77
495.85	24411.79
496.02	25015.65
496.20	24814.36
496.38	24774.57
496.55	24713.72
496.73	25663.97
496.91	25256.72
497.09	25352.68
497.26	25600.78
497.44	25507.16
497.62	25598.44
497.79	25963.56
497.97	25757.60
498.14	26127.40
498.32	26380.18
498.50	26106.34
498.67	26450.39
498.85	26422.31
499.03	26733.60
499.20	26953.61
499.38	26572.10
499.56	26698.49
499.73	26799.13
499.91	27037.87
500.08	27234.47
500.26	26733.60
500.44	27101.06
500.61	27232.13
500.79	27213.41
500.97	27531.72
501.14	27274.26
501.32	27250.86
501.49	27892.16
501.67	27576.19
501.84	27658.11
502.02	27807.90
502.20	27709.60
502.37	28336.87
502.55	28517.09
502.72	28655.18
502.90	28566.24
503.07	28610.71
503.25	28627.09
503.43	28542.83
503.60	28458.57
503.78	28765.18
503.95	28912.64
504.13	28898.59
504.30	28987.53
504.48	28835.40
504.65	29214.57
504.83	29633.52
505.01	29638.20
505.18	29680.33
505.36	29790.34
505.53	30134.40
505.71	30237.38
505.88	30244.40
506.06	29912.05
506.23	30204.61
506.41	29921.41
506.58	30567.40
506.76	30110.99
506.93	30452.71
507.11	30328.66
507.28	30637.61
507.46	30532.29
507.63	30462.07
507.81	30967.63
507.98	30803.79
508.16	31079.97
508.33	31056.57
508.50	31367.86
508.68	31363.18
508.85	31625.32
509.03	31838.31
509.20	31824.26
509.38	31601.91
509.55	31838.31
509.73	31892.14
509.90	32039.59
510.08	31786.82
510.25	32346.20
510.42	31985.76
510.60	32407.06
510.77	32891.55
510.95	32488.98
511.12	32393.01
511.30	32528.77
511.47	32622.39
511.64	33113.90
511.82	33043.68
511.99	32961.76
512.17	32947.72
512.34	32975.81
512.51	33474.34
512.69	33516.47
512.86	33282.42
513.04	33991.60
513.21	33738.82
513.38	33163.05
513.56	33483.70
513.73	33340.93
513.90	33872.23
514.08	33427.53
514.25	33507.11
514.43	34059.48
514.60	33596.05
514.77	33544.56
514.95	34017.35
515.12	34167.14
515.29	34679.72
515.47	34518.22
515.64	34534.60
515.81	34562.69
515.99	34522.90
516.16	34345.02
516.33	34298.21
516.51	33764.57
516.68	34174.16
516.85	33874.57
517.03	34450.35
517.20	34375.45
517.37	34677.38
517.54	34885.68
517.72	34878.66
517.89	34396.51
518.06	35049.52
518.24	34520.56
518.41	34567.37
518.58	35257.83
518.75	35384.22
518.93	35473.16
519.10	35543.38
519.27	35590.19
519.45	35889.77
519.62	36062.97
519.79	35927.22
519.96	36172.98
520.14	36180.00
520.31	36208.09
520.48	36273.62
520.65	36329.80
520.83	36388.31
521.00	37041.32
521.17	36402.35
521.34	36554.49
521.52	36598.96
521.69	36559.17
521.86	36954.72
522.03	37029.62
522.20	37104.51
522.38	37141.96
522.55	37340.91
522.72	36989.83
522.89	37148.98
523.07	37230.90
523.24	37418.14
523.41	37710.71
523.58	37181.75
523.75	37738.80
523.92	37715.39
524.10	37792.63
524.27	38029.02
524.44	37706.03
524.61	37710.71
524.78	38239.67
524.96	38085.20
525.13	38359.04
525.30	38288.82
525.47	38359.04
525.64	38609.48
525.81	37993.92
525.98	38424.57
526.16	37942.42
526.33	37778.59
526.50	38143.71
526.67	38340.32
526.84	38326.27
527.01	38012.64
527.18	38532.24
527.36	38864.60
527.53	38848.21
527.70	39339.72
527.87	39133.76
528.04	38934.81
528.21	38852.89
528.38	39452.07
528.55	39515.26
528.72	39276.53
528.89	39360.79
529.07	39344.41
529.24	39412.28
529.41	39571.44
529.58	39402.92
529.75	39653.36
529.92	39459.09
530.09	39831.24
530.26	39983.37
530.43	39864.00
530.60	39309.30
530.77	40282.96
530.94	39814.85
531.11	40144.87
531.28	40231.47
531.46	40470.20
531.63	40025.50
531.80	40306.37
531.97	40802.56
532.14	40261.90
532.31	40072.31
532.48	40287.64
532.65	40605.95
532.82	40596.59
532.99	40734.68
533.16	40418.71
533.33	40959.38
533.50	40919.59
533.67	40849.37
533.84	40779.15
534.01	40659.79
534.18	41120.87
534.35	41579.62
534.52	40711.28
534.69	40973.42
534.86	41352.58
535.03	41202.79
535.20	41478.97
535.37	41577.28
535.54	41560.89
535.71	41493.02
535.88	41514.08
536.05	41588.98
536.22	41804.31
536.38	41467.27
536.55	41434.50
536.72	41202.79
536.89	41429.82
537.06	41539.83
537.23	41500.04
537.40	41577.28
537.57	42066.45
537.74	41792.61
537.91	42422.21
538.08	42188.16
538.25	41958.78
538.42	41844.10
538.59	41825.37
538.75	41523.44
538.92	42314.55
539.09	42443.27
539.26	42316.89
539.43	42143.69
539.60	42553.28
539.77	42195.18
539.94	41956.44
540.11	42333.27
540.28	42052.41
540.44	41766.86
540.61	42480.72
540.78	42181.13
540.95	42120.28
541.12	42494.77
541.29	42653.92
541.46	42754.57
541.62	42719.46
541.79	42909.04
541.96	42366.04
542.13	42487.74
542.30	42733.50
542.47	43042.45
542.63	43180.54
542.80	42946.49
542.97	43285.87
543.14	43297.57
543.31	42955.85
543.48	42965.21
543.64	43730.57
543.81	43688.44
543.98	43854.62
544.15	43480.13
544.32	43580.78
544.48	44006.75
544.65	43590.14
544.82	43704.82
544.99	43494.18
545.16	43461.41
545.32	43573.75
545.49	43660.35
545.66	44355.49
545.83	43779.72
546.00	43866.32
546.16	44144.84
546.33	43917.81
546.50	43777.38
546.67	43709.50
546.83	43924.83
547.00	44357.83
547.17	43632.27
547.34	44147.18
547.50	43917.81
547.67	44219.74
547.84	44088.67
548.00	44500.61
548.17	44528.69
548.34	44086.33
548.51	44406.98
548.67	44786.15
548.84	44634.02
549.01	44402.30
549.18	44795.51
549.34	44942.97
549.51	44332.09
549.68	44921.90
549.84	44800.19
550.01	44418.69
550.18	44587.21
550.34	44505.29
550.51	44507.63
550.68	44938.29
550.84	44392.94
551.01	45436.82
551.18	44849.35
551.34	45132.55
551.51	44753.38
551.68	44814.24
551.84	45104.46
552.01	45036.59
552.18	44552.10
552.34	44940.63
552.51	45043.61
552.68	44669.12
552.84	44980.42
553.01	45808.96
553.18	45219.15
553.34	45261.28
553.51	45118.51
553.67	45361.92
553.84	45797.26
554.01	45703.64
554.17	45537.46
554.34	45687.26
554.51	45883.86
554.67	46012.59
554.84	45734.07
555.00	45315.11
555.17	45530.44
555.33	45691.94
555.50	46000.89
555.67	45525.76
555.83	45722.37
556.00	45972.80
556.16	45736.41
556.33	45563.21
556.50	45961.10
556.66	45996.21
556.83	45675.55
556.99	45773.86
557.16	46307.50
557.32	45876.84
557.49	45904.93
557.65	45759.81
557.82	45815.99
557.98	45940.04
558.15	45996.21
558.32	46211.54
558.48	45710.66
558.65	45860.46
558.81	45979.82
558.98	45734.07
559.14	46108.55
559.31	46010.25
559.47	45984.51
559.64	46373.03
559.80	46522.83
559.97	46227.92
560.13	46052.38
560.30	46188.13
560.46	46087.49
560.63	46050.04
560.79	45996.21
560.96	46553.26
561.12	46366.01
561.29	46560.28
561.45	46227.92
561.61	46005.57
561.78	46305.16
561.94	46005.57
562.11	46305.16
562.27	46452.61
562.44	46436.23
562.60	46520.49
562.77	46738.16
562.93	46368.35
563.10	46213.88
563.26	46188.13
563.42	46684.33
563.59	46241.96
563.75	46014.93
563.92	46408.14
564.08	46588.36
564.24	46513.47
564.41	46862.21
564.57	46340.27
564.74	46597.73
564.90	46892.63
565.07	46256.01
565.23	46555.60
565.39	46646.88
565.56	46653.90
565.72	46160.05
565.88	46466.66
566.05	46232.60
566.21	46288.77
566.38	46307.50
566.54	46740.50
566.70	46637.51
566.87	47325.63
567.03	46656.24
567.19	47114.98
567.36	46534.53
567.52	46593.04
567.68	46897.31
567.85	46473.68
568.01	46543.89
568.17	46368.35
568.34	46808.37
568.50	46518.15
568.66	46155.36
568.83	46873.91
568.99	46527.51
569.15	46906.68
569.32	46639.86
569.48	46419.84
569.64	46665.60
569.81	46986.25
569.97	46443.25
570.13	46990.94
570.30	46518.15
570.46	46405.80
570.62	46335.59
570.78	46134.30
570.95	46555.60
571.11	46707.73
571.27	47030.72
571.43	46726.46
571.60	47173.50
571.76	46569.64
571.92	47049.45
572.09	46534.53
572.25	46813.05
572.41	46604.75
572.57	46871.57
572.74	47437.98
572.90	47058.81
573.06	46958.17
573.22	47189.88
573.38	47173.50
573.55	46710.07
573.71	47498.83
573.87	46651.56
574.03	46508.79
574.20	46717.09
574.36	46820.08
574.52	46962.85
574.68	47356.06
574.84	46997.96
575.01	47000.30
575.17	46948.81
575.33	46586.02
575.49	46590.70
575.65	47447.34
575.82	46986.25
575.98	47002.64
576.14	47512.88
576.30	47035.41
576.46	46923.06
576.62	46916.04
576.79	47040.09
576.95	46433.89
577.11	46852.84
577.27	47157.11
577.43	46925.40
577.59	46705.39
577.75	46817.74
577.92	46630.49
578.08	46490.06
578.24	46562.62
578.40	46717.09
578.56	46681.98
578.72	46913.70
578.88	46920.72
579.04	46705.39
579.21	46866.89
579.37	46557.94
579.53	46452.61
579.69	46904.34
579.85	47210.95
580.01	47014.34
580.17	47147.75
580.33	47629.90
580.49	47000.30
580.65	47206.26
580.82	47428.62
580.98	46698.37
581.14	46658.58
581.30	47423.93
581.46	46974.55
581.62	46817.74
581.78	46906.68
581.94	47545.64
582.10	46972.21
582.26	47122.01
582.42	47566.71
582.58	47161.79
582.74	46958.17
582.90	46717.09
583.06	47058.81
583.22	47533.94
583.38	47138.39
583.54	47313.93
583.70	47325.63
583.86	47166.48
584.02	46543.89
584.18	46873.91
584.34	46876.25
584.50	47054.13
584.66	46799.01
584.82	47091.58
584.98	47208.61
585.14	47489.47
585.30	47295.21
585.46	46960.51
585.62	46766.24
585.78	47084.56
585.94	46562.62
586.10	46955.83
586.26	46967.53
586.42	46944.12
586.58	46939.44
586.74	46855.18
586.90	46506.44
587.06	47058.81
587.22	46782.63
587.38	46887.95
587.54	47430.96
587.70	47437.98
587.86	46770.93
588.02	46981.57
588.18	47227.33
588.34	46880.93
588.49	46674.96
588.65	46356.65
588.81	46131.96
588.97	46735.82
589.13	46855.18
589.29	46244.30
589.45	46714.75
589.61	47037.75
589.77	47224.99
589.93	46923.06
590.08	47236.69
590.24	47334.99
590.40	47360.74
590.56	47325.63
590.72	47468.40
590.88	46925.40
591.04	46817.74
591.20	47353.72
591.35	47414.57
591.51	47594.79
591.67	47477.77
591.83	47304.57
591.99	47042.43
592.15	47182.86
592.31	47138.39
592.46	47075.19
592.62	46960.51
592.78	47419.25
592.94	47351.38
593.10	46780.29
593.26	47021.36
593.41	47248.39
593.57	47302.23
593.73	47419.25
593.89	47342.02
594.05	47136.05
594.20	47243.71
594.36	47606.50
594.52	47452.02
594.68	47171.16
594.84	47161.79
594.99	47477.77
595.15	46934.76
595.31	47133.71
595.47	47796.08
595.62	47325.63
595.78	47482.45
595.94	47613.52
596.10	47650.97
596.25	47620.54
596.41	47297.55
596.57	47398.19
596.73	47414.57
596.88	47096.26
597.04	47613.52
597.20	47306.91
597.36	47136.05
597.51	47405.21
597.67	47412.23
597.83	47435.64
597.99	47807.78
598.14	47262.44
598.30	47498.83
598.46	47386.49
598.61	47072.85
598.77	47138.39
598.93	46857.52
599.09	47000.30
599.24	47515.22
599.40	47480.11
599.56	47381.80
599.71	47157.11
599.87	47709.48
600.03	47332.65
600.18	47512.88
600.34	47405.21
600.50	47316.27
600.65	47248.39
600.81	47753.95
600.97	47086.90
601.12	47302.23
601.28	47276.48
601.44	47377.12
601.59	47552.66
601.75	47330.31
601.91	47187.54
602.06	47030.72
602.22	47175.84
602.37	47150.09
602.53	47152.43
602.69	47732.89
602.84	47426.28
603.00	47224.99
603.16	47332.65
603.31	47047.11
603.47	46990.94
603.62	46939.44
603.78	47498.83
603.94	47566.71
604.09	46983.91
604.25	47363.08
604.40	47407.55
604.56	47482.45
604.71	47393.51
604.87	47257.76
605.03	47026.04
605.18	46981.57
605.34	47019.02
605.49	46932.42
605.65	46939.44
605.80	47122.01
605.96	47084.56
606.12	47103.28
606.27	47124.35
606.43	46902.00
606.58	47063.49
606.74	47054.13
606.89	46897.31
607.05	46995.62
607.20	47161.79
607.36	47147.75
607.51	47180.52
607.67	47091.58
607.82	46789.65
607.98	47072.85
608.13	47098.60
608.29	47100.94
608.44	46724.11
608.60	46197.49
608.75	46497.08
608.91	46869.23
609.06	46962.85
609.22	47042.43
609.37	46820.08
609.53	46862.21
609.68	47000.30
609.84	46689.01
609.99	46703.05
610.15	46520.49
610.30	46464.32
610.46	46920.72
610.61	46635.17
610.76	46665.60
610.92	46726.46
611.07	46763.90
611.23	46595.38
611.38	46410.48
611.54	46513.47
611.69	46019.61
611.84	46560.28
612.00	46213.88
612.15	46115.58
612.31	46323.88
612.46	46380.06
612.62	46705.39
612.77	46328.56
612.92	46574.32
613.08	46014.93
613.23	46841.14
613.39	46043.02
613.54	45649.81
613.69	46113.23
613.85	45860.46
614.00	46483.04
614.15	46686.67
614.31	46380.06
614.46	46333.24
614.62	46417.50
614.77	46117.92
614.92	45869.82
615.08	46431.55
615.23	45813.65
615.38	46017.27
615.54	45703.64
615.69	45764.49
615.84	46073.45
616.00	45801.94
616.15	45940.04
616.30	46141.32
616.46	45771.52
616.61	45684.92
616.76	45954.08
616.92	45743.43
617.07	45539.80
617.22	45872.16
617.37	45766.84
617.53	46141.32
617.68	46038.34
617.83	45813.65
617.99	45663.85
618.14	45443.84
618.29	45780.88
618.45	45525.76
618.60	45312.77
618.75	45656.83
618.90	45397.03
619.06	45558.53
619.21	45441.50
619.36	45551.51
619.51	45448.52
619.67	45104.46
619.82	45483.63
619.97	45902.59
620.12	45205.11
620.28	45298.73
620.43	45162.98
620.58	45209.79
620.73	45570.23
620.89	45326.81
621.04	45006.16
621.19	45326.81
621.34	45095.10
621.49	45308.09
621.65	45062.33
621.80	45045.95
621.95	44652.74
622.10	45071.70
622.25	44926.58
622.41	44987.44
622.56	44641.04
622.71	45265.96
622.86	44495.92
623.01	44769.77
623.16	44830.62
623.32	45315.11
623.47	44914.88
623.62	44971.05
623.77	44580.18
623.92	44287.62
624.07	44285.28
624.23	44348.47
624.38	44486.56
624.53	43976.33
624.68	44856.37
624.83	44425.71
624.98	44832.96
625.13	44158.89
625.29	44364.85
625.44	44619.97
625.59	44559.12
625.74	44212.72
625.89	43323.32
626.04	43978.67
626.19	43770.36
626.34	44287.62
626.49	44016.11
626.65	44236.12
626.80	44135.48
626.95	44140.16
627.10	43770.36
627.25	43948.24
627.40	43716.53
627.55	43440.34
627.70	43423.96
627.85	43016.71
628.00	43524.60
628.15	43969.30
628.30	43845.26
628.45	43627.59
628.60	43508.22
628.76	43861.64
628.91	44133.14
629.06	43849.94
629.21	43550.35
629.36	43440.34
629.51	43690.78
629.66	43100.97
629.81	43470.77
629.96	43423.96
630.11	43697.80
630.26	43414.60
630.41	43377.15
630.56	43210.97
630.71	43608.86
630.86	43253.10
631.01	43590.14
631.16	43171.18
631.31	42827.12
631.46	42572.00
631.61	43414.60
631.76	42988.62
631.91	42937.13
632.06	43005.00
632.21	43349.06
632.36	43309.27
632.51	42391.78
632.66	43388.85
632.81	42745.20
632.96	42930.11
633.10	42721.80
633.25	42595.41
633.40	42639.88
633.55	43276.51
633.70	42792.01
633.85	42841.17
634.00	42836.48
634.15	42916.06
634.30	43077.56
634.45	43091.60
634.60	42742.86
634.75	43143.09
634.90	42707.76
635.05	42965.21
635.19	42632.86
635.34	42415.19
635.49	42822.44
635.64	42366.04
635.79	42258.37
635.94	42185.82
636.09	42902.02
636.24	42340.29
636.39	42431.57
636.53	41961.12
636.68	41867.50
636.83	41848.78
636.98	42799.04
637.13	42059.43
637.28	42234.97
637.43	42337.95
637.57	42026.66
637.72	42382.42
637.87	42319.23
638.02	41701.32
638.17	41841.76
638.32	41907.29
638.46	42071.13
638.61	41904.95
638.76	41432.16
638.91	42101.56
639.06	41858.14
639.20	41844.10
639.35	41825.37
639.50	41860.48
639.65	41729.41
639.80	41890.91
639.94	41713.03
640.09	41848.78
640.24	41106.83
640.39	41427.48
640.54	41146.62
640.68	41401.74
640.83	41790.27
640.98	41265.99
641.13	40886.82
641.27	41523.44
641.42	41720.05
641.57	41486.00
641.72	40879.80
641.86	41137.26
642.01	41001.50
642.16	41027.25
642.31	40832.99
642.45	40999.16
642.60	40851.71
642.75	41256.62
642.90	40865.75
643.04	41216.83
643.19	41006.19
643.34	41029.59
643.48	41209.81
643.63	41064.70
643.78	40774.47
643.93	41120.87
644.07	40505.31
644.22	40938.31
644.37	40697.24
644.51	40662.13
644.66	40722.98
644.81	41097.47
644.95	40961.72
645.10	41034.27
645.25	40882.14
645.39	40767.45
645.54	41139.60
645.69	40715.96
645.83	40519.35
645.98	40559.14
646.13	40418.71
646.27	40631.70
646.42	40399.99
646.57	40306.37
646.71	40437.44
646.86	40409.35
647.00	40282.96
647.15	39903.79
647.30	40603.61
647.44	40313.39
647.59	40402.33
647.74	40212.74
647.88	40201.04
648.03	40390.62
648.17	40275.94
648.32	39704.85
648.47	39835.92
648.61	40126.14
648.76	40500.63
648.90	40004.44
649.05	40488.93
649.20	40058.27
649.34	39866.34
649.49	39779.74
649.63	39997.41
649.78	39585.48
649.92	39885.07
650.07	40336.79
650.21	39519.95
650.36	39880.39
650.51	40264.24
650.65	40315.73
650.80	39814.85
650.94	40252.53
651.09	40088.70
651.23	39667.40
651.38	39442.71
651.52	39426.32
651.67	39847.62
651.81	39842.94
651.96	39203.97
652.10	39386.54
652.25	38993.32
652.39	39428.66
652.54	39166.52
652.68	40053.59
652.83	39269.51
652.97	39824.22
653.12	39445.05
653.26	39646.33
653.41	39335.04
653.55	39077.58
653.70	39290.57
653.84	39262.49
653.99	39714.21
654.13	39372.49
654.27	39077.58
654.42	39112.69
654.56	39021.41
654.71	39124.40
654.85	39117.37
655.00	38494.79
655.14	38667.99
655.29	38866.94
655.43	38494.79
655.57	38548.62
655.72	38300.53
655.86	38143.71
656.01	37954.13
656.15	37879.23
656.30	38394.15
656.44	38132.01
656.58	38450.32
656.73	38520.54
656.87	37928.38
657.01	38342.66
657.16	38237.33
657.30	37869.87
657.45	38352.02
657.59	38403.51
657.73	38225.63
657.88	38567.35
658.02	38242.01
658.16	38274.78
658.31	38286.48
658.45	37991.58
658.60	38270.10
658.74	38595.43
658.88	38085.20
659.03	37839.44
659.17	37816.04
659.31	38450.32
659.46	38012.64
659.60	37930.72
659.74	37909.66
659.89	37560.92
660.03	37235.58
660.17	37935.40
660.32	37663.90
660.46	37497.72
660.60	37806.67
660.74	37401.76
660.89	37956.47
661.03	37205.16
661.17	37170.05
661.32	36769.82
661.46	36905.57
661.60	37174.73
661.74	36678.54
661.89	36921.95
662.03	37467.30
662.17	36751.09
662.31	36971.10
662.46	36987.49
662.60	37254.31
662.74	36601.30
662.88	36840.03
663.03	37141.96
663.17	36645.77
663.31	36561.51
663.45	36690.24
663.60	36566.19
663.74	36512.36
663.88	36488.95
664.02	35742.32
664.17	36423.42
664.31	36020.84
664.45	36247.88
664.59	36542.78
664.73	36142.55
664.88	36392.99
665.02	35814.88
665.16	35976.37
665.30	36165.96
665.44	35826.58
665.59	35625.29
665.73	36116.81
665.87	35756.36
666.01	35534.01
666.15	35768.07
666.29	35800.83
666.44	36058.29
666.58	35255.49
666.72	35496.56
666.86	35812.54
667.00	35512.95
667.14	35005.05
667.28	35182.93
667.43	34988.67
667.57	35084.63
667.71	34948.88
667.85	35161.87
667.99	34848.24
668.13	34335.66
668.27	34597.80
668.41	35037.82
668.56	34609.50
668.70	34902.07
668.84	34574.39
668.98	34607.16
669.12	34417.58
669.26	34604.82
669.40	34359.06
669.54	34110.97
669.68	34167.14
669.82	34085.22
669.96	33862.87
670.10	33909.68
670.25	34045.43
670.39	33933.09
670.53	33834.78
670.67	33879.25
670.81	33717.76
670.95	34139.05
671.09	33544.56
671.23	33776.27
671.37	33809.04
671.51	33635.84
671.65	33670.95
671.79	33219.22
671.93	33163.05
672.07	33771.59
672.21	32758.14
672.35	32910.27
672.49	32713.67
672.63	33102.20
672.77	32907.93
672.91	33027.30
673.05	32594.30
673.19	33010.92
673.33	32966.45
673.47	32456.21
673.61	32233.86
673.75	32404.72
673.89	31992.78
674.03	32198.75
674.17	31810.22
674.31	31913.20
674.45	31868.73
674.59	31960.02
674.73	32348.54
674.87	31852.35
675.01	31775.11
675.15	31765.75
675.29	32067.68
675.43	31957.67
675.56	31922.57
675.70	31618.30
675.84	31140.83
675.98	30478.46
676.12	31615.96
676.26	30808.47
676.40	30927.84
676.54	31044.87
676.68	31098.70
676.82	30232.70
676.96	30930.18
677.10	30616.55
677.23	30323.98
677.37	30609.53
677.51	30256.11
677.65	30253.76
677.79	29734.17
677.93	30012.69
678.07	30171.85
678.21	29736.51
678.34	29954.18
678.48	29675.65
678.62	30059.50
678.76	29191.16
678.90	29500.11
679.04	29205.20
679.18	29579.69
679.31	29083.50
679.45	29081.16
679.59	28896.25
679.73	28907.96
679.87	29032.00
680.00	28498.36
680.14	28800.29
680.28	28694.97
680.42	28868.17
680.56	28470.28
680.70	28130.90
680.83	28016.21
680.97	28091.11
681.11	27934.29
681.25	27737.69
681.39	28112.17
681.52	27885.14
681.66	27632.36
681.80	27826.63
681.94	27903.87
682.07	27637.05
682.21	27264.90
682.35	27239.15
682.49	27644.07
682.62	27367.88
682.76	26986.38
682.90	26892.76
683.04	26920.84
683.17	26565.08
683.31	26642.32
683.45	26735.94
683.59	26366.13
683.72	26066.55
683.86	26075.91
684.00	25951.86
684.13	26223.36
684.27	26293.58
684.41	26492.52
684.55	25977.61
684.68	25802.07
684.82	25404.17
684.96	25521.20
685.09	25514.18
685.23	25528.22
685.37	25397.15
685.50	25448.64
685.64	25556.31
685.78	25113.95
685.91	25109.27
686.05	24807.34
686.19	24898.62
686.32	24788.61
686.46	24446.90
686.60	24105.18
686.73	24395.40
686.87	24142.63
687.01	24025.60
687.14	23473.23
687.28	23576.22
687.42	23534.09
687.55	23374.93
687.69	23456.85
687.82	23590.26
687.96	23578.56
688.10	23494.30
688.23	23414.72
688.37	23257.90
688.50	23012.15
688.64	22946.61
688.78	23124.49
688.91	22827.24
689.05	22855.33
689.18	22668.09
689.32	22356.80
689.46	22567.45
689.59	22588.51
689.73	22506.59
689.86	22532.34
690.00	22171.89
690.13	22677.45
690.27	22317.01
690.41	22312.33
690.54	21832.52
690.68	21965.93
690.81	21858.26
690.95	21563.36
691.08	21881.67
691.22	21869.97
691.35	21621.87
691.49	21528.25
691.62	21656.98
691.76	21671.02
691.89	21303.56
692.03	21425.26
692.16	21062.48
692.30	21233.34
692.43	20999.29
692.57	20858.85
692.70	20940.77
692.84	20636.50
692.97	20711.40
693.11	20477.35
693.24	20407.13
693.38	20299.47
693.51	20018.60
693.65	20482.03
693.78	20217.55
693.92	20065.41
694.05	19948.39
694.19	19906.26
694.32	19613.69
694.45	19915.62
694.59	19419.42
694.72	19599.65
694.86	19564.54
694.99	19056.64
695.13	18761.73
695.26	18998.13
695.39	18948.98
695.53	18937.27
695.66	19477.94
695.80	18909.19
695.93	18897.49
696.07	18672.79
696.20	18841.31
696.33	18548.75
696.47	18661.09
696.60	18506.62
696.73	18373.21
696.87	18476.19
697.00	18459.81
697.14	18047.87
697.27	18045.53
697.40	18157.88
697.54	17699.13
697.67	17895.74
697.80	18033.83
697.94	17696.79
698.07	17764.67
698.21	17692.11
698.34	17825.52
698.47	17816.16
698.61	17165.49
698.74	17530.61
698.87	17041.44
699.01	16994.63
699.14	16987.61
699.27	16882.28
699.40	16919.73
699.54	16652.91
699.67	16699.72
699.80	16517.16
699.94	16479.71
700.07	16496.10
700.20	16379.07
700.34	16030.33
700.47	16079.48
700.60	16140.33
700.73	16449.28
700.87	16175.44
701.00	15707.34
701.13	16154.38
701.26	15889.90
701.40	16032.67
701.53	15903.94
701.66	15716.70
701.79	15721.38
701.93	15494.35
702.06	15646.48
702.19	15360.94
702.32	15492.01
702.46	15314.13
702.59	15419.45
702.72	15213.48
702.85	15267.31
702.99	15281.36
703.12	15421.79
703.25	15007.52
703.38	14925.60
703.51	14998.15
703.65	14707.93
703.78	15026.24
703.91	14663.46
704.04	14572.18
704.17	14319.40
704.31	14450.47
704.44	14157.90
704.57	14043.21
704.70	14359.19
704.83	14075.98
704.96	14080.66
705.10	14225.78
705.23	14265.57
>>>>>End Processed Spectral Data<<<<<
