SpectraSuite Data File
++++++++++++++++++++++++++++++++++++
Date: Fri Oct 25 10:43:34 EDT 2013
User: price-jones
Dark Spectrum Present: No
Reference Spectrum Present: No
Number of Sampled Component Spectra: 1
Spectrometers: USB2+H05261
Integration Time (usec): 100000 (USB2+H05261)
Spectra Averaged: 1 (USB2+H05261)
Boxcar Smoothing: 0 (USB2+H05261)
Correct for Electrical Dark: No (USB2+H05261)
Strobe/Lamp Enabled: No (USB2+H05261)
Correct for Detector Non-linearity: No (USB2+H05261)
Correct for Stray Light: No (USB2+H05261)
Number of Pixels in Processed Spectrum: 2048
>>>>>Begin Processed Spectral Data<<<<<
365.73	95.96
365.92	95.96
366.12	95.96
366.32	37.45
366.52	18.72
366.72	72.56
366.91	18.72
367.11	49.15
367.31	21.06
367.51	49.15
367.70	0.00
367.90	28.09
368.10	58.51
368.30	28.09
368.49	0.00
368.69	49.15
368.89	14.04
369.09	11.70
369.28	35.11
369.48	30.43
369.68	145.11
369.87	105.32
370.07	91.28
370.27	102.98
370.47	128.73
370.66	416.62
370.86	421.30
371.06	449.38
371.25	449.38
371.45	449.38
371.65	468.11
371.84	505.56
372.04	477.47
372.24	479.81
372.44	428.32
372.63	526.62
372.83	531.30
373.03	514.92
373.22	470.45
373.42	491.51
373.62	505.56
373.81	578.11
374.01	526.62
374.21	606.20
374.40	550.03
374.60	524.28
374.79	514.92
374.99	592.16
375.19	587.47
375.38	629.60
375.58	596.84
375.78	643.65
375.97	624.92
376.17	674.07
376.37	535.98
376.56	594.50
376.76	667.05
376.95	559.39
377.15	683.44
377.35	695.14
377.54	690.46
377.74	650.67
377.93	608.54
378.13	676.41
378.33	678.76
378.52	578.11
378.72	732.59
378.91	636.63
379.11	657.69
379.31	653.01
379.50	615.56
379.70	617.90
379.89	706.84
380.09	723.23
380.28	657.69
380.48	755.99
380.68	692.80
380.87	720.88
381.07	709.18
381.26	617.90
381.46	772.38
381.65	837.91
381.85	660.03
382.04	732.59
382.24	739.61
382.43	624.92
382.63	638.97
382.83	779.40
383.02	711.52
383.22	770.04
383.41	685.78
383.61	777.06
383.80	807.48
384.00	809.83
384.19	777.06
384.39	744.29
384.58	858.98
384.78	758.33
384.97	767.70
385.17	784.08
385.36	699.82
385.56	835.57
385.75	784.08
385.95	760.67
386.14	919.83
386.34	814.51
386.53	866.00
386.72	784.08
386.92	919.83
387.11	779.40
387.31	821.53
387.50	786.42
387.70	940.90
387.89	847.27
388.09	910.47
388.28	847.27
388.48	952.60
388.67	987.71
388.86	990.05
389.06	910.47
389.25	1011.11
389.45	1029.84
389.64	1008.77
389.84	1046.22
390.03	1015.79
390.22	1039.20
390.42	1086.01
390.61	954.94
390.81	966.64
391.00	1055.58
391.19	1057.92
391.39	1041.54
391.58	1046.22
391.78	1027.50
391.97	1027.50
392.16	971.32
392.36	1093.03
392.55	1029.84
392.75	1050.90
392.94	1015.79
393.13	978.34
393.33	943.24
393.52	964.30
393.71	1188.99
393.91	1062.60
394.10	1027.50
394.29	1144.52
394.49	1254.53
394.68	1226.44
394.88	1212.40
395.07	1196.01
395.26	1167.93
395.46	1249.85
395.65	1256.87
395.84	1233.46
396.04	1355.17
396.23	1184.31
396.42	1174.95
396.62	1198.35
396.81	1252.19
397.00	1167.93
397.19	1322.40
397.39	1306.02
397.58	1425.39
397.77	1476.88
397.97	1387.94
398.16	1423.05
398.35	1490.92
398.55	1336.45
398.74	1430.07
398.93	1509.65
399.12	1565.82
399.32	1537.73
399.51	1542.41
399.70	1530.71
399.90	1533.05
400.09	1640.72
400.28	1696.89
400.47	1692.21
400.67	1743.70
400.86	1710.93
401.05	1671.14
401.24	1598.59
401.44	1776.47
401.63	1645.40
401.82	1694.55
402.01	1715.61
402.21	1727.32
402.40	1853.70
402.59	1760.08
402.78	1755.40
402.97	1907.54
403.17	1823.28
403.36	1760.08
403.55	1839.66
403.74	1783.49
403.93	1842.00
404.13	1891.15
404.32	1825.62
404.51	1846.68
404.70	1914.56
404.89	1975.41
405.09	2010.52
405.28	2026.90
405.47	2066.69
405.66	1994.14
405.85	1996.48
406.05	1998.82
406.24	2017.54
406.43	2153.29
406.62	2148.61
406.81	2129.89
407.00	2146.27
407.20	2017.54
407.39	2108.82
407.58	2179.04
407.77	2190.74
407.96	2256.28
408.15	2284.36
408.34	2253.94
408.54	2305.43
408.73	2246.91
408.92	2368.62
409.11	2193.08
409.30	2326.49
409.49	2242.23
409.68	2211.81
409.87	2352.24
410.07	2403.73
410.26	2300.75
410.45	2469.27
410.64	2492.67
410.83	2607.36
411.02	2478.63
411.21	2644.81
411.40	2593.31
411.59	2602.68
411.78	2640.12
411.98	2796.94
412.17	2759.49
412.36	2832.05
412.55	2778.22
412.74	2696.30
412.93	2696.30
413.12	2747.79
413.31	2722.04
413.50	2906.95
413.69	2846.09
413.88	2953.76
414.07	2832.05
414.26	2935.03
414.45	2904.60
414.64	2951.42
414.83	3150.36
415.02	3236.96
415.22	3096.53
415.41	3199.51
415.60	3239.30
415.79	3155.04
415.98	3379.73
416.17	3206.53
416.36	3206.53
416.55	3129.30
416.74	3246.32
416.93	3351.65
417.12	3335.26
417.31	3344.63
417.50	3236.96
417.69	3609.11
417.88	3552.93
418.07	3557.61
418.26	3508.46
418.45	3492.08
418.64	3662.94
418.83	3705.07
419.02	3639.53
419.21	3536.55
419.39	3630.17
419.58	3545.91
419.77	3688.68
419.96	3571.66
420.15	3744.86
420.34	3599.74
420.53	3765.92
420.72	3861.88
420.91	4014.02
421.10	3765.92
421.29	3866.56
421.48	3861.88
421.67	3932.10
421.86	3786.99
422.05	3861.88
422.24	3815.07
422.43	3744.86
422.61	3929.76
422.80	3985.93
422.99	3953.16
423.18	3999.98
423.37	4056.15
423.56	4079.55
423.75	4014.02
423.94	4072.53
424.13	3728.47
424.32	3791.67
424.50	3985.93
424.69	4018.70
424.88	4081.89
425.07	3904.01
425.26	3913.38
425.45	3983.59
425.64	4007.00
425.83	3847.84
426.01	4098.28
426.20	4018.70
426.39	4154.45
426.58	3927.42
426.77	3913.38
426.96	4072.53
427.15	3978.91
427.33	4119.34
427.52	4002.32
427.71	4196.58
427.90	4175.52
428.09	4095.94
428.28	4215.30
428.46	4091.26
428.65	4264.46
428.84	4411.91
429.03	4362.76
429.22	4180.20
429.40	4170.83
429.59	4273.82
429.78	3967.21
429.97	3988.27
430.16	4004.66
430.34	4063.17
430.53	4095.94
430.72	4222.33
430.91	4215.30
431.10	4250.41
431.28	4533.62
431.47	4676.39
431.66	4685.75
431.85	4575.75
432.03	4596.81
432.22	4655.33
432.41	4685.75
432.60	4734.90
432.79	4695.11
432.97	4774.69
433.16	4774.69
433.35	4643.62
433.54	4564.04
433.72	4830.87
433.91	4767.67
434.10	4954.91
434.28	4798.10
434.47	4915.12
434.66	5057.90
434.85	4908.10
435.03	5121.09
435.22	5011.09
435.41	5214.71
435.59	5041.51
435.78	5315.36
435.97	5200.67
436.16	5282.59
436.34	5224.08
436.53	5193.65
436.72	5298.97
436.90	5275.57
437.09	5156.20
437.28	5191.31
437.46	5277.91
437.65	5268.55
437.84	5200.67
438.02	5207.69
438.21	5111.73
438.40	5210.03
438.58	5444.09
438.77	5575.16
438.96	5465.15
439.14	5598.56
439.33	5811.55
439.52	5834.96
439.70	5575.16
439.89	5666.44
440.08	5891.13
440.26	5717.93
440.45	5654.73
440.63	5998.79
440.82	5973.05
441.01	6033.90
441.19	5975.39
441.38	6211.78
441.57	5942.62
441.75	6106.46
441.94	6300.72
442.12	6387.32
442.31	6506.69
442.50	6450.52
442.68	6293.70
442.87	6375.62
443.05	6490.31
443.24	6682.23
443.43	6502.01
443.61	6494.99
443.80	6583.93
443.98	6576.91
444.17	6291.36
444.35	6576.91
444.54	6581.59
444.73	6803.94
444.91	6380.30
445.10	6420.09
445.28	6607.33
445.47	6310.08
445.65	6452.86
445.84	6628.40
446.02	6494.99
446.21	6539.46
446.39	6392.00
446.58	6612.01
446.77	6640.10
446.95	6487.96
447.14	6787.55
447.32	6869.47
447.51	6684.57
447.69	6665.85
447.88	6686.91
448.06	6785.21
448.25	6820.32
448.43	6825.00
448.62	6846.07
448.80	6789.89
448.99	6747.76
449.17	7026.29
449.36	6857.77
449.54	7162.04
449.73	7089.48
449.91	7222.89
450.10	7302.47
450.28	7506.10
450.46	7414.82
450.65	7372.69
450.83	7330.56
451.02	7159.70
451.20	7351.62
451.39	7140.97
451.57	7213.53
451.76	7145.66
451.94	7360.98
452.13	7386.73
452.31	7396.09
452.49	7204.17
452.68	7419.50
452.86	7279.07
453.05	7356.30
453.23	7489.71
453.42	7330.56
453.60	7447.58
453.78	7524.82
453.97	7508.44
454.15	7466.31
454.34	7424.18
454.52	7365.67
454.70	7508.44
454.89	7583.34
455.07	7562.27
455.26	7723.77
455.44	7691.00
455.62	7824.41
455.81	7765.90
455.99	7838.45
456.17	7840.79
456.36	7992.93
456.54	8009.31
456.73	8154.43
456.91	8149.75
457.09	8187.19
457.28	8292.52
457.46	8093.57
457.64	8138.04
457.83	8280.82
458.01	8121.66
458.19	8196.56
458.38	8241.03
458.56	8493.80
458.74	8432.95
458.93	8224.64
459.11	8315.92
459.29	8514.87
459.48	8477.42
459.66	8320.60
459.84	8496.14
460.03	8706.79
460.21	8575.72
460.39	8683.39
460.57	8641.26
460.76	8566.36
460.94	8837.86
461.12	8697.43
461.31	8854.25
461.49	8699.77
461.67	8589.77
461.85	9043.83
462.04	8950.21
462.22	9320.01
462.40	9055.53
462.59	8947.87
462.77	9062.55
462.95	8997.02
463.13	9046.17
463.32	9060.21
463.50	9004.04
463.68	8975.95
463.86	9107.02
464.05	9053.19
464.23	9114.05
464.41	9275.54
464.59	9048.51
464.78	9359.80
464.96	9245.12
465.14	9146.81
465.32	9287.25
465.50	9366.82
465.69	9387.89
465.87	9413.63
466.05	9451.08
466.23	9139.79
466.41	9233.41
466.60	9378.53
466.78	9123.41
466.96	9509.60
467.14	9364.48
467.32	9343.42
467.51	9614.92
467.69	9282.56
467.87	9577.47
468.05	9570.45
468.23	9481.51
468.41	9483.85
468.60	9687.48
468.78	9834.93
468.96	9591.52
469.14	9891.10
469.32	9734.29
469.50	9364.48
469.69	9928.55
469.87	9905.15
470.05	10085.37
470.23	9877.06
470.41	9898.13
470.59	9954.30
470.77	10068.98
470.95	10209.42
471.14	10211.76
471.32	10012.81
471.50	10422.41
471.68	10174.31
471.86	10427.09
472.04	10590.92
472.22	10731.36
472.40	10459.85
472.58	10541.77
472.77	10590.92
472.95	10778.17
473.13	10743.06
473.31	10565.18
473.49	10541.77
473.67	10546.45
473.85	10707.95
474.03	10787.53
474.21	10937.32
474.39	11152.65
474.57	11201.80
474.75	11323.51
474.93	11105.84
475.12	11040.31
475.30	11286.06
475.48	11154.99
475.66	11389.05
475.84	11454.58
476.02	11482.67
476.20	11587.99
476.38	11480.33
476.56	11819.71
476.74	11908.65
476.92	11910.99
477.10	12093.55
477.28	12273.77
477.46	12238.66
477.64	12287.81
477.82	12608.47
478.00	12833.16
478.18	12643.57
478.36	12723.15
478.54	12996.99
478.72	12758.26
478.90	12947.84
479.08	13114.02
479.26	13373.82
479.44	13462.76
479.62	13135.09
479.80	13549.36
479.98	13535.32
480.16	13547.02
480.34	13720.22
480.52	13837.25
480.70	13886.40
480.88	13635.96
481.06	14270.25
481.24	14118.11
481.41	14193.01
481.59	14434.08
481.77	14413.02
481.95	14539.41
482.13	14656.43
482.31	14679.84
482.49	15157.31
482.67	14934.96
482.85	15147.95
483.03	15424.13
483.21	15194.76
483.39	15592.65
483.57	15421.79
483.74	15452.22
483.92	15667.55
484.10	15737.76
484.28	15852.45
484.46	16051.39
484.64	16505.46
484.82	16231.62
485.00	16435.24
485.18	16671.64
485.35	16519.50
485.53	16259.70
485.71	16271.40
485.89	16589.72
486.07	16807.39
486.25	16659.93
486.43	17067.19
486.61	17036.76
486.78	17280.18
486.96	17476.78
487.14	17731.90
487.32	17727.22
487.50	18017.44
487.68	18178.94
487.85	18438.74
488.03	18637.69
488.21	18635.35
488.39	18630.66
488.57	19033.24
488.75	18806.20
488.92	19241.54
489.10	19339.85
489.28	19765.82
489.46	19676.88
489.64	19711.99
489.81	20489.05
489.99	20341.60
490.17	20512.46
490.35	20704.38
490.53	20116.90
490.70	20556.93
490.88	20610.76
491.06	21006.31
491.24	20889.28
491.41	20725.44
491.59	20802.68
491.77	21130.36
491.95	21301.22
492.13	21465.05
492.30	21727.19
492.48	22045.51
492.66	21748.26
492.84	22113.38
493.01	22033.80
493.19	21895.71
493.37	22267.86
493.54	22284.24
493.72	22551.06
493.90	22614.26
494.08	22862.35
494.25	23035.55
494.43	23414.72
494.61	23573.88
494.79	23552.81
494.96	23597.28
495.14	23716.65
495.32	23866.44
495.49	24194.12
495.67	24147.31
495.85	24411.79
496.02	24020.92
496.20	24332.21
496.38	24699.67
496.55	24961.81
496.73	25500.14
496.91	24823.72
497.09	25137.35
497.26	25333.96
497.44	25287.15
497.62	25193.53
497.79	25500.14
497.97	25397.15
498.14	25839.51
498.32	26150.81
498.50	25652.27
498.67	25968.24
498.85	25949.52
499.03	26532.31
499.20	26403.58
499.38	26466.78
499.56	26403.58
499.73	26663.38
499.91	26436.35
500.08	26745.30
500.26	26434.01
500.44	26845.94
500.61	27007.44
500.79	26876.37
500.97	27068.30
501.14	26988.72
501.32	27466.19
501.49	27318.73
501.67	27386.61
501.84	27466.19
502.02	28063.02
502.20	27749.39
502.37	27859.40
502.55	28027.92
502.72	27969.40
502.90	28233.88
503.07	28128.56
503.25	28175.37
503.43	28041.96
503.60	28381.34
503.78	28484.32
503.95	28173.03
504.13	28748.80
504.30	29127.97
504.48	28905.62
504.65	29074.13
504.83	29200.52
505.01	29237.97
505.18	29275.42
505.36	29516.50
505.53	29556.28
505.71	29600.76
505.88	29647.57
506.06	29762.25
506.23	29853.53
506.41	29694.38
506.58	29776.30
506.76	30239.72
506.93	30333.34
507.11	30101.63
507.28	30302.92
507.46	30328.66
507.63	30342.70
507.81	30466.75
507.98	30473.78
508.16	30700.81
508.33	30864.64
508.50	31061.25
508.68	31218.07
508.85	31101.04
509.03	31145.51
509.20	31070.61
509.38	31519.99
509.55	31615.96
509.73	31466.16
509.90	31791.50
510.08	31800.86
510.25	31632.34
510.42	31850.01
510.60	31761.07
510.77	32175.34
510.95	32156.62
511.12	32184.71
511.30	32364.93
511.47	32493.66
511.64	32620.05
511.82	32783.88
511.99	32119.17
512.17	32737.07
512.34	32313.44
512.51	32914.95
512.69	32875.16
512.86	33081.13
513.04	33088.15
513.21	32971.13
513.38	32741.75
513.56	33247.31
513.73	32701.96
513.90	32723.03
514.08	33130.28
514.25	33158.37
514.43	32961.76
514.60	33284.76
514.77	33532.86
514.95	33628.82
515.12	33624.14
515.29	33933.09
515.47	34525.24
515.64	34022.03
515.81	34157.78
515.99	33930.75
516.16	33933.09
516.33	33364.34
516.51	33668.61
516.68	33617.11
516.85	33432.21
517.03	33811.38
517.20	34251.40
517.37	34492.47
517.54	34852.92
517.72	34361.40
517.89	33977.56
518.06	34164.80
518.24	34017.35
518.41	34220.97
518.58	34511.20
518.75	34759.30
518.93	35061.22
519.10	35316.34
519.27	35007.39
519.45	35379.54
519.62	35515.29
519.79	35372.52
519.96	35604.23
520.14	35831.26
520.31	35243.79
520.48	36018.50
520.65	35924.88
520.83	35901.48
521.00	35842.96
521.17	36161.28
521.34	36074.68
521.52	36329.80
521.69	36503.00
521.86	36854.08
522.03	36311.07
522.20	36591.94
522.38	36027.87
522.55	36601.30
522.72	35913.18
522.89	36299.37
523.07	37127.92
523.24	36554.49
523.41	37586.66
523.58	36715.98
523.75	37701.35
523.92	37163.03
524.10	37354.95
524.27	37771.57
524.44	37479.00
524.61	37691.99
524.78	37481.34
524.96	37621.77
525.13	37830.08
525.30	38195.20
525.47	38197.54
525.64	38019.66
525.81	37783.27
525.98	37617.09
526.16	37617.09
526.33	37301.12
526.50	37581.98
526.67	37364.31
526.84	37652.20
527.01	37848.80
527.18	37914.34
527.36	38024.34
527.53	38103.92
527.70	38747.57
527.87	38593.09
528.04	38246.69
528.21	38618.84
528.38	38597.77
528.55	39358.45
528.72	39187.59
528.89	38965.24
529.07	38749.91
529.24	38628.20
529.41	38646.93
529.58	38862.26
529.75	38841.19
529.92	39290.57
530.09	39042.48
530.26	39239.08
530.43	39622.93
530.60	39210.99
530.77	39248.44
530.94	39793.79
531.11	39208.65
531.28	39714.21
531.46	39768.04
531.63	39807.83
531.80	39356.11
531.97	39908.47
532.14	40004.44
532.31	39414.62
532.48	39707.19
532.65	39786.77
532.82	39718.89
532.99	40257.21
533.16	40002.10
533.33	39871.03
533.50	40245.51
533.67	39796.13
533.84	40121.46
534.01	40343.81
534.18	40053.59
534.35	40664.47
534.52	39887.41
534.69	40383.60
534.86	40795.54
535.03	40458.50
535.20	40795.54
535.37	41333.86
535.54	41317.48
535.71	41064.70
535.88	41090.44
536.05	40865.75
536.22	41123.21
536.38	41186.41
536.55	40910.22
536.72	40877.46
536.89	40992.14
537.06	40926.61
537.23	41137.26
537.40	41457.91
537.57	41235.56
537.74	41031.93
537.91	41478.97
538.08	41439.18
538.25	40821.28
538.42	41387.69
538.59	41698.98
538.75	41469.61
538.92	41415.78
539.09	41888.57
539.26	41478.97
539.43	41212.15
539.60	41310.46
539.77	41240.24
539.94	41434.50
540.11	41207.47
540.28	41656.85
540.44	41874.52
540.61	41706.01
540.78	41628.77
540.95	41942.40
541.12	41464.93
541.29	41591.32
541.46	41771.54
541.62	41958.78
541.79	42139.00
541.96	42068.79
542.13	42237.31
542.30	41965.81
542.47	42078.15
542.63	41979.85
542.80	42124.96
542.97	42674.99
543.14	42328.59
543.31	42021.98
543.48	42597.75
543.64	42698.39
543.81	43035.43
543.98	42934.79
544.15	42953.51
544.32	42939.47
544.48	43302.25
544.65	42951.17
544.82	42866.91
544.99	42857.55
545.16	43203.95
545.32	42878.61
545.49	43360.76
545.66	43763.34
545.83	43510.56
546.00	43374.81
546.16	43093.94
546.33	43187.56
546.50	43016.71
546.67	43447.36
546.83	43129.05
547.00	43377.15
547.17	42822.44
547.34	43236.72
547.50	43545.67
547.67	43798.44
547.84	43552.69
548.00	44105.06
548.17	44495.92
548.34	43625.25
548.51	44027.82
548.67	44296.98
548.84	43983.35
549.01	44154.21
549.18	43512.90
549.34	44165.91
549.51	44226.76
549.68	43796.10
549.84	44121.44
550.01	44275.91
550.18	43899.09
550.34	44231.44
550.51	44076.97
550.68	44158.89
550.84	43611.20
551.01	43990.37
551.18	44406.98
551.34	44353.15
551.51	44299.32
551.68	44442.09
551.84	43978.67
552.01	44009.09
552.18	44538.05
552.34	44011.43
552.51	44425.71
552.68	44554.44
552.84	44708.91
553.01	44776.79
553.18	44311.02
553.34	44959.35
553.51	44505.29
553.67	44629.34
553.84	44524.01
554.01	44715.93
554.17	44596.57
554.34	45235.53
554.51	44226.76
554.67	45106.80
554.84	44449.11
555.00	44818.92
555.17	44575.50
555.33	44734.66
555.50	44645.72
555.67	45104.46
555.83	44842.32
556.00	45001.48
556.16	45371.28
556.33	44898.50
556.50	45205.11
556.66	45219.15
556.83	44835.30
556.99	45083.40
557.16	44942.97
557.32	45158.30
557.49	45471.93
557.65	44996.80
557.82	45343.20
557.98	44942.97
558.15	45492.99
558.32	45539.80
558.48	44725.30
558.65	44992.12
558.81	45024.89
558.98	45064.67
559.14	44917.22
559.31	45219.15
559.47	45200.43
559.64	45097.44
559.80	45696.62
559.97	45801.94
560.13	44900.84
560.30	45317.45
560.46	45228.51
560.63	45619.38
560.79	45450.86
560.96	45483.63
561.12	45280.00
561.29	45544.48
561.45	45427.46
561.61	45619.38
561.78	44861.05
561.94	45556.19
562.11	45294.05
562.27	45352.56
562.44	45654.49
562.60	45605.34
562.77	45619.38
562.93	45429.80
563.10	45722.37
563.26	45352.56
563.42	45682.58
563.59	45118.51
563.75	45633.42
563.92	45942.38
564.08	45881.52
564.24	45677.90
564.41	46150.68
564.57	45600.66
564.74	45888.54
564.90	45514.06
565.07	45890.88
565.23	45937.69
565.39	45755.13
565.56	45949.40
565.72	45844.07
565.88	45928.33
566.05	45713.00
566.21	45684.92
566.38	45315.11
566.54	45790.24
566.70	45888.54
566.87	46195.15
567.03	45813.65
567.19	46213.88
567.36	46110.89
567.52	45773.86
567.68	45914.29
567.85	45612.36
568.01	46087.49
568.17	46272.39
568.34	46141.32
568.50	45844.07
568.66	45890.88
568.83	45970.46
568.99	45659.17
569.15	45949.40
569.32	45703.64
569.48	45684.92
569.64	46197.49
569.81	46085.15
569.97	45860.46
570.13	46087.49
570.30	45705.98
570.46	45872.16
570.62	45610.02
570.78	45462.57
570.95	45605.34
571.11	45778.54
571.27	45780.88
571.43	45858.12
571.60	45603.00
571.76	45556.19
571.92	45963.44
572.09	46129.62
572.25	46256.01
572.41	46036.00
572.57	46330.90
572.74	46394.10
572.90	46082.81
573.06	46305.16
573.22	46148.34
573.38	45879.18
573.55	45776.20
573.71	46106.21
573.87	46433.89
574.03	45916.63
574.20	46153.02
574.36	46263.03
574.52	46312.18
574.68	46216.22
574.84	45991.53
575.01	45956.42
575.17	46398.78
575.33	46066.42
575.49	45511.72
575.65	46101.53
575.82	45963.44
575.98	45792.58
576.14	46733.48
576.30	46366.01
576.46	46094.51
576.62	45989.19
576.79	46068.76
576.95	45982.16
577.11	45804.28
577.27	45933.01
577.43	46031.32
577.59	46150.68
577.75	45741.09
577.92	45652.15
578.08	45785.56
578.24	45815.99
578.40	45535.12
578.56	46040.68
578.72	46066.42
578.88	46330.90
579.04	46197.49
579.21	45944.72
579.37	45872.16
579.53	46038.34
579.69	45645.13
579.85	46366.01
580.01	46272.39
580.17	46028.98
580.33	46071.10
580.49	45895.56
580.65	45954.08
580.82	46241.96
580.98	46436.23
581.14	45528.10
581.30	46146.00
581.46	45954.08
581.62	46452.61
581.78	46103.87
581.94	46450.27
582.10	45886.20
582.26	46518.15
582.42	46239.62
582.58	46031.32
582.74	45846.41
582.90	46321.54
583.06	46258.35
583.22	46342.61
583.38	46328.56
583.54	46660.92
583.70	46146.00
583.86	46777.95
584.02	46312.18
584.18	46415.16
584.34	46115.58
584.50	46550.91
584.66	46106.21
584.82	45904.93
584.98	46892.63
585.14	46485.38
585.30	45890.88
585.46	46176.43
585.62	46344.95
585.78	46038.34
585.94	45715.34
586.10	46162.39
586.26	46047.70
586.42	46438.57
586.58	46340.27
586.74	46279.41
586.90	46134.30
587.06	46073.45
587.22	46066.42
587.38	46073.45
587.54	46012.59
587.70	46574.32
587.86	46188.13
588.02	46382.40
588.18	46394.10
588.34	45588.95
588.49	45940.04
588.65	45436.82
588.81	45710.66
588.97	46129.62
589.13	45677.90
589.29	45916.63
589.45	45797.26
589.61	45986.85
589.77	46204.52
589.93	46277.07
590.08	46057.06
590.24	46164.73
590.40	46679.64
590.56	46557.94
590.72	46761.56
590.88	45989.19
591.04	46569.64
591.20	46597.73
591.35	46616.45
591.51	46447.93
591.67	46440.91
591.83	46169.41
591.99	46010.25
592.15	46082.81
592.31	46356.65
592.46	46031.32
592.62	46256.01
592.78	46550.91
592.94	46265.37
593.10	46997.96
593.26	46314.52
593.41	46019.61
593.57	46185.79
593.73	46256.01
593.89	46401.12
594.05	45961.10
594.20	46190.47
594.36	46623.47
594.52	46632.83
594.68	46380.06
594.84	46174.09
594.99	46036.00
595.15	46440.91
595.31	46518.15
595.47	46452.61
595.62	46560.28
595.78	46387.08
595.94	46382.40
596.10	46305.16
596.25	46291.12
596.41	46110.89
596.57	45923.65
596.73	46408.14
596.88	46316.86
597.04	46230.26
597.20	46426.87
597.36	46674.96
597.51	46536.87
597.67	46351.97
597.83	46532.19
597.99	46298.14
598.14	46433.89
598.30	46424.53
598.46	46347.29
598.61	46581.34
598.77	46134.30
598.93	46176.43
599.09	46511.13
599.24	46817.74
599.40	46344.95
599.56	46164.73
599.71	46047.70
599.87	46513.47
600.03	46293.46
600.18	46052.38
600.34	45827.69
600.50	46232.60
600.65	46155.36
600.81	46363.67
600.97	46342.61
601.12	46635.17
601.28	46377.72
601.44	46131.96
601.59	46300.48
601.75	45872.16
601.91	45972.80
602.06	46148.34
602.22	46469.00
602.37	46471.34
602.53	46574.32
602.69	46501.76
602.84	46284.09
603.00	46281.75
603.16	46323.88
603.31	46190.47
603.47	45993.87
603.62	45762.15
603.78	46686.67
603.94	46536.87
604.09	46333.24
604.25	46801.35
604.40	46602.41
604.56	46284.09
604.71	46623.47
604.87	46024.29
605.03	46337.93
605.18	46588.36
605.34	46099.19
605.49	45783.22
605.65	46279.41
605.80	46548.57
605.96	46010.25
606.12	46110.89
606.27	45879.18
606.43	46068.76
606.58	46267.71
606.74	46356.65
606.89	46377.72
607.05	45921.31
607.20	46019.61
607.36	46131.96
607.51	46483.04
607.67	46150.68
607.82	46174.09
607.98	45532.78
608.13	46136.64
608.29	46024.29
608.44	45797.26
608.60	45331.50
608.75	45635.77
608.91	45572.57
609.06	45385.33
609.22	46122.60
609.37	46248.99
609.53	45530.44
609.68	45771.52
609.84	45900.25
609.99	46122.60
610.15	45684.92
610.30	45619.38
610.46	45577.25
610.61	45968.12
610.76	45614.70
610.92	45841.73
611.07	46028.98
611.23	45642.79
611.38	45771.52
611.54	45876.84
611.69	45610.02
611.84	45490.65
612.00	45869.82
612.15	45174.68
612.31	45713.00
612.46	45380.65
612.62	45757.47
612.77	45628.74
612.92	45558.53
613.08	44921.90
613.23	45088.08
613.39	44741.68
613.54	45230.85
613.69	44821.26
613.85	45282.34
614.00	45181.70
614.15	45476.61
614.31	45170.00
614.46	45256.60
614.62	45177.02
614.77	45282.34
614.92	44891.48
615.08	45024.89
615.23	45071.70
615.38	44814.24
615.54	45008.50
615.69	44994.46
615.84	44741.68
616.00	45055.31
616.15	45127.87
616.30	44975.73
616.46	44758.06
616.61	44617.63
616.76	44884.45
616.92	44304.00
617.07	44708.91
617.22	44877.43
617.37	44886.79
617.53	44369.54
617.68	44933.60
617.83	44786.15
617.99	44720.62
618.14	44135.48
618.29	44519.33
618.45	44545.08
618.60	44292.30
618.75	44390.60
618.90	44151.87
619.06	44456.14
619.21	44521.67
619.36	44643.38
619.51	44364.85
619.67	44339.11
619.82	44327.41
619.97	44505.29
620.12	44083.99
620.28	43807.81
620.43	44591.89
620.58	44514.65
620.73	44346.13
620.89	44081.65
621.04	44421.03
621.19	44435.07
621.34	44367.20
621.49	44098.03
621.65	43889.73
621.80	44154.21
621.95	43810.15
622.10	43936.54
622.25	43978.67
622.41	43810.15
622.56	43555.03
622.71	44065.27
622.86	44135.48
623.01	43950.58
623.16	43782.06
623.32	43515.24
623.47	43590.14
623.62	43873.34
623.77	43328.00
623.92	43920.15
624.07	43643.97
624.23	43840.57
624.38	43201.61
624.53	43775.04
624.68	43599.50
624.83	43309.27
624.98	43814.83
625.13	43264.80
625.29	43264.80
625.44	43498.86
625.59	43232.04
625.74	43105.65
625.89	42937.13
626.04	42939.47
626.19	43208.63
626.34	43278.85
626.49	42892.66
626.65	42665.63
626.80	42897.34
626.95	42756.91
627.10	43168.84
627.25	42754.57
627.40	42827.12
627.55	42951.17
627.70	42501.79
627.85	42892.66
628.00	42682.01
628.15	42916.06
628.30	42618.81
628.45	42813.08
628.60	42557.96
628.76	42314.55
628.91	42632.86
629.06	42443.27
629.21	42204.54
629.36	42417.53
629.51	42143.69
629.66	42300.50
629.81	42471.36
629.96	42679.67
630.11	42609.45
630.26	42375.40
630.41	42490.09
630.56	42314.55
630.71	42256.03
630.86	42419.87
631.01	42253.69
631.16	42003.25
631.31	41879.21
631.46	41977.51
631.61	41991.55
631.76	41867.50
631.91	42256.03
632.06	42394.12
632.21	42295.82
632.36	41914.31
632.51	41631.11
632.66	41876.86
632.81	41289.39
632.96	42171.77
633.10	42501.79
633.25	42195.18
633.40	41834.74
633.55	41872.18
633.70	41813.67
633.85	42206.88
634.00	42031.34
634.15	41816.01
634.30	41787.92
634.45	41027.25
634.60	41717.71
634.75	41443.87
634.90	41364.29
635.05	41844.10
635.19	41441.53
635.34	41436.84
635.49	41354.93
635.64	41343.22
635.79	41556.21
635.94	41434.50
636.09	41160.66
636.24	41036.61
636.39	41226.20
636.53	41570.25
636.68	41013.21
636.83	41148.96
636.98	41202.79
637.13	41486.00
637.28	41275.35
637.43	41427.48
637.57	41338.54
637.72	41125.55
637.87	41324.50
638.02	40589.57
638.17	41083.42
638.32	40769.79
638.46	40907.88
638.61	40446.80
638.76	40662.13
638.91	40690.21
639.06	41118.53
639.20	41071.72
639.35	41092.79
639.50	40755.75
639.65	41020.23
639.80	40739.36
639.94	41118.53
640.09	40533.40
640.24	40886.82
640.39	40346.15
640.54	40582.55
640.68	40140.19
640.83	40699.58
640.98	40362.54
641.13	40027.84
641.27	40730.00
641.42	40233.81
641.57	40313.39
641.72	40444.46
641.86	40233.81
642.01	39889.75
642.16	40020.82
642.31	40018.48
642.45	40158.91
642.60	39599.52
642.75	39988.05
642.90	40505.31
643.04	39894.43
643.19	40346.15
643.34	40058.27
643.48	39590.16
643.63	39878.05
643.78	40053.59
643.93	40074.65
644.07	39447.39
644.22	39887.41
644.37	39498.88
644.51	39903.79
644.66	39966.99
644.81	39931.88
644.95	39704.85
645.10	39491.86
645.25	39735.27
645.39	39707.19
645.54	39627.61
645.69	39639.31
645.83	39480.16
645.98	39140.78
646.13	38885.66
646.27	39484.84
646.42	39716.55
646.57	39709.53
646.71	38871.62
646.86	39140.78
647.00	39257.81
647.15	39311.64
647.30	39297.59
647.44	39283.55
647.59	39241.42
647.74	39386.54
647.88	38808.42
648.03	39253.12
648.17	39431.01
648.32	38976.94
648.47	38675.01
648.61	38780.34
648.76	38628.20
648.90	39304.62
649.05	38682.03
649.20	38930.13
649.34	39281.21
649.49	38293.50
649.63	39089.29
649.78	38787.36
649.92	38637.56
650.07	38824.81
650.21	38735.87
650.36	38892.68
650.51	39072.90
650.65	39058.86
650.80	39175.89
650.94	38560.33
651.09	38462.02
651.23	38529.90
651.38	38529.90
651.52	38251.38
651.67	37926.04
651.81	38169.46
651.96	38637.56
652.10	38635.22
652.25	38363.72
652.39	38501.81
652.54	38696.08
652.68	38850.55
652.83	38438.62
652.97	38616.50
653.12	38394.15
653.26	37951.79
653.41	38309.89
653.55	38424.57
653.70	38197.54
653.84	37961.15
653.99	37504.74
654.13	37907.32
654.27	37965.83
654.42	38309.89
654.56	37982.21
654.71	38059.45
654.85	38099.24
655.00	37951.79
655.14	37586.66
655.29	37830.08
655.43	37581.98
655.57	37464.96
655.72	37329.20
655.86	37261.33
656.01	37167.71
656.15	37106.85
656.30	37179.41
656.44	37317.50
656.58	37523.47
656.73	37191.11
656.87	37132.60
657.01	37509.43
657.16	37457.93
657.30	37322.18
657.45	36779.18
657.59	37099.83
657.73	37301.12
657.88	37420.48
658.02	37455.59
658.16	37317.50
658.31	37123.24
658.45	37181.75
658.60	37329.20
658.74	37137.28
658.88	37219.20
659.03	36879.82
659.17	37228.56
659.31	36526.40
659.46	37017.91
659.60	36823.65
659.74	37017.91
659.89	36877.48
660.03	36919.61
660.17	37024.93
660.32	36811.95
660.46	36603.64
660.60	36353.20
660.74	36327.45
660.89	36456.18
661.03	36079.36
661.17	36290.01
661.32	36205.75
661.46	36163.62
661.60	36135.53
661.74	36158.94
661.89	36011.48
662.03	35899.14
662.17	36243.20
662.31	35772.75
662.46	36348.52
662.60	36460.87
662.74	35849.99
662.88	36477.25
663.03	35817.22
663.17	35910.84
663.31	35679.13
663.45	36093.40
663.60	35164.21
663.74	35309.32
663.88	35489.54
664.02	35597.21
664.17	35910.84
664.31	35103.35
664.45	35370.18
664.59	34630.57
664.73	35468.48
664.88	34848.24
665.02	34569.71
665.16	34527.58
665.30	34513.54
665.44	34771.00
665.59	34700.78
665.73	34742.91
665.87	34258.42
666.01	34721.85
666.15	34756.96
666.29	34403.53
666.44	34740.57
666.58	35065.91
666.72	34665.67
666.86	34459.71
667.00	34651.63
667.14	34183.52
667.28	34204.59
667.43	34305.23
667.57	34405.88
667.71	34129.69
667.85	34059.48
667.99	34108.63
668.13	34520.56
668.27	34518.22
668.41	34270.12
668.56	34459.71
668.70	33734.14
668.84	33652.22
668.98	33795.00
669.12	33280.08
669.26	33928.41
669.40	33429.87
669.54	33216.88
669.68	32826.01
669.82	33472.00
669.96	32891.55
670.10	32966.45
670.25	32947.72
670.39	32924.32
670.53	32900.91
670.67	32828.35
670.81	32907.93
670.95	32573.24
671.09	32807.29
671.23	32573.24
671.37	32297.05
671.51	32587.28
671.65	32383.65
671.79	32385.99
671.93	32273.65
672.07	32512.38
672.21	31920.23
672.35	32201.09
672.49	32161.30
672.63	32196.41
672.77	32154.28
672.91	31917.89
673.05	31915.54
673.19	31845.33
673.33	31321.05
673.47	31833.63
673.61	31309.35
673.75	31267.22
673.89	31449.78
674.03	31213.38
674.17	31295.30
674.31	31475.52
674.45	31332.75
674.59	31098.70
674.73	31328.07
674.87	31222.75
675.01	30726.55
675.15	30986.35
675.29	30845.92
675.43	30604.84
675.56	31016.78
675.70	30731.23
675.84	30436.33
675.98	29612.46
676.12	30265.47
676.26	30548.67
676.40	30618.89
676.54	30132.06
676.68	29909.71
676.82	29797.36
676.96	29706.08
677.10	29575.01
677.23	29689.70
677.37	29549.26
677.51	29472.03
677.65	29507.13
677.79	28898.59
677.93	28811.99
678.07	28900.94
678.21	28762.84
678.34	28535.81
678.48	28556.88
678.62	28643.48
678.76	28697.31
678.90	28130.90
679.04	28500.70
679.18	28320.48
679.31	28158.99
679.45	27623.00
679.59	27978.76
679.73	28208.14
679.87	27660.45
680.00	27803.22
680.14	27969.40
680.28	28044.30
680.42	27445.12
680.56	27658.11
680.70	27466.19
680.83	27672.15
680.97	27190.00
681.11	27325.75
681.25	27129.15
681.39	27087.02
681.52	26972.33
681.66	26663.38
681.80	26998.08
681.94	26742.96
682.07	26740.62
682.21	26363.79
682.35	26464.44
682.49	26256.13
682.62	26106.34
682.76	25703.76
682.90	26274.85
683.04	26249.11
683.17	25982.29
683.31	25778.66
683.45	25961.22
683.59	25628.87
683.72	25427.58
683.86	25514.18
684.00	25359.70
684.13	25312.89
684.27	25017.99
684.41	25165.44
684.55	24961.81
684.68	24552.22
684.82	24694.99
684.96	24886.92
685.09	24812.02
685.23	24629.46
685.37	24772.23
685.50	24542.86
685.64	24503.07
685.78	24395.40
685.91	24446.90
686.05	23976.45
686.19	24002.19
686.32	23866.44
686.46	23597.28
686.60	23304.71
686.73	23058.96
686.87	23171.30
687.01	23000.44
687.14	22785.12
687.28	23073.00
687.42	22946.61
687.55	23019.17
687.69	23105.77
687.82	22895.12
687.96	23192.37
688.10	22705.54
688.23	22452.76
688.37	22408.29
688.50	22677.45
688.64	22492.55
688.78	22448.08
688.91	21886.35
689.05	22022.10
689.18	21989.33
689.32	21984.65
689.46	22300.62
689.59	22094.66
689.73	21991.67
689.86	21919.12
690.00	21673.36
690.13	21977.63
690.27	21261.43
690.41	21205.25
690.54	21202.91
690.68	21317.60
690.81	21287.17
690.95	20999.29
691.08	21163.12
691.22	20781.62
691.35	21172.49
691.49	21120.99
691.62	20856.51
691.76	20374.36
691.89	20926.73
692.03	20676.29
692.16	20273.72
692.30	20123.93
692.43	20423.51
692.57	19894.55
692.70	19838.38
692.84	20034.99
692.97	19955.41
693.11	19644.12
693.24	19576.24
693.38	19496.66
693.51	19648.80
693.65	19520.07
693.78	19332.82
693.92	19222.82
694.05	19190.05
694.19	19246.23
694.32	19211.12
694.45	19236.86
694.59	19271.97
694.72	18878.76
694.86	18876.42
694.99	18644.71
695.13	19051.96
695.26	18665.77
695.39	18373.21
695.53	18611.94
695.66	18647.05
695.80	18417.68
695.93	18197.67
696.07	18176.60
696.20	18459.81
696.33	18412.99
696.47	18167.24
696.60	17919.14
696.73	17996.38
696.87	17514.23
697.00	17788.07
697.14	17694.45
697.27	17586.79
697.40	17341.03
697.54	17345.71
697.67	16957.18
697.80	17221.66
697.94	17149.11
698.07	17249.75
698.21	16950.16
698.34	17228.68
698.47	16945.48
698.61	16631.85
698.74	17160.81
698.87	16772.28
699.01	16432.90
699.14	16327.58
699.27	16503.12
699.40	16519.50
699.54	16470.35
699.67	16128.63
699.80	16250.34
699.94	16025.65
700.07	16056.08
700.20	16140.33
700.34	16114.59
700.47	15714.36
700.60	16196.51
700.73	15620.74
700.87	15585.63
701.00	15777.55
701.13	15704.99
701.26	15318.81
701.40	15405.41
701.53	15178.37
701.66	15286.04
701.79	15096.46
701.93	15049.64
702.06	15147.95
702.19	14949.00
702.32	14679.84
702.46	15080.07
702.59	14796.87
702.72	14710.27
702.85	14787.50
702.99	14864.74
703.12	14508.98
703.25	14263.22
703.38	14630.69
703.51	14375.57
703.65	14359.19
703.78	14185.99
703.91	14022.15
704.04	14164.92
704.17	13958.96
704.31	13846.61
704.44	13731.92
704.57	13706.18
704.70	13540.00
704.83	13650.00
704.96	13554.04
705.10	13593.83
705.23	13282.54
>>>>>End Processed Spectral Data<<<<<
