SpectraSuite Data File
++++++++++++++++++++++++++++++++++++
Date: Fri Oct 25 11:33:30 EDT 2013
User: price-jones
Dark Spectrum Present: No
Reference Spectrum Present: No
Number of Sampled Component Spectra: 1
Spectrometers: USB2+H05261
Integration Time (usec): 100000 (USB2+H05261)
Spectra Averaged: 1 (USB2+H05261)
Boxcar Smoothing: 0 (USB2+H05261)
Correct for Electrical Dark: No (USB2+H05261)
Strobe/Lamp Enabled: No (USB2+H05261)
Correct for Detector Non-linearity: No (USB2+H05261)
Correct for Stray Light: No (USB2+H05261)
Number of Pixels in Processed Spectrum: 2048
>>>>>Begin Processed Spectral Data<<<<<
365.73	177.88
365.92	177.88
366.12	177.88
366.32	147.45
366.52	156.82
366.72	173.20
366.91	142.77
367.11	252.78
367.31	159.16
367.51	159.16
367.70	175.54
367.90	229.37
368.10	166.18
368.30	243.42
368.49	170.86
368.69	208.31
368.89	128.73
369.09	210.65
369.28	245.76
369.48	140.43
369.68	241.08
369.87	198.95
370.07	285.55
370.27	290.23
370.47	327.68
370.66	454.06
370.86	489.17
371.06	557.05
371.25	545.34
371.45	575.77
371.65	638.97
371.84	510.24
372.04	505.56
372.24	517.26
372.44	528.96
372.63	617.90
372.83	610.88
373.03	704.50
373.22	573.43
373.42	580.45
373.62	596.84
373.81	653.01
374.01	624.92
374.21	657.69
374.40	622.58
374.60	706.84
374.79	613.22
374.99	697.48
375.19	678.76
375.38	681.10
375.58	634.29
375.78	592.16
375.97	643.65
376.17	793.44
376.37	674.07
376.56	685.78
376.76	545.34
376.95	615.56
377.15	610.88
377.35	723.23
377.54	678.76
377.74	657.69
377.93	678.76
378.13	697.48
378.33	676.41
378.52	685.78
378.72	692.80
378.91	685.78
379.11	741.95
379.31	706.84
379.50	720.88
379.70	711.52
379.89	744.29
380.09	725.57
380.28	727.91
380.48	753.65
380.68	777.06
380.87	709.18
381.07	746.63
381.26	795.78
381.46	755.99
381.65	849.61
381.85	753.65
382.04	760.67
382.24	828.55
382.43	758.33
382.63	772.38
382.83	816.85
383.02	844.93
383.22	767.70
383.41	786.42
383.61	858.98
383.80	856.64
384.00	814.51
384.19	805.14
384.39	758.33
384.58	847.27
384.78	854.30
384.97	851.96
385.17	880.04
385.36	866.00
385.56	851.96
385.75	823.87
385.95	777.06
386.14	889.40
386.34	826.21
386.53	812.17
386.72	793.44
386.92	844.93
387.11	814.51
387.31	985.37
387.50	898.77
387.70	837.91
387.89	936.21
388.09	835.57
388.28	858.98
388.48	898.77
388.67	1043.88
388.86	931.53
389.06	891.74
389.25	894.08
389.45	931.53
389.64	926.85
389.84	1004.09
390.03	1022.81
390.22	868.34
390.42	966.64
390.61	896.43
390.81	957.28
391.00	994.73
391.19	1090.69
391.39	1001.75
391.58	950.26
391.78	1013.45
391.97	1139.84
392.16	994.73
392.36	1064.94
392.55	1102.39
392.75	1015.79
392.94	992.39
393.13	1008.77
393.33	1116.44
393.52	1095.37
393.71	1104.73
393.91	1109.41
394.10	1123.46
394.29	1130.48
394.49	1125.80
394.68	1067.28
394.88	1032.18
395.07	1149.20
395.26	1146.86
395.46	1181.97
395.65	1137.50
395.84	1142.18
396.04	1179.63
396.23	1266.23
396.42	1139.84
396.62	1226.44
396.81	1200.69
397.00	1245.16
397.19	1207.72
397.39	1186.65
397.58	1322.40
397.77	1207.72
397.97	1317.72
398.16	1249.85
398.35	1266.23
398.55	1254.53
398.74	1224.10
398.93	1284.95
399.12	1259.21
399.32	1238.14
399.51	1287.29
399.70	1378.58
399.90	1322.40
400.09	1362.19
400.28	1301.34
400.47	1451.13
400.67	1378.58
400.86	1336.45
401.05	1394.96
401.24	1413.68
401.44	1390.28
401.63	1460.49
401.82	1425.39
402.01	1458.15
402.21	1511.99
402.40	1472.20
402.59	1540.07
402.78	1516.67
402.97	1568.16
403.17	1535.39
403.36	1589.22
403.55	1523.69
403.74	1612.63
403.93	1537.73
404.13	1535.39
404.32	1568.16
404.51	1568.16
404.70	1605.61
404.89	1647.74
405.09	1647.74
405.28	1687.53
405.47	1792.85
405.66	1685.19
405.85	1820.94
406.05	1764.76
406.24	1720.29
406.43	1687.53
406.62	1830.30
406.81	1867.75
407.00	1743.70
407.20	1753.06
407.39	1820.94
407.58	1811.57
407.77	1884.13
407.96	1837.32
408.15	1888.81
408.34	1891.15
408.54	1839.66
408.73	1886.47
408.92	1933.28
409.11	1975.41
409.30	1928.60
409.49	1895.83
409.68	1984.77
409.87	1954.35
410.07	2012.86
410.26	1987.11
410.45	2092.44
410.64	2078.40
410.83	2045.63
411.02	2139.25
411.21	2113.50
411.40	2169.68
411.59	2211.81
411.78	2101.80
411.98	2104.14
412.17	2317.13
412.36	2333.51
412.55	2314.79
412.74	2387.35
412.93	2380.32
413.12	2387.35
413.31	2403.73
413.50	2473.95
413.69	2392.03
413.88	2504.37
414.07	2441.18
414.26	2583.95
414.45	2520.76
414.64	2328.83
414.83	2523.10
415.02	2586.29
415.22	2630.76
415.41	2626.08
415.60	2736.09
415.79	2665.87
415.98	2616.72
416.17	2722.04
416.36	2717.36
416.55	2792.26
416.74	2820.35
416.93	2754.81
417.12	2862.48
417.31	2951.42
417.50	2857.79
417.69	2965.46
417.88	2939.71
418.07	2965.46
418.26	2928.01
418.45	3073.12
418.64	3129.30
418.83	3000.57
419.02	3115.25
419.21	3080.14
419.39	3180.79
419.58	3173.77
419.77	2972.48
419.96	3152.70
420.15	3199.51
420.34	3145.68
420.53	3063.76
420.72	3248.66
420.91	3199.51
421.10	3164.40
421.29	3335.26
421.48	3164.40
421.67	3358.67
421.86	3251.00
422.05	3222.92
422.24	3279.09
422.43	3328.24
422.61	3253.34
422.80	3452.29
422.99	3337.60
423.18	3297.81
423.37	3499.10
423.56	3351.65
423.75	3414.84
423.94	3300.16
424.13	3126.96
424.32	3279.09
424.50	3501.44
424.69	3459.31
424.88	3482.72
425.07	3461.65
425.26	3403.14
425.45	3463.99
425.64	3361.01
425.83	3433.57
426.01	3445.27
426.20	3555.27
426.39	3471.01
426.58	3459.31
426.77	3384.41
426.96	3702.73
427.15	3506.12
427.33	3541.23
427.52	3515.48
427.71	3569.32
427.90	3494.42
428.09	3485.06
428.28	3808.05
428.46	3763.58
428.65	3693.37
428.84	3700.39
429.03	3836.14
429.22	3667.62
429.40	3691.02
429.59	3847.84
429.78	3637.19
429.97	3595.06
430.16	3672.30
430.34	3873.59
430.53	3953.16
430.72	3808.05
430.91	3845.50
431.10	3782.31
431.28	3969.55
431.47	4093.60
431.66	4009.34
431.85	3936.78
432.03	4051.47
432.22	4114.66
432.41	4133.39
432.60	4208.28
432.79	4093.60
432.97	4056.15
433.16	4102.96
433.35	4067.85
433.54	4121.68
433.72	4128.70
433.91	4112.32
434.10	4201.26
434.28	4067.85
434.47	4217.65
434.66	4280.84
434.85	4318.29
435.03	4212.96
435.22	4074.87
435.41	4388.50
435.59	4299.56
435.78	4313.61
435.97	4374.46
436.16	4386.16
436.34	4308.93
436.53	4381.48
436.72	4589.79
436.90	4421.27
437.09	4477.44
437.28	4432.97
437.46	4482.13
437.65	4526.60
437.84	4589.79
438.02	4650.64
438.21	4645.96
438.40	4582.77
438.58	4762.99
438.77	4793.42
438.96	4805.12
439.14	4819.16
439.33	4828.53
439.52	4856.61
439.70	4856.61
439.89	4947.89
440.08	4936.19
440.26	4964.28
440.45	4758.31
440.63	5053.22
440.82	5200.67
441.01	5032.15
441.19	5334.08
441.38	5238.12
441.57	5160.88
441.75	5268.55
441.94	5362.17
442.12	5303.65
442.31	5308.34
442.50	5411.32
442.68	5465.15
442.87	5315.36
443.05	5430.04
443.24	5664.10
443.43	5448.77
443.61	5488.56
443.80	5724.95
443.98	5434.72
444.17	5259.18
444.35	5561.11
444.54	5556.43
444.73	5518.98
444.91	5659.42
445.10	5774.10
445.28	5643.03
445.47	5593.88
445.65	5650.05
445.84	5593.88
446.02	5809.21
446.21	5593.88
446.39	5535.37
446.58	5788.14
446.77	5710.91
446.95	5680.48
447.14	5643.03
447.32	5820.91
447.51	5802.19
447.69	5891.13
447.88	5687.50
448.06	5792.83
448.25	5891.13
448.43	5778.78
448.62	5774.10
448.80	5727.29
448.99	5778.78
449.17	5825.59
449.36	5760.06
449.54	5741.33
449.73	6143.91
449.91	6080.71
450.10	6120.50
450.28	6080.71
450.46	6078.37
450.65	6036.24
450.83	5980.07
451.02	6134.54
451.20	6246.89
451.39	6157.95
451.57	6150.93
451.76	6132.20
451.94	6340.51
452.13	6342.85
452.31	6204.76
452.49	6204.76
452.68	6340.51
452.86	6122.84
453.05	6349.87
453.23	6406.05
453.42	6155.61
453.60	6277.32
453.78	6375.62
453.97	6209.44
454.15	6375.62
454.34	6347.53
454.52	6712.66
454.70	6431.79
454.89	6368.60
455.07	6544.14
455.26	6633.08
455.44	6752.45
455.62	6663.51
455.81	6626.06
455.99	6757.13
456.17	6661.16
456.36	6754.79
456.54	6740.74
456.73	6977.14
456.91	6979.48
457.09	7042.67
457.28	7176.08
457.46	6892.88
457.64	7026.29
457.83	6913.94
458.01	6967.77
458.19	7045.01
458.38	7152.68
458.56	7218.21
458.74	7241.62
458.93	7236.94
459.11	7157.36
459.29	7213.53
459.48	7087.14
459.66	7307.15
459.84	7393.75
460.03	7424.18
460.21	7405.46
460.39	7403.11
460.57	7405.46
460.76	7363.33
460.94	7410.14
461.12	7522.48
461.31	7590.36
461.49	7344.60
461.67	7328.22
461.85	7672.28
462.04	7733.13
462.22	7974.21
462.40	7705.04
462.59	7599.72
462.77	7742.49
462.95	7644.19
463.13	7721.43
463.32	7571.63
463.50	7815.05
463.68	7948.46
463.86	7903.99
464.05	7934.42
464.23	7798.66
464.41	7833.77
464.59	7873.56
464.78	8116.98
464.96	8009.31
465.14	7943.78
465.32	8116.98
465.50	8100.59
465.69	8166.13
465.87	7999.95
466.05	8196.56
466.23	8229.32
466.41	8229.32
466.60	8226.98
466.78	8219.96
466.96	8032.72
467.14	8276.13
467.32	8402.52
467.51	8346.35
467.69	8194.22
467.87	8372.10
468.05	8262.09
468.23	8114.64
468.41	8414.23
468.60	8329.97
468.78	8472.74
468.96	8390.82
469.14	8535.93
469.32	8674.03
469.50	8545.30
469.69	8610.83
469.87	8643.60
470.05	8456.36
470.23	8664.66
470.41	8514.87
470.59	8861.27
470.77	8826.16
470.95	8840.20
471.14	9090.64
471.32	8891.70
471.50	9015.74
471.68	8947.87
471.86	9156.18
472.04	9139.79
472.22	9221.71
472.40	9116.39
472.58	9256.82
472.77	9195.96
472.95	9298.95
473.13	9785.78
473.31	9207.67
473.49	9420.66
473.67	9334.06
473.85	9530.66
474.03	9804.50
474.21	9729.61
474.39	9638.33
474.57	9795.14
474.75	9856.00
474.93	9973.02
475.12	9977.70
475.30	9895.78
475.48	10029.20
475.66	10101.75
475.84	10092.39
476.02	9895.78
476.20	10272.61
476.38	10274.95
476.56	10445.81
476.74	10642.42
476.92	10363.89
477.10	10356.87
477.28	10616.67
477.46	10628.37
477.64	10787.53
477.82	10953.71
478.00	11187.76
478.18	11000.52
478.36	11192.44
478.54	11351.60
478.72	11316.49
478.90	11386.71
479.08	11485.01
479.26	11751.83
479.44	11653.53
479.62	11768.21
479.80	11805.66
479.98	11918.01
480.16	12475.06
480.34	12121.63
480.52	12336.96
480.70	12374.41
480.88	12208.23
481.06	12212.92
481.24	12620.17
481.41	12624.85
481.59	12674.00
481.77	12695.07
481.95	12828.48
482.13	12882.31
482.31	13132.75
482.49	13432.33
482.67	13221.69
482.85	13233.39
483.03	13664.05
483.21	13570.43
483.39	13743.63
483.57	13764.69
483.74	13874.70
483.92	13928.53
484.10	13830.23
484.28	14452.81
484.46	14665.80
484.64	14794.53
484.82	14541.75
485.00	14672.82
485.18	14663.46
485.35	15016.88
485.53	14761.76
485.71	15002.83
485.89	15344.55
486.07	15417.11
486.25	15559.88
486.43	15365.62
486.61	15817.34
486.78	15875.85
486.96	15777.55
487.14	15997.56
487.32	15934.37
487.50	16358.00
487.68	16222.25
487.85	16503.12
488.03	16826.11
488.21	16924.41
488.39	16872.92
488.57	16978.25
488.75	16971.22
488.92	17275.49
489.10	17373.80
489.28	17551.68
489.46	17729.56
489.64	17568.06
489.81	18120.43
489.99	18094.68
490.17	17989.36
490.35	18263.20
490.53	18443.42
490.70	18492.57
490.88	18511.30
491.06	18963.02
491.24	18705.56
491.41	19126.86
491.59	19103.45
491.77	19309.42
491.95	19475.60
492.13	19620.71
492.30	19559.86
492.48	19927.32
492.66	19721.35
492.84	19733.06
493.01	20039.67
493.19	20432.88
493.37	20109.88
493.54	20369.68
493.72	20374.36
493.90	20390.75
494.08	20823.75
494.25	21057.80
494.43	20919.71
494.61	21275.47
494.79	21149.08
494.96	21043.76
495.14	21795.07
495.32	21743.58
495.49	21771.66
495.67	21766.98
495.85	22050.19
496.02	22160.19
496.20	22483.19
496.38	22595.53
496.55	22312.33
496.73	23044.91
496.91	22546.38
497.09	22773.41
497.26	22670.43
497.44	22869.37
497.62	23206.41
497.79	23363.23
497.97	23201.73
498.14	23616.01
498.32	23967.09
498.50	23709.63
498.67	24198.80
498.85	23728.35
499.03	23763.46
499.20	24030.28
499.38	24161.35
499.56	24212.84
499.73	24416.47
499.91	24510.09
500.08	24538.18
500.26	24526.47
500.44	24643.50
500.61	25025.01
500.79	24802.66
500.97	25125.65
501.14	25003.94
501.32	25125.65
501.49	25060.12
501.67	25050.75
501.84	25198.21
502.02	25544.61
502.20	25741.21
502.37	25565.67
502.55	25575.03
502.72	25982.29
502.90	25883.98
503.07	25876.96
503.25	25893.35
503.43	25860.58
503.60	26335.71
503.78	26405.92
503.95	26080.59
504.13	26520.61
504.30	26658.70
504.48	26635.30
504.65	26724.24
504.83	26803.82
505.01	27110.43
505.18	26974.67
505.36	27147.87
505.53	27161.92
505.71	27222.77
505.88	27405.33
506.06	27400.65
506.23	27426.40
506.41	27630.02
506.58	28053.66
506.76	27585.55
506.93	28032.60
507.11	27716.62
507.28	28006.85
507.46	28446.87
507.63	28247.93
507.81	28465.60
507.98	28067.70
508.16	28283.03
508.33	28528.79
508.50	28390.70
508.68	28727.74
508.85	29020.30
509.03	28678.58
509.20	28732.42
509.38	29331.59
509.55	29668.63
509.73	29216.91
509.90	29575.01
510.08	29401.81
510.25	29209.89
510.42	29628.84
510.60	29940.13
510.77	29827.79
510.95	30169.51
511.12	29867.58
511.30	29593.73
511.47	30333.34
511.64	29797.36
511.82	30073.54
511.99	30300.58
512.17	30188.23
512.34	30572.08
512.51	30918.48
512.69	30939.54
512.86	30661.02
513.04	31164.23
513.21	31007.42
513.38	30742.94
513.56	31124.44
513.73	30991.03
513.90	31459.14
514.08	30979.33
514.25	31295.30
514.43	31442.76
514.60	31639.36
514.77	31735.32
514.95	31754.05
515.12	31543.40
515.29	31777.45
515.47	31821.92
515.64	32278.33
515.81	31632.34
515.99	32177.68
516.16	32304.07
516.33	32306.41
516.51	32453.87
516.68	32114.49
516.85	32327.48
517.03	32435.14
517.20	32847.08
517.37	32456.21
517.54	32306.41
517.72	32945.38
517.89	32919.63
518.06	33195.82
518.24	33434.55
518.41	33003.89
518.58	33127.94
518.75	32910.27
518.93	33373.70
519.10	33109.22
519.27	32989.85
519.45	33560.94
519.62	33755.21
519.79	33823.08
519.96	33787.97
520.14	33720.10
520.31	33919.04
520.48	33977.56
520.65	34089.90
520.83	34443.32
521.00	34190.55
521.17	34106.29
521.34	34211.61
521.52	34251.40
521.69	34785.04
521.86	34326.30
522.03	34328.64
522.20	35047.18
522.38	35131.44
522.55	35084.63
522.72	34918.45
522.89	34951.22
523.07	35033.14
523.24	35065.91
523.41	35288.26
523.58	35136.12
523.75	35519.97
523.92	35419.33
524.10	35115.06
524.27	35611.25
524.44	35662.74
524.61	35599.55
524.78	35651.04
524.96	35704.87
525.13	36236.17
525.30	35571.46
525.47	36282.98
525.64	36196.38
525.81	36130.85
525.98	36233.83
526.16	35873.39
526.33	35934.24
526.50	36549.81
526.67	36287.67
526.84	36577.89
527.01	36465.55
527.18	36851.73
527.36	36811.95
527.53	36772.16
527.70	36683.22
527.87	37221.54
528.04	36863.44
528.21	36690.24
528.38	36870.46
528.55	37420.48
528.72	37081.11
528.89	37193.45
529.07	36870.46
529.24	36650.45
529.41	37661.56
529.58	37310.48
529.75	37247.29
529.92	37282.39
530.09	37598.37
530.26	37713.05
530.43	37556.24
530.60	37773.91
530.77	37141.96
530.94	37792.63
531.11	37888.59
531.28	37532.83
531.46	37743.48
531.63	38082.86
531.80	38054.77
531.97	38134.35
532.14	38557.99
532.31	37933.06
532.48	38242.01
532.65	38513.52
532.82	38820.13
532.99	38270.10
533.16	38319.25
533.33	38675.01
533.50	38869.28
533.67	38616.50
533.84	38602.46
534.01	38569.69
534.18	38415.21
534.35	39669.74
534.52	39122.05
534.69	39232.06
534.86	39335.04
535.03	38836.51
535.20	38845.87
535.37	39143.12
535.54	39356.11
535.71	39454.41
535.88	39122.05
536.05	39372.49
536.22	39601.86
536.38	39620.59
536.55	39213.34
536.72	39929.54
536.89	39744.64
537.06	40142.53
537.23	39906.13
537.40	39611.23
537.57	40037.20
537.74	40095.72
537.91	40133.17
538.08	39522.29
538.25	39716.55
538.42	40128.48
538.59	40580.21
538.75	40189.34
538.92	40655.11
539.09	40570.85
539.26	40236.15
539.43	40395.31
539.60	40643.40
539.77	40371.90
539.94	40577.87
540.11	40760.43
540.28	40678.51
540.44	40807.24
540.61	40673.83
540.78	40430.41
540.95	40786.18
541.12	41221.52
541.29	40776.81
541.46	40615.32
541.62	41572.60
541.79	41390.03
541.96	40648.08
542.13	40776.81
542.30	40959.38
542.47	41404.08
542.63	41207.47
542.80	41268.33
542.97	42017.30
543.14	41317.48
543.31	41722.39
543.48	41413.44
543.64	41972.83
543.81	41975.17
543.98	42052.41
544.15	41797.29
544.32	42216.24
544.48	41663.88
544.65	42405.83
544.82	42375.40
544.99	41869.84
545.16	42204.54
545.32	41717.71
545.49	42721.80
545.66	43161.82
545.83	42377.74
546.00	42316.89
546.16	42408.17
546.33	42483.06
546.50	42153.05
546.67	42602.43
546.83	42272.42
547.00	42555.62
547.17	42674.99
547.34	42674.99
547.50	43199.27
547.67	43206.29
547.84	43068.20
548.00	42932.45
548.17	43363.11
548.34	43344.38
548.51	43370.13
548.67	43075.22
548.84	43325.66
549.01	42836.48
549.18	42974.58
549.34	43526.94
549.51	43508.22
549.68	43529.28
549.84	43161.82
550.01	43440.34
550.18	43271.82
550.34	43388.85
550.51	43723.55
550.68	43772.70
550.84	43358.42
551.01	43182.88
551.18	43517.58
551.34	43512.90
551.51	43878.02
551.68	43777.38
551.84	43636.95
552.01	43658.01
552.18	43730.57
552.34	43730.57
552.51	43697.80
552.68	43948.24
552.84	43786.74
553.01	44292.30
553.18	44399.96
553.34	43913.13
553.51	44079.31
553.67	44348.47
553.84	44116.76
554.01	44135.48
554.17	44339.11
554.34	44311.02
554.51	44287.62
554.67	44524.01
554.84	44898.50
555.00	44100.37
555.17	44755.72
555.33	44882.11
555.50	44406.98
555.67	44769.77
555.83	44519.33
556.00	44907.86
556.16	45167.66
556.33	44886.79
556.50	44947.65
556.66	45069.36
556.83	44552.10
556.99	45010.84
557.16	44844.66
557.32	44608.27
557.49	45418.10
557.65	44842.32
557.82	44697.21
557.98	45111.49
558.15	44912.54
558.32	45198.09
558.48	44296.98
558.65	45200.43
558.81	45305.75
558.98	45247.24
559.14	44882.11
559.31	45221.49
559.47	44678.49
559.64	45666.19
559.80	45464.91
559.97	45338.52
560.13	45177.02
560.30	45195.74
560.46	46101.53
560.63	45684.92
560.79	45645.13
560.96	45738.75
561.12	45691.94
561.29	45755.13
561.45	45247.24
561.61	45731.73
561.78	45284.68
561.94	45893.22
562.11	45652.15
562.27	45422.78
562.44	45563.21
562.60	45624.06
562.77	45553.85
562.93	45872.16
563.10	45769.18
563.26	45682.58
563.42	45954.08
563.59	45827.69
563.75	46064.08
563.92	46131.96
564.08	45682.58
564.24	45738.75
564.41	45940.04
564.57	46089.83
564.74	45830.03
564.90	45787.90
565.07	46078.13
565.23	45951.74
565.39	46122.60
565.56	45731.73
565.72	46134.30
565.88	45996.21
566.05	46256.01
566.21	46450.27
566.38	46190.47
566.54	46284.09
566.70	46328.56
566.87	46195.15
567.03	45904.93
567.19	46248.99
567.36	46141.32
567.52	45951.74
567.68	46574.32
567.85	46649.22
568.01	46735.82
568.17	46248.99
568.34	46646.88
568.50	46579.00
568.66	45940.04
568.83	46541.55
568.99	46539.21
569.15	46616.45
569.32	46335.59
569.48	46384.74
569.64	46850.50
569.81	46499.42
569.97	46518.15
570.13	46759.22
570.30	45855.78
570.46	46511.13
570.62	46323.88
570.78	46391.76
570.95	46368.35
571.11	46981.57
571.27	46607.09
571.43	46443.25
571.60	46768.58
571.76	46494.74
571.92	46504.10
572.09	46857.52
572.25	46314.52
572.41	46464.32
572.57	46845.82
572.74	46876.25
572.90	46679.64
573.06	46885.61
573.22	46958.17
573.38	46747.52
573.55	46754.54
573.71	47199.24
573.87	46850.50
574.03	46684.33
574.20	47468.40
574.36	46909.02
574.52	47042.43
574.68	47262.44
574.84	47009.66
575.01	47187.54
575.17	47299.89
575.33	46763.90
575.49	46522.83
575.65	46967.53
575.82	46684.33
575.98	46703.05
576.14	47590.11
576.30	47201.58
576.46	46883.27
576.62	46857.52
576.79	46791.99
576.95	46478.36
577.11	46742.84
577.27	47306.91
577.43	47285.84
577.59	46588.36
577.75	46916.04
577.92	46710.07
578.08	46768.58
578.24	47215.63
578.40	47203.92
578.56	47131.37
578.72	46747.52
578.88	47133.71
579.04	47339.68
579.21	46916.04
579.37	47136.05
579.53	47138.39
579.69	46801.35
579.85	47393.51
580.01	47262.44
580.17	46721.77
580.33	47105.62
580.49	47227.33
580.65	47019.02
580.82	47281.16
580.98	46925.40
581.14	46930.08
581.30	47136.05
581.46	47037.75
581.62	46714.75
581.78	46979.23
581.94	47061.15
582.10	47019.02
582.26	46937.10
582.42	47271.80
582.58	47253.08
582.74	47452.02
582.90	46986.25
583.06	47571.39
583.22	46974.55
583.38	47482.45
583.54	47297.55
583.70	47585.43
583.86	47620.54
584.02	47033.07
584.18	47379.46
584.34	47555.00
584.50	47468.40
584.66	47613.52
584.82	47107.96
584.98	47667.35
585.14	47487.13
585.30	47349.04
585.46	47320.95
585.62	47159.45
585.78	47349.04
585.94	46997.96
586.10	47147.75
586.26	47166.48
586.42	47283.50
586.58	47421.59
586.74	47295.21
586.90	47363.08
587.06	47063.49
587.22	47484.79
587.38	46789.65
587.54	47395.85
587.70	47653.31
587.86	47496.49
588.02	47480.11
588.18	47379.46
588.34	47332.65
588.49	47290.52
588.65	47098.60
588.81	47349.04
588.97	47606.50
589.13	47620.54
589.29	47505.85
589.45	47746.93
589.61	47880.34
589.77	47784.38
589.93	47391.17
590.08	47569.05
590.24	47980.98
590.40	48226.74
590.56	48083.97
590.72	47756.29
590.88	47206.26
591.04	47449.68
591.20	47810.12
591.35	47952.90
591.51	47995.03
591.67	47697.78
591.83	47812.46
591.99	48018.43
592.15	47812.46
592.31	47515.22
592.46	47639.26
592.62	47810.12
592.78	48072.26
592.94	47772.67
593.10	47746.93
593.26	48133.12
593.41	48184.61
593.57	48041.84
593.73	47775.02
593.89	48266.53
594.05	48051.20
594.20	47915.45
594.36	48339.08
594.52	48502.92
594.68	47896.72
594.84	47817.14
594.99	48332.06
595.15	48107.37
595.31	48072.26
595.47	48053.54
595.62	48102.69
595.78	48030.13
595.94	47922.47
596.10	48189.29
596.25	48229.08
596.41	48329.72
596.57	48226.74
596.73	48238.44
596.88	48325.04
597.04	48090.99
597.20	48105.03
597.36	48086.31
597.51	48226.74
597.67	48039.50
597.83	47943.53
597.99	48289.93
598.14	47835.87
598.30	47789.06
598.46	47861.61
598.61	48287.59
598.77	48470.15
598.93	48472.49
599.09	48275.89
599.24	48744.00
599.40	48006.73
599.56	48116.73
599.71	48006.73
599.87	48259.51
600.03	48598.88
600.18	48680.80
600.34	48552.07
600.50	48315.68
600.65	48285.25
600.81	48535.69
600.97	48189.29
601.12	48751.02
601.28	48493.56
601.44	48353.13
601.59	48191.63
601.75	48545.05
601.91	48465.47
602.06	48048.86
602.22	47709.48
602.37	48011.41
602.53	48428.02
602.69	48186.95
602.84	47784.38
603.00	48477.18
603.16	48182.27
603.31	48301.64
603.47	48315.68
603.62	48282.91
603.78	48528.67
603.94	48250.14
604.09	48788.47
604.25	48154.18
604.40	48121.41
604.56	48678.46
604.71	48435.05
604.87	47880.34
605.03	47988.00
605.18	48217.38
605.34	48282.91
605.49	48030.13
605.65	48233.76
605.80	47978.64
605.96	47950.56
606.12	48006.73
606.27	48502.92
606.43	48076.94
606.58	48264.19
606.74	47896.72
606.89	47870.98
607.05	48388.24
607.20	48055.88
607.36	48257.17
607.51	48336.74
607.67	47915.45
607.82	48020.77
607.98	47885.02
608.13	47889.70
608.29	48098.01
608.44	47753.95
608.60	47749.27
608.75	47985.66
608.91	47721.18
609.06	47592.45
609.22	48126.10
609.37	47723.52
609.53	48266.53
609.68	48526.33
609.84	47817.14
609.99	48126.10
610.15	47915.45
610.30	47917.79
610.46	47985.66
610.61	48090.99
610.76	47941.19
610.92	47695.44
611.07	47564.37
611.23	47433.30
611.38	47669.69
611.54	47948.21
611.69	48236.10
611.84	48025.45
612.00	47583.09
612.15	47648.63
612.31	48027.79
612.46	47337.33
612.62	47306.91
612.77	47395.85
612.92	48170.57
613.08	47920.13
613.23	47796.08
613.39	47262.44
613.54	47269.46
613.69	47840.55
613.85	47468.40
614.00	47391.17
614.15	48006.73
614.31	47288.18
614.46	47398.19
614.62	47503.51
614.77	47154.77
614.92	47763.31
615.08	47547.98
615.23	47803.10
615.38	47739.91
615.54	47564.37
615.69	47189.88
615.84	47215.63
616.00	47672.03
616.15	47599.47
616.30	47903.74
616.46	47187.54
616.61	47234.35
616.76	47253.08
616.92	47346.70
617.07	47512.88
617.22	47421.59
617.37	46733.48
617.53	47269.46
617.68	46918.38
617.83	47042.43
617.99	47320.95
618.14	47629.90
618.29	47393.51
618.45	46511.13
618.60	46937.10
618.75	46642.20
618.90	46731.14
619.06	46852.84
619.21	47124.35
619.36	47391.17
619.51	46934.76
619.67	46560.28
619.82	47215.63
619.97	47337.33
620.12	46930.08
620.28	46370.69
620.43	47126.69
620.58	47112.64
620.73	47004.98
620.89	47260.10
621.04	47299.89
621.19	47309.25
621.34	47229.67
621.49	46361.33
621.65	46550.91
621.80	46784.97
621.95	46941.78
622.10	47091.58
622.25	46990.94
622.41	46691.35
622.56	46445.59
622.71	46747.52
622.86	46733.48
623.01	46361.33
623.16	46534.53
623.32	46377.72
623.47	46557.94
623.62	46169.41
623.77	46590.70
623.92	46513.47
624.07	46623.47
624.23	46237.28
624.38	46885.61
624.53	46263.03
624.68	46113.23
624.83	46490.06
624.98	46373.03
625.13	46043.02
625.29	45944.72
625.44	46298.14
625.59	46174.09
625.74	46146.00
625.89	45921.31
626.04	46302.82
626.19	46241.96
626.34	46373.03
626.49	45979.82
626.65	45947.06
626.80	45993.87
626.95	45954.08
627.10	45525.76
627.25	45902.59
627.40	46134.30
627.55	46188.13
627.70	45851.09
627.85	46080.47
628.00	45862.80
628.15	46026.63
628.30	45226.17
628.45	45490.65
628.60	44830.62
628.76	45579.59
628.91	45474.27
629.06	45427.46
629.21	45481.29
629.36	45710.66
629.51	45464.91
629.66	45783.22
629.81	45181.70
629.96	45708.32
630.11	45467.25
630.26	45202.77
630.41	45432.14
630.56	45270.64
630.71	45188.72
630.86	45186.38
631.01	44900.84
631.16	45020.20
631.31	44982.76
631.46	45282.34
631.61	45427.46
631.76	45546.82
631.91	45146.59
632.06	45586.61
632.21	45298.73
632.36	45546.82
632.51	44847.00
632.66	45319.79
632.81	44619.97
632.96	45106.80
633.10	44987.44
633.25	44982.76
633.40	44945.31
633.55	44921.90
633.70	45228.51
633.85	44355.49
634.00	44399.96
634.15	44519.33
634.30	44781.47
634.45	44229.10
634.60	44804.88
634.75	44629.34
634.90	44598.91
635.05	45242.56
635.19	44912.54
635.34	44547.42
635.49	44566.14
635.64	44959.35
635.79	44971.05
635.94	44865.73
636.09	45167.66
636.24	44184.63
636.39	44591.89
636.53	44804.88
636.68	44126.12
636.83	44308.68
636.98	44322.72
637.13	44107.40
637.28	44198.68
637.43	44123.78
637.57	44074.63
637.72	44065.27
637.87	44095.69
638.02	44208.04
638.17	44048.88
638.32	44016.11
638.46	44032.50
638.61	43508.22
638.76	43906.11
638.91	44154.21
639.06	44009.09
639.20	43536.30
639.35	43697.80
639.50	43908.45
639.65	44308.68
639.80	44081.65
639.94	44151.87
640.09	44357.83
640.24	43936.54
640.39	43552.69
640.54	43468.43
640.68	43737.59
640.83	43962.28
640.98	43360.76
641.13	43384.17
641.27	43620.56
641.42	43810.15
641.57	43309.27
641.72	43592.48
641.86	43398.21
642.01	43339.70
642.16	43133.73
642.31	43248.42
642.45	43482.47
642.60	43283.53
642.75	43292.89
642.90	43580.78
643.04	43363.11
643.19	43309.27
643.34	43225.01
643.48	42815.42
643.63	43100.97
643.78	43147.78
643.93	43449.70
644.07	43428.64
644.22	43290.55
644.37	42873.93
644.51	43358.42
644.66	42806.06
644.81	43122.03
644.95	43112.67
645.10	42745.20
645.25	42986.28
645.39	43037.77
645.54	43023.73
645.69	42394.12
645.83	42873.93
645.98	42380.08
646.13	42459.66
646.27	43009.68
646.42	42108.58
646.57	42836.48
646.71	42763.93
646.86	43021.39
647.00	42775.63
647.15	42829.46
647.30	42948.83
647.44	42703.07
647.59	42293.48
647.74	41940.06
647.88	42679.67
648.03	42614.13
648.17	43255.44
648.32	42803.72
648.47	43049.47
648.61	42543.92
648.76	42759.25
648.90	42129.64
649.05	42562.64
649.20	42527.53
649.34	42199.86
649.49	42518.17
649.63	42604.77
649.78	42293.48
649.92	42454.98
650.07	42761.59
650.21	42115.60
650.36	42377.74
650.51	42017.30
650.65	42249.01
650.80	42724.14
650.94	42085.17
651.09	41808.99
651.23	41577.28
651.38	41759.84
651.52	41820.69
651.67	41619.41
651.81	41916.65
651.96	42108.58
652.10	41677.92
652.25	42064.11
652.39	41745.80
652.54	41914.31
652.68	41961.12
652.83	41818.35
652.97	41486.00
653.12	41696.64
653.26	41628.77
653.41	41984.53
653.55	41687.28
653.70	42216.24
653.84	41652.17
653.99	41645.15
654.13	41787.92
654.27	41167.68
654.42	41844.10
654.56	41617.07
654.71	41151.30
654.85	41659.20
655.00	41354.93
655.14	41394.71
655.29	41488.34
655.43	41542.17
655.57	41083.42
655.72	41104.49
655.86	41221.52
656.01	41085.76
656.15	40961.72
656.30	40999.16
656.44	40828.30
656.58	41226.20
656.73	41060.02
656.87	40540.42
657.01	40975.76
657.16	40896.18
657.30	41394.71
657.45	41064.70
657.59	40687.87
657.73	40509.99
657.88	40755.75
658.02	41294.07
658.16	41118.53
658.31	40666.81
658.45	40875.12
658.60	40477.22
658.74	40940.65
658.88	40559.14
659.03	40891.50
659.17	40538.08
659.31	40397.65
659.46	40282.96
659.60	40463.18
659.74	40577.87
659.89	39793.79
660.03	39831.24
660.17	40240.83
660.32	40297.00
660.46	39969.33
660.60	39489.52
660.74	39782.09
660.89	40247.85
661.03	39667.40
661.17	39386.54
661.32	39543.35
661.46	40224.45
661.60	39938.90
661.74	39728.25
661.89	39775.06
662.03	39754.00
662.17	39339.72
662.31	39227.38
662.46	39168.87
662.60	39412.28
662.74	39154.82
662.88	39124.40
663.03	38976.94
663.17	39388.88
663.31	38862.26
663.45	39526.97
663.60	39089.29
663.74	39171.21
663.88	38770.97
664.02	38742.89
664.17	38955.88
664.31	38653.95
664.45	38745.23
664.59	38480.75
664.73	38153.07
664.88	38345.00
665.02	38246.69
665.16	38546.28
665.30	38438.62
665.44	38075.84
665.59	37993.92
665.73	37883.91
665.87	37762.20
666.01	38059.45
666.15	38546.28
666.29	37752.84
666.44	37970.51
666.58	38178.82
666.72	37553.90
666.86	37919.02
667.00	37603.05
667.14	37731.78
667.28	37731.78
667.43	37476.66
667.57	37497.72
667.71	37612.41
667.85	37493.04
667.99	37429.85
668.13	37202.82
668.27	36723.01
668.41	37010.89
668.56	36748.75
668.70	36868.12
668.84	36357.88
668.98	36421.08
669.12	36868.12
669.26	36669.17
669.40	36800.24
669.54	36898.55
669.68	36774.50
669.82	37130.26
669.96	35922.54
670.10	36147.23
670.25	36217.45
670.39	35967.01
670.53	36474.91
670.67	36109.78
670.81	36362.56
670.95	36172.98
671.09	35950.63
671.23	35725.94
671.37	36308.73
671.51	35613.59
671.65	35903.82
671.79	35709.55
671.93	35849.99
672.07	35744.66
672.21	35424.01
672.35	34885.68
672.49	35419.33
672.63	35171.23
672.77	35180.59
672.91	34892.71
673.05	35105.70
673.19	34782.70
673.33	34466.73
673.47	34616.52
673.61	34754.61
673.75	34525.24
673.89	34338.00
674.03	34401.19
674.17	33736.48
674.31	34125.01
674.45	34281.83
674.59	34295.87
674.73	34190.55
674.87	33596.05
675.01	33415.83
675.15	33326.89
675.29	33280.08
675.43	33380.72
675.56	33680.31
675.70	33605.41
675.84	33167.73
675.98	32327.48
676.12	32980.49
676.26	33504.77
676.40	33031.98
676.54	32636.43
676.68	33109.22
676.82	32030.23
676.96	32645.79
677.10	32765.16
677.23	32601.32
677.37	32357.91
677.51	32177.68
677.65	32081.72
677.79	32105.13
677.93	32077.04
678.07	31531.70
678.21	31735.32
678.34	31491.91
678.48	31438.08
678.62	31365.52
678.76	31405.31
678.90	31374.88
679.04	31604.25
679.18	31257.85
679.31	31164.23
679.45	31063.59
679.59	30874.01
679.73	31002.74
679.87	30607.19
680.00	30513.56
680.14	30597.82
680.28	30499.52
680.42	30181.21
680.56	30118.01
680.70	29759.91
680.83	30026.73
680.97	29951.84
681.11	29736.51
681.25	29593.73
681.39	30071.20
681.52	29750.55
681.66	29324.57
681.80	29046.05
681.94	28842.42
682.07	29022.64
682.21	28657.52
682.35	28655.18
682.49	28711.35
682.62	28823.70
682.76	28907.96
682.90	28350.91
683.04	28254.95
683.17	28737.10
683.31	27983.44
683.45	28142.60
683.59	27775.14
683.72	27625.34
683.86	27536.40
684.00	27510.66
684.13	27571.51
684.27	27564.49
684.41	27515.34
684.55	27360.86
684.68	27302.35
684.82	27061.27
684.96	26796.79
685.09	26799.13
685.23	26998.08
685.37	27054.25
685.50	27161.92
685.64	26665.72
685.78	26644.66
685.91	26611.89
686.05	26054.84
686.19	25633.55
686.32	25912.07
686.46	25495.46
686.60	25539.93
686.73	25717.81
686.87	25401.83
687.01	25954.20
687.14	25591.42
687.28	25378.43
687.42	25362.04
687.55	25057.78
687.69	25020.33
687.82	25036.71
687.96	25029.69
688.10	25106.93
688.23	25074.16
688.37	24797.98
688.50	24889.26
688.64	24542.86
688.78	24599.03
688.91	24379.02
689.05	24320.51
689.18	23726.01
689.32	23772.82
689.46	23672.18
689.59	23421.74
689.73	23887.51
689.86	23826.65
690.00	23735.37
690.13	23557.49
690.27	23496.64
690.41	23522.38
690.54	23175.98
690.68	23047.26
690.81	23255.56
690.95	22857.67
691.08	22745.33
691.22	22726.60
691.35	22724.26
691.49	22551.06
691.62	22464.46
691.76	22494.89
691.89	21989.33
692.03	21916.78
692.16	21881.67
692.30	22033.80
692.43	22001.04
692.57	21673.36
692.70	21685.06
692.84	21343.35
692.97	21446.33
693.11	21582.08
693.24	21221.64
693.38	21010.99
693.51	21216.96
693.65	20657.57
693.78	21050.78
693.92	20844.81
694.05	20428.20
694.19	20758.21
694.32	20376.70
694.45	20678.63
694.59	20833.11
694.72	20594.37
694.86	20231.59
694.99	19999.88
695.13	19800.93
695.26	19910.94
695.39	19859.45
695.53	19531.77
695.66	19946.05
695.80	19679.22
695.93	19793.91
696.07	19346.87
696.20	19070.68
696.33	19108.13
696.47	19096.43
696.60	19417.08
696.73	19311.76
696.87	18913.87
697.00	19129.20
697.14	18677.48
697.27	18546.40
697.40	18658.75
697.54	18721.95
697.67	18377.89
697.80	18263.20
697.94	18574.49
698.07	18019.78
698.21	18050.21
698.34	17994.04
698.47	17998.72
698.61	17802.11
698.74	17860.63
698.87	17635.94
699.01	17390.18
699.14	17774.03
699.27	17177.19
699.40	17373.80
699.54	17160.81
699.67	17219.32
699.80	17245.07
699.94	17273.15
700.07	16964.20
700.20	17146.76
700.34	16994.63
700.47	16828.45
700.60	16908.03
700.73	16493.76
700.87	16334.60
701.00	16156.72
701.13	16049.05
701.26	16348.64
701.40	16276.09
701.53	15964.79
701.66	16163.74
701.79	15754.15
701.93	15609.03
702.06	15690.95
702.19	15733.08
702.32	15805.64
702.46	15662.86
702.59	15461.58
702.72	15662.86
702.85	15515.41
702.99	15300.08
703.12	15183.06
703.25	15047.30
703.38	15131.56
703.51	14895.17
703.65	14834.32
703.78	14581.54
703.91	14516.00
704.04	14576.86
704.17	14492.60
704.31	14618.99
704.44	14553.45
704.57	14352.16
704.70	14214.07
704.83	14136.84
704.96	13994.06
705.10	13970.66
705.23	14090.02
>>>>>End Processed Spectral Data<<<<<
