SpectraSuite Data File
++++++++++++++++++++++++++++++++++++
Date: Fri Oct 25 11:34:01 EDT 2013
User: price-jones
Dark Spectrum Present: No
Reference Spectrum Present: No
Number of Sampled Component Spectra: 1
Spectrometers: USB2+H05261
Integration Time (usec): 100000 (USB2+H05261)
Spectra Averaged: 1 (USB2+H05261)
Boxcar Smoothing: 0 (USB2+H05261)
Correct for Electrical Dark: No (USB2+H05261)
Strobe/Lamp Enabled: No (USB2+H05261)
Correct for Detector Non-linearity: No (USB2+H05261)
Correct for Stray Light: No (USB2+H05261)
Number of Pixels in Processed Spectrum: 2048
>>>>>Begin Processed Spectral Data<<<<<
365.73	234.05
365.92	234.05
366.12	234.05
366.32	159.16
366.52	149.79
366.72	215.33
366.91	114.69
367.11	227.03
367.31	100.64
367.51	110.01
367.70	194.26
367.90	140.43
368.10	198.95
368.30	222.35
368.49	147.45
368.69	210.65
368.89	236.39
369.09	173.20
369.28	194.26
369.48	276.18
369.68	264.48
369.87	215.33
370.07	257.46
370.27	304.27
370.47	287.89
370.66	493.85
370.86	543.00
371.06	526.62
371.25	610.88
371.45	568.75
371.65	514.92
371.84	554.71
372.04	540.66
372.24	582.79
372.44	528.96
372.63	599.18
372.83	636.63
373.03	638.97
373.22	608.54
373.42	699.82
373.62	685.78
373.81	650.67
374.01	629.60
374.21	709.18
374.40	669.39
374.60	671.73
374.79	631.94
374.99	662.37
375.19	734.93
375.38	601.52
375.58	641.31
375.78	718.54
375.97	709.18
376.17	690.46
376.37	662.37
376.56	674.07
376.76	582.79
376.95	692.80
377.15	737.27
377.35	622.58
377.54	711.52
377.74	697.48
377.93	751.31
378.13	713.86
378.33	730.25
378.52	575.77
378.72	692.80
378.91	692.80
379.11	699.82
379.31	718.54
379.50	713.86
379.70	767.70
379.89	706.84
380.09	627.26
380.28	678.76
380.48	725.57
380.68	767.70
380.87	739.61
381.07	737.27
381.26	748.97
381.46	772.38
381.65	727.91
381.85	786.42
382.04	699.82
382.24	777.06
382.43	720.88
382.63	763.01
382.83	744.29
383.02	833.23
383.22	800.46
383.41	788.76
383.61	767.70
383.80	847.27
384.00	844.93
384.19	814.51
384.39	858.98
384.58	744.29
384.78	765.36
384.97	772.38
385.17	833.23
385.36	856.64
385.56	837.91
385.75	788.76
385.95	809.83
386.14	861.32
386.34	875.36
386.53	910.47
386.72	891.74
386.92	933.87
387.11	910.47
387.31	828.55
387.50	807.48
387.70	889.40
387.89	844.93
388.09	929.19
388.28	835.57
388.48	891.74
388.67	943.24
388.86	950.26
389.06	992.39
389.25	983.02
389.45	898.77
389.64	924.51
389.84	1001.75
390.03	938.55
390.22	896.43
390.42	880.04
390.61	945.58
390.81	1015.79
391.00	1048.56
391.19	1074.31
391.39	973.66
391.58	943.24
391.78	978.34
391.97	997.07
392.16	1046.22
392.36	1046.22
392.55	1018.13
392.75	1104.73
392.94	1088.35
393.13	1071.97
393.33	1057.92
393.52	1135.16
393.71	1036.86
393.91	1090.69
394.10	1041.54
394.29	1088.35
394.49	1109.41
394.68	1238.14
394.88	1100.05
395.07	1174.95
395.26	1219.42
395.46	1167.93
395.65	1200.69
395.84	1221.76
396.04	1196.01
396.23	1200.69
396.42	1210.06
396.62	1217.08
396.81	1200.69
397.00	1163.25
397.19	1186.65
397.39	1174.95
397.58	1254.53
397.77	1259.21
397.97	1228.78
398.16	1294.32
398.35	1270.91
398.55	1252.19
398.74	1252.19
398.93	1324.74
399.12	1231.12
399.32	1306.02
399.51	1320.06
399.70	1355.17
399.90	1331.76
400.09	1394.96
400.28	1401.98
400.47	1322.40
400.67	1441.77
400.86	1336.45
401.05	1418.36
401.24	1350.49
401.44	1523.69
401.63	1434.75
401.82	1514.33
402.01	1451.13
402.21	1427.73
402.40	1504.96
402.59	1411.34
402.78	1535.39
402.97	1547.09
403.17	1502.62
403.36	1509.65
403.55	1488.58
403.74	1600.93
403.93	1589.22
404.13	1521.35
404.32	1596.25
404.51	1516.67
404.70	1614.97
404.89	1586.88
405.09	1629.01
405.28	1598.59
405.47	1654.76
405.66	1673.48
405.85	1586.88
406.05	1699.23
406.24	1739.02
406.43	1717.95
406.62	1802.21
406.81	1743.70
407.00	1696.89
407.20	1696.89
407.39	1774.13
407.58	1804.55
407.77	1818.60
407.96	1907.54
408.15	1806.89
408.34	1905.20
408.54	1884.13
408.73	1980.09
408.92	1811.57
409.11	1947.33
409.30	1923.92
409.49	1956.69
409.68	1935.62
409.87	1870.09
410.07	1996.48
410.26	2076.06
410.45	2033.93
410.64	2054.99
410.83	2024.56
411.02	2036.27
411.21	2239.89
411.40	2146.27
411.59	2256.28
411.78	2172.02
411.98	2111.16
412.17	2251.60
412.36	2314.79
412.55	2267.98
412.74	2314.79
412.93	2340.54
413.12	2319.47
413.31	2450.54
413.50	2347.56
413.69	2305.43
413.88	2438.84
414.07	2319.47
414.26	2464.58
414.45	2450.54
414.64	2480.97
414.83	2546.50
415.02	2562.89
415.22	2656.51
415.41	2623.74
415.60	2663.53
415.79	2567.57
415.98	2656.51
416.17	2670.55
416.36	2619.06
416.55	2696.30
416.74	2827.37
416.93	2740.77
417.12	2906.95
417.31	2813.32
417.50	2958.44
417.69	2925.67
417.88	2904.60
418.07	2930.35
418.26	2782.90
418.45	2867.16
418.64	3038.02
418.83	2951.42
419.02	2991.20
419.21	3115.25
419.39	3049.72
419.58	3054.40
419.77	2949.08
419.96	3178.45
420.15	3054.40
420.34	3141.00
420.53	3066.10
420.72	3365.69
420.91	3138.66
421.10	3220.58
421.29	3281.43
421.48	3225.26
421.67	3318.88
421.86	3328.24
422.05	3211.22
422.24	3281.43
422.43	3335.26
422.61	3391.44
422.80	3314.20
422.99	3375.05
423.18	3391.44
423.37	3417.18
423.56	3361.01
423.75	3358.67
423.94	3368.03
424.13	3152.70
424.32	3052.06
424.50	3449.95
424.69	3510.80
424.88	3419.52
425.07	3332.92
425.26	3445.27
425.45	3370.37
425.64	3363.35
425.83	3426.54
426.01	3508.46
426.20	3412.50
426.39	3473.36
426.58	3529.53
426.77	3384.41
426.96	3487.40
427.15	3309.52
427.33	3515.48
427.52	3492.08
427.71	3482.72
427.90	3513.14
428.09	3609.11
428.28	3676.98
428.46	3712.09
428.65	3534.21
428.84	3716.77
429.03	3749.54
429.22	3630.17
429.40	3691.02
429.59	3672.30
429.78	3499.10
429.97	3559.95
430.16	3740.18
430.34	3667.62
430.53	3737.84
430.72	4018.70
430.91	3705.07
431.10	3751.88
431.28	3896.99
431.47	3889.97
431.66	4107.64
431.85	3857.20
432.03	3971.89
432.22	3941.46
432.41	4049.13
432.60	4044.45
432.79	4126.36
432.97	3999.98
433.16	4112.32
433.35	4039.76
433.54	4072.53
433.72	4119.34
433.91	4053.81
434.10	4126.36
434.28	4135.73
434.47	4147.43
434.66	4337.01
434.85	4360.42
435.03	4283.18
435.22	4149.77
435.41	4329.99
435.59	4315.95
435.78	4372.12
435.97	4320.63
436.16	4360.42
436.34	4449.36
436.53	4376.80
436.72	4397.87
436.90	4236.37
437.09	4472.76
437.28	4414.25
437.46	4372.12
437.65	4479.79
437.84	4526.60
438.02	4571.07
438.21	4498.51
438.40	4421.27
438.58	4578.09
438.77	4709.16
438.96	4697.46
439.14	4844.91
439.33	4814.48
439.52	4748.95
439.70	4800.44
439.89	4945.55
440.08	5027.47
440.26	4936.19
440.45	4971.30
440.63	5018.11
440.82	5064.92
441.01	4983.00
441.19	5195.99
441.38	5006.41
441.57	5123.43
441.75	5245.14
441.94	5282.59
442.12	5179.61
442.31	5441.75
442.50	5392.59
442.68	5310.68
442.87	5371.53
443.05	5448.77
443.24	5526.00
443.43	5561.11
443.61	5453.45
443.80	5621.97
443.98	5420.68
444.17	5380.89
444.35	5343.44
444.54	5521.32
444.73	5659.42
444.91	5401.96
445.10	5598.56
445.28	5533.03
445.47	5724.95
445.65	5565.79
445.84	5720.27
446.02	5738.99
446.21	5593.88
446.39	5526.00
446.58	5640.69
446.77	5668.78
446.95	5661.76
447.14	5652.39
447.32	5755.38
447.51	5624.31
447.69	5526.00
447.88	5631.33
448.06	5682.82
448.25	5668.78
448.43	5827.93
448.62	5708.57
448.80	5596.22
448.99	5790.49
449.17	5795.17
449.36	5863.04
449.54	5980.07
449.73	5994.11
449.91	6001.13
450.10	6040.92
450.28	6106.46
450.46	6071.35
450.65	5954.32
450.83	5998.79
451.02	6106.46
451.20	6186.04
451.39	6200.08
451.57	6125.18
451.76	6146.25
451.94	6001.13
452.13	6249.23
452.31	6181.35
452.49	6148.59
452.68	6232.85
452.86	6277.32
453.05	6232.85
453.23	6289.02
453.42	6272.64
453.60	6312.42
453.78	6384.98
453.97	6211.78
454.15	6230.51
454.34	6310.08
454.52	6422.43
454.70	6448.18
454.89	6410.73
455.07	6403.71
455.26	6527.75
455.44	6665.85
455.62	6579.25
455.81	6457.54
455.99	6649.46
456.17	6511.37
456.36	6595.63
456.54	6946.71
456.73	6757.13
456.91	7075.44
457.09	6899.90
457.28	7117.57
457.46	6946.71
457.64	6977.14
457.83	7089.48
458.01	6825.00
458.19	7082.46
458.38	6918.62
458.56	7119.91
458.74	7126.93
458.93	7096.50
459.11	7063.74
459.29	7094.16
459.48	7187.79
459.66	7234.60
459.84	7080.12
460.03	7295.45
460.21	7337.58
460.39	7204.17
460.57	7023.95
460.76	7353.96
460.94	7293.11
461.12	7206.51
461.31	7176.08
461.49	7508.44
461.67	7325.88
461.85	7536.52
462.04	7541.21
462.22	8053.78
462.40	7779.94
462.59	7447.58
462.77	7513.12
462.95	7644.19
463.13	7623.12
463.32	7578.65
463.50	7770.58
463.68	7960.16
463.86	7992.93
464.05	7707.38
464.23	7857.18
464.41	8037.40
464.59	7728.45
464.78	8060.80
464.96	7983.57
465.14	7857.18
465.32	7946.12
465.50	7953.14
465.69	8086.55
465.87	8128.68
466.05	7922.71
466.23	7941.44
466.41	8175.49
466.60	8196.56
466.78	8198.90
466.96	7967.18
467.14	7983.57
467.32	8180.17
467.51	8107.62
467.69	7948.46
467.87	8332.31
468.05	8245.71
468.23	8147.40
468.41	8159.11
468.60	8400.18
468.78	8479.76
468.96	8248.05
469.14	8526.57
469.32	8409.54
469.50	8351.03
469.69	8475.08
469.87	8585.08
470.05	8655.30
470.23	8641.26
470.41	8585.08
470.59	8643.60
470.77	8814.46
470.95	8835.52
471.14	8994.68
471.32	8615.51
471.50	8898.72
471.68	9032.13
471.86	8877.65
472.04	9036.81
472.22	9121.07
472.40	9167.88
472.58	9184.26
472.77	9231.07
472.95	9172.56
473.13	9675.77
473.31	9418.32
473.49	9242.78
473.67	9308.31
473.85	9394.91
474.03	9701.52
474.21	9668.75
474.39	9741.31
474.57	9837.27
474.75	9638.33
474.93	9809.19
475.12	9788.12
475.30	10061.96
475.48	9806.84
475.66	9987.07
475.84	9844.29
476.02	10040.90
476.20	10010.47
476.38	10136.86
476.56	10574.54
476.74	10539.43
476.92	10368.57
477.10	10427.09
477.28	10654.12
477.46	10775.83
477.64	10714.97
477.82	10808.59
478.00	10998.18
478.18	11007.54
478.36	11098.82
478.54	11070.73
478.72	11255.64
478.90	11356.28
479.08	11435.86
479.26	11648.85
479.44	11566.93
479.62	11447.56
479.80	11578.63
479.98	11737.79
480.16	12023.33
480.34	11751.83
480.52	12133.34
480.70	12070.14
480.88	11932.05
481.06	12285.47
481.24	12205.89
481.41	12198.87
481.59	12664.64
481.77	12308.88
481.95	12669.32
482.13	12807.41
482.31	12767.62
482.49	13125.72
482.67	13137.43
482.85	13139.77
483.03	13142.11
483.21	13500.21
483.39	13493.19
483.57	13659.37
483.74	13830.23
483.92	13769.37
484.10	13799.80
484.28	14139.18
484.46	14391.95
484.64	14506.64
484.82	14288.97
485.00	14518.34
485.18	14761.76
485.35	14885.81
485.53	14754.74
485.71	15234.55
485.89	15154.97
486.07	15073.05
486.25	15276.68
486.43	15250.93
486.61	15466.26
486.78	15630.10
486.96	15559.88
487.14	15889.90
487.32	16058.42
487.50	16418.86
487.68	16145.02
487.85	16503.12
488.03	16655.25
488.21	16568.65
488.39	16472.69
488.57	16837.81
488.75	16922.07
488.92	17172.51
489.10	17294.22
489.28	17233.36
489.46	17284.86
489.64	17666.36
489.81	17855.95
489.99	18106.38
490.17	17722.54
490.35	18148.51
490.53	18225.75
490.70	18415.34
490.88	18324.05
491.06	18611.94
491.24	18827.27
491.41	18558.11
491.59	18895.14
491.77	18679.82
491.95	19007.49
492.13	19300.06
492.30	19363.25
492.48	19527.09
492.66	19470.92
492.84	19707.31
493.01	19843.06
493.19	19756.46
493.37	20037.33
493.54	20107.54
493.72	20400.11
493.90	20126.27
494.08	20585.01
494.25	20985.24
494.43	20783.96
494.61	21001.63
494.79	20802.68
494.96	20809.70
495.14	21228.66
495.32	21312.92
495.49	21238.02
495.67	21685.06
495.85	21940.18
496.02	21874.65
496.20	22019.76
496.38	22111.04
496.55	22139.13
496.73	22579.15
496.91	22677.45
497.09	22476.16
497.26	22623.62
497.44	22672.77
497.62	22845.97
497.79	23065.98
497.97	22785.12
498.14	23094.07
498.32	23597.28
498.50	23398.34
498.67	23454.51
498.85	23534.09
499.03	23779.84
499.20	23676.86
499.38	23744.73
499.56	24109.86
499.73	23976.45
499.91	23967.09
500.08	24208.16
500.26	24233.91
500.44	23985.81
500.61	24379.02
500.79	24610.73
500.97	24531.15
501.14	24957.13
501.32	24835.42
501.49	24882.24
501.67	24936.07
501.84	25338.64
502.02	25434.60
502.20	25125.65
502.37	25383.11
502.55	25291.83
502.72	25319.92
502.90	25453.33
503.07	25558.65
503.25	25589.08
503.43	25362.04
503.60	25663.97
503.78	25855.90
503.95	26279.54
504.13	26249.11
504.30	26274.85
504.48	25937.82
504.65	26426.99
504.83	26279.54
505.01	26621.25
505.18	26522.95
505.36	26864.67
505.53	26398.90
505.71	27103.40
505.88	27063.61
506.06	26700.83
506.23	27007.44
506.41	27152.55
506.58	27295.33
506.76	27615.98
506.93	27597.26
507.11	27344.48
507.28	27363.20
507.46	27630.02
507.63	27796.20
507.81	28226.86
507.98	27803.22
508.16	27910.89
508.33	28449.21
508.50	28189.41
508.68	28903.28
508.85	28727.74
509.03	28297.08
509.20	28271.33
509.38	29006.26
509.55	28917.32
509.73	28870.51
509.90	28709.01
510.08	29186.48
510.25	29060.09
510.42	29097.54
510.60	29399.47
510.77	29600.76
510.95	29612.46
511.12	29661.61
511.30	29532.88
511.47	29359.68
511.64	29780.98
511.82	29853.53
511.99	30228.02
512.17	29869.92
512.34	30110.99
512.51	30099.29
512.69	30326.32
512.86	30260.79
513.04	30871.67
513.21	30588.46
513.38	30438.67
513.56	30824.86
513.73	30441.01
513.90	31098.70
514.08	30419.94
514.25	31040.18
514.43	30918.48
514.60	30827.20
514.77	31239.13
514.95	31342.11
515.12	31126.78
515.29	31035.50
515.47	31400.63
515.64	31566.81
515.81	31541.06
515.99	31985.76
516.16	31796.18
516.33	31608.93
516.51	32231.52
516.68	31470.84
516.85	32032.57
517.03	32257.26
517.20	32219.81
517.37	32357.91
517.54	32163.64
517.72	32116.83
517.89	32311.10
518.06	32610.68
518.24	32189.39
518.41	32505.36
518.58	32514.72
518.75	32435.14
518.93	32811.97
519.10	32807.29
519.27	32898.57
519.45	33535.20
519.62	33062.41
519.79	33261.35
519.96	33291.78
520.14	33263.69
520.31	33191.14
520.48	33619.46
520.65	33528.17
520.83	33425.19
521.00	34007.98
521.17	33551.58
521.34	33785.63
521.52	33949.47
521.69	34263.10
521.86	34223.31
522.03	34150.76
522.20	34426.94
522.38	34455.03
522.55	34660.99
522.72	34637.59
522.89	34841.21
523.07	34749.93
523.24	34913.77
523.41	34609.50
523.58	34658.65
523.75	35023.78
523.92	35047.18
524.10	34869.30
524.27	35009.73
524.44	34911.43
524.61	35236.77
524.78	35264.85
524.96	35480.18
525.13	35725.94
525.30	35833.60
525.47	36025.53
525.64	35901.48
525.81	35744.66
525.98	35606.57
526.16	35672.10
526.33	35463.80
526.50	36212.77
526.67	36140.21
526.84	35828.92
527.01	35927.22
527.18	36196.38
527.36	36102.76
527.53	35896.80
527.70	36900.89
527.87	36891.52
528.04	36570.87
528.21	36346.18
528.38	36858.76
528.55	36762.79
528.72	37170.05
528.89	36673.85
529.07	36531.08
529.24	36730.03
529.41	37050.68
529.58	37214.52
529.75	36505.34
529.92	37432.19
530.09	37041.32
530.26	37413.46
530.43	37675.60
530.60	37205.16
530.77	37024.93
530.94	37446.23
531.11	37193.45
531.28	37013.23
531.46	37284.73
531.63	37897.95
531.80	37427.51
531.97	37446.23
532.14	37869.87
532.31	37619.43
532.48	37703.69
532.65	38050.09
532.82	37851.14
532.99	38036.05
533.16	38267.76
533.33	37949.45
533.50	38209.25
533.67	38169.46
533.84	38242.01
534.01	38527.56
534.18	38164.78
534.35	38651.61
534.52	38696.08
534.69	38644.59
534.86	38665.65
535.03	38560.33
535.20	38770.97
535.37	38848.21
535.54	39220.36
535.71	38740.55
535.88	39339.72
536.05	38639.90
536.22	39236.74
536.38	39115.03
536.55	39157.16
536.72	38880.98
536.89	39262.49
537.06	39192.27
537.23	39332.70
537.40	39079.92
537.57	39372.49
537.74	39491.86
537.91	39580.80
538.08	39447.39
538.25	39393.56
538.42	39377.17
538.59	39756.34
538.75	39442.71
538.92	39856.98
539.09	39779.74
539.26	39927.20
539.43	39950.60
539.60	39988.05
539.77	39625.27
539.94	40282.96
540.11	40102.74
540.28	39910.82
540.44	40421.05
540.61	40423.39
540.78	40187.00
540.95	40376.58
541.12	40243.17
541.29	40013.80
541.46	40357.86
541.62	40390.62
541.79	40495.95
541.96	40229.13
542.13	40079.33
542.30	40505.31
542.47	40524.04
542.63	41361.95
542.80	41188.75
542.97	41202.79
543.14	40999.16
543.31	40741.71
543.48	40933.63
543.64	41514.08
543.81	41703.67
543.98	41434.50
544.15	41027.25
544.32	41523.44
544.48	41993.89
544.65	41277.69
544.82	41691.96
544.99	41184.07
545.16	41720.05
545.32	41432.16
545.49	41942.40
545.66	42010.28
545.83	41736.43
546.00	42103.90
546.16	41989.21
546.33	41930.70
546.50	41785.58
546.67	42185.82
546.83	41947.08
547.00	42092.19
547.17	41626.43
547.34	42089.85
547.50	42312.20
547.67	42827.12
547.84	42433.91
548.00	41769.20
548.17	42513.49
548.34	42618.81
548.51	42726.48
548.67	42768.61
548.84	42876.27
549.01	42597.75
549.18	42483.06
549.34	43096.28
549.51	42752.23
549.68	43182.88
549.84	42677.33
550.01	43098.62
550.18	42487.74
550.34	42541.58
550.51	42934.79
550.68	43089.26
550.84	43065.86
551.01	43143.09
551.18	42923.08
551.34	43143.09
551.51	42967.55
551.68	42955.85
551.84	43278.85
552.01	43405.23
552.18	43000.32
552.34	42927.77
552.51	43297.57
552.68	43058.84
552.84	43274.16
553.01	43405.23
553.18	43470.77
553.34	43456.73
553.51	43562.05
553.67	44151.87
553.84	43732.91
554.01	43515.24
554.17	43770.36
554.34	43789.08
554.51	44004.41
554.67	43812.49
554.84	43910.79
555.00	43763.34
555.17	44268.89
555.33	44196.34
555.50	43943.56
555.67	44037.18
555.83	44172.93
556.00	44245.49
556.16	44605.93
556.33	43941.22
556.50	44088.67
556.66	44624.65
556.83	44025.48
556.99	44542.74
557.16	44727.64
557.32	44392.94
557.49	44690.19
557.65	44165.91
557.82	44488.90
557.98	44535.71
558.15	44617.63
558.32	44500.61
558.48	44589.55
558.65	44636.36
558.81	44655.08
558.98	44566.14
559.14	44404.64
559.31	44418.69
559.47	44421.03
559.64	44825.94
559.80	45055.31
559.97	45069.36
560.13	44673.81
560.30	44488.90
560.46	45057.65
560.63	45043.61
560.79	45305.75
560.96	45045.95
561.12	44959.35
561.29	44945.31
561.45	45240.21
561.61	44985.10
561.78	44697.21
561.94	44947.65
562.11	45158.30
562.27	44889.13
562.44	45052.97
562.60	45237.87
562.77	45083.40
562.93	45221.49
563.10	45748.11
563.26	45015.52
563.42	45827.69
563.59	45076.38
563.75	45296.39
563.92	45144.25
564.08	45324.47
564.24	45598.32
564.41	45153.62
564.57	45392.35
564.74	45942.38
564.90	45315.11
565.07	45727.05
565.23	45624.06
565.39	45155.96
565.56	45471.93
565.72	45340.86
565.88	45909.61
566.05	45336.18
566.21	45336.18
566.38	45773.86
566.54	45446.18
566.70	45909.61
566.87	45579.59
567.03	46134.30
567.19	45640.45
567.36	45701.30
567.52	45785.56
567.68	45661.51
567.85	45830.03
568.01	45841.73
568.17	45705.98
568.34	46061.74
568.50	45832.37
568.66	45490.65
568.83	45815.99
568.99	46045.36
569.15	45537.46
569.32	45928.33
569.48	46220.90
569.64	46094.51
569.81	45989.19
569.97	46043.02
570.13	46349.63
570.30	45670.87
570.46	45956.42
570.62	46223.24
570.78	46162.39
570.95	45680.24
571.11	46127.28
571.27	46351.97
571.43	46085.15
571.60	46141.32
571.76	45663.85
571.92	46237.28
572.09	45717.68
572.25	45635.77
572.41	46122.60
572.57	46195.15
572.74	46429.21
572.90	46260.69
573.06	46457.29
573.22	46417.50
573.38	46300.48
573.55	46522.83
573.71	46663.26
573.87	46452.61
574.03	46384.74
574.20	46415.16
574.36	46087.49
574.52	46377.72
574.68	46354.31
574.84	46036.00
575.01	46494.74
575.17	46579.00
575.33	46487.72
575.49	46143.66
575.65	46469.00
575.82	46501.76
575.98	46499.42
576.14	46506.44
576.30	46602.41
576.46	46335.59
576.62	46632.83
576.79	46586.02
576.95	46106.21
577.11	46607.09
577.27	46586.02
577.43	46358.99
577.59	46064.08
577.75	46071.10
577.92	46134.30
578.08	46028.98
578.24	46490.06
578.40	46515.81
578.56	46410.48
578.72	46925.40
578.88	46691.35
579.04	46787.31
579.21	46113.23
579.37	46377.72
579.53	46944.12
579.69	46951.15
579.85	46639.86
580.01	46583.68
580.17	46354.31
580.33	46529.85
580.49	46340.27
580.65	46525.17
580.82	46347.29
580.98	46609.43
581.14	46230.26
581.30	46487.72
581.46	46330.90
581.62	46483.04
581.78	46609.43
581.94	46543.89
582.10	46649.22
582.26	46672.62
582.42	46031.32
582.58	46480.70
582.74	46763.90
582.90	46745.18
583.06	46885.61
583.22	46611.77
583.38	46511.13
583.54	46536.87
583.70	46511.13
583.86	46993.28
584.02	46698.37
584.18	47030.72
584.34	46913.70
584.50	46937.10
584.66	46862.21
584.82	46733.48
584.98	46923.06
585.14	47452.02
585.30	46452.61
585.46	47110.30
585.62	46813.05
585.78	46574.32
585.94	46483.04
586.10	46373.03
586.26	46447.93
586.42	46490.06
586.58	46319.20
586.74	46799.01
586.90	46515.81
587.06	46752.20
587.22	46710.07
587.38	46618.79
587.54	46602.41
587.70	47126.69
587.86	46733.48
588.02	46490.06
588.18	46904.34
588.34	46618.79
588.49	47077.54
588.65	46815.40
588.81	46485.38
588.97	46976.89
589.13	46754.54
589.29	47033.07
589.45	46979.23
589.61	46733.48
589.77	47103.28
589.93	46967.53
590.08	47351.38
590.24	47367.76
590.40	47253.08
590.56	47334.99
590.72	47222.65
590.88	46773.27
591.04	47023.70
591.20	47164.14
591.35	47349.04
591.51	47325.63
591.67	47351.38
591.83	47367.76
591.99	47154.77
592.15	47159.45
592.31	47327.97
592.46	47138.39
592.62	47222.65
592.78	47557.35
592.94	47487.13
593.10	47496.49
593.26	47683.73
593.41	47262.44
593.57	47210.95
593.73	47559.69
593.89	47966.94
594.05	48041.84
594.20	47360.74
594.36	47250.74
594.52	47393.51
594.68	47140.73
594.84	47622.88
594.99	47515.22
595.15	47398.19
595.31	47910.77
595.47	47236.69
595.62	47267.12
595.78	47189.88
595.94	47257.76
596.10	47360.74
596.25	47381.80
596.41	47838.21
596.57	47583.09
596.73	47437.98
596.88	47777.36
597.04	47604.16
597.20	47496.49
597.36	47655.65
597.51	47882.68
597.67	47557.35
597.83	47412.23
597.99	47810.12
598.14	47114.98
598.30	47398.19
598.46	47538.62
598.61	47681.39
598.77	47468.40
598.93	47889.70
599.09	47597.13
599.24	48004.39
599.40	47725.86
599.56	47260.10
599.71	47728.20
599.87	48062.90
600.03	47814.80
600.18	47597.13
600.34	47555.00
600.50	47526.92
600.65	47416.91
600.81	47796.08
600.97	47938.85
601.12	47634.58
601.28	47863.96
601.44	47746.93
601.59	47650.97
601.75	47276.48
601.91	47702.46
602.06	47739.91
602.22	47838.21
602.37	47337.33
602.53	48027.79
602.69	47924.81
602.84	47571.39
603.00	47318.61
603.16	47566.71
603.31	47875.66
603.47	47798.42
603.62	47643.94
603.78	48004.39
603.94	47873.32
604.09	47356.06
604.25	47267.12
604.40	47608.84
604.56	47501.17
604.71	47793.74
604.87	47779.70
605.03	47800.76
605.18	47728.20
605.34	47711.82
605.49	47463.72
605.65	47767.99
605.80	47433.30
605.96	47597.13
606.12	47463.72
606.27	47847.57
606.43	47199.24
606.58	47714.16
606.74	47543.30
606.89	47805.44
607.05	47482.45
607.20	47601.82
607.36	48027.79
607.51	47442.66
607.67	47524.58
607.82	47386.49
607.98	47519.90
608.13	47363.08
608.29	47435.64
608.44	47374.78
608.60	47084.56
608.75	47573.73
608.91	47676.71
609.06	47320.95
609.22	47524.58
609.37	47100.94
609.53	47236.69
609.68	47910.77
609.84	47257.76
609.99	47662.67
610.15	47793.74
610.30	47372.44
610.46	47475.43
610.61	46932.42
610.76	47419.25
610.92	47344.36
611.07	46803.69
611.23	46909.02
611.38	47295.21
611.54	47201.58
611.69	47311.59
611.84	47482.45
612.00	46948.81
612.15	46813.05
612.31	47374.78
612.46	46902.00
612.62	46791.99
612.77	47138.39
612.92	47281.16
613.08	47023.70
613.23	47496.49
613.39	46923.06
613.54	46958.17
613.69	47239.03
613.85	47206.26
614.00	47077.54
614.15	46925.40
614.31	46916.04
614.46	47129.03
614.62	47065.83
614.77	47086.90
614.92	46927.74
615.08	46670.28
615.23	47332.65
615.38	46859.87
615.54	47070.51
615.69	46976.89
615.84	46703.05
616.00	47356.06
616.15	46843.48
616.30	46546.23
616.46	47224.99
616.61	46920.72
616.76	46850.50
616.92	46548.57
617.07	46859.87
617.22	47185.20
617.37	46312.18
617.53	46749.86
617.68	46431.55
617.83	46347.29
617.99	46911.36
618.14	46955.83
618.29	46644.54
618.45	46564.96
618.60	46515.81
618.75	46005.57
618.90	46450.27
619.06	46466.66
619.21	46143.66
619.36	46611.77
619.51	46167.07
619.67	46080.47
619.82	46548.57
619.97	46508.79
620.12	46335.59
620.28	46195.15
620.43	46314.52
620.58	46038.34
620.73	46438.57
620.89	46323.88
621.04	46527.51
621.19	46681.98
621.34	46457.29
621.49	46258.35
621.65	46153.02
621.80	46204.52
621.95	46487.72
622.10	46146.00
622.25	46216.22
622.41	46227.92
622.56	45963.44
622.71	45911.95
622.86	46021.95
623.01	46061.74
623.16	45986.85
623.32	45940.04
623.47	46085.15
623.62	45942.38
623.77	45862.80
623.92	45588.95
624.07	45963.44
624.23	45514.06
624.38	45525.76
624.53	45862.80
624.68	45937.69
624.83	45394.69
624.98	45619.38
625.13	45635.77
625.29	45221.49
625.44	45357.24
625.59	45696.62
625.74	45556.19
625.89	45457.88
626.04	45668.53
626.19	45418.10
626.34	45027.23
626.49	45088.08
626.65	45277.66
626.80	45013.18
626.95	45418.10
627.10	45074.04
627.25	45179.36
627.40	45081.06
627.55	45411.07
627.70	45081.06
627.85	45474.27
628.00	45378.31
628.15	45160.64
628.30	44893.82
628.45	44889.13
628.60	44708.91
628.76	44809.56
628.91	45104.46
629.06	44343.79
629.21	44453.79
629.36	44701.89
629.51	44669.12
629.66	45174.68
629.81	44610.61
629.96	44928.92
630.11	44854.03
630.26	44481.88
630.41	44697.21
630.56	44844.66
630.71	45104.46
630.86	44507.63
631.01	44540.39
631.16	44027.82
631.31	44037.18
631.46	44430.39
631.61	44971.05
631.76	44521.67
631.91	44704.23
632.06	44835.30
632.21	44933.60
632.36	44568.48
632.51	44091.01
632.66	44701.89
632.81	44545.08
632.96	44123.78
633.10	44299.32
633.25	44170.59
633.40	44521.67
633.55	44858.71
633.70	44484.22
633.85	44376.56
634.00	44411.67
634.15	43899.09
634.30	44058.24
634.45	44514.65
634.60	44311.02
634.75	44329.75
634.90	44163.57
635.05	44137.82
635.19	44304.00
635.34	44002.07
635.49	43480.13
635.64	44051.22
635.79	44598.91
635.94	43983.35
636.09	44224.42
636.24	44304.00
636.39	44023.14
636.53	44149.53
636.68	43576.09
636.83	43548.01
636.98	44065.27
637.13	43536.30
637.28	43166.50
637.43	43585.46
637.57	43765.68
637.72	43416.94
637.87	43552.69
638.02	43519.92
638.17	43601.84
638.32	43559.71
638.46	43688.44
638.61	43405.23
638.76	43007.34
638.91	43358.42
639.06	43318.64
639.20	43283.53
639.35	43171.18
639.50	42419.87
639.65	43232.04
639.80	43093.94
639.94	43559.71
640.09	43524.60
640.24	43337.36
640.39	42766.27
640.54	43072.88
640.68	42983.94
640.83	43103.31
640.98	43393.53
641.13	42761.59
641.27	43505.88
641.42	42754.57
641.57	42852.87
641.72	43281.19
641.86	42637.54
642.01	42918.40
642.16	42768.61
642.31	42602.43
642.45	42822.44
642.60	42298.16
642.75	42904.36
642.90	43154.80
643.04	42473.70
643.19	42979.26
643.34	42323.91
643.48	42234.97
643.63	42562.64
643.78	42024.32
643.93	42618.81
644.07	42742.86
644.22	42206.88
644.37	42354.33
644.51	42761.59
644.66	42555.62
644.81	42305.18
644.95	42431.57
645.10	42274.76
645.25	42373.06
645.39	41965.81
645.54	42239.65
645.69	42075.81
645.83	41804.31
645.98	42075.81
646.13	42227.95
646.27	41794.95
646.42	41570.25
646.57	42335.61
646.71	42167.09
646.86	42274.76
647.00	42005.59
647.15	42150.71
647.30	42183.48
647.44	42089.85
647.59	41982.19
647.74	41750.48
647.88	41979.85
648.03	41881.55
648.17	42183.48
648.32	42564.98
648.47	41989.21
648.61	41970.49
648.76	41359.61
648.90	42110.92
649.05	41621.75
649.20	41979.85
649.34	41666.22
649.49	41764.52
649.63	41869.84
649.78	41839.42
649.92	41827.71
650.07	41928.36
650.21	41904.95
650.36	41834.74
650.51	41305.77
650.65	41830.05
650.80	42382.42
650.94	41418.12
651.09	41530.47
651.23	41596.00
651.38	41294.07
651.52	41441.53
651.67	40973.42
651.81	41141.94
651.96	41612.38
652.10	41106.83
652.25	41120.87
652.39	41411.10
652.54	41174.70
652.68	40886.82
652.83	41137.26
652.97	41282.37
653.12	41486.00
653.26	41031.93
653.41	40926.61
653.55	41174.70
653.70	41338.54
653.84	41024.91
653.99	41137.26
654.13	40928.95
654.27	40847.03
654.42	41055.34
654.56	40708.94
654.71	40982.78
654.85	40968.74
655.00	40942.99
655.14	40573.19
655.29	41315.14
655.43	41048.32
655.57	40601.27
655.72	40620.00
655.86	40828.30
656.01	40575.53
656.15	40388.28
656.30	40687.87
656.44	40847.03
656.58	40577.87
656.73	40545.10
656.87	39997.41
657.01	40123.80
657.16	40430.41
657.30	40481.91
657.45	40170.61
657.59	40098.06
657.73	40194.02
657.88	40418.71
658.02	40243.17
658.16	40444.46
658.31	40439.78
658.45	40325.09
658.60	39959.97
658.74	40374.24
658.88	40002.10
659.03	39927.20
659.17	39559.73
659.31	39749.32
659.46	39587.82
659.60	39620.59
659.74	39716.55
659.89	39295.25
660.03	39321.00
660.17	39398.24
660.32	39405.26
660.46	39124.40
660.60	39594.84
660.74	39388.88
660.89	39323.34
661.03	38969.92
661.17	39187.59
661.32	39068.22
661.46	39168.87
661.60	38866.94
661.74	39168.87
661.89	39208.65
662.03	38803.74
662.17	38646.93
662.31	38913.75
662.46	38981.62
662.60	38459.68
662.74	37841.78
662.88	38307.55
663.03	38363.72
663.17	38525.22
663.31	37900.29
663.45	38415.21
663.60	38902.04
663.74	38560.33
663.88	38092.22
664.02	38089.88
664.17	38663.31
664.31	37823.06
664.45	37968.17
664.59	37961.15
664.73	38143.71
664.88	38113.28
665.02	37560.92
665.16	37970.51
665.30	37865.19
665.44	37827.74
665.59	37104.51
665.73	37617.09
665.87	36947.70
666.01	37811.35
666.15	37350.27
666.29	37331.54
666.44	37261.33
666.58	37720.07
666.72	37528.15
666.86	37118.56
667.00	36935.99
667.14	36975.78
667.28	37010.89
667.43	37193.45
667.57	36870.46
667.71	36933.65
667.85	37188.77
667.99	37057.70
668.13	36362.56
668.27	36383.63
668.41	36465.55
668.56	36205.75
668.70	36491.29
668.84	36348.52
668.98	35857.01
669.12	36505.34
669.26	36395.33
669.40	36416.40
669.54	35983.40
669.68	36381.29
669.82	35716.58
669.96	35585.50
670.10	35409.96
670.25	35913.18
670.39	35508.27
670.53	35690.83
670.67	35948.29
670.81	35971.69
670.95	35594.87
671.09	35246.13
671.23	35056.54
671.37	35115.06
671.51	35189.95
671.65	35318.68
671.79	34775.68
671.93	35185.27
672.07	35306.98
672.21	34560.35
672.35	34429.28
672.49	34609.50
672.63	34941.86
672.77	34455.03
672.91	34780.36
673.05	34518.22
673.19	33940.11
673.33	34162.46
673.47	34340.34
673.61	33914.36
673.75	33734.14
673.89	33839.47
674.03	33684.99
674.17	33968.19
674.31	33401.79
674.45	33340.93
674.59	33469.66
674.73	33380.72
674.87	33240.29
675.01	33090.49
675.15	32776.86
675.29	32699.62
675.43	32772.18
675.56	32861.12
675.70	32872.82
675.84	32973.47
675.98	31667.45
676.12	32877.51
676.26	32781.54
676.40	32456.21
676.54	32268.97
676.68	32505.36
676.82	31756.39
676.96	32198.75
677.10	32311.10
677.23	32144.92
677.37	32198.75
677.51	31842.99
677.65	31714.26
677.79	31534.04
677.93	31721.28
678.07	31447.44
678.21	31091.68
678.34	31218.07
678.48	30913.80
678.62	30822.51
678.76	30731.23
678.90	30728.89
679.04	30569.74
679.18	31145.51
679.31	30752.30
679.45	30087.59
679.59	30223.34
679.73	30157.80
679.87	30010.35
680.00	30022.05
680.14	30244.40
680.28	30125.04
680.42	29701.40
680.56	29575.01
680.70	29687.36
680.83	29333.93
680.97	29230.95
681.11	29277.76
681.25	29062.43
681.39	28531.13
681.52	29095.20
681.66	28919.66
681.80	28182.39
681.94	28278.35
682.07	28229.20
682.21	28163.67
682.35	28034.94
682.49	28444.53
682.62	28081.75
682.76	28194.09
682.90	28276.01
683.04	28114.52
683.17	27580.87
683.31	28107.49
683.45	27395.97
683.59	27358.52
683.72	27276.60
683.86	27421.72
684.00	27339.80
684.13	27225.11
684.27	26981.70
684.41	26909.14
684.55	26834.24
684.68	26829.56
684.82	26593.17
684.96	26506.57
685.09	26569.76
685.23	26448.05
685.37	27058.93
685.50	26817.86
685.64	26501.89
685.78	26504.23
685.91	25862.92
686.05	25537.59
686.19	25139.69
686.32	25490.77
686.46	25022.67
686.60	25008.62
686.73	25252.04
686.87	25696.74
687.01	25287.15
687.14	25179.48
687.28	24858.83
687.42	25502.48
687.55	24826.06
687.69	24671.59
687.82	24582.65
687.96	24730.10
688.10	24524.13
688.23	24545.20
688.37	24198.80
688.50	24531.15
688.64	24229.23
688.78	24173.05
688.91	23894.53
689.05	24084.11
689.18	23737.71
689.32	23183.01
689.46	23145.56
689.59	23421.74
689.73	23398.34
689.86	23644.09
690.00	23538.77
690.13	23168.96
690.27	23337.48
690.41	23293.01
690.54	22429.35
690.68	22796.82
690.81	22630.64
690.95	22525.32
691.08	22522.98
691.22	22321.69
691.35	22242.11
691.49	22349.78
691.62	22314.67
691.76	21994.01
691.89	21692.08
692.03	21181.85
692.16	21481.44
692.30	21561.02
692.43	21371.43
692.57	21247.38
692.70	21432.29
692.84	20800.34
692.97	21053.12
693.11	20957.16
693.24	21099.93
693.38	20858.85
693.51	20748.85
693.65	20957.16
693.78	20577.99
693.92	20147.33
694.05	20379.04
694.19	20173.08
694.32	20367.34
694.45	20582.67
694.59	20187.12
694.72	20255.00
694.86	20240.95
694.99	19754.12
695.13	19704.97
695.26	19431.13
695.39	19452.19
695.53	19501.34
695.66	19421.77
695.80	19124.52
695.93	19246.23
696.07	19213.46
696.20	18967.70
696.33	18635.35
696.47	18614.28
696.60	18593.22
696.73	19112.81
696.87	18501.93
697.00	18513.64
697.14	18572.15
697.27	18146.17
697.40	18216.39
697.54	18328.74
697.67	17855.95
697.80	18216.39
697.94	18146.17
698.07	18150.85
698.21	17774.03
698.34	17790.41
698.47	17481.46
698.61	17179.53
698.74	17259.11
698.87	17177.19
699.01	17209.96
699.14	17235.70
699.27	16917.39
699.40	16730.15
699.54	17001.65
699.67	16933.78
699.80	17240.39
699.94	16732.49
700.07	16966.54
700.20	16706.74
700.34	16432.90
700.47	16479.71
700.60	16549.93
700.73	16315.87
700.87	16301.83
701.00	16341.62
701.13	15976.50
701.26	15880.53
701.40	15915.64
701.53	15779.89
701.66	15936.71
701.79	15709.68
701.93	15447.54
702.06	15330.51
702.19	15213.48
702.32	15424.13
702.46	15316.47
702.59	15440.51
702.72	15566.90
702.85	15239.23
702.99	15028.58
703.12	14881.13
703.25	14972.41
703.38	14829.63
703.51	14773.46
703.65	14682.18
703.78	14459.83
703.91	14391.95
704.04	14403.66
704.17	14312.38
704.31	14064.28
704.44	13954.27
704.57	14232.80
704.70	13982.36
704.83	13862.99
704.96	13827.88
705.10	13965.98
705.23	13568.09
>>>>>End Processed Spectral Data<<<<<
