SpectraSuite Data File
++++++++++++++++++++++++++++++++++++
Date: Fri Oct 25 10:48:02 EDT 2013
User: price-jones
Dark Spectrum Present: No
Reference Spectrum Present: No
Number of Sampled Component Spectra: 1
Spectrometers: USB2+H05261
Integration Time (usec): 100000 (USB2+H05261)
Spectra Averaged: 1 (USB2+H05261)
Boxcar Smoothing: 0 (USB2+H05261)
Correct for Electrical Dark: No (USB2+H05261)
Strobe/Lamp Enabled: No (USB2+H05261)
Correct for Detector Non-linearity: No (USB2+H05261)
Correct for Stray Light: No (USB2+H05261)
Number of Pixels in Processed Spectrum: 2048
>>>>>Begin Processed Spectral Data<<<<<
365.73	187.24
365.92	187.24
366.12	187.24
366.32	9.36
366.52	60.85
366.72	88.94
366.91	0.00
367.11	102.98
367.31	53.83
367.51	72.56
367.70	44.47
367.90	42.13
368.10	21.06
368.30	51.49
368.49	58.51
368.69	51.49
368.89	91.28
369.09	2.34
369.28	102.98
369.48	93.62
369.68	30.43
369.87	140.43
370.07	133.41
370.27	138.09
370.47	110.01
370.66	442.36
370.86	454.06
371.06	456.40
371.25	442.36
371.45	444.70
371.65	421.30
371.84	458.74
372.04	484.49
372.24	486.83
372.44	505.56
372.63	526.62
372.83	519.60
373.03	442.36
373.22	458.74
373.42	540.66
373.62	454.06
373.81	545.34
374.01	636.63
374.21	531.30
374.40	463.43
374.60	547.69
374.79	603.86
374.99	594.50
375.19	587.47
375.38	505.56
375.58	603.86
375.78	571.09
375.97	557.05
376.17	552.37
376.37	521.94
376.56	631.94
376.76	557.05
376.95	547.69
377.15	578.11
377.35	622.58
377.54	624.92
377.74	599.18
377.93	587.47
378.13	613.22
378.33	575.77
378.52	545.34
378.72	671.73
378.91	512.58
379.11	575.77
379.31	582.79
379.50	582.79
379.70	678.76
379.89	699.82
380.09	660.03
380.28	653.01
380.48	613.22
380.68	657.69
380.87	641.31
381.07	704.50
381.26	641.31
381.46	683.44
381.65	655.35
381.85	575.77
382.04	631.94
382.24	657.69
382.43	767.70
382.63	695.14
382.83	624.92
383.02	662.37
383.22	760.67
383.41	702.16
383.61	667.05
383.80	734.93
384.00	732.59
384.19	748.97
384.39	779.40
384.58	746.63
384.78	784.08
384.97	671.73
385.17	763.01
385.36	772.38
385.56	770.04
385.75	744.29
385.95	748.97
386.14	870.68
386.34	784.08
386.53	851.96
386.72	763.01
386.92	819.19
387.11	772.38
387.31	816.85
387.50	856.64
387.70	753.65
387.89	800.46
388.09	777.06
388.28	863.66
388.48	791.10
388.67	837.91
388.86	786.42
389.06	781.74
389.25	938.55
389.45	849.61
389.64	954.94
389.84	950.26
390.03	901.11
390.22	889.40
390.42	847.27
390.61	926.85
390.81	950.26
391.00	940.90
391.19	973.66
391.39	1006.43
391.58	985.37
391.78	990.05
391.97	968.98
392.16	940.90
392.36	1011.11
392.55	1004.09
392.75	908.13
392.94	917.49
393.13	938.55
393.33	1022.81
393.52	985.37
393.71	1078.99
393.91	1011.11
394.10	1076.65
394.29	1032.18
394.49	1067.28
394.68	1036.86
394.88	1008.77
395.07	1090.69
395.26	1076.65
395.46	1090.69
395.65	1146.86
395.84	1074.31
396.04	1086.01
396.23	1198.35
396.42	1116.44
396.62	1158.57
396.81	1163.25
397.00	1186.65
397.19	1186.65
397.39	1303.68
397.58	1231.12
397.77	1217.08
397.97	1179.63
398.16	1280.27
398.35	1270.91
398.55	1308.36
398.74	1273.25
398.93	1289.64
399.12	1390.28
399.32	1289.64
399.51	1256.87
399.70	1341.13
399.90	1322.40
400.09	1401.98
400.28	1416.02
400.47	1352.83
400.67	1404.32
400.86	1345.81
401.05	1458.15
401.24	1343.47
401.44	1488.58
401.63	1378.58
401.82	1441.77
402.01	1427.73
402.21	1425.39
402.40	1593.90
402.59	1495.60
402.78	1535.39
402.97	1530.71
403.17	1577.52
403.36	1666.46
403.55	1540.07
403.74	1568.16
403.93	1558.80
404.13	1638.38
404.32	1629.01
404.51	1540.07
404.70	1645.40
404.89	1713.27
405.09	1703.91
405.28	1671.14
405.47	1631.35
405.66	1776.47
405.85	1687.53
406.05	1753.06
406.24	1746.04
406.43	1739.02
406.62	1767.10
406.81	1799.87
407.00	1806.89
407.20	1842.00
407.39	1839.66
407.58	1928.60
407.77	1792.85
407.96	1902.86
408.15	2015.20
408.34	1872.43
408.54	2043.29
408.73	1984.77
408.92	1928.60
409.11	1891.15
409.30	1975.41
409.49	1921.58
409.68	2010.52
409.87	1984.77
410.07	2008.18
410.26	2143.93
410.45	2054.99
410.64	2113.50
410.83	2120.53
411.02	2228.19
411.21	2263.30
411.40	2286.70
411.59	2207.13
411.78	2232.87
411.98	2296.07
412.17	2352.24
412.36	2230.53
412.55	2328.83
412.74	2331.17
412.93	2455.22
413.12	2328.83
413.31	2530.12
413.50	2480.97
413.69	2509.05
413.88	2626.08
414.07	2532.46
414.26	2595.65
414.45	2518.42
414.64	2583.95
414.83	2630.76
415.02	2689.28
415.22	2698.64
415.41	2794.60
415.60	2689.28
415.79	2818.00
415.98	2850.77
416.17	2740.77
416.36	2710.34
416.55	2885.88
416.74	2782.90
416.93	2703.32
417.12	3070.78
417.31	2956.10
417.50	2818.00
417.69	2883.54
417.88	2981.84
418.07	2949.08
418.26	3084.83
418.45	2944.39
418.64	3157.38
418.83	3075.46
419.02	3026.31
419.21	3141.00
419.39	3117.59
419.58	3028.65
419.77	3148.02
419.96	3234.62
420.15	3269.73
420.34	3222.92
420.53	3185.47
420.72	3157.38
420.91	3377.39
421.10	3288.45
421.29	3344.63
421.48	3171.43
421.67	3332.92
421.86	3288.45
422.05	3283.77
422.24	3316.54
422.43	3276.75
422.61	3503.78
422.80	3386.76
422.99	3431.23
423.18	3410.16
423.37	3447.61
423.56	3332.92
423.75	3482.72
423.94	3414.84
424.13	3187.81
424.32	3288.45
424.50	3508.46
424.69	3391.44
424.88	3557.61
425.07	3396.12
425.26	3517.83
425.45	3475.70
425.64	3489.74
425.83	3524.85
426.01	3492.08
426.20	3562.30
426.39	3630.17
426.58	3447.61
426.77	3595.06
426.96	3597.40
427.15	3485.06
427.33	3522.51
427.52	3669.96
427.71	3854.86
427.90	3674.64
428.09	3606.77
428.28	3707.41
428.46	3627.83
428.65	3620.81
428.84	3838.48
429.03	3918.06
429.22	3768.26
429.40	3786.99
429.59	3819.75
429.78	3641.87
429.97	3538.89
430.16	3637.19
430.34	3812.73
430.53	3911.04
430.72	3798.69
430.91	3878.27
431.10	3829.12
431.28	4095.94
431.47	4067.85
431.66	4086.58
431.85	4117.00
432.03	4079.55
432.22	4250.41
432.41	4105.30
432.60	4222.33
432.79	4067.85
432.97	4173.18
433.16	4217.65
433.35	4126.36
433.54	4250.41
433.72	4315.95
433.91	4283.18
434.10	4121.68
434.28	4304.25
434.47	4241.05
434.66	4297.22
434.85	4236.37
435.03	4432.97
435.22	4341.69
435.41	4442.34
435.59	4442.34
435.78	4388.50
435.97	4557.02
436.16	4507.87
436.34	4641.28
436.53	4580.43
436.72	4566.39
436.90	4498.51
437.09	4510.21
437.28	4362.76
437.46	4573.41
437.65	4617.88
437.84	4655.33
438.02	4566.39
438.21	4620.22
438.40	4486.81
438.58	4856.61
438.77	4865.97
438.96	4521.92
439.14	4983.00
439.33	4903.42
439.52	5027.47
439.70	4999.38
439.89	4985.34
440.08	5008.75
440.26	5107.05
440.45	5151.52
440.63	5163.22
440.82	5228.76
441.01	5203.01
441.19	5448.77
441.38	5432.38
441.57	5483.88
441.75	5338.76
441.94	5518.98
442.12	5633.67
442.31	5544.73
442.50	5472.17
442.68	5584.52
442.87	5549.41
443.05	5788.14
443.24	5621.97
443.43	5694.52
443.61	5799.85
443.80	5856.02
443.98	5570.48
444.17	5488.56
444.35	5666.44
444.54	5837.30
444.73	5799.85
444.91	5764.74
445.10	5788.14
445.28	5617.29
445.47	5839.64
445.65	5696.86
445.84	5734.31
446.02	5996.45
446.21	5657.07
446.39	5720.27
446.58	5849.00
446.77	5947.30
446.95	5654.73
447.14	5970.71
447.32	5853.68
447.51	5797.51
447.69	5973.05
447.88	5884.11
448.06	5919.21
448.25	6012.84
448.43	5944.96
448.62	5837.30
448.80	5898.15
448.99	6005.81
449.17	6015.18
449.36	5830.27
449.54	6012.84
449.73	6097.10
449.91	6129.86
450.10	6202.42
450.28	6291.36
450.46	6284.34
450.65	6331.15
450.83	6338.17
451.02	6249.23
451.20	6487.96
451.39	6406.05
451.57	6340.51
451.76	6253.91
451.94	6401.37
452.13	6448.18
452.31	6443.49
452.49	6319.45
452.68	6312.42
452.86	6443.49
453.05	6408.39
453.23	6633.08
453.42	6464.56
453.60	6443.49
453.78	6331.15
453.97	6417.75
454.15	6558.18
454.34	6410.73
454.52	6686.91
454.70	6558.18
454.89	6686.91
455.07	6715.00
455.26	6750.10
455.44	6862.45
455.62	6803.94
455.81	6633.08
455.99	6876.49
456.17	6977.14
456.36	6958.41
456.54	6909.26
456.73	6979.48
456.91	7194.81
457.09	7248.64
457.28	7194.81
457.46	6953.73
457.64	7307.15
457.83	7119.91
458.01	7009.90
458.19	7265.02
458.38	7260.34
458.56	7332.90
458.74	7307.15
458.93	7112.89
459.11	7279.07
459.29	7419.50
459.48	7435.88
459.66	7517.80
459.84	7351.62
460.03	7592.70
460.21	7536.52
460.39	7501.42
460.57	7449.93
460.76	7625.47
460.94	7578.65
461.12	7602.06
461.31	7889.95
461.49	7592.70
461.67	7564.61
461.85	7943.78
462.04	7667.60
462.22	8161.45
462.40	7964.84
462.59	7786.96
462.77	7943.78
462.95	8030.38
463.13	7737.81
463.32	7913.35
463.50	8294.86
463.68	7892.29
463.86	8035.06
464.05	7985.91
464.23	7838.45
464.41	8065.49
464.59	7985.91
464.78	8140.38
464.96	8065.49
465.14	7765.90
465.32	8187.19
465.50	8259.75
465.69	8365.07
465.87	8322.94
466.05	8226.98
466.23	8269.11
466.41	8416.57
466.60	8578.06
466.78	8250.39
466.96	8329.97
467.14	8201.24
467.32	8390.82
467.51	8442.31
467.69	8238.69
467.87	8463.38
468.05	8482.10
468.23	8276.13
468.41	8596.79
468.60	8374.44
468.78	8468.06
468.96	8425.93
469.14	8706.79
469.32	8723.18
469.50	8613.17
469.69	8690.41
469.87	8851.91
470.05	8891.70
470.23	8819.14
470.41	8676.37
470.59	8884.67
470.77	8744.24
470.95	8816.80
471.14	8971.27
471.32	8959.57
471.50	9078.94
471.68	9036.81
471.86	9284.91
472.04	9076.60
472.22	9451.08
472.40	9107.02
472.58	9270.86
472.77	9373.85
472.95	9432.36
473.13	9734.29
473.31	9554.07
473.49	9462.79
473.67	9462.79
473.85	9575.13
474.03	9900.47
474.21	9734.29
474.39	9795.14
474.57	9860.68
474.75	9919.19
474.93	9867.70
475.12	9813.87
475.30	10003.45
475.48	10143.88
475.66	10167.29
475.84	10031.54
476.02	10314.74
476.20	10237.50
476.38	10462.19
476.56	10506.66
476.74	10647.10
476.92	10532.41
477.10	10352.19
477.28	10782.85
477.46	10700.93
477.64	10836.68
477.82	10824.98
478.00	11353.94
478.18	11300.11
478.36	11260.32
478.54	11293.08
478.72	11356.28
478.90	11398.41
479.08	11716.72
479.26	11658.21
479.44	11599.70
479.62	12056.10
479.80	11969.50
479.98	12070.14
480.16	12217.60
480.34	11985.88
480.52	12318.24
480.70	12409.52
480.88	12042.06
481.06	12496.12
481.24	12549.95
481.41	12510.16
481.59	13069.55
481.77	13032.10
481.95	13118.70
482.13	12957.21
482.31	13013.38
482.49	13462.76
482.67	13193.60
482.85	13394.89
483.03	13558.72
483.21	13750.65
483.39	13867.67
483.57	13785.76
483.74	13973.00
483.92	13769.37
484.10	14101.73
484.28	13989.38
484.46	14455.15
484.64	14752.40
484.82	14544.09
485.00	14764.10
485.18	14874.10
485.35	15054.33
485.53	15056.67
485.71	14836.66
485.89	15133.90
486.07	14782.82
486.25	15272.00
486.43	15304.76
486.61	15391.36
486.78	15627.76
486.96	15690.95
487.14	15906.28
487.32	16332.26
487.50	15953.09
487.68	16383.75
487.85	16500.78
488.03	16788.66
488.21	16835.47
488.39	16835.47
488.57	17137.40
488.75	17214.64
488.92	17071.87
489.10	17418.27
489.28	17500.19
489.46	17895.74
489.64	17589.13
489.81	17923.82
489.99	18143.83
490.17	18087.66
490.35	18310.01
490.53	18352.14
490.70	18429.38
490.88	18366.18
491.06	18925.57
491.24	18696.20
491.41	18750.03
491.59	19094.09
491.77	19089.41
491.95	19197.07
492.13	19274.31
492.30	19709.65
492.48	19515.39
492.66	19634.75
492.84	19604.33
493.01	19786.89
493.19	19962.43
493.37	20093.50
493.54	20383.73
493.72	20535.86
493.90	20697.36
494.08	20570.97
494.25	20877.58
494.43	21205.25
494.61	20982.90
494.79	21097.59
494.96	20900.98
495.14	21296.53
495.32	21341.00
495.49	21546.97
495.67	21509.52
495.85	21717.83
496.02	22078.27
496.20	22080.61
496.38	22082.95
496.55	22239.77
496.73	22689.15
496.91	22045.51
497.09	22581.49
497.26	22883.42
497.44	22703.20
497.62	22654.05
497.79	23225.14
497.97	22820.22
498.14	23175.98
498.32	23222.80
498.50	23330.46
498.67	23510.68
498.85	23639.41
499.03	23950.70
499.20	23695.58
499.38	23964.75
499.56	24044.32
499.73	24362.64
499.91	24049.00
500.08	24432.85
500.26	24364.98
500.44	24149.65
500.61	24573.28
500.79	24217.52
500.97	24762.87
501.14	24737.12
501.32	24795.64
501.49	24879.89
501.67	25144.38
501.84	25008.62
502.02	25151.40
502.20	25589.08
502.37	25656.95
502.55	25514.18
502.72	25535.24
502.90	25804.41
503.07	25818.45
503.25	25624.18
503.43	25556.31
503.60	25675.68
503.78	26092.29
503.95	25898.03
504.13	26185.91
504.30	26249.11
504.48	26033.78
504.65	26473.80
504.83	26373.16
505.01	26698.49
505.18	26806.16
505.36	27040.21
505.53	26944.25
505.71	27063.61
505.88	27342.14
506.06	26789.77
506.23	26953.61
506.41	26939.57
506.58	27452.14
506.76	27718.96
506.93	27466.19
507.11	27513.00
507.28	27672.15
507.46	27601.94
507.63	27587.89
507.81	27796.20
507.98	27885.14
508.16	27962.38
508.33	28116.86
508.50	28112.17
508.68	28350.91
508.85	28397.72
509.03	28376.66
509.20	28304.10
509.38	28819.02
509.55	28718.37
509.73	28751.14
509.90	28943.06
510.08	28650.50
510.25	29055.41
510.42	29167.76
510.60	29242.65
510.77	29366.70
510.95	29610.12
511.12	29242.65
511.30	29371.38
511.47	30026.73
511.64	29823.11
511.82	29830.13
511.99	29624.16
512.17	29823.11
512.34	29942.47
512.51	29663.95
512.69	30078.22
512.86	30277.17
513.04	30249.08
513.21	30373.13
513.38	30349.73
513.56	30291.21
513.73	30286.53
513.90	30087.59
514.08	30733.57
514.25	30525.27
514.43	30632.93
514.60	30529.95
514.77	30897.41
514.95	31005.08
515.12	30562.72
515.29	31161.89
515.47	31585.53
515.64	31161.89
515.81	31391.26
515.99	31140.83
516.16	31508.29
516.33	31620.64
516.51	31505.95
516.68	31124.44
516.85	31042.53
517.03	31826.60
517.20	31377.22
517.37	31824.26
517.54	32112.15
517.72	31842.99
517.89	31388.92
518.06	31817.24
518.24	31784.48
518.41	31754.05
518.58	31990.44
518.75	32278.33
518.93	32697.28
519.10	32154.28
519.27	32390.67
519.45	32418.76
519.62	32783.88
519.79	32877.51
519.96	33235.61
520.14	33378.38
520.31	33024.96
520.48	33151.35
520.65	32783.88
520.83	33429.87
521.00	33198.16
521.17	32982.83
521.34	33359.66
521.52	33467.32
521.69	33921.38
521.86	33844.15
522.03	33645.20
522.20	33954.15
522.38	33954.15
522.55	34059.48
522.72	33855.85
522.89	33998.62
523.07	34085.22
523.24	33778.61
523.41	34433.96
523.58	34129.69
523.75	34658.65
523.92	34167.14
524.10	34698.44
524.27	34370.77
524.44	34607.16
524.61	34621.20
524.78	34759.30
524.96	34745.25
525.13	35246.13
525.30	34843.56
525.47	35274.21
525.64	34913.77
525.81	35122.08
525.98	35283.58
526.16	35154.85
526.33	35072.93
526.50	35576.14
526.67	34932.50
526.84	35651.04
527.01	34806.11
527.18	35129.10
527.36	35655.72
527.53	35590.19
527.70	36175.32
527.87	35826.58
528.04	35704.87
528.21	35775.09
528.38	35674.45
528.55	35842.96
528.72	35931.90
528.89	36135.53
529.07	35955.31
529.24	36098.08
529.41	36357.88
529.58	36243.20
529.75	36187.02
529.92	36133.19
530.09	36346.18
530.26	36830.67
530.43	36514.70
530.60	36577.89
530.77	36505.34
530.94	37148.98
531.11	36364.90
531.28	37062.38
531.46	37156.00
531.63	36814.29
531.80	36835.35
531.97	36500.65
532.14	37191.11
532.31	37376.01
532.48	37390.06
532.65	37450.91
532.82	37497.72
532.99	37628.79
533.16	37268.35
533.33	37336.23
533.50	37535.17
533.67	37530.49
533.84	37354.95
534.01	37254.31
534.18	37610.07
534.35	37963.49
534.52	37521.13
534.69	37675.60
534.86	38094.56
535.03	37497.72
535.20	37933.06
535.37	38408.19
535.54	38040.73
535.71	38319.25
535.88	38319.25
536.05	37787.95
536.22	38300.53
536.38	38401.17
536.55	38139.03
536.72	38314.57
536.89	38106.26
537.06	38649.27
537.23	38595.43
537.40	38396.49
537.57	38417.55
537.74	38656.29
537.91	38969.92
538.08	38754.59
538.25	38492.45
538.42	38286.48
538.59	38667.99
538.75	38663.31
538.92	38787.36
539.09	38707.78
539.26	38932.47
539.43	38848.21
539.60	39309.30
539.77	39276.53
539.94	39164.18
540.11	38981.62
540.28	39311.64
540.44	39241.42
540.61	39077.58
540.78	39096.31
540.95	39035.45
541.12	39058.86
541.29	39395.90
541.46	39466.11
541.62	39147.80
541.79	39775.06
541.96	39281.21
542.13	39536.33
542.30	39908.47
542.47	39739.96
542.63	39756.34
542.80	40062.95
542.97	40631.70
543.14	40105.08
543.31	40102.74
543.48	40219.77
543.64	40521.69
543.81	40484.25
543.98	40652.76
544.15	39835.92
544.32	40790.86
544.48	41043.63
544.65	40437.44
544.82	40641.06
544.99	40236.15
545.16	40587.23
545.32	40669.15
545.49	40624.68
545.66	40407.01
545.83	40488.93
546.00	40842.35
546.16	40811.92
546.33	40800.22
546.50	40552.12
546.67	40898.52
546.83	40739.36
547.00	40713.62
547.17	41024.91
547.34	40620.00
547.50	41120.87
547.67	41392.37
547.84	41256.62
548.00	41200.45
548.17	41137.26
548.34	41399.40
548.51	41579.62
548.67	41528.13
548.84	41596.00
549.01	41022.57
549.18	41371.31
549.34	41605.36
549.51	41441.53
549.68	41476.63
549.84	41757.50
550.01	41780.90
550.18	41097.47
550.34	41294.07
550.51	41296.41
550.68	41741.11
550.84	41429.82
551.01	41434.50
551.18	41736.43
551.34	41965.81
551.51	41947.08
551.68	42000.91
551.84	42122.62
552.01	42223.26
552.18	42017.30
552.34	41799.63
552.51	42204.54
552.68	42141.35
552.84	42230.29
553.01	42160.07
553.18	41921.34
553.34	42031.34
553.51	41933.04
553.67	42078.15
553.84	42054.75
554.01	42548.60
554.17	42607.11
554.34	42696.05
554.51	42492.43
554.67	42312.20
554.84	42057.09
555.00	42487.74
555.17	42284.12
555.33	42501.79
555.50	42684.35
555.67	42941.81
555.83	42623.50
556.00	42810.74
556.16	43138.41
556.33	42836.48
556.50	42644.56
556.66	42717.12
556.83	42799.04
556.99	42925.42
557.16	43276.51
557.32	43332.68
557.49	42862.23
557.65	42621.16
557.82	42820.10
557.98	43028.41
558.15	42733.50
558.32	43367.79
558.48	43185.22
558.65	43047.13
558.81	42906.70
558.98	42815.42
559.14	43618.22
559.31	43021.39
559.47	43388.85
559.64	43803.13
559.80	43395.87
559.97	43669.72
560.13	43150.12
560.30	43227.35
560.46	43232.04
560.63	43203.95
560.79	43344.38
560.96	43835.89
561.12	43199.27
561.29	43470.77
561.45	43206.29
561.61	43278.85
561.78	43318.64
561.94	43552.69
562.11	43501.20
562.27	43627.59
562.44	43405.23
562.60	43573.75
562.77	43381.83
562.93	43543.33
563.10	43480.13
563.26	42981.60
563.42	44013.77
563.59	43075.22
563.75	43503.54
563.92	43536.30
564.08	43714.19
564.24	43473.11
564.41	43805.47
564.57	43613.54
564.74	43512.90
564.90	43772.70
565.07	43950.58
565.23	43761.00
565.39	43758.66
565.56	43863.98
565.72	43847.60
565.88	43599.50
566.05	43395.87
566.21	44039.52
566.38	43873.34
566.54	43707.16
566.70	43962.28
566.87	44114.42
567.03	43941.22
567.19	44268.89
567.36	44128.46
567.52	44158.89
567.68	44179.95
567.85	43924.83
568.01	44112.08
568.17	43627.59
568.34	44149.53
568.50	44404.64
568.66	44282.94
568.83	43938.88
568.99	43880.36
569.15	43990.37
569.32	43835.89
569.48	43674.40
569.64	44322.72
569.81	44051.22
569.97	44168.25
570.13	43831.21
570.30	44086.33
570.46	43835.89
570.62	43751.63
570.78	44194.00
570.95	44119.10
571.11	44191.65
571.27	43889.73
571.43	43725.89
571.60	43983.35
571.76	44093.35
571.92	43814.83
572.09	44051.22
572.25	44278.25
572.41	44486.56
572.57	44154.21
572.74	44577.84
572.90	44533.37
573.06	44531.03
573.22	44507.63
573.38	44051.22
573.55	43737.59
573.71	44212.72
573.87	44079.31
574.03	43973.98
574.20	44259.53
574.36	44463.16
574.52	44374.22
574.68	44098.03
574.84	43983.35
575.01	44055.90
575.17	44378.90
575.33	43599.50
575.49	44299.32
575.65	44830.62
575.82	44456.14
575.98	44776.79
576.14	44404.64
576.30	44065.27
576.46	44158.89
576.62	44547.42
576.79	44114.42
576.95	43847.60
577.11	44177.61
577.27	44563.80
577.43	44472.52
577.59	44140.16
577.75	44191.65
577.92	44030.16
578.08	44126.12
578.24	43957.60
578.40	44514.65
578.56	43995.05
578.72	44275.91
578.88	44463.16
579.04	44261.87
579.21	44477.20
579.37	44083.99
579.53	44247.83
579.69	44158.89
579.85	44294.64
580.01	44893.82
580.17	44666.78
580.33	44582.52
580.49	44542.74
580.65	44526.35
580.82	44467.84
580.98	44552.10
581.14	44100.37
581.30	44641.04
581.46	44051.22
581.62	44301.66
581.78	44367.20
581.94	44737.00
582.10	43948.24
582.26	44502.95
582.42	44495.92
582.58	44692.53
582.74	44254.85
582.90	44348.47
583.06	44280.60
583.22	44804.88
583.38	44671.46
583.54	44224.42
583.70	44622.31
583.86	44507.63
584.02	44273.57
584.18	44582.52
584.34	44751.04
584.50	44362.51
584.66	44210.38
584.82	43995.05
584.98	44769.77
585.14	44596.57
585.30	44552.10
585.46	44861.05
585.62	44659.76
585.78	44385.92
585.94	44137.82
586.10	44535.71
586.26	44194.00
586.42	44423.37
586.58	44168.25
586.74	44622.31
586.90	44289.96
587.06	44306.34
587.22	44542.74
587.38	44521.67
587.54	44559.12
587.70	45223.83
587.86	44732.32
588.02	44259.53
588.18	44758.06
588.34	44133.14
588.49	44442.09
588.65	44161.23
588.81	44179.95
588.97	44870.41
589.13	44519.33
589.29	45003.82
589.45	44872.75
589.61	44715.93
589.77	44451.45
589.93	44322.72
590.08	44905.52
590.24	44968.71
590.40	44790.83
590.56	44580.18
590.72	44783.81
590.88	44369.54
591.04	44952.33
591.20	44900.84
591.35	45233.19
591.51	45312.77
591.67	44872.75
591.83	44807.22
591.99	44215.06
592.15	44666.78
592.31	45036.59
592.46	44989.78
592.62	44858.71
592.78	44957.01
592.94	45130.21
593.10	44769.77
593.26	44779.13
593.41	45127.87
593.57	44870.41
593.73	45162.98
593.89	44694.87
594.05	44947.65
594.20	44800.19
594.36	44959.35
594.52	44758.06
594.68	44720.62
594.84	44978.07
594.99	45179.36
595.15	44774.45
595.31	45123.19
595.47	44669.12
595.62	44619.97
595.78	45324.47
595.94	45188.72
596.10	45155.96
596.25	45420.44
596.41	45235.53
596.57	45008.50
596.73	45151.27
596.88	44650.40
597.04	45008.50
597.20	45181.70
597.36	44781.47
597.51	45219.15
597.67	44973.39
597.83	45144.25
597.99	45113.83
598.14	44839.98
598.30	44718.28
598.46	44772.11
598.61	44713.59
598.77	44753.38
598.93	44807.22
599.09	45109.14
599.24	45265.96
599.40	45078.72
599.56	45048.29
599.71	45291.71
599.87	45366.60
600.03	44847.00
600.18	45184.04
600.34	44947.65
600.50	45090.42
600.65	45038.93
600.81	45170.00
600.97	45036.59
601.12	45525.76
601.28	44928.92
601.44	44938.29
601.59	45109.14
601.75	45078.72
601.91	45027.23
602.06	45179.36
602.22	44886.79
602.37	45476.61
602.53	45024.89
602.69	45397.03
602.84	45305.75
603.00	44980.42
603.16	44837.64
603.31	45284.68
603.47	44844.66
603.62	44746.36
603.78	45382.99
603.94	45282.34
604.09	45322.13
604.25	44994.46
604.40	44870.41
604.56	45057.65
604.71	45357.24
604.87	44797.85
605.03	44921.90
605.18	44891.48
605.34	44837.64
605.49	44781.47
605.65	44835.30
605.80	45015.52
605.96	45174.68
606.12	45226.17
606.27	45233.19
606.43	44594.23
606.58	45148.93
606.74	44825.94
606.89	44921.90
607.05	44737.00
607.20	44865.73
607.36	44715.93
607.51	44994.46
607.67	44931.26
607.82	44825.94
607.98	44467.84
608.13	44828.28
608.29	44868.07
608.44	44233.78
608.60	44114.42
608.75	44748.70
608.91	44411.67
609.06	44704.23
609.22	44488.90
609.37	44205.70
609.53	44645.72
609.68	44439.75
609.84	44945.31
609.99	44989.78
610.15	44488.90
610.30	44463.16
610.46	44100.37
610.61	44662.10
610.76	44437.41
610.92	44643.38
611.07	44477.20
611.23	44095.69
611.38	44294.64
611.54	44222.08
611.69	44044.20
611.84	44212.72
612.00	44355.49
612.15	44449.11
612.31	44524.01
612.46	44676.15
612.62	44528.69
612.77	44098.03
612.92	44708.91
613.08	44156.55
613.23	44081.65
613.39	43894.41
613.54	44088.67
613.69	44428.05
613.85	44306.34
614.00	44507.63
614.15	44301.66
614.31	44037.18
614.46	44596.57
614.62	44088.67
614.77	43599.50
614.92	44004.41
615.08	43875.68
615.23	44011.43
615.38	43978.67
615.54	44037.18
615.69	43627.59
615.84	43569.07
616.00	44271.23
616.15	43587.80
616.30	44210.38
616.46	44011.43
616.61	43742.27
616.76	43594.82
616.92	43302.25
617.07	43667.37
617.22	43328.00
617.37	43342.04
617.53	43983.35
617.68	43498.86
617.83	43899.09
617.99	43917.81
618.14	43789.08
618.29	43756.32
618.45	43416.94
618.60	43583.12
618.75	43365.45
618.90	43407.58
619.06	43655.67
619.21	43545.67
619.36	43681.42
619.51	43662.69
619.67	43152.46
619.82	43119.69
619.97	43704.82
620.12	43159.48
620.28	42780.31
620.43	43180.54
620.58	43335.02
620.73	43349.06
620.89	43295.23
621.04	43166.50
621.19	43126.71
621.34	43072.88
621.49	42766.27
621.65	43075.22
621.80	43189.91
621.95	42742.86
622.10	42822.44
622.25	42684.35
622.41	42768.61
622.56	43033.09
622.71	43318.64
622.86	42740.52
623.01	42843.51
623.16	43391.19
623.32	42761.59
623.47	42988.62
623.62	43180.54
623.77	42960.53
623.92	42838.83
624.07	42267.73
624.23	42639.88
624.38	42784.99
624.53	42513.49
624.68	42899.68
624.83	42707.76
624.98	42635.20
625.13	42562.64
625.29	42656.26
625.44	42501.79
625.59	42031.34
625.74	42249.01
625.89	42082.83
626.04	41926.02
626.19	42120.28
626.34	42532.22
626.49	42227.95
626.65	42120.28
626.80	42564.98
626.95	42099.22
627.10	41874.52
627.25	42246.67
627.40	41691.96
627.55	41347.90
627.70	41645.15
627.85	41661.54
628.00	41808.99
628.15	42241.99
628.30	42085.17
628.45	42073.47
628.60	41921.34
628.76	42054.75
628.91	41855.80
629.06	41935.38
629.21	41500.04
629.36	41528.13
629.51	41347.90
629.66	41481.31
629.81	41371.31
629.96	41799.63
630.11	41853.46
630.26	41855.80
630.41	41230.88
630.56	41287.05
630.71	41542.17
630.86	41291.73
631.01	41455.57
631.16	41441.53
631.31	40769.79
631.46	40832.99
631.61	41263.64
631.76	41303.43
631.91	41577.28
632.06	41163.00
632.21	41581.96
632.36	41340.88
632.51	41284.71
632.66	41401.74
632.81	41167.68
632.96	40722.98
633.10	40870.43
633.25	40706.60
633.40	41106.83
633.55	41273.01
633.70	40652.76
633.85	41045.97
634.00	40837.67
634.15	40844.69
634.30	40807.24
634.45	40889.16
634.60	41006.19
634.75	40753.41
634.90	40889.16
635.05	40580.21
635.19	40832.99
635.34	40760.43
635.49	40374.24
635.64	40718.30
635.79	40109.76
635.94	40596.59
636.09	40620.00
636.24	40432.75
636.39	40460.84
636.53	40343.81
636.68	40168.27
636.83	40137.85
636.98	40575.53
637.13	40062.95
637.28	40549.78
637.43	40378.92
637.57	40620.00
637.72	40381.26
637.87	40177.64
638.02	40612.98
638.17	40109.76
638.32	39695.49
638.46	39866.34
638.61	40194.02
638.76	40044.23
638.91	40037.20
639.06	39601.86
639.20	40062.95
639.35	40158.91
639.50	39908.47
639.65	40025.50
639.80	40273.60
639.94	39833.58
640.09	40238.49
640.24	39714.21
640.39	39756.34
640.54	39426.32
640.68	39878.05
640.83	39817.19
640.98	39826.56
641.13	39700.17
641.27	39679.10
641.42	39562.08
641.57	39847.62
641.72	39545.69
641.86	39220.36
642.01	39526.97
642.16	39374.83
642.31	38808.42
642.45	39339.72
642.60	39283.55
642.75	38976.94
642.90	38888.00
643.04	39496.54
643.19	38850.55
643.34	39782.09
643.48	39171.21
643.63	39393.56
643.78	39353.77
643.93	39056.52
644.07	39089.29
644.22	38941.83
644.37	38927.79
644.51	39239.08
644.66	38995.67
644.81	39232.06
644.95	39030.77
645.10	39000.35
645.25	39250.78
645.39	39210.99
645.54	39292.91
645.69	39138.44
645.83	38796.72
645.98	39154.82
646.13	39173.55
646.27	39180.57
646.42	38838.85
646.57	39000.35
646.71	38761.61
646.86	38745.23
647.00	38572.03
647.15	39098.65
647.30	39091.63
647.44	38515.86
647.59	38717.14
647.74	38539.26
647.88	38597.77
648.03	38363.72
648.17	38820.13
648.32	38487.77
648.47	37956.47
648.61	38206.90
648.76	38752.25
648.90	38581.39
649.05	38401.17
649.20	38562.67
649.34	38438.62
649.49	38326.27
649.63	38272.44
649.78	38761.61
649.92	38029.02
650.07	38478.41
650.21	38246.69
650.36	38101.58
650.51	38326.27
650.65	38333.29
650.80	38557.99
650.94	38328.61
651.09	38263.08
651.23	38136.69
651.38	38330.95
651.52	37837.10
651.67	38293.50
651.81	37998.60
651.96	37837.10
652.10	37558.58
652.25	37764.54
652.39	37392.40
652.54	37996.26
652.68	38024.34
652.83	37907.32
652.97	37663.90
653.12	37823.06
653.26	37748.16
653.41	37715.39
653.55	37490.70
653.70	37450.91
653.84	37729.44
653.99	37930.72
654.13	37675.60
654.27	37710.71
654.42	37460.27
654.56	37148.98
654.71	37603.05
654.85	37244.94
655.00	37364.31
655.14	36938.33
655.29	37411.12
655.43	37083.45
655.57	36657.47
655.72	36933.65
655.86	37062.38
656.01	36994.51
656.15	36863.44
656.30	36856.42
656.44	37151.32
656.58	36893.86
656.73	36554.49
656.87	36542.78
657.01	36549.81
657.16	36816.63
657.30	36655.13
657.45	36664.49
657.59	36921.95
657.73	36381.29
657.88	36926.63
658.02	36236.17
658.16	36968.76
658.31	36851.73
658.45	36711.30
658.60	36650.45
658.74	36914.93
658.88	36779.18
659.03	36397.67
659.17	36278.30
659.31	36575.55
659.46	37146.64
659.60	36154.26
659.74	36149.57
659.89	36135.53
660.03	36070.00
660.17	36198.73
660.32	36292.35
660.46	36208.09
660.60	36074.68
660.74	36451.50
660.89	35866.37
661.03	35672.10
661.17	35578.48
661.32	35466.14
661.46	35768.07
661.60	35695.51
661.74	35550.40
661.89	35531.67
662.03	35536.35
662.17	35576.14
662.31	35028.46
662.46	35655.72
662.60	35283.58
662.74	35234.42
662.88	35515.29
663.03	35552.74
663.17	35178.25
663.31	35082.29
663.45	35211.02
663.60	35391.24
663.74	34862.28
663.88	34836.53
664.02	34803.77
664.17	35342.09
664.31	34408.22
664.45	34579.07
664.59	34808.45
664.73	34859.94
664.88	34941.86
665.02	34443.32
665.16	34644.61
665.30	34623.54
665.44	34506.52
665.59	34022.03
665.73	33879.25
665.87	34565.03
666.01	34246.72
666.15	33818.40
666.29	34300.55
666.44	33963.51
666.58	34309.91
666.72	34136.71
666.86	34087.56
667.00	34525.24
667.14	33795.00
667.28	33806.70
667.43	33652.22
667.57	33649.88
667.71	33687.33
667.85	33359.66
667.99	33474.34
668.13	33369.02
668.27	33230.93
668.41	33495.41
668.56	32926.66
668.70	33287.10
668.84	33137.30
668.98	33125.60
669.12	33113.90
669.26	33443.91
669.40	32945.38
669.54	33031.98
669.68	32903.25
669.82	32713.67
669.96	32659.84
670.10	32549.83
670.25	32931.34
670.39	32758.14
670.53	32409.40
670.67	32334.50
670.81	32467.91
670.95	32617.71
671.09	32512.38
671.23	32622.39
671.37	32393.01
671.51	32407.06
671.65	32182.37
671.79	31716.60
671.93	31817.24
672.07	32381.31
672.21	32273.65
672.35	32184.71
672.49	31658.09
672.63	31840.65
672.77	31721.28
672.91	31630.00
673.05	31592.55
673.19	31447.44
673.33	31515.31
673.47	31723.62
673.61	31402.97
673.75	31150.19
673.89	30981.67
674.03	30831.88
674.17	31138.49
674.31	30895.07
674.45	30639.95
674.59	31079.97
674.73	31063.59
674.87	30616.55
675.01	30960.61
675.15	30731.23
675.29	30808.47
675.43	30476.12
675.56	30691.44
675.70	30649.32
675.84	30199.93
675.98	29565.65
676.12	29741.19
676.26	29923.75
676.40	29369.04
676.54	29450.96
676.68	29694.38
676.82	29181.80
676.96	29610.12
677.10	29591.39
677.23	29287.12
677.37	29256.70
677.51	29076.48
677.65	29170.10
677.79	28872.85
677.93	29039.03
678.07	28959.45
678.21	29097.54
678.34	28561.56
678.48	28577.94
678.62	28491.34
678.76	28388.36
678.90	28212.82
679.04	28514.75
679.18	28166.01
679.31	28336.87
679.45	27901.53
679.59	27807.90
679.73	27754.07
679.87	27733.01
680.00	28158.99
680.14	27606.62
680.28	27861.74
680.42	27351.50
680.56	27339.80
680.70	26927.86
680.83	27197.02
680.97	26742.96
681.11	26838.92
681.25	27047.23
681.39	26923.18
681.52	26778.07
681.66	26787.43
681.80	26658.70
681.94	26628.27
682.07	26497.20
682.21	26677.43
682.35	26291.24
682.49	26394.22
682.62	26410.60
682.76	25874.62
682.90	25993.99
683.04	25862.92
683.17	25848.88
683.31	25572.69
683.45	25795.04
683.59	25242.68
683.72	25467.37
683.86	25233.32
684.00	25432.26
684.13	25167.78
684.27	25116.29
684.41	25043.73
684.55	24790.95
684.68	24833.08
684.82	24734.78
684.96	24636.48
685.09	24577.97
685.23	24837.76
685.37	24580.31
685.50	24531.15
685.64	24163.69
685.78	24072.41
685.91	24149.65
686.05	24247.95
686.19	23826.65
686.32	24053.69
686.46	23793.89
686.60	23283.65
686.73	23576.22
686.87	23335.14
687.01	23082.36
687.14	23227.48
687.28	23386.63
687.42	23023.85
687.55	22986.40
687.69	22897.46
687.82	22665.75
687.96	22728.94
688.10	22813.20
688.23	22647.02
688.37	22466.80
688.50	22225.73
688.64	22164.87
688.78	22122.74
688.91	22122.74
689.05	22141.47
689.18	22036.14
689.32	21558.67
689.46	21874.65
689.59	21825.50
689.73	21755.28
689.86	21788.05
690.00	21741.24
690.13	21872.31
690.27	21619.53
690.41	21451.01
690.54	21270.79
690.68	21263.77
690.81	20987.58
690.95	21160.78
691.08	21064.82
691.22	21013.33
691.35	21032.05
691.49	20994.61
691.62	21025.03
691.76	20854.17
691.89	20510.11
692.03	20596.71
692.16	20357.98
692.30	20437.56
692.43	20372.02
692.57	20212.87
692.70	20189.46
692.84	20023.28
692.97	19719.01
693.11	19957.75
693.24	19686.25
693.38	19363.25
693.51	19646.46
693.65	19562.20
693.78	19524.75
693.92	19449.85
694.05	19140.90
694.19	19122.18
694.32	19016.85
694.45	19286.01
694.59	19283.67
694.72	18972.38
694.86	18838.97
694.99	18693.86
695.13	18768.76
695.26	18412.99
695.39	18029.15
695.53	18326.39
695.66	18656.41
695.80	18258.52
695.93	17935.53
696.07	18061.91
696.20	17965.95
696.33	18052.55
696.47	17881.69
696.60	17736.58
696.73	17980.00
696.87	17467.42
697.00	17886.37
697.14	17483.80
697.27	17673.39
697.40	17469.76
697.54	17231.02
697.67	17167.83
697.80	17172.51
697.94	16802.71
698.07	17121.02
698.21	17041.44
698.34	16847.18
698.47	16774.62
698.61	16889.31
698.74	16439.92
698.87	16669.30
699.01	16168.42
699.14	16489.07
699.27	16688.02
699.40	16245.66
699.54	16322.90
699.67	16280.77
699.80	16222.25
699.94	15894.58
700.07	16016.29
700.20	15742.44
700.34	15669.89
700.47	15653.50
700.60	15943.73
700.73	15665.21
700.87	15630.10
701.00	15349.23
701.13	15302.42
701.26	15454.56
701.40	15391.36
701.53	15382.00
701.66	15229.87
701.79	15122.20
701.93	15105.82
702.06	15117.52
702.19	14754.74
702.32	14892.83
702.46	14604.94
702.59	14464.51
702.72	14757.08
702.85	14815.59
702.99	14675.16
703.12	14806.23
703.25	14480.89
703.38	14354.51
703.51	14345.14
703.65	14471.53
703.78	14085.34
703.91	13989.38
704.04	14150.88
704.17	14127.47
704.31	13818.52
704.44	13570.43
704.57	13596.17
704.70	13820.86
704.83	13429.99
704.96	13710.86
705.10	13680.43
705.23	14064.28
>>>>>End Processed Spectral Data<<<<<
