SpectraSuite Data File
++++++++++++++++++++++++++++++++++++
Date: Fri Oct 25 10:47:21 EDT 2013
User: price-jones
Dark Spectrum Present: No
Reference Spectrum Present: No
Number of Sampled Component Spectra: 1
Spectrometers: USB2+H05261
Integration Time (usec): 100000 (USB2+H05261)
Spectra Averaged: 1 (USB2+H05261)
Boxcar Smoothing: 0 (USB2+H05261)
Correct for Electrical Dark: No (USB2+H05261)
Strobe/Lamp Enabled: No (USB2+H05261)
Correct for Detector Non-linearity: No (USB2+H05261)
Correct for Stray Light: No (USB2+H05261)
Number of Pixels in Processed Spectrum: 2048
>>>>>Begin Processed Spectral Data<<<<<
365.73	135.75
365.92	135.75
366.12	135.75
366.32	25.75
366.52	67.88
366.72	44.47
366.91	53.83
367.11	72.56
367.31	0.00
367.51	51.49
367.70	70.22
367.90	21.06
368.10	49.15
368.30	42.13
368.49	86.60
368.69	70.22
368.89	58.51
369.09	14.04
369.28	58.51
369.48	95.96
369.68	161.50
369.87	88.94
370.07	58.51
370.27	142.77
370.47	227.03
370.66	334.70
370.86	463.43
371.06	458.74
371.25	458.74
371.45	470.45
371.65	465.77
371.84	486.83
372.04	393.21
372.24	465.77
372.44	458.74
372.63	491.51
372.83	465.77
373.03	482.15
373.22	463.43
373.42	585.13
373.62	552.37
373.81	557.05
374.01	573.43
374.21	543.00
374.40	528.96
374.60	514.92
374.79	533.64
374.99	531.30
375.19	524.28
375.38	613.22
375.58	526.62
375.78	547.69
375.97	599.18
376.17	653.01
376.37	517.26
376.56	634.29
376.76	514.92
376.95	603.86
377.15	624.92
377.35	636.63
377.54	601.52
377.74	627.26
377.93	596.84
378.13	580.45
378.33	676.41
378.52	636.63
378.72	606.20
378.91	582.79
379.11	535.98
379.31	613.22
379.50	601.52
379.70	653.01
379.89	594.50
380.09	660.03
380.28	690.46
380.48	610.88
380.68	664.71
380.87	683.44
381.07	723.23
381.26	713.86
381.46	695.14
381.65	674.07
381.85	631.94
382.04	669.39
382.24	709.18
382.43	653.01
382.63	713.86
382.83	744.29
383.02	704.50
383.22	732.59
383.41	676.41
383.61	664.71
383.80	751.31
384.00	704.50
384.19	713.86
384.39	730.25
384.58	744.29
384.78	777.06
384.97	755.99
385.17	851.96
385.36	751.31
385.56	748.97
385.75	819.19
385.95	727.91
386.14	685.78
386.34	716.20
386.53	816.85
386.72	814.51
386.92	770.04
387.11	791.10
387.31	788.76
387.50	823.87
387.70	833.23
387.89	793.44
388.09	830.89
388.28	887.06
388.48	837.91
388.67	866.00
388.86	847.27
389.06	889.40
389.25	868.34
389.45	933.87
389.64	908.13
389.84	1018.13
390.03	901.11
390.22	863.66
390.42	903.45
390.61	875.36
390.81	849.61
391.00	929.19
391.19	938.55
391.39	851.96
391.58	968.98
391.78	983.02
391.97	950.26
392.16	959.62
392.36	983.02
392.55	957.28
392.75	990.05
392.94	938.55
393.13	990.05
393.33	1011.11
393.52	1013.45
393.71	1041.54
393.91	952.60
394.10	1039.20
394.29	1100.05
394.49	1160.91
394.68	1078.99
394.88	1046.22
395.07	1081.33
395.26	1139.84
395.46	1109.41
395.65	1123.46
395.84	1076.65
396.04	1123.46
396.23	1104.73
396.42	1118.78
396.62	1177.29
396.81	1146.86
397.00	1151.54
397.19	1184.31
397.39	1280.27
397.58	1252.19
397.77	1181.97
397.97	1275.59
398.16	1322.40
398.35	1301.34
398.55	1310.70
398.74	1266.23
398.93	1315.38
399.12	1261.55
399.32	1303.68
399.51	1341.13
399.70	1313.04
399.90	1425.39
400.09	1310.70
400.28	1453.47
400.47	1338.79
400.67	1441.77
400.86	1394.96
401.05	1497.94
401.24	1493.26
401.44	1530.71
401.63	1467.52
401.82	1521.35
402.01	1476.88
402.21	1469.86
402.40	1526.03
402.59	1551.78
402.78	1474.54
402.97	1511.99
403.17	1664.12
403.36	1577.52
403.55	1614.97
403.74	1605.61
403.93	1668.80
404.13	1708.59
404.32	1703.91
404.51	1682.85
404.70	1743.70
404.89	1664.12
405.09	1720.29
405.28	1715.61
405.47	1739.02
405.66	1762.42
405.85	1877.11
406.05	1739.02
406.24	1785.83
406.43	1727.32
406.62	1837.32
406.81	1909.88
407.00	1858.39
407.20	1811.57
407.39	1912.22
407.58	1926.26
407.77	1907.54
407.96	1963.71
408.15	1853.70
408.34	1984.77
408.54	1977.75
408.73	1942.64
408.92	2111.16
409.11	2005.84
409.30	2033.93
409.49	2022.22
409.68	2024.56
409.87	1973.07
410.07	2003.50
410.26	2165.00
410.45	2050.31
410.64	2090.10
410.83	2120.53
411.02	2179.04
411.21	2352.24
411.40	2214.15
411.59	2331.17
411.78	2345.22
411.98	2237.55
412.17	2368.62
412.36	2317.13
412.55	2394.37
412.74	2368.62
412.93	2469.27
413.12	2373.30
413.31	2544.16
413.50	2558.21
413.69	2525.44
413.88	2520.76
414.07	2677.57
414.26	2560.55
414.45	2597.99
414.64	2609.70
414.83	2595.65
415.02	2717.36
415.22	2729.06
415.41	2839.07
415.60	2764.17
415.79	2818.00
415.98	2799.28
416.17	2878.86
416.36	2890.56
416.55	2743.11
416.74	2974.82
416.93	2862.48
417.12	2916.31
417.31	2937.37
417.50	3040.36
417.69	3119.93
417.88	3066.10
418.07	3016.95
418.26	2977.16
418.45	3042.70
418.64	3332.92
418.83	3222.92
419.02	3133.98
419.21	3171.43
419.39	3178.45
419.58	3101.21
419.77	3075.46
419.96	3241.64
420.15	3332.92
420.34	3302.50
420.53	3297.81
420.72	3403.14
420.91	3428.88
421.10	3412.50
421.29	3482.72
421.48	3417.18
421.67	3459.31
421.86	3503.78
422.05	3452.29
422.24	3391.44
422.43	3314.20
422.61	3393.78
422.80	3550.59
422.99	3566.98
423.18	3508.46
423.37	3571.66
423.56	3531.87
423.75	3559.95
423.94	3536.55
424.13	3225.26
424.32	3361.01
424.50	3510.80
424.69	3508.46
424.88	3538.89
425.07	3485.06
425.26	3536.55
425.45	3489.74
425.64	3639.53
425.83	3581.02
426.01	3616.13
426.20	3646.55
426.39	3672.30
426.58	3494.42
426.77	3585.70
426.96	3693.37
427.15	3548.25
427.33	3613.79
427.52	3676.98
427.71	3613.79
427.90	3679.32
428.09	3754.22
428.28	3637.19
428.46	3904.01
428.65	3756.56
428.84	3927.42
429.03	3896.99
429.22	3779.97
429.40	3782.31
429.59	3838.48
429.78	3786.99
429.97	3744.86
430.16	3702.73
430.34	3911.04
430.53	3864.22
430.72	3885.29
430.91	3824.44
431.10	4107.64
431.28	4100.62
431.47	4025.72
431.66	4140.41
431.85	4084.23
432.03	4009.34
432.22	4236.37
432.41	4114.66
432.60	4201.26
432.79	4203.60
432.97	4322.97
433.16	4243.39
433.35	4205.94
433.54	4346.37
433.72	4411.91
433.91	4454.04
434.10	4285.52
434.28	4421.27
434.47	4440.00
434.66	4482.13
434.85	4479.79
435.03	4329.99
435.22	4547.66
435.41	4564.04
435.59	4400.21
435.78	4519.57
435.97	4538.30
436.16	4669.37
436.34	4634.26
436.53	4589.79
436.72	4587.45
436.90	4535.96
437.09	4674.05
437.28	4648.30
437.46	4669.37
437.65	4718.52
437.84	4774.69
438.02	4699.80
438.21	4645.96
438.40	4664.69
438.58	4739.58
438.77	4802.78
438.96	4952.57
439.14	5247.48
439.33	5139.82
439.52	5125.77
439.70	5078.96
439.89	5074.28
440.08	5198.33
440.26	5177.26
440.45	5310.68
440.63	5277.91
440.82	5392.59
441.01	5282.59
441.19	5359.83
441.38	5554.09
441.57	5544.73
441.75	5469.83
441.94	5572.82
442.12	5680.48
442.31	5696.86
442.50	5518.98
442.68	5643.03
442.87	5516.64
443.05	5748.36
443.24	5942.62
443.43	5715.59
443.61	5682.82
443.80	5867.72
443.98	5767.08
444.17	5568.13
444.35	5736.65
444.54	5825.59
444.73	5769.42
444.91	5902.83
445.10	5837.30
445.28	5839.64
445.47	5806.87
445.65	5666.44
445.84	5790.49
446.02	5884.11
446.21	5839.64
446.39	5863.04
446.58	6026.88
446.77	5898.15
446.95	5940.28
447.14	5940.28
447.32	6223.48
447.51	5956.66
447.69	6005.81
447.88	6052.63
448.06	6092.41
448.25	5914.53
448.43	6148.59
448.62	5994.11
448.80	5961.34
448.99	6010.50
449.17	6190.72
449.36	5989.43
449.54	6328.81
449.73	6408.39
449.91	6434.13
450.10	6319.45
450.28	6401.37
450.46	6272.64
450.65	6413.07
450.83	6420.09
451.02	6366.26
451.20	6553.50
451.39	6396.68
451.57	6282.00
451.76	6324.13
451.94	6443.49
452.13	6424.77
452.31	6513.71
452.49	6317.11
452.68	6619.04
452.86	6380.30
453.05	6736.06
453.23	6633.08
453.42	6572.22
453.60	6574.56
453.78	6684.57
453.97	6661.16
454.15	6747.76
454.34	6546.48
454.52	6717.34
454.70	6911.60
454.89	6740.74
455.07	6731.38
455.26	6707.98
455.44	6986.50
455.62	7028.63
455.81	6942.03
455.99	6827.34
456.17	7119.91
456.36	7035.65
456.54	7211.19
456.73	7218.21
456.91	7482.69
457.09	7332.90
457.28	7309.49
457.46	7096.50
457.64	7265.02
457.83	7332.90
458.01	7157.36
458.19	7531.84
458.38	7419.50
458.56	7470.99
458.74	7403.11
458.93	7407.80
459.11	7557.59
459.29	7597.38
459.48	7543.55
459.66	7517.80
459.84	7693.34
460.03	7700.36
460.21	7667.60
460.39	7470.99
460.57	7571.63
460.76	7564.61
460.94	7868.88
461.12	7880.58
461.31	7929.74
461.49	7793.98
461.67	7749.51
461.85	7892.29
462.04	7866.54
462.22	8395.50
462.40	7988.25
462.59	7838.45
462.77	7948.46
462.95	7946.12
463.13	8065.49
463.32	8095.91
463.50	8042.08
463.68	8060.80
463.86	8006.97
464.05	8114.64
464.23	8067.83
464.41	8222.30
464.59	8070.17
464.78	8273.79
464.96	8145.06
465.14	8257.41
465.32	8243.37
465.50	8477.42
465.69	8372.10
465.87	8386.14
466.05	8341.67
466.23	8374.44
466.41	8496.14
466.60	8552.32
466.78	8222.30
466.96	8393.16
467.14	8486.78
467.32	8491.46
467.51	8575.72
467.69	8255.07
467.87	8622.53
468.05	8688.07
468.23	8557.00
468.41	8430.61
468.60	8741.90
468.78	8606.15
468.96	8622.53
469.14	8795.73
469.32	8847.22
469.50	8697.43
469.69	8667.00
469.87	8856.59
470.05	8727.86
470.23	8982.98
470.41	8926.80
470.59	8943.19
470.77	8929.14
470.95	9186.60
471.14	9125.75
471.32	8990.00
471.50	9584.49
471.68	9247.46
471.86	9500.23
472.04	9441.72
472.22	9603.22
472.40	9184.26
472.58	9497.89
472.77	9699.18
472.95	9490.87
473.13	9785.78
473.31	9687.48
473.49	9692.16
473.67	9785.78
473.85	9659.39
474.03	9989.41
474.21	9926.21
474.39	9973.02
474.57	10293.68
474.75	9989.41
474.93	10260.91
475.12	10162.61
475.30	10403.68
475.48	10197.71
475.66	10298.36
475.84	10319.42
476.02	10466.88
476.20	10492.62
476.38	10640.08
476.56	11009.88
476.74	10785.19
476.92	10689.23
477.10	10759.44
477.28	10984.13
477.46	11049.67
477.64	11021.58
477.82	11108.18
478.00	11314.15
478.18	11211.17
478.36	11400.75
478.54	11641.82
478.72	11477.99
478.90	11747.15
479.08	11873.54
479.26	11798.64
479.44	11934.39
479.62	11927.37
479.80	12128.66
479.98	12320.58
480.16	12629.53
480.34	12461.01
480.52	12739.54
480.70	12657.62
480.88	12250.36
481.06	12503.14
481.24	12767.62
481.41	13001.68
481.59	13177.22
481.77	13153.81
481.95	12882.31
482.13	13280.20
482.31	13111.68
482.49	13453.40
482.67	13472.12
482.85	13832.57
483.03	13837.25
483.21	13797.46
483.39	14270.25
483.57	14122.79
483.74	13860.65
483.92	14333.44
484.10	14200.03
484.28	14366.21
484.46	14614.30
484.64	15082.41
484.82	14822.61
485.00	15073.05
485.18	15204.12
485.35	15400.72
485.53	15239.23
485.71	14721.97
485.89	15353.91
486.07	15272.00
486.25	15222.84
486.43	15566.90
486.61	16027.99
486.78	15847.77
486.96	16046.71
487.14	16198.85
487.32	16159.06
487.50	16451.63
487.68	16830.79
487.85	16779.30
488.03	16844.84
488.21	17118.68
488.39	17092.93
488.57	17179.53
488.75	17060.16
488.92	17689.77
489.10	17706.15
489.28	17708.49
489.46	18148.51
489.64	18176.60
489.81	18099.36
489.99	18434.06
490.17	18455.12
490.35	18705.56
490.53	18824.93
490.70	19133.88
490.88	18827.27
491.06	19164.31
491.24	18956.00
491.41	18958.34
491.59	19707.31
491.77	19302.40
491.95	19456.87
492.13	19611.35
492.30	19946.05
492.48	20072.43
492.66	20343.94
492.84	20217.55
493.01	20198.82
493.19	20477.35
493.37	20489.05
493.54	20833.11
493.72	20467.98
493.90	20720.76
494.08	20891.62
494.25	21177.17
494.43	21312.92
494.61	21678.04
494.79	21591.44
494.96	21507.18
495.14	21757.62
495.32	22017.42
495.49	21612.51
495.67	22097.00
495.85	22249.13
496.02	22157.85
496.20	22431.69
496.38	22759.37
496.55	22515.95
496.73	23339.82
496.91	22965.34
497.09	22979.38
497.26	23183.01
497.44	23197.05
497.62	23419.40
497.79	23290.67
497.97	23262.58
498.14	23747.08
498.32	23405.36
498.50	23742.39
498.67	23810.27
498.85	24088.79
499.03	24201.14
499.20	24130.92
499.38	24381.36
499.56	24100.50
499.73	24774.57
499.91	24545.20
500.08	24884.58
500.26	24542.86
500.44	24643.50
500.61	24823.72
500.79	24503.07
500.97	24952.45
501.14	25364.39
501.32	25579.71
501.49	25376.09
501.67	25371.41
501.84	25303.53
502.02	25376.09
502.20	25326.94
502.37	25961.22
502.55	25806.75
502.72	26288.90
502.90	25883.98
503.07	25853.56
503.25	26066.55
503.43	25891.01
503.60	26199.96
503.78	26368.48
503.95	25745.89
504.13	26562.74
504.30	26391.88
504.48	27063.61
504.65	27014.46
504.83	26995.74
505.01	27098.72
505.18	26890.41
505.36	27271.92
505.53	27168.94
505.71	27374.91
505.88	27431.08
506.06	27548.11
506.23	27505.98
506.41	27541.08
506.58	27723.65
506.76	28201.11
506.93	27606.62
507.11	27559.81
507.28	27997.49
507.46	27955.36
507.63	27997.49
507.81	28126.22
507.98	28119.20
508.16	28631.77
508.33	28348.57
508.50	28449.21
508.68	28421.13
508.85	29039.03
509.03	28987.53
509.20	29113.92
509.38	29092.86
509.55	29160.73
509.73	29390.11
509.90	29289.46
510.08	29003.92
510.25	29422.87
510.42	29481.39
510.60	29846.51
510.77	29668.63
510.95	29729.48
511.12	29647.57
511.30	29851.19
511.47	30485.48
511.64	30146.10
511.82	30223.34
511.99	29701.40
512.17	30178.87
512.34	29949.50
512.51	30441.01
512.69	30609.53
512.86	30686.76
513.04	30991.03
513.21	30848.26
513.38	30740.60
513.56	30984.01
513.73	30712.51
513.90	30829.54
514.08	30803.79
514.25	31269.56
514.43	31255.51
514.60	30976.99
514.77	31278.92
514.95	31498.93
515.12	31442.76
515.29	31417.01
515.47	31718.94
515.64	31924.91
515.81	31630.00
515.99	31449.78
516.16	31681.49
516.33	31622.98
516.51	32140.24
516.68	31707.24
516.85	31718.94
517.03	31672.13
517.20	32215.13
517.37	32531.11
517.54	32194.07
517.72	32170.66
517.89	32102.79
518.06	32510.04
518.24	32304.07
518.41	32285.35
518.58	32655.15
518.75	32613.02
518.93	32624.73
519.10	32793.25
519.27	33013.26
519.45	33181.77
519.62	33031.98
519.79	33174.75
519.96	33172.41
520.14	33460.30
520.31	33109.22
520.48	33312.84
520.65	33151.35
520.83	33596.05
521.00	33652.22
521.17	33802.02
521.34	33853.51
521.52	33764.57
521.69	33914.36
521.86	34466.73
522.03	34057.14
522.20	34209.27
522.38	34286.51
522.55	34749.93
522.72	34220.97
522.89	33916.70
523.07	34462.05
523.24	34721.85
523.41	34799.08
523.58	34342.68
523.75	34976.97
523.92	35019.10
524.10	34932.50
524.27	35154.85
524.44	35267.19
524.61	35086.97
524.78	35349.11
524.96	35349.11
525.13	35651.04
525.30	35468.48
525.47	35622.95
525.64	35438.05
525.81	35709.55
525.98	35683.81
526.16	35543.38
526.33	35302.30
526.50	35728.28
526.67	35002.71
526.84	35473.16
527.01	35416.99
527.18	35821.90
527.36	35896.80
527.53	36315.75
527.70	36009.14
527.87	36397.67
528.04	36119.15
528.21	35943.61
528.38	36355.54
528.55	36547.47
528.72	36130.85
528.89	36589.59
529.07	36751.09
529.24	36617.68
529.41	36828.33
529.58	36627.04
529.75	36570.87
529.92	36776.84
530.09	36741.73
530.26	36968.76
530.43	37113.87
530.60	36727.69
530.77	37130.26
530.94	37181.75
531.11	36701.94
531.28	37420.48
531.46	37191.11
531.63	37542.19
531.80	37488.36
531.97	37385.38
532.14	37408.78
532.31	37036.64
532.48	37535.17
532.65	37694.33
532.82	37394.74
532.99	37940.08
533.16	37565.60
533.33	37797.31
533.50	37984.55
533.67	38183.50
533.84	37869.87
534.01	38019.66
534.18	38391.81
534.35	38541.60
534.52	38162.43
534.69	38085.20
534.86	38487.77
535.03	38115.62
535.20	38532.24
535.37	38778.00
535.54	39054.18
535.71	38693.74
535.88	38733.53
536.05	38562.67
536.22	38560.33
536.38	38557.99
536.55	38944.17
536.72	38911.41
536.89	38717.14
537.06	38665.65
537.23	38902.04
537.40	38932.47
537.57	38579.05
537.74	39077.58
537.91	39274.19
538.08	39100.99
538.25	38927.79
538.42	38911.41
538.59	39297.59
538.75	38841.19
538.92	39232.06
539.09	39115.03
539.26	39445.05
539.43	39159.50
539.60	39861.66
539.77	39283.55
539.94	39353.77
540.11	39613.57
540.28	39529.31
540.44	39470.79
540.61	39693.15
540.78	39604.20
540.95	39721.23
541.12	39274.19
541.29	39218.02
541.46	39714.21
541.62	39875.71
541.79	40435.10
541.96	39976.35
542.13	40154.23
542.30	40067.63
542.47	40332.11
542.63	39990.39
542.80	40491.27
542.97	41015.55
543.14	40861.07
543.31	40357.86
543.48	40964.06
543.64	41111.51
543.81	40570.85
543.98	40549.78
544.15	40627.02
544.32	41177.04
544.48	41570.25
544.65	41132.57
544.82	40795.54
544.99	40772.13
545.16	40802.56
545.32	41071.72
545.49	41289.39
545.66	41111.51
545.83	41076.40
546.00	41027.25
546.16	41064.70
546.33	40727.66
546.50	40842.35
546.67	40952.35
546.83	40634.04
547.00	41406.42
547.17	41214.49
547.34	41645.15
547.50	41315.14
547.67	41680.26
547.84	41778.56
548.00	42087.51
548.17	41493.02
548.34	41490.68
548.51	41944.74
548.67	41586.64
548.84	41897.93
549.01	41600.68
549.18	41986.87
549.34	41968.15
549.51	41607.70
549.68	42127.30
549.84	42391.78
550.01	42291.14
550.18	41806.65
550.34	41914.31
550.51	41771.54
550.68	42033.68
550.84	41694.30
551.01	41881.55
551.18	41886.23
551.34	42019.64
551.51	42473.70
551.68	42312.20
551.84	42026.66
552.01	42223.26
552.18	42277.10
552.34	42040.70
552.51	42581.37
552.68	42286.46
552.84	42433.91
553.01	43187.56
553.18	43105.65
553.34	42843.51
553.51	42340.29
553.67	42185.82
553.84	42546.26
554.01	42649.24
554.17	42930.11
554.34	42951.17
554.51	43005.00
554.67	43175.86
554.84	42707.76
555.00	43091.60
555.17	42796.70
555.33	42955.85
555.50	43304.59
555.67	43248.42
555.83	42988.62
556.00	43007.34
556.16	43522.26
556.33	43337.36
556.50	43707.16
556.66	43187.56
556.83	43477.79
556.99	43168.84
557.16	43316.29
557.32	43903.77
557.49	43407.58
557.65	42810.74
557.82	43236.72
557.98	43178.20
558.15	43285.87
558.32	43676.74
558.48	43199.27
558.65	43882.70
558.81	43505.88
558.98	43433.32
559.14	43164.16
559.31	43461.41
559.47	43138.41
559.64	43763.34
559.80	43922.49
559.97	43430.98
560.13	43494.18
560.30	43555.03
560.46	43676.74
560.63	43922.49
560.79	43709.50
560.96	43969.30
561.12	43807.81
561.29	43728.23
561.45	43409.92
561.61	43452.05
561.78	43704.82
561.94	43573.75
562.11	43693.12
562.27	43817.17
562.44	44020.80
562.60	43718.87
562.77	44074.63
562.93	43489.49
563.10	43821.85
563.26	43480.13
563.42	44273.57
563.59	43927.17
563.75	43526.94
563.92	43894.41
564.08	44346.13
564.24	44037.18
564.41	44137.82
564.57	44048.88
564.74	44463.16
564.90	44189.31
565.07	44112.08
565.23	44397.62
565.39	43924.83
565.56	44186.97
565.72	44198.68
565.88	44170.59
566.05	44362.51
566.21	43995.05
566.38	43796.10
566.54	44226.76
566.70	44282.94
566.87	44528.69
567.03	44107.40
567.19	44863.39
567.36	44257.19
567.52	44030.16
567.68	44432.73
567.85	44383.58
568.01	44318.04
568.17	43978.67
568.34	44289.96
568.50	44163.57
568.66	44428.05
568.83	44842.32
568.99	44369.54
569.15	44114.42
569.32	44296.98
569.48	44189.31
569.64	44545.08
569.81	44444.43
569.97	44285.28
570.13	44376.56
570.30	44233.78
570.46	44446.77
570.62	44168.25
570.78	44182.29
570.95	44266.55
571.11	44739.34
571.27	44535.71
571.43	44509.97
571.60	44399.96
571.76	44315.70
571.92	44360.17
572.09	44390.60
572.25	44634.02
572.41	44872.75
572.57	44395.28
572.74	44961.69
572.90	44580.18
573.06	44870.41
573.22	44360.17
573.38	44928.92
573.55	44519.33
573.71	45095.10
573.87	44559.12
574.03	44247.83
574.20	44439.75
574.36	44191.65
574.52	45029.57
574.68	44439.75
574.84	44395.28
575.01	44650.40
575.17	44685.51
575.33	44257.19
575.49	44388.26
575.65	45195.74
575.82	44680.83
575.98	44641.04
576.14	45160.64
576.30	44589.55
576.46	44701.89
576.62	44767.43
576.79	44547.42
576.95	44673.81
577.11	44790.83
577.27	44816.58
577.43	44851.69
577.59	44793.17
577.75	44643.38
577.92	44287.62
578.08	44488.90
578.24	44758.06
578.40	44296.98
578.56	44573.16
578.72	45050.63
578.88	44982.76
579.04	45090.42
579.21	44318.04
579.37	44577.84
579.53	44685.51
579.69	43976.33
579.85	44577.84
580.01	44919.56
580.17	44526.35
580.33	44751.04
580.49	44776.79
580.65	45287.03
580.82	44802.53
580.98	45013.18
581.14	44664.44
581.30	45186.38
581.46	44879.77
581.62	44835.30
581.78	44664.44
581.94	45036.59
582.10	45015.52
582.26	44905.52
582.42	44428.05
582.58	44732.32
582.74	44783.81
582.90	45064.67
583.06	44711.25
583.22	44989.78
583.38	45308.09
583.54	44793.17
583.70	44781.47
583.86	45158.30
584.02	44549.76
584.18	44814.24
584.34	44844.66
584.50	45184.04
584.66	44577.84
584.82	44741.68
584.98	45446.18
585.14	45031.91
585.30	44818.92
585.46	44856.37
585.62	44868.07
585.78	44957.01
585.94	44385.92
586.10	44320.38
586.26	44598.91
586.42	45067.02
586.58	44858.71
586.74	44477.20
586.90	44648.06
587.06	44519.33
587.22	45338.52
587.38	44568.48
587.54	45633.42
587.70	44912.54
587.86	44959.35
588.02	44982.76
588.18	45387.67
588.34	44910.20
588.49	44399.96
588.65	44659.76
588.81	44580.18
588.97	44762.75
589.13	44453.79
589.29	45205.11
589.45	45036.59
589.61	44959.35
589.77	45029.57
589.93	45153.62
590.08	44940.63
590.24	45467.25
590.40	44907.86
590.56	45373.63
590.72	44594.23
590.88	45059.99
591.04	44739.34
591.20	45514.06
591.35	44949.99
591.51	45535.12
591.67	44809.56
591.83	45319.79
591.99	44816.58
592.15	44959.35
592.31	44994.46
592.46	44816.58
592.62	45160.64
592.78	44959.35
592.94	45132.55
593.10	45059.99
593.26	45294.05
593.41	44823.60
593.57	44980.42
593.73	45017.86
593.89	45235.53
594.05	45240.21
594.20	45333.84
594.36	45373.63
594.52	45464.91
594.68	45071.70
594.84	45130.21
594.99	45528.10
595.15	45514.06
595.31	45530.44
595.47	45375.97
595.62	45308.09
595.78	44900.84
595.94	45272.98
596.10	45565.55
596.25	45240.21
596.41	45511.72
596.57	45144.25
596.73	45455.54
596.88	44697.21
597.04	45081.06
597.20	45160.64
597.36	45277.66
597.51	45663.85
597.67	45268.30
597.83	45387.67
597.99	45532.78
598.14	45663.85
598.30	45001.48
598.46	45064.67
598.61	45216.81
598.77	44828.28
598.93	45537.46
599.09	45308.09
599.24	45532.78
599.40	45556.19
599.56	45497.67
599.71	44935.95
599.87	45626.40
600.03	45368.94
600.18	45298.73
600.34	45450.86
600.50	45448.52
600.65	45464.91
600.81	45399.37
600.97	45717.68
601.12	45715.34
601.28	45593.64
601.44	45265.96
601.59	45177.02
601.75	45200.43
601.91	45457.88
602.06	45008.50
602.22	45827.69
602.37	45390.01
602.53	44964.03
602.69	45626.40
602.84	45319.79
603.00	45088.08
603.16	45242.56
603.31	45237.87
603.47	45338.52
603.62	45401.71
603.78	45249.58
603.94	45401.71
604.09	45263.62
604.25	45701.30
604.40	45146.59
604.56	45535.12
604.71	45254.26
604.87	44760.40
605.03	45429.80
605.18	44818.92
605.34	45172.34
605.49	44634.02
605.65	45200.43
605.80	45312.77
605.96	45249.58
606.12	45188.72
606.27	45502.35
606.43	45235.53
606.58	45734.07
606.74	45226.17
606.89	44823.60
607.05	44854.03
607.20	45050.63
607.36	44760.40
607.51	45617.04
607.67	45160.64
607.82	44715.93
607.98	44898.50
608.13	45256.60
608.29	45317.45
608.44	44903.18
608.60	44526.35
608.75	44914.88
608.91	44708.91
609.06	45083.40
609.22	44926.58
609.37	45219.15
609.53	45198.09
609.68	44905.52
609.84	44961.69
609.99	45256.60
610.15	44680.83
610.30	44591.89
610.46	44296.98
610.61	44346.13
610.76	44495.92
610.92	44671.46
611.07	44748.70
611.23	44685.51
611.38	44257.19
611.54	44472.52
611.69	44491.24
611.84	44172.93
612.00	44605.93
612.15	44250.17
612.31	44971.05
612.46	44966.37
612.62	44905.52
612.77	44493.58
612.92	44676.15
613.08	44694.87
613.23	44949.99
613.39	44531.03
613.54	44219.74
613.69	44835.30
613.85	44243.15
614.00	44921.90
614.15	44655.08
614.31	44236.12
614.46	45038.93
614.62	44556.78
614.77	44088.67
614.92	44240.81
615.08	44559.12
615.23	44114.42
615.38	44268.89
615.54	43702.48
615.69	43885.04
615.84	44076.97
616.00	43990.37
616.15	44224.42
616.30	44432.73
616.46	43906.11
616.61	43775.04
616.76	44107.40
616.92	43793.76
617.07	43622.90
617.22	43885.04
617.37	44037.18
617.53	44112.08
617.68	43917.81
617.83	43812.49
617.99	44271.23
618.14	43976.33
618.29	43761.00
618.45	43931.86
618.60	44107.40
618.75	43927.17
618.90	43756.32
619.06	44203.36
619.21	43971.64
619.36	44128.46
619.51	43878.02
619.67	43711.84
619.82	44147.18
619.97	44053.56
620.12	43210.97
620.28	43416.94
620.43	43807.81
620.58	43393.53
620.73	43562.05
620.89	43622.90
621.04	43580.78
621.19	43356.08
621.34	43122.03
621.49	43260.12
621.65	43381.83
621.80	43384.17
621.95	43110.33
622.10	43409.92
622.25	43393.53
622.41	43096.28
622.56	43250.76
622.71	43365.45
622.86	42923.08
623.01	43433.32
623.16	43297.57
623.32	43103.31
623.47	43555.03
623.62	43140.75
623.77	42934.79
623.92	43213.31
624.07	42377.74
624.23	42504.13
624.38	42841.17
624.53	42876.27
624.68	43147.78
624.83	42927.77
624.98	42590.73
625.13	42719.46
625.29	42436.25
625.44	42918.40
625.59	42518.17
625.74	42328.59
625.89	42450.30
626.04	41813.67
626.19	42543.92
626.34	42569.66
626.49	42887.98
626.65	42623.50
626.80	42183.48
626.95	42199.86
627.10	42108.58
627.25	41975.17
627.40	41907.29
627.55	41942.40
627.70	42007.94
627.85	41993.89
628.00	42099.22
628.15	42122.62
628.30	42457.32
628.45	42377.74
628.60	42195.18
628.76	42010.28
628.91	42415.19
629.06	41734.09
629.21	41984.53
629.36	41219.17
629.51	41797.29
629.66	41544.51
629.81	41579.62
629.96	41837.08
630.11	42073.47
630.26	41663.88
630.41	42131.98
630.56	42192.84
630.71	41813.67
630.86	41851.12
631.01	41581.96
631.16	41801.97
631.31	41455.57
631.46	41165.34
631.61	41771.54
631.76	41907.29
631.91	42068.79
632.06	41598.34
632.21	41207.47
632.36	41673.24
632.51	41347.90
632.66	41319.82
632.81	41329.18
632.96	41268.33
633.10	41153.64
633.25	41160.66
633.40	41394.71
633.55	41291.73
633.70	41596.00
633.85	40708.94
634.00	41305.77
634.15	41062.36
634.30	40755.75
634.45	41036.61
634.60	41221.52
634.75	41233.22
634.90	41055.34
635.05	40776.81
635.19	41031.93
635.34	41233.22
635.49	40685.53
635.64	40828.30
635.79	40559.14
635.94	40627.02
636.09	40430.41
636.24	40535.74
636.39	39974.01
636.53	40594.25
636.68	40474.88
636.83	40472.54
636.98	40814.26
637.13	40465.52
637.28	40601.27
637.43	40692.55
637.57	40800.22
637.72	40133.17
637.87	40439.78
638.02	40521.69
638.17	40399.99
638.32	40067.63
638.46	40076.99
638.61	40100.40
638.76	40458.50
638.91	39754.00
639.06	39817.19
639.20	40147.21
639.35	40751.07
639.50	40217.43
639.65	40645.74
639.80	40264.24
639.94	40041.88
640.09	40128.48
640.24	39793.79
640.39	39852.30
640.54	39548.03
640.68	40081.67
640.83	39868.69
640.98	39744.64
641.13	40048.91
641.27	39878.05
641.42	39484.84
641.57	40191.68
641.72	39643.99
641.86	39770.38
642.01	39374.83
642.16	39915.50
642.31	39473.13
642.45	39494.20
642.60	39393.56
642.75	39651.02
642.90	39391.22
643.04	39253.12
643.19	39316.32
643.34	39683.78
643.48	39409.94
643.63	39629.95
643.78	39297.59
643.93	39416.96
644.07	39096.31
644.22	39512.92
644.37	38890.34
644.51	38937.15
644.66	39271.85
644.81	39620.59
644.95	39199.29
645.10	39592.50
645.25	39290.57
645.39	39225.04
645.54	39707.19
645.69	39227.38
645.83	39115.03
645.98	38848.21
646.13	38773.31
646.27	39353.77
646.42	39159.50
646.57	39232.06
646.71	38920.77
646.86	39105.67
647.00	39110.35
647.15	38794.38
647.30	39157.16
647.44	39119.71
647.59	38677.35
647.74	38719.48
647.88	38534.58
648.03	38780.34
648.17	38990.98
648.32	38602.46
648.47	38838.85
648.61	38499.47
648.76	39112.69
648.90	38611.82
649.05	38829.49
649.20	38672.67
649.34	38679.69
649.49	38609.48
649.63	38003.28
649.78	38483.09
649.92	38466.70
650.07	38930.13
650.21	38464.36
650.36	38527.56
650.51	38410.53
650.65	38494.79
650.80	38953.54
650.94	38480.75
651.09	38501.81
651.23	38113.28
651.38	38132.01
651.52	38045.41
651.67	38433.94
651.81	38181.16
651.96	37675.60
652.10	38078.18
652.25	37809.01
652.39	38010.30
652.54	38270.10
652.68	37949.45
652.83	38377.76
652.97	38054.77
653.12	37799.65
653.26	38019.66
653.41	38389.47
653.55	37453.25
653.70	37331.54
653.84	38169.46
653.99	37640.50
654.13	37546.87
654.27	37776.25
654.42	37977.53
654.56	37860.51
654.71	37935.40
654.85	37394.74
655.00	38108.60
655.14	37305.80
655.29	37436.87
655.43	37134.94
655.57	37038.98
655.72	36980.46
655.86	36847.05
656.01	36961.74
656.15	37254.31
656.30	37415.80
656.44	37303.46
656.58	37003.87
656.73	37069.40
656.87	36919.61
657.01	36804.92
657.16	37141.96
657.30	36910.25
657.45	36877.48
657.59	36790.88
657.73	37041.32
657.88	36957.06
658.02	36383.63
658.16	36891.52
658.31	36947.70
658.45	37249.63
658.60	36917.27
658.74	36835.35
658.88	36699.60
659.03	36807.26
659.17	36830.67
659.31	36423.42
659.46	36563.85
659.60	36540.44
659.74	36233.83
659.89	36212.77
660.03	36559.17
660.17	36390.65
660.32	36261.92
660.46	36430.44
660.60	36512.36
660.74	35892.12
660.89	35842.96
661.03	35840.62
661.17	36030.21
661.32	35473.16
661.46	35634.66
661.60	35480.18
661.74	35524.65
661.89	35707.21
662.03	35859.35
662.17	35810.20
662.31	35484.86
662.46	35534.01
662.60	35428.69
662.74	36002.12
662.88	35192.30
663.03	35555.08
663.17	35597.21
663.31	35473.16
663.45	35405.28
663.60	34995.69
663.74	35058.88
663.88	35035.48
664.02	35009.73
664.17	35077.61
664.31	34787.38
664.45	34822.49
664.59	34815.47
664.73	34761.64
664.88	34948.88
665.02	34600.14
665.16	34873.98
665.30	34478.43
665.44	34761.64
665.59	34761.64
665.73	34015.01
665.87	34609.50
666.01	34508.86
666.15	34080.54
666.29	34305.23
666.44	34471.41
666.58	34092.24
666.72	34075.86
666.86	34600.14
667.00	34391.83
667.14	34527.58
667.28	33909.68
667.43	33785.63
667.57	33949.47
667.71	33968.19
667.85	33762.23
667.99	33879.25
668.13	33432.21
668.27	34178.84
668.41	33851.17
668.56	33397.10
668.70	33467.32
668.84	33710.74
668.98	33493.07
669.12	33216.88
669.26	33366.68
669.40	32837.72
669.54	33179.43
669.68	33270.72
669.82	32828.35
669.96	33083.47
670.10	32882.19
670.25	32910.27
670.39	32924.32
670.53	32732.39
670.67	32865.80
670.81	32723.03
670.95	32851.76
671.09	32917.29
671.23	32694.94
671.37	33088.15
671.51	32498.34
671.65	32198.75
671.79	32400.04
671.93	32088.74
672.07	32215.13
672.21	32238.54
672.35	31850.01
672.49	32664.52
672.63	32290.03
672.77	31630.00
672.91	32149.60
673.05	31325.73
673.19	31468.50
673.33	31213.38
673.47	31480.21
673.61	31606.59
673.75	31393.61
673.89	31068.27
674.03	31075.29
674.17	30742.94
674.31	30747.62
674.45	30745.28
674.59	31126.78
674.73	31395.95
674.87	31054.23
675.01	31016.78
675.15	30967.63
675.29	31166.57
675.43	30953.58
675.56	31164.23
675.70	30403.56
675.84	30167.16
675.98	29392.45
676.12	30120.35
676.26	30267.81
676.40	30146.10
676.54	29628.84
676.68	29862.90
676.82	29607.78
676.96	29575.01
677.10	29359.68
677.23	29273.08
677.37	29638.20
677.51	29631.18
677.65	29310.53
677.79	28622.41
677.93	29191.16
678.07	29305.85
678.21	28826.04
678.34	28591.98
678.48	28854.12
678.62	28718.37
678.76	28402.40
678.90	28243.24
679.04	28453.89
679.18	28474.96
679.31	28236.22
679.45	28355.59
679.59	27882.80
679.73	27922.59
679.87	27843.01
680.00	27538.74
680.14	27606.62
680.28	27590.24
680.42	27316.39
680.56	27281.28
680.70	27466.19
680.83	27295.33
680.97	26836.58
681.11	27161.92
681.25	26672.74
681.39	27386.61
681.52	26977.01
681.66	27061.27
681.80	26946.59
681.94	26749.98
682.07	26789.77
682.21	26389.54
682.35	26462.10
682.49	26469.12
682.62	26295.92
682.76	26050.16
682.90	25961.22
683.04	26377.84
683.17	26115.70
683.31	26064.21
683.45	25680.36
683.59	25813.77
683.72	25865.26
683.86	24994.58
684.00	25153.74
684.13	25542.27
684.27	25127.99
684.41	25577.37
684.55	25439.28
684.68	25116.29
684.82	24847.13
684.96	24535.84
685.09	24678.61
685.23	24570.94
685.37	24765.21
685.50	24306.46
685.64	24517.11
685.78	24491.37
685.91	24276.04
686.05	24219.86
686.19	23847.72
686.32	23992.83
686.46	23772.82
686.60	23534.09
686.73	23793.89
686.87	23454.51
687.01	23665.16
687.14	23140.88
687.28	23241.52
687.42	23126.83
687.55	22986.40
687.69	23243.86
687.82	22862.35
687.96	22920.87
688.10	22988.74
688.23	22885.76
688.37	22649.36
688.50	22277.22
688.64	22078.27
688.78	22522.98
688.91	22373.18
689.05	22359.14
689.18	22150.83
689.32	21867.63
689.46	22185.94
689.59	22190.62
689.73	22258.49
689.86	21736.56
690.00	21900.39
690.13	21872.31
690.27	21593.78
690.41	21275.47
690.54	20992.26
690.68	21472.07
690.81	21240.36
690.95	20863.54
691.08	20968.86
691.22	20992.26
691.35	21137.38
691.49	21116.31
691.62	21034.39
691.76	20800.34
691.89	20816.72
692.03	20786.30
692.16	20119.24
692.30	20194.14
692.43	20243.29
692.57	19983.49
692.70	20343.94
692.84	20205.84
692.97	19850.08
693.11	19805.61
693.24	19616.03
693.38	19653.48
693.51	19838.38
693.65	19646.46
693.78	19679.22
693.92	19969.45
694.05	19236.86
694.19	19290.70
694.32	19115.16
694.45	19124.52
694.59	19014.51
694.72	19084.73
694.86	18970.04
694.99	18834.29
695.13	18808.54
695.26	18649.39
695.39	18391.93
695.53	18237.45
695.66	18656.41
695.80	18380.23
695.93	18267.88
696.07	18113.41
696.20	18267.88
696.33	18221.07
696.47	18204.69
696.60	17949.57
696.73	17853.61
696.87	18038.51
697.00	17853.61
697.14	17830.20
697.27	17371.46
697.40	17628.92
697.54	17439.33
697.67	17376.14
697.80	17366.78
697.94	17338.69
698.07	17352.73
698.21	17088.25
698.34	17074.21
698.47	16826.11
698.61	16500.78
698.74	16435.24
698.87	16868.24
699.01	16479.71
699.14	16339.28
699.27	16552.27
699.40	16430.56
699.54	16039.69
699.67	16205.87
699.80	16100.55
699.94	16245.66
700.07	16278.43
700.20	15953.09
700.34	15777.55
700.47	15681.59
700.60	16037.35
700.73	15885.22
700.87	15822.02
701.00	15658.18
701.13	15499.03
701.26	15550.52
701.40	15562.22
701.53	15435.83
701.66	15272.00
701.79	15356.25
701.93	14909.21
702.06	14995.81
702.19	14916.23
702.32	15035.60
702.46	14871.76
702.59	14862.40
702.72	14567.49
702.85	14670.48
702.99	14597.92
703.12	14857.72
703.25	14520.68
703.38	14551.11
703.51	14232.80
703.65	14567.49
703.78	14181.31
703.91	14057.26
704.04	14263.22
704.17	14539.41
704.31	14099.39
704.44	13727.24
704.57	13591.49
704.70	13561.06
704.83	13713.20
704.96	13638.30
705.10	13769.37
705.23	13745.97
>>>>>End Processed Spectral Data<<<<<
