SpectraSuite Data File
++++++++++++++++++++++++++++++++++++
Date: Fri Oct 25 11:33:44 EDT 2013
User: price-jones
Dark Spectrum Present: No
Reference Spectrum Present: No
Number of Sampled Component Spectra: 1
Spectrometers: USB2+H05261
Integration Time (usec): 100000 (USB2+H05261)
Spectra Averaged: 1 (USB2+H05261)
Boxcar Smoothing: 0 (USB2+H05261)
Correct for Electrical Dark: No (USB2+H05261)
Strobe/Lamp Enabled: No (USB2+H05261)
Correct for Detector Non-linearity: No (USB2+H05261)
Correct for Stray Light: No (USB2+H05261)
Number of Pixels in Processed Spectrum: 2048
>>>>>Begin Processed Spectral Data<<<<<
365.73	262.14
365.92	262.14
366.12	262.14
366.32	166.18
366.52	170.86
366.72	224.69
366.91	133.41
367.11	170.86
367.31	182.56
367.51	135.75
367.70	142.77
367.90	236.39
368.10	191.92
368.30	156.82
368.49	180.22
368.69	229.37
368.89	138.09
369.09	191.92
369.28	283.20
369.48	220.01
369.68	334.70
369.87	208.31
370.07	250.44
370.27	306.61
370.47	374.49
370.66	423.64
370.86	486.83
371.06	524.28
371.25	564.07
371.45	475.13
371.65	573.43
371.84	566.41
372.04	554.71
372.24	622.58
372.44	613.22
372.63	575.77
372.83	540.66
373.03	631.94
373.22	603.86
373.42	613.22
373.62	685.78
373.81	564.07
374.01	645.99
374.21	650.67
374.40	653.01
374.60	681.10
374.79	669.39
374.99	692.80
375.19	620.24
375.38	594.50
375.58	650.67
375.78	688.12
375.97	727.91
376.17	634.29
376.37	753.65
376.56	718.54
376.76	695.14
376.95	723.23
377.15	741.95
377.35	695.14
377.54	734.93
377.74	655.35
377.93	702.16
378.13	690.46
378.33	744.29
378.52	706.84
378.72	697.48
378.91	711.52
379.11	812.17
379.31	706.84
379.50	606.20
379.70	826.21
379.89	758.33
380.09	718.54
380.28	741.95
380.48	650.67
380.68	837.91
380.87	814.51
381.07	699.82
381.26	709.18
381.46	767.70
381.65	772.38
381.85	723.23
382.04	777.06
382.24	772.38
382.43	793.44
382.63	826.21
382.83	777.06
383.02	816.85
383.22	826.21
383.41	746.63
383.61	823.87
383.80	858.98
384.00	795.78
384.19	807.48
384.39	793.44
384.58	884.72
384.78	870.68
384.97	781.74
385.17	837.91
385.36	873.02
385.56	741.95
385.75	858.98
385.95	903.45
386.14	826.21
386.34	875.36
386.53	812.17
386.72	812.17
386.92	905.79
387.11	912.81
387.31	983.02
387.50	856.64
387.70	868.34
387.89	887.06
388.09	856.64
388.28	861.32
388.48	868.34
388.67	999.41
388.86	926.85
389.06	910.47
389.25	983.02
389.45	884.72
389.64	938.55
389.84	980.68
390.03	1011.11
390.22	999.41
390.42	952.60
390.61	966.64
390.81	1020.47
391.00	971.32
391.19	1043.88
391.39	931.53
391.58	1050.90
391.78	947.92
391.97	1053.24
392.16	1011.11
392.36	990.05
392.55	1083.67
392.75	1057.92
392.94	1071.97
393.13	1060.26
393.33	1027.50
393.52	1053.24
393.71	1200.69
393.91	1121.12
394.10	1046.22
394.29	1118.78
394.49	1100.05
394.68	1081.33
394.88	1172.61
395.07	1100.05
395.26	1210.06
395.46	1184.31
395.65	1217.08
395.84	1205.38
396.04	1233.46
396.23	1219.42
396.42	1259.21
396.62	1203.04
396.81	1224.10
397.00	1228.78
397.19	1235.80
397.39	1233.46
397.58	1207.72
397.77	1240.48
397.97	1291.98
398.16	1214.74
398.35	1355.17
398.55	1256.87
398.74	1310.70
398.93	1301.34
399.12	1301.34
399.32	1327.08
399.51	1357.51
399.70	1444.11
399.90	1357.51
400.09	1336.45
400.28	1359.85
400.47	1343.47
400.67	1313.04
400.86	1359.85
401.05	1423.05
401.24	1472.20
401.44	1380.92
401.63	1387.94
401.82	1458.15
402.01	1406.66
402.21	1409.00
402.40	1460.49
402.59	1486.24
402.78	1490.92
402.97	1558.80
403.17	1678.16
403.36	1584.54
403.55	1519.01
403.74	1612.63
403.93	1586.88
404.13	1605.61
404.32	1624.33
404.51	1579.86
404.70	1650.08
404.89	1682.85
405.09	1673.48
405.28	1785.83
405.47	1650.08
405.66	1729.66
405.85	1717.95
406.05	1806.89
406.24	1781.15
406.43	1762.42
406.62	1708.59
406.81	1858.39
407.00	1734.34
407.20	1863.07
407.39	1755.40
407.58	1748.38
407.77	1872.43
407.96	1914.56
408.15	1891.15
408.34	1870.09
408.54	2036.27
408.73	1947.33
408.92	1940.30
409.11	1975.41
409.30	1966.05
409.49	2015.20
409.68	1919.24
409.87	2017.54
410.07	2090.10
410.26	2085.42
410.45	2113.50
410.64	2071.37
410.83	2150.95
411.02	2169.68
411.21	2111.16
411.40	2333.51
411.59	2120.53
411.78	2202.44
411.98	2167.34
412.17	2216.49
412.36	2239.89
412.55	2349.90
412.74	2340.54
412.93	2410.75
413.12	2377.98
413.31	2389.69
413.50	2427.14
413.69	2471.61
413.88	2553.52
414.07	2462.24
414.26	2551.18
414.45	2539.48
414.64	2499.69
414.83	2502.03
415.02	2663.53
415.22	2712.68
415.41	2670.55
415.60	2665.87
415.79	2712.68
415.98	2705.66
416.17	2708.00
416.36	2677.57
416.55	2715.02
416.74	2738.43
416.93	2743.11
417.12	2808.64
417.31	2892.90
417.50	2916.31
417.69	2960.78
417.88	2979.50
418.07	2981.84
418.26	2981.84
418.45	2981.84
418.64	3155.04
418.83	3087.17
419.02	3059.08
419.21	3077.80
419.39	3117.59
419.58	3073.12
419.77	3143.34
419.96	3141.00
420.15	3152.70
420.34	3246.32
420.53	3150.36
420.72	3208.87
420.91	3180.79
421.10	3236.96
421.29	3251.00
421.48	3171.43
421.67	3265.05
421.86	3176.11
422.05	3300.16
422.24	3246.32
422.43	3403.14
422.61	3314.20
422.80	3407.82
422.99	3428.88
423.18	3414.84
423.37	3473.36
423.56	3379.73
423.75	3435.91
423.94	3365.69
424.13	3173.77
424.32	3281.43
424.50	3445.27
424.69	3536.55
424.88	3428.88
425.07	3435.91
425.26	3339.94
425.45	3503.78
425.64	3456.97
425.83	3487.40
426.01	3421.86
426.20	3389.10
426.39	3398.46
426.58	3571.66
426.77	3485.06
426.96	3487.40
427.15	3510.80
427.33	3485.06
427.52	3632.51
427.71	3576.34
427.90	3578.68
428.09	3604.42
428.28	3775.28
428.46	3716.77
428.65	3756.56
428.84	3840.82
429.03	3768.26
429.22	3695.71
429.40	3838.48
429.59	3744.86
429.78	3777.62
429.97	3681.66
430.16	3761.24
430.34	3822.09
430.53	3896.99
430.72	3920.40
430.91	3922.74
431.10	3824.44
431.28	3901.67
431.47	4063.17
431.66	3981.25
431.85	4025.72
432.03	4056.15
432.22	4105.30
432.41	4175.52
432.60	4126.36
432.79	4023.38
432.97	4154.45
433.16	4142.75
433.35	4107.64
433.54	4170.83
433.72	4234.03
433.91	4234.03
434.10	4245.73
434.28	4093.60
434.47	4365.10
434.66	4360.42
434.85	4215.30
435.03	4269.14
435.22	4386.16
435.41	4372.12
435.59	4465.74
435.78	4542.98
435.97	4423.61
436.16	4404.89
436.34	4404.89
436.53	4505.53
436.72	4585.11
436.90	4404.89
437.09	4519.57
437.28	4432.97
437.46	4493.83
437.65	4533.62
437.84	4608.51
438.02	4713.84
438.21	4622.56
438.40	4531.28
438.58	4601.49
438.77	4723.20
438.96	4774.69
439.14	4849.59
439.33	4952.57
439.52	4940.87
439.70	4987.68
439.89	5001.72
440.08	5093.01
440.26	5041.51
440.45	4985.34
440.63	5041.51
440.82	5228.76
441.01	4903.42
441.19	5177.26
441.38	5249.82
441.57	5221.74
441.75	5423.02
441.94	5371.53
442.12	5460.47
442.31	5434.72
442.50	5390.25
442.68	5359.83
442.87	5600.90
443.05	5549.41
443.24	5416.00
443.43	5472.17
443.61	5607.92
443.80	5603.24
443.98	5462.81
444.17	5373.87
444.35	5568.13
444.54	5680.48
444.73	5720.27
444.91	5610.26
445.10	5902.83
445.28	5785.80
445.47	5668.78
445.65	5626.65
445.84	5785.80
446.02	5790.49
446.21	5841.98
446.39	5790.49
446.58	5713.25
446.77	5680.48
446.95	5628.99
447.14	5764.74
447.32	5767.08
447.51	5650.05
447.69	5767.08
447.88	5778.78
448.06	5837.30
448.25	5844.32
448.43	5839.64
448.62	5767.08
448.80	5724.95
448.99	5849.00
449.17	5867.72
449.36	5919.21
449.54	5949.64
449.73	6047.94
449.91	6183.70
450.10	6017.52
450.28	6033.90
450.46	6193.06
450.65	6176.67
450.83	6319.45
451.02	6146.25
451.20	6162.63
451.39	6244.55
451.57	6188.38
451.76	6239.87
451.94	6050.28
452.13	6274.98
452.31	6279.66
452.49	6188.38
452.68	6492.65
452.86	6291.36
453.05	6459.88
453.23	6462.22
453.42	6340.51
453.60	6235.19
453.78	6455.20
453.97	6384.98
454.15	6511.37
454.34	6436.47
454.52	6544.14
454.70	6621.38
454.89	6420.09
455.07	6717.34
455.26	6724.36
455.44	6726.70
455.62	6750.10
455.81	6693.93
455.99	6825.00
456.17	6895.22
456.36	6733.72
456.54	6939.69
456.73	6829.68
456.91	6902.24
457.09	7075.44
457.28	7096.50
457.46	7002.88
457.64	7166.72
457.83	7171.40
458.01	7052.03
458.19	7211.19
458.38	7143.32
458.56	7222.89
458.74	7005.22
458.93	7155.02
459.11	7265.02
459.29	7358.64
459.48	7466.31
459.66	7047.35
459.84	7241.62
460.03	7365.67
460.21	7325.88
460.39	7403.11
460.57	7609.08
460.76	7611.42
460.94	7410.14
461.12	7564.61
461.31	7529.50
461.49	7468.65
461.67	7616.10
461.85	7611.42
462.04	7573.97
462.22	7943.78
462.40	7770.58
462.59	7744.83
462.77	7805.69
462.95	7939.10
463.13	7705.04
463.32	7786.96
463.50	7758.88
463.68	7772.92
463.86	8035.06
464.05	7688.66
464.23	7927.39
464.41	7889.95
464.59	7824.41
464.78	8126.34
464.96	7936.76
465.14	8067.83
465.32	8004.63
465.50	8292.52
465.69	8269.11
465.87	7950.80
466.05	8210.60
466.23	8234.00
466.41	8187.19
466.60	8482.10
466.78	8112.30
466.96	8290.18
467.14	8205.92
467.32	8362.73
467.51	8430.61
467.69	8273.79
467.87	8175.49
468.05	8458.70
468.23	8217.62
468.41	8187.19
468.60	8531.25
468.78	8470.40
468.96	8528.91
469.14	8514.87
469.32	8659.98
469.50	8587.43
469.69	8872.97
469.87	8919.78
470.05	8755.94
470.23	9018.08
470.41	8641.26
470.59	8997.02
470.77	8898.72
470.95	8863.61
471.14	8961.91
471.32	8910.42
471.50	9406.61
471.68	9149.15
471.86	9118.73
472.04	9242.78
472.22	9387.89
472.40	9053.19
472.58	9289.59
472.77	9317.67
472.95	9378.53
473.13	9774.08
473.31	9458.10
473.49	9507.26
473.67	9446.40
473.85	9621.94
474.03	9806.84
474.21	9856.00
474.39	9982.38
474.57	9584.49
474.75	9827.91
474.93	9935.57
475.12	9937.91
475.30	10146.22
475.48	10230.48
475.66	10106.43
475.84	10225.80
476.02	10214.10
476.20	10267.93
476.38	10492.62
476.56	10494.96
476.74	10553.48
476.92	10637.73
477.10	10520.71
477.28	10623.69
477.46	10623.69
477.64	10817.96
477.82	11119.89
478.00	11442.88
478.18	11225.21
478.36	11314.15
478.54	11344.58
478.72	11166.70
478.90	11730.76
479.08	11613.74
479.26	11634.80
479.44	11658.21
479.62	11955.46
479.80	11665.23
479.98	12072.48
480.16	12294.83
480.34	12138.02
480.52	12196.53
480.70	12292.49
480.88	12334.62
481.06	12355.69
481.24	12453.99
481.41	12594.42
481.59	12706.77
481.77	12966.57
481.95	13090.62
482.13	13097.64
482.31	12716.13
482.49	13263.82
482.67	13483.83
482.85	13343.39
483.03	13429.99
483.21	13848.95
483.39	13804.48
483.57	13916.83
483.74	14050.24
483.92	14003.43
484.10	14183.65
484.28	14476.21
484.46	14366.21
484.64	14764.10
484.82	14581.54
485.00	14698.56
485.18	14934.96
485.35	15126.88
485.53	15112.84
485.71	15218.16
485.89	15503.71
486.07	15304.76
486.25	15489.67
486.43	15536.48
486.61	15611.37
486.78	15763.51
486.96	15960.11
487.14	16276.09
487.32	16112.25
487.50	16191.83
487.68	16203.53
487.85	16594.40
488.03	16730.15
488.21	17259.11
488.39	16840.15
488.57	17228.68
488.75	17165.49
488.92	17331.67
489.10	17539.97
489.28	17745.94
489.46	17638.28
489.64	17837.22
489.81	18270.22
489.99	18146.17
490.17	18293.63
490.35	18321.71
490.53	18628.32
490.70	18745.35
490.88	18956.00
491.06	18920.89
491.24	19208.78
491.41	19126.86
491.59	19321.12
491.77	19096.43
491.95	19360.91
492.13	19311.76
492.30	19714.33
492.48	19955.41
492.66	19955.41
492.84	20112.22
493.01	20152.01
493.19	20215.21
493.37	20512.46
493.54	20741.83
493.72	20739.49
493.90	20821.41
494.08	20805.02
494.25	20795.66
494.43	21027.37
494.61	20996.95
494.79	21333.98
494.96	21373.77
495.14	21678.04
495.32	21418.24
495.49	21642.93
495.67	21631.23
495.85	21888.69
496.02	22036.14
496.20	22368.50
496.38	22375.52
496.55	22609.58
496.73	22899.80
496.91	22438.72
497.09	22766.39
497.26	23110.45
497.44	23152.58
497.62	23349.18
497.79	23351.52
497.97	23461.53
498.14	23508.34
498.32	23754.10
498.50	24072.41
498.67	23847.72
498.85	23683.88
499.03	24166.03
499.20	24154.33
499.38	24240.93
499.56	24409.45
499.73	24898.62
499.91	24596.69
500.08	24910.32
500.26	24730.10
500.44	24926.71
500.61	25186.50
500.79	24870.53
500.97	25149.06
501.14	25465.03
501.32	25539.93
501.49	25259.06
501.67	25240.34
501.84	25663.97
502.02	25729.51
502.20	25488.43
502.37	25701.42
502.55	25846.54
502.72	25902.71
502.90	25984.63
503.07	25516.52
503.25	25949.52
503.43	26183.57
503.60	26417.63
503.78	26560.40
503.95	26768.71
504.13	26710.19
504.30	26492.52
504.48	27068.30
504.65	26534.65
504.83	27192.34
505.01	27288.31
505.18	26925.52
505.36	27335.12
505.53	27321.07
505.71	27438.10
505.88	27857.06
506.06	27229.79
506.23	27751.73
506.41	27943.66
506.58	27913.23
506.76	27758.75
506.93	28247.93
507.11	28013.87
507.28	28283.03
507.46	28144.94
507.63	28425.81
507.81	28659.86
507.98	28411.76
508.16	28629.43
508.33	28830.72
508.50	29034.35
508.68	28875.19
508.85	29097.54
509.03	29139.67
509.20	28996.90
509.38	29310.53
509.55	29296.49
509.73	29376.06
509.90	29369.04
510.08	29109.24
510.25	29289.46
510.42	29874.60
510.60	29935.45
510.77	30284.19
510.95	29982.26
511.12	29940.13
511.30	30125.04
511.47	29907.37
511.64	30118.01
511.82	30391.86
511.99	30169.51
512.17	30710.17
512.34	30698.47
512.51	30911.46
512.69	31005.08
512.86	30808.47
513.04	30986.35
513.21	30939.54
513.38	31379.56
513.56	30986.35
513.73	30909.11
513.90	31302.32
514.08	30986.35
514.25	31545.74
514.43	31747.03
514.60	31417.01
514.77	31800.86
514.95	31711.92
515.12	31688.51
515.29	31782.13
515.47	32121.51
515.64	32126.19
515.81	32156.62
515.99	32306.41
516.16	32634.09
516.33	32353.23
516.51	32566.21
516.68	32395.35
516.85	32320.46
517.03	32854.10
517.20	32835.38
517.37	32409.40
517.54	33017.94
517.72	32788.56
517.89	32999.21
518.06	33116.24
518.24	33130.28
518.41	33186.46
518.58	33200.50
518.75	33383.06
518.93	33755.21
519.10	33483.70
519.27	33392.42
519.45	33439.23
519.62	33757.55
519.79	33773.93
519.96	34040.75
520.14	33846.49
520.31	33696.69
520.48	33619.46
520.65	33951.81
520.83	34513.54
521.00	34621.20
521.17	34539.29
521.34	34410.56
521.52	34459.71
521.69	34700.78
521.86	34864.62
522.03	35077.61
522.20	34724.19
522.38	34834.19
522.55	35002.71
522.72	34857.60
522.89	35309.32
523.07	35557.42
523.24	35480.18
523.41	35519.97
523.58	35222.72
523.75	35758.70
523.92	35718.92
524.10	35487.20
524.27	35892.12
524.44	35852.33
524.61	36306.39
524.78	35974.03
524.96	36133.19
525.13	35978.72
525.30	35864.03
525.47	36201.07
525.64	36121.49
525.81	36512.36
525.98	36601.30
526.16	36444.48
526.33	36215.11
526.50	36825.99
526.67	36519.38
526.84	36715.98
527.01	36451.50
527.18	36720.66
527.36	36662.15
527.53	36833.01
527.70	37661.56
527.87	37380.70
528.04	36975.78
528.21	36987.49
528.38	37408.78
528.55	37516.45
528.72	36966.42
528.89	37635.81
529.07	37090.47
529.24	37378.36
529.41	37759.86
529.58	37696.67
529.75	37397.08
529.92	37649.86
530.09	37804.33
530.26	37785.61
530.43	38108.60
530.60	37476.66
530.77	37837.10
530.94	37820.72
531.11	37848.80
531.28	37963.49
531.46	38108.60
531.63	38361.38
531.80	38160.09
531.97	38431.60
532.14	38487.77
532.31	38635.22
532.48	38789.70
532.65	38703.10
532.82	38546.28
532.99	38703.10
533.16	38581.39
533.33	39161.84
533.50	38855.23
533.67	38873.96
533.84	38253.72
534.01	39019.07
534.18	39019.07
534.35	39482.50
534.52	38822.47
534.69	39157.16
534.86	39093.97
535.03	39636.97
535.20	39651.02
535.37	39257.81
535.54	39576.12
535.71	39526.97
535.88	39578.46
536.05	39892.09
536.22	40102.74
536.38	39620.59
536.55	40133.17
536.72	39440.37
536.89	39599.52
537.06	39728.25
537.23	40285.30
537.40	40041.88
537.57	40098.06
537.74	39981.03
537.91	40467.86
538.08	39885.07
538.25	39791.45
538.42	40273.60
538.59	40395.31
538.75	40233.81
538.92	40332.11
539.09	40727.66
539.26	40636.38
539.43	40739.36
539.60	40917.25
539.77	40751.07
539.94	40627.02
540.11	40390.62
540.28	40673.83
540.44	40591.91
540.61	40577.87
540.78	40975.76
540.95	40837.67
541.12	40870.43
541.29	41130.23
541.46	41071.72
541.62	41270.67
541.79	41383.01
541.96	40823.62
542.13	41247.26
542.30	41074.06
542.47	41214.49
542.63	41649.83
542.80	41722.39
542.97	41993.89
543.14	41783.24
543.31	41834.74
543.48	42293.48
543.64	42216.24
543.81	42192.84
543.98	42417.53
544.15	42164.75
544.32	42045.38
544.48	42632.86
544.65	42260.71
544.82	42609.45
544.99	42265.39
545.16	42120.28
545.32	42686.69
545.49	42618.81
545.66	42787.33
545.83	42504.13
546.00	42543.92
546.16	42717.12
546.33	42780.31
546.50	42136.66
546.67	42895.00
546.83	42197.52
547.00	42962.87
547.17	42902.02
547.34	43075.22
547.50	42981.60
547.67	43402.89
547.84	42745.20
548.00	42897.34
548.17	43393.53
548.34	42972.24
548.51	43367.79
548.67	43636.95
548.84	43292.89
549.01	43274.16
549.18	43239.06
549.34	43634.61
549.51	43707.16
549.68	43653.33
549.84	43150.12
550.01	43416.94
550.18	43484.81
550.34	43433.32
550.51	43749.29
550.68	43775.04
550.84	43569.07
551.01	43845.26
551.18	43943.56
551.34	43957.60
551.51	44147.18
551.68	43819.51
551.84	43746.95
552.01	43842.92
552.18	43988.03
552.34	44194.00
552.51	44238.47
552.68	43540.99
552.84	44137.82
553.01	44561.46
553.18	44041.86
553.34	44186.97
553.51	44224.42
553.67	44231.44
553.84	44589.55
554.01	44608.27
554.17	44580.18
554.34	44636.36
554.51	44535.71
554.67	44444.43
554.84	44325.07
555.00	44280.60
555.17	44369.54
555.33	44964.03
555.50	44591.89
555.67	44783.81
555.83	44439.75
556.00	44854.03
556.16	45188.72
556.33	45404.05
556.50	44999.14
556.66	45081.06
556.83	44907.86
556.99	45240.21
557.16	45263.62
557.32	45219.15
557.49	45015.52
557.65	45052.97
557.82	45303.41
557.98	45390.01
558.15	45408.73
558.32	45677.90
558.48	44720.62
558.65	45523.42
558.81	45413.41
558.98	45200.43
559.14	45371.28
559.31	45441.50
559.47	45593.64
559.64	44966.37
559.80	45317.45
559.97	45904.93
560.13	45418.10
560.30	45162.98
560.46	45958.76
560.63	45689.60
560.79	46131.96
560.96	45528.10
561.12	45617.04
561.29	45865.14
561.45	46092.17
561.61	45907.27
561.78	45769.18
561.94	45450.86
562.11	45500.01
562.27	45675.55
562.44	45771.52
562.60	45928.33
562.77	45619.38
562.93	45769.18
563.10	45921.31
563.26	45766.84
563.42	46534.53
563.59	45750.45
563.75	45661.51
563.92	45832.37
564.08	45869.82
564.24	46108.55
564.41	45867.48
564.57	45972.80
564.74	46387.08
564.90	46153.02
565.07	46092.17
565.23	46150.68
565.39	46007.91
565.56	46373.03
565.72	46424.53
565.88	46270.05
566.05	46143.66
566.21	46445.59
566.38	46382.40
566.54	46129.62
566.70	46490.06
566.87	46169.41
567.03	46382.40
567.19	46529.85
567.36	46469.00
567.52	46897.31
567.68	46815.40
567.85	46536.87
568.01	46232.60
568.17	46625.81
568.34	46560.28
568.50	46539.21
568.66	46188.13
568.83	46686.67
568.99	46344.95
569.15	46665.60
569.32	46349.63
569.48	46541.55
569.64	46658.58
569.81	46564.96
569.97	46483.04
570.13	46714.75
570.30	46522.83
570.46	46923.06
570.62	46958.17
570.78	46738.16
570.95	46801.35
571.11	47203.92
571.27	46623.47
571.43	46621.13
571.60	46848.16
571.76	47107.96
571.92	46422.19
572.09	46909.02
572.25	46681.98
572.41	46588.36
572.57	47009.66
572.74	47210.95
572.90	46794.33
573.06	47349.04
573.22	46930.08
573.38	47192.22
573.55	47304.57
573.71	47241.37
573.87	47210.95
574.03	46623.47
574.20	46937.10
574.36	46838.80
574.52	47047.11
574.68	47117.32
574.84	47086.90
575.01	47250.74
575.17	47194.56
575.33	47112.64
575.49	47189.88
575.65	47435.64
575.82	47164.14
575.98	46927.74
576.14	47339.68
576.30	47533.94
576.46	47201.58
576.62	47250.74
576.79	47194.56
576.95	46838.80
577.11	46937.10
577.27	47063.49
577.43	47681.39
577.59	47452.02
577.75	46958.17
577.92	46981.57
578.08	47042.43
578.24	47466.06
578.40	47229.67
578.56	47154.77
578.72	47508.19
578.88	47021.36
579.04	47107.96
579.21	47250.74
579.37	47047.11
579.53	47180.52
579.69	47182.86
579.85	46827.10
580.01	47168.82
580.17	47063.49
580.33	47498.83
580.49	47573.73
580.65	47419.25
580.82	47351.38
580.98	47419.25
581.14	46721.77
581.30	47674.37
581.46	47585.43
581.62	47278.82
581.78	47119.66
581.94	47304.57
582.10	47234.35
582.26	47260.10
582.42	47381.80
582.58	47358.40
582.74	47395.85
582.90	47564.37
583.06	47491.81
583.22	47363.08
583.38	47505.85
583.54	47742.25
583.70	47405.21
583.86	47723.52
584.02	47089.24
584.18	47400.53
584.34	47585.43
584.50	47885.02
584.66	47585.43
584.82	47650.97
584.98	47547.98
585.14	47679.05
585.30	47241.37
585.46	47421.59
585.62	47459.04
585.78	47744.59
585.94	47625.22
586.10	47606.50
586.26	47129.03
586.42	47295.21
586.58	47746.93
586.74	47657.99
586.90	47475.43
587.06	47086.90
587.22	47779.70
587.38	47634.58
587.54	47718.84
587.70	48266.53
587.86	47721.18
588.02	47292.86
588.18	47772.67
588.34	47601.82
588.49	47320.95
588.65	47524.58
588.81	47515.22
588.97	47814.80
589.13	47782.04
589.29	47758.63
589.45	47550.32
589.61	47655.65
589.77	48039.50
589.93	47594.79
590.08	47459.04
590.24	47763.31
590.40	47674.37
590.56	48236.10
590.72	47835.87
590.88	47620.54
591.04	47735.23
591.20	48205.67
591.35	48193.97
591.51	48083.97
591.67	47711.82
591.83	48329.72
591.99	48217.38
592.15	47606.50
592.31	47955.24
592.46	47730.54
592.62	47576.07
592.78	47999.71
592.94	48172.91
593.10	48374.19
593.26	47931.83
593.41	48088.65
593.57	48196.31
593.73	47938.85
593.89	48561.44
594.05	48711.23
594.20	48226.74
594.36	48189.29
594.52	48266.53
594.68	48325.04
594.84	47903.74
594.99	48409.30
595.15	48079.28
595.31	48472.49
595.47	47775.02
595.62	48275.89
595.78	48177.59
595.94	48112.05
596.10	48266.53
596.25	48177.59
596.41	48516.96
596.57	47964.60
596.73	48086.31
596.88	48257.17
597.04	48123.75
597.20	48271.21
597.36	48465.47
597.51	48088.65
597.67	48252.48
597.83	47772.67
597.99	48624.63
598.14	47917.79
598.30	48264.19
598.46	48193.97
598.61	48392.92
598.77	47971.62
598.93	48406.96
599.09	48357.81
599.24	48659.74
599.40	48175.25
599.56	48554.41
599.71	48549.73
599.87	48699.53
600.03	48346.11
600.18	48397.60
600.34	48271.21
600.50	48643.35
600.65	48126.10
600.81	48392.92
600.97	48739.32
601.12	48402.28
601.28	48346.11
601.44	48388.24
601.59	48055.88
601.75	47966.94
601.91	48715.91
602.06	48189.29
602.22	48444.41
602.37	48257.17
602.53	48610.59
602.69	48722.93
602.84	48280.57
603.00	48264.19
603.16	48158.86
603.31	48053.54
603.47	48498.24
603.62	48402.28
603.78	48488.88
603.94	48456.11
604.09	48451.43
604.25	48451.43
604.40	48615.27
604.56	48250.14
604.71	48301.64
604.87	48362.49
605.03	48381.21
605.18	48413.98
605.34	48603.56
605.49	48186.95
605.65	48411.64
605.80	48217.38
605.96	48119.07
606.12	48538.03
606.27	48516.96
606.43	48252.48
606.58	48563.78
606.74	48072.26
606.89	48114.39
607.05	48048.86
607.20	48406.96
607.36	48318.02
607.51	48299.30
607.67	48172.91
607.82	48219.72
607.98	48123.75
608.13	48303.98
608.29	48051.20
608.44	48179.93
608.60	47999.71
608.75	48378.87
608.91	48381.21
609.06	47995.03
609.22	48736.98
609.37	48004.39
609.53	48039.50
609.68	48395.26
609.84	48032.47
609.99	48334.40
610.15	48027.79
610.30	47847.57
610.46	47995.03
610.61	47892.04
610.76	48439.73
610.92	48090.99
611.07	47737.57
611.23	47882.68
611.38	48238.44
611.54	48051.20
611.69	47992.68
611.84	48114.39
612.00	48502.92
612.15	47601.82
612.31	48060.56
612.46	47672.03
612.62	48032.47
612.77	47929.49
612.92	48013.75
613.08	47791.40
613.23	47702.46
613.39	47880.34
613.54	47540.96
613.69	48231.42
613.85	47735.23
614.00	47374.78
614.15	47943.53
614.31	47655.65
614.46	47622.88
614.62	47866.30
614.77	47222.65
614.92	47672.03
615.08	47501.17
615.23	47728.20
615.38	48130.78
615.54	47592.45
615.69	48137.80
615.84	47899.06
616.00	48128.44
616.15	47821.83
616.30	47576.07
616.46	47536.28
616.61	47316.27
616.76	47657.99
616.92	47491.81
617.07	47435.64
617.22	47786.72
617.37	47510.53
617.53	47501.17
617.68	47264.78
617.83	47365.42
617.99	47899.06
618.14	47477.77
618.29	47271.80
618.45	47152.43
618.60	47201.58
618.75	47152.43
618.90	47224.99
619.06	47056.47
619.21	47152.43
619.36	47323.29
619.51	47136.05
619.67	47117.32
619.82	47058.81
619.97	47000.30
620.12	47173.50
620.28	47178.18
620.43	46995.62
620.58	47367.76
620.73	47388.83
620.89	47196.90
621.04	47646.29
621.19	46981.57
621.34	46717.09
621.49	46791.99
621.65	47000.30
621.80	46909.02
621.95	47220.31
622.10	46815.40
622.25	46871.57
622.41	46511.13
622.56	46820.08
622.71	46588.36
622.86	46955.83
623.01	47203.92
623.16	46333.24
623.32	46504.10
623.47	46651.56
623.62	46808.37
623.77	46513.47
623.92	47026.04
624.07	46667.94
624.23	46586.02
624.38	46630.49
624.53	46555.60
624.68	46471.34
624.83	46085.15
624.98	46546.23
625.13	45940.04
625.29	46005.57
625.44	46391.76
625.59	46265.37
625.74	46143.66
625.89	46057.06
626.04	46499.42
626.19	46237.28
626.34	46396.44
626.49	45617.04
626.65	45593.64
626.80	46167.07
626.95	46061.74
627.10	45738.75
627.25	46344.95
627.40	46010.25
627.55	46227.92
627.70	45911.95
627.85	46036.00
628.00	46251.33
628.15	46040.68
628.30	45762.15
628.45	45338.52
628.60	45331.50
628.76	45546.82
628.91	45696.62
629.06	45380.65
629.21	45429.80
629.36	45631.08
629.51	45830.03
629.66	45806.62
629.81	45624.06
629.96	46131.96
630.11	45586.61
630.26	45284.68
630.41	45544.48
630.56	45436.82
630.71	45675.55
630.86	45179.36
631.01	44952.33
631.16	45455.54
631.31	45205.11
631.46	45382.99
631.61	45434.48
631.76	45722.37
631.91	45275.32
632.06	45717.68
632.21	45516.40
632.36	45677.90
632.51	44872.75
632.66	45446.18
632.81	44863.39
632.96	45443.84
633.10	45127.87
633.25	45200.43
633.40	44879.77
633.55	45848.75
633.70	44811.90
633.85	44678.49
634.00	44275.91
634.15	44772.11
634.30	44767.43
634.45	44931.26
634.60	44678.49
634.75	45092.76
634.90	44835.30
635.05	44924.24
635.19	44570.82
635.34	44863.39
635.49	44933.60
635.64	44868.07
635.79	44729.98
635.94	44769.77
636.09	44971.05
636.24	44353.15
636.39	44797.85
636.53	44811.90
636.68	44509.97
636.83	43976.33
636.98	44587.21
637.13	44210.38
637.28	44538.05
637.43	43892.07
637.57	44648.06
637.72	44304.00
637.87	44573.16
638.02	44502.95
638.17	44601.25
638.32	44322.72
638.46	44055.90
638.61	43840.57
638.76	44154.21
638.91	44304.00
639.06	44109.74
639.20	43679.08
639.35	43945.90
639.50	43854.62
639.65	43931.86
639.80	43906.11
639.94	44114.42
640.09	44449.11
640.24	44163.57
640.39	43388.85
640.54	43753.97
640.68	44011.43
640.83	43824.19
640.98	43753.97
641.13	43772.70
641.27	43924.83
641.42	43859.30
641.57	43711.84
641.72	43889.73
641.86	43459.07
642.01	43288.21
642.16	43386.51
642.31	43143.09
642.45	43428.64
642.60	42990.96
642.75	43267.14
642.90	43377.15
643.04	43395.87
643.19	43629.93
643.34	43496.52
643.48	43283.53
643.63	43194.59
643.78	43255.44
643.93	43442.68
644.07	43288.21
644.22	43154.80
644.37	43047.13
644.51	43459.07
644.66	43253.10
644.81	42920.74
644.95	43250.76
645.10	42960.53
645.25	42871.59
645.39	42895.00
645.54	42801.38
645.69	42923.08
645.83	42710.10
645.98	42941.81
646.13	42749.88
646.27	42698.39
646.42	42557.96
646.57	42614.13
646.71	43138.41
646.86	43196.93
647.00	42773.29
647.15	42604.77
647.30	43430.98
647.44	42728.82
647.59	42368.38
647.74	42546.26
647.88	42628.18
648.03	42937.13
648.17	43077.56
648.32	42696.05
648.47	42756.91
648.61	42085.17
648.76	42719.46
648.90	42253.69
649.05	42354.33
649.20	42529.87
649.34	43089.26
649.49	42595.41
649.63	42298.16
649.78	42066.45
649.92	42471.36
650.07	42801.38
650.21	42813.08
650.36	42817.76
650.51	42054.75
650.65	42328.59
650.80	42260.71
650.94	42410.51
651.09	42602.43
651.23	41989.21
651.38	42239.65
651.52	41703.67
651.67	41841.76
651.81	41666.22
651.96	42660.94
652.10	41729.41
652.25	41432.16
652.39	41708.35
652.54	41799.63
652.68	42244.33
652.83	42305.18
652.97	42052.41
653.12	41823.03
653.26	41972.83
653.41	42260.71
653.55	41797.29
653.70	41862.82
653.84	41792.61
653.99	42010.28
654.13	41776.22
654.27	41689.62
654.42	41823.03
654.56	41418.12
654.71	41968.15
654.85	41813.67
655.00	41731.75
655.14	41909.63
655.29	42010.28
655.43	41888.57
655.57	41530.47
655.72	41549.19
655.86	41434.50
656.01	41329.18
656.15	40851.71
656.30	41177.04
656.44	41521.10
656.58	41317.48
656.73	41078.74
656.87	40847.03
657.01	40713.62
657.16	41251.94
657.30	41298.75
657.45	40849.37
657.59	40762.77
657.73	40659.79
657.88	41034.27
658.02	40994.48
658.16	40996.82
658.31	40870.43
658.45	40671.49
658.60	40629.36
658.74	40418.71
658.88	40961.72
659.03	40982.78
659.17	40580.21
659.31	40664.47
659.46	40364.88
659.60	40594.25
659.74	40182.32
659.89	39873.37
660.03	40196.36
660.17	40418.71
660.32	40486.59
660.46	40149.55
660.60	39695.49
660.74	40273.60
660.89	40432.75
661.03	39868.69
661.17	39854.64
661.32	39866.34
661.46	40072.31
661.60	39627.61
661.74	39611.23
661.89	39496.54
662.03	39835.92
662.17	39821.87
662.31	39461.43
662.46	39519.95
662.60	39306.96
662.74	39054.18
662.88	39189.93
663.03	39110.35
663.17	39070.56
663.31	38948.85
663.45	39290.57
663.60	39611.23
663.74	39306.96
663.88	39161.84
664.02	38745.23
664.17	38998.01
664.31	38541.60
664.45	38323.93
664.59	38618.84
664.73	38382.45
664.88	38583.73
665.02	37893.27
665.16	38447.98
665.30	38356.70
665.44	38204.56
665.59	38024.34
665.73	38314.57
665.87	38031.36
666.01	38225.63
666.15	38300.53
666.29	37762.20
666.44	38309.89
666.58	37947.11
666.72	37642.84
666.86	37710.71
667.00	37502.40
667.14	37699.01
667.28	37809.01
667.43	37614.75
667.57	37574.96
667.71	38103.92
667.85	38169.46
667.99	37429.85
668.13	37266.01
668.27	36891.52
668.41	36872.80
668.56	36737.05
668.70	36921.95
668.84	36790.88
668.98	36849.39
669.12	37223.88
669.26	36816.63
669.40	36818.97
669.54	36753.43
669.68	36914.93
669.82	36652.79
669.96	36301.71
670.10	36451.50
670.25	36034.89
670.39	36257.24
670.53	36559.17
670.67	36245.54
670.81	36718.32
670.95	36098.08
671.09	36128.51
671.23	35772.75
671.37	35728.28
671.51	35611.25
671.65	35981.06
671.79	35718.92
671.93	35585.50
672.07	35852.33
672.21	35363.15
672.35	35318.68
672.49	35400.60
672.63	35367.84
672.77	35182.93
672.91	35337.41
673.05	35255.49
673.19	34995.69
673.33	34782.70
673.47	34813.13
673.61	34600.14
673.75	34565.03
673.89	34586.10
674.03	34213.95
674.17	34218.63
674.31	34038.41
674.45	33958.83
674.59	33715.42
674.73	33666.27
674.87	33809.04
675.01	33537.54
675.15	33582.01
675.29	32957.08
675.43	33542.22
675.56	33467.32
675.70	33584.35
675.84	33226.24
675.98	32610.68
676.12	33251.99
676.26	33345.61
676.40	33228.59
676.54	32833.04
676.68	32730.05
676.82	32222.16
676.96	32868.14
677.10	32732.39
677.23	32584.94
677.37	32435.14
677.51	32451.53
677.65	32390.67
677.79	32390.67
677.93	32018.53
678.07	31990.44
678.21	31756.39
678.34	31431.05
678.48	31850.01
678.62	31639.36
678.76	31641.70
678.90	31534.04
679.04	31166.57
679.18	31232.11
679.31	30824.86
679.45	30764.00
679.59	30693.79
679.73	31414.67
679.87	30256.11
680.00	30501.86
680.14	30492.50
680.28	30541.65
680.42	30464.41
680.56	30265.47
680.70	29949.50
680.83	29912.05
680.97	30199.93
681.11	30043.12
681.25	29537.56
681.39	29563.31
681.52	29406.49
681.66	29198.18
681.80	28978.17
681.94	28767.52
682.07	29184.14
682.21	28809.65
682.35	28411.76
682.49	29083.50
682.62	29034.35
682.76	28961.79
682.90	28645.82
683.04	28222.18
683.17	28343.89
683.31	28400.06
683.45	28074.73
683.59	27754.07
683.72	28009.19
683.86	28002.17
684.00	27491.93
684.13	27686.20
684.27	27531.72
684.41	27391.29
684.55	27353.84
684.68	27159.58
684.82	27009.78
684.96	26742.96
685.09	26991.06
685.23	27262.56
685.37	26988.72
685.50	27213.41
685.64	26714.87
685.78	26796.79
685.91	26831.90
686.05	26197.62
686.19	26192.94
686.32	26143.78
686.46	25902.71
686.60	25663.97
686.73	25638.23
686.87	25832.49
687.01	25951.86
687.14	26106.34
687.28	25612.48
687.42	25582.06
687.55	25235.66
687.69	25146.72
687.82	24879.89
687.96	24943.09
688.10	25142.03
688.23	24821.38
688.37	24781.59
688.50	24947.77
688.64	24765.21
688.78	24379.02
688.91	24570.94
689.05	24482.00
689.18	24231.57
689.32	23737.71
689.46	23529.41
689.59	24137.94
689.73	23990.49
689.86	24271.36
690.00	24046.66
690.13	23857.08
690.27	23447.49
690.41	23417.06
690.54	23192.37
690.68	23257.90
690.81	23180.67
690.95	23108.11
691.08	22932.57
691.22	22808.52
691.35	22923.21
691.49	22551.06
691.62	22932.57
691.76	22260.84
691.89	22197.64
692.03	22129.77
692.16	21785.71
692.30	22010.40
692.43	22064.23
692.57	21511.86
692.70	21891.03
692.84	21596.12
692.97	21390.16
693.11	21549.31
693.24	21083.55
693.38	21259.09
693.51	20999.29
693.65	20985.24
693.78	20978.22
693.92	20570.97
694.05	20711.40
694.19	20664.59
694.32	20617.78
694.45	20905.66
694.59	20737.15
694.72	20393.09
694.86	20514.80
694.99	20294.79
695.13	19765.82
695.26	19988.18
695.39	19810.29
695.53	19674.54
695.66	19939.02
695.80	19683.91
695.93	19370.27
696.07	19417.08
696.20	18986.43
696.33	18951.32
696.47	18904.51
696.60	18817.91
696.73	19168.99
696.87	19161.97
697.00	19054.30
697.14	18548.75
697.27	18635.35
697.40	18373.21
697.54	18696.20
697.67	18333.42
697.80	18366.18
697.94	18164.90
698.07	18143.83
698.21	18181.28
698.34	18029.15
698.47	17474.44
698.61	17717.86
698.74	17532.95
698.87	17727.22
699.01	17432.31
699.14	17818.50
699.27	17600.83
699.40	17474.44
699.54	17502.53
699.67	17221.66
699.80	17249.75
699.94	17121.02
700.07	17071.87
700.20	16870.58
700.34	16982.93
700.47	16872.92
700.60	16905.69
700.73	16631.85
700.87	16360.34
701.00	16255.02
701.13	16489.07
701.26	15917.98
701.40	16032.67
701.53	16107.57
701.66	16114.59
701.79	15882.88
701.93	15810.32
702.06	15826.70
702.19	15529.45
702.32	15756.49
702.46	15503.71
702.59	15726.06
702.72	15520.09
702.85	15522.43
702.99	15618.39
703.12	14927.94
703.25	15161.99
703.38	14960.70
703.51	14855.38
703.65	14806.23
703.78	14579.20
703.91	14644.73
704.04	14391.95
704.17	14487.92
704.31	14530.05
704.44	14274.93
704.57	14375.57
704.70	14263.22
704.83	14125.13
704.96	14295.99
705.10	13905.12
705.23	13940.23
>>>>>End Processed Spectral Data<<<<<
