SpectraSuite Data File
++++++++++++++++++++++++++++++++++++
Date: Fri Oct 25 11:34:37 EDT 2013
User: price-jones
Dark Spectrum Present: No
Reference Spectrum Present: No
Number of Sampled Component Spectra: 1
Spectrometers: USB2+H05261
Integration Time (usec): 100000 (USB2+H05261)
Spectra Averaged: 1 (USB2+H05261)
Boxcar Smoothing: 0 (USB2+H05261)
Correct for Electrical Dark: No (USB2+H05261)
Strobe/Lamp Enabled: No (USB2+H05261)
Correct for Detector Non-linearity: No (USB2+H05261)
Correct for Stray Light: No (USB2+H05261)
Number of Pixels in Processed Spectrum: 2048
>>>>>Begin Processed Spectral Data<<<<<
365.73	212.99
365.92	212.99
366.12	212.99
366.32	210.65
366.52	203.63
366.72	231.71
366.91	196.60
367.11	173.20
367.31	250.44
367.51	154.48
367.70	205.97
367.90	215.33
368.10	205.97
368.30	224.69
368.49	182.56
368.69	198.95
368.89	273.84
369.09	224.69
369.28	140.43
369.48	187.24
369.68	227.03
369.87	285.55
370.07	271.50
370.27	278.52
370.47	217.67
370.66	510.24
370.86	507.90
371.06	533.64
371.25	608.54
371.45	531.30
371.65	533.64
371.84	517.26
372.04	547.69
372.24	543.00
372.44	526.62
372.63	596.84
372.83	582.79
373.03	650.67
373.22	608.54
373.42	582.79
373.62	582.79
373.81	631.94
374.01	667.05
374.21	641.31
374.40	631.94
374.60	592.16
374.79	594.50
374.99	653.01
375.19	737.27
375.38	704.50
375.58	615.56
375.78	643.65
375.97	650.67
376.17	732.59
376.37	655.35
376.56	667.05
376.76	669.39
376.95	603.86
377.15	667.05
377.35	688.12
377.54	678.76
377.74	641.31
377.93	709.18
378.13	636.63
378.33	650.67
378.52	723.23
378.72	753.65
378.91	650.67
379.11	706.84
379.31	683.44
379.50	713.86
379.70	753.65
379.89	737.27
380.09	763.01
380.28	763.01
380.48	800.46
380.68	730.25
380.87	676.41
381.07	814.51
381.26	741.95
381.46	786.42
381.65	767.70
381.85	730.25
382.04	716.20
382.24	763.01
382.43	763.01
382.63	730.25
382.83	720.88
383.02	800.46
383.22	746.63
383.41	718.54
383.61	800.46
383.80	814.51
384.00	765.36
384.19	681.10
384.39	720.88
384.58	791.10
384.78	861.32
384.97	748.97
385.17	802.80
385.36	798.12
385.56	821.53
385.75	765.36
385.95	840.25
386.14	866.00
386.34	816.85
386.53	858.98
386.72	870.68
386.92	945.58
387.11	882.38
387.31	819.19
387.50	814.51
387.70	812.17
387.89	875.36
388.09	877.70
388.28	816.85
388.48	800.46
388.67	926.85
388.86	833.23
389.06	978.34
389.25	910.47
389.45	971.32
389.64	919.83
389.84	922.17
390.03	926.85
390.22	936.21
390.42	1032.18
390.61	931.53
390.81	905.79
391.00	926.85
391.19	971.32
391.39	1015.79
391.58	938.55
391.78	1004.09
391.97	976.00
392.16	968.98
392.36	1015.79
392.55	1043.88
392.75	1025.15
392.94	1032.18
393.13	1034.52
393.33	994.73
393.52	1067.28
393.71	1132.82
393.91	1102.39
394.10	1071.97
394.29	1071.97
394.49	1104.73
394.68	1100.05
394.88	1057.92
395.07	1165.59
395.26	1125.80
395.46	1125.80
395.65	1207.72
395.84	1174.95
396.04	1163.25
396.23	1160.91
396.42	1174.95
396.62	1146.86
396.81	1139.84
397.00	1151.54
397.19	1210.06
397.39	1184.31
397.58	1233.46
397.77	1317.72
397.97	1259.21
398.16	1308.36
398.35	1299.00
398.55	1233.46
398.74	1263.89
398.93	1247.51
399.12	1301.34
399.32	1233.46
399.51	1306.02
399.70	1308.36
399.90	1224.10
400.09	1401.98
400.28	1352.83
400.47	1380.92
400.67	1341.13
400.86	1322.40
401.05	1369.21
401.24	1308.36
401.44	1254.53
401.63	1380.92
401.82	1331.76
402.01	1401.98
402.21	1390.28
402.40	1359.85
402.59	1418.36
402.78	1409.00
402.97	1444.11
403.17	1317.72
403.36	1404.32
403.55	1570.50
403.74	1497.94
403.93	1502.62
404.13	1542.41
404.32	1490.92
404.51	1504.96
404.70	1619.65
404.89	1561.14
405.09	1671.14
405.28	1589.22
405.47	1643.06
405.66	1575.18
405.85	1717.95
406.05	1591.56
406.24	1563.48
406.43	1598.59
406.62	1732.00
406.81	1788.17
407.00	1832.64
407.20	1710.93
407.39	1647.74
407.58	1739.02
407.77	1661.78
407.96	1834.98
408.15	1720.29
408.34	1741.36
408.54	1856.04
408.73	1844.34
408.92	1860.73
409.11	1891.15
409.30	1952.01
409.49	1820.94
409.68	1977.75
409.87	1921.58
410.07	1940.30
410.26	1947.33
410.45	1975.41
410.64	1998.82
410.83	2005.84
411.02	2080.74
411.21	2078.40
411.40	2022.22
411.59	2160.31
411.78	2026.90
411.98	2015.20
412.17	2115.84
412.36	2167.34
412.55	2230.53
412.74	2214.15
412.93	2195.42
413.12	2253.94
413.31	2298.41
413.50	2342.88
413.69	2235.21
413.88	2345.22
414.07	2347.56
414.26	2382.67
414.45	2438.84
414.64	2429.48
414.83	2483.31
415.02	2420.11
415.22	2555.86
415.41	2574.59
415.60	2595.65
415.79	2640.12
415.98	2647.15
416.17	2633.10
416.36	2654.17
416.55	2576.93
416.74	2708.00
416.93	2637.78
417.12	2717.36
417.31	2841.41
417.50	2731.41
417.69	2853.11
417.88	2738.43
418.07	2789.92
418.26	2820.35
418.45	2878.86
418.64	2913.97
418.83	3009.93
419.02	2885.88
419.21	2909.29
419.39	3056.74
419.58	2956.10
419.77	2923.33
419.96	2977.16
420.15	2995.89
420.34	3033.33
420.53	3052.06
420.72	3148.02
420.91	3122.27
421.10	3206.53
421.29	3187.81
421.48	3080.14
421.67	3159.72
421.86	3096.53
422.05	3007.59
422.24	3056.74
422.43	3094.19
422.61	3098.87
422.80	3251.00
422.99	3183.13
423.18	3358.67
423.37	3222.92
423.56	3396.12
423.75	3169.09
423.94	3108.23
424.13	2972.48
424.32	3101.21
424.50	3335.26
424.69	3351.65
424.88	3375.05
425.07	3375.05
425.26	3272.07
425.45	3213.56
425.64	3239.30
425.83	3300.16
426.01	3255.69
426.20	3290.79
426.39	3410.16
426.58	3215.90
426.77	3272.07
426.96	3393.78
427.15	3456.97
427.33	3410.16
427.52	3417.18
427.71	3522.51
427.90	3447.61
428.09	3382.07
428.28	3508.46
428.46	3543.57
428.65	3482.72
428.84	3454.63
429.03	3590.38
429.22	3480.38
429.40	3595.06
429.59	3485.06
429.78	3435.91
429.97	3482.72
430.16	3475.70
430.34	3712.09
430.53	3726.13
430.72	3705.07
430.91	3639.53
431.10	3772.94
431.28	3702.73
431.47	3798.69
431.66	3789.33
431.85	3763.58
432.03	3946.14
432.22	3850.18
432.41	3810.39
432.60	3857.20
432.79	3803.37
432.97	3768.26
433.16	3906.35
433.35	3988.27
433.54	3997.64
433.72	4021.04
433.91	3990.61
434.10	4032.74
434.28	3964.87
434.47	4060.83
434.66	4149.77
434.85	4217.65
435.03	4124.02
435.22	4056.15
435.41	4189.56
435.59	3992.95
435.78	4121.68
435.97	4273.82
436.16	4231.69
436.34	4124.02
436.53	4201.26
436.72	4358.08
436.90	4299.56
437.09	4135.73
437.28	4311.27
437.46	4210.62
437.65	4278.50
437.84	4280.84
438.02	4554.68
438.21	4554.68
438.40	4205.94
438.58	4601.49
438.77	4547.66
438.96	4395.53
439.14	4550.00
439.33	4622.56
439.52	4681.07
439.70	4648.30
439.89	4805.12
440.08	4777.03
440.26	4772.35
440.45	4690.43
440.63	4837.89
440.82	5135.14
441.01	4912.78
441.19	4994.70
441.38	4947.89
441.57	4922.15
441.75	5055.56
441.94	5289.61
442.12	5228.76
442.31	5144.50
442.50	5313.02
442.68	5156.20
442.87	5151.52
443.05	5249.82
443.24	5334.08
443.43	5336.42
443.61	5357.49
443.80	5383.23
443.98	5165.56
444.17	5149.18
444.35	5394.93
444.54	5460.47
444.73	5434.72
444.91	5298.97
445.10	5385.57
445.28	5455.79
445.47	5247.48
445.65	5479.19
445.84	5324.72
446.02	5577.50
446.21	5362.17
446.39	5338.76
446.58	5558.77
446.77	5472.17
446.95	5472.17
447.14	5394.93
447.32	5521.32
447.51	5617.29
447.69	5343.44
447.88	5528.35
448.06	5530.69
448.25	5547.07
448.43	5455.79
448.62	5617.29
448.80	5556.43
448.99	5547.07
449.17	5664.10
449.36	5490.90
449.54	5654.73
449.73	5853.68
449.91	5951.98
450.10	5818.57
450.28	5858.36
450.46	5856.02
450.65	5764.74
450.83	5715.59
451.02	5942.62
451.20	5954.32
451.39	5881.77
451.57	5797.51
451.76	5902.83
451.94	5865.38
452.13	5968.37
452.31	5750.70
452.49	5837.30
452.68	6003.47
452.86	5996.45
453.05	6001.13
453.23	6024.54
453.42	6221.14
453.60	6143.91
453.78	6031.56
453.97	6188.38
454.15	6104.12
454.34	5940.28
454.52	6230.51
454.70	6045.60
454.89	6181.35
455.07	6340.51
455.26	6263.27
455.44	6303.06
455.62	6408.39
455.81	6228.17
455.99	6443.49
456.17	6441.15
456.36	6469.24
456.54	6562.86
456.73	6626.06
456.91	6579.25
457.09	6752.45
457.28	6752.45
457.46	6640.10
457.64	6916.28
457.83	6806.28
458.01	6663.51
458.19	6906.92
458.38	6785.21
458.56	6864.79
458.74	6747.76
458.93	6813.30
459.11	6883.52
459.29	6883.52
459.48	6883.52
459.66	6864.79
459.84	6946.71
460.03	7037.99
460.21	6958.41
460.39	6881.18
460.57	6953.73
460.76	7047.35
460.94	7082.46
461.12	7082.46
461.31	7070.76
461.49	7028.63
461.67	7204.17
461.85	7295.45
462.04	7133.95
462.22	7688.66
462.40	7356.30
462.59	7344.60
462.77	7234.60
462.95	7241.62
463.13	7344.60
463.32	7403.11
463.50	7595.04
463.68	7627.81
463.86	7524.82
464.05	7389.07
464.23	7358.64
464.41	7576.31
464.59	7634.83
464.78	7737.81
464.96	7728.45
465.14	7543.55
465.32	7559.93
465.50	7817.39
465.69	7719.09
465.87	7770.58
466.05	7705.04
466.23	7735.47
466.41	7962.50
466.60	8006.97
466.78	7721.43
466.96	7925.05
467.14	7756.54
467.32	7815.05
467.51	7953.14
467.69	7733.13
467.87	7934.42
468.05	8032.72
468.23	7911.01
468.41	7716.75
468.60	7943.78
468.78	8088.89
468.96	8028.04
469.14	8250.39
469.32	8046.76
469.50	8058.46
469.69	8304.22
469.87	8311.24
470.05	8339.33
470.23	8397.84
470.41	8163.79
470.59	8278.47
470.77	8332.31
470.95	8589.77
471.14	8533.59
471.32	8339.33
471.50	8500.83
471.68	8566.36
471.86	8676.37
472.04	8657.64
472.22	8650.62
472.40	8514.87
472.58	8608.49
472.77	8720.84
472.95	8982.98
473.13	9153.84
473.31	8943.19
473.49	9008.72
473.67	8912.76
473.85	9104.68
474.03	9240.44
474.21	9146.81
474.39	9245.12
474.57	9174.90
474.75	9310.65
474.93	9310.65
475.12	9357.46
475.30	9596.20
475.48	9547.05
475.66	9348.10
475.84	9626.62
476.02	9720.24
476.20	9673.43
476.38	9776.42
476.56	9998.77
476.74	10003.45
476.92	9963.66
477.10	10153.24
477.28	10059.62
477.46	10029.20
477.64	10377.94
477.82	10389.64
478.00	10541.77
478.18	10738.38
478.36	10530.07
478.54	10766.46
478.72	10750.08
478.90	10794.55
479.08	10752.42
479.26	10902.22
479.44	11211.17
479.62	11283.72
479.80	11250.96
479.98	11463.94
480.16	11482.67
480.34	11573.95
480.52	11475.65
480.70	11557.57
480.88	11665.23
481.06	11779.92
481.24	11838.43
481.41	11967.16
481.59	11967.16
481.77	12166.10
481.95	12166.10
482.13	12320.58
482.31	12505.48
482.49	12430.59
482.67	12505.48
482.85	12678.68
483.03	12966.57
483.21	13198.28
483.39	13006.36
483.57	12987.63
483.74	13226.37
483.92	13207.64
484.10	13174.88
484.28	13455.74
484.46	13603.19
484.64	14225.78
484.82	13767.03
485.00	13724.90
485.18	14263.22
485.35	14251.52
485.53	14134.50
485.71	14279.61
485.89	14567.49
486.07	14506.64
486.25	14490.26
486.43	14607.28
486.61	15030.92
486.78	15042.62
486.96	15019.22
487.14	15475.62
487.32	15295.40
487.50	15646.48
487.68	15515.41
487.85	15492.01
488.03	15906.28
488.21	16093.52
488.39	16210.55
488.57	16154.38
488.75	16489.07
488.92	16519.50
489.10	16636.53
489.28	16748.87
489.46	16580.36
489.64	16744.19
489.81	17242.73
489.99	17055.48
490.17	17046.12
490.35	17233.36
490.53	17408.90
490.70	17635.94
490.88	17717.86
491.06	17743.60
491.24	17919.14
491.41	17942.55
491.59	18106.38
491.77	18143.83
491.95	18740.67
492.13	18565.13
492.30	18675.13
492.48	18686.84
492.66	18815.57
492.84	18754.71
493.01	19213.46
493.19	18977.06
493.37	19421.77
493.54	19302.40
493.72	19660.50
493.90	19522.41
494.08	19901.58
494.25	19836.04
494.43	19681.56
494.61	19889.87
494.79	20081.80
494.96	20081.80
495.14	20369.68
495.32	20500.75
495.49	20470.33
495.67	20863.54
495.85	20786.30
496.02	21088.23
496.20	21008.65
496.38	20861.19
496.55	21558.67
496.73	21752.94
496.91	21120.99
497.09	21429.94
497.26	21537.61
497.44	21759.96
497.62	21673.36
497.79	22239.77
497.97	21923.80
498.14	21972.95
498.32	22412.97
498.50	22436.38
498.67	22616.60
498.85	22623.62
499.03	22745.33
499.20	22799.16
499.38	23168.96
499.56	22792.14
499.73	22878.74
499.91	23131.51
500.08	23604.30
500.26	23403.02
500.44	23325.78
500.61	23531.75
500.79	23318.76
500.97	23506.00
501.14	24084.11
501.32	23941.34
501.49	24081.77
501.67	23733.03
501.84	24521.79
502.02	24217.52
502.20	24416.47
502.37	24500.73
502.55	24175.39
502.72	24273.70
502.90	24648.18
503.07	24467.96
503.25	24727.76
503.43	24584.99
503.60	24978.20
503.78	25144.38
503.95	25109.27
504.13	25146.72
504.30	25415.88
504.48	25048.41
504.65	24847.13
504.83	25764.62
505.01	25575.03
505.18	25362.04
505.36	26061.87
505.53	25846.54
505.71	25731.85
505.88	26171.87
506.06	25715.47
506.23	26349.75
506.41	26352.09
506.58	26298.26
506.76	26331.03
506.93	26600.19
507.11	26368.48
507.28	26918.50
507.46	26806.16
507.63	26728.92
507.81	26600.19
507.98	26787.43
508.16	27007.44
508.33	26881.05
508.50	27065.96
508.68	27278.94
508.85	27309.37
509.03	27543.42
509.20	27733.01
509.38	27718.96
509.55	27718.96
509.73	27896.85
509.90	27606.62
510.08	27793.86
510.25	27866.42
510.42	27885.14
510.60	28290.06
510.77	28491.34
510.95	28463.25
511.12	28259.63
511.30	28102.81
511.47	28507.72
511.64	28730.08
511.82	28889.23
511.99	28456.23
512.17	29055.41
512.34	28891.57
512.51	29350.32
512.69	29156.05
512.86	29151.37
513.04	29191.16
513.21	29029.66
513.38	29486.07
513.56	29607.78
513.73	29359.68
513.90	29315.21
514.08	29563.31
514.25	29909.71
514.43	29649.91
514.60	29783.32
514.77	30141.42
514.95	30326.32
515.12	29982.26
515.29	29802.04
515.47	29855.87
515.64	30096.95
515.81	30312.28
515.99	30232.70
516.16	30768.68
516.33	30672.72
516.51	30895.07
516.68	30684.42
516.85	30654.00
517.03	31056.57
517.20	30747.62
517.37	30775.70
517.54	31005.08
517.72	30871.67
517.89	31194.66
518.06	31002.74
518.24	31166.57
518.41	31021.46
518.58	31126.78
518.75	31433.39
518.93	31826.60
519.10	31285.94
519.27	31639.36
519.45	32025.55
519.62	31885.12
519.79	31835.97
519.96	32065.34
520.14	31931.93
520.31	31880.44
520.48	32210.45
520.65	32175.34
520.83	32699.62
521.00	32416.42
521.17	32407.06
521.34	32430.46
521.52	32388.33
521.69	32973.47
521.86	32847.08
522.03	32671.54
522.20	32542.81
522.38	33263.69
522.55	32985.17
522.72	33099.86
522.89	33436.89
523.07	33366.68
523.24	33502.43
523.41	33558.60
523.58	33249.65
523.75	33600.73
523.92	33708.40
524.10	33780.95
524.27	33888.62
524.44	33759.89
524.61	34295.87
524.78	33532.86
524.96	34029.05
525.13	34085.22
525.30	34401.19
525.47	34267.78
525.64	34333.32
525.81	34279.49
525.98	34171.82
526.16	34249.06
526.33	34359.06
526.50	34721.85
526.67	34471.41
526.84	34361.40
527.01	34799.08
527.18	34859.94
527.36	34637.59
527.53	34803.77
527.70	35374.86
527.87	35089.31
528.04	34756.96
528.21	35297.62
528.38	34969.94
528.55	35194.64
528.72	35068.25
528.89	35211.02
529.07	35391.24
529.24	35302.30
529.41	35611.25
529.58	35747.00
529.75	35225.06
529.92	35660.40
530.09	35550.40
530.26	35257.83
530.43	35871.05
530.60	35440.39
530.77	35936.59
530.94	35662.74
531.11	35849.99
531.28	35770.41
531.46	36512.36
531.63	36168.30
531.80	36325.11
531.97	36563.85
532.14	36163.62
532.31	36266.60
532.48	36070.00
532.65	36282.98
532.82	36222.13
532.99	36652.79
533.16	36575.55
533.33	36474.91
533.50	36423.42
533.67	36914.93
533.84	36718.32
534.01	36811.95
534.18	36596.62
534.35	37420.48
534.52	37034.30
534.69	37361.97
534.86	37230.90
535.03	36865.78
535.20	37294.10
535.37	37172.39
535.54	37682.62
535.71	37446.23
535.88	37132.60
536.05	37532.83
536.22	37610.07
536.38	37544.53
536.55	37521.13
536.72	37682.62
536.89	37418.14
537.06	37376.01
537.23	38031.36
537.40	37415.80
537.57	37553.90
537.74	37902.64
537.91	37717.73
538.08	38050.09
538.25	37691.99
538.42	38059.45
538.59	38223.29
538.75	37727.10
538.92	38513.52
539.09	38880.98
539.26	38305.21
539.43	38260.74
539.60	38291.16
539.77	38216.27
539.94	38504.15
540.11	38593.09
540.28	38579.05
540.44	38609.48
540.61	38534.58
540.78	38649.27
540.95	38780.34
541.12	38822.47
541.29	38686.71
541.46	39030.77
541.62	38693.74
541.79	39040.14
541.96	38721.82
542.13	38330.95
542.30	38679.69
542.47	38880.98
542.63	39281.21
542.80	39325.68
542.97	39510.58
543.14	39608.89
543.31	39044.82
543.48	39676.76
543.64	39962.31
543.81	39962.31
543.98	39789.11
544.15	39732.93
544.32	39842.94
544.48	40498.29
544.65	40053.59
544.82	39880.39
544.99	39817.19
545.16	40292.32
545.32	39723.57
545.49	40149.55
545.66	40512.33
545.83	40287.64
546.00	40402.33
546.16	40039.54
546.33	40013.80
546.50	40243.17
546.67	40727.66
546.83	40280.62
547.00	40634.04
547.17	40175.30
547.34	40467.86
547.50	40428.07
547.67	41226.20
547.84	40421.05
548.00	40664.47
548.17	41165.34
548.34	40854.05
548.51	41125.55
548.67	40718.30
548.84	41053.00
549.01	41069.38
549.18	41120.87
549.34	40847.03
549.51	40957.03
549.68	41275.35
549.84	41481.31
550.01	41102.15
550.18	41118.53
550.34	40940.65
550.51	41315.14
550.68	41628.77
550.84	41083.42
551.01	41965.81
551.18	41081.08
551.34	41724.73
551.51	41287.05
551.68	41577.28
551.84	41556.21
552.01	41301.09
552.18	41731.75
552.34	41518.76
552.51	41895.59
552.68	41352.58
552.84	41626.43
553.01	42040.70
553.18	41872.18
553.34	41977.51
553.51	41792.61
553.67	41900.27
553.84	42190.50
554.01	42433.91
554.17	41478.97
554.34	42529.87
554.51	41949.42
554.67	42508.81
554.84	41993.89
555.00	42080.49
555.17	42433.91
555.33	42230.29
555.50	42209.22
555.67	42050.06
555.83	42155.39
556.00	42361.36
556.16	43028.41
556.33	42749.88
556.50	42815.42
556.66	42712.44
556.83	42230.29
556.99	42930.11
557.16	42906.70
557.32	42895.00
557.49	43473.11
557.65	42506.47
557.82	42792.01
557.98	42813.08
558.15	42878.61
558.32	42796.70
558.48	43026.07
558.65	43189.91
558.81	42988.62
558.98	43100.97
559.14	43028.41
559.31	42946.49
559.47	42625.84
559.64	43061.18
559.80	43236.72
559.97	43456.73
560.13	43161.82
560.30	42747.54
560.46	43840.57
560.63	43215.65
560.79	43330.34
560.96	43360.76
561.12	43906.11
561.29	43126.71
561.45	43384.17
561.61	43536.30
561.78	43133.73
561.94	42965.21
562.11	43311.61
562.27	43232.04
562.44	43643.97
562.60	43601.84
562.77	43601.84
562.93	43606.52
563.10	43924.83
563.26	43480.13
563.42	43814.83
563.59	43573.75
563.75	43330.34
563.92	43618.22
564.08	43658.01
564.24	43896.75
564.41	43550.35
564.57	43990.37
564.74	44217.40
564.90	43629.93
565.07	43744.61
565.23	43482.47
565.39	43702.48
565.56	43831.21
565.72	43650.99
565.88	43814.83
566.05	43908.45
566.21	43981.01
566.38	43849.94
566.54	44013.77
566.70	43824.19
566.87	43854.62
567.03	44088.67
567.19	43868.66
567.36	44025.48
567.52	43807.81
567.68	44554.44
567.85	44140.16
568.01	44046.54
568.17	43723.55
568.34	44367.20
568.50	43973.98
568.66	44020.80
568.83	43868.66
568.99	44121.44
569.15	44006.75
569.32	44304.00
569.48	43721.21
569.64	44439.75
569.81	44339.11
569.97	44285.28
570.13	44538.05
570.30	44041.86
570.46	44535.71
570.62	44348.47
570.78	44149.53
570.95	44432.73
571.11	44540.39
571.27	44130.80
571.43	44676.15
571.60	44240.81
571.76	43950.58
571.92	44589.55
572.09	44133.14
572.25	44116.76
572.41	44100.37
572.57	44208.04
572.74	44383.58
572.90	44444.43
573.06	44222.08
573.22	44641.04
573.38	44882.11
573.55	44727.64
573.71	44949.99
573.87	44526.35
574.03	44538.05
574.20	44516.99
574.36	44896.16
574.52	44657.42
574.68	44655.08
574.84	44493.58
575.01	45177.02
575.17	44837.64
575.33	44619.97
575.49	44149.53
575.65	45015.52
575.82	44718.28
575.98	44582.52
576.14	44999.14
576.30	44816.58
576.46	44947.65
576.62	44692.53
576.79	44474.86
576.95	44545.08
577.11	44292.30
577.27	44762.75
577.43	45024.89
577.59	45144.25
577.75	44463.16
577.92	44296.98
578.08	44804.88
578.24	44423.37
578.40	45141.91
578.56	45132.55
578.72	44514.65
578.88	44996.80
579.04	45078.72
579.21	44201.02
579.37	45502.35
579.53	44580.18
579.69	44755.72
579.85	44662.10
580.01	44619.97
580.17	44924.24
580.33	44849.35
580.49	44804.88
580.65	45017.86
580.82	44772.11
580.98	44655.08
581.14	44612.95
581.30	44889.13
581.46	44603.59
581.62	44940.63
581.78	45003.82
581.94	44940.63
582.10	44835.30
582.26	44823.60
582.42	44451.45
582.58	44931.26
582.74	44718.28
582.90	44748.70
583.06	45333.84
583.22	44598.91
583.38	44678.49
583.54	45090.42
583.70	44790.83
583.86	45113.83
584.02	44772.11
584.18	44809.56
584.34	45219.15
584.50	45265.96
584.66	45099.78
584.82	45123.19
584.98	45495.33
585.14	45125.53
585.30	44694.87
585.46	45261.28
585.62	44985.10
585.78	45116.17
585.94	44378.90
586.10	45195.74
586.26	44577.84
586.42	44968.71
586.58	44924.24
586.74	44933.60
586.90	45368.94
587.06	45123.19
587.22	44971.05
587.38	44999.14
587.54	45394.69
587.70	45195.74
587.86	45013.18
588.02	44933.60
588.18	45162.98
588.34	45015.52
588.49	45106.80
588.65	45261.28
588.81	45102.12
588.97	45071.70
589.13	45006.16
589.29	45326.81
589.45	45230.85
589.61	45205.11
589.77	45301.07
589.93	45502.35
590.08	45441.50
590.24	45198.09
590.40	45635.77
590.56	45343.20
590.72	45797.26
590.88	45350.22
591.04	45420.44
591.20	45390.01
591.35	45511.72
591.51	45860.46
591.67	45918.97
591.83	45930.67
591.99	45422.78
592.15	45364.26
592.31	45340.86
592.46	45404.05
592.62	45830.03
592.78	45773.86
592.94	45883.86
593.10	45663.85
593.26	46373.03
593.41	45984.51
593.57	45546.82
593.73	45841.73
593.89	46019.61
594.05	45956.42
594.20	45766.84
594.36	45907.27
594.52	45595.98
594.68	45481.29
594.84	45640.45
594.99	45893.22
595.15	45818.33
595.31	45862.80
595.47	45773.86
595.62	45476.61
595.78	45808.96
595.94	45734.07
596.10	45326.81
596.25	46071.10
596.41	45713.00
596.57	45565.55
596.73	45993.87
596.88	45701.30
597.04	45865.14
597.20	46033.66
597.36	45703.64
597.51	45968.12
597.67	45312.77
597.83	45652.15
597.99	45649.81
598.14	45453.20
598.30	45755.13
598.46	45675.55
598.61	46401.12
598.77	45930.67
598.93	45801.94
599.09	45902.59
599.24	46405.80
599.40	45865.14
599.56	45752.79
599.71	45914.29
599.87	46087.49
600.03	46209.20
600.18	45918.97
600.34	46113.23
600.50	45598.32
600.65	46115.58
600.81	46127.28
600.97	45516.40
601.12	45872.16
601.28	45977.48
601.44	46452.61
601.59	45909.61
601.75	45837.05
601.91	46092.17
602.06	46043.02
602.22	46230.26
602.37	45790.24
602.53	46040.68
602.69	46164.73
602.84	45752.79
603.00	46005.57
603.16	46024.29
603.31	45904.93
603.47	46043.02
603.62	46134.30
603.78	45766.84
603.94	45986.85
604.09	45785.56
604.25	45298.73
604.40	45806.62
604.56	46394.10
604.71	45975.14
604.87	45741.09
605.03	45584.27
605.18	45633.42
605.34	46050.04
605.49	45762.15
605.65	46094.51
605.80	46248.99
605.96	45794.92
606.12	45720.02
606.27	45476.61
606.43	45717.68
606.58	45474.27
606.74	45797.26
606.89	45914.29
607.05	46160.05
607.20	45736.41
607.36	45682.58
607.51	46227.92
607.67	45570.23
607.82	45516.40
607.98	45902.59
608.13	45705.98
608.29	45579.59
608.44	45890.88
608.60	45544.48
608.75	46019.61
608.91	45691.94
609.06	45265.96
609.22	45986.85
609.37	45574.91
609.53	46052.38
609.68	46092.17
609.84	45691.94
609.99	45287.03
610.15	45673.21
610.30	45659.17
610.46	45162.98
610.61	45717.68
610.76	45928.33
610.92	45155.96
611.07	45174.68
611.23	45301.07
611.38	45846.41
611.54	45670.87
611.69	45764.49
611.84	45818.33
612.00	45436.82
612.15	45165.32
612.31	45380.65
612.46	44905.52
612.62	45256.60
612.77	44825.94
612.92	45298.73
613.08	45052.97
613.23	45551.51
613.39	45214.47
613.54	44783.81
613.69	45242.56
613.85	45212.13
614.00	45855.78
614.15	45322.13
614.31	44704.23
614.46	45368.94
614.62	44942.97
614.77	45448.52
614.92	45581.93
615.08	45310.43
615.23	45310.43
615.38	45600.66
615.54	44891.48
615.69	44811.90
615.84	44697.21
616.00	45263.62
616.15	45155.96
616.30	45191.06
616.46	45029.57
616.61	44924.24
616.76	45331.50
616.92	44765.09
617.07	44839.98
617.22	44781.47
617.37	44584.86
617.53	45265.96
617.68	45099.78
617.83	44746.36
617.99	44893.82
618.14	44882.11
618.29	44421.03
618.45	44975.73
618.60	44928.92
618.75	44903.18
618.90	44601.25
619.06	44559.12
619.21	44395.28
619.36	44959.35
619.51	44238.47
619.67	44339.11
619.82	44486.56
619.97	44271.23
620.12	44374.22
620.28	44516.99
620.43	44624.65
620.58	44823.60
620.73	44987.44
620.89	44919.56
621.04	44629.34
621.19	44388.26
621.34	44313.36
621.49	44645.72
621.65	44502.95
621.80	44811.90
621.95	44238.47
622.10	44549.76
622.25	44336.77
622.41	44458.48
622.56	44535.71
622.71	44582.52
622.86	44463.16
623.01	44275.91
623.16	44467.84
623.32	44208.04
623.47	44573.16
623.62	43988.03
623.77	43917.81
623.92	44030.16
624.07	44144.84
624.23	44264.21
624.38	44060.58
624.53	44437.41
624.68	43494.18
624.83	43583.12
624.98	44196.34
625.13	43438.00
625.29	43529.28
625.44	43838.23
625.59	44027.82
625.74	43782.06
625.89	43718.87
626.04	43941.22
626.19	43723.55
626.34	43969.30
626.49	43438.00
626.65	43098.62
626.80	43641.63
626.95	43388.85
627.10	43524.60
627.25	43283.53
627.40	43515.24
627.55	43182.88
627.70	43524.60
627.85	43395.87
628.00	43491.83
628.15	43625.25
628.30	42698.39
628.45	42703.07
628.60	43061.18
628.76	43278.85
628.91	43173.52
629.06	43035.43
629.21	42600.09
629.36	43119.69
629.51	42934.79
629.66	43257.78
629.81	43035.43
629.96	43337.36
630.11	43407.58
630.26	42990.96
630.41	42885.64
630.56	42796.70
630.71	42782.65
630.86	42431.57
631.01	42974.58
631.16	42422.21
631.31	42721.80
631.46	43217.99
631.61	43571.41
631.76	42829.46
631.91	43009.68
632.06	43054.15
632.21	42836.48
632.36	42866.91
632.51	42307.52
632.66	42621.16
632.81	42642.22
632.96	42534.56
633.10	42667.97
633.25	42497.11
633.40	43089.26
633.55	43054.15
633.70	42220.92
633.85	42480.72
634.00	42274.76
634.15	42103.90
634.30	42307.52
634.45	42370.72
634.60	42171.77
634.75	42560.30
634.90	42206.88
635.05	42689.03
635.19	42351.99
635.34	42258.37
635.49	42164.75
635.64	42543.92
635.79	42033.68
635.94	42562.64
636.09	42101.56
636.24	42326.25
636.39	41794.95
636.53	42405.83
636.68	41900.27
636.83	41792.61
636.98	41600.68
637.13	41509.40
637.28	41935.38
637.43	42117.94
637.57	41860.48
637.72	41972.83
637.87	41776.22
638.02	42057.09
638.17	41689.62
638.32	41628.77
638.46	41752.82
638.61	41493.02
638.76	41226.20
638.91	41947.08
639.06	41158.32
639.20	41471.95
639.35	41223.86
639.50	41198.11
639.65	41467.27
639.80	41904.95
639.94	41357.27
640.09	41902.61
640.24	41500.04
640.39	41390.03
640.54	40849.37
640.68	41406.42
640.83	41560.89
640.98	41265.99
641.13	41057.68
641.27	41581.96
641.42	41188.75
641.57	41233.22
641.72	40865.75
641.86	41331.52
642.01	41137.26
642.16	40903.20
642.31	40554.46
642.45	41305.77
642.60	41294.07
642.75	41394.71
642.90	41153.64
643.04	40868.09
643.19	41060.02
643.34	41102.15
643.48	40615.32
643.63	40959.38
643.78	40498.29
643.93	41137.26
644.07	41081.08
644.22	40858.73
644.37	40680.85
644.51	40570.85
644.66	40704.26
644.81	40891.50
644.95	40652.76
645.10	40521.69
645.25	40168.27
645.39	40570.85
645.54	40732.34
645.69	40767.45
645.83	40271.26
645.98	40027.84
646.13	40177.64
646.27	40547.44
646.42	40205.72
646.57	40666.81
646.71	40509.99
646.86	40577.87
647.00	40341.47
647.15	40982.78
647.30	40147.21
647.44	40294.66
647.59	40498.29
647.74	40247.85
647.88	40072.31
648.03	40404.67
648.17	40566.16
648.32	40320.41
648.47	40236.15
648.61	40343.81
648.76	40252.53
648.90	40292.32
649.05	39807.83
649.20	40158.91
649.34	40315.73
649.49	40212.74
649.63	39711.87
649.78	40353.18
649.92	39892.09
650.07	40512.33
650.21	39571.44
650.36	39999.76
650.51	39826.56
650.65	40196.36
650.80	39976.35
650.94	39938.90
651.09	39852.30
651.23	39498.88
651.38	39864.00
651.52	39461.43
651.67	39344.41
651.81	39484.84
651.96	39550.37
652.10	39131.42
652.25	39700.17
652.39	39545.69
652.54	39651.02
652.68	39643.99
652.83	39426.32
652.97	39192.27
653.12	39442.71
653.26	39428.66
653.41	39613.57
653.55	39199.29
653.70	39531.65
653.84	39840.60
653.99	38792.04
654.13	39049.50
654.27	39056.52
654.42	39154.82
654.56	39328.02
654.71	39084.61
654.85	39246.10
655.00	39044.82
655.14	39140.78
655.29	39482.50
655.43	39285.89
655.57	39136.10
655.72	38754.59
655.86	38951.20
656.01	38532.24
656.15	38527.56
656.30	38593.09
656.44	38555.64
656.58	38937.15
656.73	38593.09
656.87	38499.47
657.01	37846.46
657.16	38349.68
657.30	38363.72
657.45	38796.72
657.59	38272.44
657.73	38394.15
657.88	38759.27
658.02	38773.31
658.16	38555.64
658.31	38534.58
658.45	38375.42
658.60	38459.68
658.74	37825.40
658.88	38511.17
659.03	37928.38
659.17	38534.58
659.31	37830.08
659.46	38176.48
659.60	38204.56
659.74	37809.01
659.89	37656.88
660.03	37860.51
660.17	37940.08
660.32	37766.88
660.46	37574.96
660.60	37539.85
660.74	37357.29
660.89	38150.73
661.03	37490.70
661.17	37113.87
661.32	37336.23
661.46	37471.98
661.60	37090.47
661.74	37354.95
661.89	37535.17
662.03	37479.00
662.17	37380.70
662.31	37020.25
662.46	37148.98
662.60	37092.81
662.74	36648.11
662.88	36840.03
663.03	36533.42
663.17	36755.77
663.31	36400.01
663.45	36910.25
663.60	36954.72
663.74	36898.55
663.88	36594.28
664.02	36699.60
664.17	36989.83
664.31	35948.29
664.45	36402.35
664.59	36563.85
664.73	36776.84
664.88	36456.18
665.02	35969.35
665.16	35842.96
665.30	36109.78
665.44	35955.31
665.59	35800.83
665.73	35761.05
665.87	35344.43
666.01	35854.67
666.15	35709.55
666.29	35676.79
666.44	35838.28
666.58	35594.87
666.72	35489.54
666.86	35639.34
667.00	35688.49
667.14	35545.72
667.28	35644.02
667.43	35281.24
667.57	35447.41
667.71	35440.39
667.85	35917.86
667.99	35377.20
668.13	35037.82
668.27	34976.97
668.41	34785.04
668.56	34525.24
668.70	34815.47
668.84	34466.73
668.98	34443.32
669.12	34581.42
669.26	34579.07
669.40	34274.80
669.54	34614.18
669.68	34342.68
669.82	34401.19
669.96	34356.72
670.10	34080.54
670.25	34148.42
670.39	33598.39
670.53	34195.23
670.67	33961.17
670.81	34031.39
670.95	34305.23
671.09	33797.34
671.23	33621.80
671.37	33385.40
671.51	33574.98
671.65	33813.72
671.79	33455.62
671.93	33867.55
672.07	34075.86
672.21	33371.36
672.35	32968.79
672.49	33642.86
672.63	32959.42
672.77	32882.19
672.91	33134.96
673.05	32818.99
673.19	32772.18
673.33	32568.55
673.47	32638.77
673.61	32374.29
673.75	32011.51
673.89	32580.26
674.03	32201.09
674.17	32259.60
674.31	31648.72
674.45	32437.48
674.59	31718.94
674.73	31639.36
674.87	32175.34
675.01	31850.01
675.15	31271.90
675.29	31538.72
675.43	31711.92
675.56	31402.97
675.70	31426.37
675.84	31140.83
675.98	30382.49
676.12	30991.03
676.26	31164.23
676.40	30843.58
676.54	30644.63
676.68	31040.18
676.82	30277.17
676.96	30843.58
677.10	30993.37
677.23	30342.70
677.37	30497.18
677.51	30115.67
677.65	29874.60
677.79	29947.15
677.93	30033.75
678.07	29596.07
678.21	29778.64
678.34	29773.95
678.48	29560.97
678.62	29310.53
678.76	29549.26
678.90	29659.27
679.04	29586.71
679.18	29172.44
679.31	29078.82
679.45	29123.29
679.59	28800.29
679.73	29277.76
679.87	28517.09
680.00	28694.97
680.14	28510.07
680.28	28685.61
680.42	28210.48
680.56	28552.20
680.70	28109.83
680.83	27922.59
680.97	27786.84
681.11	28060.68
681.25	27840.67
681.39	27646.41
681.52	27852.38
681.66	27332.78
681.80	27133.83
681.94	27049.57
682.07	27323.41
682.21	27321.07
682.35	26726.58
682.49	26920.84
682.62	27274.26
682.76	27175.96
682.90	26441.03
683.04	26527.63
683.17	26628.27
683.31	26295.92
683.45	26080.59
683.59	26298.26
683.72	25577.37
683.86	26052.50
684.00	26111.02
684.13	26204.64
684.27	25790.36
684.41	25404.17
684.55	25640.57
684.68	25472.05
684.82	25249.70
684.96	25366.73
685.09	25130.33
685.23	25310.55
685.37	25324.60
685.50	25266.08
685.64	25174.80
685.78	24687.97
685.91	24617.75
686.05	24479.66
686.19	24498.39
686.32	24285.40
686.46	23913.25
686.60	23927.30
686.73	24376.68
686.87	24109.86
687.01	24357.96
687.14	23796.23
687.28	23616.01
687.42	23864.10
687.55	23625.37
687.69	23597.28
687.82	23660.48
687.96	23115.13
688.10	23365.57
688.23	23138.54
688.37	23367.91
688.50	23599.62
688.64	23285.99
688.78	23096.41
688.91	23012.15
689.05	22925.55
689.18	22663.41
689.32	22366.16
689.46	22640.00
689.59	22551.06
689.73	22607.23
689.86	22429.35
690.00	22171.89
690.13	22471.48
690.27	22066.57
690.41	22345.09
690.54	21483.78
690.68	21507.18
690.81	21338.66
690.95	21460.37
691.08	21572.72
691.22	21289.51
691.35	21343.35
691.49	21392.50
691.62	21240.36
691.76	20790.98
691.89	20884.60
692.03	20648.21
692.16	20678.63
692.30	20704.38
692.43	20376.70
692.57	20617.78
692.70	20196.48
692.84	20339.26
692.97	20004.56
693.11	19974.13
693.24	19669.86
693.38	19672.20
693.51	19747.10
693.65	19676.88
693.78	19484.96
693.92	19496.66
694.05	19627.73
694.19	19276.65
694.32	19234.52
694.45	19587.94
694.59	19381.98
694.72	19367.93
694.86	19206.44
694.99	18686.84
695.13	18768.76
695.26	18640.03
695.39	18581.51
695.53	18689.18
695.66	18534.70
695.80	18328.74
695.93	18382.57
696.07	18155.54
696.20	18333.42
696.33	17642.96
696.47	17783.39
696.60	17909.78
696.73	18001.06
696.87	18082.98
697.00	17862.97
697.14	17575.08
697.27	17528.27
697.40	17607.85
697.54	17146.76
697.67	17352.73
697.80	17224.00
697.94	17355.07
698.07	17076.55
698.21	17216.98
698.34	16973.56
698.47	16840.15
698.61	16606.10
698.74	16662.27
698.87	16500.78
699.01	16027.99
699.14	16439.92
699.27	16262.04
699.40	16407.16
699.54	15962.45
699.67	15817.34
699.80	15847.77
699.94	15988.20
700.07	16114.59
700.20	15864.15
700.34	15915.64
700.47	15861.81
700.60	16018.63
700.73	15836.06
700.87	15543.50
701.00	15248.59
701.13	15264.97
701.26	14998.15
701.40	15407.75
701.53	15311.78
701.66	14913.89
701.79	14860.06
701.93	14829.63
702.06	14773.46
702.19	14691.54
702.32	14654.09
702.46	14611.96
702.59	14703.25
702.72	14789.85
702.85	14429.40
702.99	14855.38
703.12	14202.37
703.25	14281.95
703.38	14104.07
703.51	14162.58
703.65	13954.27
703.78	13664.05
703.91	13818.52
704.04	13689.79
704.17	13626.60
704.31	13476.80
704.44	13500.21
704.57	13378.50
704.70	13366.80
704.83	13294.24
704.96	13378.50
705.10	13193.60
705.23	12975.93
>>>>>End Processed Spectral Data<<<<<
