SpectraSuite Data File
++++++++++++++++++++++++++++++++++++
Date: Fri Oct 25 10:47:13 EDT 2013
User: price-jones
Dark Spectrum Present: No
Reference Spectrum Present: No
Number of Sampled Component Spectra: 1
Spectrometers: USB2+H05261
Integration Time (usec): 100000 (USB2+H05261)
Spectra Averaged: 1 (USB2+H05261)
Boxcar Smoothing: 0 (USB2+H05261)
Correct for Electrical Dark: No (USB2+H05261)
Strobe/Lamp Enabled: No (USB2+H05261)
Correct for Detector Non-linearity: No (USB2+H05261)
Correct for Stray Light: No (USB2+H05261)
Number of Pixels in Processed Spectrum: 2048
>>>>>Begin Processed Spectral Data<<<<<
365.73	140.43
365.92	140.43
366.12	140.43
366.32	77.24
366.52	58.51
366.72	53.83
366.91	67.88
367.11	18.72
367.31	23.41
367.51	51.49
367.70	81.92
367.90	107.66
368.10	49.15
368.30	16.38
368.49	74.90
368.69	74.90
368.89	56.17
369.09	67.88
369.28	18.72
369.48	30.43
369.68	58.51
369.87	114.69
370.07	72.56
370.27	117.03
370.47	194.26
370.66	367.46
370.86	512.58
371.06	367.46
371.25	482.15
371.45	468.11
371.65	365.12
371.84	358.10
372.04	402.57
372.24	386.19
372.44	437.68
372.63	510.24
372.83	486.83
373.03	451.72
373.22	479.81
373.42	484.49
373.62	571.09
373.81	575.77
374.01	461.09
374.21	552.37
374.40	575.77
374.60	566.41
374.79	507.90
374.99	461.09
375.19	535.98
375.38	543.00
375.58	543.00
375.78	573.43
375.97	603.86
376.17	589.82
376.37	627.26
376.56	545.34
376.76	566.41
376.95	580.45
377.15	636.63
377.35	643.65
377.54	624.92
377.74	559.39
377.93	592.16
378.13	592.16
378.33	662.37
378.52	674.07
378.72	615.56
378.91	669.39
379.11	631.94
379.31	657.69
379.50	655.35
379.70	699.82
379.89	645.99
380.09	603.86
380.28	603.86
380.48	617.90
380.68	692.80
380.87	622.58
381.07	732.59
381.26	655.35
381.46	622.58
381.65	669.39
381.85	631.94
382.04	685.78
382.24	601.52
382.43	683.44
382.63	571.09
382.83	709.18
383.02	580.45
383.22	758.33
383.41	690.46
383.61	678.76
383.80	774.72
384.00	702.16
384.19	671.73
384.39	720.88
384.58	681.10
384.78	737.27
384.97	741.95
385.17	692.80
385.36	760.67
385.56	774.72
385.75	706.84
385.95	746.63
386.14	765.36
386.34	732.59
386.53	772.38
386.72	791.10
386.92	784.08
387.11	800.46
387.31	767.70
387.50	833.23
387.70	821.53
387.89	800.46
388.09	891.74
388.28	816.85
388.48	800.46
388.67	840.25
388.86	812.17
389.06	777.06
389.25	809.83
389.45	840.25
389.64	866.00
389.84	912.81
390.03	884.72
390.22	894.08
390.42	781.74
390.61	863.66
390.81	875.36
391.00	938.55
391.19	901.11
391.39	940.90
391.58	985.37
391.78	999.41
391.97	1027.50
392.16	919.83
392.36	926.85
392.55	915.15
392.75	931.53
392.94	933.87
393.13	1027.50
393.33	1001.75
393.52	931.53
393.71	992.39
393.91	1032.18
394.10	985.37
394.29	978.34
394.49	1020.47
394.68	1135.16
394.88	1027.50
395.07	1074.31
395.26	1174.95
395.46	1055.58
395.65	1069.62
395.84	1074.31
396.04	1083.67
396.23	1165.59
396.42	1137.50
396.62	1104.73
396.81	1118.78
397.00	1139.84
397.19	1153.88
397.39	1078.99
397.58	1249.85
397.77	1198.35
397.97	1196.01
398.16	1207.72
398.35	1320.06
398.55	1219.42
398.74	1174.95
398.93	1394.96
399.12	1322.40
399.32	1188.99
399.51	1224.10
399.70	1254.53
399.90	1343.47
400.09	1254.53
400.28	1373.89
400.47	1275.59
400.67	1390.28
400.86	1331.76
401.05	1359.85
401.24	1430.07
401.44	1423.05
401.63	1427.73
401.82	1479.22
402.01	1451.13
402.21	1460.49
402.40	1519.01
402.59	1549.43
402.78	1460.49
402.97	1476.88
403.17	1586.88
403.36	1511.99
403.55	1493.26
403.74	1507.30
403.93	1652.42
404.13	1626.67
404.32	1614.97
404.51	1533.05
404.70	1661.78
404.89	1563.48
405.09	1689.87
405.28	1664.12
405.47	1636.03
405.66	1668.80
405.85	1687.53
406.05	1732.00
406.24	1746.04
406.43	1734.34
406.62	1748.38
406.81	1811.57
407.00	1820.94
407.20	1771.79
407.39	1776.47
407.58	1834.98
407.77	1877.11
407.96	1842.00
408.15	1872.43
408.34	1851.36
408.54	1884.13
408.73	1825.62
408.92	1923.92
409.11	1959.03
409.30	2001.16
409.49	1944.99
409.68	1900.52
409.87	1959.03
410.07	2106.48
410.26	2115.84
410.45	2085.42
410.64	2106.48
410.83	2050.31
411.02	2195.42
411.21	2181.38
411.40	2193.08
411.59	2221.17
411.78	2113.50
411.98	2228.19
412.17	2251.60
412.36	2314.79
412.55	2303.09
412.74	2469.27
412.93	2385.01
413.12	2300.75
413.31	2382.67
413.50	2387.35
413.69	2452.88
413.88	2499.69
414.07	2441.18
414.26	2462.24
414.45	2504.37
414.64	2595.65
414.83	2525.44
415.02	2628.42
415.22	2705.66
415.41	2818.00
415.60	2661.19
415.79	2621.40
415.98	2780.56
416.17	2733.75
416.36	2759.49
416.55	2792.26
416.74	2801.62
416.93	2822.69
417.12	2841.41
417.31	2773.53
417.50	2998.23
417.69	2995.89
417.88	2923.33
418.07	2967.80
418.26	2928.01
418.45	3131.64
418.64	3241.64
418.83	3162.06
419.02	2958.44
419.21	3183.13
419.39	3068.44
419.58	3187.81
419.77	3138.66
419.96	3089.51
420.15	3255.69
420.34	3164.40
420.53	3162.06
420.72	3363.35
420.91	3316.54
421.10	3314.20
421.29	3405.48
421.48	3391.44
421.67	3353.99
421.86	3220.58
422.05	3204.19
422.24	3265.05
422.43	3330.58
422.61	3393.78
422.80	3389.10
422.99	3389.10
423.18	3426.54
423.37	3442.93
423.56	3440.59
423.75	3382.07
423.94	3398.46
424.13	3068.44
424.32	3346.97
424.50	3555.27
424.69	3468.67
424.88	3536.55
425.07	3447.61
425.26	3363.35
425.45	3304.84
425.64	3543.57
425.83	3543.57
426.01	3428.88
426.20	3410.16
426.39	3508.46
426.58	3524.85
426.77	3524.85
426.96	3620.81
427.15	3510.80
427.33	3496.76
427.52	3616.13
427.71	3660.60
427.90	3480.38
428.09	3641.87
428.28	3775.28
428.46	3733.15
428.65	3574.00
428.84	3695.71
429.03	3674.64
429.22	3527.19
429.40	3747.20
429.59	3808.05
429.78	3503.78
429.97	3543.57
430.16	3655.92
430.34	3695.71
430.53	3868.91
430.72	3824.44
430.91	3709.75
431.10	3705.07
431.28	3936.78
431.47	4007.00
431.66	4074.87
431.85	4011.68
432.03	4119.34
432.22	4067.85
432.41	4074.87
432.60	4187.22
432.79	4175.52
432.97	4065.51
433.16	4196.58
433.35	4072.53
433.54	4173.18
433.72	4173.18
433.91	4245.73
434.10	4224.67
434.28	4276.16
434.47	4217.65
434.66	4285.52
434.85	4344.03
435.03	4142.75
435.22	4386.16
435.41	4521.92
435.59	4444.68
435.78	4390.84
435.97	4334.67
436.16	4496.17
436.34	4489.15
436.53	4517.23
436.72	4585.11
436.90	4362.76
437.09	4561.70
437.28	4552.34
437.46	4643.62
437.65	4524.26
437.84	4744.27
438.02	4524.26
438.21	4531.28
438.40	4519.57
438.58	4795.76
438.77	4807.46
438.96	4765.33
439.14	4730.22
439.33	4835.55
439.52	5018.11
439.70	5022.79
439.89	5032.15
440.08	5081.30
440.26	4961.94
440.45	4950.23
440.63	5093.01
440.82	5144.50
441.01	5085.98
441.19	5153.86
441.38	5329.40
441.57	5315.36
441.75	5343.44
441.94	5430.04
442.12	5476.85
442.31	5448.77
442.50	5425.36
442.68	5490.90
442.87	5448.77
443.05	5570.48
443.24	5692.18
443.43	5526.00
443.61	5661.76
443.80	5797.51
443.98	5657.07
444.17	5394.93
444.35	5650.05
444.54	5696.86
444.73	5680.48
444.91	5790.49
445.10	5561.11
445.28	5788.14
445.47	5806.87
445.65	5727.29
445.84	5654.73
446.02	5729.63
446.21	5729.63
446.39	5659.42
446.58	5781.12
446.77	5713.25
446.95	5523.66
447.14	5692.18
447.32	5825.59
447.51	5830.27
447.69	5760.06
447.88	5865.38
448.06	5928.58
448.25	5785.80
448.43	5776.44
448.62	5839.64
448.80	5970.71
448.99	5949.64
449.17	5895.81
449.36	5954.32
449.54	6047.94
449.73	6235.19
449.91	6176.67
450.10	6113.48
450.28	6181.35
450.46	6171.99
450.65	6080.71
450.83	6263.27
451.02	6143.91
451.20	6368.60
451.39	6305.40
451.57	6286.68
451.76	6209.44
451.94	6244.55
452.13	6211.78
452.31	6289.02
452.49	6146.25
452.68	6291.36
452.86	6443.49
453.05	6445.84
453.23	6516.05
453.42	6560.52
453.60	6548.82
453.78	6312.42
453.97	6478.60
454.15	6567.54
454.34	6417.75
454.52	6471.58
454.70	6799.26
454.89	6686.91
455.07	6656.48
455.26	6729.04
455.44	6808.62
455.62	6712.66
455.81	6771.17
455.99	6670.53
456.17	6972.46
456.36	6871.81
456.54	6822.66
456.73	7059.06
456.91	7005.22
457.09	7220.55
457.28	7145.66
457.46	6939.69
457.64	7075.44
457.83	7045.01
458.01	7028.63
458.19	7194.81
458.38	7173.74
458.56	7229.91
458.74	7262.68
458.93	7246.30
459.11	7190.13
459.29	7124.59
459.48	7433.54
459.66	7353.96
459.84	7344.60
460.03	7499.08
460.21	7358.64
460.39	7461.63
460.57	7379.71
460.76	7623.12
460.94	7695.68
461.12	7536.52
461.31	7744.83
461.49	7548.23
461.67	7438.22
461.85	7653.55
462.04	7573.97
462.22	8255.07
462.40	7674.62
462.59	7786.96
462.77	7812.71
462.95	7953.14
463.13	7737.81
463.32	7808.03
463.50	8013.99
463.68	7889.95
463.86	7920.37
464.05	7857.18
464.23	7803.35
464.41	7885.26
464.59	7833.77
464.78	7997.61
464.96	7967.18
465.14	7981.23
465.32	8084.21
465.50	8245.71
465.69	8121.66
465.87	8079.53
466.05	8290.18
466.23	8154.43
466.41	8128.68
466.60	8290.18
466.78	8039.74
466.96	8297.20
467.14	8217.62
467.32	8219.96
467.51	8634.24
467.69	8102.93
467.87	8271.45
468.05	8421.25
468.23	8428.27
468.41	8222.30
468.60	8395.50
468.78	8325.29
468.96	8416.57
469.14	8535.93
469.32	8713.81
469.50	8386.14
469.69	8617.85
469.87	8734.88
470.05	8751.26
470.23	8943.19
470.41	8975.95
470.59	8615.51
470.77	8915.10
470.95	8877.65
471.14	9025.11
471.32	8847.22
471.50	8889.35
471.68	9191.28
471.86	9025.11
472.04	9195.96
472.22	9399.59
472.40	8973.61
472.58	9259.16
472.77	9287.25
472.95	9504.92
473.13	9675.77
473.31	9378.53
473.49	9432.36
473.67	9378.53
473.85	9444.06
474.03	9682.80
474.21	9561.09
474.39	9811.53
474.57	9760.03
474.75	10040.90
474.93	9949.62
475.12	9755.35
475.30	9994.09
475.48	10005.79
475.66	10024.51
475.84	10010.47
476.02	10160.27
476.20	10237.50
476.38	10494.96
476.56	10677.52
476.74	10410.70
476.92	10464.54
477.10	10579.22
477.28	10707.95
477.46	10551.14
477.64	10696.25
477.82	10808.59
478.00	11000.52
478.18	11129.25
478.36	11227.55
478.54	11300.11
478.72	11190.10
478.90	11634.80
479.08	11620.76
479.26	11676.93
479.44	11630.12
479.62	11719.06
479.80	11744.81
479.98	11864.18
480.16	12334.62
480.34	12067.80
480.52	12299.52
480.70	12315.90
480.88	12123.98
481.06	12528.89
481.24	12472.71
481.41	12538.25
481.59	12599.10
481.77	12505.48
481.95	12957.21
482.13	13165.51
482.31	12886.99
482.49	13268.50
482.67	13191.26
482.85	13722.56
483.03	13549.36
483.21	13565.74
483.39	13785.76
483.57	13832.57
483.74	13790.44
483.92	14125.13
484.10	13881.72
484.28	14246.84
484.46	14338.12
484.64	14551.11
484.82	14303.01
485.00	14354.51
485.18	14572.18
485.35	15019.22
485.53	14717.29
485.71	14904.53
485.89	15286.04
486.07	15321.15
486.25	15157.31
486.43	15452.22
486.61	15468.60
486.78	15529.45
486.96	15749.46
487.14	15887.56
487.32	15997.56
487.50	16334.60
487.68	16388.43
487.85	16421.20
488.03	16987.61
488.21	16823.77
488.39	16683.34
488.57	16737.17
488.75	16950.16
488.92	17186.55
489.10	17621.89
489.28	17434.65
489.46	17694.45
489.64	17635.94
489.81	17933.18
489.99	18052.55
490.17	17862.97
490.35	18183.62
490.53	18008.08
490.70	18431.72
490.88	18405.97
491.06	18628.32
491.24	18874.08
491.41	18778.12
491.59	18513.64
491.77	18773.44
491.95	18972.38
492.13	19520.07
492.30	19424.11
492.48	19630.07
492.66	19571.56
492.84	19587.94
493.01	19721.35
493.19	20011.58
493.37	20140.31
493.54	19995.20
493.72	20418.83
493.90	20505.43
494.08	20517.14
494.25	20833.11
494.43	20891.62
494.61	20924.39
494.79	21308.24
494.96	21062.48
495.14	21048.44
495.32	21348.03
495.49	21319.94
495.67	21338.66
495.85	21699.11
496.02	21860.60
496.20	21972.95
496.38	21930.82
496.55	22356.80
496.73	22356.80
496.91	22384.88
497.09	21989.33
497.26	22473.82
497.44	22661.07
497.62	22796.82
497.79	23087.04
497.97	22902.14
498.14	23417.06
498.32	22906.82
498.50	23185.35
498.67	23494.30
498.85	23681.54
499.03	23531.75
499.20	23836.02
499.38	23676.86
499.56	23941.34
499.73	23953.04
499.91	23934.32
500.08	24002.19
500.26	24135.60
500.44	24327.53
500.61	24301.78
500.79	24547.54
500.97	24552.22
501.14	25027.35
501.32	24964.15
501.49	24945.43
501.67	24947.77
501.84	25116.29
502.02	24907.98
502.20	25111.61
502.37	25490.77
502.55	25329.28
502.72	25247.36
502.90	25406.52
503.07	25324.60
503.25	25476.73
503.43	25741.21
503.60	25986.97
503.78	25872.28
503.95	25949.52
504.13	25944.84
504.30	26190.59
504.48	26405.92
504.65	26497.20
504.83	26216.34
505.01	26464.44
505.18	26171.87
505.36	26637.64
505.53	26808.50
505.71	26829.56
505.88	27075.32
506.06	26862.33
506.23	27023.83
506.41	26913.82
506.58	27426.40
506.76	27124.47
506.93	27445.12
507.11	27337.46
507.28	27337.46
507.46	27190.00
507.63	27143.19
507.81	28051.32
507.98	27307.03
508.16	27744.71
508.33	27838.33
508.50	28121.54
508.68	27875.78
508.85	28446.87
509.03	28154.30
509.20	28297.08
509.38	28807.31
509.55	28489.00
509.73	28737.10
509.90	28924.34
510.08	28746.46
510.25	28769.86
510.42	28877.53
510.60	29151.37
510.77	28971.15
510.95	29142.01
511.12	29212.23
511.30	29268.40
511.47	29879.28
511.64	29530.54
511.82	29528.20
511.99	29467.34
512.17	29593.73
512.34	29542.24
512.51	29656.93
512.69	30029.07
512.86	29898.00
513.04	30235.04
513.21	30008.01
513.38	29797.36
513.56	30153.12
513.73	30326.32
513.90	30352.07
514.08	30536.97
514.25	30710.17
514.43	30279.51
514.60	30462.07
514.77	30501.86
514.95	30724.21
515.12	31096.36
515.29	31115.08
515.47	31351.48
515.64	31199.34
515.81	31075.29
515.99	31063.59
516.16	31587.87
516.33	31803.20
516.51	31449.78
516.68	31089.34
516.85	31091.68
517.03	31704.90
517.20	31660.43
517.37	31714.26
517.54	31707.24
517.72	31634.68
517.89	31814.90
518.06	32004.49
518.24	31611.28
518.41	31882.78
518.58	32013.85
518.75	31709.58
518.93	32346.20
519.10	32212.79
519.27	32514.72
519.45	32456.21
519.62	32732.39
519.79	32528.77
519.96	32741.75
520.14	32959.42
520.31	32945.38
520.48	32992.19
520.65	32671.54
520.83	33443.91
521.00	33118.58
521.17	33202.84
521.34	33036.66
521.52	33502.43
521.69	33347.95
521.86	33752.87
522.03	33558.60
522.20	33495.41
522.38	33715.42
522.55	33546.90
522.72	33853.51
522.89	33930.75
523.07	33968.19
523.24	33521.15
523.41	34291.19
523.58	33907.34
523.75	34359.06
523.92	34616.52
524.10	34726.53
524.27	34904.41
524.44	34845.90
524.61	34225.65
524.78	34611.84
524.96	34897.39
525.13	35077.61
525.30	34717.17
525.47	35124.42
525.64	35311.66
525.81	35129.10
525.98	35119.74
526.16	34995.69
526.33	35129.10
526.50	35218.04
526.67	34932.50
526.84	35220.38
527.01	34756.96
527.18	35468.48
527.36	35648.70
527.53	35512.95
527.70	36041.91
527.87	35620.61
528.04	35594.87
528.21	36077.02
528.38	35868.71
528.55	35695.51
528.72	35915.52
528.89	36355.54
529.07	35892.12
529.24	36196.38
529.41	36116.81
529.58	35929.56
529.75	36231.49
529.92	36287.67
530.09	36439.80
530.26	36603.64
530.43	36741.73
530.60	35814.88
530.77	36247.88
530.94	36442.14
531.11	36423.42
531.28	37266.01
531.46	36481.93
531.63	36891.52
531.80	37036.64
531.97	36734.71
532.14	36856.42
532.31	37081.11
532.48	37209.84
532.65	37071.75
532.82	37195.79
532.99	36994.51
533.16	36823.65
533.33	37429.85
533.50	37420.48
533.67	37338.57
533.84	37563.26
534.01	37490.70
534.18	37642.84
534.35	37574.96
534.52	37668.58
534.69	37961.15
534.86	37979.87
535.03	37467.30
535.20	37940.08
535.37	38574.37
535.54	37900.29
535.71	38054.77
535.88	37869.87
536.05	37720.07
536.22	37935.40
536.38	37954.13
536.55	38136.69
536.72	38602.46
536.89	37785.61
537.06	38132.01
537.23	37968.17
537.40	38347.34
537.57	38087.54
537.74	38337.98
537.91	38717.14
538.08	38602.46
538.25	38487.77
538.42	38525.22
538.59	38464.36
538.75	38513.52
538.92	38705.44
539.09	38745.23
539.26	38892.68
539.43	38440.96
539.60	38518.20
539.77	38438.62
539.94	38953.54
540.11	38728.84
540.28	39086.95
540.44	38897.36
540.61	39173.55
540.78	39250.78
540.95	39093.97
541.12	39171.21
541.29	39098.65
541.46	38983.96
541.62	39332.70
541.79	39559.73
541.96	38780.34
542.13	39573.78
542.30	39557.39
542.47	39688.46
542.63	39784.43
542.80	39866.34
542.97	39894.43
543.14	40098.06
543.31	40325.09
543.48	40016.14
543.64	40414.03
543.81	40243.17
543.98	40147.21
544.15	40252.53
544.32	40222.11
544.48	40507.65
544.65	40437.44
544.82	40245.51
544.99	40285.30
545.16	40222.11
545.32	40493.61
545.49	40552.12
545.66	40755.75
545.83	40385.94
546.00	41038.95
546.16	40786.18
546.33	40767.45
546.50	40327.43
546.67	41076.40
546.83	40449.14
547.00	40638.72
547.17	40676.17
547.34	40685.53
547.50	41022.57
547.67	40816.60
547.84	40783.83
548.00	40865.75
548.17	40954.69
548.34	40786.18
548.51	41757.50
548.67	40774.47
548.84	41270.67
549.01	41397.06
549.18	41102.15
549.34	40975.76
549.51	41509.40
549.68	41305.77
549.84	41251.94
550.01	41989.21
550.18	41111.51
550.34	41359.61
550.51	41624.09
550.68	41687.28
550.84	41013.21
551.01	41816.01
551.18	41631.11
551.34	41808.99
551.51	41886.23
551.68	41687.28
551.84	42059.43
552.01	41631.11
552.18	41523.44
552.34	41813.67
552.51	42190.50
552.68	42445.62
552.84	42305.18
553.01	42490.09
553.18	42038.36
553.34	42092.19
553.51	41511.74
553.67	42197.52
553.84	42567.32
554.01	42120.28
554.17	42387.10
554.34	42347.31
554.51	42564.98
554.67	42588.39
554.84	42548.60
555.00	42115.60
555.17	41944.74
555.33	42433.91
555.50	42689.03
555.67	42403.49
555.83	42370.72
556.00	42850.53
556.16	42878.61
556.33	42667.97
556.50	42728.82
556.66	42981.60
556.83	42600.09
556.99	42733.50
557.16	42447.96
557.32	42564.98
557.49	43075.22
557.65	42249.01
557.82	42588.39
557.98	42773.29
558.15	42679.67
558.32	43110.33
558.48	43026.07
558.65	42916.06
558.81	42937.13
558.98	42873.93
559.14	42995.64
559.31	43009.68
559.47	42948.83
559.64	43009.68
559.80	43349.06
559.97	42909.04
560.13	42635.20
560.30	42775.63
560.46	43332.68
560.63	43253.10
560.79	42986.28
560.96	43220.33
561.12	43257.78
561.29	43105.65
561.45	43784.40
561.61	43290.55
561.78	43433.32
561.94	43309.27
562.11	43660.35
562.27	42934.79
562.44	43016.71
562.60	43407.58
562.77	43744.61
562.93	43271.82
563.10	43533.96
563.26	43206.29
563.42	43805.47
563.59	43185.22
563.75	43573.75
563.92	43835.89
564.08	43896.75
564.24	43634.61
564.41	43501.20
564.57	43210.97
564.74	43824.19
564.90	44079.31
565.07	43751.63
565.23	43592.48
565.39	43569.07
565.56	43695.46
565.72	43440.34
565.88	43892.07
566.05	43503.54
566.21	43859.30
566.38	43831.21
566.54	43611.20
566.70	43782.06
566.87	44025.48
567.03	43402.89
567.19	44243.15
567.36	43807.81
567.52	44165.91
567.68	43927.17
567.85	43629.93
568.01	43800.79
568.17	43859.30
568.34	44102.71
568.50	43885.04
568.66	43793.76
568.83	44027.82
568.99	43819.51
569.15	43718.87
569.32	43732.91
569.48	43730.57
569.64	44486.56
569.81	44144.84
569.97	43613.54
570.13	44079.31
570.30	44060.58
570.46	43716.53
570.62	43751.63
570.78	43854.62
570.95	43983.35
571.11	44289.96
571.27	44011.43
571.43	44072.29
571.60	43863.98
571.76	43899.09
571.92	44161.23
572.09	43981.01
572.25	44079.31
572.41	44215.06
572.57	43964.62
572.74	44603.59
572.90	44023.14
573.06	44027.82
573.22	43772.70
573.38	44392.94
573.55	43945.90
573.71	43952.92
573.87	44184.63
574.03	43985.69
574.20	43819.51
574.36	44011.43
574.52	44165.91
574.68	44268.89
574.84	44280.60
575.01	44304.00
575.17	44383.58
575.33	44016.11
575.49	43885.04
575.65	44399.96
575.82	44451.45
575.98	44002.07
576.14	44732.32
576.30	43920.15
576.46	44044.20
576.62	44091.01
576.79	44114.42
576.95	43758.66
577.11	44376.56
577.27	44357.83
577.43	43992.71
577.59	44650.40
577.75	44018.46
577.92	43732.91
578.08	44168.25
578.24	44306.34
578.40	44264.21
578.56	44378.90
578.72	44175.27
578.88	44390.60
579.04	44224.42
579.21	44444.43
579.37	44594.23
579.53	44313.36
579.69	43962.28
579.85	44067.61
580.01	44275.91
580.17	44320.38
580.33	44713.59
580.49	44542.74
580.65	44399.96
580.82	44348.47
580.98	44385.92
581.14	44149.53
581.30	44465.50
581.46	44189.31
581.62	44561.46
581.78	44315.70
581.94	44568.48
582.10	44549.76
582.26	44715.93
582.42	44313.36
582.58	44142.50
582.74	44016.11
582.90	44278.25
583.06	44697.21
583.22	44547.42
583.38	44816.58
583.54	44135.48
583.70	44547.42
583.86	44163.57
584.02	44254.85
584.18	44531.03
584.34	44062.93
584.50	43873.34
584.66	44219.74
584.82	44568.48
584.98	44793.17
585.14	44294.64
585.30	44268.89
585.46	43753.97
585.62	44552.10
585.78	44498.26
585.94	44121.44
586.10	44353.15
586.26	44311.02
586.42	44521.67
586.58	44296.98
586.74	44528.69
586.90	44343.79
587.06	44477.20
587.22	44734.66
587.38	44156.55
587.54	44891.48
587.70	44418.69
587.86	44350.81
588.02	44521.67
588.18	44524.01
588.34	44175.27
588.49	44252.51
588.65	44381.24
588.81	44271.23
588.97	44381.24
589.13	43999.73
589.29	44210.38
589.45	44189.31
589.61	44533.37
589.77	44624.65
589.93	44921.90
590.08	45024.89
590.24	44959.35
590.40	44999.14
590.56	45050.63
590.72	45146.59
590.88	44673.81
591.04	44540.39
591.20	45387.67
591.35	44818.92
591.51	45263.62
591.67	44561.46
591.83	44980.42
591.99	44481.88
592.15	44720.62
592.31	44245.49
592.46	44634.02
592.62	44259.53
592.78	44732.32
592.94	44830.62
593.10	45120.85
593.26	44697.21
593.41	44685.51
593.57	44832.96
593.73	44910.20
593.89	45041.27
594.05	44608.27
594.20	44622.31
594.36	45059.99
594.52	44914.88
594.68	44425.71
594.84	44374.22
594.99	45242.56
595.15	44589.55
595.31	45254.26
595.47	44928.92
595.62	45174.68
595.78	44449.11
595.94	44985.10
596.10	45050.63
596.25	45158.30
596.41	45048.29
596.57	45144.25
596.73	44809.56
596.88	44353.15
597.04	45120.85
597.20	44369.54
597.36	44659.76
597.51	45113.83
597.67	45162.98
597.83	44861.05
597.99	45029.57
598.14	44844.66
598.30	45017.86
598.46	44299.32
598.61	44594.23
598.77	44704.23
598.93	44629.34
599.09	44708.91
599.24	45111.49
599.40	45104.46
599.56	45057.65
599.71	45198.09
599.87	45097.44
600.03	44825.94
600.18	44610.61
600.34	44924.24
600.50	44914.88
600.65	44823.60
600.81	45179.36
600.97	45268.30
601.12	45324.47
601.28	45347.88
601.44	44964.03
601.59	44877.43
601.75	44734.66
601.91	44406.98
602.06	45020.20
602.22	44896.16
602.37	44935.95
602.53	44921.90
602.69	44996.80
602.84	45193.40
603.00	44629.34
603.16	44491.24
603.31	44818.92
603.47	44921.90
603.62	44837.64
603.78	44521.67
603.94	44992.12
604.09	45439.16
604.25	45043.61
604.40	45191.06
604.56	44999.14
604.71	44992.12
604.87	44802.53
605.03	45015.52
605.18	44926.58
605.34	44788.49
605.49	44465.50
605.65	44900.84
605.80	44835.30
605.96	45048.29
606.12	44999.14
606.27	44851.69
606.43	45029.57
606.58	45230.85
606.74	44573.16
606.89	44722.96
607.05	44924.24
607.20	44425.71
607.36	44753.38
607.51	44980.42
607.67	44926.58
607.82	44987.44
607.98	44746.36
608.13	44638.70
608.29	44671.46
608.44	44402.30
608.60	44278.25
608.75	44383.58
608.91	44055.90
609.06	44208.04
609.22	44657.42
609.37	44554.44
609.53	44964.03
609.68	44556.78
609.84	44369.54
609.99	44575.50
610.15	44416.35
610.30	44067.61
610.46	44315.70
610.61	44116.76
610.76	44205.70
610.92	44329.75
611.07	44465.50
611.23	44598.91
611.38	44224.42
611.54	43693.12
611.69	43838.23
611.84	44315.70
612.00	44273.57
612.15	44067.61
612.31	44109.74
612.46	44296.98
612.62	44083.99
612.77	44463.16
612.92	43995.05
613.08	43800.79
613.23	43917.81
613.39	44006.75
613.54	43964.62
613.69	44217.40
613.85	43828.87
614.00	44383.58
614.15	44528.69
614.31	44371.88
614.46	44584.86
614.62	43810.15
614.77	44306.34
614.92	43564.39
615.08	43966.96
615.23	44044.20
615.38	43873.34
615.54	43283.53
615.69	43758.66
615.84	43498.86
616.00	43440.34
616.15	43807.81
616.30	44041.86
616.46	43693.12
616.61	43510.56
616.76	43772.70
616.92	43180.54
617.07	43969.30
617.22	43454.39
617.37	43597.16
617.53	43454.39
617.68	43344.38
617.83	43718.87
617.99	44048.88
618.14	43840.57
618.29	43152.46
618.45	43248.42
618.60	43559.71
618.75	43564.39
618.90	43281.19
619.06	43512.90
619.21	43349.06
619.36	43721.21
619.51	43075.22
619.67	42986.28
619.82	43278.85
619.97	42967.55
620.12	42937.13
620.28	42349.65
620.43	42700.73
620.58	43445.02
620.73	43335.02
620.89	42815.42
621.04	43508.22
621.19	43051.81
621.34	42976.92
621.49	43014.37
621.65	43175.86
621.80	42946.49
621.95	42476.04
622.10	42916.06
622.25	43133.73
622.41	42518.17
622.56	42333.27
622.71	43068.20
622.86	42548.60
623.01	42789.67
623.16	43133.73
623.32	42763.93
623.47	42969.90
623.62	43115.01
623.77	42478.38
623.92	42464.34
624.07	42293.48
624.23	42412.85
624.38	42359.02
624.53	42073.47
624.68	42843.51
624.83	42115.60
624.98	42651.58
625.13	42113.26
625.29	42541.58
625.44	42520.51
625.59	42024.32
625.74	41867.50
625.89	42094.53
626.04	42010.28
626.19	42010.28
626.34	42445.62
626.49	42487.74
626.65	42323.91
626.80	42078.15
626.95	42131.98
627.10	41731.75
627.25	41689.62
627.40	42078.15
627.55	41219.17
627.70	40905.54
627.85	41415.78
628.00	41661.54
628.15	41972.83
628.30	41935.38
628.45	42464.34
628.60	41729.41
628.76	41783.24
628.91	41631.11
629.06	41394.71
629.21	41474.29
629.36	42082.83
629.51	41261.30
629.66	41460.25
629.81	41588.98
629.96	41158.32
630.11	41830.05
630.26	41373.65
630.41	41755.16
630.56	41457.91
630.71	41563.23
630.86	41783.24
631.01	41345.56
631.16	41584.30
631.31	41053.00
631.46	40931.29
631.61	41315.14
631.76	41284.71
631.91	41607.70
632.06	41275.35
632.21	41364.29
632.36	41450.89
632.51	41195.77
632.66	41394.71
632.81	40678.51
632.96	41228.54
633.10	40603.61
633.25	40547.44
633.40	40971.08
633.55	41041.29
633.70	40786.18
633.85	40528.72
634.00	41048.32
634.15	40730.00
634.30	40477.22
634.45	40701.92
634.60	40486.59
634.75	40708.94
634.90	41163.00
635.05	40552.12
635.19	40519.35
635.34	40931.29
635.49	40411.69
635.64	40315.73
635.79	40495.95
635.94	40650.42
636.09	40811.92
636.24	40416.37
636.39	40383.60
636.53	40584.89
636.68	40367.22
636.83	40226.79
636.98	40636.38
637.13	39969.33
637.28	40622.34
637.43	40308.71
637.57	40191.68
637.72	40271.26
637.87	40091.04
638.02	40381.26
638.17	40163.59
638.32	40079.33
638.46	40268.92
638.61	40177.64
638.76	39391.22
638.91	39957.63
639.06	39643.99
639.20	40215.08
639.35	40121.46
639.50	39938.90
639.65	39805.49
639.80	39697.83
639.94	39871.03
640.09	39817.19
640.24	39517.60
640.39	39248.44
640.54	39737.62
640.68	39849.96
640.83	39838.26
640.98	39416.96
641.13	39548.03
641.27	39824.22
641.42	39014.39
641.57	39754.00
641.72	39749.32
641.86	39475.48
642.01	39597.18
642.16	39384.19
642.31	38667.99
642.45	39044.82
642.60	39044.82
642.75	39175.89
642.90	39192.27
643.04	39353.77
643.19	39161.84
643.34	39555.05
643.48	38841.19
643.63	39409.94
643.78	39054.18
643.93	38714.80
644.07	38845.87
644.22	39093.97
644.37	38646.93
644.51	38843.53
644.66	38934.81
644.81	39044.82
644.95	39253.12
645.10	39035.45
645.25	39463.77
645.39	38951.20
645.54	39178.23
645.69	38735.87
645.83	38642.24
645.98	38822.47
646.13	39105.67
646.27	39079.92
646.42	38780.34
646.57	38735.87
646.71	39192.27
646.86	38731.18
647.00	38710.12
647.15	38866.94
647.30	38981.62
647.44	38431.60
647.59	38515.86
647.74	38672.67
647.88	38307.55
648.03	38682.03
648.17	38295.85
648.32	38396.49
648.47	38178.82
648.61	38347.34
648.76	38176.48
648.90	38370.74
649.05	38792.04
649.20	38398.83
649.34	38520.54
649.49	38082.86
649.63	37584.32
649.78	38455.00
649.92	38054.77
650.07	38342.66
650.21	38225.63
650.36	38515.86
650.51	38113.28
650.65	38359.04
650.80	38220.95
650.94	38244.35
651.09	38103.92
651.23	37797.31
651.38	37979.87
651.52	38085.20
651.67	38363.72
651.81	37935.40
651.96	37806.67
652.10	37926.04
652.25	37535.17
652.39	37790.29
652.54	38199.88
652.68	38157.75
652.83	37820.72
652.97	37682.62
653.12	37977.53
653.26	38047.75
653.41	37722.41
653.55	37256.65
653.70	37640.50
653.84	37780.93
653.99	37839.44
654.13	37581.98
654.27	37251.97
654.42	37642.84
654.56	37216.86
654.71	37677.94
654.85	37422.83
655.00	37710.71
655.14	37064.72
655.29	36807.26
655.43	36678.54
655.57	37043.66
655.72	36935.99
655.86	37188.77
656.01	36973.44
656.15	37008.55
656.30	36598.96
656.44	37141.96
656.58	36854.08
656.73	36268.94
656.87	36802.58
657.01	36545.12
657.16	36809.61
657.30	36622.36
657.45	36615.34
657.59	36446.82
657.73	36624.70
657.88	36676.19
658.02	36620.02
658.16	36793.22
658.31	36844.71
658.45	36938.33
658.60	36605.98
658.74	36804.92
658.88	36664.49
659.03	36252.56
659.17	36182.34
659.31	36116.81
659.46	36147.23
659.60	35910.84
659.74	36208.09
659.89	36184.68
660.03	35707.21
660.17	36261.92
660.32	36004.46
660.46	36383.63
660.60	36170.64
660.74	36039.57
660.89	36301.71
661.03	35791.47
661.17	35435.71
661.32	35367.84
661.46	35735.30
661.60	35491.88
661.74	35821.90
661.89	35613.59
662.03	35414.65
662.17	35414.65
662.31	35351.45
662.46	35732.96
662.60	35480.18
662.74	35475.50
662.88	35431.03
663.03	35096.33
663.17	35236.77
663.31	35419.33
663.45	35204.00
663.60	34960.58
663.74	34988.67
663.88	34857.60
664.02	34817.81
664.17	34792.06
664.31	34672.70
664.45	34925.47
664.59	35044.84
664.73	35040.16
664.88	34728.87
665.02	34307.57
665.16	34546.31
665.30	34562.69
665.44	34433.96
665.59	34263.10
665.73	33876.91
665.87	34080.54
666.01	33979.90
666.15	34059.48
666.29	34249.06
666.44	34176.50
666.58	34286.51
666.72	34054.79
666.86	34052.45
667.00	33986.92
667.14	34019.69
667.28	33865.21
667.43	33865.21
667.57	33507.11
667.71	33467.32
667.85	33436.89
667.99	33303.48
668.13	33544.56
668.27	33628.82
668.41	33684.99
668.56	33186.46
668.70	33418.17
668.84	33153.69
668.98	32982.83
669.12	32936.02
669.26	33060.07
669.40	32741.75
669.54	32938.36
669.68	33057.73
669.82	32968.79
669.96	32563.87
670.10	32591.96
670.25	32851.76
670.39	33090.49
670.53	32610.68
670.67	32456.21
670.81	32451.53
670.95	32697.28
671.09	32409.40
671.23	32327.48
671.37	32776.86
671.51	32070.02
671.65	32046.62
671.79	31630.00
671.93	32116.83
672.07	31952.99
672.21	32067.68
672.35	32158.96
672.49	31871.07
672.63	31585.53
672.77	31735.32
672.91	31608.93
673.05	31655.75
673.19	31229.77
673.33	31182.96
673.47	31370.20
673.61	30937.20
673.75	30869.33
673.89	31316.37
674.03	30586.12
674.17	30892.73
674.31	31229.77
674.45	30675.06
674.59	30637.61
674.73	31016.78
674.87	30581.44
675.01	30630.59
675.15	30869.33
675.29	30588.46
675.43	30604.84
675.56	30232.70
675.70	30373.13
675.84	30010.35
675.98	29584.37
676.12	29968.22
676.26	29745.87
676.40	29612.46
676.54	29766.93
676.68	29783.32
676.82	29172.44
676.96	29750.55
677.10	29034.35
677.23	29158.39
677.37	29329.25
677.51	29226.27
677.65	29235.63
677.79	28896.25
677.93	29142.01
678.07	28650.50
678.21	28547.51
678.34	28435.17
678.48	28542.83
678.62	28554.54
678.76	28292.40
678.90	28395.38
679.04	28226.86
679.18	28116.86
679.31	28048.98
679.45	27798.54
679.59	27426.40
679.73	27669.81
679.87	27613.64
680.00	27531.72
680.14	27587.89
680.28	27407.67
680.42	26852.97
680.56	27285.97
680.70	27269.58
680.83	27119.79
680.97	27002.76
681.11	26745.30
681.25	26796.79
681.39	26719.56
681.52	26969.99
681.66	26328.69
681.80	26904.46
681.94	26441.03
682.07	26609.55
682.21	26630.62
682.35	26132.08
682.49	26272.51
682.62	26270.17
682.76	25738.87
682.90	25802.07
683.04	25795.04
683.17	26005.69
683.31	25933.14
683.45	25750.57
683.59	25436.94
683.72	25291.83
683.86	24959.47
684.00	25036.71
684.13	25191.19
684.27	25427.58
684.41	24982.88
684.55	24573.28
684.68	24912.66
684.82	24924.36
684.96	24402.43
685.09	24840.11
685.23	24706.70
685.37	24580.31
685.50	24570.94
685.64	24226.89
685.78	24128.58
685.91	24493.71
686.05	24299.44
686.19	23335.14
686.32	23735.37
686.46	23761.12
686.60	23639.41
686.73	23828.99
686.87	23157.26
687.01	23410.04
687.14	23559.83
687.28	23168.96
687.42	22881.08
687.55	23002.78
687.69	22625.96
687.82	22993.42
687.96	22923.21
688.10	22782.77
688.23	22726.60
688.37	22204.66
688.50	22412.97
688.64	22106.36
688.78	22190.62
688.91	22181.26
689.05	22314.67
689.18	21963.59
689.32	21675.70
689.46	21862.94
689.59	21951.88
689.73	22237.43
689.86	21708.47
690.00	21614.85
690.13	21689.74
690.27	21752.94
690.41	21174.83
690.54	21226.32
690.68	20987.58
690.81	21041.42
690.95	20554.58
691.08	20767.57
691.22	20786.30
691.35	20774.60
691.49	21106.95
691.62	20971.20
691.76	20781.62
691.89	20510.11
692.03	20278.40
692.16	20343.94
692.30	20215.21
692.43	20140.31
692.57	19871.15
692.70	20184.78
692.84	20030.30
692.97	19831.36
693.11	19655.82
693.24	19267.29
693.38	19648.80
693.51	19428.79
693.65	19372.61
693.78	19365.59
693.92	19456.87
694.05	19138.56
694.19	19225.16
694.32	19098.77
694.45	19286.01
694.59	18860.04
694.72	18974.72
694.86	18948.98
694.99	18586.19
695.13	18698.54
695.26	18714.92
695.39	18501.93
695.53	18429.38
695.66	18207.03
695.80	18321.71
695.93	17916.80
696.07	18040.85
696.20	17928.50
696.33	18242.14
696.47	18001.06
696.60	17809.14
696.73	17968.29
696.87	17865.31
697.00	17900.42
697.14	17568.06
697.27	17329.33
697.40	17539.97
697.54	17680.41
697.67	17195.92
697.80	17289.54
697.94	16905.69
698.07	17174.85
698.21	16762.92
698.34	17130.38
698.47	17118.68
698.61	16739.51
698.74	16791.00
698.87	16528.86
699.01	16369.71
699.14	16187.14
699.27	16154.38
699.40	16250.34
699.54	16161.40
699.67	16002.24
699.80	15908.62
699.94	15786.91
700.07	15943.73
700.20	15971.82
700.34	15777.55
700.47	15723.72
700.60	15962.45
700.73	15817.34
700.87	15513.07
701.00	15585.63
701.13	15499.03
701.26	15264.97
701.40	15531.80
701.53	15147.95
701.66	15049.64
701.79	15267.31
701.93	15073.05
702.06	15084.75
702.19	14885.81
702.32	14569.83
702.46	14841.34
702.59	14541.75
702.72	14747.72
702.85	14726.65
702.99	14516.00
703.12	14340.46
703.25	14342.80
703.38	14377.91
703.51	14450.47
703.65	14424.72
703.78	14113.43
703.91	13996.40
704.04	14225.78
704.17	13935.55
704.31	13666.39
704.44	13722.56
704.57	13783.41
704.70	13612.56
704.83	13205.30
704.96	13900.44
705.10	13469.78
705.23	13743.63
>>>>>End Processed Spectral Data<<<<<
