SpectraSuite Data File
++++++++++++++++++++++++++++++++++++
Date: Fri Oct 25 10:43:25 EDT 2013
User: price-jones
Dark Spectrum Present: No
Reference Spectrum Present: No
Number of Sampled Component Spectra: 1
Spectrometers: USB2+H05261
Integration Time (usec): 100000 (USB2+H05261)
Spectra Averaged: 1 (USB2+H05261)
Boxcar Smoothing: 0 (USB2+H05261)
Correct for Electrical Dark: No (USB2+H05261)
Strobe/Lamp Enabled: No (USB2+H05261)
Correct for Detector Non-linearity: No (USB2+H05261)
Correct for Stray Light: No (USB2+H05261)
Number of Pixels in Processed Spectrum: 2048
>>>>>Begin Processed Spectral Data<<<<<
365.73	124.05
365.92	124.05
366.12	124.05
366.32	42.13
366.52	0.00
366.72	35.11
366.91	28.09
367.11	0.00
367.31	0.00
367.51	0.00
367.70	0.00
367.90	124.05
368.10	0.00
368.30	0.00
368.49	30.43
368.69	53.83
368.89	30.43
369.09	25.75
369.28	74.90
369.48	72.56
369.68	11.70
369.87	56.17
370.07	11.70
370.27	110.01
370.47	182.56
370.66	351.08
370.86	334.70
371.06	479.81
371.25	493.85
371.45	416.62
371.65	498.53
371.84	416.62
372.04	475.13
372.24	454.06
372.44	496.19
372.63	554.71
372.83	458.74
373.03	540.66
373.22	451.72
373.42	407.25
373.62	433.00
373.81	475.13
374.01	505.56
374.21	507.90
374.40	470.45
374.60	568.75
374.79	510.24
374.99	547.69
375.19	627.26
375.38	503.22
375.58	533.64
375.78	524.28
375.97	669.39
376.17	589.82
376.37	561.73
376.56	624.92
376.76	592.16
376.95	596.84
377.15	589.82
377.35	601.52
377.54	739.61
377.74	695.14
377.93	589.82
378.13	648.33
378.33	669.39
378.52	636.63
378.72	636.63
378.91	704.50
379.11	580.45
379.31	650.67
379.50	622.58
379.70	709.18
379.89	638.97
380.09	683.44
380.28	713.86
380.48	669.39
380.68	664.71
380.87	629.60
381.07	737.27
381.26	751.31
381.46	702.16
381.65	678.76
381.85	751.31
382.04	685.78
382.24	737.27
382.43	678.76
382.63	676.41
382.83	650.67
383.02	748.97
383.22	723.23
383.41	667.05
383.61	660.03
383.80	725.57
384.00	660.03
384.19	744.29
384.39	805.14
384.58	819.19
384.78	746.63
384.97	826.21
385.17	781.74
385.36	636.63
385.56	748.97
385.75	774.72
385.95	753.65
386.14	889.40
386.34	725.57
386.53	777.06
386.72	772.38
386.92	833.23
387.11	933.87
387.31	905.79
387.50	784.08
387.70	805.14
387.89	870.68
388.09	910.47
388.28	870.68
388.48	894.08
388.67	896.43
388.86	947.92
389.06	919.83
389.25	973.66
389.45	985.37
389.64	905.79
389.84	997.07
390.03	961.96
390.22	973.66
390.42	980.68
390.61	910.47
390.81	938.55
391.00	999.41
391.19	1008.77
391.39	1055.58
391.58	1020.47
391.78	1006.43
391.97	1001.75
392.16	1139.84
392.36	1076.65
392.55	971.32
392.75	936.21
392.94	961.96
393.13	978.34
393.33	1018.13
393.52	980.68
393.71	1064.94
393.91	1060.26
394.10	1111.75
394.29	1022.81
394.49	1221.76
394.68	1142.18
394.88	1207.72
395.07	1205.38
395.26	1242.82
395.46	1196.01
395.65	1095.37
395.84	1186.65
396.04	1289.64
396.23	1167.93
396.42	1081.33
396.62	1144.52
396.81	1086.01
397.00	1200.69
397.19	1242.82
397.39	1310.70
397.58	1320.06
397.77	1413.68
397.97	1277.93
398.16	1373.89
398.35	1399.64
398.55	1432.41
398.74	1455.81
398.93	1593.90
399.12	1416.02
399.32	1387.94
399.51	1481.56
399.70	1507.30
399.90	1404.32
400.09	1549.43
400.28	1593.90
400.47	1523.69
400.67	1603.27
400.86	1603.27
401.05	1671.14
401.24	1671.14
401.44	1556.46
401.63	1640.72
401.82	1699.23
402.01	1605.61
402.21	1621.99
402.40	1722.63
402.59	1631.35
402.78	1720.29
402.97	1638.38
403.17	1734.34
403.36	1799.87
403.55	1853.70
403.74	1823.28
403.93	1900.52
404.13	1788.17
404.32	1849.02
404.51	1806.89
404.70	1825.62
404.89	1823.28
405.09	1879.45
405.28	1879.45
405.47	1823.28
405.66	1907.54
405.85	2015.20
406.05	1996.48
406.24	2062.01
406.43	1930.94
406.62	2069.03
406.81	2169.68
407.00	2045.63
407.20	1919.24
407.39	2085.42
407.58	2106.48
407.77	2179.04
407.96	2186.06
408.15	2169.68
408.34	2106.48
408.54	2230.53
408.73	2258.62
408.92	2242.23
409.11	2314.79
409.30	2181.38
409.49	2328.83
409.68	2197.76
409.87	2282.02
410.07	2321.81
410.26	2256.28
410.45	2389.69
410.64	2272.66
410.83	2359.26
411.02	2497.35
411.21	2532.46
411.40	2551.18
411.59	2600.34
411.78	2443.52
411.98	2555.86
412.17	2576.93
412.36	2572.25
412.55	2682.25
412.74	2747.79
412.93	2633.10
413.12	2705.66
413.31	2792.26
413.50	2764.17
413.69	2738.43
413.88	2794.60
414.07	2825.03
414.26	2991.20
414.45	2897.58
414.64	2911.63
414.83	3035.67
415.02	2979.50
415.22	2960.78
415.41	3066.10
415.60	3096.53
415.79	3119.93
415.98	3192.49
416.17	3169.09
416.36	3171.43
416.55	3150.36
416.74	3229.94
416.93	3176.11
417.12	3251.00
417.31	3225.26
417.50	3321.22
417.69	3293.13
417.88	3382.07
418.07	3283.77
418.26	3309.52
418.45	3382.07
418.64	3522.51
418.83	3435.91
419.02	3492.08
419.21	3506.12
419.39	3463.99
419.58	3384.41
419.77	3480.38
419.96	3557.61
420.15	3524.85
420.34	3609.11
420.53	3545.91
420.72	3791.67
420.91	3639.53
421.10	3871.25
421.29	3782.31
421.48	3669.96
421.67	3740.18
421.86	3726.13
422.05	3723.79
422.24	3655.92
422.43	3585.70
422.61	3763.58
422.80	3805.71
422.99	3861.88
423.18	3896.99
423.37	3859.54
423.56	3756.56
423.75	3866.56
423.94	3829.12
424.13	3822.09
424.32	3634.85
424.50	3859.54
424.69	3943.80
424.88	3868.91
425.07	3847.84
425.26	3880.61
425.45	3882.95
425.64	3833.80
425.83	3658.26
426.01	3768.26
426.20	3929.76
426.39	3943.80
426.58	3873.59
426.77	3838.48
426.96	3868.91
427.15	3946.14
427.33	4004.66
427.52	3971.89
427.71	4016.36
427.90	3978.91
428.09	4058.49
428.28	4154.45
428.46	4180.20
428.65	4138.07
428.84	4156.79
429.03	4126.36
429.22	3889.97
429.40	4025.72
429.59	4081.89
429.78	3815.07
429.97	3918.06
430.16	3911.04
430.34	4063.17
430.53	4088.92
430.72	4086.58
430.91	4098.28
431.10	4107.64
431.28	4404.89
431.47	4648.30
431.66	4664.69
431.85	4362.76
432.03	4496.17
432.22	4669.37
432.41	4603.83
432.60	4470.42
432.79	4550.00
432.97	4564.04
433.16	4472.76
433.35	4542.98
433.54	4702.14
433.72	4674.05
433.91	4554.68
434.10	4669.37
434.28	4610.86
434.47	4704.48
434.66	4835.55
434.85	4877.68
435.03	4746.61
435.22	4692.77
435.41	4990.02
435.59	5034.49
435.78	4856.61
435.97	5071.94
436.16	4985.34
436.34	4950.23
436.53	5163.22
436.72	5125.77
436.90	5027.47
437.09	5111.73
437.28	4985.34
437.46	5055.56
437.65	4997.04
437.84	5093.01
438.02	4964.28
438.21	5022.79
438.40	5027.47
438.58	5165.56
438.77	5254.50
438.96	5261.52
439.14	5483.88
439.33	5444.09
439.52	5657.07
439.70	5518.98
439.89	5425.36
440.08	5561.11
440.26	5603.24
440.45	5633.67
440.63	5694.52
440.82	5727.29
441.01	5713.25
441.19	5872.40
441.38	5956.66
441.57	6073.69
441.75	5872.40
441.94	6221.14
442.12	6235.19
442.31	6244.55
442.50	6164.97
442.68	6169.65
442.87	6162.63
443.05	6200.08
443.24	6424.77
443.43	6363.92
443.61	6401.37
443.80	6492.65
443.98	6179.01
444.17	6190.72
444.35	6555.84
444.54	6642.44
444.73	6476.26
444.91	6483.28
445.10	6279.66
445.28	6282.00
445.47	6190.72
445.65	6296.04
445.84	6359.24
446.02	6307.74
446.21	6427.11
446.39	6310.08
446.58	6527.75
446.77	6464.56
446.95	6417.75
447.14	6532.44
447.32	6597.97
447.51	6452.86
447.69	6511.37
447.88	6466.90
448.06	6562.86
448.25	6401.37
448.43	6506.69
448.62	6747.76
448.80	6616.69
448.99	6541.80
449.17	6626.06
449.36	6520.73
449.54	6937.35
449.73	6787.55
449.91	6960.75
450.10	6932.67
450.28	7054.37
450.46	7096.50
450.65	7063.74
450.83	7192.47
451.02	7056.72
451.20	7143.32
451.39	7208.85
451.57	6942.03
451.76	6944.37
451.94	7206.51
452.13	7169.06
452.31	7042.67
452.49	7009.90
452.68	6960.75
452.86	6853.09
453.05	6991.18
453.23	7316.51
453.42	7227.57
453.60	7162.04
453.78	7339.92
453.97	7241.62
454.15	7295.45
454.34	7330.56
454.52	7602.06
454.70	7426.52
454.89	7318.86
455.07	7295.45
455.26	7578.65
455.44	7459.29
455.62	7590.36
455.81	7557.59
455.99	7665.25
456.17	7461.63
456.36	7599.72
456.54	7609.08
456.73	7763.56
456.91	7831.43
457.09	8177.83
457.28	8187.19
457.46	7822.07
457.64	8072.51
457.83	8032.72
458.01	7836.11
458.19	8166.13
458.38	7932.08
458.56	8252.73
458.74	7819.73
458.93	8079.53
459.11	8145.06
459.29	8018.68
459.48	8161.45
459.66	8259.75
459.84	7948.46
460.03	8313.58
460.21	8404.86
460.39	8344.01
460.57	8318.26
460.76	8367.42
460.94	8290.18
461.12	8416.57
461.31	8526.57
461.49	8425.93
461.67	8601.47
461.85	8655.30
462.04	8470.40
462.22	9167.88
462.40	8648.28
462.59	8774.67
462.77	8737.22
462.95	8898.72
463.13	8685.73
463.32	8538.27
463.50	8751.26
463.68	8784.03
463.86	8781.69
464.05	8662.32
464.23	8887.01
464.41	8699.77
464.59	8592.11
464.78	8884.67
464.96	8844.88
465.14	8690.41
465.32	8982.98
465.50	8945.53
465.69	9303.63
465.87	8901.06
466.05	8922.12
466.23	8947.87
466.41	9043.83
466.60	9142.13
466.78	8835.52
466.96	9139.79
467.14	9027.45
467.32	9015.74
467.51	9217.03
467.69	9069.58
467.87	9092.98
468.05	9280.22
468.23	9219.37
468.41	9100.00
468.60	9193.62
468.78	9462.79
468.96	9343.42
469.14	9408.95
469.32	9696.84
469.50	9263.84
469.69	9556.41
469.87	9607.90
470.05	9685.14
470.23	9575.13
470.41	9804.50
470.59	9961.32
470.77	9685.14
470.95	9570.45
471.14	10136.86
471.32	9863.02
471.50	10249.21
471.68	10186.01
471.86	10228.14
472.04	10113.45
472.22	10406.02
472.40	10136.86
472.58	10015.15
472.77	10342.83
472.95	10485.60
473.13	10485.60
473.31	10216.44
473.49	10270.27
473.67	10445.81
473.85	10497.30
474.03	10710.29
474.21	10654.12
474.39	10841.36
474.57	10977.11
474.75	11119.89
474.93	10923.28
475.12	11009.88
475.30	11066.05
475.48	11063.71
475.66	11164.36
475.84	11059.03
476.02	11349.26
476.20	11124.57
476.38	11314.15
476.56	11630.12
476.74	11646.51
476.92	11538.84
477.10	11831.41
477.28	11866.52
477.46	11845.45
477.64	12056.10
477.82	12152.06
478.00	12306.54
478.18	12175.47
478.36	12463.35
478.54	12512.50
478.72	12322.92
478.90	12641.23
479.08	12905.71
479.26	12856.56
479.44	13015.72
479.62	12987.63
479.80	13130.41
479.98	12915.08
480.16	13352.76
480.34	13392.55
480.52	13476.80
480.70	13418.29
480.88	13245.09
481.06	13500.21
481.24	13497.87
481.41	13860.65
481.59	14071.30
481.77	14162.58
481.95	14129.81
482.13	14377.91
482.31	14317.06
482.49	14438.76
482.67	14492.60
482.85	14506.64
483.03	14913.89
483.21	15173.69
483.39	14803.89
483.57	15122.20
483.74	15152.63
483.92	15393.70
484.10	15225.18
484.28	15620.74
484.46	15641.80
484.64	16081.82
484.82	15454.56
485.00	15852.45
485.18	16304.17
485.35	16369.71
485.53	16030.33
485.71	15894.58
485.89	16217.57
486.07	15976.50
486.25	16561.63
486.43	16709.08
486.61	16697.38
486.78	16643.55
486.96	17114.00
487.14	17394.86
487.32	17369.12
487.50	17469.76
487.68	18197.67
487.85	18181.28
488.03	17991.70
488.21	18312.35
488.39	17956.59
488.57	18314.69
488.75	18349.80
488.92	18848.33
489.10	19061.32
489.28	18890.46
489.46	19157.28
489.64	19377.30
489.81	19538.79
489.99	19740.08
490.17	19791.57
490.35	19875.83
490.53	20013.92
490.70	19939.02
490.88	19782.21
491.06	20313.51
491.24	20107.54
491.41	20409.47
491.59	20575.65
491.77	20397.77
491.95	20814.38
492.13	21025.03
492.30	21151.42
492.48	21415.90
492.66	21373.77
492.84	21614.85
493.01	21355.05
493.19	21708.47
493.37	21755.28
493.54	22183.60
493.72	22415.31
493.90	21862.94
494.08	22422.33
494.25	22810.86
494.43	22761.71
494.61	22724.26
494.79	23131.51
494.96	23138.54
495.14	22878.74
495.32	23435.78
495.49	23119.81
495.67	23534.09
495.85	23618.35
496.02	23606.64
496.20	23763.46
496.38	23910.91
496.55	24121.56
496.73	24577.97
496.91	24582.65
497.09	24435.19
497.26	24360.30
497.44	24875.21
497.62	24966.49
497.79	25221.61
497.97	24676.27
498.14	25053.09
498.32	25111.61
498.50	25355.02
498.67	25228.63
498.85	25624.18
499.03	26050.16
499.20	25792.70
499.38	25916.75
499.56	25593.76
499.73	26218.68
499.91	26333.37
500.08	26127.40
500.26	25886.32
500.44	26206.98
500.61	26225.70
500.79	26080.59
500.97	26089.95
501.14	26906.80
501.32	26604.87
501.49	26979.36
501.67	26579.12
501.84	26572.10
502.02	26897.44
502.20	27487.25
502.37	26831.90
502.55	27344.48
502.72	27744.71
502.90	27660.45
503.07	27314.05
503.25	27283.62
503.43	27555.13
503.60	27353.84
503.78	27639.39
503.95	27772.80
504.13	28247.93
504.30	27782.16
504.48	28229.20
504.65	28287.71
504.83	28472.62
505.01	28739.44
505.18	28577.94
505.36	28947.75
505.53	29184.14
505.71	28947.75
505.88	29378.40
506.06	29160.73
506.23	29366.70
506.41	29254.36
506.58	29598.41
506.76	29235.63
506.93	29591.39
507.11	29172.44
507.28	29221.59
507.46	29266.06
507.63	29385.43
507.81	29867.58
507.98	29411.17
508.16	29848.85
508.33	30050.14
508.50	30012.69
508.68	29956.52
508.85	30583.78
509.03	30754.64
509.20	30473.78
509.38	30710.17
509.55	30700.81
509.73	30785.07
509.90	30974.65
510.08	30639.95
510.25	31225.09
510.42	31178.28
510.60	31274.24
510.77	31557.44
510.95	31587.87
511.12	30976.99
511.30	31505.95
511.47	32053.64
511.64	31910.86
511.82	31686.17
511.99	32065.34
512.17	31646.38
512.34	31894.48
512.51	32004.49
512.69	32144.92
512.86	32077.04
513.04	32535.79
513.21	32385.99
513.38	32109.81
513.56	32154.28
513.73	32414.08
513.90	32488.98
514.08	32350.88
514.25	32245.56
514.43	32858.78
514.60	32760.48
514.77	32563.87
514.95	33352.63
515.12	33289.44
515.29	33102.20
515.47	33083.47
515.64	33476.68
515.81	33347.95
515.99	32816.65
516.16	33326.89
516.33	33104.54
516.51	33141.99
516.68	32367.27
516.85	32393.01
517.03	33125.60
517.20	33343.27
517.37	33937.77
517.54	34127.35
517.72	33514.13
517.89	33373.70
518.06	33301.14
518.24	33909.68
518.41	33352.63
518.58	33708.40
518.75	34059.48
518.93	34167.14
519.10	34389.49
519.27	34338.00
519.45	34373.11
519.62	34579.07
519.79	34951.22
519.96	34850.58
520.14	34815.47
520.31	34366.09
520.48	34841.21
520.65	34675.04
520.83	35534.01
521.00	35269.53
521.17	35129.10
521.34	35424.01
521.52	35391.24
521.69	35498.91
521.86	35372.52
522.03	35665.08
522.20	35475.50
522.38	35915.52
522.55	35529.33
522.72	35763.39
522.89	35789.13
523.07	36238.51
523.24	35978.72
523.41	36217.45
523.58	36332.14
523.75	36755.77
523.92	36753.43
524.10	36772.16
524.27	36510.02
524.44	36533.42
524.61	36919.61
524.78	36507.68
524.96	37214.52
525.13	37015.57
525.30	37188.77
525.47	37235.58
525.64	37254.31
525.81	37507.08
525.98	36776.84
526.16	36720.66
526.33	36559.17
526.50	36975.78
526.67	36935.99
526.84	36854.08
527.01	36985.15
527.18	37060.04
527.36	37687.31
527.53	37956.47
527.70	37935.40
527.87	37954.13
528.04	37846.46
528.21	38000.94
528.38	37579.64
528.55	38106.26
528.72	38412.87
528.89	38635.22
529.07	38265.42
529.24	37799.65
529.41	38504.15
529.58	37902.64
529.75	38511.17
529.92	38403.51
530.09	38480.75
530.26	38487.77
530.43	38827.15
530.60	38337.98
530.77	38962.90
530.94	38960.56
531.11	38862.26
531.28	38834.17
531.46	38550.96
531.63	39276.53
531.80	38607.14
531.97	38684.37
532.14	38932.47
532.31	38801.40
532.48	39115.03
532.65	39136.10
532.82	38820.13
532.99	39077.58
533.16	39100.99
533.33	39250.78
533.50	39234.40
533.67	39711.87
533.84	39550.37
534.01	39447.39
534.18	39255.46
534.35	40282.96
534.52	39679.10
534.69	40072.31
534.86	40367.22
535.03	39976.35
535.20	40149.55
535.37	40088.70
535.54	40332.11
535.71	40100.40
535.88	40048.91
536.05	39859.32
536.22	40069.97
536.38	39856.98
536.55	39878.05
536.72	40491.27
536.89	39997.41
537.06	40154.23
537.23	41057.68
537.40	40247.85
537.57	40357.86
537.74	40297.00
537.91	40774.47
538.08	40744.05
538.25	39992.73
538.42	40179.98
538.59	40727.66
538.75	40280.62
538.92	40945.33
539.09	40680.85
539.26	40809.58
539.43	40603.61
539.60	40957.03
539.77	40648.08
539.94	40968.74
540.11	40818.94
540.28	41184.07
540.44	41015.55
540.61	41064.70
540.78	40327.43
540.95	41036.61
541.12	40971.08
541.29	40722.98
541.46	41106.83
541.62	41467.27
541.79	41804.31
541.96	41064.70
542.13	41029.59
542.30	41092.79
542.47	41364.29
542.63	41593.66
542.80	41579.62
542.97	41951.76
543.14	41757.50
543.31	41942.40
543.48	41486.00
543.64	42525.19
543.81	42630.52
543.98	42478.38
544.15	42103.90
544.32	42323.91
544.48	42831.80
544.65	42010.28
544.82	42389.44
544.99	42337.95
545.16	42515.83
545.32	41820.69
545.49	42911.38
545.66	42440.93
545.83	43037.77
546.00	42319.23
546.16	42684.35
546.33	42735.84
546.50	41858.14
546.67	42630.52
546.83	42508.81
547.00	42436.25
547.17	42649.24
547.34	42089.85
547.50	42911.38
547.67	43353.74
547.84	42925.42
548.00	43009.68
548.17	43023.73
548.34	42960.53
548.51	43222.67
548.67	43536.30
548.84	43082.24
549.01	42799.04
549.18	42876.27
549.34	43299.91
549.51	43342.04
549.68	43166.50
549.84	43253.10
550.01	43454.39
550.18	43072.88
550.34	43447.36
550.51	43210.97
550.68	43229.69
550.84	42969.90
551.01	43702.48
551.18	43641.63
551.34	43360.76
551.51	43501.20
551.68	43683.76
551.84	43580.78
552.01	43482.47
552.18	43990.37
552.34	43548.01
552.51	43494.18
552.68	43643.97
552.84	43391.19
553.01	44343.79
553.18	43859.30
553.34	43955.26
553.51	44041.86
553.67	43885.04
553.84	44285.28
554.01	44247.83
554.17	44397.62
554.34	44334.43
554.51	44107.40
554.67	44327.41
554.84	43744.61
555.00	43725.89
555.17	44072.29
555.33	44617.63
555.50	44128.46
555.67	44184.63
555.83	44357.83
556.00	44226.76
556.16	44252.51
556.33	44460.82
556.50	44292.30
556.66	43906.11
556.83	43962.28
556.99	44556.78
557.16	44278.25
557.32	44519.33
557.49	44301.66
557.65	44287.62
557.82	44435.07
557.98	44444.43
558.15	44744.02
558.32	44554.44
558.48	44472.52
558.65	44306.34
558.81	44325.07
558.98	44545.08
559.14	44666.78
559.31	44421.03
559.47	44390.60
559.64	44863.39
559.80	44601.25
559.97	44210.38
560.13	44268.89
560.30	44734.66
560.46	44533.37
560.63	44849.35
560.79	44980.42
560.96	45413.41
561.12	44959.35
561.29	44278.25
561.45	44973.39
561.61	44505.29
561.78	44584.86
561.94	44589.55
562.11	44465.50
562.27	44732.32
562.44	44847.00
562.60	45090.42
562.77	45153.62
562.93	45064.67
563.10	44905.52
563.26	44968.71
563.42	45155.96
563.59	45125.53
563.75	45064.67
563.92	45153.62
564.08	45106.80
564.24	45521.08
564.41	44940.63
564.57	45020.20
564.74	45052.97
564.90	44804.88
565.07	45326.81
565.23	44889.13
565.39	44692.53
565.56	45167.66
565.72	45074.04
565.88	44975.73
566.05	44966.37
566.21	44828.28
566.38	45059.99
566.54	45354.90
566.70	45446.18
566.87	45130.21
567.03	45354.90
567.19	45839.39
567.36	45584.27
567.52	45179.36
567.68	45375.97
567.85	45146.59
568.01	45195.74
568.17	45481.29
568.34	45565.55
568.50	45603.00
568.66	45064.67
568.83	45153.62
568.99	45148.93
569.15	45593.64
569.32	45160.64
569.48	45366.60
569.64	45860.46
569.81	45647.47
569.97	45256.60
570.13	44968.71
570.30	45352.56
570.46	45099.78
570.62	45057.65
570.78	45055.31
570.95	45024.89
571.11	45144.25
571.27	45516.40
571.43	45598.32
571.60	45525.76
571.76	45467.25
571.92	45469.59
572.09	45207.45
572.25	45806.62
572.41	45649.81
572.57	45769.18
572.74	45652.15
572.90	45750.45
573.06	45670.87
573.22	45462.57
573.38	45865.14
573.55	45345.54
573.71	45787.90
573.87	45696.62
574.03	45364.26
574.20	45041.27
574.36	45144.25
574.52	45752.79
574.68	45310.43
574.84	45612.36
575.01	45127.87
575.17	45656.83
575.33	45113.83
575.49	45064.67
575.65	45523.42
575.82	45467.25
575.98	45357.24
576.14	45511.72
576.30	45560.87
576.46	45855.78
576.62	45329.16
576.79	45965.78
576.95	44957.01
577.11	45418.10
577.27	45516.40
577.43	45413.41
577.59	44884.45
577.75	45219.15
577.92	45050.63
578.08	45628.74
578.24	45420.44
578.40	45827.69
578.56	45525.76
578.72	45317.45
578.88	45209.79
579.04	46005.57
579.21	45141.91
579.37	45319.79
579.53	45860.46
579.69	45605.34
579.85	45448.52
580.01	45125.53
580.17	45013.18
580.33	45654.49
580.49	45478.95
580.65	45462.57
580.82	45804.28
580.98	45595.98
581.14	45626.40
581.30	46223.24
581.46	45542.14
581.62	45701.30
581.78	45483.63
581.94	46068.76
582.10	45977.48
582.26	45666.19
582.42	45689.60
582.58	45408.73
582.74	45574.91
582.90	45720.02
583.06	45511.72
583.22	45303.41
583.38	45287.03
583.54	45815.99
583.70	45373.63
583.86	45713.00
584.02	45357.24
584.18	45958.76
584.34	45340.86
584.50	45282.34
584.66	45701.30
584.82	45191.06
584.98	45923.65
585.14	45478.95
585.30	45729.39
585.46	45588.95
585.62	45139.57
585.78	45628.74
585.94	45390.01
586.10	45095.10
586.26	45172.34
586.42	45614.70
586.58	46019.61
586.74	45481.29
586.90	45677.90
587.06	45832.37
587.22	45848.75
587.38	45450.86
587.54	45724.71
587.70	45904.93
587.86	45586.61
588.02	45441.50
588.18	45617.04
588.34	45375.97
588.49	45181.70
588.65	45160.64
588.81	44755.72
588.97	45481.29
589.13	45228.51
589.29	45191.06
589.45	45043.61
589.61	45291.71
589.77	45713.00
589.93	45930.67
590.08	45551.51
590.24	45687.26
590.40	46183.45
590.56	45872.16
590.72	46026.63
590.88	45766.84
591.04	45968.12
591.20	46347.29
591.35	46248.99
591.51	46068.76
591.67	46106.21
591.83	45436.82
591.99	45537.46
592.15	45457.88
592.31	45570.23
592.46	46192.81
592.62	45621.72
592.78	46045.36
592.94	45820.67
593.10	46117.92
593.26	45935.35
593.41	45998.55
593.57	45347.88
593.73	45708.32
593.89	46438.57
594.05	46188.13
594.20	45759.81
594.36	46052.38
594.52	45989.19
594.68	46024.29
594.84	45530.44
594.99	45612.36
595.15	45670.87
595.31	45933.01
595.47	45977.48
595.62	45888.54
595.78	45963.44
595.94	46307.50
596.10	46071.10
596.25	45968.12
596.41	45778.54
596.57	45558.53
596.73	45497.67
596.88	45947.06
597.04	45944.72
597.20	45556.19
597.36	45982.16
597.51	46253.67
597.67	45815.99
597.83	46141.32
597.99	46368.35
598.14	46127.28
598.30	46057.06
598.46	46115.58
598.61	46291.12
598.77	45904.93
598.93	45844.07
599.09	46115.58
599.24	45844.07
599.40	46038.34
599.56	46270.05
599.71	45666.19
599.87	46092.17
600.03	45485.97
600.18	45998.55
600.34	45539.80
600.50	45769.18
600.65	45640.45
600.81	45935.35
600.97	46419.84
601.12	46040.68
601.28	45518.74
601.44	45701.30
601.59	45778.54
601.75	45727.05
601.91	45830.03
602.06	45694.28
602.22	45595.98
602.37	45647.47
602.53	46256.01
602.69	46363.67
602.84	45783.22
603.00	45736.41
603.16	45907.27
603.31	45937.69
603.47	45539.80
603.62	45612.36
603.78	45841.73
603.94	46000.89
604.09	45724.71
604.25	45727.05
604.40	45820.67
604.56	45670.87
604.71	45691.94
604.87	46127.28
605.03	45427.46
605.18	45860.46
605.34	45415.76
605.49	45509.38
605.65	45691.94
605.80	45198.09
605.96	45549.17
606.12	45727.05
606.27	45858.12
606.43	45811.31
606.58	45680.24
606.74	45911.95
606.89	45453.20
607.05	46071.10
607.20	45886.20
607.36	45855.78
607.51	45542.14
607.67	45705.98
607.82	45045.95
607.98	45390.01
608.13	45834.71
608.29	45354.90
608.44	45036.59
608.60	45104.46
608.75	45331.50
608.91	44992.12
609.06	45350.22
609.22	45155.96
609.37	45280.00
609.53	45621.72
609.68	45443.84
609.84	45022.54
609.99	45315.11
610.15	44830.62
610.30	44879.77
610.46	44912.54
610.61	45291.71
610.76	45261.28
610.92	45408.73
611.07	45397.03
611.23	45298.73
611.38	45350.22
611.54	45249.58
611.69	44694.87
611.84	45137.23
612.00	44814.24
612.15	44816.58
612.31	45085.74
612.46	45207.45
612.62	45074.04
612.77	44823.60
612.92	45052.97
613.08	44769.77
613.23	45118.51
613.39	44392.94
613.54	44360.17
613.69	45062.33
613.85	44091.01
614.00	44641.04
614.15	44533.37
614.31	44767.43
614.46	44884.45
614.62	44722.96
614.77	44919.56
614.92	44884.45
615.08	44360.17
615.23	44772.11
615.38	44360.17
615.54	44421.03
615.69	44074.63
615.84	44404.64
616.00	44292.30
616.15	44514.65
616.30	44638.70
616.46	44612.95
616.61	43896.75
616.76	44631.68
616.92	44170.59
617.07	44257.19
617.22	43819.51
617.37	43704.82
617.53	44800.19
617.68	44811.90
617.83	44257.19
617.99	44184.63
618.14	43847.60
618.29	44268.89
618.45	43800.79
618.60	43927.17
618.75	43601.84
618.90	43505.88
619.06	43906.11
619.21	43679.08
619.36	43978.67
619.51	43704.82
619.67	43915.47
619.82	43976.33
619.97	44144.84
620.12	43564.39
620.28	43117.35
620.43	43452.05
620.58	43604.18
620.73	43611.20
620.89	43709.50
621.04	43845.26
621.19	43718.87
621.34	43735.25
621.49	43430.98
621.65	43777.38
621.80	43725.89
621.95	43756.32
622.10	43583.12
622.25	43550.35
622.41	43592.48
622.56	43643.97
622.71	43629.93
622.86	43292.89
623.01	43358.42
623.16	43573.75
623.32	43210.97
623.47	43384.17
623.62	43489.49
623.77	42705.41
623.92	43227.35
624.07	42909.04
624.23	42923.08
624.38	42792.01
624.53	43210.97
624.68	42899.68
624.83	43005.00
624.98	43086.92
625.13	42827.12
625.29	42487.74
625.44	42630.52
625.59	42391.78
625.74	42726.48
625.89	42426.89
626.04	42263.05
626.19	42632.86
626.34	42422.21
626.49	42934.79
626.65	42934.79
626.80	42784.99
626.95	42291.14
627.10	42295.82
627.25	42574.34
627.40	42171.77
627.55	42536.90
627.70	42394.12
627.85	42534.56
628.00	42618.81
628.15	42263.05
628.30	42445.62
628.45	42508.81
628.60	42405.83
628.76	42520.51
628.91	42337.95
629.06	41738.77
629.21	42157.73
629.36	41928.36
629.51	42068.79
629.66	42075.81
629.81	42143.69
629.96	42054.75
630.11	42024.32
630.26	42316.89
630.41	41867.50
630.56	42066.45
630.71	41930.70
630.86	41535.15
631.01	41469.61
631.16	41881.55
631.31	41588.98
631.46	41675.58
631.61	41710.69
631.76	41567.91
631.91	41816.01
632.06	41818.35
632.21	41916.65
632.36	42169.43
632.51	41317.48
632.66	41450.89
632.81	41322.16
632.96	41216.83
633.10	41516.42
633.25	41027.25
633.40	41500.04
633.55	41785.58
633.70	41015.55
633.85	41310.46
634.00	41544.51
634.15	41357.27
634.30	41109.17
634.45	41127.89
634.60	41181.73
634.75	41455.57
634.90	41237.90
635.05	41081.08
635.19	40950.01
635.34	41294.07
635.49	41045.97
635.64	40795.54
635.79	40910.22
635.94	40842.35
636.09	41099.81
636.24	40758.09
636.39	41139.60
636.53	40662.13
636.68	40734.68
636.83	40500.63
636.98	40203.38
637.13	40488.93
637.28	41062.36
637.43	41148.96
637.57	41010.87
637.72	40559.14
637.87	40659.79
638.02	40844.69
638.17	40627.02
638.32	40533.40
638.46	40690.21
638.61	40704.26
638.76	40304.02
638.91	40720.64
639.06	40673.83
639.20	40758.09
639.35	40561.48
639.50	40065.29
639.65	40069.97
639.80	40198.70
639.94	40208.06
640.09	40184.66
640.24	40048.91
640.39	39782.09
640.54	40254.87
640.68	40114.44
640.83	39908.47
640.98	40048.91
641.13	40086.36
641.27	39915.50
641.42	39938.90
641.57	39880.39
641.72	40402.33
641.86	40041.88
642.01	39288.23
642.16	39849.96
642.31	39374.83
642.45	39974.01
642.60	39313.98
642.75	39976.35
642.90	39655.70
643.04	39725.91
643.19	39651.02
643.34	39501.22
643.48	39922.52
643.63	39426.32
643.78	39339.72
643.93	39517.60
644.07	38880.98
644.22	39091.63
644.37	39330.36
644.51	39393.56
644.66	39669.74
644.81	39934.22
644.95	39578.46
645.10	39735.27
645.25	39405.26
645.39	39594.84
645.54	39304.62
645.69	39241.42
645.83	39157.16
645.98	38974.60
646.13	39054.18
646.27	38911.41
646.42	38892.68
646.57	38848.21
646.71	38967.58
646.86	38740.55
647.00	38728.84
647.15	38759.27
647.30	38822.47
647.44	38705.44
647.59	38735.87
647.74	38321.59
647.88	38808.42
648.03	38806.08
648.17	39126.74
648.32	38333.29
648.47	38494.79
648.61	38230.31
648.76	39063.54
648.90	38293.50
649.05	38756.93
649.20	38763.95
649.34	38471.39
649.49	38211.59
649.63	38298.19
649.78	38916.09
649.92	38410.53
650.07	38382.45
650.21	38586.07
650.36	38223.29
650.51	38574.37
650.65	39136.10
650.80	38785.02
650.94	38621.18
651.09	38546.28
651.23	38251.38
651.38	37996.26
651.52	37666.24
651.67	37724.75
651.81	38185.84
651.96	38017.32
652.10	38377.76
652.25	38014.98
652.39	38195.20
652.54	38417.55
652.68	37565.60
652.83	37965.83
652.97	38450.32
653.12	38234.99
653.26	37663.90
653.41	37617.09
653.55	38047.75
653.70	38019.66
653.84	37923.70
653.99	37385.38
654.13	37729.44
654.27	37823.06
654.42	37722.41
654.56	38094.56
654.71	37514.11
654.85	37757.52
655.00	38075.84
655.14	37249.63
655.29	37516.45
655.43	37404.10
655.57	36774.50
655.72	37368.99
655.86	37153.66
656.01	36339.16
656.15	36400.01
656.30	36676.19
656.44	37041.32
656.58	37514.11
656.73	37008.55
656.87	37078.77
657.01	36772.16
657.16	36931.31
657.30	36830.67
657.45	36444.48
657.59	36996.85
657.73	36954.72
657.88	37099.83
658.02	37046.00
658.16	36638.75
658.31	37177.07
658.45	36708.96
658.60	36884.50
658.74	37195.79
658.88	36685.56
659.03	35978.72
659.17	36315.75
659.31	36355.54
659.46	36444.48
659.60	36741.73
659.74	36421.08
659.89	36533.42
660.03	36306.39
660.17	36758.11
660.32	36554.49
660.46	36402.35
660.60	36194.04
660.74	36233.83
660.89	36229.15
661.03	35983.40
661.17	35564.44
661.32	36208.09
661.46	35917.86
661.60	35702.53
661.74	35683.81
661.89	35936.59
662.03	36149.57
662.17	35615.93
662.31	35749.34
662.46	35826.58
662.60	35833.60
662.74	35798.49
662.88	35543.38
663.03	35405.28
663.17	34871.64
663.31	35208.68
663.45	35145.48
663.60	35566.78
663.74	35077.61
663.88	35168.89
664.02	34878.66
664.17	35211.02
664.31	35129.10
664.45	35016.75
664.59	34684.40
664.73	34632.91
664.88	34754.61
665.02	34342.68
665.16	34483.11
665.30	34279.49
665.44	34658.65
665.59	34581.42
665.73	34127.35
665.87	34366.09
666.01	34380.13
666.15	34267.78
666.29	34213.95
666.44	34377.79
666.58	34148.42
666.72	34536.94
666.86	34108.63
667.00	34132.03
667.14	33317.53
667.28	33780.95
667.43	33855.85
667.57	34007.98
667.71	33762.23
667.85	33769.25
667.99	33778.61
668.13	33933.09
668.27	33827.76
668.41	33743.50
668.56	33387.74
668.70	33432.21
668.84	33209.86
668.98	33109.22
669.12	33034.32
669.26	33443.91
669.40	32645.79
669.54	32900.91
669.68	33099.86
669.82	32622.39
669.96	32840.06
670.10	32514.72
670.25	33048.36
670.39	32402.38
670.53	32613.02
670.67	32533.45
670.81	32767.50
670.95	32208.11
671.09	32472.59
671.23	32240.88
671.37	32266.63
671.51	32556.85
671.65	32212.79
671.79	31917.89
671.93	31917.89
672.07	31922.57
672.21	31545.74
672.35	32048.96
672.49	31938.95
672.63	32046.62
672.77	31929.59
672.91	31894.48
673.05	31786.82
673.19	31213.38
673.33	31295.30
673.47	31302.32
673.61	31452.12
673.75	31084.65
673.89	30916.14
674.03	31309.35
674.17	30892.73
674.31	31264.88
674.45	31016.78
674.59	31154.87
674.73	30888.05
674.87	30972.31
675.01	30799.11
675.15	31037.84
675.29	30476.12
675.43	30080.56
675.56	30331.00
675.70	30237.38
675.84	30618.89
675.98	29624.16
676.12	30061.84
676.26	30256.11
676.40	29991.62
676.54	30047.80
676.68	30340.36
676.82	29240.31
676.96	29549.26
677.10	29582.03
677.23	29329.25
677.37	29476.71
677.51	29500.11
677.65	29165.42
677.79	28884.55
677.93	28982.85
678.07	28840.08
678.21	28439.85
678.34	28327.50
678.48	28201.11
678.62	28301.76
678.76	28046.64
678.90	28266.65
679.04	27997.49
679.18	28236.22
679.31	27946.00
679.45	27388.95
679.59	27693.22
679.73	27903.87
679.87	27730.67
680.00	27524.70
680.14	27810.25
680.28	27578.53
680.42	27332.78
680.56	27276.60
680.70	27229.79
680.83	27236.81
680.97	27126.81
681.11	27307.03
681.25	26988.72
681.39	27026.17
681.52	26822.54
681.66	26871.69
681.80	26555.72
681.94	26288.90
682.07	26211.66
682.21	26312.30
682.35	26473.80
682.49	26324.01
682.62	26012.71
682.76	26052.50
682.90	25907.39
683.04	25949.52
683.17	25876.96
683.31	25458.01
683.45	25706.10
683.59	25448.64
683.72	25376.09
683.86	25277.79
684.00	25326.94
684.13	24957.13
684.27	24957.13
684.41	24959.47
684.55	24807.34
684.68	24711.38
684.82	24781.59
684.96	24814.36
685.09	24453.92
685.23	24622.44
685.37	24472.64
685.50	24580.31
685.64	24411.79
685.78	24151.99
685.91	23894.53
686.05	24011.56
686.19	23569.19
686.32	24079.43
686.46	23690.90
686.60	23028.53
686.73	22951.29
686.87	23150.24
687.01	23021.51
687.14	22731.28
687.28	22621.28
687.42	22757.03
687.55	22721.92
687.69	23164.28
687.82	22888.10
687.96	22958.31
688.10	22834.27
688.23	22658.73
688.37	22326.37
688.50	22218.71
688.64	22209.34
688.78	22373.18
688.91	21947.20
689.05	21855.92
689.18	21874.65
689.32	21642.93
689.46	21605.49
689.59	22143.81
689.73	21785.71
689.86	21355.05
690.00	21568.04
690.13	21633.57
690.27	21043.76
690.41	21177.17
690.54	20762.89
690.68	21226.32
690.81	21242.70
690.95	20929.07
691.08	20973.54
691.22	20816.72
691.35	20793.32
691.49	20688.00
691.62	20924.39
691.76	20643.52
691.89	20460.96
692.03	20659.91
692.16	20404.79
692.30	20388.41
692.43	19969.45
692.57	19791.57
692.70	19726.04
692.84	19997.54
692.97	19545.81
693.11	19599.65
693.24	19529.43
693.38	19461.55
693.51	19527.09
693.65	19426.45
693.78	19283.67
693.92	19126.86
694.05	19344.53
694.19	19246.23
694.32	19133.88
694.45	19236.86
694.59	19033.24
694.72	19021.53
694.86	18820.25
694.99	18768.76
695.13	18567.47
695.26	18431.72
695.39	18450.44
695.53	18677.48
695.66	18616.62
695.80	18216.39
695.93	18059.57
696.07	17898.08
696.20	18391.93
696.33	18246.82
696.47	17855.95
696.60	17909.78
696.73	17724.88
696.87	17408.90
697.00	17722.54
697.14	17118.68
697.27	17303.58
697.40	17401.88
697.54	17006.33
697.67	17104.64
697.80	17046.12
697.94	16889.31
698.07	16966.54
698.21	17111.66
698.34	16678.66
698.47	16767.60
698.61	16641.21
698.74	16594.40
698.87	16559.29
699.01	16563.97
699.14	16519.50
699.27	16264.38
699.40	16430.56
699.54	16046.71
699.67	16072.46
699.80	15988.20
699.94	15789.25
700.07	16137.99
700.20	16116.93
700.34	15798.62
700.47	15927.35
700.60	15658.18
700.73	15580.95
700.87	15566.90
701.00	15482.64
701.13	15407.75
701.26	15232.21
701.40	15215.82
701.53	15138.58
701.66	15222.84
701.79	14916.23
701.93	14988.79
702.06	14703.25
702.19	14876.44
702.32	14799.21
702.46	14876.44
702.59	14637.71
702.72	14544.09
702.85	14567.49
702.99	14698.56
703.12	14366.21
703.25	14267.91
703.38	14347.48
703.51	14363.87
703.65	14204.71
703.78	14057.26
703.91	13891.08
704.04	13795.12
704.17	13893.42
704.31	13642.98
704.44	13654.69
704.57	13811.50
704.70	13544.68
704.83	13514.25
704.96	13437.02
705.10	13451.06
705.23	13474.46
>>>>>End Processed Spectral Data<<<<<
