SpectraSuite Data File
++++++++++++++++++++++++++++++++++++
Date: Fri Oct 25 11:33:39 EDT 2013
User: price-jones
Dark Spectrum Present: No
Reference Spectrum Present: No
Number of Sampled Component Spectra: 1
Spectrometers: USB2+H05261
Integration Time (usec): 100000 (USB2+H05261)
Spectra Averaged: 1 (USB2+H05261)
Boxcar Smoothing: 0 (USB2+H05261)
Correct for Electrical Dark: No (USB2+H05261)
Strobe/Lamp Enabled: No (USB2+H05261)
Correct for Detector Non-linearity: No (USB2+H05261)
Correct for Stray Light: No (USB2+H05261)
Number of Pixels in Processed Spectrum: 2048
>>>>>Begin Processed Spectral Data<<<<<
365.73	252.78
365.92	252.78
366.12	252.78
366.32	201.29
366.52	182.56
366.72	168.52
366.91	133.41
367.11	217.67
367.31	173.20
367.51	187.24
367.70	152.13
367.90	128.73
368.10	203.63
368.30	180.22
368.49	154.48
368.69	152.13
368.89	182.56
369.09	198.95
369.28	187.24
369.48	234.05
369.68	238.73
369.87	290.23
370.07	266.82
370.27	271.50
370.47	348.74
370.66	521.94
370.86	482.15
371.06	566.41
371.25	519.60
371.45	610.88
371.65	568.75
371.84	491.51
372.04	603.86
372.24	550.03
372.44	629.60
372.63	603.86
372.83	547.69
373.03	613.22
373.22	566.41
373.42	603.86
373.62	650.67
373.81	711.52
374.01	655.35
374.21	723.23
374.40	662.37
374.60	763.01
374.79	716.20
374.99	695.14
375.19	622.58
375.38	667.05
375.58	645.99
375.78	725.57
375.97	676.41
376.17	676.41
376.37	713.86
376.56	676.41
376.76	685.78
376.95	662.37
377.15	660.03
377.35	725.57
377.54	660.03
377.74	741.95
377.93	737.27
378.13	727.91
378.33	634.29
378.52	669.39
378.72	732.59
378.91	734.93
379.11	725.57
379.31	753.65
379.50	617.90
379.70	791.10
379.89	720.88
380.09	786.42
380.28	678.76
380.48	643.65
380.68	725.57
380.87	660.03
381.07	699.82
381.26	774.72
381.46	791.10
381.65	681.10
381.85	741.95
382.04	739.61
382.24	835.57
382.43	821.53
382.63	770.04
382.83	791.10
383.02	788.76
383.22	798.12
383.41	798.12
383.61	819.19
383.80	915.15
384.00	837.91
384.19	781.74
384.39	784.08
384.58	748.97
384.78	763.01
384.97	819.19
385.17	816.85
385.36	734.93
385.56	833.23
385.75	868.34
385.95	802.80
386.14	943.24
386.34	854.30
386.53	866.00
386.72	868.34
386.92	849.61
387.11	896.43
387.31	880.04
387.50	957.28
387.70	926.85
387.89	908.13
388.09	842.59
388.28	882.38
388.48	894.08
388.67	891.74
388.86	980.68
389.06	987.71
389.25	929.19
389.45	940.90
389.64	940.90
389.84	978.34
390.03	950.26
390.22	1048.56
390.42	1008.77
390.61	919.83
390.81	882.38
391.00	968.98
391.19	1015.79
391.39	973.66
391.58	1036.86
391.78	1109.41
391.97	980.68
392.16	992.39
392.36	1069.62
392.55	1062.60
392.75	1111.75
392.94	959.62
393.13	1135.16
393.33	1074.31
393.52	1078.99
393.71	1165.59
393.91	1071.97
394.10	1198.35
394.29	1050.90
394.49	1210.06
394.68	1041.54
394.88	1198.35
395.07	1200.69
395.26	1179.63
395.46	1191.33
395.65	1139.84
395.84	1165.59
396.04	1191.33
396.23	1121.12
396.42	1146.86
396.62	1149.20
396.81	1144.52
397.00	1233.46
397.19	1240.48
397.39	1277.93
397.58	1219.42
397.77	1228.78
397.97	1214.74
398.16	1273.25
398.35	1348.15
398.55	1266.23
398.74	1261.55
398.93	1259.21
399.12	1376.24
399.32	1277.93
399.51	1336.45
399.70	1444.11
399.90	1263.89
400.09	1294.32
400.28	1516.67
400.47	1371.55
400.67	1315.38
400.86	1476.88
401.05	1423.05
401.24	1483.90
401.44	1460.49
401.63	1479.22
401.82	1439.43
402.01	1444.11
402.21	1526.03
402.40	1465.18
402.59	1533.05
402.78	1535.39
402.97	1511.99
403.17	1556.46
403.36	1495.60
403.55	1600.93
403.74	1647.74
403.93	1621.99
404.13	1551.78
404.32	1645.40
404.51	1643.06
404.70	1699.23
404.89	1673.48
405.09	1727.32
405.28	1626.67
405.47	1612.63
405.66	1743.70
405.85	1720.29
406.05	1696.89
406.24	1788.17
406.43	1790.51
406.62	1806.89
406.81	1820.94
407.00	1654.76
407.20	1764.76
407.39	1839.66
407.58	1879.45
407.77	1881.79
407.96	1849.02
408.15	1884.13
408.34	1895.83
408.54	1970.73
408.73	1919.24
408.92	1989.46
409.11	2043.29
409.30	2071.37
409.49	1984.77
409.68	2080.74
409.87	2078.40
410.07	2005.84
410.26	2040.95
410.45	2045.63
410.64	2012.86
410.83	2122.87
411.02	2113.50
411.21	2146.27
411.40	2202.44
411.59	2062.01
411.78	2232.87
411.98	2204.78
412.17	2333.51
412.36	2307.77
412.55	2380.32
412.74	2410.75
412.93	2319.47
413.12	2342.88
413.31	2326.49
413.50	2422.45
413.69	2385.01
413.88	2595.65
414.07	2464.58
414.26	2544.16
414.45	2429.48
414.64	2605.02
414.83	2562.89
415.02	2525.44
415.22	2539.48
415.41	2649.49
415.60	2712.68
415.79	2661.19
415.98	2876.52
416.17	2883.54
416.36	2684.59
416.55	2708.00
416.74	2801.62
416.93	2806.30
417.12	2899.92
417.31	2946.73
417.50	2974.82
417.69	2918.65
417.88	2984.18
418.07	2906.95
418.26	2937.37
418.45	2888.22
418.64	3080.14
418.83	3002.91
419.02	2995.89
419.21	3063.76
419.39	3194.83
419.58	3061.42
419.77	3159.72
419.96	3201.85
420.15	3201.85
420.34	3253.34
420.53	3129.30
420.72	3199.51
420.91	3304.84
421.10	3262.71
421.29	3274.41
421.48	3199.51
421.67	3262.71
421.86	3386.76
422.05	3253.34
422.24	3314.20
422.43	3265.05
422.61	3344.63
422.80	3386.76
422.99	3459.31
423.18	3398.46
423.37	3506.12
423.56	3463.99
423.75	3386.76
423.94	3300.16
424.13	3227.60
424.32	3262.71
424.50	3534.21
424.69	3550.59
424.88	3482.72
425.07	3445.27
425.26	3403.14
425.45	3424.20
425.64	3407.82
425.83	3412.50
426.01	3566.98
426.20	3503.78
426.39	3478.04
426.58	3550.59
426.77	3466.33
426.96	3473.36
427.15	3590.38
427.33	3667.62
427.52	3524.85
427.71	3686.34
427.90	3520.17
428.09	3534.21
428.28	3726.13
428.46	3660.60
428.65	3588.04
428.84	3756.56
429.03	3946.14
429.22	3686.34
429.40	3794.01
429.59	3803.37
429.78	3611.45
429.97	3660.60
430.16	3662.94
430.34	3901.67
430.53	3943.80
430.72	3932.10
430.91	3969.55
431.10	4030.40
431.28	3969.55
431.47	3997.64
431.66	3981.25
431.85	3957.85
432.03	4016.36
432.22	4016.36
432.41	4159.13
432.60	4114.66
432.79	4124.02
432.97	4128.70
433.16	4060.83
433.35	4086.58
433.54	4248.07
433.72	4177.86
433.91	4175.52
434.10	4187.22
434.28	4219.99
434.47	4184.88
434.66	4337.01
434.85	4329.99
435.03	4386.16
435.22	4344.03
435.41	4423.61
435.59	4451.70
435.78	4355.74
435.97	4554.68
436.16	4498.51
436.34	4327.65
436.53	4440.00
436.72	4561.70
436.90	4484.47
437.09	4535.96
437.28	4362.76
437.46	4531.28
437.65	4648.30
437.84	4620.22
438.02	4606.17
438.21	4606.17
438.40	4535.96
438.58	4744.27
438.77	4695.11
438.96	4737.24
439.14	4847.25
439.33	4833.21
439.52	4987.68
439.70	4992.36
439.89	5041.51
440.08	5081.30
440.26	4968.96
440.45	4945.55
440.63	5142.16
440.82	5170.24
441.01	5177.26
441.19	5322.38
441.38	5369.19
441.57	5245.14
441.75	5455.79
441.94	5481.53
442.12	5313.02
442.31	5514.30
442.50	5547.07
442.68	5359.83
442.87	5404.30
443.05	5413.66
443.24	5584.52
443.43	5577.50
443.61	5654.73
443.80	5802.19
443.98	5387.91
444.17	5317.70
444.35	5558.77
444.54	5734.31
444.73	5741.33
444.91	5626.65
445.10	5708.57
445.28	5659.42
445.47	5694.52
445.65	5598.56
445.84	5673.46
446.02	5738.99
446.21	5689.84
446.39	5584.52
446.58	5689.84
446.77	5851.34
446.95	5633.67
447.14	5659.42
447.32	5818.57
447.51	5977.73
447.69	5701.54
447.88	5788.14
448.06	5729.63
448.25	5790.49
448.43	5877.09
448.62	5778.78
448.80	5853.68
448.99	5724.95
449.17	5865.38
449.36	5839.64
449.54	6047.94
449.73	6202.42
449.91	6235.19
450.10	6026.88
450.28	6150.93
450.46	6118.16
450.65	6097.10
450.83	6160.29
451.02	6186.04
451.20	6312.42
451.39	6244.55
451.57	6183.70
451.76	6181.35
451.94	6230.51
452.13	6221.14
452.31	6209.44
452.49	6260.93
452.68	6314.77
452.86	6181.35
453.05	6340.51
453.23	6530.09
453.42	6300.72
453.60	6296.04
453.78	6333.49
453.97	6298.38
454.15	6384.98
454.34	6406.05
454.52	6576.91
454.70	6541.80
454.89	6558.18
455.07	6534.78
455.26	6679.89
455.44	6911.60
455.62	6717.34
455.81	6593.29
455.99	6834.36
456.17	6792.23
456.36	6637.76
456.54	7002.88
456.73	6888.20
456.91	6925.65
457.09	7101.19
457.28	7229.91
457.46	7028.63
457.64	7169.06
457.83	6939.69
458.01	7157.36
458.19	7248.64
458.38	7183.10
458.56	7246.30
458.74	7253.32
458.93	7204.17
459.11	7183.10
459.29	7126.93
459.48	7353.96
459.66	7250.98
459.84	7405.46
460.03	7550.57
460.21	7377.37
460.39	7545.89
460.57	7414.82
460.76	7431.20
460.94	7391.41
461.12	7353.96
461.31	7503.76
461.49	7634.83
461.67	7576.31
461.85	7953.14
462.04	7683.98
462.22	8095.91
462.40	7702.70
462.59	7840.79
462.77	7655.89
462.95	7705.04
463.13	7859.52
463.32	7772.92
463.50	7843.14
463.68	7899.31
463.86	7974.21
464.05	7906.33
464.23	8063.15
464.41	7929.74
464.59	7866.54
464.78	8145.06
464.96	7925.05
465.14	8025.70
465.32	8299.54
465.50	8128.68
465.69	8259.75
465.87	8241.03
466.05	8252.73
466.23	8107.62
466.41	8297.20
466.60	8332.31
466.78	8257.41
466.96	8004.63
467.14	8135.70
467.32	8376.78
467.51	8461.04
467.69	8257.41
467.87	8255.07
468.05	8489.12
468.23	8496.14
468.41	8432.95
468.60	8468.06
468.78	8683.39
468.96	8519.55
469.14	8690.41
469.32	8688.07
469.50	8348.69
469.69	8659.98
469.87	9013.40
470.05	8762.97
470.23	8772.33
470.41	8982.98
470.59	8947.87
470.77	8835.52
470.95	8826.16
471.14	9137.45
471.32	8798.07
471.50	9067.24
471.68	9018.08
471.86	9287.25
472.04	9188.94
472.22	9247.46
472.40	9067.24
472.58	9242.78
472.77	9336.40
472.95	9563.43
473.13	9771.74
473.31	9451.08
473.49	9371.50
473.67	9479.17
473.85	9376.19
474.03	9631.30
474.21	9764.72
474.39	9736.63
474.57	9956.64
474.75	9991.75
474.93	9860.68
475.12	9790.46
475.30	10078.35
475.48	9898.13
475.66	10319.42
475.84	10174.31
476.02	10190.69
476.20	10057.28
476.38	10410.70
476.56	10391.98
476.74	10609.65
476.92	10455.17
477.10	10581.56
477.28	10656.46
477.46	10792.21
477.64	11147.97
477.82	10958.39
478.00	11286.06
478.18	11220.53
478.36	11304.79
478.54	11286.06
478.72	11571.61
478.90	11262.66
479.08	11463.94
479.26	11772.89
479.44	11768.21
479.62	11878.22
479.80	11920.35
479.98	11934.39
480.16	12311.22
480.34	12210.57
480.52	12116.95
480.70	12248.02
480.88	12100.57
481.06	12439.95
481.24	12702.09
481.41	12622.51
481.59	12734.85
481.77	12769.96
481.95	12847.20
482.13	12898.69
482.31	13060.19
482.49	13383.18
482.67	13444.04
482.85	13413.61
483.03	13589.15
483.21	13699.16
483.39	13827.88
483.57	13867.67
483.74	14022.15
483.92	13830.23
484.10	13818.52
484.28	14398.98
484.46	14368.55
484.64	14637.71
484.82	14476.21
485.00	14595.58
485.18	15140.93
485.35	15269.66
485.53	14836.66
485.71	15335.19
485.89	15592.65
486.07	15377.32
486.25	15400.72
486.43	15508.39
486.61	15805.64
486.78	15861.81
486.96	15939.05
487.14	16049.05
487.32	16432.90
487.50	16058.42
487.68	16589.72
487.85	16889.31
488.03	16870.58
488.21	17109.32
488.39	16833.13
488.57	17212.30
488.75	17439.33
488.92	17579.76
489.10	17720.20
489.28	17614.87
489.46	17724.88
489.64	17879.35
489.81	18192.98
489.99	18090.00
490.17	18277.24
490.35	18506.62
490.53	18628.32
490.70	18658.75
490.88	18728.97
491.06	19002.81
491.24	19178.35
491.41	18970.04
491.59	19225.16
491.77	19267.29
491.95	19527.09
492.13	19772.85
492.30	19456.87
492.48	19740.08
492.66	19971.79
492.84	20114.56
493.01	20177.76
493.19	20252.66
493.37	20032.65
493.54	20821.41
493.72	20858.85
493.90	20802.68
494.08	21067.16
494.25	21013.33
494.43	21315.26
494.61	21146.74
494.79	21322.28
494.96	21577.40
495.14	21462.71
495.32	21724.85
495.49	21961.25
495.67	21982.31
495.85	22202.32
496.02	22242.11
496.20	22448.08
496.38	22625.96
496.55	22204.66
496.73	23089.38
496.91	22696.17
497.09	22972.36
497.26	22958.31
497.44	22785.12
497.62	23077.68
497.79	23494.30
497.97	23662.82
498.14	23742.39
498.32	23899.21
498.50	23733.03
498.67	23971.77
498.85	23690.90
499.03	24170.71
499.20	23983.47
499.38	24250.29
499.56	24706.70
499.73	24547.54
499.91	24348.59
500.08	24886.92
500.26	24570.94
500.44	25095.22
500.61	24985.22
500.79	24819.04
500.97	25177.14
501.14	25465.03
501.32	25312.89
501.49	25535.24
501.67	25434.60
501.84	25671.00
502.02	25783.34
502.20	25516.52
502.37	25832.49
502.55	25802.07
502.72	25961.22
502.90	26148.46
503.07	26256.13
503.25	25907.39
503.43	26401.24
503.60	26401.24
503.78	26466.78
503.95	26450.39
504.13	26829.56
504.30	26852.97
504.48	26801.47
504.65	26740.62
504.83	26977.01
505.01	27166.60
505.18	27372.57
505.36	27564.49
505.53	27110.43
505.71	27398.31
505.88	27812.59
506.06	27115.11
506.23	27683.86
506.41	27505.98
506.58	27857.06
506.76	28039.62
506.93	28063.02
507.11	27946.00
507.28	28325.16
507.46	28229.20
507.63	28444.53
507.81	28701.99
507.98	28123.88
508.16	28596.67
508.33	28659.86
508.50	28659.86
508.68	28673.90
508.85	28929.02
509.03	29198.18
509.20	29373.72
509.38	29467.34
509.55	29343.30
509.73	29813.74
509.90	29369.04
510.08	29474.37
510.25	30005.67
510.42	29804.38
510.60	29879.28
510.77	30363.77
510.95	30433.99
511.12	29951.84
511.30	30120.35
511.47	30157.80
511.64	30263.13
511.82	30120.35
511.99	30518.25
512.17	30665.70
512.34	30373.13
512.51	30838.90
512.69	30960.61
512.86	30986.35
513.04	30822.51
513.21	31110.40
513.38	31370.20
513.56	31517.65
513.73	31328.07
513.90	31159.55
514.08	31285.94
514.25	31587.87
514.43	31707.24
514.60	32065.34
514.77	31744.69
514.95	31852.35
515.12	31648.72
515.29	31740.00
515.47	31964.70
515.64	32549.83
515.81	31716.60
515.99	32231.52
516.16	32425.78
516.33	32528.77
516.51	32683.24
516.68	32259.60
516.85	32465.57
517.03	32531.11
517.20	33141.99
517.37	32676.22
517.54	33048.36
517.72	33156.03
517.89	33078.79
518.06	33060.07
518.24	32699.62
518.41	33134.96
518.58	33284.76
518.75	33247.31
518.93	33415.83
519.10	33802.02
519.27	33579.67
519.45	33750.52
519.62	33570.30
519.79	33944.79
519.96	33813.72
520.14	33928.41
520.31	33666.27
520.48	34469.07
520.65	34267.78
520.83	35002.71
521.00	34597.80
521.17	34808.45
521.34	34347.36
521.52	34459.71
521.69	34457.37
521.86	34895.05
522.03	34801.43
522.20	35346.77
522.38	35159.53
522.55	35662.74
522.72	34749.93
522.89	35370.18
523.07	35667.42
523.24	35391.24
523.41	35550.40
523.58	35475.50
523.75	35342.09
523.92	35028.46
524.10	35838.28
524.27	35634.66
524.44	35910.84
524.61	35641.68
524.78	36184.68
524.96	35723.60
525.13	36187.02
525.30	36545.12
525.47	36116.81
525.64	36013.82
525.81	36503.00
525.98	36755.77
526.16	36704.28
526.33	36421.08
526.50	36575.55
526.67	36313.41
526.84	36423.42
527.01	36210.43
527.18	36608.32
527.36	36659.81
527.53	37174.73
527.70	37558.58
527.87	37390.06
528.04	37214.52
528.21	36996.85
528.38	37191.11
528.55	37696.67
528.72	37202.82
528.89	37493.04
529.07	37141.96
529.24	37010.89
529.41	37661.56
529.58	37757.52
529.75	37563.26
529.92	37706.03
530.09	37361.97
530.26	37872.21
530.43	37853.48
530.60	37862.85
530.77	37717.73
530.94	37968.17
531.11	37855.82
531.28	37811.35
531.46	37919.02
531.63	38026.68
531.80	38707.78
531.97	38295.85
532.14	38780.34
532.31	38368.40
532.48	38700.76
532.65	38471.39
532.82	38462.02
532.99	38756.93
533.16	38600.12
533.33	39100.99
533.50	39215.68
533.67	39033.11
533.84	38843.53
534.01	38560.33
534.18	39058.86
534.35	39772.72
534.52	39232.06
534.69	39658.04
534.86	39597.18
535.03	39182.91
535.20	39718.89
535.37	39587.82
535.54	39803.15
535.71	39735.27
535.88	39693.15
536.05	39915.50
536.22	40282.96
536.38	39749.32
536.55	39566.76
536.72	39915.50
536.89	39894.43
537.06	39950.60
537.23	40076.99
537.40	40121.46
537.57	39634.63
537.74	40205.72
537.91	40158.91
538.08	40093.38
538.25	40203.38
538.42	40268.92
538.59	40481.91
538.75	40154.23
538.92	40500.63
539.09	41022.57
539.26	40474.88
539.43	40856.39
539.60	40741.71
539.77	40418.71
539.94	40795.54
540.11	40423.39
540.28	41069.38
540.44	40804.90
540.61	40694.89
540.78	40847.03
540.95	41268.33
541.12	40507.65
541.29	40687.87
541.46	41060.02
541.62	41045.97
541.79	41383.01
541.96	40879.80
542.13	41268.33
542.30	41401.74
542.47	41418.12
542.63	41069.38
542.80	41837.08
542.97	41577.28
543.14	41911.97
543.31	41785.58
543.48	41972.83
543.64	42464.34
543.81	42586.05
543.98	42347.31
544.15	42494.77
544.32	42031.34
544.48	42604.77
544.65	42328.59
544.82	42677.33
544.99	42101.56
545.16	42281.78
545.32	42417.53
545.49	42948.83
545.66	43028.41
545.83	42855.21
546.00	42660.94
546.16	42878.61
546.33	42707.76
546.50	42412.85
546.67	42454.98
546.83	42312.20
547.00	42550.94
547.17	42810.74
547.34	43068.20
547.50	43166.50
547.67	42937.13
547.84	43072.88
548.00	42969.90
548.17	43768.02
548.34	43489.49
548.51	43643.97
548.67	43133.73
548.84	43131.39
549.01	43407.58
549.18	43559.71
549.34	43768.02
549.51	43428.64
549.68	43531.62
549.84	43569.07
550.01	43620.56
550.18	43157.14
550.34	44081.65
550.51	43416.94
550.68	44002.07
550.84	43522.26
551.01	44006.75
551.18	43807.81
551.34	43791.42
551.51	44320.38
551.68	43929.51
551.84	43768.02
552.01	43826.53
552.18	43845.26
552.34	43964.62
552.51	44020.80
552.68	44137.82
552.84	44442.09
553.01	44514.65
553.18	44212.72
553.34	44306.34
553.51	44491.24
553.67	44369.54
553.84	44498.26
554.01	44603.59
554.17	44575.50
554.34	44839.98
554.51	44514.65
554.67	44737.00
554.84	44711.25
555.00	44289.96
555.17	45404.05
555.33	44823.60
555.50	44900.84
555.67	44538.05
555.83	45109.14
556.00	44879.77
556.16	44985.10
556.33	45600.66
556.50	44987.44
556.66	45146.59
556.83	45118.51
556.99	45282.34
557.16	45385.33
557.32	45186.38
557.49	45305.75
557.65	45106.80
557.82	45333.84
557.98	45462.57
558.15	45322.13
558.32	45359.58
558.48	45130.21
558.65	45635.77
558.81	45170.00
558.98	45265.96
559.14	45223.83
559.31	45029.57
559.47	45394.69
559.64	45492.99
559.80	45570.23
559.97	46010.25
560.13	45240.21
560.30	45642.79
560.46	45837.05
560.63	45642.79
560.79	45998.55
560.96	46213.88
561.12	45837.05
561.29	45916.63
561.45	46279.41
561.61	45689.60
561.78	45329.16
561.94	45792.58
562.11	45855.78
562.27	45495.33
562.44	45521.08
562.60	45848.75
562.77	46103.87
562.93	45460.23
563.10	46012.59
563.26	46248.99
563.42	46506.44
563.59	45947.06
563.75	46000.89
563.92	45890.88
564.08	46153.02
564.24	46443.25
564.41	46026.63
564.57	45958.76
564.74	46539.21
564.90	46101.53
565.07	46216.22
565.23	46117.92
565.39	46057.06
565.56	46590.70
565.72	46206.86
565.88	46513.47
566.05	46295.80
566.21	46827.10
566.38	46237.28
566.54	46494.74
566.70	46494.74
566.87	46777.95
567.03	46253.67
567.19	46508.79
567.36	46782.63
567.52	46312.18
567.68	46433.89
567.85	46464.32
568.01	46721.77
568.17	46101.53
568.34	46461.97
568.50	46773.27
568.66	46506.44
568.83	46471.34
568.99	46426.87
569.15	46583.68
569.32	46637.51
569.48	46513.47
569.64	47002.64
569.81	46742.84
569.97	46583.68
570.13	47194.56
570.30	46630.49
570.46	46883.27
570.62	46714.75
570.78	46827.10
570.95	46799.01
571.11	46876.25
571.27	46614.11
571.43	46593.04
571.60	47232.01
571.76	46724.11
571.92	47145.41
572.09	46616.45
572.25	46569.64
572.41	46925.40
572.57	47016.68
572.74	47051.79
572.90	46873.91
573.06	47356.06
573.22	47079.88
573.38	47250.74
573.55	47290.52
573.71	47508.19
573.87	47152.43
574.03	47126.69
574.20	47318.61
574.36	47175.84
574.52	47117.32
574.68	47599.47
574.84	47154.77
575.01	47285.84
575.17	47360.74
575.33	47391.17
575.49	47168.82
575.65	47100.94
575.82	47334.99
575.98	46852.84
576.14	47618.20
576.30	47257.76
576.46	47037.75
576.62	47047.11
576.79	47250.74
576.95	46543.89
577.11	46773.27
577.27	46944.12
577.43	47332.65
577.59	46920.72
577.75	47367.76
577.92	47262.44
578.08	47044.77
578.24	47337.33
578.40	47285.84
578.56	47517.56
578.72	47409.89
578.88	46894.97
579.04	47540.96
579.21	47103.28
579.37	47358.40
579.53	47208.61
579.69	47250.74
579.85	46953.49
580.01	47599.47
580.17	47224.99
580.33	47309.25
580.49	47381.80
580.65	47122.01
580.82	47615.86
580.98	47014.34
581.14	47185.20
581.30	47395.85
581.46	47505.85
581.62	47489.47
581.78	46871.57
581.94	47313.93
582.10	47466.06
582.26	47489.47
582.42	47281.16
582.58	47157.11
582.74	47618.20
582.90	47496.49
583.06	47611.18
583.22	47175.84
583.38	47332.65
583.54	47475.43
583.70	47332.65
583.86	47526.92
584.02	47416.91
584.18	47452.02
584.34	47569.05
584.50	47634.58
584.66	47861.61
584.82	47540.96
584.98	48027.79
585.14	47627.56
585.30	47646.29
585.46	47426.28
585.62	47316.27
585.78	47351.38
585.94	47250.74
586.10	47885.02
586.26	47569.05
586.42	47414.57
586.58	47711.82
586.74	47622.88
586.90	47267.12
587.06	47379.46
587.22	47466.06
587.38	47196.90
587.54	47650.97
587.70	47842.89
587.86	47980.98
588.02	47583.09
588.18	47737.57
588.34	47009.66
588.49	47646.29
588.65	47746.93
588.81	47433.30
588.97	48268.87
589.13	47384.15
589.29	47634.58
589.45	48053.54
589.61	47845.23
589.77	47690.76
589.93	47653.31
590.08	48009.07
590.24	47863.96
590.40	48413.98
590.56	48072.26
590.72	47817.14
590.88	47737.57
591.04	47484.79
591.20	48189.29
591.35	47725.86
591.51	48411.64
591.67	48226.74
591.83	48062.90
591.99	48208.01
592.15	47854.59
592.31	47920.13
592.46	47760.97
592.62	48020.77
592.78	48020.77
592.94	48430.36
593.10	48109.71
593.26	48149.50
593.41	48409.30
593.57	48184.61
593.73	48058.22
593.89	48659.74
594.05	48034.81
594.20	48285.25
594.36	48348.45
594.52	48376.53
594.68	48378.87
594.84	48437.39
594.99	48353.13
595.15	48135.46
595.31	48577.82
595.47	48587.18
595.62	48259.51
595.78	47828.85
595.94	48217.38
596.10	47955.24
596.25	48294.61
596.41	48397.60
596.57	48009.07
596.73	48172.91
596.88	48474.84
597.04	48271.21
597.20	48458.45
597.36	48336.74
597.51	48535.69
597.67	48303.98
597.83	48083.97
597.99	48395.26
598.14	48018.43
598.30	48367.17
598.46	48186.95
598.61	48545.05
598.77	48229.08
598.93	48243.12
599.09	48093.33
599.24	49045.93
599.40	48549.73
599.56	48332.06
599.71	48753.36
599.87	48814.21
600.03	48479.52
600.18	48421.00
600.34	48341.42
600.50	48753.36
600.65	48247.80
600.81	48793.15
600.97	48678.46
601.12	48280.57
601.28	48311.00
601.44	48669.10
601.59	48683.14
601.75	48198.65
601.91	48774.42
602.06	48477.18
602.22	48432.71
602.37	48603.56
602.53	48638.67
602.69	48587.18
602.84	48563.78
603.00	48193.97
603.16	48479.52
603.31	48268.87
603.47	48622.29
603.62	48442.07
603.78	48800.17
603.94	48493.56
604.09	48369.51
604.25	48205.67
604.40	48341.42
604.56	48690.16
604.71	48582.50
604.87	48133.12
605.03	48526.33
605.18	48514.62
605.34	48631.65
605.49	48175.25
605.65	48025.45
605.80	48098.01
605.96	47725.86
606.12	48533.35
606.27	48659.74
606.43	48030.13
606.58	48526.33
606.74	48299.30
606.89	48062.90
607.05	48425.68
607.20	48369.51
607.36	48177.59
607.51	48278.23
607.67	48299.30
607.82	48079.28
607.98	48322.70
608.13	48374.19
608.29	48076.94
608.44	48622.29
608.60	47922.47
608.75	47917.79
608.91	48465.47
609.06	48308.66
609.22	48343.77
609.37	48083.97
609.53	48275.89
609.68	48353.13
609.84	48250.14
609.99	48280.57
610.15	48041.84
610.30	48156.52
610.46	47852.25
610.61	48137.80
610.76	48519.31
610.92	47796.08
611.07	47636.92
611.23	47732.89
611.38	48236.10
611.54	48116.73
611.69	47978.64
611.84	48095.67
612.00	47978.64
612.15	47845.23
612.31	48051.20
612.46	47452.02
612.62	47814.80
612.77	47934.17
612.92	48257.17
613.08	48055.88
613.23	48093.33
613.39	47826.51
613.54	47760.97
613.69	47758.63
613.85	47775.02
614.00	47885.02
614.15	47735.23
614.31	47690.76
614.46	47505.85
614.62	47416.91
614.77	47669.69
614.92	47587.77
615.08	47512.88
615.23	47889.70
615.38	47690.76
615.54	47917.79
615.69	47896.72
615.84	47627.56
616.00	48149.50
616.15	47714.16
616.30	47807.78
616.46	47824.17
616.61	47707.14
616.76	47625.22
616.92	47437.98
617.07	47604.16
617.22	47840.55
617.37	46948.81
617.53	47604.16
617.68	47133.71
617.83	47737.57
617.99	47580.75
618.14	47533.94
618.29	47086.90
618.45	47344.36
618.60	47229.67
618.75	47229.67
618.90	47196.90
619.06	46899.65
619.21	47285.84
619.36	47264.78
619.51	47150.09
619.67	47049.45
619.82	47002.64
619.97	47264.78
620.12	46808.37
620.28	46880.93
620.43	47180.52
620.58	47182.86
620.73	47339.68
620.89	47201.58
621.04	47196.90
621.19	47098.60
621.34	46997.96
621.49	47065.83
621.65	46759.22
621.80	47206.26
621.95	46887.95
622.10	46813.05
622.25	46960.51
622.41	46967.53
622.56	46672.62
622.71	46738.16
622.86	46890.29
623.01	46988.60
623.16	46532.19
623.32	46433.89
623.47	46997.96
623.62	46735.82
623.77	46569.64
623.92	46646.88
624.07	46754.54
624.23	47323.29
624.38	46972.21
624.53	46604.75
624.68	46361.33
624.83	46501.76
624.98	46366.01
625.13	46270.05
625.29	46085.15
625.44	46258.35
625.59	46157.70
625.74	46625.81
625.89	46494.74
626.04	46305.16
626.19	46101.53
626.34	46068.76
626.49	46274.73
626.65	45705.98
626.80	45925.99
626.95	45745.77
627.10	45907.27
627.25	46513.47
627.40	46160.05
627.55	46394.10
627.70	45705.98
627.85	46120.26
628.00	45961.10
628.15	46335.59
628.30	45715.34
628.45	45670.87
628.60	45432.14
628.76	46024.29
628.91	45727.05
629.06	45830.03
629.21	45483.63
629.36	45790.24
629.51	45883.86
629.66	45731.73
629.81	45820.67
629.96	45631.08
630.11	45675.55
630.26	45481.29
630.41	45638.11
630.56	45553.85
630.71	45572.57
630.86	45521.08
631.01	45280.00
631.16	45457.88
631.31	45425.12
631.46	44971.05
631.61	45453.20
631.76	45750.45
631.91	45256.60
632.06	45851.09
632.21	45553.85
632.36	45834.71
632.51	45153.62
632.66	45130.21
632.81	45347.88
632.96	44959.35
633.10	45249.58
633.25	45132.55
633.40	45076.38
633.55	45408.73
633.70	45324.47
633.85	44891.48
634.00	44568.48
634.15	44954.67
634.30	45134.89
634.45	44924.24
634.60	45265.96
634.75	44722.96
634.90	44992.12
635.05	45198.09
635.19	45043.61
635.34	45345.54
635.49	45198.09
635.64	44699.55
635.79	44727.64
635.94	44608.27
636.09	44861.05
636.24	44437.41
636.39	44870.41
636.53	45165.32
636.68	44198.68
636.83	44409.32
636.98	44222.08
637.13	44243.15
637.28	44322.72
637.43	44210.38
637.57	44428.05
637.72	43840.57
637.87	44254.85
638.02	44631.68
638.17	44423.37
638.32	44334.43
638.46	44076.97
638.61	44121.44
638.76	44603.59
638.91	44116.76
639.06	44016.11
639.20	43763.34
639.35	43639.29
639.50	43929.51
639.65	44308.68
639.80	44348.47
639.94	44074.63
640.09	44566.14
640.24	44580.18
640.39	43409.92
640.54	43732.91
640.68	44016.11
640.83	44163.57
640.98	43885.04
641.13	43559.71
641.27	44294.64
641.42	43765.68
641.57	43592.48
641.72	43910.79
641.86	43821.85
642.01	43658.01
642.16	43564.39
642.31	43491.83
642.45	43526.94
642.60	43084.58
642.75	43704.82
642.90	43892.07
643.04	43704.82
643.19	43833.55
643.34	43302.25
643.48	43419.28
643.63	43295.23
643.78	43012.02
643.93	43112.67
644.07	43330.34
644.22	43297.57
644.37	43381.83
644.51	43529.28
644.66	43103.31
644.81	43501.20
644.95	43761.00
645.10	43540.99
645.25	43136.07
645.39	43227.35
645.54	43110.33
645.69	42909.04
645.83	42930.11
645.98	43035.43
646.13	42955.85
646.27	43075.22
646.42	42553.28
646.57	43178.20
646.71	43093.94
646.86	43075.22
647.00	43026.07
647.15	42906.70
647.30	42878.61
647.44	42412.85
647.59	42705.41
647.74	42843.51
647.88	42696.05
648.03	43285.87
648.17	43150.12
648.32	42632.86
648.47	43288.21
648.61	42391.78
648.76	42527.53
648.90	42623.50
649.05	42784.99
649.20	42417.53
649.34	42464.34
649.49	42866.91
649.63	42555.62
649.78	42445.62
649.92	42323.91
650.07	42806.06
650.21	42653.92
650.36	43014.37
650.51	42440.93
650.65	42745.20
650.80	42066.45
650.94	42309.86
651.09	42204.54
651.23	42267.73
651.38	41907.29
651.52	42029.00
651.67	42099.22
651.81	42003.25
651.96	42595.41
652.10	41390.03
652.25	41787.92
652.39	41935.38
652.54	42218.58
652.68	41956.44
652.83	42082.83
652.97	42148.37
653.12	41881.55
653.26	42005.59
653.41	41560.89
653.55	41965.81
653.70	41926.02
653.84	41816.01
653.99	41998.57
654.13	41544.51
654.27	41837.08
654.42	41818.35
654.56	41537.49
654.71	41586.64
654.85	41626.43
655.00	41680.26
655.14	41708.35
655.29	41853.46
655.43	41640.47
655.57	41572.60
655.72	41593.66
655.86	41062.36
656.01	41174.70
656.15	41120.87
656.30	41460.25
656.44	41331.52
656.58	41008.53
656.73	41181.73
656.87	41233.22
657.01	41083.42
657.16	41523.44
657.30	41331.52
657.45	41111.51
657.59	40947.67
657.73	40722.98
657.88	41205.13
658.02	40893.84
658.16	41322.16
658.31	41113.85
658.45	40917.25
658.60	40933.63
658.74	40959.38
658.88	40942.99
659.03	40502.97
659.17	40964.06
659.31	40666.81
659.46	40158.91
659.60	40519.35
659.74	40561.48
659.89	40425.73
660.03	39871.03
660.17	40552.12
660.32	40229.13
660.46	40219.77
660.60	40006.78
660.74	40030.18
660.89	40348.50
661.03	39578.46
661.17	39849.96
661.32	39679.10
661.46	40240.83
661.60	39746.98
661.74	39945.92
661.89	39618.25
662.03	39878.05
662.17	39302.28
662.31	39573.78
662.46	39683.78
662.60	39632.29
662.74	39203.97
662.88	39115.03
663.03	38721.82
663.17	38871.62
663.31	38859.91
663.45	39042.48
663.60	39807.83
663.74	39313.98
663.88	39438.03
664.02	38953.54
664.17	39517.60
664.31	38293.50
664.45	38705.44
664.59	38457.34
664.73	39030.77
664.88	38646.93
665.02	38490.11
665.16	38576.71
665.30	38522.88
665.44	38396.49
665.59	38337.98
665.73	37972.85
665.87	37872.21
666.01	38499.47
666.15	38459.68
666.29	38061.79
666.44	38000.94
666.58	37825.40
666.72	38115.62
666.86	38150.73
667.00	37792.63
667.14	37504.74
667.28	37790.29
667.43	37876.89
667.57	38031.36
667.71	37827.74
667.85	37420.48
667.99	37666.24
668.13	37511.77
668.27	37127.92
668.41	37088.13
668.56	36683.22
668.70	37324.52
668.84	36669.17
668.98	36865.78
669.12	37137.28
669.26	36935.99
669.40	36802.58
669.54	36540.44
669.68	36720.66
669.82	36727.69
669.96	36247.88
670.10	35917.86
670.25	36430.44
670.39	36070.00
670.53	36217.45
670.67	36353.20
670.81	36678.54
670.95	36325.11
671.09	36109.78
671.23	35931.90
671.37	36800.24
671.51	35999.78
671.65	35840.62
671.79	35880.41
671.93	36009.14
672.07	36472.57
672.21	35885.09
672.35	35105.70
672.49	35503.59
672.63	35505.93
672.77	35215.70
672.91	35402.94
673.05	35241.45
673.19	34911.43
673.33	34639.93
673.47	35019.10
673.61	34841.21
673.75	34700.78
673.89	34553.33
674.03	34761.64
674.17	33897.98
674.31	34370.77
674.45	34092.24
674.59	34382.47
674.73	34148.42
674.87	33752.87
675.01	33596.05
675.15	33453.28
675.29	33432.21
675.43	33390.08
675.56	33827.76
675.70	33528.17
675.84	33036.66
675.98	32563.87
676.12	33401.79
676.26	33596.05
676.40	33277.74
676.54	32875.16
676.68	32804.95
676.82	32285.35
676.96	33074.11
677.10	33060.07
677.23	32671.54
677.37	32636.43
677.51	32332.16
677.65	32060.66
677.79	32395.35
677.93	32196.41
678.07	32009.17
678.21	31824.26
678.34	31969.38
678.48	31260.20
678.62	31344.45
678.76	31515.31
678.90	31332.75
679.04	31583.19
679.18	31714.26
679.31	31222.75
679.45	31098.70
679.59	30845.92
679.73	30981.67
679.87	30628.25
680.00	30511.22
680.14	30237.38
680.28	30733.57
680.42	30684.42
680.56	30061.84
680.70	30359.09
680.83	30127.38
680.97	30073.54
681.11	29780.98
681.25	29589.05
681.39	29539.90
681.52	29673.31
681.66	29113.92
681.80	28938.38
681.94	28877.53
682.07	28980.51
682.21	28847.10
682.35	28863.49
682.49	28804.97
682.62	28704.33
682.76	28678.58
682.90	28451.55
683.04	28648.16
683.17	28325.16
683.31	28250.27
683.45	28217.50
683.59	27845.35
683.72	27840.67
683.86	27552.79
684.00	27810.25
684.13	27913.23
684.27	27278.94
684.41	27201.71
684.55	27091.70
684.68	27063.61
684.82	27054.25
684.96	26953.61
685.09	26993.40
685.23	27070.64
685.37	27419.38
685.50	27372.57
685.64	27101.06
685.78	26590.83
685.91	26501.89
686.05	25734.19
686.19	25982.29
686.32	26129.74
686.46	25998.67
686.60	25518.86
686.73	26068.89
686.87	25916.75
687.01	25851.22
687.14	25626.53
687.28	25598.44
687.42	25755.26
687.55	25345.66
687.69	25390.13
687.82	24896.28
687.96	25179.48
688.10	25013.31
688.23	24905.64
688.37	25167.78
688.50	25247.36
688.64	24945.43
688.78	24484.34
688.91	24467.96
689.05	24659.88
689.18	24175.39
689.32	23782.18
689.46	23672.18
689.59	23936.66
689.73	24205.82
689.86	24074.75
690.00	24170.71
690.13	23564.51
690.27	23599.62
690.41	23730.69
690.54	23241.52
690.68	23173.64
690.81	23290.67
690.95	22677.45
691.08	22974.70
691.22	22473.82
691.35	22696.17
691.49	23115.13
691.62	22424.67
691.76	22265.52
691.89	22342.75
692.03	22094.66
692.16	21811.45
692.30	21979.97
692.43	21951.88
692.57	21762.30
692.70	21834.86
692.84	21535.27
692.97	21507.18
693.11	21228.66
693.24	21102.27
693.38	21001.63
693.51	21132.70
693.65	21032.05
693.78	20826.09
693.92	21043.76
694.05	20601.40
694.19	20802.68
694.32	20585.01
694.45	20240.95
694.59	20730.12
694.72	20706.72
694.86	20601.40
694.99	20128.61
695.13	20252.66
695.26	19861.79
695.39	19714.33
695.53	19889.87
695.66	20135.63
695.80	19428.79
695.93	19573.90
696.07	19363.25
696.20	19084.73
696.33	18995.79
696.47	19131.54
696.60	19026.21
696.73	19304.74
696.87	19166.65
697.00	19089.41
697.14	18735.99
697.27	18480.87
697.40	18679.82
697.54	18703.22
697.67	18574.49
697.80	18778.12
697.94	18359.16
698.07	18361.50
698.21	17905.10
698.34	18118.09
698.47	17930.84
698.61	17451.03
698.74	17783.39
698.87	17706.15
699.01	17507.21
699.14	17799.77
699.27	17467.42
699.40	17329.33
699.54	17380.82
699.67	17102.29
699.80	17008.67
699.94	16959.52
700.07	17046.12
700.20	16992.29
700.34	16891.65
700.47	16793.34
700.60	16994.63
700.73	17048.46
700.87	16437.58
701.00	16411.84
701.13	16430.56
701.26	16327.58
701.40	16208.21
701.53	15765.85
701.66	16011.60
701.79	16107.57
701.93	15807.98
702.06	15583.29
702.19	15623.08
702.32	15878.19
702.46	15571.58
702.59	15882.88
702.72	15840.75
702.85	15372.64
702.99	15272.00
703.12	15346.89
703.25	15166.67
703.38	15229.87
703.51	14967.73
703.65	14860.06
703.78	14813.25
703.91	14504.30
704.04	14902.19
704.17	14822.61
704.31	14682.18
704.44	14438.76
704.57	14427.06
704.70	14422.38
704.83	14066.62
704.96	14242.16
705.10	13745.97
705.23	13991.72
>>>>>End Processed Spectral Data<<<<<
