SpectraSuite Data File
++++++++++++++++++++++++++++++++++++
Date: Fri Oct 25 10:43:17 EDT 2013
User: price-jones
Dark Spectrum Present: No
Reference Spectrum Present: No
Number of Sampled Component Spectra: 1
Spectrometers: USB2+H05261
Integration Time (usec): 100000 (USB2+H05261)
Spectra Averaged: 1 (USB2+H05261)
Boxcar Smoothing: 0 (USB2+H05261)
Correct for Electrical Dark: No (USB2+H05261)
Strobe/Lamp Enabled: No (USB2+H05261)
Correct for Detector Non-linearity: No (USB2+H05261)
Correct for Stray Light: No (USB2+H05261)
Number of Pixels in Processed Spectrum: 2048
>>>>>Begin Processed Spectral Data<<<<<
365.73	135.75
365.92	135.75
366.12	135.75
366.32	37.45
366.52	25.75
366.72	86.60
366.91	7.02
367.11	0.00
367.31	0.00
367.51	2.34
367.70	23.41
367.90	0.00
368.10	0.00
368.30	18.72
368.49	9.36
368.69	42.13
368.89	74.90
369.09	18.72
369.28	51.49
369.48	37.45
369.68	93.62
369.87	28.09
370.07	86.60
370.27	107.66
370.47	201.29
370.66	397.89
370.86	472.79
371.06	386.19
371.25	514.92
371.45	440.02
371.65	423.64
371.84	428.32
372.04	482.15
372.24	512.58
372.44	468.11
372.63	510.24
372.83	540.66
373.03	571.09
373.22	456.40
373.42	505.56
373.62	514.92
373.81	535.98
374.01	631.94
374.21	543.00
374.40	482.15
374.60	669.39
374.79	566.41
374.99	636.63
375.19	540.66
375.38	568.75
375.58	528.96
375.78	610.88
375.97	662.37
376.17	669.39
376.37	587.47
376.56	543.00
376.76	629.60
376.95	543.00
377.15	650.67
377.35	624.92
377.54	678.76
377.74	578.11
377.93	620.24
378.13	601.52
378.33	610.88
378.52	596.84
378.72	638.97
378.91	727.91
379.11	638.97
379.31	662.37
379.50	606.20
379.70	650.67
379.89	643.65
380.09	629.60
380.28	667.05
380.48	784.08
380.68	641.31
380.87	641.31
381.07	681.10
381.26	697.48
381.46	664.71
381.65	746.63
381.85	592.16
382.04	697.48
382.24	690.46
382.43	643.65
382.63	723.23
382.83	681.10
383.02	744.29
383.22	727.91
383.41	702.16
383.61	730.25
383.80	713.86
384.00	781.74
384.19	833.23
384.39	812.17
384.58	744.29
384.78	819.19
384.97	720.88
385.17	793.44
385.36	739.61
385.56	873.02
385.75	746.63
385.95	830.89
386.14	798.12
386.34	816.85
386.53	763.01
386.72	784.08
386.92	884.72
387.11	828.55
387.31	849.61
387.50	903.45
387.70	858.98
387.89	887.06
388.09	903.45
388.28	793.44
388.48	922.17
388.67	971.32
388.86	1001.75
389.06	943.24
389.25	875.36
389.45	1015.79
389.64	978.34
389.84	1041.54
390.03	1034.52
390.22	964.30
390.42	966.64
390.61	1008.77
390.81	1034.52
391.00	1039.20
391.19	987.71
391.39	987.71
391.58	1074.31
391.78	1006.43
391.97	1083.67
392.16	966.64
392.36	997.07
392.55	971.32
392.75	957.28
392.94	1020.47
393.13	1050.90
393.33	983.02
393.52	1064.94
393.71	1062.60
393.91	1153.88
394.10	1097.71
394.29	1149.20
394.49	1196.01
394.68	1203.04
394.88	1153.88
395.07	1233.46
395.26	1172.61
395.46	1198.35
395.65	1268.57
395.84	1198.35
396.04	1341.13
396.23	1160.91
396.42	1083.67
396.62	1130.48
396.81	1266.23
397.00	1200.69
397.19	1341.13
397.39	1249.85
397.58	1287.29
397.77	1397.30
397.97	1357.51
398.16	1404.32
398.35	1481.56
398.55	1565.82
398.74	1516.67
398.93	1582.20
399.12	1570.50
399.32	1481.56
399.51	1465.18
399.70	1589.22
399.90	1439.43
400.09	1614.97
400.28	1575.18
400.47	1659.44
400.67	1643.06
400.86	1589.22
401.05	1530.71
401.24	1720.29
401.44	1734.34
401.63	1724.97
401.82	1701.57
402.01	1652.42
402.21	1778.81
402.40	1755.40
402.59	1708.59
402.78	1713.27
402.97	1720.29
403.17	1769.44
403.36	1816.26
403.55	1919.24
403.74	1771.79
403.93	1837.32
404.13	1778.81
404.32	1923.92
404.51	1937.96
404.70	1916.90
404.89	1891.15
405.09	1926.26
405.28	1919.24
405.47	1907.54
405.66	1893.49
405.85	1959.03
406.05	1872.43
406.24	1980.09
406.43	2038.61
406.62	2010.52
406.81	2113.50
407.00	2045.63
407.20	2062.01
407.39	2090.10
407.58	2113.50
407.77	2129.89
407.96	2221.17
408.15	2228.19
408.34	2300.75
408.54	2263.30
408.73	2179.04
408.92	2282.02
409.11	2392.03
409.30	2270.32
409.49	2265.64
409.68	2239.89
409.87	2207.13
410.07	2310.11
410.26	2347.56
410.45	2450.54
410.64	2370.96
410.83	2548.84
411.02	2455.22
411.21	2478.63
411.40	2513.74
411.59	2581.61
411.78	2537.14
411.98	2537.14
412.17	2747.79
412.36	2672.89
412.55	2787.58
412.74	2743.11
412.93	2703.32
413.12	2633.10
413.31	2867.16
413.50	2738.43
413.69	2902.26
413.88	2904.60
414.07	2846.09
414.26	2925.67
414.45	2984.18
414.64	3021.63
414.83	3091.85
415.02	2998.23
415.22	3038.02
415.41	3187.81
415.60	3042.70
415.79	3119.93
415.98	3213.56
416.17	3124.62
416.36	3227.60
416.55	3335.26
416.74	3288.45
416.93	3255.69
417.12	3243.98
417.31	3300.16
417.50	3337.60
417.69	3410.16
417.88	3253.34
418.07	3398.46
418.26	3375.05
418.45	3475.70
418.64	3634.85
418.83	3522.51
419.02	3545.91
419.21	3552.93
419.39	3487.40
419.58	3576.34
419.77	3412.50
419.96	3648.90
420.15	3651.24
420.34	3632.51
420.53	3702.73
420.72	3843.16
420.91	3822.09
421.10	3786.99
421.29	3920.40
421.48	3714.43
421.67	3824.44
421.86	3658.26
422.05	3871.25
422.24	3700.39
422.43	3824.44
422.61	3875.93
422.80	3976.57
422.99	3932.10
423.18	3999.98
423.37	3927.42
423.56	3955.51
423.75	4049.13
423.94	3871.25
424.13	3719.11
424.32	3763.58
424.50	3999.98
424.69	3990.61
424.88	4018.70
425.07	3896.99
425.26	3847.84
425.45	4053.81
425.64	3922.74
425.83	3995.29
426.01	4030.40
426.20	4107.64
426.39	4112.32
426.58	3913.38
426.77	3854.86
426.96	3875.93
427.15	3995.29
427.33	4046.79
427.52	4053.81
427.71	4271.48
427.90	4084.23
428.09	4145.09
428.28	4126.36
428.46	4086.58
428.65	4135.73
428.84	4280.84
429.03	4222.33
429.22	3988.27
429.40	4131.05
429.59	4053.81
429.78	3948.48
429.97	3967.21
430.16	3852.52
430.34	3925.08
430.53	4107.64
430.72	4177.86
430.91	4161.47
431.10	4285.52
431.28	4531.28
431.47	4667.03
431.66	4730.22
431.85	4500.85
432.03	4725.54
432.22	4514.89
432.41	4610.86
432.60	4533.62
432.79	4643.62
432.97	4833.21
433.16	4882.36
433.35	4596.81
433.54	4697.46
433.72	4641.28
433.91	4692.77
434.10	4788.74
434.28	4758.31
434.47	4835.55
434.66	4887.04
434.85	4938.53
435.03	5013.43
435.22	4931.51
435.41	5156.20
435.59	5020.45
435.78	5053.22
435.97	5210.03
436.16	5090.67
436.34	5050.88
436.53	5048.54
436.72	5195.99
436.90	4856.61
437.09	5123.43
437.28	5097.69
437.46	5081.30
437.65	5158.54
437.84	5298.97
438.02	5011.09
438.21	5163.22
438.40	5104.71
438.58	5308.34
438.77	5387.91
438.96	5320.04
439.14	5598.56
439.33	5654.73
439.52	5516.64
439.70	5612.60
439.89	5575.16
440.08	5652.39
440.26	5706.23
440.45	5762.40
440.63	5912.19
440.82	6085.39
441.01	6012.84
441.19	6010.50
441.38	6083.05
441.57	6076.03
441.75	6274.98
441.94	6071.35
442.12	6377.96
442.31	6450.52
442.50	6310.08
442.68	6300.72
442.87	6235.19
443.05	6296.04
443.24	6274.98
443.43	6415.41
443.61	6480.94
443.80	6431.79
443.98	6289.02
444.17	6155.61
444.35	6619.04
444.54	6555.84
444.73	6560.52
444.91	6431.79
445.10	6394.34
445.28	6506.69
445.47	6497.33
445.65	6452.86
445.84	6443.49
446.02	6562.86
446.21	6518.39
446.39	6373.28
446.58	6700.95
446.77	6658.82
446.95	6560.52
447.14	6682.23
447.32	6668.19
447.51	6696.27
447.69	6656.48
447.88	6565.20
448.06	6677.55
448.25	6747.76
448.43	6719.68
448.62	6806.28
448.80	6670.53
448.99	6920.96
449.17	6792.23
449.36	6892.88
449.54	6867.13
449.73	6995.86
449.91	6939.69
450.10	7138.63
450.28	7140.97
450.46	7117.57
450.65	7183.10
450.83	7176.08
451.02	7176.08
451.20	7096.50
451.39	7269.70
451.57	7133.95
451.76	7218.21
451.94	7222.89
452.13	7140.97
452.31	6953.73
452.49	7028.63
452.68	7456.95
452.86	7213.53
453.05	7199.49
453.23	7241.62
453.42	7269.70
453.60	7201.83
453.78	7356.30
453.97	7337.58
454.15	7246.30
454.34	7346.94
454.52	7522.48
454.70	7630.15
454.89	7358.64
455.07	7522.48
455.26	7536.52
455.44	7660.57
455.62	7768.24
455.81	7588.02
455.99	7522.48
456.17	7655.89
456.36	7871.22
456.54	8159.11
456.73	7992.93
456.91	7999.95
457.09	8046.76
457.28	8140.38
457.46	8018.68
457.64	8067.83
457.83	8009.31
458.01	8021.02
458.19	8365.07
458.38	8173.15
458.56	8243.37
458.74	8329.97
458.93	8116.98
459.11	8418.91
459.29	8154.43
459.48	8339.33
459.66	8379.12
459.84	8276.13
460.03	8463.38
460.21	8327.63
460.39	8304.22
460.57	8418.91
460.76	8484.44
460.94	8702.11
461.12	8659.98
461.31	8564.02
461.49	8613.17
461.67	8603.81
461.85	8779.35
462.04	8594.45
462.22	9324.69
462.40	8877.65
462.59	8744.24
462.77	8739.56
462.95	8915.10
463.13	9057.87
463.32	9100.00
463.50	8849.57
463.68	9034.47
463.86	8992.34
464.05	8854.25
464.23	8828.50
464.41	9111.71
464.59	8833.18
464.78	8926.80
464.96	9104.68
465.14	8952.55
465.32	9097.66
465.50	9418.32
465.69	9130.43
465.87	9289.59
466.05	9095.32
466.23	9116.39
466.41	9135.11
466.60	9273.20
466.78	9011.06
466.96	9420.66
467.14	9240.44
467.32	9448.74
467.51	9423.00
467.69	9095.32
467.87	9350.44
468.05	9554.07
468.23	9198.31
468.41	9535.34
468.60	9472.15
468.78	9701.52
468.96	9392.57
469.14	9589.17
469.32	9687.48
469.50	9235.75
469.69	9706.20
469.87	9659.39
470.05	9764.72
470.23	9804.50
470.41	9650.03
470.59	10040.90
470.77	9966.00
470.95	9947.28
471.14	10061.96
471.32	10029.20
471.50	10368.57
471.68	10361.55
471.86	10328.78
472.04	10312.40
472.22	10551.14
472.40	10078.35
472.58	10291.34
472.77	10354.53
472.95	10422.41
473.13	10913.92
473.31	10483.26
473.49	10576.88
473.67	10501.98
473.85	10579.22
474.03	10923.28
474.21	11019.24
474.39	10892.85
474.57	11035.63
474.75	11070.73
474.93	11070.73
475.12	11154.99
475.30	11154.99
475.48	11239.25
475.66	11342.24
475.84	11089.46
476.02	11304.79
476.20	11391.39
476.38	11538.84
476.56	11885.24
476.74	11702.68
476.92	11985.88
477.10	11824.39
477.28	12147.38
477.46	12088.87
477.64	12114.61
477.82	12255.04
478.00	12617.83
478.18	12564.00
478.36	12463.35
478.54	12643.57
478.72	12776.98
478.90	12830.82
479.08	13055.51
479.26	13327.01
479.44	13102.32
479.62	13139.77
479.80	13114.02
479.98	13312.97
480.16	13584.47
480.34	13170.19
480.52	13626.60
480.70	13715.54
480.88	13511.91
481.06	13874.70
481.24	13802.14
481.41	14286.63
481.59	14452.81
481.77	14209.39
481.95	14225.78
482.13	14464.51
482.31	14555.79
482.49	14752.40
482.67	14616.65
482.85	15063.69
483.03	15070.71
483.21	15276.68
483.39	15363.28
483.57	15068.37
483.74	15545.84
483.92	15669.89
484.10	15384.34
484.28	15730.74
484.46	16170.76
484.64	16259.70
484.82	15941.39
485.00	16084.16
485.18	16376.73
485.35	16119.27
485.53	15978.84
485.71	16058.42
485.89	16341.62
486.07	16264.38
486.25	16341.62
486.43	16725.47
486.61	17167.83
486.78	17053.14
486.96	17048.46
487.14	17495.50
487.32	17675.73
487.50	17867.65
487.68	17905.10
487.85	18221.07
488.03	18349.80
488.21	18583.85
488.39	18494.91
488.57	18792.16
488.75	18698.54
488.92	18829.61
489.10	19150.26
489.28	19185.37
489.46	19295.38
489.64	19744.76
489.81	19845.40
489.99	19829.02
490.17	19948.39
490.35	20311.17
490.53	20065.41
490.70	20402.45
490.88	20379.04
491.06	20730.12
491.24	20573.31
491.41	20800.34
491.59	20788.64
491.77	20638.84
491.95	20964.18
492.13	20910.35
492.30	21383.13
492.48	21680.38
492.66	21649.96
492.84	21553.99
493.01	22001.04
493.19	21961.25
493.37	22274.88
493.54	22146.15
493.72	22609.58
493.90	22307.65
494.08	22841.29
494.25	23164.28
494.43	23281.31
494.61	22881.08
494.79	23194.71
494.96	23225.14
495.14	23410.04
495.32	23796.23
495.49	23370.25
495.67	23866.44
495.85	23777.50
496.02	23946.02
496.20	23754.10
496.38	24067.73
496.55	24535.84
496.73	24912.66
496.91	24737.12
497.09	24624.78
497.26	24922.02
497.44	24854.15
497.62	25008.62
497.79	25575.03
497.97	24882.24
498.14	25404.17
498.32	25537.59
498.50	25568.01
498.67	25855.90
498.85	26073.57
499.03	26024.42
499.20	26258.47
499.38	26181.23
499.56	26008.03
499.73	25958.88
499.91	26412.95
500.08	26396.56
500.26	26267.83
500.44	26452.73
500.61	26614.23
500.79	26380.18
500.97	26576.78
501.14	26878.71
501.32	26824.88
501.49	26724.24
501.67	27143.19
501.84	27260.22
502.02	27454.48
502.20	27292.99
502.37	27505.98
502.55	27459.16
502.72	27754.07
502.90	28065.36
503.07	27576.19
503.25	27810.25
503.43	27639.39
503.60	27950.68
503.78	27686.20
503.95	28041.96
504.13	28114.52
504.30	28123.88
504.48	28039.62
504.65	28863.49
504.83	28737.10
505.01	28842.42
505.18	28978.17
505.36	29127.97
505.53	29151.37
505.71	29795.02
505.88	29408.83
506.06	29116.26
506.23	29436.92
506.41	29345.64
506.58	29666.29
506.76	29862.90
506.93	29926.09
507.11	29741.19
507.28	29638.20
507.46	29640.54
507.63	30022.05
507.81	30272.49
507.98	29818.42
508.16	30089.93
508.33	30321.64
508.50	30595.48
508.68	30274.83
508.85	30836.56
509.03	31054.23
509.20	30775.70
509.38	31035.50
509.55	31330.41
509.73	31304.67
509.90	31054.23
510.08	31014.44
510.25	31519.99
510.42	31388.92
510.60	31599.57
510.77	31501.27
510.95	32016.19
511.12	31637.02
511.30	31967.04
511.47	32217.47
511.64	32165.98
511.82	32318.12
511.99	31747.03
512.17	32385.99
512.34	32266.63
512.51	32708.99
512.69	32613.02
512.86	32493.66
513.04	32879.85
513.21	32769.84
513.38	32676.22
513.56	32893.89
513.73	32339.18
513.90	32596.64
514.08	32699.62
514.25	33216.88
514.43	33062.41
514.60	33102.20
514.77	33280.08
514.95	33001.55
515.12	32811.97
515.29	33439.23
515.47	33905.00
515.64	33954.15
515.81	34092.24
515.99	33769.25
516.16	33661.58
516.33	33464.98
516.51	33123.26
516.68	33181.77
516.85	33408.81
517.03	33509.45
517.20	33839.47
517.37	33876.91
517.54	34347.36
517.72	33876.91
517.89	34029.05
518.06	33502.43
518.24	34267.78
518.41	34600.14
518.58	34405.88
518.75	34387.15
518.93	34536.94
519.10	34644.61
519.27	34876.32
519.45	34939.52
519.62	34937.18
519.79	35381.88
519.96	35058.88
520.14	35529.33
520.31	35000.37
520.48	35494.22
520.65	35035.48
520.83	35398.26
521.00	35735.30
521.17	35360.81
521.34	35957.65
521.52	36297.03
521.69	35831.26
521.86	36051.27
522.03	35983.40
522.20	36109.78
522.38	35763.39
522.55	36634.06
522.72	36170.64
522.89	36133.19
523.07	36875.14
523.24	36353.20
523.41	37055.36
523.58	36299.37
523.75	37310.48
523.92	36407.03
524.10	36940.68
524.27	37036.64
524.44	37170.05
524.61	37425.17
524.78	36865.78
524.96	37247.29
525.13	37549.21
525.30	37640.50
525.47	37907.32
525.64	37230.90
525.81	37156.00
525.98	37347.93
526.16	37179.41
526.33	37207.50
526.50	37090.47
526.67	37202.82
526.84	37429.85
527.01	37200.47
527.18	37434.53
527.36	37930.72
527.53	38029.02
527.70	38197.54
527.87	37944.76
528.04	37773.91
528.21	38480.75
528.38	38576.71
528.55	38548.62
528.72	38401.17
528.89	38918.43
529.07	38387.13
529.24	38459.68
529.41	38628.20
529.58	38600.12
529.75	38705.44
529.92	38967.58
530.09	39454.41
530.26	39005.03
530.43	38892.68
530.60	38988.64
530.77	38981.62
530.94	39557.39
531.11	38976.94
531.28	39077.58
531.46	39379.51
531.63	39278.87
531.80	39292.91
531.97	39339.72
532.14	39213.34
532.31	38948.85
532.48	38869.28
532.65	39386.54
532.82	39501.22
532.99	39304.62
533.16	39234.40
533.33	39461.43
533.50	39826.56
533.67	39887.41
533.84	39873.37
534.01	40172.96
534.18	39978.69
534.35	39831.24
534.52	39838.26
534.69	40418.71
534.86	40423.39
535.03	40023.16
535.20	40545.10
535.37	40587.23
535.54	40931.29
535.71	40357.86
535.88	40643.40
536.05	40226.79
536.22	40762.77
536.38	40318.07
536.55	40610.64
536.72	40245.51
536.89	40308.71
537.06	40268.92
537.23	40907.88
537.40	40893.84
537.57	40755.75
537.74	41172.36
537.91	40732.34
538.08	41130.23
538.25	40554.46
538.42	40856.39
538.59	40854.05
538.75	40781.49
538.92	41125.55
539.09	41310.46
539.26	41375.99
539.43	41071.72
539.60	40737.02
539.77	40793.20
539.94	41612.38
540.11	41177.04
540.28	41177.04
540.44	41322.16
540.61	40914.90
540.78	41139.60
540.95	41359.61
541.12	41387.69
541.29	41502.38
541.46	41436.84
541.62	41691.96
541.79	41160.66
541.96	41422.80
542.13	41689.62
542.30	42031.34
542.47	41652.17
542.63	41722.39
542.80	42284.12
542.97	42302.84
543.14	42014.96
543.31	41937.72
543.48	42017.30
543.64	43065.86
543.81	42993.30
543.98	42674.99
544.15	42593.07
544.32	42656.26
544.48	42838.83
544.65	42813.08
544.82	42522.85
544.99	42595.41
545.16	42583.71
545.32	42880.95
545.49	42806.06
545.66	42960.53
545.83	42766.27
546.00	42897.34
546.16	42827.12
546.33	43232.04
546.50	42813.08
546.67	43065.86
546.83	42412.85
547.00	42672.65
547.17	43007.34
547.34	42614.13
547.50	42909.04
547.67	42899.68
547.84	43159.48
548.00	43430.98
548.17	43468.43
548.34	43332.68
548.51	43920.15
548.67	43313.95
548.84	44009.09
549.01	43402.89
549.18	43526.94
549.34	43201.61
549.51	43217.99
549.68	43948.24
549.84	43653.33
550.01	43786.74
550.18	43662.69
550.34	44037.18
550.51	43653.33
550.68	43681.42
550.84	43332.68
551.01	43531.62
551.18	43992.71
551.34	43674.40
551.51	44030.16
551.68	43679.08
551.84	44088.67
552.01	43985.69
552.18	43716.53
552.34	43704.82
552.51	44222.08
552.68	43871.00
552.84	43913.13
553.01	44243.15
553.18	44041.86
553.34	44411.67
553.51	44378.90
553.67	44626.99
553.84	44519.33
554.01	44381.24
554.17	44821.26
554.34	44406.98
554.51	44257.19
554.67	44287.62
554.84	44109.74
555.00	44252.51
555.17	44009.09
555.33	44147.18
555.50	44648.06
555.67	44481.88
555.83	44552.10
556.00	44346.13
556.16	44825.94
556.33	44488.90
556.50	44587.21
556.66	44308.68
556.83	44531.03
556.99	44797.85
557.16	44334.43
557.32	44795.51
557.49	44781.47
557.65	44460.82
557.82	44802.53
557.98	44952.33
558.15	45170.00
558.32	44727.64
558.48	44533.37
558.65	44509.97
558.81	44849.35
558.98	44552.10
559.14	44896.16
559.31	44531.03
559.47	45083.40
559.64	44612.95
559.80	44751.04
559.97	45298.73
560.13	44748.70
560.30	44715.93
560.46	45162.98
560.63	44926.58
560.79	45031.91
560.96	45308.09
561.12	45050.63
561.29	45371.28
561.45	44889.13
561.61	44837.64
561.78	45404.05
561.94	45172.34
562.11	44816.58
562.27	45172.34
562.44	45158.30
562.60	45570.23
562.77	45340.86
562.93	45071.70
563.10	45502.35
563.26	45172.34
563.42	45469.59
563.59	45109.14
563.75	45549.17
563.92	45233.19
564.08	45375.97
564.24	45448.52
564.41	45151.27
564.57	45319.79
564.74	45464.91
564.90	45413.41
565.07	45762.15
565.23	45167.66
565.39	44804.88
565.56	45137.23
565.72	45125.53
565.88	45195.74
566.05	45148.93
566.21	44994.46
566.38	45436.82
566.54	45207.45
566.70	45907.27
566.87	46115.58
567.03	45563.21
567.19	46272.39
567.36	46017.27
567.52	45034.25
567.68	45991.53
567.85	45544.48
568.01	45127.87
568.17	45507.04
568.34	45776.20
568.50	45198.09
568.66	44966.37
568.83	45591.30
568.99	45270.64
569.15	45263.62
569.32	45153.62
569.48	45986.85
569.64	45415.76
569.81	45727.05
569.97	45720.02
570.13	45694.28
570.30	45158.30
570.46	44713.59
570.62	45193.40
570.78	45207.45
570.95	45315.11
571.11	45865.14
571.27	45584.27
571.43	46036.00
571.60	45652.15
571.76	45251.92
571.92	45904.93
572.09	45769.18
572.25	45895.56
572.41	45689.60
572.57	45518.74
572.74	46068.76
572.90	45350.22
573.06	45661.51
573.22	45755.13
573.38	45584.27
573.55	45780.88
573.71	46127.28
573.87	45989.19
574.03	45797.26
574.20	45717.68
574.36	45375.97
574.52	45397.03
574.68	45265.96
574.84	45610.02
575.01	45741.09
575.17	45626.40
575.33	45497.67
575.49	45626.40
575.65	45727.05
575.82	45677.90
575.98	45539.80
576.14	45703.64
576.30	45914.29
576.46	45956.42
576.62	45612.36
576.79	45993.87
576.95	45808.96
577.11	45956.42
577.27	45890.88
577.43	45427.46
577.59	45085.74
577.75	45724.71
577.92	45265.96
578.08	45642.79
578.24	45425.12
578.40	45567.89
578.56	45825.35
578.72	45595.98
578.88	45858.12
579.04	45801.94
579.21	45415.76
579.37	45949.40
579.53	45525.76
579.69	45418.10
579.85	45607.68
580.01	45797.26
580.17	45291.71
580.33	45713.00
580.49	45933.01
580.65	45986.85
580.82	45993.87
580.98	45705.98
581.14	45755.13
581.30	46335.59
581.46	45874.50
581.62	45783.22
581.78	45675.55
581.94	45813.65
582.10	46141.32
582.26	45872.16
582.42	45947.06
582.58	45804.28
582.74	45759.81
582.90	45811.31
583.06	46436.23
583.22	46038.34
583.38	45890.88
583.54	46178.77
583.70	45743.43
583.86	45715.34
584.02	45603.00
584.18	45886.20
584.34	45600.66
584.50	45867.48
584.66	46167.07
584.82	45743.43
584.98	45801.94
585.14	45595.98
585.30	45956.42
585.46	45668.53
585.62	45425.12
585.78	45895.56
585.94	45797.26
586.10	45605.34
586.26	45797.26
586.42	45963.44
586.58	45640.45
586.74	45890.88
586.90	46131.96
587.06	45698.96
587.22	46136.64
587.38	45766.84
587.54	45598.32
587.70	46295.80
587.86	45785.56
588.02	45581.93
588.18	45633.42
588.34	45502.35
588.49	45560.87
588.65	45310.43
588.81	45483.63
588.97	45457.88
589.13	45212.13
589.29	45560.87
589.45	45448.52
589.61	45223.83
589.77	45935.35
589.93	45930.67
590.08	46017.27
590.24	45890.88
590.40	45851.09
590.56	46089.83
590.72	46007.91
590.88	45640.45
591.04	46356.65
591.20	46167.07
591.35	46564.96
591.51	46564.96
591.67	45911.95
591.83	45614.70
591.99	45806.62
592.15	45954.08
592.31	45918.97
592.46	46169.41
592.62	45827.69
592.78	45975.14
592.94	46508.79
593.10	46181.11
593.26	46384.74
593.41	46279.41
593.57	45963.44
593.73	45869.82
593.89	46108.55
594.05	45937.69
594.20	45860.46
594.36	46087.49
594.52	46143.66
594.68	46078.13
594.84	45794.92
594.99	46059.40
595.15	46014.93
595.31	46213.88
595.47	46534.53
595.62	46564.96
595.78	45890.88
595.94	46157.70
596.10	46115.58
596.25	45766.84
596.41	45965.78
596.57	45881.52
596.73	46202.18
596.88	45937.69
597.04	45914.29
597.20	45514.06
597.36	46277.07
597.51	46248.99
597.67	45998.55
597.83	46234.94
597.99	46078.13
598.14	45954.08
598.30	45996.21
598.46	45867.48
598.61	46131.96
598.77	45710.66
598.93	45790.24
599.09	46321.54
599.24	46295.80
599.40	46059.40
599.56	46401.12
599.71	45986.85
599.87	46387.08
600.03	45820.67
600.18	45970.46
600.34	46028.98
600.50	45902.59
600.65	46073.45
600.81	46319.20
600.97	46534.53
601.12	46094.51
601.28	45904.93
601.44	45972.80
601.59	46382.40
601.75	45867.48
601.91	45799.60
602.06	45799.60
602.22	45944.72
602.37	45701.30
602.53	46234.94
602.69	45886.20
602.84	45532.78
603.00	46244.30
603.16	46050.04
603.31	46248.99
603.47	45628.74
603.62	45839.39
603.78	46199.83
603.94	46396.44
604.09	46368.35
604.25	45869.82
604.40	46309.84
604.56	46169.41
604.71	46134.30
604.87	45848.75
605.03	45710.66
605.18	45907.27
605.34	46106.21
605.49	45471.93
605.65	46068.76
605.80	45893.22
605.96	45717.68
606.12	45633.42
606.27	45904.93
606.43	45993.87
606.58	45921.31
606.74	45640.45
606.89	45350.22
607.05	45546.82
607.20	46284.09
607.36	45710.66
607.51	46433.89
607.67	45469.59
607.82	45691.94
607.98	45790.24
608.13	45682.58
608.29	45478.95
608.44	45242.56
608.60	45731.73
608.75	46103.87
608.91	45443.84
609.06	45181.70
609.22	45467.25
609.37	45535.12
609.53	45504.70
609.68	45656.83
609.84	45509.38
609.99	45535.12
610.15	45237.87
610.30	45312.77
610.46	45495.33
610.61	45516.40
610.76	45284.68
610.92	45207.45
611.07	45549.17
611.23	45553.85
611.38	45628.74
611.54	45188.72
611.69	45165.32
611.84	45113.83
612.00	45095.10
612.15	44954.67
612.31	45123.19
612.46	45067.02
612.62	45600.66
612.77	44790.83
612.92	45680.24
613.08	45041.27
613.23	44816.58
613.39	44624.65
613.54	44617.63
613.69	44739.34
613.85	44924.24
614.00	44912.54
614.15	44596.57
614.31	44453.79
614.46	44465.50
614.62	45116.17
614.77	44652.74
614.92	44832.96
615.08	44615.29
615.23	44800.19
615.38	44856.37
615.54	44554.44
615.69	44832.96
615.84	44364.85
616.00	44772.11
616.15	45057.65
616.30	44505.29
616.46	44744.02
616.61	44488.90
616.76	44898.50
616.92	44055.90
617.07	44339.11
617.22	44170.59
617.37	44378.90
617.53	44507.63
617.68	44411.67
617.83	44418.69
617.99	44596.57
618.14	44126.12
618.29	44179.95
618.45	44573.16
618.60	44170.59
618.75	43718.87
618.90	43868.66
619.06	43966.96
619.21	43931.86
619.36	44088.67
619.51	43938.88
619.67	43922.49
619.82	44133.14
619.97	43648.65
620.12	43777.38
620.28	43248.42
620.43	43952.92
620.58	44343.79
620.73	43999.73
620.89	43693.12
621.04	43952.92
621.19	44451.45
621.34	43634.61
621.49	43517.58
621.65	43917.81
621.80	44069.95
621.95	43648.65
622.10	43611.20
622.25	43426.30
622.41	43676.74
622.56	43770.36
622.71	43672.06
622.86	43440.34
623.01	43693.12
623.16	43693.12
623.32	43175.86
623.47	43196.93
623.62	43665.03
623.77	43545.67
623.92	43409.92
624.07	42869.25
624.23	43168.84
624.38	43533.96
624.53	43084.58
624.68	43548.01
624.83	43342.04
624.98	42983.94
625.13	42581.37
625.29	43026.07
625.44	42951.17
625.59	43065.86
625.74	42497.11
625.89	42483.06
626.04	42518.17
626.19	42660.94
626.34	42845.85
626.49	42801.38
626.65	43098.62
626.80	42593.07
626.95	42902.02
627.10	42593.07
627.25	42616.47
627.40	42466.68
627.55	42527.53
627.70	42073.47
627.85	42511.15
628.00	42396.46
628.15	42539.24
628.30	42230.29
628.45	42536.90
628.60	42679.67
628.76	42529.87
628.91	42115.60
629.06	42162.41
629.21	42169.43
629.36	42284.12
629.51	42298.16
629.66	42174.11
629.81	42033.68
629.96	42354.33
630.11	42703.07
630.26	42029.00
630.41	42017.30
630.56	42211.56
630.71	41979.85
630.86	42010.28
631.01	41794.95
631.16	41577.28
631.31	41808.99
631.46	41752.82
631.61	41486.00
631.76	41820.69
631.91	42085.17
632.06	41607.70
632.21	41738.77
632.36	41902.61
632.51	41645.15
632.66	41876.86
632.81	41497.70
632.96	41872.18
633.10	41502.38
633.25	41450.89
633.40	41418.12
633.55	41668.56
633.70	41839.42
633.85	41649.83
634.00	41394.71
634.15	41752.82
634.30	41352.58
634.45	41153.64
634.60	41326.84
634.75	41062.36
634.90	41340.88
635.05	41008.53
635.19	41006.19
635.34	41509.40
635.49	41237.90
635.64	40627.02
635.79	41085.76
635.94	40720.64
636.09	41078.74
636.24	40662.13
636.39	40828.30
636.53	41001.50
636.68	40879.80
636.83	40832.99
636.98	40924.27
637.13	40381.26
637.28	41706.01
637.43	41153.64
637.57	41141.94
637.72	40844.69
637.87	40966.40
638.02	40931.29
638.17	40531.06
638.32	40514.67
638.46	40631.70
638.61	40652.76
638.76	40044.23
638.91	40184.66
639.06	40818.94
639.20	40772.13
639.35	40439.78
639.50	40437.44
639.65	40126.14
639.80	40535.74
639.94	40556.80
640.09	40418.71
640.24	40404.67
640.39	40109.76
640.54	40233.81
640.68	40428.07
640.83	39969.33
640.98	39974.01
641.13	39988.05
641.27	40093.38
641.42	39756.34
641.57	40156.57
641.72	39789.11
641.86	39667.40
642.01	39756.34
642.16	39615.91
642.31	39798.47
642.45	39868.69
642.60	39386.54
642.75	39976.35
642.90	39934.22
643.04	39803.15
643.19	39913.16
643.34	39927.20
643.48	39381.85
643.63	39761.02
643.78	39267.17
643.93	39964.65
644.07	39042.48
644.22	39185.25
644.37	39306.96
644.51	39442.71
644.66	39587.82
644.81	39648.68
644.95	39330.36
645.10	39674.42
645.25	39491.86
645.39	39604.20
645.54	39126.74
645.69	39143.12
645.83	39124.40
645.98	39318.66
646.13	39145.46
646.27	39026.09
646.42	39072.90
646.57	38876.30
646.71	39185.25
646.86	39356.11
647.00	38979.28
647.15	39002.69
647.30	39150.14
647.44	39056.52
647.59	39012.05
647.74	38801.40
647.88	38864.60
648.03	38820.13
648.17	38848.21
648.32	39047.16
648.47	38639.90
648.61	38684.37
648.76	38787.36
648.90	38607.14
649.05	38878.64
649.20	39098.65
649.34	39047.16
649.49	38574.37
649.63	38515.86
649.78	38686.71
649.92	38667.99
650.07	38778.00
650.21	38199.88
650.36	38536.92
650.51	38567.35
650.65	38939.49
650.80	39047.16
650.94	39110.35
651.09	38321.59
651.23	37949.45
651.38	38450.32
651.52	38265.42
651.67	37684.97
651.81	38066.47
651.96	37776.25
652.10	38274.78
652.25	38375.42
652.39	37982.21
652.54	37869.87
652.68	38494.79
652.83	38309.89
652.97	38487.77
653.12	38026.68
653.26	37350.27
653.41	37581.98
653.55	38258.40
653.70	38000.94
653.84	37872.21
653.99	37820.72
654.13	37673.26
654.27	37867.53
654.42	37586.66
654.56	38232.65
654.71	37865.19
654.85	37696.67
655.00	38033.71
655.14	37205.16
655.29	37598.37
655.43	37715.39
655.57	36954.72
655.72	36788.54
655.86	37137.28
656.01	36711.30
656.15	36631.72
656.30	36804.92
656.44	37228.56
656.58	36950.04
656.73	37460.27
656.87	36973.44
657.01	36746.41
657.16	36954.72
657.30	36610.66
657.45	36964.08
657.59	37120.90
657.73	36687.90
657.88	37273.03
658.02	37165.37
658.16	36807.26
658.31	37015.57
658.45	36725.35
658.60	36697.26
658.74	36835.35
658.88	36818.97
659.03	36676.19
659.17	36622.36
659.31	36629.38
659.46	36233.83
659.60	36367.24
659.74	36430.44
659.89	36383.63
660.03	36294.69
660.17	36851.73
660.32	36554.49
660.46	36231.49
660.60	36119.15
660.74	36463.21
660.89	36500.65
661.03	35761.05
661.17	36198.73
661.32	35789.13
661.46	36032.55
661.60	35920.20
661.74	36079.36
661.89	35838.28
662.03	35569.12
662.17	35983.40
662.31	36002.12
662.46	35880.41
662.60	35683.81
662.74	36254.90
662.88	35552.74
663.03	35129.10
663.17	35388.90
663.31	35452.09
663.45	35576.14
663.60	35660.40
663.74	35367.84
663.88	35005.05
664.02	35002.71
664.17	35283.58
664.31	34721.85
664.45	35211.02
664.59	34930.16
664.73	35126.76
664.88	34822.49
665.02	34085.22
665.16	34595.46
665.30	34398.85
665.44	34529.92
665.59	34522.90
665.73	34635.25
665.87	34192.89
666.01	34188.21
666.15	34188.21
666.29	34120.33
666.44	34609.50
666.58	34117.99
666.72	34110.97
666.86	33982.24
667.00	34157.78
667.14	33841.81
667.28	33919.04
667.43	33993.94
667.57	33811.38
667.71	33514.13
667.85	34073.52
667.99	34003.30
668.13	34188.21
668.27	33579.67
668.41	33008.58
668.56	33579.67
668.70	33598.39
668.84	33085.81
668.98	32954.74
669.12	33305.82
669.26	33469.66
669.40	32617.71
669.54	32659.84
669.68	32917.29
669.82	33064.75
669.96	33015.60
670.10	33109.22
670.25	32933.68
670.39	32758.14
670.53	32966.45
670.67	32608.34
670.81	32687.92
670.95	32299.39
671.09	32589.62
671.23	32332.16
671.37	32371.95
671.51	32301.73
671.65	32105.13
671.79	31896.82
671.93	31367.86
672.07	32177.68
672.21	32041.93
672.35	32168.32
672.49	32002.14
672.63	31601.91
672.77	31564.46
672.91	31648.72
673.05	31608.93
673.19	31660.43
673.33	31637.02
673.47	31007.42
673.61	31580.85
673.75	31033.16
673.89	31276.58
674.03	31222.75
674.17	30675.06
674.31	31255.51
674.45	31000.40
674.59	31316.37
674.73	30960.61
674.87	30742.94
675.01	30871.67
675.15	30698.47
675.29	30766.34
675.43	30761.66
675.56	30771.02
675.70	30457.39
675.84	30579.10
675.98	29827.79
676.12	30293.55
676.26	30419.94
676.40	30087.59
676.54	29991.62
676.68	29722.46
676.82	29521.18
676.96	29951.84
677.10	30005.67
677.23	29743.53
677.37	29612.46
677.51	29415.85
677.65	28959.45
677.79	28788.59
677.93	29378.40
678.07	29024.98
678.21	28315.80
678.34	28526.45
678.48	28301.76
678.62	28327.50
678.76	28301.76
678.90	28023.23
679.04	28322.82
679.18	28261.97
679.31	27957.70
679.45	27365.54
679.59	27807.90
679.73	27697.90
679.87	27545.76
680.00	27723.65
680.14	27707.26
680.28	27608.96
680.42	27056.59
680.56	27405.33
680.70	27161.92
680.83	27274.26
680.97	26888.07
681.11	27250.86
681.25	26981.70
681.39	27253.20
681.52	26712.53
681.66	26651.68
681.80	26698.49
681.94	26368.48
682.07	26387.20
682.21	26122.72
682.35	26242.09
682.49	26080.59
682.62	26068.89
682.76	25888.67
682.90	26024.42
683.04	25893.35
683.17	25965.90
683.31	25509.50
683.45	25570.35
683.59	25462.69
683.72	25364.39
683.86	25406.52
684.00	25029.69
684.13	24898.62
684.27	24821.38
684.41	24737.12
684.55	25060.12
684.68	24772.23
684.82	24896.28
684.96	24739.46
685.09	24725.42
685.23	24381.36
685.37	24643.50
685.50	24416.47
685.64	24584.99
685.78	24056.03
685.91	24311.14
686.05	23946.02
686.19	23599.62
686.32	23550.47
686.46	23358.55
686.60	22946.61
686.73	22867.03
686.87	23131.51
687.01	23115.13
687.14	22998.10
687.28	22693.83
687.42	23005.13
687.55	22728.94
687.69	22775.75
687.82	22993.42
687.96	22902.14
688.10	22349.78
688.23	22394.25
688.37	22544.04
688.50	22614.26
688.64	22202.32
688.78	21996.35
688.91	21837.20
689.05	22031.46
689.18	21745.92
689.32	21570.38
689.46	21886.35
689.59	22057.21
689.73	21954.22
689.86	21390.16
690.00	21666.34
690.13	21474.42
690.27	20910.35
690.41	21022.69
690.54	21139.72
690.68	21408.88
690.81	21116.31
690.95	21090.57
691.08	20929.07
691.22	21102.27
691.35	21034.39
691.49	20751.19
691.62	20585.01
691.76	20725.44
691.89	20622.46
692.03	20374.36
692.16	20334.57
692.30	20320.53
692.43	20046.69
692.57	19805.61
692.70	19903.92
692.84	20079.46
692.97	19580.92
693.11	19625.39
693.24	19466.24
693.38	19580.92
693.51	19632.41
693.65	19683.91
693.78	19499.00
693.92	19293.04
694.05	19447.51
694.19	19246.23
694.32	19161.97
694.45	19197.07
694.59	19311.76
694.72	18602.58
694.86	18757.05
694.99	18504.28
695.13	18448.10
695.26	18459.81
695.39	18324.05
695.53	18464.49
695.66	18513.64
695.80	18295.97
695.93	18277.24
696.07	17860.63
696.20	18068.94
696.33	18078.30
696.47	17963.61
696.60	17666.36
696.73	17635.94
696.87	17710.83
697.00	17404.22
697.14	17589.13
697.27	17106.98
697.40	17364.43
697.54	17362.09
697.67	17018.04
697.80	17212.30
697.94	17172.51
698.07	17022.72
698.21	16989.95
698.34	17018.04
698.47	16828.45
698.61	16535.88
698.74	17032.08
698.87	16664.61
699.01	16395.45
699.14	16451.63
699.27	16301.83
699.40	16016.29
699.54	16095.86
699.67	15901.60
699.80	16060.76
699.94	16020.97
700.07	16006.92
700.20	16070.12
700.34	15978.84
700.47	15932.03
700.60	15791.59
700.73	15714.36
700.87	15578.61
701.00	15634.78
701.13	15419.45
701.26	15229.87
701.40	15087.09
701.53	14946.66
701.66	15311.78
701.79	14649.41
701.93	14970.07
702.06	14860.06
702.19	14843.68
702.32	14841.34
702.46	14897.51
702.59	14635.37
702.72	14642.39
702.85	14813.25
702.99	14644.73
703.12	14115.77
703.25	14431.74
703.38	14567.49
703.51	14370.89
703.65	14246.84
703.78	13879.38
703.91	13898.10
704.04	13802.14
704.17	13839.59
704.31	13642.98
704.44	13710.86
704.57	13797.46
704.70	13752.99
704.83	13327.01
704.96	13638.30
705.10	13614.90
705.23	13193.60
>>>>>End Processed Spectral Data<<<<<
