SpectraSuite Data File
++++++++++++++++++++++++++++++++++++
Date: Fri Oct 25 10:47:01 EDT 2013
User: price-jones
Dark Spectrum Present: No
Reference Spectrum Present: No
Number of Sampled Component Spectra: 1
Spectrometers: USB2+H05261
Integration Time (usec): 100000 (USB2+H05261)
Spectra Averaged: 1 (USB2+H05261)
Boxcar Smoothing: 0 (USB2+H05261)
Correct for Electrical Dark: No (USB2+H05261)
Strobe/Lamp Enabled: No (USB2+H05261)
Correct for Detector Non-linearity: No (USB2+H05261)
Correct for Stray Light: No (USB2+H05261)
Number of Pixels in Processed Spectrum: 2048
>>>>>Begin Processed Spectral Data<<<<<
365.73	98.30
365.92	98.30
366.12	98.30
366.32	74.90
366.52	0.00
366.72	32.77
366.91	72.56
367.11	49.15
367.31	63.19
367.51	28.09
367.70	0.00
367.90	67.88
368.10	21.06
368.30	39.79
368.49	65.54
368.69	28.09
368.89	0.00
369.09	88.94
369.28	140.43
369.48	0.00
369.68	70.22
369.87	60.85
370.07	74.90
370.27	166.18
370.47	194.26
370.66	374.49
370.86	475.13
371.06	402.57
371.25	418.96
371.45	451.72
371.65	463.43
371.84	477.47
372.04	468.11
372.24	477.47
372.44	578.11
372.63	578.11
372.83	526.62
373.03	505.56
373.22	580.45
373.42	461.09
373.62	557.05
373.81	461.09
374.01	526.62
374.21	561.73
374.40	571.09
374.60	564.07
374.79	526.62
374.99	531.30
375.19	568.75
375.38	517.26
375.58	613.22
375.78	535.98
375.97	594.50
376.17	685.78
376.37	507.90
376.56	627.26
376.76	554.71
376.95	564.07
377.15	589.82
377.35	589.82
377.54	669.39
377.74	575.77
377.93	627.26
378.13	662.37
378.33	664.71
378.52	613.22
378.72	650.67
378.91	683.44
379.11	706.84
379.31	557.05
379.50	643.65
379.70	650.67
379.89	587.47
380.09	725.57
380.28	676.41
380.48	706.84
380.68	699.82
380.87	641.31
381.07	706.84
381.26	657.69
381.46	631.94
381.65	711.52
381.85	695.14
382.04	702.16
382.24	643.65
382.43	671.73
382.63	636.63
382.83	688.12
383.02	676.41
383.22	678.76
383.41	643.65
383.61	645.99
383.80	781.74
384.00	763.01
384.19	690.46
384.39	772.38
384.58	772.38
384.78	819.19
384.97	800.46
385.17	812.17
385.36	772.38
385.56	760.67
385.75	753.65
385.95	760.67
386.14	828.55
386.34	753.65
386.53	863.66
386.72	828.55
386.92	826.21
387.11	884.72
387.31	912.81
387.50	847.27
387.70	744.29
387.89	821.53
388.09	866.00
388.28	821.53
388.48	938.55
388.67	828.55
388.86	812.17
389.06	961.96
389.25	943.24
389.45	926.85
389.64	884.72
389.84	908.13
390.03	1027.50
390.22	954.94
390.42	856.64
390.61	954.94
390.81	940.90
391.00	1053.24
391.19	1006.43
391.39	1006.43
391.58	1036.86
391.78	1011.11
391.97	950.26
392.16	1032.18
392.36	1062.60
392.55	983.02
392.75	1015.79
392.94	966.64
393.13	1015.79
393.33	947.92
393.52	1060.26
393.71	1114.10
393.91	1109.41
394.10	1039.20
394.29	1064.94
394.49	1093.03
394.68	1118.78
394.88	1107.07
395.07	1151.54
395.26	1198.35
395.46	1111.75
395.65	1210.06
395.84	1263.89
396.04	1252.19
396.23	1163.25
396.42	1144.52
396.62	1104.73
396.81	1210.06
397.00	1174.95
397.19	1256.87
397.39	1301.34
397.58	1268.57
397.77	1287.29
397.97	1327.08
398.16	1294.32
398.35	1387.94
398.55	1371.55
398.74	1338.79
398.93	1434.75
399.12	1418.36
399.32	1380.92
399.51	1465.18
399.70	1476.88
399.90	1511.99
400.09	1509.65
400.28	1535.39
400.47	1530.71
400.67	1549.43
400.86	1533.05
401.05	1483.90
401.24	1582.20
401.44	1621.99
401.63	1633.69
401.82	1561.14
402.01	1502.62
402.21	1600.93
402.40	1619.65
402.59	1547.09
402.78	1558.80
402.97	1661.78
403.17	1570.50
403.36	1675.82
403.55	1706.25
403.74	1781.15
403.93	1771.79
404.13	1664.12
404.32	1661.78
404.51	1760.08
404.70	1778.81
404.89	1724.97
405.09	1830.30
405.28	1703.91
405.47	1748.38
405.66	1769.44
405.85	1710.93
406.05	1860.73
406.24	1895.83
406.43	1874.77
406.62	1902.86
406.81	2003.50
407.00	1813.92
407.20	1968.39
407.39	2008.18
407.58	2139.25
407.77	2136.91
407.96	2104.14
408.15	2057.33
408.34	2033.93
408.54	2078.40
408.73	2150.95
408.92	2094.78
409.11	2251.60
409.30	2097.12
409.49	2246.91
409.68	2094.78
409.87	2071.37
410.07	2099.46
410.26	2275.00
410.45	2207.13
410.64	2319.47
410.83	2335.85
411.02	2408.41
411.21	2352.24
411.40	2408.41
411.59	2300.75
411.78	2410.75
411.98	2380.32
412.17	2415.43
412.36	2445.86
412.55	2490.33
412.74	2548.84
412.93	2581.61
413.12	2436.50
413.31	2682.25
413.50	2626.08
413.69	2602.68
413.88	2782.90
414.07	2628.42
414.26	2654.17
414.45	2679.91
414.64	2682.25
414.83	2677.57
415.02	2942.05
415.22	2855.45
415.41	2895.24
415.60	2780.56
415.79	3054.40
415.98	3009.93
416.17	3094.19
416.36	3045.04
416.55	3012.27
416.74	3108.23
416.93	2970.14
417.12	2995.89
417.31	3082.49
417.50	3059.08
417.69	3152.70
417.88	3138.66
418.07	3155.04
418.26	3262.71
418.45	3267.39
418.64	3344.63
418.83	3353.99
419.02	3269.73
419.21	3379.73
419.39	3332.92
419.58	3293.13
419.77	3393.78
419.96	3386.76
420.15	3480.38
420.34	3471.01
420.53	3417.18
420.72	3651.24
420.91	3499.10
421.10	3602.08
421.29	3616.13
421.48	3625.49
421.67	3686.34
421.86	3566.98
422.05	3595.06
422.24	3576.34
422.43	3548.25
422.61	3672.30
422.80	3705.07
422.99	3719.11
423.18	3850.18
423.37	3702.73
423.56	3742.52
423.75	3714.43
423.94	3571.66
424.13	3487.40
424.32	3597.40
424.50	3674.64
424.69	3688.68
424.88	3808.05
425.07	3648.90
425.26	3726.13
425.45	3728.47
425.64	3747.20
425.83	3716.77
426.01	3782.31
426.20	3733.15
426.39	3742.52
426.58	3784.65
426.77	3611.45
426.96	3655.92
427.15	3691.02
427.33	3758.90
427.52	3838.48
427.71	3789.33
427.90	4030.40
428.09	3868.91
428.28	3960.19
428.46	4002.32
428.65	3941.46
428.84	3962.53
429.03	4161.47
429.22	3880.61
429.40	3953.16
429.59	3946.14
429.78	3801.03
429.97	3801.03
430.16	3911.04
430.34	3831.46
430.53	3918.06
430.72	4065.51
430.91	3904.01
431.10	3997.64
431.28	4156.79
431.47	4271.48
431.66	4315.95
431.85	4236.37
432.03	4294.88
432.22	4414.25
432.41	4217.65
432.60	4294.88
432.79	4479.79
432.97	4519.57
433.16	4400.21
433.35	4283.18
433.54	4264.46
433.72	4311.27
433.91	4482.13
434.10	4533.62
434.28	4573.41
434.47	4561.70
434.66	4535.96
434.85	4526.60
435.03	4777.03
435.22	4542.98
435.41	4737.24
435.59	4814.48
435.78	4812.14
435.97	4781.71
436.16	4814.48
436.34	4767.67
436.53	4748.95
436.72	4812.14
436.90	4739.58
437.09	4933.85
437.28	4685.75
437.46	4910.44
437.65	4826.18
437.84	4837.89
438.02	4807.46
438.21	4723.20
438.40	4837.89
438.58	5139.82
438.77	5046.20
438.96	5020.45
439.14	5235.78
439.33	5144.50
439.52	5301.31
439.70	5221.74
439.89	5315.36
440.08	5467.49
440.26	5481.53
440.45	5313.02
440.63	5399.62
440.82	5563.45
441.01	5418.34
441.19	5542.39
441.38	5516.64
441.57	5692.18
441.75	5607.92
441.94	5827.93
442.12	5806.87
442.31	5851.34
442.50	5968.37
442.68	5914.53
442.87	5996.45
443.05	5893.47
443.24	5942.62
443.43	5919.21
443.61	6125.18
443.80	6239.87
443.98	5905.17
444.17	5685.16
444.35	6078.37
444.54	6141.57
444.73	6331.15
444.91	6122.84
445.10	5902.83
445.28	6019.86
445.47	6022.20
445.65	5916.87
445.84	6073.69
446.02	6190.72
446.21	6122.84
446.39	5966.03
446.58	6104.12
446.77	6237.53
446.95	5977.73
447.14	6235.19
447.32	6312.42
447.51	6094.76
447.69	6272.64
447.88	6274.98
448.06	6282.00
448.25	6345.19
448.43	6464.56
448.62	6253.91
448.80	6122.84
448.99	6211.78
449.17	6469.24
449.36	6373.28
449.54	6399.02
449.73	6581.59
449.91	6717.34
450.10	6621.38
450.28	6895.22
450.46	6839.05
450.65	6651.80
450.83	6754.79
451.02	6801.60
451.20	6759.47
451.39	6761.81
451.57	6693.93
451.76	6726.70
451.94	6670.53
452.13	6738.40
452.31	6712.66
452.49	6443.49
452.68	6822.66
452.86	6712.66
453.05	6939.69
453.23	6925.65
453.42	6846.07
453.60	7042.67
453.78	6956.07
453.97	6871.81
454.15	6916.28
454.34	6869.47
454.52	7101.19
454.70	6846.07
454.89	7037.99
455.07	7241.62
455.26	7169.06
455.44	7262.68
455.62	7108.21
455.81	7103.53
455.99	7190.13
456.17	7351.62
456.36	7393.75
456.54	7426.52
456.73	7459.29
456.91	7548.23
457.09	7623.12
457.28	7674.62
457.46	7581.00
457.64	7522.48
457.83	7768.24
458.01	7485.03
458.19	7634.83
458.38	7604.40
458.56	7815.05
458.74	7693.34
458.93	7730.79
459.11	7756.54
459.29	7824.41
459.48	7946.12
459.66	7843.14
459.84	7723.77
460.03	7934.42
460.21	8070.17
460.39	8173.15
460.57	8021.02
460.76	8006.97
460.94	7939.10
461.12	8044.42
461.31	8308.90
461.49	7962.50
461.67	8236.35
461.85	8290.18
462.04	8149.75
462.22	8943.19
462.40	8234.00
462.59	8212.94
462.77	8217.62
462.95	8409.54
463.13	8376.78
463.32	8430.61
463.50	8472.74
463.68	8482.10
463.86	8402.52
464.05	8362.73
464.23	8496.14
464.41	8430.61
464.59	8271.45
464.78	8683.39
464.96	8500.83
465.14	8554.66
465.32	8613.17
465.50	8760.63
465.69	8821.48
465.87	8692.75
466.05	8711.47
466.23	8643.60
466.41	8662.32
466.60	8814.46
466.78	8603.81
466.96	8528.91
467.14	8755.94
467.32	8641.26
467.51	8910.42
467.69	8491.46
467.87	8690.41
468.05	9081.28
468.23	9011.06
468.41	8968.93
468.60	9006.38
468.78	8975.95
468.96	9064.89
469.14	8854.25
469.32	9172.56
469.50	8894.04
469.69	9137.45
469.87	9195.96
470.05	9153.84
470.23	9401.93
470.41	9252.14
470.59	9507.26
470.77	9270.86
470.95	9448.74
471.14	9509.60
471.32	9554.07
471.50	9500.23
471.68	9673.43
471.86	9715.56
472.04	9951.96
472.22	9837.27
472.40	9645.35
472.58	9830.25
472.77	9844.29
472.95	9916.85
473.13	10080.69
473.31	9834.93
473.49	9802.16
473.67	10083.03
473.85	10038.56
474.03	10291.34
474.21	10384.96
474.39	10494.96
474.57	10162.61
474.75	10431.77
474.93	10689.23
475.12	10303.04
475.30	10588.58
475.48	10520.71
475.66	10572.20
475.84	10740.72
476.02	10918.60
476.20	10839.02
476.38	10944.34
476.56	11192.44
476.74	10904.56
476.92	11243.93
477.10	11150.31
477.28	11269.68
477.46	11463.94
477.64	11580.97
477.82	11800.98
478.00	11665.23
478.18	11765.87
478.36	11852.47
478.54	12180.15
478.72	11854.81
478.90	12290.15
479.08	12292.49
479.26	12238.66
479.44	12149.72
479.62	12416.54
479.80	12533.57
479.98	12585.06
480.16	12912.74
480.34	12898.69
480.52	12748.90
480.70	12936.14
480.88	12641.23
481.06	12982.95
481.24	13179.56
481.41	13369.14
481.59	13624.26
481.77	13607.87
481.95	13619.58
482.13	13776.39
482.31	13722.56
482.49	13792.78
482.67	14190.67
482.85	14078.32
483.03	14354.51
483.21	14553.45
483.39	14553.45
483.57	14560.47
483.74	14572.18
483.92	14651.75
484.10	14544.09
484.28	15159.65
484.46	15267.31
484.64	15456.90
484.82	15248.59
485.00	15466.26
485.18	15304.76
485.35	15815.00
485.53	15403.07
485.71	15405.41
485.89	15892.24
486.07	15772.87
486.25	15800.96
486.43	15929.69
486.61	16130.97
486.78	16393.11
486.96	16769.94
487.14	16776.96
487.32	17092.93
487.50	17006.33
487.68	17116.34
487.85	17153.79
488.03	17542.32
488.21	17598.49
488.39	17317.62
488.57	17781.05
488.75	17855.95
488.92	18153.20
489.10	18558.11
489.28	18192.98
489.46	18167.24
489.64	18384.91
489.81	19080.05
489.99	19124.52
490.17	19243.88
490.35	19372.61
490.53	19173.67
490.70	19374.95
490.88	19435.81
491.06	19812.63
491.24	19356.23
491.41	19953.07
491.59	19735.40
491.77	19859.45
491.95	19999.88
492.13	20325.21
492.30	20327.55
492.48	20467.98
492.66	20587.35
492.84	20699.70
493.01	21296.53
493.19	21219.30
493.37	21345.69
493.54	21310.58
493.72	21179.51
493.90	21553.99
494.08	21982.31
494.25	21935.50
494.43	21895.71
494.61	22532.34
494.79	22162.53
494.96	21940.18
495.14	21942.52
495.32	22518.29
495.49	22808.52
495.67	22604.89
495.85	22892.78
496.02	23269.61
496.20	23211.09
496.38	23033.21
496.55	23314.08
496.73	23833.68
496.91	23793.89
497.09	23608.98
497.26	24285.40
497.44	23639.41
497.62	23833.68
497.79	24051.34
497.97	24180.07
498.14	24254.97
498.32	24318.17
498.50	24552.22
498.67	24627.12
498.85	24622.44
499.03	24833.08
499.20	24737.12
499.38	25017.99
499.56	25415.88
499.73	25207.57
499.91	25160.76
500.08	25516.52
500.26	25249.70
500.44	25905.05
500.61	25631.21
500.79	25472.05
500.97	25802.07
501.14	26146.12
501.32	26029.10
501.49	25944.84
501.67	26228.04
501.84	26338.05
502.02	26375.50
502.20	26579.12
502.37	26349.75
502.55	26373.16
502.72	26375.50
502.90	26450.39
503.07	26934.88
503.25	27075.32
503.43	26529.97
503.60	27042.55
503.78	27239.15
503.95	27021.48
504.13	27391.29
504.30	27529.38
504.48	27229.79
504.65	27840.67
504.83	27826.63
505.01	27749.39
505.18	27550.45
505.36	28212.82
505.53	27976.42
505.71	28135.58
505.88	28540.49
506.06	28137.92
506.23	28456.23
506.41	28364.95
506.58	28697.31
506.76	28325.16
506.93	28926.68
507.11	28737.10
507.28	28776.89
507.46	28891.57
507.63	28577.94
507.81	29296.49
507.98	28554.54
508.16	28938.38
508.33	29261.38
508.50	29600.76
508.68	29448.62
508.85	29841.83
509.03	29476.71
509.20	29898.00
509.38	30125.04
509.55	29912.05
509.73	30162.48
509.90	30045.46
510.08	30038.44
510.25	30026.73
510.42	30422.28
510.60	30356.75
510.77	30888.05
510.95	30595.48
511.12	30845.92
511.30	31154.87
511.47	30705.49
511.64	30654.00
511.82	30848.26
511.99	30691.44
512.17	30972.31
512.34	30979.33
512.51	31042.53
512.69	31307.01
512.86	31604.25
513.04	31438.08
513.21	31449.78
513.38	31463.82
513.56	31608.93
513.73	31531.70
513.90	31922.57
514.08	31592.55
514.25	32210.45
514.43	31948.31
514.60	32130.87
514.77	31798.52
514.95	32070.02
515.12	32144.92
515.29	32477.27
515.47	32493.66
515.64	32606.00
515.81	32400.04
515.99	32615.37
516.16	32226.84
516.33	32781.54
516.51	32666.86
516.68	32266.63
516.85	32346.20
517.03	32369.61
517.20	33144.33
517.37	32959.42
517.54	33242.63
517.72	33240.29
517.89	33006.23
518.06	32989.85
518.24	32856.44
518.41	32978.15
518.58	33088.15
518.75	33446.26
518.93	33605.41
519.10	33619.46
519.27	33617.11
519.45	33383.06
519.62	34106.29
519.79	33968.19
519.96	34279.49
520.14	34354.38
520.31	33816.06
520.48	34513.54
520.65	34246.72
520.83	34705.46
521.00	34675.04
521.17	34352.04
521.34	34876.32
521.52	34506.52
521.69	34792.06
521.86	35047.18
522.03	35283.58
522.20	35161.87
522.38	35096.33
522.55	35084.63
522.72	34969.94
522.89	35669.76
523.07	35351.45
523.24	35363.15
523.41	35271.87
523.58	35424.01
523.75	35538.69
523.92	35805.52
524.10	36023.19
524.27	36020.84
524.44	36102.76
524.61	36392.99
524.78	36376.61
524.96	36292.35
525.13	36456.18
525.30	36645.77
525.47	36840.03
525.64	36409.37
525.81	36491.29
525.98	36376.61
526.16	36222.13
526.33	36154.26
526.50	36395.33
526.67	36308.73
526.84	36449.16
527.01	36219.79
527.18	36657.47
527.36	36879.82
527.53	37097.49
527.70	37663.90
527.87	37179.41
528.04	37046.00
528.21	37186.43
528.38	37418.14
528.55	37401.76
528.72	37165.37
528.89	37771.57
529.07	37741.14
529.24	37336.23
529.41	37628.79
529.58	37570.28
529.75	37076.43
529.92	38108.60
530.09	37914.34
530.26	37970.51
530.43	37839.44
530.60	37322.18
530.77	37624.11
530.94	38335.63
531.11	37787.95
531.28	38319.25
531.46	38300.53
531.63	38572.03
531.80	38160.09
531.97	38284.14
532.14	38061.79
532.31	37670.92
532.48	38586.07
532.65	38345.00
532.82	38450.32
532.99	38560.33
533.16	38845.87
533.33	38389.47
533.50	39096.31
533.67	38820.13
533.84	38450.32
534.01	38583.73
534.18	38927.79
534.35	39309.30
534.52	38873.96
534.69	39295.25
534.86	38630.54
535.03	38990.98
535.20	39232.06
535.37	39782.09
535.54	39538.67
535.71	39419.30
535.88	39264.83
536.05	39447.39
536.22	39480.16
536.38	39627.61
536.55	39367.81
536.72	39852.30
536.89	39381.85
537.06	39533.99
537.23	39660.38
537.40	39555.05
537.57	39765.70
537.74	39714.21
537.91	39894.43
538.08	40051.25
538.25	39924.86
538.42	40517.01
538.59	40226.79
538.75	39660.38
538.92	39840.60
539.09	40287.64
539.26	39716.55
539.43	40261.90
539.60	40416.37
539.77	40210.40
539.94	40105.08
540.11	40065.29
540.28	40474.88
540.44	40364.88
540.61	40168.27
540.78	40301.68
540.95	40472.54
541.12	40037.20
541.29	40552.12
541.46	40594.25
541.62	40367.22
541.79	41310.46
541.96	40116.78
542.13	40814.26
542.30	40755.75
542.47	41085.76
542.63	40875.12
542.80	40432.75
542.97	41097.47
543.14	41558.55
543.31	41523.44
543.48	41612.38
543.64	41904.95
543.81	41886.23
543.98	41694.30
544.15	41825.37
544.32	41593.66
544.48	41666.22
544.65	41848.78
544.82	41691.96
544.99	41301.09
545.16	42036.02
545.32	41471.95
545.49	42096.88
545.66	42054.75
545.83	42223.26
546.00	42382.42
546.16	41996.23
546.33	42007.94
546.50	41900.27
546.67	42153.05
546.83	41703.67
547.00	42029.00
547.17	42490.09
547.34	42232.63
547.50	42239.65
547.67	42232.63
547.84	42501.79
548.00	42366.04
548.17	42754.57
548.34	42731.16
548.51	42969.90
548.67	42813.08
548.84	42735.84
549.01	42609.45
549.18	42618.81
549.34	42761.59
549.51	43138.41
549.68	42883.30
549.84	42885.64
550.01	42841.17
550.18	42841.17
550.34	42752.23
550.51	43056.50
550.68	42990.96
550.84	42944.15
551.01	43082.24
551.18	42712.44
551.34	42873.93
551.51	43016.71
551.68	43201.61
551.84	43271.82
552.01	43115.01
552.18	43133.73
552.34	42974.58
552.51	43548.01
552.68	43538.65
552.84	43643.97
553.01	43510.56
553.18	43215.65
553.34	43435.66
553.51	43129.05
553.67	43241.40
553.84	43927.17
554.01	43732.91
554.17	43938.88
554.34	43807.81
554.51	43435.66
554.67	43473.11
554.84	43531.62
555.00	43494.18
555.17	43667.37
555.33	43849.94
555.50	43985.69
555.67	43643.97
555.83	43580.78
556.00	43746.95
556.16	43990.37
556.33	44091.01
556.50	43482.47
556.66	43917.81
556.83	44034.84
556.99	44355.49
557.16	44313.36
557.32	43718.87
557.49	43770.36
557.65	44016.11
557.82	43735.25
557.98	43735.25
558.15	43936.54
558.32	44135.48
558.48	44123.78
558.65	44378.90
558.81	44329.75
558.98	44348.47
559.14	44460.82
559.31	44055.90
559.47	44350.81
559.64	44509.97
559.80	44465.50
559.97	44304.00
560.13	44079.31
560.30	44151.87
560.46	44282.94
560.63	44325.07
560.79	44598.91
560.96	44786.15
561.12	44259.53
561.29	45001.48
561.45	45017.86
561.61	44477.20
561.78	44133.14
561.94	44280.60
562.11	44409.32
562.27	44444.43
562.44	44713.59
562.60	44992.12
562.77	44811.90
562.93	44732.32
563.10	44949.99
563.26	44362.51
563.42	44540.39
563.59	44671.46
563.75	44683.17
563.92	44776.79
564.08	44687.85
564.24	44842.32
564.41	44839.98
564.57	44954.67
564.74	45043.61
564.90	44481.88
565.07	44802.53
565.23	45132.55
565.39	44701.89
565.56	44821.26
565.72	44804.88
565.88	44697.21
566.05	45146.59
566.21	45088.08
566.38	45092.76
566.54	44650.40
566.70	45160.64
566.87	45670.87
567.03	45301.07
567.19	45453.20
567.36	45027.23
567.52	44666.78
567.68	45130.21
567.85	45186.38
568.01	45038.93
568.17	44687.85
568.34	45067.02
568.50	44935.95
568.66	44891.48
568.83	45556.19
568.99	44509.97
569.15	45261.28
569.32	45050.63
569.48	44645.72
569.64	45390.01
569.81	45364.26
569.97	45043.61
570.13	44896.16
570.30	45013.18
570.46	44903.18
570.62	45017.86
570.78	44561.46
570.95	44519.33
571.11	45614.70
571.27	44940.63
571.43	45174.68
571.60	44755.72
571.76	45123.19
571.92	44800.19
572.09	44896.16
572.25	45195.74
572.41	45202.77
572.57	45521.08
572.74	45778.54
572.90	45464.91
573.06	45364.26
573.22	45312.77
573.38	45457.88
573.55	44999.14
573.71	45275.32
573.87	45067.02
574.03	44641.04
574.20	45298.73
574.36	45230.85
574.52	45207.45
574.68	45478.95
574.84	44882.11
575.01	45443.84
575.17	45366.60
575.33	45378.31
575.49	44942.97
575.65	45565.55
575.82	45598.32
575.98	45457.88
576.14	45345.54
576.30	45593.64
576.46	45488.31
576.62	45563.21
576.79	45378.31
576.95	45298.73
577.11	45139.57
577.27	45357.24
577.43	45305.75
577.59	45677.90
577.75	45387.67
577.92	45155.96
578.08	45509.38
578.24	45303.41
578.40	45397.03
578.56	45319.79
578.72	45378.31
578.88	45731.73
579.04	45460.23
579.21	45219.15
579.37	45045.95
579.53	45160.64
579.69	45434.48
579.85	45497.67
580.01	45354.90
580.17	45691.94
580.33	45673.21
580.49	45343.20
580.65	45570.23
580.82	45736.41
580.98	45404.05
581.14	44996.80
581.30	45581.93
581.46	45233.19
581.62	45965.78
581.78	45425.12
581.94	45900.25
582.10	45675.55
582.26	45581.93
582.42	45181.70
582.58	45193.40
582.74	45275.32
582.90	45628.74
583.06	45792.58
583.22	45584.27
583.38	46043.02
583.54	45387.67
583.70	45675.55
583.86	45364.26
584.02	45017.86
584.18	45544.48
584.34	45902.59
584.50	45619.38
584.66	45397.03
584.82	45240.21
584.98	45944.72
585.14	45773.86
585.30	45230.85
585.46	45268.30
585.62	45219.15
585.78	45364.26
585.94	44816.58
586.10	45055.31
586.26	45153.62
586.42	45542.14
586.58	45572.57
586.74	45249.58
586.90	45614.70
587.06	45022.54
587.22	45551.51
587.38	45280.00
587.54	45694.28
587.70	45738.75
587.86	45485.97
588.02	45406.39
588.18	45757.47
588.34	45523.42
588.49	45160.64
588.65	45043.61
588.81	45165.32
588.97	45195.74
589.13	44931.26
589.29	45076.38
589.45	45771.52
589.61	45443.84
589.77	45963.44
589.93	45738.75
590.08	45724.71
590.24	45881.52
590.40	45771.52
590.56	45734.07
590.72	45797.26
590.88	45638.11
591.04	45942.38
591.20	46387.08
591.35	45603.00
591.51	45937.69
591.67	45420.44
591.83	45958.76
591.99	45937.69
592.15	45429.80
592.31	45792.58
592.46	45595.98
592.62	45834.71
592.78	45710.66
592.94	46003.23
593.10	45425.12
593.26	45865.14
593.41	45930.67
593.57	45909.61
593.73	45450.86
593.89	45792.58
594.05	45762.15
594.20	45315.11
594.36	45862.80
594.52	45759.81
594.68	45771.52
594.84	45820.67
594.99	45975.14
595.15	45691.94
595.31	46197.49
595.47	46003.23
595.62	45834.71
595.78	45654.49
595.94	45797.26
596.10	46028.98
596.25	45834.71
596.41	45935.35
596.57	45617.04
596.73	46277.07
596.88	45680.24
597.04	46021.95
597.20	46033.66
597.36	45680.24
597.51	46520.49
597.67	45855.78
597.83	45776.20
597.99	46176.43
598.14	45694.28
598.30	45652.15
598.46	45687.26
598.61	45900.25
598.77	45284.68
598.93	46082.81
599.09	45832.37
599.24	46307.50
599.40	45949.40
599.56	46068.76
599.71	46040.68
599.87	46263.03
600.03	46274.73
600.18	45914.29
600.34	45642.79
600.50	45996.21
600.65	45815.99
600.81	46171.75
600.97	46167.07
601.12	46667.94
601.28	46094.51
601.44	46036.00
601.59	45986.85
601.75	45792.58
601.91	45645.13
602.06	45698.96
602.22	46241.96
602.37	45951.74
602.53	45851.09
602.69	45951.74
602.84	46129.62
603.00	46087.49
603.16	45801.94
603.31	45546.82
603.47	46358.99
603.62	45373.63
603.78	45879.18
603.94	45673.21
604.09	45464.91
604.25	45961.10
604.40	46085.15
604.56	45687.26
604.71	46232.60
604.87	45645.13
605.03	45776.20
605.18	45975.14
605.34	45851.09
605.49	45806.62
605.65	46141.32
605.80	45523.42
605.96	45925.99
606.12	45851.09
606.27	45949.40
606.43	45694.28
606.58	45785.56
606.74	45614.70
606.89	45535.12
607.05	45794.92
607.20	45507.04
607.36	45659.17
607.51	45928.33
607.67	45893.22
607.82	45610.02
607.98	45490.65
608.13	45364.26
608.29	45373.63
608.44	45106.80
608.60	45013.18
608.75	45167.66
608.91	45373.63
609.06	45567.89
609.22	45804.28
609.37	45174.68
609.53	45308.09
609.68	45776.20
609.84	45661.51
609.99	45448.52
610.15	45694.28
610.30	45392.35
610.46	45610.02
610.61	45116.17
610.76	45205.11
610.92	45516.40
611.07	45074.04
611.23	44837.64
611.38	45247.24
611.54	45013.18
611.69	44959.35
611.84	45373.63
612.00	44996.80
612.15	44987.44
612.31	45394.69
612.46	45186.38
612.62	45600.66
612.77	44912.54
612.92	45179.36
613.08	44800.19
613.23	45275.32
613.39	44704.23
613.54	44903.18
613.69	44830.62
613.85	44842.32
614.00	45315.11
614.15	45359.58
614.31	45682.58
614.46	45118.51
614.62	44313.36
614.77	44949.99
614.92	44470.18
615.08	44591.89
615.23	45010.84
615.38	44685.51
615.54	44453.79
615.69	44320.38
615.84	44301.66
616.00	44804.88
616.15	44397.62
616.30	44685.51
616.46	44435.07
616.61	44505.29
616.76	44781.47
616.92	43910.79
617.07	44414.01
617.22	44329.75
617.37	44105.06
617.53	44898.50
617.68	44470.18
617.83	44744.02
617.99	44816.58
618.14	44816.58
618.29	44062.93
618.45	44388.26
618.60	44556.78
618.75	44062.93
618.90	44524.01
619.06	44430.39
619.21	44364.85
619.36	44069.95
619.51	43955.26
619.67	44079.31
619.82	44327.41
619.97	44243.15
620.12	43971.64
620.28	43611.20
620.43	43887.39
620.58	44142.50
620.73	44041.86
620.89	43878.02
621.04	44006.75
621.19	44088.67
621.34	43945.90
621.49	43978.67
621.65	43770.36
621.80	43765.68
621.95	43487.15
622.10	43548.01
622.25	43583.12
622.41	43550.35
622.56	43360.76
622.71	43505.88
622.86	43393.53
623.01	43594.82
623.16	43950.58
623.32	43356.08
623.47	43620.56
623.62	43468.43
623.77	43335.02
623.92	43508.22
624.07	43543.33
624.23	43044.79
624.38	42976.92
624.53	42976.92
624.68	43498.86
624.83	43306.93
624.98	42967.55
625.13	42937.13
625.29	43480.13
625.44	43283.53
625.59	43023.73
625.74	42625.84
625.89	42766.27
626.04	42557.96
626.19	42588.39
626.34	43182.88
626.49	43360.76
626.65	42969.90
626.80	43276.51
626.95	42948.83
627.10	42389.44
627.25	42506.47
627.40	42501.79
627.55	42426.89
627.70	42607.11
627.85	42492.43
628.00	42478.38
628.15	42754.57
628.30	42717.12
628.45	42623.50
628.60	42773.29
628.76	42803.72
628.91	42518.17
629.06	42602.43
629.21	42288.80
629.36	42316.89
629.51	41968.15
629.66	42134.32
629.81	42141.35
629.96	42234.97
630.11	41984.53
630.26	42380.08
630.41	42052.41
630.56	42377.74
630.71	42211.56
630.86	42494.77
631.01	41926.02
631.16	42089.85
631.31	42012.62
631.46	41420.46
631.61	41727.07
631.76	42075.81
631.91	42040.70
632.06	41935.38
632.21	41940.06
632.36	42181.13
632.51	41851.12
632.66	41736.43
632.81	41584.30
632.96	41984.53
633.10	41450.89
633.25	41366.63
633.40	41659.20
633.55	41860.48
633.70	41539.83
633.85	41502.38
634.00	41598.34
634.15	41530.47
634.30	41205.13
634.45	41647.49
634.60	41205.13
634.75	41879.21
634.90	41366.63
635.05	41354.93
635.19	41486.00
635.34	41713.03
635.49	41432.16
635.64	41516.42
635.79	40926.61
635.94	41432.16
636.09	40889.16
636.24	40966.40
636.39	40926.61
636.53	41174.70
636.68	40683.19
636.83	40879.80
636.98	41109.17
637.13	40861.07
637.28	40680.85
637.43	41158.32
637.57	41277.69
637.72	41205.13
637.87	40907.88
638.02	41125.55
638.17	40605.95
638.32	40825.96
638.46	40442.12
638.61	40566.16
638.76	40484.25
638.91	40453.82
639.06	40584.89
639.20	40744.05
639.35	40538.08
639.50	40435.10
639.65	40741.71
639.80	40643.40
639.94	40629.36
640.09	40463.18
640.24	40687.87
640.39	40121.46
640.54	40472.54
640.68	40376.58
640.83	40289.98
640.98	40498.29
641.13	40215.08
641.27	40821.28
641.42	39835.92
641.57	40650.42
641.72	40397.65
641.86	39672.08
642.01	40105.08
642.16	39995.07
642.31	39674.42
642.45	40261.90
642.60	40051.25
642.75	40135.51
642.90	39976.35
643.04	40100.40
643.19	40161.25
643.34	40201.04
643.48	39819.53
643.63	39997.41
643.78	39608.89
643.93	39693.15
644.07	39445.05
644.22	39889.75
644.37	39349.09
644.51	39407.60
644.66	39402.92
644.81	39777.40
644.95	39908.47
645.10	39524.63
645.25	40133.17
645.39	39845.28
645.54	39941.24
645.69	39826.56
645.83	39093.97
645.98	39196.95
646.13	39299.94
646.27	39421.64
646.42	39751.66
646.57	39566.76
646.71	39470.79
646.86	39400.58
647.00	39512.92
647.15	39569.10
647.30	39669.74
647.44	39510.58
647.59	39239.08
647.74	38857.57
647.88	39243.76
648.03	39592.50
648.17	39271.85
648.32	38485.43
648.47	39342.06
648.61	38855.23
648.76	39243.76
648.90	39180.57
649.05	38974.60
649.20	38906.73
649.34	39117.37
649.49	38841.19
649.63	39058.86
649.78	38817.78
649.92	38415.21
650.07	38675.01
650.21	38855.23
650.36	38986.30
650.51	39108.01
650.65	38988.64
650.80	39196.95
650.94	38789.70
651.09	38897.36
651.23	38721.82
651.38	38803.74
651.52	38291.16
651.67	38609.48
651.81	38536.92
651.96	38295.85
652.10	38277.12
652.25	38309.89
652.39	38480.75
652.54	38841.19
652.68	38583.73
652.83	38417.55
652.97	38384.79
653.12	38188.18
653.26	38150.73
653.41	38396.49
653.55	38141.37
653.70	38141.37
653.84	38347.34
653.99	38260.74
654.13	38478.41
654.27	38539.26
654.42	38213.93
654.56	38234.99
654.71	38321.59
654.85	38384.79
655.00	37972.85
655.14	37724.75
655.29	37361.97
655.43	37748.16
655.57	37738.80
655.72	37677.94
655.86	37596.03
656.01	37530.49
656.15	37511.77
656.30	37153.66
656.44	37233.24
656.58	37366.65
656.73	37095.15
656.87	37010.89
657.01	37113.87
657.16	36961.74
657.30	37647.52
657.45	37172.39
657.59	37263.67
657.73	37015.57
657.88	37209.84
658.02	37401.76
658.16	37331.54
658.31	37354.95
658.45	37251.97
658.60	37076.43
658.74	37254.31
658.88	37137.28
659.03	36973.44
659.17	36989.83
659.31	36868.12
659.46	36800.24
659.60	36854.08
659.74	36821.31
659.89	35690.83
660.03	36671.51
660.17	36891.52
660.32	36701.94
660.46	36828.33
660.60	36755.77
660.74	36673.85
660.89	36755.77
661.03	36348.52
661.17	36540.44
661.32	36044.25
661.46	36278.30
661.60	36226.81
661.74	35999.78
661.89	36151.91
662.03	36114.47
662.17	35941.27
662.31	36264.26
662.46	35882.75
662.60	35751.68
662.74	36318.09
662.88	36051.27
663.03	35924.88
663.17	35522.31
663.31	35718.92
663.45	35543.38
663.60	35519.97
663.74	35391.24
663.88	35281.24
664.02	35260.17
664.17	35707.21
664.31	35295.28
664.45	35548.06
664.59	35370.18
664.73	35227.40
664.88	35459.12
665.02	34991.01
665.16	34960.58
665.30	34834.19
665.44	35370.18
665.59	34466.73
665.73	34934.84
665.87	34483.11
666.01	34738.23
666.15	34171.82
666.29	34452.69
666.44	34801.43
666.58	34583.76
666.72	34459.71
666.86	34836.53
667.00	34679.72
667.14	34511.20
667.28	34235.02
667.43	34288.85
667.57	34293.53
667.71	34127.35
667.85	34071.18
667.99	34295.87
668.13	34012.66
668.27	34249.06
668.41	33928.41
668.56	33930.75
668.70	33783.29
668.84	33668.61
668.98	33289.44
669.12	33818.40
669.26	33738.82
669.40	33656.90
669.54	33387.74
669.68	33579.67
669.82	33153.69
669.96	33455.62
670.10	33322.21
670.25	33163.05
670.39	33661.58
670.53	33263.69
670.67	32690.26
670.81	32982.83
670.95	32896.23
671.09	32980.49
671.23	32795.59
671.37	33120.92
671.51	32818.99
671.65	32287.69
671.79	31892.14
671.93	32507.70
672.07	32830.69
672.21	32844.74
672.35	32414.08
672.49	32624.73
672.63	32350.88
672.77	32243.22
672.91	32142.58
673.05	32222.16
673.19	31784.48
673.33	31740.00
673.47	31662.77
673.61	31571.49
673.75	31271.90
673.89	31747.03
674.03	31051.89
674.17	31386.58
674.31	31267.22
674.45	30920.82
674.59	31417.01
674.73	31510.63
674.87	31412.33
675.01	31447.44
675.15	30986.35
675.29	31241.47
675.43	31480.21
675.56	30841.24
675.70	31047.21
675.84	30930.18
675.98	29408.83
676.12	30232.70
676.26	30749.96
676.40	30075.88
676.54	30057.16
676.68	30157.80
676.82	29493.09
676.96	30148.44
677.10	29626.50
677.23	29785.66
677.37	29860.55
677.51	29670.97
677.65	29507.13
677.79	29256.70
677.93	29371.38
678.07	28938.38
678.21	29207.55
678.34	29088.18
678.48	29074.13
678.62	28868.17
678.76	28739.44
678.90	28861.15
679.04	28914.98
679.18	28577.94
679.31	28563.90
679.45	28554.54
679.59	28002.17
679.73	28278.35
679.87	28430.49
680.00	28142.60
680.14	27840.67
680.28	27875.78
680.42	27681.52
680.56	27789.18
680.70	27718.96
680.83	27482.57
680.97	27358.52
681.11	27662.79
681.25	27140.85
681.39	26899.78
681.52	27248.52
681.66	27110.43
681.80	27080.00
681.94	26850.63
682.07	27070.64
682.21	26881.05
682.35	26401.24
682.49	26483.16
682.62	26539.33
682.76	26054.84
682.90	26099.31
683.04	25998.67
683.17	26426.99
683.31	26291.24
683.45	26316.98
683.59	26125.06
683.72	25568.01
683.86	25415.88
684.00	25350.34
684.13	25769.30
684.27	25359.70
684.41	25530.56
684.55	25111.61
684.68	24915.00
684.82	25144.38
684.96	25418.22
685.09	25022.67
685.23	24732.44
685.37	25092.88
685.50	24730.10
685.64	24900.96
685.78	24456.26
685.91	24442.21
686.05	24315.83
686.19	23946.02
686.32	24505.41
686.46	24123.90
686.60	23695.58
686.73	23929.64
686.87	23658.14
687.01	23529.41
687.14	23419.40
687.28	23208.75
687.42	23218.11
687.55	23234.50
687.69	23267.27
687.82	23044.91
687.96	23161.94
688.10	22787.46
688.23	22778.09
688.37	22934.91
688.50	22370.84
688.64	22644.68
688.78	22530.00
688.91	22419.99
689.05	22679.79
689.18	22253.81
689.32	21907.41
689.46	22576.81
689.59	22319.35
689.73	22256.15
689.86	22260.84
690.00	21881.67
690.13	22214.02
690.27	21865.28
690.41	21818.47
690.54	21378.45
690.68	21493.14
690.81	21132.70
690.95	21135.04
691.08	21352.71
691.22	20879.92
691.35	20985.24
691.49	21221.64
691.62	21235.68
691.76	20872.90
691.89	20746.51
692.03	20601.40
692.16	20650.55
692.30	20203.50
692.43	20322.87
692.57	20255.00
692.70	20182.44
692.84	20458.62
692.97	20299.47
693.11	19756.46
693.24	19955.41
693.38	19571.56
693.51	19534.11
693.65	19822.00
693.78	19824.34
693.92	19751.78
694.05	19438.15
694.19	19484.96
694.32	19145.58
694.45	19653.48
694.59	19276.65
694.72	19192.39
694.86	19073.03
694.99	18831.95
695.13	18733.65
695.26	18752.37
695.39	18581.51
695.53	18750.03
695.66	18773.44
695.80	18267.88
695.93	18347.46
696.07	18244.48
696.20	18377.89
696.33	18483.21
696.47	18047.87
696.60	18038.51
696.73	17900.42
696.87	17994.04
697.00	17813.82
697.14	18015.10
697.27	17855.95
697.40	17727.22
697.54	17671.04
697.67	17547.00
697.80	17460.40
697.94	17322.30
698.07	17539.97
698.21	17067.19
698.34	17209.96
698.47	17076.55
698.61	17289.54
698.74	16676.32
698.87	16760.58
699.01	16528.86
699.14	16512.48
699.27	16255.02
699.40	16542.91
699.54	16460.99
699.67	15967.13
699.80	16233.96
699.94	16320.56
700.07	16180.12
700.20	16212.89
700.34	15817.34
700.47	15817.34
700.60	16240.98
700.73	16046.71
700.87	15887.56
701.00	15606.69
701.13	15815.00
701.26	15599.67
701.40	15910.96
701.53	15492.01
701.66	15304.76
701.79	15433.49
701.93	15515.41
702.06	15096.46
702.19	15204.12
702.32	15098.80
702.46	14972.41
702.59	14651.75
702.72	14745.38
702.85	14609.62
702.99	14986.45
703.12	14604.94
703.25	14808.57
703.38	14731.33
703.51	14600.26
703.65	14394.29
703.78	14506.64
703.91	14387.27
704.04	14359.19
704.17	14087.68
704.31	14111.09
704.44	14092.37
704.57	13745.97
704.70	13678.09
704.83	13790.44
704.96	13544.68
705.10	13874.70
705.23	13951.93
>>>>>End Processed Spectral Data<<<<<
