SpectraSuite Data File
++++++++++++++++++++++++++++++++++++
Date: Fri Oct 25 10:47:46 EDT 2013
User: price-jones
Dark Spectrum Present: No
Reference Spectrum Present: No
Number of Sampled Component Spectra: 1
Spectrometers: USB2+H05261
Integration Time (usec): 100000 (USB2+H05261)
Spectra Averaged: 1 (USB2+H05261)
Boxcar Smoothing: 0 (USB2+H05261)
Correct for Electrical Dark: No (USB2+H05261)
Strobe/Lamp Enabled: No (USB2+H05261)
Correct for Detector Non-linearity: No (USB2+H05261)
Correct for Stray Light: No (USB2+H05261)
Number of Pixels in Processed Spectrum: 2048
>>>>>Begin Processed Spectral Data<<<<<
365.73	124.05
365.92	124.05
366.12	124.05
366.32	140.43
366.52	0.00
366.72	32.77
366.91	0.00
367.11	28.09
367.31	0.00
367.51	35.11
367.70	60.85
367.90	65.54
368.10	56.17
368.30	28.09
368.49	58.51
368.69	18.72
368.89	42.13
369.09	37.45
369.28	88.94
369.48	100.64
369.68	112.35
369.87	180.22
370.07	131.07
370.27	145.11
370.47	208.31
370.66	362.78
370.86	404.91
371.06	393.21
371.25	423.64
371.45	447.04
371.65	475.13
371.84	430.66
372.04	435.34
372.24	458.74
372.44	423.64
372.63	547.69
372.83	475.13
373.03	512.58
373.22	554.71
373.42	484.49
373.62	486.83
373.81	493.85
374.01	554.71
374.21	641.31
374.40	524.28
374.60	566.41
374.79	589.82
374.99	573.43
375.19	580.45
375.38	622.58
375.58	491.51
375.78	503.22
375.97	524.28
376.17	575.77
376.37	601.52
376.56	545.34
376.76	615.56
376.95	521.94
377.15	645.99
377.35	573.43
377.54	596.84
377.74	622.58
377.93	634.29
378.13	627.26
378.33	734.93
378.52	617.90
378.72	587.47
378.91	660.03
379.11	655.35
379.31	627.26
379.50	669.39
379.70	629.60
379.89	645.99
380.09	617.90
380.28	681.10
380.48	760.67
380.68	662.37
380.87	730.25
381.07	711.52
381.26	737.27
381.46	744.29
381.65	692.80
381.85	664.71
382.04	669.39
382.24	711.52
382.43	676.41
382.63	748.97
382.83	716.20
383.02	667.05
383.22	664.71
383.41	760.67
383.61	697.48
383.80	741.95
384.00	760.67
384.19	723.23
384.39	767.70
384.58	753.65
384.78	779.40
384.97	833.23
385.17	730.25
385.36	671.73
385.56	709.18
385.75	704.50
385.95	791.10
386.14	835.57
386.34	767.70
386.53	765.36
386.72	795.78
386.92	767.70
387.11	777.06
387.31	882.38
387.50	695.14
387.70	763.01
387.89	873.02
388.09	847.27
388.28	805.14
388.48	772.38
388.67	821.53
388.86	933.87
389.06	926.85
389.25	873.02
389.45	894.08
389.64	917.49
389.84	873.02
390.03	990.05
390.22	898.77
390.42	896.43
390.61	952.60
390.81	936.21
391.00	945.58
391.19	987.71
391.39	905.79
391.58	961.96
391.78	915.15
391.97	1022.81
392.16	964.30
392.36	976.00
392.55	987.71
392.75	898.77
392.94	1050.90
393.13	994.73
393.33	992.39
393.52	870.68
393.71	1032.18
393.91	1074.31
394.10	1036.86
394.29	1015.79
394.49	1027.50
394.68	1104.73
394.88	1097.71
395.07	1224.10
395.26	1100.05
395.46	1111.75
395.65	1144.52
395.84	1022.81
396.04	1196.01
396.23	1167.93
396.42	1137.50
396.62	1130.48
396.81	1137.50
397.00	1181.97
397.19	1254.53
397.39	1118.78
397.58	1214.74
397.77	1217.08
397.97	1188.99
398.16	1242.82
398.35	1207.72
398.55	1287.29
398.74	1345.81
398.93	1420.71
399.12	1366.87
399.32	1418.36
399.51	1453.47
399.70	1460.49
399.90	1420.71
400.09	1441.77
400.28	1479.22
400.47	1366.87
400.67	1448.79
400.86	1476.88
401.05	1533.05
401.24	1493.26
401.44	1401.98
401.63	1441.77
401.82	1526.03
402.01	1516.67
402.21	1514.33
402.40	1645.40
402.59	1530.71
402.78	1537.73
402.97	1519.01
403.17	1572.84
403.36	1558.80
403.55	1607.95
403.74	1689.87
403.93	1589.22
404.13	1561.14
404.32	1614.97
404.51	1621.99
404.70	1668.80
404.89	1715.61
405.09	1867.75
405.28	1638.38
405.47	1722.63
405.66	1750.72
405.85	1813.92
406.05	1755.40
406.24	1816.26
406.43	1788.17
406.62	1872.43
406.81	1905.20
407.00	1795.19
407.20	1797.53
407.39	1895.83
407.58	1975.41
407.77	1872.43
407.96	1973.07
408.15	1947.33
408.34	2069.03
408.54	2038.61
408.73	1902.86
408.92	1982.43
409.11	2054.99
409.30	1928.60
409.49	2036.27
409.68	2085.42
409.87	2143.93
410.07	2080.74
410.26	2113.50
410.45	2143.93
410.64	2272.66
410.83	2218.83
411.02	2235.21
411.21	2375.64
411.40	2373.30
411.59	2408.41
411.78	2284.36
411.98	2296.07
412.17	2228.19
412.36	2342.88
412.55	2403.73
412.74	2469.27
412.93	2464.58
413.12	2408.41
413.31	2595.65
413.50	2471.61
413.69	2520.76
413.88	2635.44
414.07	2518.42
414.26	2626.08
414.45	2642.46
414.64	2626.08
414.83	2635.44
415.02	2761.83
415.22	2796.94
415.41	2857.79
415.60	2771.19
415.79	2911.63
415.98	2965.46
416.17	2857.79
416.36	2897.58
416.55	2874.18
416.74	2937.37
416.93	2911.63
417.12	2932.69
417.31	3052.06
417.50	2991.20
417.69	3194.83
417.88	2986.52
418.07	3002.91
418.26	3094.19
418.45	3045.04
418.64	3279.09
418.83	3286.11
419.02	3016.95
419.21	3187.81
419.39	3227.60
419.58	3110.57
419.77	3187.81
419.96	3243.98
420.15	3309.52
420.34	3220.58
420.53	3283.77
420.72	3449.95
420.91	3421.86
421.10	3485.06
421.29	3400.80
421.48	3337.60
421.67	3417.18
421.86	3393.78
422.05	3438.25
422.24	3316.54
422.43	3485.06
422.61	3566.98
422.80	3564.64
422.99	3463.99
423.18	3548.25
423.37	3611.45
423.56	3529.53
423.75	3520.17
423.94	3445.27
424.13	3382.07
424.32	3428.88
424.50	3440.59
424.69	3702.73
424.88	3702.73
425.07	3545.91
425.26	3604.42
425.45	3562.30
425.64	3578.68
425.83	3543.57
426.01	3644.21
426.20	3609.11
426.39	3641.87
426.58	3557.61
426.77	3492.08
426.96	3646.55
427.15	3520.17
427.33	3707.41
427.52	3627.83
427.71	3719.11
427.90	3623.15
428.09	3754.22
428.28	3887.63
428.46	3796.35
428.65	3948.48
428.84	3873.59
429.03	3864.22
429.22	3719.11
429.40	3929.76
429.59	3772.94
429.78	3714.43
429.97	3688.68
430.16	3801.03
430.34	3777.62
430.53	3819.75
430.72	3950.82
430.91	3906.35
431.10	3997.64
431.28	3981.25
431.47	4091.26
431.66	4079.55
431.85	4032.74
432.03	4187.22
432.22	4145.09
432.41	4140.41
432.60	4032.74
432.79	4184.88
432.97	4227.01
433.16	4290.20
433.35	4159.13
433.54	4205.94
433.72	4313.61
433.91	4290.20
434.10	4320.63
434.28	4470.42
434.47	4435.32
434.66	4456.38
434.85	4409.57
435.03	4521.92
435.22	4540.64
435.41	4503.19
435.59	4407.23
435.78	4521.92
435.97	4667.03
436.16	4561.70
436.34	4517.23
436.53	4535.96
436.72	4791.08
436.90	4608.51
437.09	4784.06
437.28	4732.56
437.46	4692.77
437.65	4610.86
437.84	4798.10
438.02	4737.24
438.21	4788.74
438.40	4559.36
438.58	4767.67
438.77	4943.21
438.96	4961.94
439.14	5100.03
439.33	5057.90
439.52	5039.17
439.70	5069.60
439.89	5004.07
440.08	5123.43
440.26	5383.23
440.45	5191.31
440.63	5355.15
440.82	5432.38
441.01	5296.63
441.19	5399.62
441.38	5399.62
441.57	5383.23
441.75	5518.98
441.94	5689.84
442.12	5652.39
442.31	5654.73
442.50	5689.84
442.68	5556.43
442.87	5607.92
443.05	5717.93
443.24	5860.70
443.43	5710.91
443.61	5769.42
443.80	6129.86
443.98	5771.76
444.17	5823.25
444.35	5797.51
444.54	6078.37
444.73	5851.34
444.91	5776.44
445.10	5930.92
445.28	5839.64
445.47	5867.72
445.65	5877.09
445.84	5657.07
446.02	5839.64
446.21	5727.29
446.39	5795.17
446.58	5996.45
446.77	6064.33
446.95	5895.81
447.14	6087.73
447.32	6127.52
447.51	6188.38
447.69	5956.66
447.88	5975.39
448.06	5844.32
448.25	6066.67
448.43	6064.33
448.62	6050.28
448.80	5912.19
448.99	6113.48
449.17	6012.84
449.36	6064.33
449.54	6384.98
449.73	6314.77
449.91	6321.79
450.10	6455.20
450.28	6487.96
450.46	6338.17
450.65	6394.34
450.83	6476.26
451.02	6434.13
451.20	6392.00
451.39	6574.56
451.57	6480.94
451.76	6303.06
451.94	6502.01
452.13	6373.28
452.31	6586.27
452.49	6305.40
452.68	6642.44
452.86	6600.31
453.05	6612.01
453.23	6593.29
453.42	6633.08
453.60	6595.63
453.78	6700.95
453.97	6558.18
454.15	6668.19
454.34	6789.89
454.52	6796.92
454.70	6808.62
454.89	6745.42
455.07	6843.73
455.26	6771.17
455.44	6801.60
455.62	6815.64
455.81	6956.07
455.99	7042.67
456.17	7061.40
456.36	6972.46
456.54	7124.59
456.73	7157.36
456.91	7330.56
457.09	7138.63
457.28	7356.30
457.46	7304.81
457.64	7246.30
457.83	7288.43
458.01	7276.73
458.19	7524.82
458.38	7368.01
458.56	7510.78
458.74	7445.24
458.93	7468.65
459.11	7604.40
459.29	7527.16
459.48	7564.61
459.66	7321.20
459.84	7382.05
460.03	7747.17
460.21	7506.10
460.39	7698.02
460.57	7679.30
460.76	7735.47
460.94	7819.73
461.12	7742.49
461.31	7770.58
461.49	7707.38
461.67	7676.96
461.85	7824.41
462.04	7903.99
462.22	8301.88
462.40	7864.20
462.59	7929.74
462.77	8093.57
462.95	8063.15
463.13	7967.18
463.32	7908.67
463.50	8203.58
463.68	8116.98
463.86	8152.09
464.05	8088.89
464.23	8021.02
464.41	8278.47
464.59	8088.89
464.78	8325.29
464.96	8163.79
465.14	8189.53
465.32	8329.97
465.50	8313.58
465.69	8542.96
465.87	8416.57
466.05	8444.65
466.23	8435.29
466.41	8425.93
466.60	8498.49
466.78	8308.90
466.96	8449.33
467.14	8407.20
467.32	8416.57
467.51	8615.51
467.69	8301.88
467.87	8634.24
468.05	8521.89
468.23	8603.81
468.41	8571.04
468.60	8662.32
468.78	8938.51
468.96	8535.93
469.14	8875.31
469.32	8854.25
469.50	8809.78
469.69	9071.92
469.87	8940.85
470.05	8980.64
470.23	9027.45
470.41	8926.80
470.59	9202.99
470.77	9144.47
470.95	8849.57
471.14	9163.20
471.32	9156.18
471.50	9415.98
471.68	9151.49
471.86	9322.35
472.04	9446.40
472.22	9652.37
472.40	9165.54
472.58	9465.13
472.77	9610.24
472.95	9680.46
473.13	9795.14
473.31	9446.40
473.49	9734.29
473.67	9675.77
473.85	9745.99
474.03	9928.55
474.21	10026.86
474.39	10029.20
474.57	9748.33
474.75	10204.74
474.93	10476.24
475.12	10038.56
475.30	10464.54
475.48	10073.67
475.66	10403.68
475.84	10113.45
476.02	10251.55
476.20	10333.47
476.38	10417.72
476.56	10977.11
476.74	10576.88
476.92	10761.78
477.10	10780.51
477.28	11201.80
477.46	10981.79
477.64	11183.08
477.82	11257.98
478.00	11686.29
478.18	11260.32
478.36	11269.68
478.54	11681.61
478.72	11461.60
478.90	11571.61
479.08	11754.17
479.26	11826.73
479.44	11925.03
479.62	11995.25
479.80	12156.74
479.98	12175.47
480.16	12503.14
480.34	12404.84
480.52	12369.73
480.70	12776.98
480.88	12402.50
481.06	12634.21
481.24	12592.08
481.41	12596.76
481.59	12992.31
481.77	13104.66
481.95	13132.75
482.13	12929.12
482.31	13305.95
482.49	13528.30
482.67	13642.98
482.85	13767.03
483.03	13762.35
483.21	13935.55
483.39	14195.35
483.57	14064.28
483.74	14384.93
483.92	14209.39
484.10	14274.93
484.28	14595.58
484.46	14534.73
484.64	15059.01
484.82	14909.21
485.00	14703.25
485.18	15131.56
485.35	15164.33
485.53	15066.03
485.71	14897.51
485.89	15169.01
486.07	15293.06
486.25	15393.70
486.43	15742.44
486.61	15800.96
486.78	15728.40
486.96	16032.67
487.14	16308.85
487.32	16411.84
487.50	16423.54
487.68	16716.11
487.85	16858.88
488.03	16975.91
488.21	17149.11
488.39	16943.14
488.57	17284.86
488.75	17453.37
488.92	17500.19
489.10	17530.61
489.28	17841.90
489.46	18024.47
489.64	18045.53
489.81	18415.34
489.99	18684.50
490.17	18590.88
490.35	18735.99
490.53	18773.44
490.70	19009.83
490.88	18574.49
491.06	19075.37
491.24	19297.72
491.41	19035.58
491.59	19391.34
491.77	19316.44
491.95	19545.81
492.13	19779.87
492.30	19936.68
492.48	19896.89
492.66	19943.70
492.84	20114.56
493.01	20652.89
493.19	20130.95
493.37	20746.51
493.54	20786.30
493.72	21003.97
493.90	20893.96
494.08	20908.01
494.25	21312.92
494.43	21535.27
494.61	21348.03
494.79	21514.20
494.96	21539.95
495.14	21502.50
495.32	21666.34
495.49	21792.73
495.67	22139.13
495.85	22183.60
496.02	22396.59
496.20	22796.82
496.38	22438.72
496.55	22611.92
496.73	23129.17
496.91	22750.01
497.09	22628.30
497.26	23269.61
497.44	22927.89
497.62	23513.02
497.79	23438.12
497.97	23225.14
498.14	23543.45
498.32	23828.99
498.50	23653.45
498.67	23922.62
498.85	23889.85
499.03	24009.22
499.20	24278.38
499.38	24423.49
499.56	24540.52
499.73	24615.41
499.91	24648.18
500.08	24812.02
500.26	24222.20
500.44	24694.99
500.61	25135.01
500.79	24423.49
500.97	24931.39
501.14	25399.49
501.32	25242.68
501.49	25020.33
501.67	25191.19
501.84	25380.77
502.02	25460.35
502.20	25617.16
502.37	25577.37
502.55	25472.05
502.72	26120.38
502.90	26321.66
503.07	26160.17
503.25	25989.31
503.43	26380.18
503.60	26588.49
503.78	26052.50
503.95	26340.39
504.13	26642.32
504.30	26551.04
504.48	26925.52
504.65	26302.94
504.83	27213.41
505.01	27072.98
505.18	27082.34
505.36	27510.66
505.53	26934.88
505.71	27541.08
505.88	27536.40
506.06	27182.98
506.23	27810.25
506.41	27690.88
506.58	27648.75
506.76	27608.96
506.93	28077.07
507.11	27934.29
507.28	28074.73
507.46	27896.85
507.63	28140.26
507.81	28212.82
507.98	28147.28
508.16	28563.90
508.33	28566.24
508.50	28687.95
508.68	28568.58
508.85	29294.14
509.03	28737.10
509.20	29221.59
509.38	29071.79
509.55	29284.78
509.73	29298.83
509.90	29373.72
510.08	29331.59
510.25	29102.22
510.42	29766.93
510.60	29509.47
510.77	29455.64
510.95	29509.47
511.12	29502.45
511.30	29654.59
511.47	30043.12
511.64	30064.18
511.82	30347.39
511.99	30108.65
512.17	30508.88
512.34	29830.13
512.51	30246.74
512.69	30471.43
512.86	30663.36
513.04	30492.50
513.21	30806.13
513.38	30934.86
513.56	30588.46
513.73	30546.33
513.90	31105.72
514.08	30881.03
514.25	30988.69
514.43	31014.44
514.60	31026.14
514.77	30792.09
514.95	31630.00
515.12	31372.54
515.29	31988.10
515.47	31800.86
515.64	31704.90
515.81	31508.29
515.99	31969.38
516.16	31768.09
516.33	31700.22
516.51	31634.68
516.68	31122.10
516.85	31828.95
517.03	31749.37
517.20	32105.13
517.37	32233.86
517.54	32369.61
517.72	32692.60
517.89	32144.92
518.06	32826.01
518.24	32261.94
518.41	32704.31
518.58	32493.66
518.75	32287.69
518.93	33184.12
519.10	32865.80
519.27	32985.17
519.45	33024.96
519.62	32910.27
519.79	33146.67
519.96	32809.63
520.14	33228.59
520.31	33149.01
520.48	33486.04
520.65	33448.60
520.83	33474.34
521.00	33745.84
521.17	33769.25
521.34	33745.84
521.52	33687.33
521.69	34230.33
521.86	34302.89
522.03	34281.83
522.20	34176.50
522.38	34314.59
522.55	34597.80
522.72	34103.95
522.89	34525.24
523.07	35002.71
523.24	34139.05
523.41	34417.58
523.58	34433.96
523.75	34754.61
523.92	34810.79
524.10	35002.71
524.27	34934.84
524.44	35019.10
524.61	34986.33
524.78	35150.17
524.96	35227.40
525.13	35096.33
525.30	35840.62
525.47	35683.81
525.64	35316.34
525.81	35873.39
525.98	35573.80
526.16	35285.92
526.33	35225.06
526.50	35995.10
526.67	35758.70
526.84	35683.81
527.01	36032.55
527.18	35847.64
527.36	36261.92
527.53	36105.10
527.70	36086.38
527.87	36416.40
528.04	36411.71
528.21	36570.87
528.38	36432.78
528.55	36177.66
528.72	36477.25
528.89	36627.04
529.07	36458.52
529.24	36273.62
529.41	37134.94
529.58	36264.26
529.75	36847.05
529.92	37013.23
530.09	36594.28
530.26	37249.63
530.43	37010.89
530.60	36886.84
530.77	36945.36
530.94	37186.43
531.11	37109.19
531.28	37202.82
531.46	37354.95
531.63	37383.04
531.80	37659.22
531.97	36833.01
532.14	37235.58
532.31	37308.14
532.48	37263.67
532.65	37376.01
532.82	37404.10
532.99	37865.19
533.16	37589.00
533.33	37846.46
533.50	37766.88
533.67	37645.18
533.84	37806.67
534.01	38089.88
534.18	37429.85
534.35	38707.78
534.52	38071.15
534.69	37933.06
534.86	38588.41
535.03	38136.69
535.20	38377.76
535.37	38527.56
535.54	38504.15
535.71	38326.27
535.88	38347.34
536.05	38520.54
536.22	38679.69
536.38	38536.92
536.55	38579.05
536.72	38785.02
536.89	38431.60
537.06	38888.00
537.23	38714.80
537.40	38621.18
537.57	39016.73
537.74	38541.60
537.91	39372.49
538.08	39203.97
538.25	38939.49
538.42	39445.05
538.59	39557.39
538.75	39140.78
538.92	39311.64
539.09	39192.27
539.26	39108.01
539.43	39702.51
539.60	39353.77
539.77	39519.95
539.94	39576.12
540.11	39604.20
540.28	39353.77
540.44	39225.04
540.61	39885.07
540.78	39597.18
540.95	39669.74
541.12	39618.25
541.29	39725.91
541.46	39543.35
541.62	39931.88
541.79	40126.14
541.96	39615.91
542.13	40098.06
542.30	40526.38
542.47	39882.73
542.63	39892.09
542.80	40268.92
542.97	40786.18
543.14	41193.43
543.31	40601.27
543.48	40561.48
543.64	41155.98
543.81	40910.22
543.98	40739.36
544.15	40673.83
544.32	40407.01
544.48	41294.07
544.65	40870.43
544.82	40980.44
544.99	40807.24
545.16	41212.15
545.32	40898.52
545.49	41125.55
545.66	41397.06
545.83	41481.31
546.00	41507.06
546.16	41291.73
546.33	41422.80
546.50	40741.71
546.67	41368.97
546.83	40856.39
547.00	41216.83
547.17	41158.32
547.34	41411.10
547.50	41432.16
547.67	41411.10
547.84	41490.68
548.00	41832.39
548.17	41483.66
548.34	41310.46
548.51	41701.32
548.67	41689.62
548.84	41909.63
549.01	41804.31
549.18	41605.36
549.34	41846.44
549.51	41881.55
549.68	42026.66
549.84	42426.89
550.01	42213.90
550.18	41783.24
550.34	41734.09
550.51	41869.84
550.68	42005.59
550.84	41867.50
551.01	42230.29
551.18	41762.18
551.34	42426.89
551.51	42342.63
551.68	41862.82
551.84	42464.34
552.01	42108.58
552.18	42293.48
552.34	42160.07
552.51	42862.23
552.68	42429.23
552.84	42925.42
553.01	42965.21
553.18	42127.30
553.34	42595.41
553.51	42115.60
553.67	42590.73
553.84	42918.40
554.01	43084.58
554.17	42925.42
554.34	43014.37
554.51	43065.86
554.67	43058.84
554.84	42815.42
555.00	43100.97
555.17	42878.61
555.33	42939.47
555.50	42733.50
555.67	43262.46
555.83	43185.22
556.00	43091.60
556.16	43239.06
556.33	43152.46
556.50	42859.89
556.66	43150.12
556.83	43377.15
556.99	42895.00
557.16	43093.94
557.32	43480.13
557.49	43339.70
557.65	43302.25
557.82	43363.11
557.98	42916.06
558.15	42719.46
558.32	43751.63
558.48	43028.41
558.65	43332.68
558.81	43421.62
558.98	43320.98
559.14	43192.25
559.31	43388.85
559.47	43529.28
559.64	44018.46
559.80	43988.03
559.97	43931.86
560.13	43566.73
560.30	43374.81
560.46	43981.01
560.63	43461.41
560.79	43758.66
560.96	44055.90
561.12	43545.67
561.29	44140.16
561.45	43828.87
561.61	43466.09
561.78	43454.39
561.94	43782.06
562.11	43859.30
562.27	43512.90
562.44	43454.39
562.60	44144.84
562.77	44472.52
562.93	43917.81
563.10	44397.62
563.26	43821.85
563.42	43997.39
563.59	43868.66
563.75	43622.90
563.92	44053.56
564.08	44086.33
564.24	43861.64
564.41	44376.56
564.57	43753.97
564.74	43964.62
564.90	44156.55
565.07	44074.63
565.23	43941.22
565.39	44098.03
565.56	44311.02
565.72	44289.96
565.88	44257.19
566.05	44044.20
566.21	44058.24
566.38	44362.51
566.54	44491.24
566.70	44018.46
566.87	44568.48
567.03	44428.05
567.19	44481.88
567.36	44435.07
567.52	44311.02
567.68	44697.21
567.85	44165.91
568.01	44362.51
568.17	44463.16
568.34	44622.31
568.50	44116.76
568.66	44320.38
568.83	44491.24
568.99	44002.07
569.15	44446.77
569.32	44140.16
569.48	44196.34
569.64	44458.48
569.81	44509.97
569.97	44912.54
570.13	44519.33
570.30	44296.98
570.46	43929.51
570.62	44315.70
570.78	44123.78
570.95	44116.76
571.11	44266.55
571.27	44374.22
571.43	44650.40
571.60	44453.79
571.76	44444.43
571.92	44313.36
572.09	44676.15
572.25	44692.53
572.41	44294.64
572.57	44861.05
572.74	44828.28
572.90	44926.58
573.06	44491.24
573.22	44549.76
573.38	44484.22
573.55	44502.95
573.71	44921.90
573.87	44285.28
574.03	44392.94
574.20	44439.75
574.36	44219.74
574.52	45055.31
574.68	44540.39
574.84	44868.07
575.01	44416.35
575.17	44687.85
575.33	44516.99
575.49	44128.46
575.65	44809.56
575.82	45153.62
575.98	44491.24
576.14	44957.01
576.30	44570.82
576.46	44673.81
576.62	44662.10
576.79	44182.29
576.95	44212.72
577.11	44566.14
577.27	44488.90
577.43	44788.49
577.59	44512.31
577.75	44596.57
577.92	44694.87
578.08	44002.07
578.24	44619.97
578.40	44776.79
578.56	44652.74
578.72	44776.79
578.88	44722.96
579.04	44910.20
579.21	44421.03
579.37	44959.35
579.53	44966.37
579.69	44493.58
579.85	44877.43
580.01	45031.91
580.17	44636.36
580.33	45109.14
580.49	45420.44
580.65	45146.59
580.82	44619.97
580.98	44418.69
581.14	44685.51
581.30	44765.09
581.46	45041.27
581.62	44825.94
581.78	44938.29
581.94	45179.36
582.10	44495.92
582.26	45048.29
582.42	44917.22
582.58	44905.52
582.74	44783.81
582.90	44802.53
583.06	44835.30
583.22	45022.54
583.38	45031.91
583.54	44907.86
583.70	44823.60
583.86	44807.22
584.02	44486.56
584.18	44872.75
584.34	45013.18
584.50	44603.59
584.66	44533.37
584.82	44687.85
584.98	45071.70
585.14	45015.52
585.30	45247.24
585.46	44861.05
585.62	44533.37
585.78	44947.65
585.94	44376.56
586.10	44568.48
586.26	44844.66
586.42	45029.57
586.58	45174.68
586.74	45174.68
586.90	44697.21
587.06	44418.69
587.22	44851.69
587.38	44498.26
587.54	45294.05
587.70	45265.96
587.86	44790.83
588.02	44584.86
588.18	45209.79
588.34	45184.04
588.49	45155.96
588.65	44477.20
588.81	45045.95
588.97	45090.42
589.13	44718.28
589.29	44634.02
589.45	44486.56
589.61	44957.01
589.77	45443.84
589.93	45116.17
590.08	45099.78
590.24	45247.24
590.40	44973.39
590.56	45219.15
590.72	45291.71
590.88	45106.80
591.04	44811.90
591.20	45340.86
591.35	45151.27
591.51	45481.29
591.67	45359.58
591.83	45242.56
591.99	45326.81
592.15	44772.11
592.31	45118.51
592.46	44980.42
592.62	44591.89
592.78	45097.44
592.94	45055.31
593.10	45106.80
593.26	44996.80
593.41	45280.00
593.57	45177.02
593.73	45347.88
593.89	45106.80
594.05	45069.36
594.20	45099.78
594.36	45237.87
594.52	45319.79
594.68	45209.79
594.84	45013.18
594.99	45523.42
595.15	45158.30
595.31	45263.62
595.47	45425.12
595.62	45401.71
595.78	45308.09
595.94	45511.72
596.10	45497.67
596.25	45413.41
596.41	45874.50
596.57	45184.04
596.73	45366.60
596.88	45069.36
597.04	45141.91
597.20	45265.96
597.36	45209.79
597.51	45773.86
597.67	45413.41
597.83	45502.35
597.99	45701.30
598.14	45284.68
598.30	45097.44
598.46	45429.80
598.61	45462.57
598.77	45198.09
598.93	45165.32
599.09	46061.74
599.24	45727.05
599.40	45418.10
599.56	45532.78
599.71	45799.60
599.87	45539.80
600.03	45434.48
600.18	45488.31
600.34	45418.10
600.50	46014.93
600.65	45052.97
600.81	45558.53
600.97	45558.53
601.12	45755.13
601.28	45474.27
601.44	45027.23
601.59	45324.47
601.75	45240.21
601.91	45296.39
602.06	45343.20
602.22	45200.43
602.37	45661.51
602.53	45291.71
602.69	45212.13
602.84	45624.06
603.00	45160.64
603.16	45031.91
603.31	45237.87
603.47	44978.07
603.62	45102.12
603.78	45057.65
603.94	45504.70
604.09	45514.06
604.25	45303.41
604.40	45420.44
604.56	45331.50
604.71	44879.77
604.87	44718.28
605.03	45485.97
605.18	45289.37
605.34	45205.11
605.49	45141.91
605.65	45139.57
605.80	45038.93
605.96	45303.41
606.12	45287.03
606.27	45460.23
606.43	44954.67
606.58	44938.29
606.74	45081.06
606.89	45207.45
607.05	45167.66
607.20	45010.84
607.36	45067.02
607.51	45301.07
607.67	45251.92
607.82	45427.46
607.98	45106.80
608.13	44919.56
608.29	45010.84
608.44	44470.18
608.60	44839.98
608.75	44732.32
608.91	44753.38
609.06	44809.56
609.22	45106.80
609.37	45064.67
609.53	45069.36
609.68	45280.00
609.84	45106.80
609.99	45006.16
610.15	44399.96
610.30	44383.58
610.46	44762.75
610.61	44779.13
610.76	44566.14
610.92	45127.87
611.07	44659.76
611.23	44610.61
611.38	45282.34
611.54	44795.51
611.69	44594.23
611.84	44741.68
612.00	44889.13
612.15	44191.65
612.31	44552.10
612.46	44552.10
612.62	44744.02
612.77	44652.74
612.92	44751.04
613.08	44217.40
613.23	44374.22
613.39	44634.02
613.54	44128.46
613.69	44484.22
613.85	44463.16
614.00	44769.77
614.15	44509.97
614.31	44624.65
614.46	44734.66
614.62	44594.23
614.77	44182.29
614.92	44435.07
615.08	44327.41
615.23	43906.11
615.38	44378.90
615.54	44091.01
615.69	43831.21
615.84	43833.55
616.00	43917.81
616.15	44254.85
616.30	43810.15
616.46	44016.11
616.61	43709.50
616.76	44032.50
616.92	44123.78
617.07	43817.17
617.22	43714.19
617.37	43775.04
617.53	43814.83
617.68	44083.99
617.83	43917.81
617.99	44196.34
618.14	43707.16
618.29	43817.17
618.45	43620.56
618.60	43632.27
618.75	43761.00
618.90	43686.10
619.06	44240.81
619.21	43875.68
619.36	43356.08
619.51	43702.48
619.67	43758.66
619.82	44055.90
619.97	44179.95
620.12	43564.39
620.28	43210.97
620.43	43192.25
620.58	43620.56
620.73	42944.15
620.89	43454.39
621.04	43613.54
621.19	43777.38
621.34	43145.44
621.49	43107.99
621.65	43089.26
621.80	43295.23
621.95	42670.31
622.10	43112.67
622.25	42546.26
622.41	42749.88
622.56	43145.44
622.71	43658.01
622.86	43206.29
623.01	43498.86
623.16	43208.63
623.32	42932.45
623.47	43330.34
623.62	42902.02
623.77	42721.80
623.92	42981.60
624.07	42438.59
624.23	42766.27
624.38	42501.79
624.53	42450.30
624.68	42925.42
624.83	42749.88
624.98	42911.38
625.13	42604.77
625.29	42794.36
625.44	42469.02
625.59	42576.69
625.74	41937.72
625.89	42263.05
626.04	42230.29
626.19	42382.42
626.34	42440.93
626.49	42281.78
626.65	42274.76
626.80	42899.68
626.95	42333.27
627.10	42227.95
627.25	42309.86
627.40	41935.38
627.55	41764.52
627.70	41722.39
627.85	41738.77
628.00	41940.06
628.15	42560.30
628.30	41972.83
628.45	42291.14
628.60	41972.83
628.76	41998.57
628.91	41874.52
629.06	41975.17
629.21	42031.34
629.36	41890.91
629.51	41514.08
629.66	41340.88
629.81	41170.02
629.96	41900.27
630.11	41743.45
630.26	42019.64
630.41	41680.26
630.56	41794.95
630.71	42157.73
630.86	41703.67
631.01	41579.62
631.16	41764.52
631.31	41013.21
631.46	41034.27
631.61	41827.71
631.76	41677.92
631.91	41553.87
632.06	41743.45
632.21	41504.72
632.36	41228.54
632.51	41336.20
632.66	41663.88
632.81	41254.28
632.96	41413.44
633.10	41233.22
633.25	41418.12
633.40	40961.72
633.55	41092.79
633.70	41460.25
633.85	40877.46
634.00	40765.11
634.15	41415.78
634.30	41060.02
634.45	41713.03
634.60	41134.92
634.75	41078.74
634.90	41319.82
635.05	41179.39
635.19	40727.66
635.34	41184.07
635.49	41130.23
635.64	41017.89
635.79	40980.44
635.94	40706.60
636.09	40758.09
636.24	40772.13
636.39	40364.88
636.53	40397.65
636.68	40463.18
636.83	40708.94
636.98	40786.18
637.13	40151.89
637.28	40603.61
637.43	40631.70
637.57	40832.99
637.72	40940.65
637.87	40825.96
638.02	40484.25
638.17	40378.92
638.32	39938.90
638.46	40315.73
638.61	39997.41
638.76	39861.66
638.91	40367.22
639.06	40175.30
639.20	40385.94
639.35	40517.01
639.50	40605.95
639.65	40376.58
639.80	39990.39
639.94	40240.83
640.09	40058.27
640.24	39793.79
640.39	39786.77
640.54	39833.58
640.68	39864.00
640.83	40182.32
640.98	39543.35
641.13	39924.86
641.27	39845.28
641.42	40268.92
641.57	40212.74
641.72	40107.42
641.86	39662.72
642.01	39969.33
642.16	39203.97
642.31	39346.75
642.45	39662.72
642.60	39178.23
642.75	38911.41
642.90	39704.85
643.04	39494.20
643.19	39641.65
643.34	39639.31
643.48	39700.17
643.63	39365.47
643.78	39316.32
643.93	39049.50
644.07	39206.31
644.22	38700.76
644.37	39096.31
644.51	39075.24
644.66	39421.64
644.81	39431.01
644.95	39646.33
645.10	39395.90
645.25	39213.34
645.39	39559.73
645.54	39718.89
645.69	38813.10
645.83	39075.24
645.98	39182.91
646.13	39374.83
646.27	39459.09
646.42	39225.04
646.57	38939.49
646.71	39098.65
646.86	38873.96
647.00	39157.16
647.15	39152.48
647.30	39545.69
647.44	38988.64
647.59	38909.07
647.74	38876.30
647.88	38934.81
648.03	38745.23
648.17	38810.76
648.32	38576.71
648.47	38618.84
648.61	38534.58
648.76	39178.23
648.90	38721.82
649.05	38890.34
649.20	38822.47
649.34	38752.25
649.49	38682.03
649.63	38574.37
649.78	38401.17
649.92	38466.70
650.07	38724.16
650.21	38473.73
650.36	38384.79
650.51	38213.93
650.65	38976.94
650.80	38562.67
650.94	38436.28
651.09	38646.93
651.23	38244.35
651.38	38277.12
651.52	38319.25
651.67	38057.11
651.81	38129.67
651.96	37996.26
652.10	38176.48
652.25	37642.84
652.39	37787.95
652.54	37993.92
652.68	38211.59
652.83	38017.32
652.97	38178.82
653.12	37605.39
653.26	37893.27
653.41	38153.07
653.55	37834.76
653.70	37308.14
653.84	37677.94
653.99	37886.25
654.13	37935.40
654.27	37605.39
654.42	37612.41
654.56	37436.87
654.71	37488.36
654.85	37699.01
655.00	37675.60
655.14	37907.32
655.29	37062.38
655.43	37113.87
655.57	36765.14
655.72	37244.94
655.86	36982.80
656.01	37102.17
656.15	36992.17
656.30	37326.86
656.44	37247.29
656.58	37371.33
656.73	36982.80
656.87	36540.44
657.01	37130.26
657.16	37046.00
657.30	36718.32
657.45	36432.78
657.59	36727.69
657.73	36613.00
657.88	36896.20
658.02	36751.09
658.16	36924.29
658.31	36762.79
658.45	36835.35
658.60	36598.96
658.74	36973.44
658.88	36793.22
659.03	36528.74
659.17	36165.96
659.31	36388.31
659.46	36252.56
659.60	36385.97
659.74	36364.90
659.89	36402.35
660.03	36180.00
660.17	36807.26
660.32	36294.69
660.46	36680.88
660.60	36100.42
660.74	36212.77
660.89	36570.87
661.03	36119.15
661.17	36016.16
661.32	35831.26
661.46	35805.52
661.60	36130.85
661.74	35978.72
661.89	35936.59
662.03	35995.10
662.17	35845.30
662.31	35639.34
662.46	35688.49
662.60	35550.40
662.74	35452.09
662.88	35459.12
663.03	35709.55
663.17	36044.25
663.31	35510.61
663.45	35585.50
663.60	35456.78
663.74	35173.57
663.88	35248.47
664.02	34852.92
664.17	35037.82
664.31	34710.14
664.45	34871.64
664.59	35108.04
664.73	34660.99
664.88	34759.30
665.02	34782.70
665.16	34955.90
665.30	34625.89
665.44	35037.82
665.59	34501.84
665.73	34213.95
665.87	34550.99
666.01	34235.02
666.15	34169.48
666.29	34096.92
666.44	34625.89
666.58	34160.12
666.72	34305.23
666.86	34525.24
667.00	34752.27
667.14	34326.30
667.28	33860.53
667.43	34010.32
667.57	33979.90
667.71	33710.74
667.85	33558.60
667.99	34026.71
668.13	33216.88
668.27	33151.35
668.41	33909.68
668.56	33345.61
668.70	33558.60
668.84	33106.88
668.98	33207.52
669.12	33521.15
669.26	33488.38
669.40	33076.45
669.54	33146.67
669.68	33137.30
669.82	33008.58
669.96	32877.51
670.10	33092.83
670.25	32840.06
670.39	32818.99
670.53	32797.93
670.67	32676.22
670.81	32818.99
670.95	32671.54
671.09	32591.96
671.23	32687.92
671.37	32959.42
671.51	32598.98
671.65	32137.90
671.79	32081.72
671.93	31786.82
672.07	32524.08
672.21	32306.41
672.35	31718.94
672.49	32030.23
672.63	32044.27
672.77	31833.63
672.91	31740.00
673.05	31449.78
673.19	31796.18
673.33	31412.33
673.47	31358.50
673.61	31201.68
673.75	31461.48
673.89	31098.70
674.03	30808.47
674.17	30789.75
674.31	30925.50
674.45	30789.75
674.59	31023.80
674.73	31110.40
674.87	31342.11
675.01	30932.52
675.15	30927.84
675.29	30738.26
675.43	30885.71
675.56	30852.94
675.70	30213.98
675.84	29883.96
675.98	29769.27
676.12	30433.99
676.26	30110.99
676.40	29867.58
676.54	29738.85
676.68	29600.76
676.82	29294.14
676.96	29795.02
677.10	29380.74
677.23	29579.69
677.37	29308.19
677.51	29329.25
677.65	29376.06
677.79	29106.90
677.93	29296.49
678.07	29032.00
678.21	28870.51
678.34	28861.15
678.48	28559.22
678.62	28533.47
678.76	28666.88
678.90	28294.74
679.04	28594.32
679.18	28521.77
679.31	28151.96
679.45	28142.60
679.59	27835.99
679.73	27938.97
679.87	28229.20
680.00	28212.82
680.14	27658.11
680.28	27843.01
680.42	27566.83
680.56	27620.66
680.70	27398.31
680.83	27466.19
680.97	26958.29
681.11	26871.69
681.25	26403.58
681.39	26885.73
681.52	26948.93
681.66	27005.10
681.80	26962.97
681.94	26998.08
682.07	26548.70
682.21	26185.91
682.35	26630.62
682.49	26429.33
682.62	26089.95
682.76	25907.39
682.90	26036.12
683.04	26073.57
683.17	26071.23
683.31	26113.36
683.45	26073.57
683.59	25715.47
683.72	25275.45
683.86	25366.73
684.00	25296.51
684.13	25825.47
684.27	25273.10
684.41	25266.08
684.55	25319.92
684.68	24643.50
684.82	24510.09
684.96	25020.33
685.09	24589.67
685.23	24336.89
685.37	24393.06
685.50	24865.85
685.64	24411.79
685.78	23971.77
685.91	24449.24
686.05	24205.82
686.19	23988.15
686.32	23821.97
686.46	23683.88
686.60	23339.82
686.73	23714.31
686.87	23660.48
687.01	23669.84
687.14	23077.68
687.28	23143.22
687.42	23075.34
687.55	22972.36
687.69	23019.17
687.82	23065.98
687.96	22867.03
688.10	22867.03
688.23	22473.82
688.37	22534.68
688.50	22487.87
688.64	22581.49
688.78	22686.81
688.91	22167.21
689.05	22691.49
689.18	21769.32
689.32	21933.16
689.46	21881.67
689.59	22335.73
689.73	22085.30
689.86	21872.31
690.00	21895.71
690.13	21813.79
690.27	21411.22
690.41	21270.79
690.54	21163.12
690.68	21242.70
690.81	20994.61
690.95	21003.97
691.08	20896.30
691.22	20851.83
691.35	20938.43
691.49	21142.06
691.62	21022.69
691.76	20779.28
691.89	20933.75
692.03	20304.15
692.16	20313.51
692.30	20533.52
692.43	20320.53
692.57	20334.57
692.70	20170.74
692.84	20442.24
692.97	19913.28
693.11	19829.02
693.24	20126.27
693.38	19707.31
693.51	19506.02
693.65	19737.74
693.78	19405.38
693.92	19470.92
694.05	19503.68
694.19	19122.18
694.32	18951.32
694.45	19007.49
694.59	18916.21
694.72	19164.31
694.86	18944.30
694.99	18565.13
695.13	18616.62
695.26	18618.96
695.39	18445.76
695.53	18506.62
695.66	18469.17
695.80	18420.02
695.93	18384.91
696.07	18190.64
696.20	18286.61
696.33	18010.42
696.47	18075.96
696.60	17884.03
696.73	18064.25
696.87	17837.22
697.00	17696.79
697.14	17762.33
697.27	17762.33
697.40	17877.01
697.54	17298.90
697.67	17284.86
697.80	17184.21
697.94	17092.93
698.07	16940.80
698.21	16671.64
698.34	17025.06
698.47	16849.52
698.61	16704.40
698.74	16706.74
698.87	16901.01
699.01	16432.90
699.14	16521.84
699.27	16559.29
699.40	16376.73
699.54	16304.17
699.67	16154.38
699.80	16402.47
699.94	16308.85
700.07	16243.32
700.20	16058.42
700.34	15948.41
700.47	16191.83
700.60	16018.63
700.73	15712.02
700.87	15665.21
701.00	15536.48
701.13	15239.23
701.26	15662.86
701.40	15372.64
701.53	15213.48
701.66	15461.58
701.79	15122.20
701.93	14967.73
702.06	14728.99
702.19	14965.39
702.32	15122.20
702.46	14927.94
702.59	14508.98
702.72	14843.68
702.85	14934.96
702.99	14766.44
703.12	14740.69
703.25	14621.33
703.38	14511.32
703.51	14183.65
703.65	14293.65
703.78	14328.76
703.91	14305.35
704.04	14267.91
704.17	14157.90
704.31	13888.74
704.44	13912.14
704.57	13504.89
704.70	13523.62
704.83	13488.51
704.96	13589.15
705.10	13792.78
705.23	13963.64
>>>>>End Processed Spectral Data<<<<<
