SpectraSuite Data File
++++++++++++++++++++++++++++++++++++
Date: Fri Oct 25 10:48:15 EDT 2013
User: price-jones
Dark Spectrum Present: No
Reference Spectrum Present: No
Number of Sampled Component Spectra: 1
Spectrometers: USB2+H05261
Integration Time (usec): 100000 (USB2+H05261)
Spectra Averaged: 1 (USB2+H05261)
Boxcar Smoothing: 0 (USB2+H05261)
Correct for Electrical Dark: No (USB2+H05261)
Strobe/Lamp Enabled: No (USB2+H05261)
Correct for Detector Non-linearity: No (USB2+H05261)
Correct for Stray Light: No (USB2+H05261)
Number of Pixels in Processed Spectrum: 2048
>>>>>Begin Processed Spectral Data<<<<<
365.73	138.09
365.92	138.09
366.12	138.09
366.32	35.11
366.52	53.83
366.72	79.58
366.91	49.15
367.11	107.66
367.31	11.70
367.51	35.11
367.70	46.81
367.90	46.81
368.10	0.00
368.30	0.00
368.49	0.00
368.69	93.62
368.89	114.69
369.09	65.54
369.28	114.69
369.48	56.17
369.68	145.11
369.87	102.98
370.07	98.30
370.27	159.16
370.47	175.54
370.66	381.51
370.86	332.36
371.06	526.62
371.25	493.85
371.45	493.85
371.65	573.43
371.84	493.85
372.04	484.49
372.24	470.45
372.44	472.79
372.63	587.47
372.83	517.26
373.03	543.00
373.22	547.69
373.42	566.41
373.62	493.85
373.81	566.41
374.01	540.66
374.21	592.16
374.40	559.39
374.60	631.94
374.79	510.24
374.99	617.90
375.19	531.30
375.38	601.52
375.58	622.58
375.78	608.54
375.97	606.20
376.17	636.63
376.37	613.22
376.56	587.47
376.76	645.99
376.95	657.69
377.15	582.79
377.35	552.37
377.54	629.60
377.74	631.94
377.93	697.48
378.13	681.10
378.33	638.97
378.52	655.35
378.72	638.97
378.91	669.39
379.11	624.92
379.31	634.29
379.50	594.50
379.70	613.22
379.89	660.03
380.09	716.20
380.28	683.44
380.48	678.76
380.68	732.59
380.87	657.69
381.07	711.52
381.26	688.12
381.46	627.26
381.65	662.37
381.85	741.95
382.04	685.78
382.24	772.38
382.43	746.63
382.63	706.84
382.83	678.76
383.02	697.48
383.22	737.27
383.41	730.25
383.61	704.50
383.80	650.67
384.00	739.61
384.19	833.23
384.39	791.10
384.58	786.42
384.78	767.70
384.97	716.20
385.17	772.38
385.36	781.74
385.56	828.55
385.75	833.23
385.95	861.32
386.14	851.96
386.34	882.38
386.53	870.68
386.72	849.61
386.92	882.38
387.11	812.17
387.31	875.36
387.50	795.78
387.70	856.64
387.89	866.00
388.09	917.49
388.28	936.21
388.48	964.30
388.67	957.28
388.86	950.26
389.06	931.53
389.25	936.21
389.45	870.68
389.64	973.66
389.84	1020.47
390.03	990.05
390.22	891.74
390.42	938.55
390.61	952.60
390.81	1062.60
391.00	983.02
391.19	1053.24
391.39	1081.33
391.58	1025.15
391.78	999.41
391.97	1055.58
392.16	1006.43
392.36	1004.09
392.55	1062.60
392.75	1048.56
392.94	1029.84
393.13	1004.09
393.33	985.37
393.52	1027.50
393.71	1086.01
393.91	1114.10
394.10	1076.65
394.29	1118.78
394.49	1149.20
394.68	1172.61
394.88	1114.10
395.07	1149.20
395.26	1207.72
395.46	1221.76
395.65	1179.63
395.84	1179.63
396.04	1226.44
396.23	1245.16
396.42	1235.80
396.62	1177.29
396.81	1240.48
397.00	1135.16
397.19	1259.21
397.39	1191.33
397.58	1294.32
397.77	1313.04
397.97	1467.52
398.16	1242.82
398.35	1366.87
398.55	1397.30
398.74	1404.32
398.93	1380.92
399.12	1427.73
399.32	1336.45
399.51	1427.73
399.70	1460.49
399.90	1533.05
400.09	1526.03
400.28	1511.99
400.47	1493.26
400.67	1568.16
400.86	1493.26
401.05	1614.97
401.24	1561.14
401.44	1753.06
401.63	1563.48
401.82	1589.22
402.01	1500.28
402.21	1624.33
402.40	1671.14
402.59	1678.16
402.78	1542.41
402.97	1715.61
403.17	1629.01
403.36	1732.00
403.55	1760.08
403.74	1689.87
403.93	1724.97
404.13	1767.10
404.32	1645.40
404.51	1715.61
404.70	1813.92
404.89	1797.53
405.09	1727.32
405.28	1853.70
405.47	1818.60
405.66	1966.05
405.85	1888.81
406.05	1879.45
406.24	1916.90
406.43	1952.01
406.62	1877.11
406.81	2001.16
407.00	1937.96
407.20	1966.05
407.39	1963.71
407.58	1956.69
407.77	2090.10
407.96	2080.74
408.15	2172.02
408.34	2040.95
408.54	2174.36
408.73	2275.00
408.92	2134.57
409.11	2249.25
409.30	2064.35
409.49	2101.80
409.68	2148.61
409.87	2197.76
410.07	2162.66
410.26	2108.82
410.45	2394.37
410.64	2338.20
410.83	2363.94
411.02	2406.07
411.21	2464.58
411.40	2331.17
411.59	2464.58
411.78	2392.03
411.98	2471.61
412.17	2436.50
412.36	2450.54
412.55	2506.71
412.74	2565.23
412.93	2677.57
413.12	2574.59
413.31	2693.96
413.50	2546.50
413.69	2630.76
413.88	2752.47
414.07	2754.81
414.26	2675.23
414.45	2738.43
414.64	2855.45
414.83	2918.65
415.02	2993.55
415.22	2827.37
415.41	3007.59
415.60	2918.65
415.79	2967.80
415.98	3045.04
416.17	3021.63
416.36	3052.06
416.55	3068.44
416.74	3052.06
416.93	3009.93
417.12	3101.21
417.31	3183.13
417.50	3166.74
417.69	3258.03
417.88	3185.47
418.07	3281.43
418.26	3295.47
418.45	3288.45
418.64	3478.04
418.83	3346.97
419.02	3332.92
419.21	3368.03
419.39	3382.07
419.58	3372.71
419.77	3433.57
419.96	3463.99
420.15	3578.68
420.34	3482.72
420.53	3543.57
420.72	3583.36
420.91	3574.00
421.10	3728.47
421.29	3618.47
421.48	3463.99
421.67	3700.39
421.86	3529.53
422.05	3665.28
422.24	3606.77
422.43	3681.66
422.61	3625.49
422.80	3723.79
422.99	3779.97
423.18	3740.18
423.37	3702.73
423.56	3681.66
423.75	3681.66
423.94	3735.50
424.13	3508.46
424.32	3662.94
424.50	3698.05
424.69	3660.60
424.88	3772.94
425.07	3719.11
425.26	3794.01
425.45	3714.43
425.64	3637.19
425.83	3742.52
426.01	3913.38
426.20	3791.67
426.39	3925.08
426.58	3658.26
426.77	3831.46
426.96	3770.60
427.15	3707.41
427.33	3894.65
427.52	3850.18
427.71	3857.20
427.90	3927.42
428.09	3962.53
428.28	3990.61
428.46	3852.52
428.65	3997.64
428.84	3999.98
429.03	4030.40
429.22	3761.24
429.40	4014.02
429.59	3880.61
429.78	3922.74
429.97	3744.86
430.16	3995.29
430.34	3990.61
430.53	4131.05
430.72	4147.43
430.91	3950.82
431.10	4032.74
431.28	4166.15
431.47	4381.48
431.66	4280.84
431.85	4451.70
432.03	4318.29
432.22	4524.26
432.41	4454.04
432.60	4416.59
432.79	4458.72
432.97	4587.45
433.16	4444.68
433.35	4360.42
433.54	4442.34
433.72	4503.19
433.91	4465.74
434.10	4397.87
434.28	4486.81
434.47	4554.68
434.66	4566.39
434.85	4695.11
435.03	4652.98
435.22	4695.11
435.41	4851.93
435.59	4791.08
435.78	4908.10
435.97	4704.48
436.16	4861.29
436.34	4889.38
436.53	4952.57
436.72	4992.36
436.90	4772.35
437.09	4912.78
437.28	4908.10
437.46	4847.25
437.65	4833.21
437.84	4821.50
438.02	4933.85
438.21	4975.98
438.40	4760.65
438.58	5107.05
438.77	5195.99
438.96	5139.82
439.14	5266.21
439.33	5399.62
439.52	5247.48
439.70	5320.04
439.89	5427.70
440.08	5500.26
440.26	5462.81
440.45	5481.53
440.63	5603.24
440.82	5734.31
441.01	5603.24
441.19	5579.84
441.38	5816.23
441.57	5788.14
441.75	5804.53
441.94	5893.47
442.12	5872.40
442.31	5820.91
442.50	5884.11
442.68	5837.30
442.87	5907.51
443.05	6122.84
443.24	6146.25
443.43	6104.12
443.61	6045.60
443.80	6272.64
443.98	5893.47
444.17	5877.09
444.35	6146.25
444.54	6057.31
444.73	5954.32
444.91	6066.67
445.10	5921.56
445.28	6080.71
445.47	6031.56
445.65	5984.75
445.84	6179.01
446.02	6190.72
446.21	6127.52
446.39	6099.44
446.58	6335.83
446.77	6195.40
446.95	6017.52
447.14	6073.69
447.32	6490.31
447.51	6232.85
447.69	6333.49
447.88	6413.07
448.06	6258.59
448.25	6190.72
448.43	6396.68
448.62	6258.59
448.80	6303.06
448.99	6429.45
449.17	6331.15
449.36	6443.49
449.54	6511.37
449.73	6651.80
449.91	6637.76
450.10	6729.04
450.28	6951.39
450.46	6839.05
450.65	6974.80
450.83	6815.64
451.02	6644.78
451.20	6867.13
451.39	6782.87
451.57	6640.10
451.76	6696.27
451.94	6839.05
452.13	7016.93
452.31	6864.79
452.49	6675.21
452.68	6834.36
452.86	6684.57
453.05	6839.05
453.23	6979.48
453.42	6750.10
453.60	7026.29
453.78	7124.59
453.97	6944.37
454.15	7091.82
454.34	6864.79
454.52	7096.50
454.70	7119.91
454.89	7279.07
455.07	7063.74
455.26	7229.91
455.44	7215.87
455.62	7391.41
455.81	7452.27
455.99	7391.41
456.17	7384.39
456.36	7463.97
456.54	7339.92
456.73	7569.29
456.91	7679.30
457.09	7662.91
457.28	7786.96
457.46	7545.89
457.64	7648.87
457.83	7613.76
458.01	7442.90
458.19	7709.72
458.38	7641.85
458.56	7770.58
458.74	7723.77
458.93	7845.48
459.11	7707.38
459.29	7665.25
459.48	7793.98
459.66	7735.47
459.84	7852.50
460.03	7978.89
460.21	8067.83
460.39	7943.78
460.57	7983.57
460.76	8114.64
460.94	8236.35
461.12	8149.75
461.31	8138.04
461.49	8044.42
461.67	8163.79
461.85	8437.63
462.04	8287.84
462.22	8926.80
462.40	8360.39
462.59	8383.80
462.77	8320.60
462.95	8400.18
463.13	8252.73
463.32	8465.72
463.50	8659.98
463.68	8526.57
463.86	8568.70
464.05	8283.16
464.23	8383.80
464.41	8386.14
464.59	8367.42
464.78	8636.58
464.96	8526.57
465.14	8479.76
465.32	8627.21
465.50	8744.24
465.69	8713.81
465.87	8559.34
466.05	8643.60
466.23	8685.73
466.41	8896.38
466.60	8966.59
466.78	8568.70
466.96	8795.73
467.14	8903.40
467.32	8819.14
467.51	8933.82
467.69	9006.38
467.87	8835.52
468.05	8971.27
468.23	8964.25
468.41	8968.93
468.60	9020.42
468.78	8973.61
468.96	9004.04
469.14	9387.89
469.32	9235.75
469.50	9039.15
469.69	9282.56
469.87	9191.28
470.05	9137.45
470.23	9205.33
470.41	9317.67
470.59	9533.00
470.77	9533.00
470.95	9430.02
471.14	9607.90
471.32	9406.61
471.50	9603.22
471.68	9696.84
471.86	9834.93
472.04	9607.90
472.22	10087.71
472.40	9851.31
472.58	9802.16
472.77	9973.02
472.95	10031.54
473.13	10303.04
473.31	9947.28
473.49	9893.44
473.67	10249.21
473.85	10331.12
474.03	10272.61
474.21	10420.06
474.39	10448.15
474.57	10487.94
474.75	10628.37
474.93	10693.91
475.12	10478.58
475.30	10626.03
475.48	10707.95
475.66	10764.12
475.84	10799.23
476.02	10977.11
476.20	10721.99
476.38	11180.74
476.56	11108.18
476.74	11154.99
476.92	11154.99
477.10	11241.59
477.28	11267.34
477.46	11609.06
477.64	11452.24
477.82	11915.67
478.00	11922.69
478.18	11873.54
478.36	12058.44
478.54	11906.31
478.72	12196.53
478.90	12336.96
479.08	12439.95
479.26	12418.88
479.44	12477.40
479.62	12638.89
479.80	12730.17
479.98	12690.38
480.16	12877.63
480.34	12678.68
480.52	13111.68
480.70	13099.98
480.88	12929.12
481.06	13284.88
481.24	12989.97
481.41	13383.18
481.59	13799.80
481.77	13586.81
481.95	13830.23
482.13	13722.56
482.31	13893.42
482.49	13956.61
482.67	14190.67
482.85	14272.59
483.03	14476.21
483.21	14497.28
483.39	14803.89
483.57	14640.05
483.74	14537.07
483.92	14817.93
484.10	14661.12
484.28	14836.66
484.46	15241.57
484.64	15644.14
484.82	15342.21
485.00	15431.15
485.18	15737.76
485.35	15946.07
485.53	15431.15
485.71	15541.16
485.89	15751.81
486.07	15988.20
486.25	16168.42
486.43	16166.08
486.61	16311.19
486.78	16606.10
486.96	16393.11
487.14	16793.34
487.32	17064.85
487.50	17343.37
487.68	17259.11
487.85	17769.35
488.03	17715.51
488.21	17806.80
488.39	17633.60
488.57	18153.20
488.75	17797.43
488.92	18146.17
489.10	18565.13
489.28	18469.17
489.46	18703.22
489.64	18759.39
489.81	19082.39
489.99	18897.49
490.17	19566.88
490.35	19946.05
490.53	19592.62
490.70	19295.38
490.88	19665.18
491.06	19814.98
491.24	19796.25
491.41	19910.94
491.59	19896.89
491.77	19775.19
491.95	20154.35
492.13	20421.17
492.30	20659.91
492.48	20512.46
492.66	20760.55
492.84	20744.17
493.01	21469.73
493.19	20957.16
493.37	21406.54
493.54	21376.11
493.72	21703.79
493.90	21612.51
494.08	21884.01
494.25	22024.44
494.43	22382.54
494.61	22129.77
494.79	22443.40
494.96	22108.70
495.14	22443.40
495.32	22705.54
495.49	22885.76
495.67	23042.57
495.85	23264.92
496.02	23087.04
496.20	23021.51
496.38	23548.13
496.55	23414.72
496.73	23850.06
496.91	23690.90
497.09	23623.03
497.26	24154.33
497.44	23569.19
497.62	24060.71
497.79	24556.90
497.97	24278.38
498.14	24664.57
498.32	24463.28
498.50	24486.68
498.67	24856.49
498.85	24821.38
499.03	25083.52
499.20	25462.69
499.38	25310.55
499.56	24982.88
499.73	25371.41
499.91	25827.81
500.08	25696.74
500.26	25261.40
500.44	25720.15
500.61	25692.06
500.79	25350.34
500.97	25865.26
501.14	26214.00
501.32	25893.35
501.49	25902.71
501.67	25996.33
501.84	26312.30
502.02	26214.00
502.20	26639.98
502.37	26827.22
502.55	26735.94
502.72	26806.16
502.90	27005.10
503.07	27115.11
503.25	26951.27
503.43	27260.22
503.60	27147.87
503.78	27035.53
503.95	27012.12
504.13	26995.74
504.30	27400.65
504.48	27578.53
504.65	27639.39
504.83	28170.69
505.01	28285.37
505.18	27875.78
505.36	28168.35
505.53	28290.06
505.71	28311.12
505.88	28093.45
506.06	28343.89
506.23	28364.95
506.41	28521.77
506.58	28762.84
506.76	28734.76
506.93	28987.53
507.11	29111.58
507.28	29123.29
507.46	28816.68
507.63	28697.31
507.81	29263.72
507.98	28957.11
508.16	29163.08
508.33	29799.70
508.50	29406.49
508.68	29984.60
508.85	29876.94
509.03	30122.69
509.20	29797.36
509.38	29830.13
509.55	30092.27
509.73	30375.47
509.90	30249.08
510.08	29631.18
510.25	30160.14
510.42	30579.10
510.60	30698.47
510.77	30665.70
510.95	31089.34
511.12	30883.37
511.30	31012.10
511.47	31168.91
511.64	31325.73
511.82	31604.25
511.99	31103.38
512.17	31185.30
512.34	30895.07
512.51	31587.87
512.69	31718.94
512.86	31569.15
513.04	31931.93
513.21	31842.99
513.38	31580.85
513.56	31311.69
513.73	31704.90
513.90	31758.73
514.08	31552.76
514.25	31903.84
514.43	32091.09
514.60	32156.62
514.77	31899.16
514.95	32264.28
515.12	32259.60
515.29	32215.13
515.47	32830.69
515.64	33064.75
515.81	32746.44
515.99	32683.24
516.16	32804.95
516.33	32545.15
516.51	33092.83
516.68	32126.19
516.85	32212.79
517.03	32683.24
517.20	32783.88
517.37	33123.26
517.54	33139.65
517.72	33462.64
517.89	33380.72
518.06	33198.16
518.24	33322.21
518.41	33439.23
518.58	33497.75
518.75	33326.89
518.93	34085.22
519.10	33841.81
519.27	33537.54
519.45	34005.64
519.62	34316.93
519.79	34316.93
519.96	34471.41
520.14	34338.00
520.31	34157.78
520.48	34448.00
520.65	34267.78
520.83	34586.10
521.00	35267.19
521.17	35136.12
521.34	34986.33
521.52	34778.02
521.69	34855.26
521.86	35416.99
522.03	34918.45
522.20	34909.09
522.38	35187.61
522.55	35489.54
522.72	35314.00
522.89	35147.82
523.07	35344.43
523.24	35243.79
523.41	35955.31
523.58	35569.12
523.75	36362.56
523.92	36020.84
524.10	36009.14
524.27	36257.24
524.44	36140.21
524.61	36201.07
524.78	36538.10
524.96	36437.46
525.13	36524.06
525.30	36584.91
525.47	36964.08
525.64	36407.03
525.81	36549.81
525.98	36282.98
526.16	36114.47
526.33	36210.43
526.50	36818.97
526.67	36835.35
526.84	36793.22
527.01	36301.71
527.18	36821.31
527.36	37336.23
527.53	36664.49
527.70	37560.92
527.87	37097.49
528.04	37067.06
528.21	37546.87
528.38	37085.79
528.55	37324.52
528.72	37619.43
528.89	37790.29
529.07	37591.34
529.24	37481.34
529.41	38148.39
529.58	37345.59
529.75	37787.95
529.92	38148.39
530.09	37457.93
530.26	38249.03
530.43	37937.74
530.60	38071.15
530.77	37727.10
530.94	38122.65
531.11	38525.22
531.28	38192.86
531.46	38480.75
531.63	38476.07
531.80	38335.63
531.97	38209.25
532.14	37839.44
532.31	38279.46
532.48	38476.07
532.65	38649.27
532.82	38583.73
532.99	38913.75
533.16	38424.57
533.33	38323.93
533.50	38735.87
533.67	38733.53
533.84	38899.70
534.01	38602.46
534.18	39225.04
534.35	39243.76
534.52	38960.56
534.69	39374.83
534.86	39597.18
535.03	39150.14
535.20	39716.55
535.37	39489.52
535.54	39864.00
535.71	39402.92
535.88	39821.87
536.05	39641.65
536.22	39871.03
536.38	39711.87
536.55	39353.77
536.72	39686.12
536.89	39580.80
537.06	39768.04
537.23	39658.04
537.40	40229.13
537.57	39903.79
537.74	40048.91
537.91	40175.30
538.08	40128.48
538.25	39934.22
538.42	40004.44
538.59	40493.61
538.75	39929.54
538.92	40385.94
539.09	40367.22
539.26	40414.03
539.43	40165.93
539.60	40353.18
539.77	39924.86
539.94	40500.63
540.11	40388.28
540.28	40463.18
540.44	40320.41
540.61	40018.48
540.78	40268.92
540.95	40657.45
541.12	40194.02
541.29	41242.58
541.46	40680.85
541.62	41181.73
541.79	41022.57
541.96	40456.16
542.13	41064.70
542.30	41315.14
542.47	40645.74
542.63	40980.44
542.80	40858.73
542.97	41394.71
543.14	41883.89
543.31	41633.45
543.48	41558.55
543.64	42010.28
543.81	42141.35
543.98	41329.18
544.15	41565.57
544.32	42153.05
544.48	42260.71
544.65	41766.86
544.82	41778.56
544.99	41769.20
545.16	42181.13
545.32	42080.49
545.49	42185.82
545.66	41998.57
545.83	42398.80
546.00	42284.12
546.16	41996.23
546.33	42134.32
546.50	41935.38
546.67	42209.22
546.83	41729.41
547.00	42398.80
547.17	41930.70
547.34	42127.30
547.50	42637.54
547.67	42965.21
547.84	42756.91
548.00	42705.41
548.17	42777.97
548.34	42831.80
548.51	42864.57
548.67	43215.65
548.84	43210.97
549.01	42241.99
549.18	42595.41
549.34	42841.17
549.51	42806.06
549.68	43442.68
549.84	43068.20
550.01	43159.48
550.18	42700.73
550.34	42965.21
550.51	42997.98
550.68	42667.97
550.84	42548.60
551.01	42918.40
551.18	43330.34
551.34	43222.67
551.51	43166.50
551.68	43119.69
551.84	43742.27
552.01	43349.06
552.18	43459.07
552.34	43033.09
552.51	43540.99
552.68	43117.35
552.84	43576.09
553.01	43779.72
553.18	43859.30
553.34	43484.81
553.51	43129.05
553.67	43578.43
553.84	43625.25
554.01	43585.46
554.17	44016.11
554.34	44048.88
554.51	43613.54
554.67	44081.65
554.84	43798.44
555.00	43487.15
555.17	43948.24
555.33	43964.62
555.50	43833.55
555.67	43903.77
555.83	43772.70
556.00	44037.18
556.16	44360.17
556.33	44226.76
556.50	44051.22
556.66	44083.99
556.83	44212.72
556.99	44130.80
557.16	44725.30
557.32	44306.34
557.49	44521.67
557.65	43847.60
557.82	44039.52
557.98	44247.83
558.15	44289.96
558.32	44388.26
558.48	44219.74
558.65	44051.22
558.81	44182.29
558.98	44612.95
559.14	44289.96
559.31	44369.54
559.47	45071.70
559.64	44325.07
559.80	45067.02
559.97	44430.39
560.13	44280.60
560.30	44643.38
560.46	44645.72
560.63	44652.74
560.79	44570.82
560.96	44477.20
561.12	44538.05
561.29	44704.23
561.45	44231.44
561.61	44538.05
561.78	44598.91
561.94	44268.89
562.11	44669.12
562.27	44898.50
562.44	44797.85
562.60	45099.78
562.77	45022.54
562.93	44711.25
563.10	45001.48
563.26	44470.18
563.42	45071.70
563.59	44463.16
563.75	44842.32
563.92	45228.51
564.08	45195.74
564.24	44971.05
564.41	44748.70
564.57	44652.74
564.74	44655.08
564.90	45177.02
565.07	45188.72
565.23	44563.80
565.39	45319.79
565.56	45074.04
565.72	44851.69
565.88	44811.90
566.05	44947.65
566.21	44964.03
566.38	44921.90
566.54	45324.47
566.70	45448.52
566.87	45237.87
567.03	44973.39
567.19	45413.41
567.36	44996.80
567.52	45071.70
567.68	45549.17
567.85	44797.85
568.01	45413.41
568.17	44882.11
568.34	45298.73
568.50	45195.74
568.66	45015.52
568.83	45104.46
568.99	44624.65
569.15	45006.16
569.32	45102.12
569.48	45090.42
569.64	45668.53
569.81	45193.40
569.97	45059.99
570.13	45411.07
570.30	44814.24
570.46	45509.38
570.62	45172.34
570.78	44516.99
570.95	45347.88
571.11	45485.97
571.27	45038.93
571.43	45574.91
571.60	45361.92
571.76	45144.25
571.92	45272.98
572.09	45350.22
572.25	45249.58
572.41	45516.40
572.57	45418.10
572.74	45923.65
572.90	45038.93
573.06	45029.57
573.22	45268.30
573.38	45394.69
573.55	45500.01
573.71	45212.13
573.87	45127.87
574.03	45298.73
574.20	45361.92
574.36	45148.93
574.52	45476.61
574.68	45244.90
574.84	45460.23
575.01	45223.83
575.17	45200.43
575.33	45467.25
575.49	45235.53
575.65	45762.15
575.82	45509.38
575.98	45640.45
576.14	45837.05
576.30	45397.03
576.46	45818.33
576.62	45097.44
576.79	45162.98
576.95	45146.59
577.11	45439.16
577.27	45310.43
577.43	45607.68
577.59	45235.53
577.75	45024.89
577.92	44680.83
578.08	45177.02
578.24	44795.51
578.40	45137.23
578.56	45092.76
578.72	45825.35
578.88	45551.51
579.04	45869.82
579.21	45097.44
579.37	45303.41
579.53	45390.01
579.69	45188.72
579.85	45436.82
580.01	45188.72
580.17	45682.58
580.33	45794.92
580.49	45631.08
580.65	46012.59
580.82	45897.91
580.98	45925.99
581.14	45783.22
581.30	45701.30
581.46	45574.91
581.62	45593.64
581.78	45390.01
581.94	45844.07
582.10	45748.11
582.26	45944.72
582.42	45773.86
582.58	45516.40
582.74	45675.55
582.90	45820.67
583.06	45443.84
583.22	45907.27
583.38	45804.28
583.54	45776.20
583.70	45668.53
583.86	45684.92
584.02	45312.77
584.18	45563.21
584.34	45694.28
584.50	45680.24
584.66	45539.80
584.82	45357.24
584.98	45794.92
585.14	45855.78
585.30	45610.02
585.46	45797.26
585.62	45823.01
585.78	45666.19
585.94	45277.66
586.10	45263.62
586.26	45647.47
586.42	45759.81
586.58	45815.99
586.74	45909.61
586.90	45263.62
587.06	45720.02
587.22	45914.29
587.38	45483.63
587.54	46010.25
587.70	45897.91
587.86	45764.49
588.02	45605.34
588.18	45780.88
588.34	45736.41
588.49	45518.74
588.65	45174.68
588.81	45375.97
588.97	45354.90
589.13	45333.84
589.29	45450.86
589.45	45036.59
589.61	45750.45
589.77	45794.92
589.93	45617.04
590.08	46106.21
590.24	46014.93
590.40	45961.10
590.56	46279.41
590.72	45453.20
590.88	45570.23
591.04	46017.27
591.20	46068.76
591.35	45998.55
591.51	45794.92
591.67	46050.04
591.83	46007.91
591.99	45139.57
592.15	45883.86
592.31	45949.40
592.46	45736.41
592.62	45970.46
592.78	45827.69
592.94	45584.27
593.10	45893.22
593.26	46136.64
593.41	45696.62
593.57	45986.85
593.73	46012.59
593.89	46045.36
594.05	45869.82
594.20	45904.93
594.36	45729.39
594.52	45677.90
594.68	45558.53
594.84	46241.96
594.99	46167.07
595.15	46131.96
595.31	45970.46
595.47	46216.22
595.62	45862.80
595.78	45827.69
595.94	46246.65
596.10	46253.67
596.25	46131.96
596.41	45778.54
596.57	46274.73
596.73	45975.14
596.88	45687.26
597.04	46277.07
597.20	45581.93
597.36	45921.31
597.51	46679.64
597.67	45965.78
597.83	45984.51
597.99	46092.17
598.14	46054.72
598.30	45998.55
598.46	45921.31
598.61	46071.10
598.77	45490.65
598.93	46143.66
599.09	45958.76
599.24	46244.30
599.40	45930.67
599.56	45666.19
599.71	45687.26
599.87	45925.99
600.03	46045.36
600.18	45897.91
600.34	45703.64
600.50	46155.36
600.65	45792.58
600.81	46347.29
600.97	46003.23
601.12	46506.44
601.28	45226.17
601.44	45825.35
601.59	45968.12
601.75	45577.25
601.91	45996.21
602.06	45553.85
602.22	45902.59
602.37	46087.49
602.53	45839.39
602.69	46220.90
602.84	46146.00
603.00	46150.68
603.16	45862.80
603.31	45933.01
603.47	46349.63
603.62	45986.85
603.78	46078.13
603.94	46012.59
604.09	46080.47
604.25	45879.18
604.40	46148.34
604.56	45769.18
604.71	46122.60
604.87	45851.09
605.03	45853.44
605.18	45991.53
605.34	45670.87
605.49	45584.27
605.65	45778.54
605.80	45745.77
605.96	45808.96
606.12	46021.95
606.27	46340.27
606.43	45439.16
606.58	45717.68
606.74	45581.93
606.89	45787.90
607.05	45485.97
607.20	45483.63
607.36	45481.29
607.51	46096.85
607.67	45546.82
607.82	45841.73
607.98	45844.07
608.13	45663.85
608.29	45811.31
608.44	45378.31
608.60	45148.93
608.75	45303.41
608.91	45464.91
609.06	45471.93
609.22	45827.69
609.37	45530.44
609.53	45729.39
609.68	45633.42
609.84	45523.42
609.99	45551.51
610.15	45315.11
610.30	45242.56
610.46	45392.35
610.61	45495.33
610.76	45270.64
610.92	45247.24
611.07	45322.13
611.23	45137.23
611.38	45043.61
611.54	45029.57
611.69	45247.24
611.84	45263.62
612.00	45406.39
612.15	45165.32
612.31	45219.15
612.46	45308.09
612.62	45275.32
612.77	45041.27
612.92	45308.09
613.08	45036.59
613.23	45179.36
613.39	44786.15
613.54	44596.57
613.69	45013.18
613.85	45050.63
614.00	45340.86
614.15	45406.39
614.31	45165.32
614.46	45247.24
614.62	45212.13
614.77	45148.93
614.92	44856.37
615.08	45059.99
615.23	45088.08
615.38	44755.72
615.54	44570.82
615.69	44622.31
615.84	44250.17
616.00	44552.10
616.15	44533.37
616.30	44708.91
616.46	44692.53
616.61	44493.58
616.76	44687.85
616.92	44453.79
617.07	44357.83
617.22	44308.68
617.37	44858.71
617.53	44460.82
617.68	44369.54
617.83	44285.28
617.99	44493.58
618.14	44245.49
618.29	44299.32
618.45	44458.48
618.60	44409.32
618.75	44629.34
618.90	44329.75
619.06	44163.57
619.21	44416.35
619.36	43990.37
619.51	44486.56
619.67	43894.41
619.82	44409.32
619.97	44538.05
620.12	44224.42
620.28	43440.34
620.43	44315.70
620.58	43622.90
620.73	44128.46
620.89	43674.40
621.04	43917.81
621.19	44095.69
621.34	44093.35
621.49	43430.98
621.65	43646.31
621.80	44034.84
621.95	43585.46
622.10	43585.46
622.25	43931.86
622.41	43395.87
622.56	43526.94
622.71	44023.14
622.86	43426.30
623.01	43737.59
623.16	43686.10
623.32	44158.89
623.47	43658.01
623.62	43807.81
623.77	43730.57
623.92	43395.87
624.07	43304.59
624.23	43459.07
624.38	43522.26
624.53	43105.65
624.68	43433.32
624.83	43484.81
624.98	43552.69
625.13	43173.52
625.29	43281.19
625.44	43578.43
625.59	43014.37
625.74	42887.98
625.89	42646.90
626.04	42726.48
626.19	43044.79
626.34	42866.91
626.49	42979.26
626.65	43084.58
626.80	42920.74
626.95	42602.43
627.10	42735.84
627.25	42810.74
627.40	42515.83
627.55	42649.24
627.70	42139.00
627.85	42646.90
628.00	42314.55
628.15	42810.74
628.30	42728.82
628.45	42742.86
628.60	42822.44
628.76	42553.28
628.91	42883.30
629.06	42586.05
629.21	42344.97
629.36	42443.27
629.51	42305.18
629.66	42438.59
629.81	42153.05
629.96	42211.56
630.11	42562.64
630.26	42356.67
630.41	42178.79
630.56	42417.53
630.71	42447.96
630.86	42218.58
631.01	42155.39
631.16	42239.65
631.31	41954.10
631.46	41617.07
631.61	42054.75
631.76	42019.64
631.91	41832.39
632.06	42249.01
632.21	42316.89
632.36	42274.76
632.51	41656.85
632.66	41949.42
632.81	41481.31
632.96	41596.00
633.10	41174.70
633.25	41467.27
633.40	41600.68
633.55	41869.84
633.70	41469.61
633.85	41619.41
634.00	41539.83
634.15	41731.75
634.30	41343.22
634.45	42059.43
634.60	41467.27
634.75	41823.03
634.90	41404.08
635.05	41460.25
635.19	41329.18
635.34	42087.51
635.49	41619.41
635.64	41525.78
635.79	41102.15
635.94	41230.88
636.09	41626.43
636.24	40942.99
636.39	41144.28
636.53	41425.14
636.68	41331.52
636.83	41043.63
636.98	41151.30
637.13	40694.89
637.28	41083.42
637.43	41174.70
637.57	41406.42
637.72	41064.70
637.87	40996.82
638.02	41151.30
638.17	41027.25
638.32	40790.86
638.46	40273.60
638.61	40793.20
638.76	40891.50
638.91	40870.43
639.06	40575.53
639.20	40580.21
639.35	41390.03
639.50	40502.97
639.65	41017.89
639.80	40395.31
639.94	40952.35
640.09	40196.36
640.24	40444.46
640.39	40273.60
640.54	40315.73
640.68	40023.16
640.83	40589.57
640.98	40088.70
641.13	40315.73
641.27	40517.01
641.42	40304.02
641.57	40390.62
641.72	40776.81
641.86	39999.76
642.01	39608.89
642.16	40133.17
642.31	39248.44
642.45	40032.52
642.60	39915.50
642.75	39653.36
642.90	40147.21
643.04	40018.48
643.19	40212.74
643.34	40449.14
643.48	40474.88
643.63	39786.77
643.78	39880.39
643.93	39550.37
644.07	39487.18
644.22	39756.34
644.37	39697.83
644.51	39599.52
644.66	39679.10
644.81	39730.59
644.95	39555.05
645.10	39899.11
645.25	39576.12
645.39	39704.85
645.54	39732.93
645.69	39445.05
645.83	39959.97
645.98	39749.32
646.13	39955.29
646.27	39431.01
646.42	39587.82
646.57	39405.26
646.71	39590.16
646.86	39395.90
647.00	39639.31
647.15	39260.15
647.30	39339.72
647.44	39494.20
647.59	39253.12
647.74	39353.77
647.88	38927.79
648.03	38665.65
648.17	39136.10
648.32	38852.89
648.47	39463.77
648.61	38785.02
648.76	39321.00
648.90	39297.59
649.05	39248.44
649.20	39110.35
649.34	39068.22
649.49	39398.24
649.63	38852.89
649.78	38995.67
649.92	38749.91
650.07	39438.03
650.21	38941.83
650.36	38801.40
650.51	38756.93
650.65	38899.70
650.80	39002.69
650.94	38609.48
651.09	38693.74
651.23	38588.41
651.38	38649.27
651.52	38504.15
651.67	38775.66
651.81	38455.00
651.96	38319.25
652.10	38459.68
652.25	38164.78
652.39	38347.34
652.54	38375.42
652.68	38274.78
652.83	38230.31
652.97	38785.02
653.12	38471.39
653.26	38555.64
653.41	38305.21
653.55	38099.24
653.70	37591.34
653.84	38024.34
653.99	38429.26
654.13	38171.80
654.27	38064.13
654.42	38333.29
654.56	38213.93
654.71	38115.62
654.85	37975.19
655.00	37979.87
655.14	37851.14
655.29	37652.20
655.43	37586.66
655.57	37120.90
655.72	37361.97
655.86	37916.68
656.01	37486.02
656.15	37486.02
656.30	37200.47
656.44	37429.85
656.58	37275.37
656.73	37404.10
656.87	37289.42
657.01	37109.19
657.16	37284.73
657.30	37504.74
657.45	36935.99
657.59	37563.26
657.73	37591.34
657.88	37479.00
658.02	37432.19
658.16	37247.29
658.31	37488.36
658.45	37439.21
658.60	37097.49
658.74	37511.77
658.88	37263.67
659.03	36725.35
659.17	37104.51
659.31	36503.00
659.46	36884.50
659.60	36863.44
659.74	36870.46
659.89	36423.42
660.03	36224.47
660.17	37027.28
660.32	36605.98
660.46	37024.93
660.60	36851.73
660.74	36858.76
660.89	36683.22
661.03	36528.74
661.17	36500.65
661.32	35943.61
661.46	36367.24
661.60	35775.09
661.74	36346.18
661.89	36697.26
662.03	36474.91
662.17	36109.78
662.31	35742.32
662.46	36282.98
662.60	36306.39
662.74	35842.96
662.88	35641.68
663.03	35779.77
663.17	35756.36
663.31	35772.75
663.45	35922.54
663.60	35611.25
663.74	35475.50
663.88	35672.10
664.02	35304.64
664.17	35555.08
664.31	35386.56
664.45	34866.96
664.59	35676.79
664.73	35337.41
664.88	35264.85
665.02	35388.90
665.16	35395.92
665.30	35168.89
665.44	35204.00
665.59	34824.83
665.73	34962.92
665.87	34670.36
666.01	34892.71
666.15	34712.49
666.29	34653.97
666.44	35042.50
666.58	34532.26
666.72	34597.80
666.86	34808.45
667.00	34506.52
667.14	34478.43
667.28	33986.92
667.43	34199.91
667.57	34405.88
667.71	34295.87
667.85	34068.84
667.99	33993.94
668.13	33867.55
668.27	33799.68
668.41	33802.02
668.56	33909.68
668.70	33926.07
668.84	34033.73
668.98	33418.17
669.12	33759.89
669.26	33432.21
669.40	33469.66
669.54	33694.35
669.68	33586.69
669.82	33261.35
669.96	32971.13
670.10	33149.01
670.25	32884.53
670.39	33046.02
670.53	33001.55
670.67	32622.39
670.81	33053.05
670.95	33097.52
671.09	33132.62
671.23	32694.94
671.37	33123.26
671.51	33092.83
671.65	32657.49
671.79	32720.69
671.93	32453.87
672.07	32547.49
672.21	32481.95
672.35	32327.48
672.49	32306.41
672.63	32343.86
672.77	32158.96
672.91	32343.86
673.05	32133.21
673.19	31798.52
673.33	31978.74
673.47	32032.57
673.61	32175.34
673.75	31700.22
673.89	30993.37
674.03	31377.22
674.17	31339.77
674.31	31377.22
674.45	31349.14
674.59	31402.97
674.73	31248.49
674.87	31171.25
675.01	31358.50
675.15	31152.53
675.29	31173.60
675.43	31101.04
675.56	31079.97
675.70	30773.36
675.84	30789.75
675.98	29912.05
676.12	30878.69
676.26	30132.06
676.40	30473.78
676.54	30178.87
676.68	29923.75
676.82	29785.66
676.96	29949.50
677.10	29848.85
677.23	29617.14
677.37	29816.08
677.51	29610.12
677.65	29797.36
677.79	29532.88
677.93	29612.46
678.07	29380.74
678.21	29380.74
678.34	29347.98
678.48	28952.43
678.62	28556.88
678.76	28606.03
678.90	28957.11
679.04	28912.64
679.18	28926.68
679.31	28112.17
679.45	28411.76
679.59	27901.53
679.73	28102.81
679.87	28428.15
680.00	28147.28
680.14	27887.48
680.28	27843.01
680.42	27814.93
680.56	27709.60
680.70	27861.74
680.83	27772.80
680.97	27180.64
681.11	27517.68
681.25	26946.59
681.39	27339.80
681.52	27285.97
681.66	27112.77
681.80	27316.39
681.94	27035.53
682.07	27042.55
682.21	26668.06
682.35	26616.57
682.49	26590.83
682.62	26937.23
682.76	26356.77
682.90	26335.71
683.04	26569.76
683.17	26199.96
683.31	25940.16
683.45	26199.96
683.59	25717.81
683.72	25607.80
683.86	25874.62
684.00	25401.83
684.13	25769.30
684.27	25511.84
684.41	25757.60
684.55	25317.57
684.68	25167.78
684.82	24982.88
684.96	24849.47
685.09	25078.84
685.23	24807.34
685.37	24870.53
685.50	24819.04
685.64	24851.81
685.78	24638.82
685.91	24680.95
686.05	24559.24
686.19	24493.71
686.32	23948.36
686.46	23852.40
686.60	23601.96
686.73	23798.57
686.87	23337.48
687.01	23468.55
687.14	23435.78
687.28	23239.18
687.42	23470.89
687.55	23236.84
687.69	23077.68
687.82	23110.45
687.96	23152.58
688.10	22948.95
688.23	22677.45
688.37	22691.49
688.50	22632.98
688.64	22492.55
688.78	22441.06
688.91	22211.68
689.05	22174.24
689.18	22274.88
689.32	21947.20
689.46	22457.44
689.59	22218.71
689.73	22015.08
689.86	22061.89
690.00	21795.07
690.13	21965.93
690.27	21713.15
690.41	21682.72
690.54	21523.57
690.68	21549.31
690.81	21263.77
690.95	21373.77
691.08	20975.88
691.22	21242.70
691.35	21069.50
691.49	21343.35
691.62	21123.33
691.76	20975.88
691.89	20847.15
692.03	20819.07
692.16	20699.70
692.30	20905.66
692.43	20449.26
692.57	20805.02
692.70	20418.83
692.84	20383.73
692.97	20393.09
693.11	20086.48
693.24	19676.88
693.38	19868.81
693.51	19557.52
693.65	19679.22
693.78	19737.74
693.92	19548.15
694.05	19183.03
694.19	19487.30
694.32	19353.89
694.45	19435.81
694.59	19386.66
694.72	19145.58
694.86	19063.66
694.99	18518.32
695.13	18712.58
695.26	18405.97
695.39	18834.29
695.53	18740.67
695.66	18817.91
695.80	18455.12
695.93	18377.89
696.07	18003.40
696.20	18602.58
696.33	18450.44
696.47	18040.85
696.60	18223.41
696.73	18157.88
696.87	17909.78
697.00	18104.04
697.14	17738.92
697.27	17701.47
697.40	18043.19
697.54	17596.15
697.67	17481.46
697.80	17432.31
697.94	17090.59
698.07	17067.19
698.21	16919.73
698.34	17167.83
698.47	16924.41
698.61	16783.98
698.74	16774.62
698.87	16851.86
699.01	16690.36
699.14	16847.18
699.27	16390.77
699.40	16606.10
699.54	16404.81
699.67	16149.70
699.80	16079.48
699.94	16215.23
700.07	16187.14
700.20	16173.10
700.34	15866.49
700.47	16037.35
700.60	16203.53
700.73	16070.12
700.87	15910.96
701.00	15440.51
701.13	15971.82
701.26	15513.07
701.40	15782.23
701.53	15339.87
701.66	15374.98
701.79	15410.09
701.93	15311.78
702.06	14995.81
702.19	14956.02
702.32	15129.22
702.46	14719.63
702.59	14869.42
702.72	14904.53
702.85	14808.57
702.99	14864.74
703.12	14846.02
703.25	14647.07
703.38	14677.50
703.51	14728.99
703.65	14387.27
703.78	14286.63
703.91	14427.06
704.04	14324.08
704.17	14160.24
704.31	14242.16
704.44	13900.44
704.57	13879.38
704.70	13668.73
704.83	13757.67
704.96	14087.68
705.10	14157.90
705.23	13802.14
>>>>>End Processed Spectral Data<<<<<
