SpectraSuite Data File
++++++++++++++++++++++++++++++++++++
Date: Fri Oct 25 10:44:03 EDT 2013
User: price-jones
Dark Spectrum Present: No
Reference Spectrum Present: No
Number of Sampled Component Spectra: 1
Spectrometers: USB2+H05261
Integration Time (usec): 100000 (USB2+H05261)
Spectra Averaged: 1 (USB2+H05261)
Boxcar Smoothing: 0 (USB2+H05261)
Correct for Electrical Dark: No (USB2+H05261)
Strobe/Lamp Enabled: No (USB2+H05261)
Correct for Detector Non-linearity: No (USB2+H05261)
Correct for Stray Light: No (USB2+H05261)
Number of Pixels in Processed Spectrum: 2048
>>>>>Begin Processed Spectral Data<<<<<
365.73	182.56
365.92	182.56
366.12	182.56
366.32	18.72
366.52	23.41
366.72	0.00
366.91	0.00
367.11	0.00
367.31	25.75
367.51	0.00
367.70	53.83
367.90	11.70
368.10	51.49
368.30	49.15
368.49	117.03
368.69	2.34
368.89	60.85
369.09	100.64
369.28	81.92
369.48	0.00
369.68	14.04
369.87	117.03
370.07	81.92
370.27	140.43
370.47	147.45
370.66	353.42
370.86	416.62
371.06	486.83
371.25	447.04
371.45	407.25
371.65	500.87
371.84	433.00
372.04	470.45
372.24	489.17
372.44	535.98
372.63	505.56
372.83	491.51
373.03	512.58
373.22	566.41
373.42	514.92
373.62	503.22
373.81	596.84
374.01	622.58
374.21	608.54
374.40	610.88
374.60	510.24
374.79	608.54
374.99	634.29
375.19	627.26
375.38	634.29
375.58	624.92
375.78	699.82
375.97	610.88
376.17	664.71
376.37	535.98
376.56	657.69
376.76	608.54
376.95	638.97
377.15	678.76
377.35	699.82
377.54	678.76
377.74	610.88
377.93	650.67
378.13	720.88
378.33	676.41
378.52	676.41
378.72	692.80
378.91	660.03
379.11	650.67
379.31	620.24
379.50	671.73
379.70	634.29
379.89	744.29
380.09	690.46
380.28	737.27
380.48	716.20
380.68	739.61
380.87	730.25
381.07	711.52
381.26	702.16
381.46	781.74
381.65	648.33
381.85	716.20
382.04	809.83
382.24	734.93
382.43	723.23
382.63	699.82
382.83	741.95
383.02	730.25
383.22	772.38
383.41	711.52
383.61	685.78
383.80	833.23
384.00	856.64
384.19	826.21
384.39	851.96
384.58	784.08
384.78	842.59
384.97	894.08
385.17	828.55
385.36	816.85
385.56	816.85
385.75	802.80
385.95	866.00
386.14	807.48
386.34	809.83
386.53	873.02
386.72	805.14
386.92	905.79
387.11	910.47
387.31	933.87
387.50	901.11
387.70	903.45
387.89	905.79
388.09	882.38
388.28	922.17
388.48	912.81
388.67	905.79
388.86	976.00
389.06	924.51
389.25	1018.13
389.45	1055.58
389.64	1004.09
389.84	1043.88
390.03	1034.52
390.22	1114.10
390.42	1071.97
390.61	1097.71
390.81	994.73
391.00	1071.97
391.19	994.73
391.39	1029.84
391.58	1090.69
391.78	1078.99
391.97	1095.37
392.16	1076.65
392.36	1153.88
392.55	1071.97
392.75	1050.90
392.94	968.98
393.13	1062.60
393.33	999.41
393.52	1071.97
393.71	1107.07
393.91	1184.31
394.10	1128.14
394.29	1217.08
394.49	1247.51
394.68	1214.74
394.88	1317.72
395.07	1413.68
395.26	1362.19
395.46	1275.59
395.65	1273.25
395.84	1287.29
396.04	1291.98
396.23	1125.80
396.42	1200.69
396.62	1200.69
396.81	1153.88
397.00	1233.46
397.19	1296.66
397.39	1432.41
397.58	1451.13
397.77	1378.58
397.97	1490.92
398.16	1476.88
398.35	1448.79
398.55	1582.20
398.74	1509.65
398.93	1626.67
399.12	1561.14
399.32	1495.60
399.51	1603.27
399.70	1689.87
399.90	1619.65
400.09	1645.40
400.28	1753.06
400.47	1797.53
400.67	1802.21
400.86	1713.27
401.05	1701.57
401.24	1710.93
401.44	1860.73
401.63	1909.88
401.82	1710.93
402.01	1778.81
402.21	1811.57
402.40	1877.11
402.59	1783.49
402.78	1797.53
402.97	1778.81
403.17	1783.49
403.36	1970.73
403.55	1933.28
403.74	1919.24
403.93	1888.81
404.13	1956.69
404.32	1886.47
404.51	1926.26
404.70	1963.71
404.89	1959.03
405.09	1991.80
405.28	2057.33
405.47	2031.58
405.66	2031.58
405.85	1996.48
406.05	2141.59
406.24	2111.16
406.43	2150.95
406.62	2129.89
406.81	2209.47
407.00	2176.70
407.20	2186.06
407.39	2246.91
407.58	2249.25
407.77	2183.72
407.96	2267.98
408.15	2333.51
408.34	2284.36
408.54	2370.96
408.73	2279.68
408.92	2286.70
409.11	2443.52
409.30	2392.03
409.49	2457.56
409.68	2438.84
409.87	2410.75
410.07	2523.10
410.26	2382.67
410.45	2513.74
410.64	2656.51
410.83	2693.96
411.02	2567.57
411.21	2771.19
411.40	2696.30
411.59	2792.26
411.78	2747.79
411.98	2778.22
412.17	2874.18
412.36	2834.39
412.55	2963.12
412.74	2860.13
412.93	3000.57
413.12	2899.92
413.31	2979.50
413.50	2895.24
413.69	2970.14
413.88	3007.59
414.07	3089.51
414.26	2967.80
414.45	3066.10
414.64	3026.31
414.83	3248.66
415.02	3236.96
415.22	3297.81
415.41	3279.09
415.60	3190.15
415.79	3370.37
415.98	3377.39
416.17	3468.67
416.36	3349.31
416.55	3377.39
416.74	3503.78
416.93	3421.86
417.12	3389.10
417.31	3471.01
417.50	3536.55
417.69	3571.66
417.88	3531.87
418.07	3606.77
418.26	3634.85
418.45	3641.87
418.64	3754.22
418.83	3747.20
419.02	3667.62
419.21	3744.86
419.39	3637.19
419.58	3684.00
419.77	3662.94
419.96	3871.25
420.15	3796.35
420.34	3833.80
420.53	3978.91
420.72	4107.64
420.91	4018.70
421.10	3990.61
421.29	4011.68
421.48	4084.23
421.67	4084.23
421.86	3929.76
422.05	3908.69
422.24	3964.87
422.43	4032.74
422.61	4063.17
422.80	4182.54
422.99	4063.17
423.18	4114.66
423.37	4170.83
423.56	4138.07
423.75	4205.94
423.94	3948.48
424.13	3817.41
424.32	3967.21
424.50	4170.83
424.69	4280.84
424.88	4241.05
425.07	4177.86
425.26	4035.08
425.45	4114.66
425.64	4215.30
425.83	4152.11
426.01	4259.78
426.20	4109.98
426.39	4264.46
426.58	4222.33
426.77	4109.98
426.96	4128.70
427.15	4191.90
427.33	4205.94
427.52	4112.32
427.71	4318.29
427.90	4341.69
428.09	4231.69
428.28	4465.74
428.46	4337.01
428.65	4163.81
428.84	4458.72
429.03	4486.81
429.22	4231.69
429.40	4351.06
429.59	4292.54
429.78	4159.13
429.97	4184.88
430.16	4210.62
430.34	4348.72
430.53	4358.08
430.72	4203.60
430.91	4425.95
431.10	4503.19
431.28	4781.71
431.47	4842.57
431.66	4713.84
431.85	4807.46
432.03	4896.40
432.22	4929.17
432.41	4788.74
432.60	4947.89
432.79	4917.47
432.97	4891.72
433.16	5069.60
433.35	4919.81
433.54	4816.82
433.72	4924.49
433.91	4947.89
434.10	4844.91
434.28	4940.87
434.47	5076.62
434.66	5107.05
434.85	5233.44
435.03	5172.58
435.22	4912.78
435.41	5413.66
435.59	5249.82
435.78	5289.61
435.97	5294.29
436.16	5385.57
436.34	5301.31
436.53	5364.51
436.72	5235.78
436.90	5348.12
437.09	5301.31
437.28	5315.36
437.46	5544.73
437.65	5350.46
437.84	5399.62
438.02	5329.40
438.21	5460.47
438.40	5336.42
438.58	5657.07
438.77	5675.80
438.96	5598.56
439.14	5839.64
439.33	5668.78
439.52	5834.96
439.70	5729.63
439.89	5900.49
440.08	5989.43
440.26	5968.37
440.45	6005.81
440.63	6129.86
440.82	6284.34
441.01	6057.31
441.19	6328.81
441.38	6225.82
441.57	6539.46
441.75	6593.29
441.94	6448.18
442.12	6579.25
442.31	6527.75
442.50	6572.22
442.68	6537.12
442.87	6548.82
443.05	6546.48
443.24	6911.60
443.43	6761.81
443.61	6707.98
443.80	6848.41
443.98	6604.99
444.17	6406.05
444.35	6766.49
444.54	6937.35
444.73	6789.89
444.91	6654.14
445.10	6810.96
445.28	6829.68
445.47	6609.67
445.65	6663.51
445.84	6637.76
446.02	6918.62
446.21	6864.79
446.39	6825.00
446.58	6803.94
446.77	7077.78
446.95	6916.28
447.14	7155.02
447.32	7124.59
447.51	7012.24
447.69	6789.89
447.88	7002.88
448.06	7253.32
448.25	6881.18
448.43	7007.56
448.62	7229.91
448.80	6932.67
448.99	7145.66
449.17	7236.94
449.36	6988.84
449.54	7133.95
449.73	7573.97
449.91	7302.47
450.10	7503.76
450.28	7555.25
450.46	7360.98
450.65	7515.46
450.83	7438.22
451.02	7466.31
451.20	7515.46
451.39	7590.36
451.57	7410.14
451.76	7449.93
451.94	7648.87
452.13	7700.36
452.31	7463.97
452.49	7417.16
452.68	7447.58
452.86	7335.24
453.05	7517.80
453.23	7805.69
453.42	7597.38
453.60	7674.62
453.78	7758.88
453.97	7768.24
454.15	7625.47
454.34	7712.07
454.52	7803.35
454.70	7808.03
454.89	8039.74
455.07	7899.31
455.26	7922.71
455.44	8205.92
455.62	7974.21
455.81	8084.21
455.99	8138.04
456.17	8152.09
456.36	8107.62
456.54	8234.00
456.73	8360.39
456.91	8545.30
457.09	8690.41
457.28	8746.58
457.46	8367.42
457.64	8627.21
457.83	8414.23
458.01	8353.37
458.19	8617.85
458.38	8376.78
458.56	8739.56
458.74	8617.85
458.93	8648.28
459.11	8594.45
459.29	8472.74
459.48	8872.97
459.66	8692.75
459.84	8702.11
460.03	8884.67
460.21	8779.35
460.39	8856.59
460.57	8875.31
460.76	8964.25
460.94	8943.19
461.12	8805.10
461.31	8837.86
461.49	8990.00
461.67	8936.17
461.85	9191.28
462.04	9067.24
462.22	9671.09
462.40	9423.00
462.59	9212.35
462.77	9481.51
462.95	9210.01
463.13	9247.46
463.32	9329.38
463.50	9687.48
463.68	9294.27
463.86	9530.66
464.05	9289.59
464.23	9399.59
464.41	9792.80
464.59	9177.24
464.78	9542.36
464.96	9586.83
465.14	9280.22
465.32	9640.67
465.50	9591.52
465.69	9523.64
465.87	9785.78
466.05	9614.92
466.23	9303.63
466.41	9561.09
466.60	9650.03
466.78	9411.29
466.96	9579.81
467.14	9549.39
467.32	9741.31
467.51	9921.53
467.69	9591.52
467.87	9823.23
468.05	9970.68
468.23	9774.08
468.41	9811.53
468.60	9874.72
468.78	10015.15
468.96	9877.06
469.14	9933.23
469.32	10300.70
469.50	9802.16
469.69	10080.69
469.87	10265.59
470.05	10253.89
470.23	10289.00
470.41	10319.42
470.59	10347.51
470.77	10305.38
470.95	10328.78
471.14	10525.39
471.32	10434.11
471.50	10874.13
471.68	10548.79
471.86	10633.05
472.04	10738.38
472.22	10885.83
472.40	10934.98
472.58	10920.94
472.77	10888.17
472.95	10988.82
473.13	11122.23
473.31	10960.73
473.49	11030.94
473.67	11035.63
473.85	11169.04
474.03	11529.48
474.21	11353.94
474.39	11508.41
474.57	11424.15
474.75	11707.36
474.93	11723.74
475.12	11508.41
475.30	11866.52
475.48	11679.27
475.66	11903.96
475.84	11557.57
476.02	11815.02
476.20	11754.17
476.38	11913.33
476.56	12395.48
476.74	12238.66
476.92	12294.83
477.10	12306.54
477.28	12482.08
477.46	12554.63
477.64	12727.83
477.82	12940.82
478.00	12973.59
478.18	13022.74
478.36	13067.21
478.54	12908.05
478.72	13266.16
478.90	13296.58
479.08	13481.49
479.26	13696.82
479.44	13710.86
479.62	13982.36
479.80	13916.83
479.98	14202.37
480.16	14303.01
480.34	14066.62
480.52	14237.48
480.70	14291.31
480.88	14361.53
481.06	14546.43
481.24	14691.54
481.41	14679.84
481.59	14799.21
481.77	15091.77
481.95	14885.81
482.13	15374.98
482.31	14995.81
482.49	15716.70
482.67	15513.07
482.85	15873.51
483.03	15630.10
483.21	15723.72
483.39	15807.98
483.57	16039.69
483.74	16428.22
483.92	16538.23
484.10	16112.25
484.28	16423.54
484.46	16650.57
484.64	16896.33
484.82	16952.50
485.00	16762.92
485.18	17022.72
485.35	17085.91
485.53	16741.85
485.71	16791.00
485.89	16898.67
486.07	16908.03
486.25	17092.93
486.43	17331.67
486.61	17879.35
486.78	17682.75
486.96	18008.08
487.14	18099.36
487.32	18555.77
487.50	18616.62
487.68	18925.57
487.85	19042.60
488.03	18850.67
488.21	19541.13
488.39	19389.00
488.57	19360.91
488.75	19569.22
488.92	19524.75
489.10	20187.12
489.28	20229.25
489.46	20725.44
489.64	20222.23
489.81	20905.66
489.99	21076.52
490.17	20795.66
490.35	21135.04
490.53	21010.99
490.70	21380.79
490.88	21231.00
491.06	21699.11
491.24	21568.04
491.41	21706.13
491.59	21579.74
491.77	21638.25
491.95	21802.09
492.13	22080.61
492.30	22312.33
492.48	22850.65
492.66	22377.86
492.84	22698.52
493.01	23058.96
493.19	22843.63
493.37	23014.49
493.54	23173.64
493.72	23117.47
493.90	23578.56
494.08	24060.71
494.25	24137.94
494.43	24119.22
494.61	24388.38
494.79	24376.68
494.96	24592.01
495.14	24395.40
495.32	24486.68
495.49	24835.42
495.67	24566.26
495.85	24943.09
496.02	24840.11
496.20	25184.16
496.38	25270.76
496.55	25343.32
496.73	25755.26
496.91	25298.85
497.09	25996.33
497.26	25883.98
497.44	25926.11
497.62	26113.36
497.79	26436.35
497.97	26214.00
498.14	26003.35
498.32	26569.76
498.50	26593.17
498.67	27012.12
498.85	26668.06
499.03	27330.44
499.20	27407.67
499.38	27363.20
499.56	27218.09
499.73	27613.64
499.91	27456.82
500.08	27524.70
500.26	27524.70
500.44	27623.00
500.61	27456.82
500.79	27651.09
500.97	27564.49
501.14	27683.86
501.32	28187.07
501.49	28170.69
501.67	28343.89
501.84	28325.16
502.02	28409.42
502.20	28570.92
502.37	28772.21
502.55	28634.11
502.72	29230.95
502.90	29336.27
503.07	28966.47
503.25	29158.39
503.43	28914.98
503.60	29214.57
503.78	29282.44
503.95	28952.43
504.13	29317.55
504.30	29422.87
504.48	29214.57
504.65	30015.03
504.83	30242.06
505.01	29944.81
505.18	30190.57
505.36	30258.45
505.53	30976.99
505.71	30441.01
505.88	30635.27
506.06	30529.95
506.23	30740.60
506.41	30466.75
506.58	30864.64
506.76	31124.44
506.93	30698.47
507.11	31054.23
507.28	31110.40
507.46	30859.96
507.63	30930.18
507.81	31154.87
507.98	31192.32
508.16	31222.75
508.33	31681.49
508.50	31978.74
508.68	32210.45
508.85	32182.37
509.03	31931.93
509.20	31812.56
509.38	32348.54
509.55	32121.51
509.73	32428.12
509.90	32196.41
510.08	32308.76
510.25	32348.54
510.42	32503.02
510.60	32762.82
510.77	32919.63
510.95	33418.17
511.12	33097.52
511.30	33273.06
511.47	33455.62
511.64	33340.93
511.82	33701.37
511.99	33244.97
512.17	33567.96
512.34	33214.54
512.51	33722.44
512.69	33472.00
512.86	34092.24
513.04	34005.64
513.21	33818.40
513.38	33912.02
513.56	33790.31
513.73	33750.52
513.90	34068.84
514.08	33986.92
514.25	34038.41
514.43	34050.11
514.60	34555.67
514.77	34382.47
514.95	34335.66
515.12	34513.54
515.29	34955.90
515.47	34888.03
515.64	35068.25
515.81	35056.54
515.99	35103.35
516.16	34820.15
516.33	34593.12
516.51	34869.30
516.68	34417.58
516.85	33937.77
517.03	34450.35
517.20	35211.02
517.37	35299.96
517.54	35550.40
517.72	35770.41
517.89	35124.42
518.06	35222.72
518.24	35136.12
518.41	35227.40
518.58	35491.88
518.75	35620.61
518.93	35524.65
519.10	35742.32
519.27	36128.51
519.45	36400.01
519.62	36086.38
519.79	36425.76
519.96	36624.70
520.14	36320.43
520.31	36032.55
520.48	36519.38
520.65	36622.36
520.83	36802.58
521.00	36882.16
521.17	37198.13
521.34	37226.22
521.52	37345.59
521.69	37457.93
521.86	37322.18
522.03	37385.38
522.20	37385.38
522.38	37455.59
522.55	37589.00
522.72	37411.12
522.89	37041.32
523.07	37872.21
523.24	37846.46
523.41	38113.28
523.58	37614.75
523.75	38857.57
523.92	38761.61
524.10	38630.54
524.27	38806.08
524.44	38611.82
524.61	38637.56
524.78	38457.34
524.96	38466.70
525.13	38117.96
525.30	38911.41
525.47	39353.77
525.64	39068.22
525.81	38628.20
525.98	38618.84
526.16	38494.79
526.33	38628.20
526.50	38663.31
526.67	38267.76
526.84	38555.64
527.01	38717.14
527.18	38623.52
527.36	39194.61
527.53	39466.11
527.70	39613.57
527.87	39328.02
528.04	39218.02
528.21	39702.51
528.38	40107.42
528.55	40156.57
528.72	40215.08
528.89	40505.31
529.07	40336.79
529.24	39613.57
529.41	39934.22
529.58	39929.54
529.75	40004.44
529.92	40306.37
530.09	40257.21
530.26	40350.84
530.43	40357.86
530.60	40402.33
530.77	40299.34
530.94	40580.21
531.11	40559.14
531.28	40762.77
531.46	40694.89
531.63	41017.89
531.80	40554.46
531.97	40343.81
532.14	40449.14
532.31	40222.11
532.48	40589.57
532.65	40900.86
532.82	40292.32
532.99	40603.61
533.16	40868.09
533.33	41146.62
533.50	41317.48
533.67	41598.34
533.84	41067.04
534.01	41015.55
534.18	41062.36
534.35	41448.55
534.52	41212.15
534.69	41691.96
534.86	41518.76
535.03	41457.91
535.20	42148.37
535.37	42192.84
535.54	42241.99
535.71	41846.44
535.88	42089.85
536.05	41783.24
536.22	41715.37
536.38	42078.15
536.55	41907.29
536.72	41942.40
536.89	41963.46
537.06	42169.43
537.23	42073.47
537.40	42464.34
537.57	42050.06
537.74	42050.06
537.91	42838.83
538.08	42300.50
538.25	42092.19
538.42	42082.83
538.59	42174.11
538.75	42199.86
538.92	42401.14
539.09	42347.31
539.26	42714.78
539.43	42712.44
539.60	42593.07
539.77	42438.59
539.94	42724.14
540.11	42536.90
540.28	42366.04
540.44	43086.92
540.61	42609.45
540.78	42532.22
540.95	42469.02
541.12	42387.10
541.29	42824.78
541.46	43147.78
541.62	42944.15
541.79	43269.48
541.96	42724.14
542.13	43037.77
542.30	42806.06
542.47	42934.79
542.63	42651.58
542.80	43206.29
542.97	43519.92
543.14	43683.76
543.31	43583.12
543.48	43587.80
543.64	44355.49
543.81	44385.92
543.98	44360.17
544.15	44250.17
544.32	43999.73
544.48	44210.38
544.65	43625.25
544.82	44278.25
544.99	43690.78
545.16	44360.17
545.32	43360.76
545.49	44683.17
545.66	44622.31
545.83	44388.26
546.00	43955.26
546.16	44472.52
546.33	44322.72
546.50	43835.89
546.67	44442.09
546.83	44121.44
547.00	44182.29
547.17	44519.33
547.34	44423.37
547.50	44652.74
547.67	44575.50
547.84	44374.22
548.00	45015.52
548.17	45074.04
548.34	44978.07
548.51	44582.52
548.67	44748.70
548.84	44521.67
549.01	44957.01
549.18	44828.28
549.34	44776.79
549.51	44912.54
549.68	45041.27
549.84	44889.13
550.01	44722.96
550.18	44729.98
550.34	44662.10
550.51	44910.20
550.68	45099.78
550.84	44985.10
551.01	45385.33
551.18	45092.76
551.34	45050.63
551.51	45457.88
551.68	45691.94
551.84	45659.17
552.01	45635.77
552.18	45069.36
552.34	44949.99
552.51	45162.98
552.68	45523.42
552.84	45579.59
553.01	45677.90
553.18	45811.31
553.34	45626.40
553.51	44847.00
553.67	45345.54
553.84	45750.45
554.01	45528.10
554.17	46260.69
554.34	45748.11
554.51	45677.90
554.67	45741.09
554.84	45830.03
555.00	45574.91
555.17	45539.80
555.33	45785.56
555.50	45848.75
555.67	45954.08
555.83	45450.86
556.00	45808.96
556.16	46160.05
556.33	46136.64
556.50	46031.32
556.66	45553.85
556.83	45865.14
556.99	45923.65
557.16	46375.37
557.32	46164.73
557.49	46167.07
557.65	45837.05
557.82	45947.06
557.98	46302.82
558.15	46043.02
558.32	46335.59
558.48	45947.06
558.65	46057.06
558.81	45902.59
558.98	46115.58
559.14	46192.81
559.31	45947.06
559.47	46204.52
559.64	46082.81
559.80	45916.63
559.97	45918.97
560.13	45436.82
560.30	46288.77
560.46	46550.91
560.63	46887.95
560.79	46731.14
560.96	46307.50
561.12	46192.81
561.29	46099.19
561.45	46227.92
561.61	46548.57
561.78	46146.00
561.94	46555.60
562.11	45979.82
562.27	46614.11
562.44	46672.62
562.60	46630.49
562.77	46576.66
562.93	46834.12
563.10	46906.68
563.26	46024.29
563.42	46878.59
563.59	46560.28
563.75	46773.27
563.92	46763.90
564.08	47030.72
564.24	46649.22
564.41	46288.77
564.57	46593.04
564.74	46607.09
564.90	46328.56
565.07	46773.27
565.23	46265.37
565.39	46426.87
565.56	46707.73
565.72	46714.75
565.88	46431.55
566.05	46124.94
566.21	46438.57
566.38	46188.13
566.54	46452.61
566.70	47203.92
566.87	47103.28
567.03	46852.84
567.19	47325.63
567.36	46920.72
567.52	46660.92
567.68	47047.11
567.85	46611.77
568.01	46799.01
568.17	46623.47
568.34	46738.16
568.50	47253.08
568.66	46761.56
568.83	46672.62
568.99	46382.40
569.15	46780.29
569.32	46623.47
569.48	46714.75
569.64	46810.71
569.81	46649.22
569.97	46775.61
570.13	46710.07
570.30	46466.66
570.46	46344.95
570.62	46419.84
570.78	46674.96
570.95	46543.89
571.11	47000.30
571.27	46848.16
571.43	47178.18
571.60	46894.97
571.76	46918.38
571.92	46803.69
572.09	46815.40
572.25	47028.38
572.41	46885.61
572.57	46993.28
572.74	47580.75
572.90	47243.71
573.06	47086.90
573.22	46866.89
573.38	46939.44
573.55	46815.40
573.71	47576.07
573.87	47002.64
574.03	47208.61
574.20	46719.43
574.36	46656.24
574.52	47084.56
574.68	47051.79
574.84	46658.58
575.01	47290.52
575.17	47096.26
575.33	46649.22
575.49	46993.28
575.65	46670.28
575.82	47051.79
575.98	46904.34
576.14	47309.25
576.30	47384.15
576.46	46590.70
576.62	47152.43
576.79	46976.89
576.95	46459.63
577.11	47091.58
577.27	46871.57
577.43	46871.57
577.59	46796.67
577.75	46965.19
577.92	46646.88
578.08	46827.10
578.24	46738.16
578.40	46873.91
578.56	46897.31
578.72	46890.29
578.88	47033.07
579.04	47201.58
579.21	47035.41
579.37	47185.20
579.53	47302.23
579.69	46670.28
579.85	46810.71
580.01	46993.28
580.17	46841.14
580.33	47068.17
580.49	47257.76
580.65	47187.54
580.82	47407.55
580.98	46988.60
581.14	47159.45
581.30	47028.38
581.46	47166.48
581.62	47358.40
581.78	47299.89
581.94	47517.56
582.10	46885.61
582.26	47569.05
582.42	47119.66
582.58	47346.70
582.74	47187.54
582.90	47409.89
583.06	47323.29
583.22	47068.17
583.38	47147.75
583.54	47367.76
583.70	47452.02
583.86	47224.99
584.02	47304.57
584.18	46960.51
584.34	46782.63
584.50	47276.48
584.66	47327.97
584.82	46789.65
584.98	47122.01
585.14	47194.56
585.30	46873.91
585.46	47105.62
585.62	46515.81
585.78	47210.95
585.94	46628.15
586.10	47030.72
586.26	47445.00
586.42	47070.51
586.58	47222.65
586.74	47351.38
586.90	47009.66
587.06	47096.26
587.22	47047.11
587.38	46948.81
587.54	47480.11
587.70	46920.72
587.86	47384.15
588.02	46752.20
588.18	47309.25
588.34	46894.97
588.49	46899.65
588.65	46225.58
588.81	46267.71
588.97	46653.90
589.13	46391.76
589.29	46705.39
589.45	46902.00
589.61	46941.78
589.77	47248.39
589.93	47159.45
590.08	47646.29
590.24	47419.25
590.40	47519.90
590.56	47349.04
590.72	47164.14
590.88	47037.75
591.04	47271.80
591.20	47206.26
591.35	47784.38
591.51	47683.73
591.67	47391.17
591.83	47086.90
591.99	46995.62
592.15	47292.86
592.31	47381.80
592.46	47030.72
592.62	47330.31
592.78	47732.89
592.94	47423.93
593.10	47515.22
593.26	47257.76
593.41	46990.94
593.57	47283.50
593.73	47276.48
593.89	47260.10
594.05	47440.32
594.20	47257.76
594.36	47379.46
594.52	47260.10
594.68	47143.07
594.84	46939.44
594.99	47276.48
595.15	47309.25
595.31	47274.14
595.47	47129.03
595.62	47114.98
595.78	47505.85
595.94	47234.35
596.10	47730.54
596.25	47416.91
596.41	47232.01
596.57	47091.58
596.73	47421.59
596.88	47171.16
597.04	47199.24
597.20	47344.36
597.36	47351.38
597.51	47461.38
597.67	47391.17
597.83	46976.89
597.99	47442.66
598.14	47122.01
598.30	46894.97
598.46	47012.00
598.61	47189.88
598.77	47068.17
598.93	47391.17
599.09	47311.59
599.24	47494.15
599.40	47505.85
599.56	47402.87
599.71	47292.86
599.87	47456.70
600.03	47349.04
600.18	46897.31
600.34	47386.49
600.50	47136.05
600.65	47147.75
600.81	47145.41
600.97	47306.91
601.12	47583.09
601.28	47491.81
601.44	46894.97
601.59	46995.62
601.75	46986.25
601.91	47131.37
602.06	47037.75
602.22	47194.56
602.37	47131.37
602.53	47316.27
602.69	47241.37
602.84	47285.84
603.00	47014.34
603.16	47473.09
603.31	47082.22
603.47	47002.64
603.62	47180.52
603.78	47400.53
603.94	47400.53
604.09	47379.46
604.25	46986.25
604.40	47473.09
604.56	46801.35
604.71	47210.95
604.87	47138.39
605.03	46869.23
605.18	46761.56
605.34	46866.89
605.49	46581.34
605.65	47147.75
605.80	46782.63
605.96	47093.92
606.12	46983.91
606.27	47295.21
606.43	46623.47
606.58	47241.37
606.74	47166.48
606.89	46808.37
607.05	47051.79
607.20	46382.40
607.36	46859.87
607.51	47311.59
607.67	46944.12
607.82	46930.08
607.98	46803.69
608.13	46962.85
608.29	46480.70
608.44	46614.11
608.60	46459.63
608.75	46742.84
608.91	46614.11
609.06	46581.34
609.22	46878.59
609.37	46691.35
609.53	46579.00
609.68	46784.97
609.84	46902.00
609.99	46548.57
610.15	46319.20
610.30	46590.70
610.46	46293.46
610.61	46270.05
610.76	46651.56
610.92	46642.20
611.07	46721.77
611.23	46396.44
611.38	46597.73
611.54	46007.91
611.69	46246.65
611.84	46190.47
612.00	46295.80
612.15	46197.49
612.31	46726.46
612.46	46059.40
612.62	46267.71
612.77	46181.11
612.92	46576.66
613.08	46124.94
613.23	46012.59
613.39	45940.04
613.54	45647.47
613.69	46202.18
613.85	45979.82
614.00	46258.35
614.15	46494.74
614.31	46429.21
614.46	45907.27
614.62	46021.95
614.77	45949.40
614.92	46319.20
615.08	45841.73
615.23	45659.17
615.38	46026.63
615.54	45860.46
615.69	45907.27
615.84	45661.51
616.00	45881.52
616.15	45881.52
616.30	45839.39
616.46	45631.08
616.61	45588.95
616.76	45434.48
616.92	45071.70
617.07	45453.20
617.22	45350.22
617.37	45172.34
617.53	45841.73
617.68	45738.75
617.83	45727.05
617.99	45965.78
618.14	45272.98
618.29	45764.49
618.45	45078.72
618.60	45090.42
618.75	45144.25
618.90	45787.90
619.06	45251.92
619.21	45301.07
619.36	45808.96
619.51	45146.59
619.67	45249.58
619.82	45170.00
619.97	45535.12
620.12	45375.97
620.28	44751.04
620.43	45258.94
620.58	45237.87
620.73	45081.06
620.89	45118.51
621.04	44924.24
621.19	44847.00
621.34	45071.70
621.49	44889.13
621.65	44325.07
621.80	45092.76
621.95	44683.17
622.10	44945.31
622.25	44699.55
622.41	44676.15
622.56	44746.36
622.71	45045.95
622.86	44849.35
623.01	44769.77
623.16	44524.01
623.32	44554.44
623.47	44821.26
623.62	44194.00
623.77	44280.60
623.92	44734.66
624.07	44500.61
624.23	44348.47
624.38	44395.28
624.53	44500.61
624.68	43988.03
624.83	44257.19
624.98	44030.16
625.13	44306.34
625.29	43810.15
625.44	43784.40
625.59	43871.00
625.74	43751.63
625.89	43929.51
626.04	44128.46
626.19	43742.27
626.34	43859.30
626.49	44013.77
626.65	44051.22
626.80	44060.58
626.95	44032.50
627.10	43393.53
627.25	43639.29
627.40	43548.01
627.55	43325.66
627.70	43058.84
627.85	43374.81
628.00	43426.30
628.15	43887.39
628.30	43297.57
628.45	43707.16
628.60	43601.84
628.76	43625.25
628.91	43274.16
629.06	43358.42
629.21	42920.74
629.36	43580.78
629.51	43365.45
629.66	43026.07
629.81	42679.67
629.96	43253.10
630.11	43175.86
630.26	43309.27
630.41	43164.16
630.56	43133.73
630.71	43056.50
630.86	42990.96
631.01	43047.13
631.16	42721.80
631.31	42667.97
631.46	42693.71
631.61	42995.64
631.76	43196.93
631.91	42670.31
632.06	42944.15
632.21	43178.20
632.36	42883.30
632.51	42803.72
632.66	42768.61
632.81	42337.95
632.96	42789.67
633.10	42326.25
633.25	42672.65
633.40	42733.50
633.55	42703.07
633.70	42557.96
633.85	42426.89
634.00	42501.79
634.15	42075.81
634.30	42351.99
634.45	42087.51
634.60	42632.86
634.75	42663.28
634.90	42642.22
635.05	42485.40
635.19	42227.95
635.34	42452.64
635.49	42033.68
635.64	42209.22
635.79	42249.01
635.94	42436.25
636.09	42724.14
636.24	41820.69
636.39	41879.21
636.53	42085.17
636.68	41853.46
636.83	42209.22
636.98	42174.11
637.13	41638.13
637.28	42419.87
637.43	41989.21
637.57	41897.93
637.72	41415.78
637.87	41991.55
638.02	41890.91
638.17	42241.99
638.32	42218.58
638.46	41696.64
638.61	41675.58
638.76	41755.16
638.91	41588.98
639.06	41947.08
639.20	41813.67
639.35	41741.11
639.50	41710.69
639.65	41696.64
639.80	41816.01
639.94	41198.11
640.09	41418.12
640.24	41223.86
640.39	41289.39
640.54	40708.94
640.68	41612.38
640.83	40992.14
640.98	41179.39
641.13	41317.48
641.27	41537.49
641.42	41022.57
641.57	40971.08
641.72	41165.34
641.86	40844.69
642.01	40961.72
642.16	41081.08
642.31	40919.59
642.45	40760.43
642.60	40620.00
642.75	40978.10
642.90	40744.05
643.04	40591.91
643.19	40383.60
643.34	40992.14
643.48	40865.75
643.63	40624.68
643.78	40423.39
643.93	40774.47
644.07	40657.45
644.22	40648.08
644.37	40053.59
644.51	40472.54
644.66	40470.20
644.81	40191.68
644.95	40755.75
645.10	40465.52
645.25	40598.93
645.39	40865.75
645.54	40247.85
645.69	40198.70
645.83	40411.69
645.98	40208.06
646.13	39929.54
646.27	40184.66
646.42	40170.61
646.57	40069.97
646.71	39693.15
646.86	40243.17
647.00	40439.78
647.15	40069.97
647.30	40301.68
647.44	39854.64
647.59	40079.33
647.74	40030.18
647.88	39796.13
648.03	39842.94
648.17	39990.39
648.32	40182.32
648.47	39934.22
648.61	39583.14
648.76	39856.98
648.90	40081.67
649.05	39714.21
649.20	39885.07
649.34	39784.43
649.49	39433.35
649.63	38944.17
649.78	39761.02
649.92	39283.55
650.07	39566.76
650.21	39358.45
650.36	39555.05
650.51	39557.39
650.65	40025.50
650.80	39864.00
650.94	39786.77
651.09	39573.78
651.23	39000.35
651.38	39084.61
651.52	38976.94
651.67	39061.20
651.81	38817.78
651.96	39206.31
652.10	39332.70
652.25	39339.72
652.39	38785.02
652.54	39100.99
652.68	39461.43
652.83	39260.15
652.97	38932.47
653.12	39283.55
653.26	39124.40
653.41	38988.64
653.55	38785.02
653.70	38873.96
653.84	38848.21
653.99	39239.08
654.13	38590.75
654.27	38770.97
654.42	38520.54
654.56	38384.79
654.71	38869.28
654.85	38574.37
655.00	38824.81
655.14	38471.39
655.29	38232.65
655.43	37958.81
655.57	38010.30
655.72	37839.44
655.86	37996.26
656.01	37537.51
656.15	37684.97
656.30	37668.58
656.44	38223.29
656.58	37778.59
656.73	37755.18
656.87	38052.43
657.01	38078.18
657.16	38169.46
657.30	38003.28
657.45	37610.07
657.59	37876.89
657.73	37893.27
657.88	38319.25
658.02	37687.31
658.16	38572.03
658.31	38190.52
658.45	38068.81
658.60	37638.15
658.74	37818.38
658.88	37965.83
659.03	37649.86
659.17	37181.75
659.31	37298.78
659.46	37560.92
659.60	37610.07
659.74	37542.19
659.89	37694.33
660.03	37373.67
660.17	37460.27
660.32	37085.79
660.46	37186.43
660.60	37144.30
660.74	37359.63
660.89	37521.13
661.03	37113.87
661.17	37029.62
661.32	36950.04
661.46	36610.66
661.60	36795.56
661.74	36533.42
661.89	37076.43
662.03	37280.05
662.17	36797.90
662.31	36837.69
662.46	36884.50
662.60	36821.31
662.74	36432.78
662.88	36318.09
663.03	36430.44
663.17	36488.95
663.31	35828.92
663.45	36435.12
663.60	36325.11
663.74	36212.77
663.88	36210.43
664.02	36467.89
664.17	36257.24
664.31	35878.07
664.45	35969.35
664.59	35807.86
664.73	35859.35
664.88	35859.35
665.02	35480.18
665.16	35321.02
665.30	35178.25
665.44	35370.18
665.59	35393.58
665.73	35388.90
665.87	35168.89
666.01	35295.28
666.15	35323.36
666.29	35309.32
666.44	35765.73
666.58	35103.35
666.72	35332.73
666.86	35126.76
667.00	34923.13
667.14	35145.48
667.28	34864.62
667.43	35049.52
667.57	35152.51
667.71	34817.81
667.85	34838.87
667.99	34740.57
668.13	34520.56
668.27	34649.29
668.41	34300.55
668.56	34206.93
668.70	34972.28
668.84	34209.27
668.98	34190.55
669.12	34047.77
669.26	34139.05
669.40	34230.33
669.54	34061.82
669.68	33813.72
669.82	33799.68
669.96	33521.15
670.10	33687.33
670.25	33982.24
670.39	33378.38
670.53	33488.38
670.67	33352.63
670.81	33378.38
670.95	33504.77
671.09	33521.15
671.23	33031.98
671.37	33214.54
671.51	33244.97
671.65	33064.75
671.79	32797.93
671.93	33123.26
672.07	33275.40
672.21	33071.77
672.35	32648.13
672.49	33184.12
672.63	32617.71
672.77	32779.20
672.91	32624.73
673.05	32451.53
673.19	32093.43
673.33	32683.24
673.47	32128.53
673.61	32084.06
673.75	31740.00
673.89	32233.86
674.03	31875.76
674.17	31938.95
674.31	31475.52
674.45	31721.28
674.59	31707.24
674.73	31859.37
674.87	32142.58
675.01	31419.35
675.15	31548.08
675.29	31538.72
675.43	31466.16
675.56	31208.70
675.70	31220.41
675.84	31094.02
675.98	30258.45
676.12	30579.10
676.26	30909.11
676.40	30965.29
676.54	30675.06
676.68	30703.15
676.82	29853.53
676.96	30852.94
677.10	30057.16
677.23	30508.88
677.37	30331.00
677.51	30298.23
677.65	29708.42
677.79	29474.37
677.93	29567.99
678.07	29352.66
678.21	29273.08
678.34	29188.82
678.48	29067.11
678.62	29476.71
678.76	29099.88
678.90	29060.09
679.04	28957.11
679.18	29359.68
679.31	28634.11
679.45	28606.03
679.59	28299.42
679.73	28238.56
679.87	28360.27
680.00	28212.82
680.14	28353.25
680.28	28238.56
680.42	28161.33
680.56	28208.14
680.70	28102.81
680.83	27936.63
680.97	27686.20
681.11	28009.19
681.25	27426.40
681.39	27857.06
681.52	27871.10
681.66	27700.24
681.80	27147.87
681.94	27197.02
682.07	27386.61
682.21	27197.02
682.35	26944.25
682.49	27023.83
682.62	27080.00
682.76	26499.55
682.90	26675.09
683.04	26595.51
683.17	26443.37
683.31	25891.01
683.45	26214.00
683.59	26286.56
683.72	26155.49
683.86	26085.27
684.00	25933.14
684.13	26059.52
684.27	25851.22
684.41	25975.27
684.55	25408.86
684.68	25788.02
684.82	25656.95
684.96	25394.81
685.09	25546.95
685.23	25043.73
685.37	25235.66
685.50	25078.84
685.64	25202.89
685.78	24905.64
685.91	24933.73
686.05	24666.91
686.19	24269.01
686.32	24456.26
686.46	24098.16
686.60	23683.88
686.73	23894.53
686.87	23527.06
687.01	23222.80
687.14	23379.61
687.28	23164.28
687.42	23482.59
687.55	23440.47
687.69	23491.96
687.82	23365.57
687.96	23529.41
688.10	22970.02
688.23	22794.48
688.37	23026.19
688.50	22738.30
688.64	22867.03
688.78	22953.63
688.91	22434.03
689.05	22506.59
689.18	22911.50
689.32	22544.04
689.46	22569.79
689.59	22794.48
689.73	22614.26
689.86	22106.36
690.00	22225.73
690.13	21961.25
690.27	21860.60
690.41	21586.76
690.54	21317.60
690.68	21495.48
690.81	21783.37
690.95	21544.63
691.08	21717.83
691.22	21682.72
691.35	21600.80
691.49	21387.82
691.62	21392.50
691.76	21081.21
691.89	21408.88
692.03	20851.83
692.16	21156.10
692.30	20676.29
692.43	20482.03
692.57	20407.13
692.70	20374.36
692.84	20329.89
692.97	19941.36
693.11	20210.53
693.24	20051.37
693.38	19817.32
693.51	19941.36
693.65	20322.87
693.78	20170.74
693.92	19896.89
694.05	19875.83
694.19	19866.47
694.32	19482.62
694.45	19126.86
694.59	19126.86
694.72	19300.06
694.86	19108.13
694.99	19318.78
695.13	19056.64
695.26	19073.03
695.39	18743.01
695.53	19234.52
695.66	19073.03
695.80	18965.36
695.93	18834.29
696.07	18661.09
696.20	18665.77
696.33	18810.89
696.47	18630.66
696.60	18305.33
696.73	17961.27
696.87	18162.56
697.00	18026.81
697.14	18183.62
697.27	17701.47
697.40	17767.01
697.54	17614.87
697.67	17610.19
697.80	17404.22
697.94	17537.63
698.07	17448.69
698.21	17465.08
698.34	17076.55
698.47	17018.04
698.61	17156.13
698.74	17114.00
698.87	17027.40
699.01	16648.23
699.14	16559.29
699.27	16627.17
699.40	16365.03
699.54	16650.57
699.67	16463.33
699.80	16512.48
699.94	16475.03
700.07	16411.84
700.20	16212.89
700.34	16100.55
700.47	16229.27
700.60	16308.85
700.73	16325.24
700.87	16161.40
701.00	15988.20
701.13	15791.59
701.26	15681.59
701.40	15810.32
701.53	15475.62
701.66	15616.05
701.79	15506.05
701.93	15449.88
702.06	15204.12
702.19	14981.77
702.32	15307.10
702.46	14974.75
702.59	15091.77
702.72	15035.60
702.85	15147.95
702.99	14909.21
703.12	14663.46
703.25	14956.02
703.38	14471.53
703.51	14551.11
703.65	14581.54
703.78	14574.52
703.91	14658.78
704.04	14106.41
704.17	14284.29
704.31	14160.24
704.44	14097.05
704.57	14099.39
704.70	14045.55
704.83	13781.07
704.96	14001.08
705.10	14101.73
705.23	13760.01
>>>>>End Processed Spectral Data<<<<<
