SpectraSuite Data File
++++++++++++++++++++++++++++++++++++
Date: Fri Oct 25 10:43:20 EDT 2013
User: price-jones
Dark Spectrum Present: No
Reference Spectrum Present: No
Number of Sampled Component Spectra: 1
Spectrometers: USB2+H05261
Integration Time (usec): 100000 (USB2+H05261)
Spectra Averaged: 1 (USB2+H05261)
Boxcar Smoothing: 0 (USB2+H05261)
Correct for Electrical Dark: No (USB2+H05261)
Strobe/Lamp Enabled: No (USB2+H05261)
Correct for Detector Non-linearity: No (USB2+H05261)
Correct for Stray Light: No (USB2+H05261)
Number of Pixels in Processed Spectrum: 2048
>>>>>Begin Processed Spectral Data<<<<<
365.73	184.90
365.92	184.90
366.12	184.90
366.32	28.09
366.52	44.47
366.72	60.85
366.91	70.22
367.11	0.00
367.31	0.00
367.51	0.00
367.70	0.00
367.90	7.02
368.10	11.70
368.30	56.17
368.49	56.17
368.69	91.28
368.89	30.43
369.09	88.94
369.28	42.13
369.48	74.90
369.68	56.17
369.87	114.69
370.07	107.66
370.27	133.41
370.47	135.75
370.66	407.25
370.86	437.68
371.06	435.34
371.25	533.64
371.45	465.77
371.65	393.21
371.84	421.30
372.04	503.22
372.24	519.60
372.44	433.00
372.63	552.37
372.83	503.22
373.03	458.74
373.22	456.40
373.42	475.13
373.62	479.81
373.81	498.53
374.01	543.00
374.21	552.37
374.40	528.96
374.60	531.30
374.79	526.62
374.99	507.90
375.19	557.05
375.38	599.18
375.58	550.03
375.78	589.82
375.97	585.13
376.17	660.03
376.37	561.73
376.56	622.58
376.76	601.52
376.95	601.52
377.15	650.67
377.35	540.66
377.54	592.16
377.74	671.73
377.93	641.31
378.13	627.26
378.33	610.88
378.52	624.92
378.72	634.29
378.91	615.56
379.11	585.13
379.31	645.99
379.50	578.11
379.70	692.80
379.89	706.84
380.09	655.35
380.28	702.16
380.48	690.46
380.68	723.23
380.87	730.25
381.07	669.39
381.26	751.31
381.46	748.97
381.65	713.86
381.85	678.76
382.04	695.14
382.24	737.27
382.43	692.80
382.63	669.39
382.83	702.16
383.02	800.46
383.22	669.39
383.41	720.88
383.61	828.55
383.80	744.29
384.00	763.01
384.19	786.42
384.39	767.70
384.58	786.42
384.78	788.76
384.97	786.42
385.17	791.10
385.36	760.67
385.56	835.57
385.75	725.57
385.95	795.78
386.14	748.97
386.34	889.40
386.53	847.27
386.72	877.70
386.92	842.59
387.11	959.62
387.31	929.19
387.50	933.87
387.70	917.49
387.89	894.08
388.09	863.66
388.28	971.32
388.48	828.55
388.67	851.96
388.86	889.40
389.06	976.00
389.25	938.55
389.45	959.62
389.64	919.83
389.84	973.66
390.03	1004.09
390.22	1060.26
390.42	917.49
390.61	999.41
390.81	1029.84
391.00	1032.18
391.19	1018.13
391.39	1039.20
391.58	1057.92
391.78	1029.84
391.97	1015.79
392.16	1104.73
392.36	1062.60
392.55	992.39
392.75	1001.75
392.94	985.37
393.13	1046.22
393.33	1104.73
393.52	968.98
393.71	1088.35
393.91	1036.86
394.10	1114.10
394.29	1107.07
394.49	1181.97
394.68	1200.69
394.88	1203.04
395.07	1121.12
395.26	1235.80
395.46	1188.99
395.65	1287.29
395.84	1315.38
396.04	1289.64
396.23	1165.59
396.42	1179.63
396.62	1217.08
396.81	1170.27
397.00	1233.46
397.19	1200.69
397.39	1320.06
397.58	1397.30
397.77	1387.94
397.97	1420.71
398.16	1469.86
398.35	1413.68
398.55	1411.34
398.74	1551.78
398.93	1547.09
399.12	1385.60
399.32	1519.01
399.51	1444.11
399.70	1561.14
399.90	1619.65
400.09	1490.92
400.28	1654.76
400.47	1507.30
400.67	1617.31
400.86	1689.87
401.05	1701.57
401.24	1673.48
401.44	1586.88
401.63	1741.36
401.82	1741.36
402.01	1753.06
402.21	1645.40
402.40	1692.21
402.59	1696.89
402.78	1692.21
402.97	1825.62
403.17	1764.76
403.36	1802.21
403.55	1825.62
403.74	1874.77
403.93	1858.39
404.13	1839.66
404.32	1839.66
404.51	1905.20
404.70	1858.39
404.89	1884.13
405.09	2017.54
405.28	1949.67
405.47	1998.82
405.66	1954.35
405.85	1914.56
406.05	1928.60
406.24	1947.33
406.43	1944.99
406.62	2099.46
406.81	2111.16
407.00	1959.03
407.20	2076.06
407.39	2078.40
407.58	2064.35
407.77	2223.51
407.96	2214.15
408.15	2221.17
408.34	2211.81
408.54	2270.32
408.73	2211.81
408.92	2216.49
409.11	2471.61
409.30	2317.13
409.49	2312.45
409.68	2354.58
409.87	2232.87
410.07	2267.98
410.26	2249.25
410.45	2422.45
410.64	2328.83
410.83	2487.99
411.02	2532.46
411.21	2415.43
411.40	2642.46
411.59	2562.89
411.78	2637.78
411.98	2583.95
412.17	2726.72
412.36	2609.70
412.55	2567.57
412.74	2665.87
412.93	2827.37
413.12	2743.11
413.31	2846.09
413.50	2836.73
413.69	2885.88
413.88	2913.97
414.07	2827.37
414.26	2895.24
414.45	2853.11
414.64	3045.04
414.83	3052.06
415.02	2984.18
415.22	3084.83
415.41	2993.55
415.60	3077.80
415.79	3075.46
415.98	3148.02
416.17	3206.53
416.36	3246.32
416.55	3222.92
416.74	3232.28
416.93	3215.90
417.12	3239.30
417.31	3318.88
417.50	3349.31
417.69	3447.61
417.88	3440.59
418.07	3361.01
418.26	3454.63
418.45	3550.59
418.64	3566.98
418.83	3534.21
419.02	3440.59
419.21	3417.18
419.39	3627.83
419.58	3421.86
419.77	3522.51
419.96	3726.13
420.15	3698.05
420.34	3737.84
420.53	3854.86
420.72	3765.92
420.91	3702.73
421.10	3705.07
421.29	3859.54
421.48	3770.60
421.67	3908.69
421.86	3672.30
422.05	3822.09
422.24	3644.21
422.43	3810.39
422.61	3808.05
422.80	3922.74
422.99	3894.65
423.18	3868.91
423.37	4121.68
423.56	4105.30
423.75	4072.53
423.94	3740.18
424.13	3648.90
424.32	3845.50
424.50	3955.51
424.69	4004.66
424.88	3934.44
425.07	3934.44
425.26	3705.07
425.45	3866.56
425.64	3948.48
425.83	3927.42
426.01	4067.85
426.20	3995.29
426.39	4088.92
426.58	3871.25
426.77	3747.20
426.96	4105.30
427.15	3976.57
427.33	4077.21
427.52	4067.85
427.71	4131.05
427.90	4009.34
428.09	4081.89
428.28	4184.88
428.46	4175.52
428.65	4152.11
428.84	4180.20
429.03	4262.12
429.22	4016.36
429.40	3983.59
429.59	3967.21
429.78	3861.88
429.97	3871.25
430.16	3983.59
430.34	4273.82
430.53	4229.35
430.72	4194.24
430.91	4159.13
431.10	4418.93
431.28	4482.13
431.47	4603.83
431.66	4779.37
431.85	4538.30
432.03	4505.53
432.22	4526.60
432.41	4746.61
432.60	4531.28
432.79	4699.80
432.97	4767.67
433.16	4690.43
433.35	4716.18
433.54	4786.40
433.72	4634.26
433.91	4617.88
434.10	4760.65
434.28	4786.40
434.47	4751.29
434.66	4849.59
434.85	4809.80
435.03	5078.96
435.22	4770.01
435.41	5022.79
435.59	4959.60
435.78	4961.94
435.97	5128.11
436.16	5135.14
436.34	5107.05
436.53	5039.17
436.72	5121.09
436.90	4997.04
437.09	5102.37
437.28	5100.03
437.46	5233.44
437.65	5088.32
437.84	5085.98
438.02	5081.30
438.21	5142.16
438.40	5097.69
438.58	5371.53
438.77	5458.13
438.96	5547.07
439.14	5518.98
439.33	5490.90
439.52	5591.54
439.70	5647.71
439.89	5643.03
440.08	5722.61
440.26	5537.71
440.45	5729.63
440.63	5561.11
440.82	5830.27
441.01	5809.21
441.19	5909.85
441.38	5966.03
441.57	6242.21
441.75	6080.71
441.94	6090.07
442.12	6090.07
442.31	6427.11
442.50	6417.75
442.68	6300.72
442.87	6284.34
443.05	6265.61
443.24	6319.45
443.43	6387.32
443.61	6492.65
443.80	6562.86
443.98	6431.79
444.17	6289.02
444.35	6590.95
444.54	6417.75
444.73	6604.99
444.91	6471.58
445.10	6317.11
445.28	6473.92
445.47	6328.81
445.65	6509.03
445.84	6464.56
446.02	6487.96
446.21	6452.86
446.39	6410.73
446.58	6597.97
446.77	6785.21
446.95	6581.59
447.14	6593.29
447.32	6754.79
447.51	6726.70
447.69	6459.88
447.88	6649.46
448.06	6562.86
448.25	6644.78
448.43	6539.46
448.62	6670.53
448.80	6796.92
448.99	6810.96
449.17	6682.23
449.36	6726.70
449.54	7026.29
449.73	7169.06
449.91	7133.95
450.10	7080.12
450.28	7262.68
450.46	7236.94
450.65	7258.00
450.83	7258.00
451.02	7082.46
451.20	7290.77
451.39	7370.35
451.57	7272.04
451.76	7204.17
451.94	7164.38
452.13	7253.32
452.31	7140.97
452.49	7056.72
452.68	7267.36
452.86	7087.14
453.05	7164.38
453.23	7227.57
453.42	7197.15
453.60	7087.14
453.78	7529.50
453.97	7384.39
454.15	7391.41
454.34	7232.26
454.52	7660.57
454.70	7323.54
454.89	7417.16
455.07	7452.27
455.26	7655.89
455.44	7660.57
455.62	7758.88
455.81	7721.43
455.99	7765.90
456.17	7864.20
456.36	7824.41
456.54	7868.88
456.73	7829.09
456.91	8217.62
457.09	8060.80
457.28	8180.17
457.46	8156.77
457.64	8149.75
457.83	7901.65
458.01	7810.37
458.19	8231.66
458.38	8035.06
458.56	8262.09
458.74	8278.47
458.93	8159.11
459.11	8252.73
459.29	8177.83
459.48	8126.34
459.66	8124.00
459.84	8095.91
460.03	8393.16
460.21	8400.18
460.39	8365.07
460.57	8557.00
460.76	8528.91
460.94	8458.70
461.12	8624.87
461.31	8575.72
461.49	8774.67
461.67	8643.60
461.85	8905.74
462.04	8865.95
462.22	9172.56
462.40	8844.88
462.59	8835.52
462.77	8947.87
462.95	9053.19
463.13	8734.88
463.32	8774.67
463.50	8978.30
463.68	9055.53
463.86	8905.74
464.05	8774.67
464.23	8980.64
464.41	8945.53
464.59	8641.26
464.78	9167.88
464.96	9252.14
465.14	9036.81
465.32	9036.81
465.50	9167.88
465.69	9259.16
465.87	8964.25
466.05	9090.64
466.23	9071.92
466.41	9174.90
466.60	9312.99
466.78	9125.75
466.96	9188.94
467.14	9184.26
467.32	9149.15
467.51	9420.66
467.69	9060.21
467.87	9348.10
468.05	9387.89
468.23	9453.42
468.41	9423.00
468.60	9547.05
468.78	9420.66
468.96	9584.49
469.14	9575.13
469.32	9694.50
469.50	9540.02
469.69	9448.74
469.87	9776.42
470.05	9720.24
470.23	9703.86
470.41	9820.89
470.59	9926.21
470.77	9832.59
470.95	9860.68
471.14	10097.07
471.32	9858.34
471.50	10108.77
471.68	10193.03
471.86	10228.14
472.04	10370.91
472.22	10455.17
472.40	10120.48
472.58	10497.30
472.77	10345.17
472.95	10661.14
473.13	10899.87
473.31	10623.69
473.49	10352.19
473.67	10427.09
473.85	10569.86
474.03	10834.34
474.21	10750.08
474.39	10881.15
474.57	10958.39
474.75	11037.97
474.93	11056.69
475.12	10977.11
475.30	11176.06
475.48	11201.80
475.66	11110.52
475.84	11185.42
476.02	11204.14
476.20	11304.79
476.38	11485.01
476.56	12081.85
476.74	11765.87
476.92	11651.19
477.10	11683.95
477.28	11868.86
477.46	11873.54
477.64	12030.35
477.82	12285.47
478.00	12564.00
478.18	12451.65
478.36	12393.14
478.54	12571.02
478.72	12643.57
478.90	12821.45
479.08	13142.11
479.26	13151.47
479.44	13048.49
479.62	13214.66
479.80	13142.11
479.98	13027.42
480.16	13401.91
480.34	13577.45
480.52	13792.78
480.70	13778.73
480.88	13687.45
481.06	13757.67
481.24	13973.00
481.41	14090.02
481.59	14452.81
481.77	14113.43
481.95	14347.48
482.13	14228.12
482.31	14438.76
482.49	14675.16
482.67	14953.68
482.85	15002.83
483.03	14977.09
483.21	15159.65
483.39	15335.19
483.57	15456.90
483.74	15520.09
483.92	15548.18
484.10	15477.96
484.28	15845.43
484.46	16142.67
484.64	16262.04
484.82	15955.43
485.00	16051.39
485.18	16278.43
485.35	16252.68
485.53	16074.80
485.71	15847.77
485.89	16470.35
486.07	16470.35
486.25	16425.88
486.43	16870.58
486.61	16863.56
486.78	17312.94
486.96	17081.23
487.14	17568.06
487.32	17687.43
487.50	17930.84
487.68	18150.85
487.85	18146.17
488.03	18230.43
488.21	18644.71
488.39	18225.75
488.57	18724.29
488.75	18860.04
488.92	19094.09
489.10	19440.49
489.28	19328.14
489.46	19838.38
489.64	19295.38
489.81	19910.94
489.99	20163.72
490.17	20236.27
490.35	20362.66
490.53	20444.58
490.70	20362.66
490.88	20318.19
491.06	20772.25
491.24	20755.87
491.41	20545.22
491.59	20613.10
491.77	20582.67
491.95	20886.94
492.13	21254.40
492.30	21296.53
492.48	21788.05
492.66	21673.36
492.84	21727.19
493.01	22029.12
493.19	21766.98
493.37	22127.42
493.54	22101.68
493.72	22569.79
493.90	22501.91
494.08	22675.11
494.25	22881.08
494.43	22792.14
494.61	23204.07
494.79	23255.56
494.96	23082.36
495.14	23344.50
495.32	23440.47
495.49	23466.21
495.67	23758.78
495.85	23723.67
496.02	23992.83
496.20	24161.35
496.38	23974.11
496.55	24208.16
496.73	24816.70
496.91	24718.40
497.09	24587.33
497.26	24797.98
497.44	25055.43
497.62	24554.56
497.79	25036.71
497.97	24968.84
498.14	25565.67
498.32	25577.37
498.50	25420.56
498.67	25984.63
498.85	25813.77
499.03	26134.42
499.20	25956.54
499.38	26029.10
499.56	26059.52
499.73	26335.71
499.91	26302.94
500.08	26611.89
500.26	25979.95
500.44	26429.33
500.61	26445.71
500.79	26169.53
500.97	26726.58
501.14	26780.41
501.32	26850.63
501.49	27206.39
501.67	27182.98
501.84	27363.20
502.02	27269.58
502.20	27414.69
502.37	27517.68
502.55	27412.35
502.72	27515.34
502.90	27814.93
503.07	27903.87
503.25	27857.06
503.43	27655.77
503.60	28140.26
503.78	27866.42
503.95	27934.29
504.13	28212.82
504.30	28510.07
504.48	28570.92
504.65	28432.83
504.83	28631.77
505.01	29167.76
505.18	28648.16
505.36	29373.72
505.53	29277.76
505.71	29582.03
505.88	29844.17
506.06	29315.21
506.23	29350.32
506.41	29277.76
506.58	29640.54
506.76	29804.38
506.93	29788.00
507.11	29773.95
507.28	29977.58
507.46	29387.77
507.63	29956.52
507.81	29823.11
507.98	29940.13
508.16	30188.23
508.33	30281.85
508.50	30541.65
508.68	30738.26
508.85	31023.80
509.03	30934.86
509.20	30958.27
509.38	31199.34
509.55	31374.88
509.73	31192.32
509.90	31096.36
510.08	31318.71
510.25	31454.46
510.42	31035.50
510.60	31304.67
510.77	31749.37
510.95	31873.42
511.12	31915.54
511.30	31807.88
511.47	31943.63
511.64	32299.39
511.82	32191.73
511.99	31749.37
512.17	32336.84
512.34	32151.94
512.51	32547.49
512.69	32809.63
512.86	32339.18
513.04	32348.54
513.21	32535.79
513.38	32706.65
513.56	32608.34
513.73	32680.90
513.90	33008.58
514.08	32790.91
514.25	32844.74
514.43	32606.00
514.60	32849.42
514.77	32919.63
514.95	33560.94
515.12	33399.44
515.29	33460.30
515.47	33493.07
515.64	34071.18
515.81	33659.24
515.99	33610.09
516.16	33546.90
516.33	33177.09
516.51	33399.44
516.68	32936.02
516.85	33050.70
517.03	33408.81
517.20	33949.47
517.37	33949.47
517.54	34485.45
517.72	33989.26
517.89	33780.95
518.06	33621.80
518.24	33865.21
518.41	34045.43
518.58	34462.05
518.75	34417.58
518.93	34829.51
519.10	34543.97
519.27	34850.58
519.45	34801.43
519.62	34710.14
519.79	34911.43
519.96	35129.10
520.14	35412.31
520.31	35021.44
520.48	35335.07
520.65	35061.22
520.83	35739.98
521.00	35534.01
521.17	35941.27
521.34	35962.33
521.52	35875.73
521.69	36149.57
521.86	36041.91
522.03	36191.70
522.20	35859.35
522.38	35892.12
522.55	36381.29
522.72	36224.47
522.89	35709.55
523.07	36371.92
523.24	36313.41
523.41	36713.64
523.58	36348.52
523.75	37125.58
523.92	37022.59
524.10	36816.63
524.27	36835.35
524.44	36886.84
524.61	37244.94
524.78	36893.86
524.96	37411.12
525.13	37315.16
525.30	37436.87
525.47	37394.74
525.64	37502.40
525.81	37376.01
525.98	37373.67
526.16	37081.11
526.33	36823.65
526.50	37483.68
526.67	36685.56
526.84	37027.28
527.01	36987.49
527.18	37207.50
527.36	38057.11
527.53	38263.08
527.70	38237.33
527.87	37677.94
528.04	37738.80
528.21	38518.20
528.38	38139.03
528.55	38670.33
528.72	38295.85
528.89	38328.61
529.07	38464.36
529.24	38445.64
529.41	38616.50
529.58	38834.17
529.75	38550.96
529.92	39028.43
530.09	39044.82
530.26	38852.89
530.43	38775.66
530.60	38972.26
530.77	38920.77
530.94	38916.09
531.11	38834.17
531.28	39227.38
531.46	39145.46
531.63	39452.07
531.80	39086.95
531.97	39419.30
532.14	39564.42
532.31	38986.30
532.48	38789.70
532.65	39306.96
532.82	39367.81
532.99	39683.78
533.16	39784.43
533.33	39669.74
533.50	39950.60
533.67	39456.75
533.84	39653.36
534.01	39447.39
534.18	39533.99
534.35	40423.39
534.52	40318.07
534.69	40161.25
534.86	40374.24
535.03	39885.07
535.20	40217.43
535.37	40730.00
535.54	40519.35
535.71	40336.79
535.88	40545.10
536.05	40545.10
536.22	40704.26
536.38	40549.78
536.55	40575.53
536.72	40264.24
536.89	40065.29
537.06	40568.51
537.23	40935.97
537.40	40751.07
537.57	41228.54
537.74	40648.08
537.91	40514.67
538.08	40935.97
538.25	41366.63
538.42	40535.74
538.59	40863.41
538.75	40554.46
538.92	41340.88
539.09	41017.89
539.26	40861.07
539.43	41591.32
539.60	41467.27
539.77	41261.30
539.94	41345.56
540.11	41207.47
540.28	41172.36
540.44	41301.09
540.61	41202.79
540.78	41439.18
540.95	41647.49
541.12	40861.07
541.29	41525.78
541.46	41607.70
541.62	41490.68
541.79	41869.84
541.96	41130.23
542.13	41380.67
542.30	41518.76
542.47	42092.19
542.63	41865.16
542.80	41844.10
542.97	42199.86
543.14	42384.76
543.31	42218.58
543.48	42288.80
543.64	42838.83
543.81	42749.88
543.98	42380.08
544.15	42618.81
544.32	42672.65
544.48	43107.99
544.65	42349.65
544.82	42398.80
544.99	42218.58
545.16	42777.97
545.32	42895.00
545.49	42567.32
545.66	43459.07
545.83	43091.60
546.00	42686.69
546.16	43196.93
546.33	42576.69
546.50	42323.91
546.67	43143.09
546.83	42363.70
547.00	43009.68
547.17	42972.24
547.34	43086.92
547.50	43257.78
547.67	43051.81
547.84	43351.40
548.00	43325.66
548.17	43402.89
548.34	43180.54
548.51	43927.17
548.67	43559.71
548.84	43826.53
549.01	43159.48
549.18	43428.64
549.34	43648.65
549.51	43395.87
549.68	43798.44
549.84	43753.97
550.01	43735.25
550.18	43885.04
550.34	43777.38
550.51	43800.79
550.68	44034.84
550.84	43414.60
551.01	43739.93
551.18	43686.10
551.34	43662.69
551.51	43772.70
551.68	44406.98
551.84	43721.21
552.01	43725.89
552.18	43765.68
552.34	43751.63
552.51	44093.35
552.68	43941.22
552.84	44287.62
553.01	44428.05
553.18	43941.22
553.34	43709.50
553.51	44053.56
553.67	44112.08
553.84	44704.23
554.01	44535.71
554.17	44893.82
554.34	44652.74
554.51	44460.82
554.67	44737.00
554.84	44222.08
555.00	44327.41
555.17	44226.76
555.33	44542.74
555.50	44369.54
555.67	44582.52
555.83	44442.09
556.00	44399.96
556.16	44788.49
556.33	44573.16
556.50	44748.70
556.66	44575.50
556.83	44343.79
556.99	44708.91
557.16	44847.00
557.32	44617.63
557.49	44872.75
557.65	44697.21
557.82	44451.45
557.98	44636.36
558.15	44968.71
558.32	45331.50
558.48	44718.28
558.65	44727.64
558.81	44336.77
558.98	45003.82
559.14	44886.79
559.31	44769.77
559.47	44837.64
559.64	45289.37
559.80	44509.97
559.97	44935.95
560.13	44444.43
560.30	44685.51
560.46	45008.50
560.63	45338.52
560.79	44973.39
560.96	45081.06
561.12	44802.53
561.29	45097.44
561.45	45120.85
561.61	45191.06
561.78	45144.25
561.94	44577.84
562.11	44809.56
562.27	45076.38
562.44	45535.12
562.60	45811.31
562.77	44884.45
562.93	45200.43
563.10	45261.28
563.26	45244.90
563.42	45392.35
563.59	45242.56
563.75	45148.93
563.92	45272.98
564.08	45478.95
564.24	45748.11
564.41	45123.19
564.57	45535.12
564.74	45460.23
564.90	45394.69
565.07	45478.95
565.23	45530.44
565.39	45581.93
565.56	45216.81
565.72	44935.95
565.88	45181.70
566.05	44856.37
566.21	45511.72
566.38	45076.38
566.54	45628.74
566.70	45663.85
566.87	45607.68
567.03	45844.07
567.19	46199.83
567.36	45972.80
567.52	45539.80
567.68	45546.82
567.85	45734.07
568.01	45478.95
568.17	45558.53
568.34	45528.10
568.50	45104.46
568.66	45504.70
568.83	45904.93
568.99	45572.57
569.15	45558.53
569.32	45375.97
569.48	45258.94
569.64	46059.40
569.81	45654.49
569.97	45500.01
570.13	45572.57
570.30	45331.50
570.46	45329.16
570.62	45270.64
570.78	45284.68
570.95	45282.34
571.11	45628.74
571.27	45127.87
571.43	45357.24
571.60	45720.02
571.76	45724.71
571.92	45705.98
572.09	45815.99
572.25	45794.92
572.41	45790.24
572.57	45359.58
572.74	45874.50
572.90	46024.29
573.06	45928.33
573.22	45574.91
573.38	45387.67
573.55	45617.04
573.71	45617.04
573.87	45691.94
574.03	45844.07
574.20	45839.39
574.36	45586.61
574.52	45724.71
574.68	45738.75
574.84	45818.33
575.01	45612.36
575.17	45584.27
575.33	45282.34
575.49	45542.14
575.65	45918.97
575.82	45851.09
575.98	45345.54
576.14	46010.25
576.30	45830.03
576.46	45846.41
576.62	45858.12
576.79	45350.22
576.95	45846.41
577.11	45595.98
577.27	45401.71
577.43	45713.00
577.59	45848.75
577.75	45408.73
577.92	45649.81
578.08	45551.51
578.24	45731.73
578.40	45668.53
578.56	45708.32
578.72	45544.48
578.88	45900.25
579.04	45801.94
579.21	45727.05
579.37	45574.91
579.53	45823.01
579.69	45769.18
579.85	46000.89
580.01	46005.57
580.17	45785.56
580.33	45537.46
580.49	45668.53
580.65	45982.16
580.82	45467.25
580.98	45595.98
581.14	45172.34
581.30	45949.40
581.46	45656.83
581.62	45830.03
581.78	45656.83
581.94	46340.27
582.10	46040.68
582.26	46284.09
582.42	45804.28
582.58	45928.33
582.74	45935.35
582.90	45954.08
583.06	46085.15
583.22	45663.85
583.38	46230.26
583.54	46326.22
583.70	45790.24
583.86	45567.89
584.02	45874.50
584.18	45628.74
584.34	46087.49
584.50	46169.41
584.66	46319.20
584.82	45565.55
584.98	46052.38
585.14	45965.78
585.30	45457.88
585.46	45841.73
585.62	45546.82
585.78	45991.53
585.94	45275.32
586.10	45727.05
586.26	45614.70
586.42	45991.53
586.58	46043.02
586.74	45827.69
586.90	45666.19
587.06	45944.72
587.22	45844.07
587.38	45785.56
587.54	45703.64
587.70	45860.46
587.86	45893.22
588.02	46003.23
588.18	46267.71
588.34	45865.14
588.49	45514.06
588.65	45361.92
588.81	45350.22
588.97	45404.05
589.13	45207.45
589.29	45235.53
589.45	45558.53
589.61	45319.79
589.77	45961.10
589.93	46031.32
590.08	46167.07
590.24	45694.28
590.40	46059.40
590.56	46028.98
590.72	45909.61
590.88	45914.29
591.04	45649.81
591.20	46415.16
591.35	46237.28
591.51	46291.12
591.67	45815.99
591.83	45834.71
591.99	45743.43
592.15	45645.13
592.31	46241.96
592.46	45914.29
592.62	45975.14
592.78	46202.18
592.94	45790.24
593.10	46190.47
593.26	46363.67
593.41	46064.08
593.57	45893.22
593.73	45881.52
593.89	46452.61
594.05	46155.36
594.20	46082.81
594.36	46089.83
594.52	45979.82
594.68	46094.51
594.84	46185.79
594.99	46279.41
595.15	46068.76
595.31	46050.04
595.47	46307.50
595.62	45963.44
595.78	46239.62
595.94	45867.48
596.10	46302.82
596.25	45914.29
596.41	45764.49
596.57	46096.85
596.73	45956.42
596.88	45839.39
597.04	46155.36
597.20	45928.33
597.36	46183.45
597.51	46288.77
597.67	45818.33
597.83	45670.87
597.99	46438.57
598.14	45792.58
598.30	46169.41
598.46	46246.65
598.61	46302.82
598.77	45956.42
598.93	45961.10
599.09	46160.05
599.24	46487.72
599.40	46274.73
599.56	46562.62
599.71	46064.08
599.87	46122.60
600.03	46094.51
600.18	45916.63
600.34	45888.54
600.50	45956.42
600.65	45918.97
600.81	46431.55
600.97	46522.83
601.12	46204.52
601.28	45956.42
601.44	45518.74
601.59	46092.17
601.75	45705.98
601.91	45900.25
602.06	46157.70
602.22	46110.89
602.37	46192.81
602.53	46082.81
602.69	46227.92
602.84	45998.55
603.00	45684.92
603.16	45841.73
603.31	45811.31
603.47	46080.47
603.62	45698.96
603.78	46087.49
603.94	45886.20
604.09	46106.21
604.25	46108.55
604.40	46183.45
604.56	45652.15
604.71	45713.00
604.87	45771.52
605.03	45989.19
605.18	45560.87
605.34	45961.10
605.49	45595.98
605.65	46309.84
605.80	46171.75
605.96	46309.84
606.12	45654.49
606.27	45895.56
606.43	45474.27
606.58	45776.20
606.74	45588.95
606.89	45715.34
607.05	45488.31
607.20	46178.77
607.36	45481.29
607.51	46005.57
607.67	46178.77
607.82	45921.31
607.98	45490.65
608.13	45703.64
608.29	45876.84
608.44	45106.80
608.60	45483.63
608.75	45640.45
608.91	45579.59
609.06	45064.67
609.22	45773.86
609.37	45471.93
609.53	45696.62
609.68	45504.70
609.84	45397.03
609.99	45588.95
610.15	45118.51
610.30	45069.36
610.46	45071.70
610.61	45099.78
610.76	45778.54
610.92	45862.80
611.07	45448.52
611.23	45041.27
611.38	45659.17
611.54	45165.32
611.69	45411.07
611.84	45338.52
612.00	45406.39
612.15	44966.37
612.31	45500.01
612.46	45167.66
612.62	45563.21
612.77	45191.06
612.92	45214.47
613.08	44823.60
613.23	45095.10
613.39	44734.66
613.54	44797.85
613.69	44638.70
613.85	44844.66
614.00	45022.54
614.15	44877.43
614.31	44641.04
614.46	44898.50
614.62	44648.06
614.77	44748.70
614.92	44561.46
615.08	44603.59
615.23	44802.53
615.38	44971.05
615.54	44641.04
615.69	44381.24
615.84	44542.74
616.00	44659.76
616.15	44301.66
616.30	44938.29
616.46	44769.77
616.61	44205.70
616.76	44505.29
616.92	43971.64
617.07	44418.69
617.22	44072.29
617.37	44294.64
617.53	44505.29
617.68	44786.15
617.83	44524.01
617.99	44615.29
618.14	44402.30
618.29	44549.76
618.45	44186.97
618.60	44320.38
618.75	44112.08
618.90	43700.14
619.06	44095.69
619.21	43938.88
619.36	44219.74
619.51	44072.29
619.67	44165.91
619.82	44093.35
619.97	44240.81
620.12	43901.43
620.28	43524.60
620.43	43735.25
620.58	44086.33
620.73	43559.71
620.89	43924.83
621.04	44011.43
621.19	43840.57
621.34	43636.95
621.49	43606.52
621.65	43772.70
621.80	44130.80
621.95	43761.00
622.10	43798.44
622.25	43728.23
622.41	43910.79
622.56	43505.88
622.71	43718.87
622.86	43225.01
623.01	43519.92
623.16	43566.73
623.32	43711.84
623.47	43213.31
623.62	43477.79
623.77	43440.34
623.92	43323.32
624.07	42930.11
624.23	43316.29
624.38	43278.85
624.53	43175.86
624.68	43248.42
624.83	43363.11
624.98	43009.68
625.13	42820.10
625.29	43414.60
625.44	42623.50
625.59	42780.31
625.74	42672.65
625.89	42941.81
626.04	42614.13
626.19	42553.28
626.34	43035.43
626.49	42698.39
626.65	42948.83
626.80	42721.80
626.95	42906.70
627.10	42525.19
627.25	42581.37
627.40	42415.19
627.55	42312.20
627.70	42246.67
627.85	42497.11
628.00	42644.56
628.15	42541.58
628.30	42380.08
628.45	42663.28
628.60	42036.02
628.76	42621.16
628.91	42007.94
629.06	42139.00
629.21	42096.88
629.36	42092.19
629.51	41914.31
629.66	42234.97
629.81	42169.43
629.96	42291.14
630.11	41827.71
630.26	41963.46
630.41	42532.22
630.56	42344.97
630.71	42300.50
630.86	41998.57
631.01	41862.82
631.16	41942.40
631.31	42038.36
631.46	41186.41
631.61	42155.39
631.76	41570.25
631.91	41617.07
632.06	41727.07
632.21	41680.26
632.36	41968.15
632.51	41308.11
632.66	41785.58
632.81	41441.53
632.96	41748.14
633.10	41481.31
633.25	41743.45
633.40	41509.40
633.55	41858.14
633.70	41645.15
633.85	41816.01
634.00	41443.87
634.15	41422.80
634.30	41160.66
634.45	41448.55
634.60	41406.42
634.75	41060.02
634.90	41031.93
635.05	41212.15
635.19	40844.69
635.34	41558.55
635.49	41125.55
635.64	41373.65
635.79	41261.30
635.94	41116.19
636.09	41155.98
636.24	40842.35
636.39	41001.50
636.53	40825.96
636.68	40950.01
636.83	41085.76
636.98	40802.56
637.13	40760.43
637.28	41242.58
637.43	40975.76
637.57	41163.00
637.72	40795.54
637.87	40692.55
638.02	40617.66
638.17	40940.65
638.32	40467.86
638.46	40315.73
638.61	40699.58
638.76	40449.14
638.91	40315.73
639.06	40182.32
639.20	40596.59
639.35	40769.79
639.50	40488.93
639.65	40287.64
639.80	40603.61
639.94	40804.90
640.09	40091.04
640.24	40079.33
640.39	39660.38
640.54	40016.14
640.68	39821.87
640.83	40062.95
640.98	39716.55
641.13	39700.17
641.27	40240.83
641.42	39901.45
641.57	40208.06
641.72	40179.98
641.86	40053.59
642.01	39611.23
642.16	39613.57
642.31	39643.99
642.45	40158.91
642.60	39512.92
642.75	39655.70
642.90	39864.00
643.04	39428.66
643.19	39510.58
643.34	39746.98
643.48	40147.21
643.63	39398.24
643.78	39391.22
643.93	39758.68
644.07	39145.46
644.22	39606.55
644.37	39627.61
644.51	39620.59
644.66	39578.46
644.81	39150.14
644.95	39601.86
645.10	39592.50
645.25	39587.82
645.39	39660.38
645.54	39737.62
645.69	38965.24
645.83	39079.92
645.98	39049.50
646.13	38993.32
646.27	38934.81
646.42	38696.08
646.57	38976.94
646.71	39250.78
646.86	39330.36
647.00	39564.42
647.15	39100.99
647.30	38824.81
647.44	38593.09
647.59	38951.20
647.74	38370.74
647.88	38794.38
648.03	38946.51
648.17	38831.83
648.32	38621.18
648.47	38651.61
648.61	38387.13
648.76	38920.77
648.90	39023.75
649.05	38438.62
649.20	39086.95
649.34	38202.22
649.49	38562.67
649.63	38843.53
649.78	38646.93
649.92	38719.48
650.07	38759.27
650.21	38815.44
650.36	38586.07
650.51	38588.41
650.65	38909.07
650.80	39391.22
650.94	38632.88
651.09	38562.67
651.23	38246.69
651.38	38066.47
651.52	38087.54
651.67	38080.52
651.81	37841.78
651.96	38265.42
652.10	38045.41
652.25	38347.34
652.39	38330.95
652.54	37993.92
652.68	38103.92
652.83	38234.99
652.97	38539.26
653.12	37942.42
653.26	37577.30
653.41	37432.19
653.55	38071.15
653.70	38197.54
653.84	37837.10
653.99	38132.01
654.13	38073.49
654.27	37706.03
654.42	37799.65
654.56	37897.95
654.71	37961.15
654.85	38054.77
655.00	38117.96
655.14	37518.79
655.29	37338.57
655.43	37530.49
655.57	37085.79
655.72	36947.70
655.86	36959.40
656.01	36833.01
656.15	36861.10
656.30	36690.24
656.44	36699.60
656.58	36968.76
656.73	37031.96
656.87	37141.96
657.01	37099.83
657.16	36931.31
657.30	36954.72
657.45	36744.07
657.59	36816.63
657.73	36917.27
657.88	36989.83
658.02	37406.44
658.16	37240.26
658.31	37251.97
658.45	37116.22
658.60	36807.26
658.74	36994.51
658.88	37083.45
659.03	36769.82
659.17	36718.32
659.31	36685.56
659.46	36184.68
659.60	36285.33
659.74	36573.21
659.89	36135.53
660.03	36385.97
660.17	36589.59
660.32	36751.09
660.46	36470.23
660.60	36484.27
660.74	36561.51
660.89	36767.48
661.03	36009.14
661.17	36402.35
661.32	36023.19
661.46	35938.93
661.60	35817.22
661.74	35728.28
661.89	36072.34
662.03	35943.61
662.17	35821.90
662.31	35667.42
662.46	36395.33
662.60	36182.34
662.74	35941.27
662.88	35222.72
663.03	35253.15
663.17	35395.92
663.31	34951.22
663.45	35159.53
663.60	35793.81
663.74	35274.21
663.88	35306.98
664.02	34771.00
664.17	35117.40
664.31	34955.90
664.45	35325.71
664.59	34991.01
664.73	34740.57
664.88	34792.06
665.02	34455.03
665.16	34448.00
665.30	34092.24
665.44	34607.16
665.59	34183.52
665.73	34237.36
665.87	34302.89
666.01	34164.80
666.15	34646.95
666.29	33970.54
666.44	34368.43
666.58	34073.52
666.72	34103.95
666.86	34099.26
667.00	34068.84
667.14	34120.33
667.28	34038.41
667.43	34220.97
667.57	33930.75
667.71	33755.21
667.85	34157.78
667.99	34064.16
668.13	34005.64
668.27	33806.70
668.41	33525.83
668.56	33605.41
668.70	33596.05
668.84	33350.29
668.98	33134.96
669.12	33694.35
669.26	33322.21
669.40	32652.81
669.54	33244.97
669.68	33022.62
669.82	32814.31
669.96	32552.17
670.10	33043.68
670.25	33062.41
670.39	32802.61
670.53	32744.09
670.67	32847.08
670.81	32847.08
670.95	32650.47
671.09	32442.17
671.23	32208.11
671.37	32053.64
671.51	32393.01
671.65	32093.43
671.79	32098.11
671.93	31807.88
672.07	32060.66
672.21	31906.18
672.35	31651.06
672.49	32149.60
672.63	31480.21
672.77	31630.00
672.91	31833.63
673.05	31597.23
673.19	31276.58
673.33	31519.99
673.47	31522.34
673.61	31299.98
673.75	31094.02
673.89	31215.72
674.03	30972.31
674.17	31250.83
674.31	31381.90
674.45	31051.89
674.59	30497.18
674.73	31351.48
674.87	30883.37
675.01	30703.15
675.15	30934.86
675.29	30473.78
675.43	31028.48
675.56	30749.96
675.70	30312.28
675.84	30696.13
675.98	29392.45
676.12	30316.96
676.26	30679.74
676.40	30279.51
676.54	29806.72
676.68	29921.41
676.82	29202.86
676.96	29654.59
677.10	29750.55
677.23	29670.97
677.37	29280.10
677.51	29383.09
677.65	29083.50
677.79	28732.42
677.93	29024.98
678.07	29256.70
678.21	28549.85
678.34	28547.51
678.48	28428.15
678.62	28058.34
678.76	28135.58
678.90	28088.77
679.04	28027.92
679.18	28079.41
679.31	27590.24
679.45	27775.14
679.59	27737.69
679.73	27946.00
679.87	27964.72
680.00	28180.05
680.14	27412.35
680.28	27618.32
680.42	27358.52
680.56	27550.45
680.70	27257.88
680.83	26864.67
680.97	26843.60
681.11	27197.02
681.25	27243.84
681.39	26768.71
681.52	26827.22
681.66	27028.51
681.80	26342.73
681.94	26345.07
682.07	26565.08
682.21	25970.58
682.35	25970.58
682.49	26515.93
682.62	25881.64
682.76	25876.96
682.90	26164.85
683.04	26078.25
683.17	25668.66
683.31	25453.33
683.45	25502.48
683.59	25401.83
683.72	25806.75
683.86	25502.48
684.00	25230.98
684.13	25177.14
684.27	24685.63
684.41	24882.24
684.55	24636.48
684.68	24741.80
684.82	24610.73
684.96	25116.29
685.09	24645.84
685.23	24858.83
685.37	24159.01
685.50	24446.90
685.64	24292.42
685.78	24247.95
685.91	23917.93
686.05	24109.86
686.19	23601.96
686.32	23768.14
686.46	23604.30
686.60	23054.28
686.73	23379.61
686.87	23110.45
687.01	22991.08
687.14	23278.97
687.28	22506.59
687.42	23051.94
687.55	22693.83
687.69	23351.52
687.82	22703.20
687.96	22829.59
688.10	22593.19
688.23	22492.55
688.37	22293.60
688.50	22422.33
688.64	22403.61
688.78	22361.48
688.91	21846.56
689.05	21970.61
689.18	22113.38
689.32	21495.48
689.46	22101.68
689.59	21888.69
689.73	22139.13
689.86	21401.86
690.00	21460.37
690.13	21233.34
690.27	21025.03
690.41	21109.29
690.54	20975.88
690.68	21083.55
690.81	21191.21
690.95	20943.11
691.08	21076.52
691.22	20938.43
691.35	20769.91
691.49	21144.40
691.62	20889.28
691.76	20718.42
691.89	20709.06
692.03	20152.01
692.16	20198.82
692.30	20074.77
692.43	20170.74
692.57	19807.95
692.70	19803.27
692.84	19871.15
692.97	19534.11
693.11	19660.50
693.24	19557.52
693.38	19442.83
693.51	19417.08
693.65	19620.71
693.78	19480.28
693.92	19466.24
694.05	19255.59
694.19	19035.58
694.32	19384.32
694.45	19243.88
694.59	19056.64
694.72	18799.18
694.86	18700.88
694.99	18824.93
695.13	18670.45
695.26	18560.45
695.39	18485.55
695.53	18782.80
695.66	18607.26
695.80	18595.56
695.93	18164.90
696.07	17888.71
696.20	18106.38
696.33	17914.46
696.47	17914.46
696.60	17689.77
696.73	17511.89
696.87	17682.75
697.00	17334.01
697.14	17357.41
697.27	17135.06
697.40	17399.54
697.54	17329.33
697.67	17462.74
697.80	17128.04
697.94	17245.07
698.07	17029.74
698.21	16919.73
698.34	16905.69
698.47	17174.85
698.61	16776.96
698.74	16821.43
698.87	16758.24
699.01	16669.30
699.14	16453.97
699.27	16121.61
699.40	16409.50
699.54	16573.33
699.67	15999.90
699.80	16130.97
699.94	16107.57
700.07	16011.60
700.20	16004.58
700.34	15932.03
700.47	15592.65
700.60	15915.64
700.73	15836.06
700.87	15580.95
701.00	15332.85
701.13	15419.45
701.26	15197.10
701.40	15119.86
701.53	15108.16
701.66	15080.07
701.79	15117.52
701.93	15082.41
702.06	14836.66
702.19	14984.11
702.32	15094.11
702.46	14984.11
702.59	14871.76
702.72	14581.54
702.85	14590.90
702.99	14663.46
703.12	14403.66
703.25	14251.52
703.38	14588.56
703.51	14469.19
703.65	14162.58
703.78	14221.10
703.91	13881.72
704.04	14066.62
704.17	13820.86
704.31	13965.98
704.44	13909.80
704.57	13792.78
704.70	13359.78
704.83	13521.27
704.96	13490.85
705.10	13530.64
705.23	13530.64
>>>>>End Processed Spectral Data<<<<<
