SpectraSuite Data File
++++++++++++++++++++++++++++++++++++
Date: Fri Oct 25 10:47:36 EDT 2013
User: price-jones
Dark Spectrum Present: No
Reference Spectrum Present: No
Number of Sampled Component Spectra: 1
Spectrometers: USB2+H05261
Integration Time (usec): 100000 (USB2+H05261)
Spectra Averaged: 1 (USB2+H05261)
Boxcar Smoothing: 0 (USB2+H05261)
Correct for Electrical Dark: No (USB2+H05261)
Strobe/Lamp Enabled: No (USB2+H05261)
Correct for Detector Non-linearity: No (USB2+H05261)
Correct for Stray Light: No (USB2+H05261)
Number of Pixels in Processed Spectrum: 2048
>>>>>Begin Processed Spectral Data<<<<<
365.73	133.41
365.92	133.41
366.12	133.41
366.32	28.09
366.52	18.72
366.72	56.17
366.91	51.49
367.11	51.49
367.31	0.00
367.51	42.13
367.70	0.00
367.90	72.56
368.10	72.56
368.30	60.85
368.49	21.06
368.69	11.70
368.89	4.68
369.09	46.81
369.28	28.09
369.48	84.26
369.68	102.98
369.87	117.03
370.07	84.26
370.27	145.11
370.47	238.73
370.66	386.19
370.86	430.66
371.06	458.74
371.25	407.25
371.45	486.83
371.65	510.24
371.84	418.96
372.04	449.38
372.24	465.77
372.44	503.22
372.63	547.69
372.83	538.32
373.03	470.45
373.22	472.79
373.42	519.60
373.62	528.96
373.81	540.66
374.01	479.81
374.21	608.54
374.40	512.58
374.60	510.24
374.79	568.75
374.99	601.52
375.19	533.64
375.38	507.90
375.58	603.86
375.78	573.43
375.97	664.71
376.17	648.33
376.37	573.43
376.56	575.77
376.76	620.24
376.95	575.77
377.15	629.60
377.35	524.28
377.54	634.29
377.74	601.52
377.93	528.96
378.13	732.59
378.33	713.86
378.52	641.31
378.72	617.90
378.91	634.29
379.11	706.84
379.31	587.47
379.50	613.22
379.70	674.07
379.89	688.12
380.09	725.57
380.28	606.20
380.48	683.44
380.68	667.05
380.87	624.92
381.07	730.25
381.26	671.73
381.46	631.94
381.65	720.88
381.85	692.80
382.04	638.97
382.24	699.82
382.43	727.91
382.63	634.29
382.83	732.59
383.02	662.37
383.22	685.78
383.41	650.67
383.61	746.63
383.80	781.74
384.00	648.33
384.19	739.61
384.39	709.18
384.58	828.55
384.78	727.91
384.97	734.93
385.17	755.99
385.36	711.52
385.56	723.23
385.75	704.50
385.95	770.04
386.14	784.08
386.34	758.33
386.53	755.99
386.72	720.88
386.92	786.42
387.11	786.42
387.31	786.42
387.50	854.30
387.70	854.30
387.89	833.23
388.09	826.21
388.28	791.10
388.48	873.02
388.67	844.93
388.86	891.74
389.06	933.87
389.25	917.49
389.45	903.45
389.64	912.81
389.84	884.72
390.03	842.59
390.22	954.94
390.42	908.13
390.61	887.06
390.81	968.98
391.00	1011.11
391.19	976.00
391.39	978.34
391.58	1036.86
391.78	1064.94
391.97	950.26
392.16	957.28
392.36	1032.18
392.55	1015.79
392.75	1027.50
392.94	938.55
393.13	1036.86
393.33	1001.75
393.52	978.34
393.71	1034.52
393.91	1020.47
394.10	1069.62
394.29	1071.97
394.49	994.73
394.68	1193.67
394.88	1144.52
395.07	1053.24
395.26	1132.82
395.46	1081.33
395.65	1158.57
395.84	1109.41
396.04	1214.74
396.23	1121.12
396.42	1151.54
396.62	1114.10
396.81	1165.59
397.00	1181.97
397.19	1198.35
397.39	1165.59
397.58	1247.51
397.77	1238.14
397.97	1294.32
398.16	1317.72
398.35	1291.98
398.55	1413.68
398.74	1341.13
398.93	1420.71
399.12	1359.85
399.32	1331.76
399.51	1345.81
399.70	1399.64
399.90	1350.49
400.09	1416.02
400.28	1432.41
400.47	1376.24
400.67	1502.62
400.86	1479.22
401.05	1535.39
401.24	1406.66
401.44	1497.94
401.63	1504.96
401.82	1568.16
402.01	1504.96
402.21	1537.73
402.40	1502.62
402.59	1584.54
402.78	1549.43
402.97	1521.35
403.17	1568.16
403.36	1746.04
403.55	1720.29
403.74	1699.23
403.93	1659.44
404.13	1659.44
404.32	1619.65
404.51	1589.22
404.70	1750.72
404.89	1748.38
405.09	1809.23
405.28	1701.57
405.47	1689.87
405.66	1771.79
405.85	1661.78
406.05	1820.94
406.24	1811.57
406.43	1816.26
406.62	1856.04
406.81	1879.45
407.00	1944.99
407.20	1832.64
407.39	2001.16
407.58	1970.73
407.77	1902.86
407.96	1994.14
408.15	1987.11
408.34	2050.31
408.54	2029.24
408.73	2031.58
408.92	1994.14
409.11	2045.63
409.30	2132.23
409.49	2101.80
409.68	2022.22
409.87	2108.82
410.07	2141.59
410.26	2129.89
410.45	2160.31
410.64	2258.62
410.83	2326.49
411.02	2225.85
411.21	2305.43
411.40	2361.60
411.59	2422.45
411.78	2420.11
411.98	2368.62
412.17	2410.75
412.36	2438.84
412.55	2452.88
412.74	2499.69
412.93	2516.08
413.12	2509.05
413.31	2703.32
413.50	2478.63
413.69	2534.80
413.88	2715.02
414.07	2525.44
414.26	2572.25
414.45	2672.89
414.64	2705.66
414.83	2679.91
415.02	2757.15
415.22	2787.58
415.41	2771.19
415.60	2846.09
415.79	2764.17
415.98	2993.55
416.17	2918.65
416.36	2974.82
416.55	2827.37
416.74	3026.31
416.93	3000.57
417.12	3082.49
417.31	3052.06
417.50	2998.23
417.69	3169.09
417.88	3239.30
418.07	3183.13
418.26	3112.91
418.45	3187.81
418.64	3335.26
418.83	3236.96
419.02	3124.62
419.21	3339.94
419.39	3173.77
419.58	3339.94
419.77	3274.41
419.96	3262.71
420.15	3361.01
420.34	3534.21
420.53	3386.76
420.72	3510.80
420.91	3351.65
421.10	3442.93
421.29	3550.59
421.48	3379.73
421.67	3400.80
421.86	3531.87
422.05	3529.53
422.24	3452.29
422.43	3562.30
422.61	3623.15
422.80	3515.48
422.99	3454.63
423.18	3559.95
423.37	3667.62
423.56	3641.87
423.75	3688.68
423.94	3506.12
424.13	3466.33
424.32	3468.67
424.50	3616.13
424.69	3691.02
424.88	3609.11
425.07	3499.10
425.26	3566.98
425.45	3529.53
425.64	3534.21
425.83	3606.77
426.01	3660.60
426.20	3700.39
426.39	3625.49
426.58	3576.34
426.77	3623.15
426.96	3581.02
427.15	3510.80
427.33	3765.92
427.52	3740.18
427.71	3702.73
427.90	3831.46
428.09	3796.35
428.28	3695.71
428.46	3801.03
428.65	3840.82
428.84	4042.11
429.03	3946.14
429.22	3726.13
429.40	3911.04
429.59	3812.73
429.78	3637.19
429.97	3627.83
430.16	3676.98
430.34	3850.18
430.53	4035.08
430.72	3964.87
430.91	4009.34
431.10	4025.72
431.28	4208.28
431.47	4170.83
431.66	4189.56
431.85	4093.60
432.03	4203.60
432.22	4126.36
432.41	4227.01
432.60	4376.80
432.79	4320.63
432.97	4346.37
433.16	4245.73
433.35	4273.82
433.54	4395.53
433.72	4449.36
433.91	4276.16
434.10	4381.48
434.28	4376.80
434.47	4404.89
434.66	4447.02
434.85	4493.83
435.03	4554.68
435.22	4505.53
435.41	4622.56
435.59	4645.96
435.78	4629.58
435.97	4622.56
436.16	4718.52
436.34	4629.58
436.53	4734.90
436.72	4795.76
436.90	4634.26
437.09	4624.90
437.28	4734.90
437.46	4851.93
437.65	4798.10
437.84	4788.74
438.02	4854.27
438.21	4667.03
438.40	4739.58
438.58	5011.09
438.77	4983.00
438.96	5004.07
439.14	4999.38
439.33	5121.09
439.52	5165.56
439.70	5104.71
439.89	5266.21
440.08	5224.08
440.26	5205.35
440.45	5242.80
440.63	5345.78
440.82	5369.19
441.01	5483.88
441.19	5497.92
441.38	5469.83
441.57	5533.03
441.75	5504.94
441.94	5701.54
442.12	5778.78
442.31	5628.99
442.50	5731.97
442.68	5743.67
442.87	5818.57
443.05	5750.70
443.24	5834.96
443.43	5792.83
443.61	5984.75
443.80	5891.13
443.98	5919.21
444.17	5673.46
444.35	5856.02
444.54	5959.00
444.73	5966.03
444.91	5900.49
445.10	5881.77
445.28	5872.40
445.47	5849.00
445.65	5846.66
445.84	5846.66
446.02	5781.12
446.21	6010.50
446.39	5928.58
446.58	6221.14
446.77	6104.12
446.95	5905.17
447.14	6141.57
447.32	6214.12
447.51	6218.80
447.69	6015.18
447.88	6087.73
448.06	6033.90
448.25	6024.54
448.43	6272.64
448.62	6045.60
448.80	6204.76
448.99	6195.40
449.17	6193.06
449.36	6324.13
449.54	6382.64
449.73	6525.41
449.91	6345.19
450.10	6492.65
450.28	6586.27
450.46	6504.35
450.65	6478.60
450.83	6693.93
451.02	6317.11
451.20	6576.91
451.39	6537.12
451.57	6431.79
451.76	6597.97
451.94	6499.67
452.13	6525.41
452.31	6754.79
452.49	6541.80
452.68	6581.59
452.86	6576.91
453.05	6576.91
453.23	6794.58
453.42	6663.51
453.60	6583.93
453.78	6729.04
453.97	6516.05
454.15	6782.87
454.34	6731.38
454.52	6855.43
454.70	6853.09
454.89	6857.77
455.07	6801.60
455.26	6752.45
455.44	7080.12
455.62	7122.25
455.81	7138.63
455.99	7115.23
456.17	7080.12
456.36	6993.52
456.54	7082.46
456.73	7178.42
456.91	7585.68
457.09	7426.52
457.28	7466.31
457.46	7382.05
457.64	7517.80
457.83	7510.78
458.01	7133.95
458.19	7564.61
458.38	7447.58
458.56	7445.24
458.74	7520.14
458.93	7440.56
459.11	7588.02
459.29	7513.12
459.48	7541.21
459.66	7772.92
459.84	7503.76
460.03	7726.11
460.21	7646.53
460.39	7775.26
460.57	7789.30
460.76	7969.52
460.94	7957.82
461.12	7971.86
461.31	7913.35
461.49	7901.65
461.67	7889.95
461.85	8170.81
462.04	7808.03
462.22	8477.42
462.40	8128.68
462.59	8280.82
462.77	8229.32
462.95	8222.30
463.13	8201.24
463.32	7962.50
463.50	8226.98
463.68	8259.75
463.86	8224.64
464.05	8079.53
464.23	8072.51
464.41	8322.94
464.59	8135.70
464.78	8512.53
464.96	8369.76
465.14	8332.31
465.32	8411.89
465.50	8498.49
465.69	8655.30
465.87	8468.06
466.05	8383.80
466.23	8695.09
466.41	8386.14
466.60	8746.58
466.78	8386.14
466.96	8505.51
467.14	8617.85
467.32	8461.04
467.51	8713.81
467.69	8320.60
467.87	8559.34
468.05	8671.68
468.23	8643.60
468.41	8517.21
468.60	8802.75
468.78	8681.05
468.96	8870.63
469.14	8823.82
469.32	9074.26
469.50	8692.75
469.69	8952.55
469.87	9174.90
470.05	9114.05
470.23	9015.74
470.41	9231.07
470.59	9104.68
470.77	9123.41
470.95	9174.90
471.14	9284.91
471.32	9107.02
471.50	9364.48
471.68	9497.89
471.86	9387.89
472.04	9486.19
472.22	9589.17
472.40	9291.93
472.58	9551.73
472.77	9661.73
472.95	9804.50
473.13	10029.20
473.31	9673.43
473.49	9715.56
473.67	9682.80
473.85	9774.08
474.03	10031.54
474.21	10195.37
474.39	10274.95
474.57	10246.87
474.75	10066.64
474.93	10272.61
475.12	10183.67
475.30	10469.22
475.48	10249.21
475.66	10541.77
475.84	10387.30
476.02	10649.44
476.20	10387.30
476.38	10532.41
476.56	10862.43
476.74	10871.79
476.92	10810.93
477.10	10967.75
477.28	11229.89
477.46	11077.76
477.64	11375.00
477.82	11442.88
478.00	11693.32
478.18	11496.71
478.36	11578.63
478.54	11573.95
478.72	11805.66
478.90	11892.26
479.08	11939.07
479.26	12131.00
479.44	12177.81
479.62	12322.92
479.80	12416.54
479.98	12514.84
480.16	12592.08
480.34	12297.17
480.52	12690.38
480.70	12833.16
480.88	12622.51
481.06	12833.16
481.24	12898.69
481.41	13006.36
481.59	13305.95
481.77	13460.42
481.95	13448.72
482.13	13434.68
482.31	13362.12
482.49	13837.25
482.67	13612.56
482.85	13858.31
483.03	14029.17
483.21	13980.02
483.39	14293.65
483.57	14300.67
483.74	14211.73
483.92	14513.66
484.10	14085.34
484.28	14909.21
484.46	15096.46
484.64	15061.35
484.82	14745.38
485.00	14820.27
485.18	15213.48
485.35	15323.49
485.53	14923.26
485.71	15211.14
485.89	15456.90
486.07	15496.69
486.25	15569.24
486.43	15761.17
486.61	16130.97
486.78	16044.37
486.96	16081.82
487.14	16549.93
487.32	16526.52
487.50	16655.25
487.68	16662.27
487.85	17212.30
488.03	17191.23
488.21	17130.38
488.39	17317.62
488.57	17493.16
488.75	17776.37
488.92	18045.53
489.10	18120.43
489.28	18015.10
489.46	18218.73
489.64	18099.36
489.81	18948.98
489.99	18441.08
490.17	18658.75
490.35	18721.95
490.53	18745.35
490.70	19145.58
490.88	18820.25
491.06	19255.59
491.24	19318.78
491.41	19166.65
491.59	19470.92
491.77	19353.89
491.95	19737.74
492.13	19798.59
492.30	20280.74
492.48	20084.14
492.66	20357.98
492.84	20556.93
493.01	20631.82
493.19	20636.50
493.37	20489.05
493.54	20943.11
493.72	21233.34
493.90	21128.02
494.08	21317.60
494.25	21488.46
494.43	21708.47
494.61	21656.98
494.79	21788.05
494.96	21624.21
495.14	21631.23
495.32	21876.99
495.49	22354.46
495.67	22218.71
495.85	22384.88
496.02	22794.48
496.20	22494.89
496.38	22588.51
496.55	23023.85
496.73	23541.11
496.91	22670.43
497.09	23040.23
497.26	23197.05
497.44	23440.47
497.62	23166.62
497.79	23754.10
497.97	23768.14
498.14	23749.42
498.32	23838.36
498.50	23964.75
498.67	24044.32
498.85	24325.19
499.03	24446.90
499.20	24393.06
499.38	24652.86
499.56	24655.20
499.73	24432.85
499.91	24898.62
500.08	24943.09
500.26	24912.66
500.44	24678.61
500.61	25280.13
500.79	24694.99
500.97	25322.26
501.14	25439.28
501.32	25252.04
501.49	25326.94
501.67	25535.24
501.84	25481.41
502.02	25729.51
502.20	25858.24
502.37	26204.64
502.55	26293.58
502.72	26291.24
502.90	26373.16
503.07	26490.18
503.25	26216.34
503.43	26639.98
503.60	26555.72
503.78	26700.83
503.95	26595.51
504.13	27194.68
504.30	27091.70
504.48	26871.69
504.65	27023.83
504.83	27344.48
505.01	26944.25
505.18	27204.05
505.36	27857.06
505.53	27513.00
505.71	27438.10
505.88	27789.18
506.06	27735.35
506.23	27599.60
506.41	27725.99
506.58	28093.45
506.76	28161.33
506.93	28285.37
507.11	28254.95
507.28	28467.94
507.46	28474.96
507.63	28236.22
507.81	28606.03
507.98	28580.28
508.16	28774.55
508.33	28636.45
508.50	28922.00
508.68	28849.44
508.85	29111.58
509.03	29095.20
509.20	29113.92
509.38	29633.52
509.55	29109.24
509.73	29720.12
509.90	29556.28
510.08	29371.38
510.25	29357.34
510.42	29741.19
510.60	29652.25
510.77	29872.26
510.95	30333.34
511.12	29706.08
511.30	29961.20
511.47	30169.51
511.64	30401.22
511.82	30937.20
511.99	30377.81
512.17	30485.48
512.34	30359.09
512.51	30764.00
512.69	30764.00
512.86	30834.22
513.04	31180.62
513.21	31056.57
513.38	30621.23
513.56	31072.95
513.73	30841.24
513.90	31061.25
514.08	31328.07
514.25	31304.67
514.43	31477.86
514.60	31833.63
514.77	31578.51
514.95	31927.25
515.12	31817.24
515.29	31386.58
515.47	31796.18
515.64	32177.68
515.81	31957.67
515.99	31632.34
516.16	32149.60
516.33	31725.96
516.51	32215.13
516.68	31608.93
516.85	31606.59
517.03	31812.56
517.20	32079.38
517.37	32353.23
517.54	32620.05
517.72	32460.89
517.89	32390.67
518.06	32524.08
518.24	32826.01
518.41	32510.04
518.58	32720.69
518.75	32617.71
518.93	33076.45
519.10	33083.47
519.27	33172.41
519.45	33228.59
519.62	33525.83
519.79	33479.02
519.96	33411.15
520.14	33795.00
520.31	33479.02
520.48	33839.47
520.65	33701.37
520.83	33914.36
521.00	33958.83
521.17	34015.01
521.34	34232.68
521.52	34431.62
521.69	34314.59
521.86	34473.75
522.03	34354.38
522.20	34373.11
522.38	34897.39
522.55	34988.67
522.72	34490.13
522.89	34330.98
523.07	35009.73
523.24	34155.44
523.41	34733.55
523.58	34724.19
523.75	35054.20
523.92	35311.66
524.10	35096.33
524.27	35573.80
524.44	35491.88
524.61	35892.12
524.78	35615.93
524.96	35438.05
525.13	35765.73
525.30	35686.15
525.47	35842.96
525.64	35639.34
525.81	36109.78
525.98	35407.62
526.16	35728.28
526.33	35358.47
526.50	35840.62
526.67	35812.54
526.84	35899.14
527.01	35817.22
527.18	36474.91
527.36	36350.86
527.53	36203.41
527.70	36797.90
527.87	36833.01
528.04	36421.08
528.21	36603.64
528.38	36748.75
528.55	36982.80
528.72	36390.65
528.89	36699.60
529.07	36854.08
529.24	36854.08
529.41	37308.14
529.58	36769.82
529.75	37038.98
529.92	37471.98
530.09	37268.35
530.26	37464.96
530.43	37469.64
530.60	37626.45
530.77	37312.82
530.94	37584.32
531.11	37214.52
531.28	37397.08
531.46	37617.09
531.63	37640.50
531.80	37890.93
531.97	37921.36
532.14	37593.68
532.31	37436.87
532.48	38066.47
532.65	37811.35
532.82	38204.56
532.99	38178.82
533.16	37904.98
533.33	37912.00
533.50	38099.24
533.67	38038.39
533.84	37691.99
534.01	38218.61
534.18	38518.20
534.35	38354.36
534.52	38057.11
534.69	38457.34
534.86	38892.68
535.03	38534.58
535.20	38485.43
535.37	38883.32
535.54	39014.39
535.71	38876.30
535.88	38754.59
536.05	38541.60
536.22	38656.29
536.38	38810.76
536.55	39304.62
536.72	38902.04
536.89	38920.77
537.06	38990.98
537.23	39517.60
537.40	39438.03
537.57	39302.28
537.74	39423.98
537.91	39454.41
538.08	39608.89
538.25	38988.64
538.42	39227.38
538.59	39765.70
538.75	39318.66
538.92	39442.71
539.09	39339.72
539.26	39438.03
539.43	39681.44
539.60	39618.25
539.77	39868.69
539.94	39742.30
540.11	39782.09
540.28	39838.26
540.44	39751.66
540.61	39669.74
540.78	39744.64
540.95	39920.18
541.12	39592.50
541.29	39655.70
541.46	39679.10
541.62	40292.32
541.79	40608.29
541.96	39803.15
542.13	40032.52
542.30	39995.07
542.47	40250.19
542.63	40481.91
542.80	40734.68
542.97	40662.13
543.14	41198.11
543.31	41216.83
543.48	40776.81
543.64	41516.42
543.81	41020.23
543.98	41020.23
544.15	40989.80
544.32	41053.00
544.48	41343.22
544.65	41160.66
544.82	41146.62
544.99	41064.70
545.16	41235.56
545.32	41106.83
545.49	41329.18
545.66	41523.44
545.83	41476.63
546.00	41450.89
546.16	41567.91
546.33	41418.12
546.50	41043.63
546.67	41137.26
546.83	40985.12
547.00	41308.11
547.17	41518.76
547.34	41706.01
547.50	41598.34
547.67	41670.90
547.84	41603.02
548.00	41521.10
548.17	42157.73
548.34	41666.22
548.51	41792.61
548.67	41998.57
548.84	42595.41
549.01	42117.94
549.18	41921.34
549.34	41951.76
549.51	42419.87
549.68	42075.81
549.84	42136.66
550.01	42253.69
550.18	42429.23
550.34	42300.50
550.51	42064.11
550.68	42270.08
550.84	42033.68
551.01	42810.74
551.18	42110.92
551.34	42321.57
551.51	42703.07
551.68	42539.24
551.84	42651.58
552.01	41954.10
552.18	42579.03
552.34	42155.39
552.51	42562.64
552.68	42459.66
552.84	43260.12
553.01	43185.22
553.18	43014.37
553.34	42850.53
553.51	42632.86
553.67	42784.99
553.84	42834.14
554.01	43229.69
554.17	43650.99
554.34	43395.87
554.51	43068.20
554.67	43276.51
554.84	43115.01
555.00	43091.60
555.17	42920.74
555.33	43168.84
555.50	42808.40
555.67	43089.26
555.83	43566.73
556.00	43665.03
556.16	43796.10
556.33	43730.57
556.50	43641.63
556.66	43611.20
556.83	43466.09
556.99	43695.46
557.16	43608.86
557.32	43491.83
557.49	43482.47
557.65	43253.10
557.82	43201.61
557.98	43435.66
558.15	43718.87
558.32	43889.73
558.48	43587.80
558.65	43604.18
558.81	43105.65
558.98	43833.55
559.14	43482.47
559.31	43330.34
559.47	43550.35
559.64	43945.90
559.80	44292.30
559.97	44254.85
560.13	44002.07
560.30	44083.99
560.46	43941.22
560.63	43732.91
560.79	44491.24
560.96	44069.95
561.12	43735.25
561.29	43880.36
561.45	43988.03
561.61	44048.88
561.78	43988.03
561.94	43840.57
562.11	44128.46
562.27	44233.78
562.44	43793.76
562.60	44039.52
562.77	44369.54
562.93	44093.35
563.10	44229.10
563.26	43711.84
563.42	44432.73
563.59	43688.44
563.75	44421.03
563.92	43931.86
564.08	44655.08
564.24	44327.41
564.41	43995.05
564.57	44121.44
564.74	44409.32
564.90	44411.67
565.07	44605.93
565.23	43920.15
565.39	44341.45
565.56	44896.16
565.72	44428.05
565.88	44208.04
566.05	44369.54
566.21	44535.71
566.38	44610.61
566.54	44196.34
566.70	44526.35
566.87	44648.06
567.03	44591.89
567.19	44769.77
567.36	44552.10
567.52	43981.01
567.68	44655.08
567.85	44208.04
568.01	44519.33
568.17	44355.49
568.34	44304.00
568.50	44545.08
568.66	44287.62
568.83	44554.44
568.99	44301.66
569.15	44294.64
569.32	44545.08
569.48	44502.95
569.64	44594.23
569.81	44868.07
569.97	44493.58
570.13	44671.46
570.30	44418.69
570.46	44414.01
570.62	44243.15
570.78	44133.14
570.95	44825.94
571.11	44959.35
571.27	44402.30
571.43	44687.85
571.60	44949.99
571.76	44669.12
571.92	44678.49
572.09	44961.69
572.25	44755.72
572.41	44362.51
572.57	44348.47
572.74	45251.92
572.90	44713.59
573.06	44704.23
573.22	44821.26
573.38	44676.15
573.55	44311.02
573.71	44720.62
573.87	44603.59
574.03	44395.28
574.20	44842.32
574.36	44694.87
574.52	44830.62
574.68	44978.07
574.84	44729.98
575.01	44725.30
575.17	44804.88
575.33	44566.14
575.49	44636.36
575.65	45158.30
575.82	45057.65
575.98	44872.75
576.14	45221.49
576.30	44917.22
576.46	44741.68
576.62	44762.75
576.79	44619.97
576.95	44582.52
577.11	45078.72
577.27	44533.37
577.43	45382.99
577.59	44856.37
577.75	44975.73
577.92	44671.46
578.08	44692.53
578.24	44477.20
578.40	44835.30
578.56	44580.18
578.72	44921.90
578.88	45024.89
579.04	45006.16
579.21	44566.14
579.37	45048.29
579.53	44690.19
579.69	44732.32
579.85	44720.62
580.01	44830.62
580.17	44959.35
580.33	45214.47
580.49	44903.18
580.65	45027.23
580.82	45256.60
580.98	45059.99
581.14	44837.64
581.30	44987.44
581.46	44772.11
581.62	45036.59
581.78	44737.00
581.94	45083.40
582.10	44713.59
582.26	45263.62
582.42	44978.07
582.58	44758.06
582.74	44788.49
582.90	45256.60
583.06	44935.95
583.22	45181.70
583.38	45123.19
583.54	45099.78
583.70	44872.75
583.86	45207.45
584.02	44605.93
584.18	45530.44
584.34	44914.88
584.50	45052.97
584.66	44552.10
584.82	44650.40
584.98	45420.44
585.14	44999.14
585.30	44917.22
585.46	44608.27
585.62	44713.59
585.78	44634.02
585.94	44591.89
586.10	45261.28
586.26	44921.90
586.42	45359.58
586.58	45605.34
586.74	44978.07
586.90	44680.83
587.06	44788.49
587.22	45148.93
587.38	44942.97
587.54	45160.64
587.70	45333.84
587.86	45181.70
588.02	44807.22
588.18	44786.15
588.34	45008.50
588.49	44657.42
588.65	44442.09
588.81	44800.19
588.97	45045.95
589.13	44722.96
589.29	44975.73
589.45	44809.56
589.61	45254.26
589.77	45455.54
589.93	44830.62
590.08	45640.45
590.24	45352.56
590.40	44891.48
590.56	45195.74
590.72	45155.96
590.88	44919.56
591.04	45240.21
591.20	45102.12
591.35	45687.26
591.51	45734.07
591.67	45221.49
591.83	45366.60
591.99	45184.04
592.15	44949.99
592.31	45081.06
592.46	45024.89
592.62	44935.95
592.78	45371.28
592.94	45029.57
593.10	45069.36
593.26	45165.32
593.41	45282.34
593.57	45570.23
593.73	45095.10
593.89	45429.80
594.05	44713.59
594.20	45467.25
594.36	45537.46
594.52	45378.31
594.68	45443.84
594.84	44868.07
594.99	45729.39
595.15	45256.60
595.31	45954.08
595.47	45603.00
595.62	45219.15
595.78	45794.92
595.94	45315.11
596.10	45584.27
596.25	45680.24
596.41	45565.55
596.57	45223.83
596.73	45677.90
596.88	45125.53
597.04	45560.87
597.20	45219.15
597.36	45525.76
597.51	45528.10
597.67	45720.02
597.83	45680.24
597.99	45808.96
598.14	45820.67
598.30	45198.09
598.46	45434.48
598.61	44858.71
598.77	45207.45
598.93	45572.57
599.09	45319.79
599.24	45823.01
599.40	45668.53
599.56	45710.66
599.71	45820.67
599.87	45806.62
600.03	45418.10
600.18	45652.15
600.34	45661.51
600.50	45420.44
600.65	45289.37
600.81	45654.49
600.97	45832.37
601.12	46344.95
601.28	45570.23
601.44	45022.54
601.59	45495.33
601.75	45247.24
601.91	45586.61
602.06	45146.59
602.22	45457.88
602.37	45029.57
602.53	45500.01
602.69	45897.91
602.84	45366.60
603.00	45420.44
603.16	45429.80
603.31	45102.12
603.47	45027.23
603.62	45200.43
603.78	45778.54
603.94	45530.44
604.09	45457.88
604.25	45399.37
604.40	45511.72
604.56	45617.04
604.71	45268.30
604.87	45298.73
605.03	45654.49
605.18	45242.56
605.34	45359.58
605.49	45422.78
605.65	45085.74
605.80	45162.98
605.96	45338.52
606.12	45642.79
606.27	45811.31
606.43	45516.40
606.58	45612.36
606.74	45345.54
606.89	45425.12
607.05	45345.54
607.20	45558.53
607.36	45448.52
607.51	45696.62
607.67	45380.65
607.82	45364.26
607.98	45188.72
608.13	45289.37
608.29	45240.21
608.44	45031.91
608.60	44643.38
608.75	44896.16
608.91	44987.44
609.06	44905.52
609.22	45453.20
609.37	44760.40
609.53	45043.61
609.68	44957.01
609.84	44893.82
609.99	45184.04
610.15	44861.05
610.30	44762.75
610.46	44786.15
610.61	44570.82
610.76	44425.71
610.92	44748.70
611.07	44839.98
611.23	44203.36
611.38	44444.43
611.54	44573.16
611.69	44685.51
611.84	45083.40
612.00	44540.39
612.15	44421.03
612.31	44687.85
612.46	44769.77
612.62	44903.18
612.77	44446.77
612.92	44772.11
613.08	44617.63
613.23	44502.95
613.39	44519.33
613.54	44334.43
613.69	44409.32
613.85	44772.11
614.00	44655.08
614.15	44851.69
614.31	44912.54
614.46	44968.71
614.62	44554.44
614.77	44245.49
614.92	44318.04
615.08	44399.96
615.23	44383.58
615.38	44233.78
615.54	44086.33
615.69	43966.96
615.84	43751.63
616.00	44404.64
616.15	44219.74
616.30	43917.81
616.46	44072.29
616.61	43746.95
616.76	44158.89
616.92	43854.62
617.07	43688.44
617.22	43753.97
617.37	43849.94
617.53	44194.00
617.68	44149.53
617.83	44128.46
617.99	43856.96
618.14	44332.09
618.29	44196.34
618.45	43468.43
618.60	44105.06
618.75	44091.01
618.90	43435.66
619.06	43842.92
619.21	43559.71
619.36	43952.92
619.51	43746.95
619.67	44079.31
619.82	44172.93
619.97	44023.14
620.12	43267.14
620.28	43573.75
620.43	43452.05
620.58	43508.22
620.73	43459.07
620.89	43264.80
621.04	43812.49
621.19	43732.91
621.34	43985.69
621.49	43468.43
621.65	43522.26
621.80	43461.41
621.95	43365.45
622.10	43159.48
622.25	43337.36
622.41	42941.81
622.56	43070.54
622.71	43842.92
622.86	43524.60
623.01	43351.40
623.16	43194.59
623.32	43339.70
623.47	43421.62
623.62	43178.20
623.77	42897.34
623.92	42749.88
624.07	42639.88
624.23	42941.81
624.38	42614.13
624.53	42733.50
624.68	43248.42
624.83	43232.04
624.98	43196.93
625.13	42487.74
625.29	43452.05
625.44	42815.42
625.59	42747.54
625.74	42574.34
625.89	42115.60
626.04	42284.12
626.19	42766.27
626.34	42836.48
626.49	42883.30
626.65	42710.10
626.80	42742.86
626.95	42480.72
627.10	42380.08
627.25	41801.97
627.40	41818.35
627.55	41764.52
627.70	42031.34
627.85	42043.04
628.00	42141.35
628.15	42719.46
628.30	42656.26
628.45	42211.56
628.60	42024.32
628.76	42286.46
628.91	42546.26
629.06	42059.43
629.21	41970.49
629.36	42019.64
629.51	41839.42
629.66	41591.32
629.81	41883.89
629.96	41839.42
630.11	41743.45
630.26	41516.42
630.41	42146.03
630.56	42377.74
630.71	41893.25
630.86	41563.23
631.01	41558.55
631.16	41886.23
631.31	41666.22
631.46	41387.69
631.61	41635.79
631.76	41970.49
631.91	42026.66
632.06	41436.84
632.21	41319.82
632.36	41799.63
632.51	41244.92
632.66	41357.27
632.81	41010.87
632.96	41413.44
633.10	40694.89
633.25	40861.07
633.40	41383.01
633.55	41476.63
633.70	41301.09
633.85	41523.44
634.00	40978.10
634.15	41212.15
634.30	41123.21
634.45	41366.63
634.60	41375.99
634.75	41357.27
634.90	41294.07
635.05	41104.49
635.19	41034.27
635.34	41504.72
635.49	40950.01
635.64	40896.18
635.79	41003.85
635.94	40767.45
636.09	40868.09
636.24	40790.86
636.39	40641.06
636.53	40505.31
636.68	40921.93
636.83	40399.99
636.98	40837.67
637.13	40720.64
637.28	41078.74
637.43	40392.97
637.57	40502.97
637.72	40362.54
637.87	40737.02
638.02	40210.40
638.17	40596.59
638.32	40935.97
638.46	40250.19
638.61	40318.07
638.76	40182.32
638.91	40091.04
639.06	40212.74
639.20	40390.62
639.35	40842.35
639.50	40219.77
639.65	40325.09
639.80	40528.72
639.94	39978.69
640.09	40133.17
640.24	40091.04
640.39	39875.71
640.54	39611.23
640.68	39751.66
640.83	40013.80
640.98	39721.23
641.13	40039.54
641.27	40231.47
641.42	40208.06
641.57	40453.82
641.72	40116.78
641.86	39999.76
642.01	39454.41
642.16	39473.13
642.31	39086.95
642.45	39721.23
642.60	39702.51
642.75	39571.44
642.90	39749.32
643.04	40088.70
643.19	39548.03
643.34	39449.73
643.48	39590.16
643.63	39864.00
643.78	38955.88
643.93	39131.42
644.07	39517.60
644.22	39501.22
644.37	39702.51
644.51	39206.31
644.66	39189.93
644.81	39667.40
644.95	39704.85
645.10	39552.71
645.25	39342.06
645.39	39672.08
645.54	39597.18
645.69	39510.58
645.83	38969.92
645.98	39009.71
646.13	39384.19
646.27	39285.89
646.42	38740.55
646.57	39438.03
646.71	39351.43
646.86	39145.46
647.00	39346.75
647.15	38983.96
647.30	39180.57
647.44	38986.30
647.59	38981.62
647.74	39100.99
647.88	38625.86
648.03	38660.97
648.17	38845.87
648.32	38375.42
648.47	38810.76
648.61	38625.86
648.76	38815.44
648.90	38712.46
649.05	39131.42
649.20	38670.33
649.34	38216.27
649.49	38637.56
649.63	38450.32
649.78	38677.35
649.92	39201.63
650.07	38710.12
650.21	38597.77
650.36	38621.18
650.51	38342.66
650.65	38614.16
650.80	38920.77
650.94	38356.70
651.09	38817.78
651.23	38197.54
651.38	38183.50
651.52	38239.67
651.67	38328.61
651.81	38302.87
651.96	38087.54
652.10	38075.84
652.25	37654.54
652.39	37944.76
652.54	38012.64
652.68	38354.36
652.83	38094.56
652.97	38181.16
653.12	37652.20
653.26	38000.94
653.41	38007.96
653.55	37645.18
653.70	38110.94
653.84	38043.07
653.99	37687.31
654.13	37809.01
654.27	37661.56
654.42	37614.75
654.56	37647.52
654.71	37680.28
654.85	37832.42
655.00	37366.65
655.14	37287.07
655.29	37167.71
655.43	37390.06
655.57	37041.32
655.72	37317.50
655.86	37148.98
656.01	37214.52
656.15	36914.93
656.30	37577.30
656.44	37645.18
656.58	37415.80
656.73	36940.68
656.87	37282.39
657.01	36893.86
657.16	36835.35
657.30	36863.44
657.45	36514.70
657.59	37099.83
657.73	36814.29
657.88	37015.57
658.02	36751.09
658.16	36737.05
658.31	37123.24
658.45	37053.02
658.60	36975.78
658.74	36790.88
658.88	36952.38
659.03	36575.55
659.17	36725.35
659.31	36835.35
659.46	36231.49
659.60	36950.04
659.74	36545.12
659.89	36339.16
660.03	36458.52
660.17	36449.16
660.32	36561.51
660.46	37074.09
660.60	36446.82
660.74	36161.28
660.89	36680.88
661.03	36006.80
661.17	35889.77
661.32	35452.09
661.46	35988.08
661.60	35754.02
661.74	35789.13
661.89	35763.39
662.03	36098.08
662.17	36217.45
662.31	35573.80
662.46	35730.62
662.60	35793.81
662.74	35435.71
662.88	35475.50
663.03	35662.74
663.17	35840.62
663.31	35606.57
663.45	34864.62
663.60	35079.95
663.74	34913.77
663.88	35000.37
664.02	35019.10
664.17	35117.40
664.31	34588.44
664.45	34998.03
664.59	35002.71
664.73	35061.22
664.88	34803.77
665.02	34660.99
665.16	34796.74
665.30	34981.65
665.44	34569.71
665.59	34391.83
665.73	34452.69
665.87	34284.17
666.01	34401.19
666.15	34274.80
666.29	34419.92
666.44	34223.31
666.58	34127.35
666.72	34480.77
666.86	34071.18
667.00	34199.91
667.14	34036.07
667.28	34087.56
667.43	33935.43
667.57	34288.85
667.71	33748.18
667.85	34143.74
667.99	33867.55
668.13	33530.51
668.27	33560.94
668.41	33645.20
668.56	33359.66
668.70	33464.98
668.84	33324.55
668.98	33404.13
669.12	33343.27
669.26	33301.14
669.40	33261.35
669.54	33404.13
669.68	33362.00
669.82	33254.33
669.96	32905.59
670.10	33013.26
670.25	33305.82
670.39	32879.85
670.53	33008.58
670.67	32577.92
670.81	33165.39
670.95	32982.83
671.09	32732.39
671.23	32638.77
671.37	32940.70
671.51	32730.05
671.65	32584.94
671.79	31960.02
671.93	32350.88
672.07	32400.04
672.21	32180.03
672.35	31852.35
672.49	32116.83
672.63	32130.87
672.77	32226.84
672.91	31786.82
673.05	31915.54
673.19	31412.33
673.33	31342.11
673.47	31796.18
673.61	31040.18
673.75	31175.94
673.89	30962.95
674.03	30885.71
674.17	30918.48
674.31	31124.44
674.45	31126.78
674.59	31302.32
674.73	31278.92
674.87	30794.43
675.01	30834.22
675.15	30932.52
675.29	30698.47
675.43	30691.44
675.56	30654.00
675.70	30438.67
675.84	30003.33
675.98	29476.71
676.12	30291.21
676.26	30230.36
676.40	30101.63
676.54	29766.93
676.68	30342.70
676.82	29788.00
676.96	29818.42
677.10	29790.34
677.23	29315.21
677.37	29469.69
677.51	29465.00
677.65	29612.46
677.79	29083.50
677.93	29551.60
678.07	28886.89
678.21	29095.20
678.34	28875.19
678.48	28730.08
678.62	28746.46
678.76	29053.07
678.90	28336.87
679.04	28435.17
679.18	28645.82
679.31	27981.10
679.45	28116.86
679.59	27988.13
679.73	27852.38
679.87	27667.47
680.00	27913.23
680.14	27873.44
680.28	27754.07
680.42	27321.07
680.56	27632.36
680.70	27232.13
680.83	27325.75
680.97	27077.66
681.11	27129.15
681.25	26302.94
681.39	26813.18
681.52	27697.90
681.66	26869.35
681.80	26955.95
681.94	26862.33
682.07	26316.98
682.21	26459.76
682.35	26586.15
682.49	26572.10
682.62	26525.29
682.76	26024.42
682.90	25982.29
683.04	26188.25
683.17	26146.12
683.31	26314.64
683.45	25972.92
683.59	25830.15
683.72	25837.17
683.86	25511.84
684.00	25284.81
684.13	25682.70
684.27	25560.99
684.41	25095.22
684.55	25116.29
684.68	24910.32
684.82	24950.11
684.96	24620.10
685.09	25048.41
685.23	24517.11
685.37	24519.45
685.50	24606.05
685.64	24451.58
685.78	24421.15
685.91	24283.06
686.05	24566.26
686.19	23887.51
686.32	24009.22
686.46	23480.25
686.60	23538.77
686.73	23674.52
686.87	23337.48
687.01	23585.58
687.14	23215.77
687.28	23225.14
687.42	23110.45
687.55	23108.11
687.69	22984.06
687.82	23061.30
687.96	23091.73
688.10	22361.48
688.23	22764.05
688.37	22436.38
688.50	22654.05
688.64	22295.94
688.78	22640.00
688.91	22043.17
689.05	22237.43
689.18	22218.71
689.32	21429.94
689.46	21844.22
689.59	22265.52
689.73	22106.36
689.86	22029.12
690.00	21846.56
690.13	21694.43
690.27	21589.10
690.41	21823.16
690.54	21355.05
690.68	21137.38
690.81	21132.70
690.95	21427.60
691.08	21153.76
691.22	21046.10
691.35	21135.04
691.49	21008.65
691.62	21177.17
691.76	20629.48
691.89	20692.68
692.03	20617.78
692.16	20725.44
692.30	20355.64
692.43	20369.68
692.57	20194.14
692.70	20210.53
692.84	19950.73
692.97	20264.36
693.11	19822.00
693.24	20044.35
693.38	19819.66
693.51	19353.89
693.65	19737.74
693.78	19442.83
693.92	19353.89
694.05	19304.74
694.19	19044.94
694.32	19302.40
694.45	19103.45
694.59	18892.80
694.72	18951.32
694.86	19136.22
694.99	18860.04
695.13	18719.60
695.26	18153.20
695.39	18499.59
695.53	18340.44
695.66	18523.00
695.80	18490.23
695.93	18356.82
696.07	18139.15
696.20	18204.69
696.33	18274.90
696.47	18207.03
696.60	18087.66
696.73	17577.42
696.87	17813.82
697.00	17769.35
697.14	17657.00
697.27	17486.14
697.40	17425.29
697.54	17343.37
697.67	17483.80
697.80	17523.59
697.94	17062.51
698.07	17076.55
698.21	17090.59
698.34	17067.19
698.47	16725.47
698.61	16563.97
698.74	16671.64
698.87	16629.51
699.01	16320.56
699.14	16535.88
699.27	16446.94
699.40	16606.10
699.54	16173.10
699.67	15992.88
699.80	15999.90
699.94	15903.94
700.07	15969.48
700.20	15791.59
700.34	15667.55
700.47	15927.35
700.60	15932.03
700.73	16044.37
700.87	15704.99
701.00	15421.79
701.13	15707.34
701.26	15602.01
701.40	15604.35
701.53	15454.56
701.66	15435.83
701.79	15122.20
701.93	15061.35
702.06	14843.68
702.19	14902.19
702.32	14860.06
702.46	14635.37
702.59	14775.80
702.72	14953.68
702.85	14555.79
702.99	14841.34
703.12	14904.53
703.25	14677.50
703.38	14707.93
703.51	14394.29
703.65	14422.38
703.78	14150.88
703.91	14083.00
704.04	14183.65
704.17	14066.62
704.31	13745.97
704.44	13703.84
704.57	13668.73
704.70	13664.05
704.83	13591.49
704.96	13706.18
705.10	13858.31
705.23	13738.94
>>>>>End Processed Spectral Data<<<<<
