SpectraSuite Data File
++++++++++++++++++++++++++++++++++++
Date: Fri Oct 25 11:33:25 EDT 2013
User: price-jones
Dark Spectrum Present: No
Reference Spectrum Present: No
Number of Sampled Component Spectra: 1
Spectrometers: USB2+H05261
Integration Time (usec): 100000 (USB2+H05261)
Spectra Averaged: 1 (USB2+H05261)
Boxcar Smoothing: 0 (USB2+H05261)
Correct for Electrical Dark: No (USB2+H05261)
Strobe/Lamp Enabled: No (USB2+H05261)
Correct for Detector Non-linearity: No (USB2+H05261)
Correct for Stray Light: No (USB2+H05261)
Number of Pixels in Processed Spectrum: 2048
>>>>>Begin Processed Spectral Data<<<<<
365.73	255.12
365.92	255.12
366.12	255.12
366.32	212.99
366.52	205.97
366.72	215.33
366.91	184.90
367.11	196.60
367.31	149.79
367.51	140.43
367.70	194.26
367.90	128.73
368.10	194.26
368.30	198.95
368.49	168.52
368.69	224.69
368.89	182.56
369.09	196.60
369.28	191.92
369.48	229.37
369.68	212.99
369.87	292.57
370.07	236.39
370.27	273.84
370.47	379.17
370.66	507.90
370.86	510.24
371.06	582.79
371.25	587.47
371.45	470.45
371.65	582.79
371.84	533.64
372.04	538.32
372.24	559.39
372.44	594.50
372.63	587.47
372.83	599.18
373.03	580.45
373.22	573.43
373.42	608.54
373.62	660.03
373.81	643.65
374.01	627.26
374.21	629.60
374.40	594.50
374.60	629.60
374.79	667.05
374.99	664.71
375.19	648.33
375.38	674.07
375.58	617.90
375.78	676.41
375.97	653.01
376.17	638.97
376.37	716.20
376.56	718.54
376.76	664.71
376.95	622.58
377.15	723.23
377.35	699.82
377.54	748.97
377.74	662.37
377.93	732.59
378.13	690.46
378.33	723.23
378.52	671.73
378.72	629.60
378.91	685.78
379.11	706.84
379.31	681.10
379.50	688.12
379.70	709.18
379.89	748.97
380.09	741.95
380.28	816.85
380.48	699.82
380.68	727.91
380.87	702.16
381.07	737.27
381.26	763.01
381.46	772.38
381.65	793.44
381.85	816.85
382.04	791.10
382.24	720.88
382.43	788.76
382.63	748.97
382.83	851.96
383.02	791.10
383.22	830.89
383.41	837.91
383.61	760.67
383.80	791.10
384.00	809.83
384.19	826.21
384.39	812.17
384.58	809.83
384.78	884.72
384.97	807.48
385.17	910.47
385.36	861.32
385.56	823.87
385.75	793.44
385.95	812.17
386.14	816.85
386.34	861.32
386.53	854.30
386.72	816.85
386.92	844.93
387.11	861.32
387.31	858.98
387.50	821.53
387.70	884.72
387.89	917.49
388.09	940.90
388.28	884.72
388.48	840.25
388.67	1004.09
388.86	945.58
389.06	936.21
389.25	898.77
389.45	854.30
389.64	947.92
389.84	980.68
390.03	908.13
390.22	985.37
390.42	896.43
390.61	992.39
390.81	952.60
391.00	987.71
391.19	1015.79
391.39	950.26
391.58	1062.60
391.78	947.92
391.97	997.07
392.16	978.34
392.36	1114.10
392.55	1086.01
392.75	1060.26
392.94	1102.39
393.13	1121.12
393.33	1074.31
393.52	1039.20
393.71	1078.99
393.91	1165.59
394.10	1062.60
394.29	1100.05
394.49	1107.07
394.68	1088.35
394.88	1191.33
395.07	1172.61
395.26	1163.25
395.46	1118.78
395.65	1163.25
395.84	1153.88
396.04	1219.42
396.23	1240.48
396.42	1240.48
396.62	1200.69
396.81	1226.44
397.00	1254.53
397.19	1212.40
397.39	1191.33
397.58	1275.59
397.77	1308.36
397.97	1228.78
398.16	1156.22
398.35	1291.98
398.55	1270.91
398.74	1282.61
398.93	1362.19
399.12	1357.51
399.32	1362.19
399.51	1259.21
399.70	1324.74
399.90	1334.11
400.09	1432.41
400.28	1437.09
400.47	1345.81
400.67	1397.30
400.86	1432.41
401.05	1425.39
401.24	1404.32
401.44	1444.11
401.63	1460.49
401.82	1411.34
402.01	1418.36
402.21	1423.05
402.40	1519.01
402.59	1479.22
402.78	1462.83
402.97	1458.15
403.17	1565.82
403.36	1504.96
403.55	1526.03
403.74	1596.25
403.93	1591.56
404.13	1556.46
404.32	1575.18
404.51	1521.35
404.70	1554.12
404.89	1680.50
405.09	1703.91
405.28	1750.72
405.47	1675.82
405.66	1732.00
405.85	1701.57
406.05	1673.48
406.24	1757.74
406.43	1753.06
406.62	1748.38
406.81	1820.94
407.00	1902.86
407.20	1757.74
407.39	1748.38
407.58	1863.07
407.77	1914.56
407.96	1870.09
408.15	1947.33
408.34	1898.17
408.54	1907.54
408.73	1959.03
408.92	1891.15
409.11	1968.39
409.30	1905.20
409.49	1963.71
409.68	2026.90
409.87	2059.67
410.07	2099.46
410.26	2045.63
410.45	1973.07
410.64	2059.67
410.83	2134.57
411.02	2085.42
411.21	2120.53
411.40	2207.13
411.59	2197.76
411.78	2216.49
411.98	2221.17
412.17	2244.57
412.36	2328.83
412.55	2303.09
412.74	2286.70
412.93	2392.03
413.12	2307.77
413.31	2417.77
413.50	2345.22
413.69	2310.11
413.88	2408.41
414.07	2485.65
414.26	2464.58
414.45	2588.63
414.64	2520.76
414.83	2506.71
415.02	2626.08
415.22	2663.53
415.41	2724.38
415.60	2640.12
415.79	2630.76
415.98	2726.72
416.17	2743.11
416.36	2724.38
416.55	2708.00
416.74	2820.35
416.93	2726.72
417.12	2904.60
417.31	2808.64
417.50	2965.46
417.69	2988.86
417.88	2897.58
418.07	2930.35
418.26	2967.80
418.45	3009.93
418.64	3178.45
418.83	3021.63
419.02	3040.36
419.21	3063.76
419.39	3075.46
419.58	3059.08
419.77	2951.42
419.96	3084.83
420.15	3166.74
420.34	3248.66
420.53	3157.38
420.72	3325.90
420.91	3267.39
421.10	3290.79
421.29	3290.79
421.48	3239.30
421.67	3243.98
421.86	3255.69
422.05	3241.64
422.24	3389.10
422.43	3346.97
422.61	3300.16
422.80	3414.84
422.99	3400.80
423.18	3339.94
423.37	3454.63
423.56	3372.71
423.75	3433.57
423.94	3309.52
424.13	3206.53
424.32	3316.54
424.50	3403.14
424.69	3398.46
424.88	3449.95
425.07	3351.65
425.26	3372.71
425.45	3403.14
425.64	3403.14
425.83	3363.35
426.01	3478.04
426.20	3463.99
426.39	3574.00
426.58	3517.83
426.77	3405.48
426.96	3653.58
427.15	3527.19
427.33	3588.04
427.52	3534.21
427.71	3574.00
427.90	3719.11
428.09	3609.11
428.28	3688.68
428.46	3728.47
428.65	3744.86
428.84	3737.84
429.03	3756.56
429.22	3705.07
429.40	3840.82
429.59	3946.14
429.78	3744.86
429.97	3669.96
430.16	3742.52
430.34	3880.61
430.53	3967.21
430.72	4030.40
430.91	3833.80
431.10	3819.75
431.28	3941.46
431.47	3866.56
431.66	4070.19
431.85	3960.19
432.03	4135.73
432.22	4112.32
432.41	3964.87
432.60	4084.23
432.79	4023.38
432.97	4063.17
433.16	4077.21
433.35	4079.55
433.54	4182.54
433.72	4175.52
433.91	4168.49
434.10	4241.05
434.28	4163.81
434.47	4234.03
434.66	4301.90
434.85	4456.38
435.03	4404.89
435.22	4241.05
435.41	4421.27
435.59	4353.40
435.78	4372.12
435.97	4519.57
436.16	4425.95
436.34	4447.02
436.53	4542.98
436.72	4620.22
436.90	4444.68
437.09	4519.57
437.28	4491.49
437.46	4662.35
437.65	4648.30
437.84	4596.81
438.02	4489.15
438.21	4554.68
438.40	4505.53
438.58	4772.35
438.77	4863.63
438.96	4690.43
439.14	4737.24
439.33	4812.14
439.52	4968.96
439.70	4870.65
439.89	4990.02
440.08	4992.36
440.26	4887.04
440.45	4980.66
440.63	5027.47
440.82	5172.58
441.01	5121.09
441.19	5205.35
441.38	5256.84
441.57	5308.34
441.75	5273.23
441.94	5483.88
442.12	5486.22
442.31	5633.67
442.50	5556.43
442.68	5526.00
442.87	5451.11
443.05	5607.92
443.24	5617.29
443.43	5673.46
443.61	5603.24
443.80	5563.45
443.98	5540.05
444.17	5268.55
444.35	5518.98
444.54	5778.78
444.73	5731.97
444.91	5685.16
445.10	5816.23
445.28	5638.35
445.47	5738.99
445.65	5703.89
445.84	5755.38
446.02	5696.86
446.21	5671.12
446.39	5792.83
446.58	5734.31
446.77	5827.93
446.95	5596.22
447.14	5689.84
447.32	5799.85
447.51	5783.46
447.69	5724.95
447.88	5797.51
448.06	5652.39
448.25	5837.30
448.43	5811.55
448.62	5839.64
448.80	5933.26
448.99	5926.24
449.17	6022.20
449.36	5942.62
449.54	6038.58
449.73	6057.31
449.91	6061.99
450.10	6157.95
450.28	6382.64
450.46	5980.07
450.65	6310.08
450.83	6202.42
451.02	6125.18
451.20	6228.17
451.39	6235.19
451.57	6174.33
451.76	6099.44
451.94	6282.00
452.13	6237.53
452.31	6319.45
452.49	6265.61
452.68	6312.42
452.86	6232.85
453.05	6431.79
453.23	6541.80
453.42	6413.07
453.60	6473.92
453.78	6392.00
453.97	6324.13
454.15	6333.49
454.34	6394.34
454.52	6436.47
454.70	6537.12
454.89	6663.51
455.07	6480.94
455.26	6743.08
455.44	6682.23
455.62	6722.02
455.81	6829.68
455.99	6768.83
456.17	6782.87
456.36	6860.11
456.54	6864.79
456.73	6909.26
456.91	6974.80
457.09	7096.50
457.28	7185.44
457.46	7045.01
457.64	7091.82
457.83	6986.50
458.01	6972.46
458.19	7323.54
458.38	7124.59
458.56	7288.43
458.74	7185.44
458.93	7274.38
459.11	7208.85
459.29	7204.17
459.48	7382.05
459.66	7272.04
459.84	7323.54
460.03	7501.42
460.21	7377.37
460.39	7318.86
460.57	7297.79
460.76	7620.78
460.94	7669.94
461.12	7728.45
461.31	7676.96
461.49	7552.91
461.67	7499.08
461.85	7854.84
462.04	7660.57
462.22	8095.91
462.40	7686.32
462.59	7779.94
462.77	7751.85
462.95	7843.14
463.13	7784.62
463.32	7700.36
463.50	7798.66
463.68	8002.29
463.86	8093.57
464.05	7887.61
464.23	7854.84
464.41	7887.61
464.59	7791.64
464.78	7836.11
464.96	8156.77
465.14	7971.86
465.32	8212.94
465.50	8135.70
465.69	8210.60
465.87	8081.87
466.05	8201.24
466.23	8180.17
466.41	8006.97
466.60	8336.99
466.78	8234.00
466.96	8250.39
467.14	8269.11
467.32	8297.20
467.51	8568.70
467.69	8177.83
467.87	8175.49
468.05	8376.78
468.23	8580.40
468.41	8425.93
468.60	8482.10
468.78	8650.62
468.96	8461.04
469.14	8573.38
469.32	8643.60
469.50	8402.52
469.69	8767.65
469.87	8681.05
470.05	8777.01
470.23	8755.94
470.41	8762.97
470.59	9041.49
470.77	8784.03
470.95	8954.89
471.14	9043.83
471.32	8732.54
471.50	9018.08
471.68	8952.55
471.86	9085.96
472.04	9247.46
472.22	9212.35
472.40	9076.60
472.58	9107.02
472.77	9397.25
472.95	9355.12
473.13	9729.61
473.31	9504.92
473.49	9521.30
473.67	9696.84
473.85	9675.77
474.03	9778.76
474.21	9713.22
474.39	9841.95
474.57	9820.89
474.75	9860.68
474.93	9989.41
475.12	9942.60
475.30	10122.82
475.48	9926.21
475.66	10347.51
475.84	10253.89
476.02	10139.20
476.20	10431.77
476.38	10399.00
476.56	10420.06
476.74	10658.80
476.92	10401.34
477.10	10649.44
477.28	10553.48
477.46	10803.91
477.64	10871.79
477.82	11117.54
478.00	11225.21
478.18	11157.33
478.36	11239.25
478.54	11489.69
478.72	11222.87
478.90	11463.94
479.08	11583.31
479.26	11637.14
479.44	11735.45
479.62	11805.66
479.80	11836.09
479.98	12023.33
480.16	12058.44
480.34	12208.23
480.52	12280.79
480.70	12367.39
480.88	12196.53
481.06	12308.88
481.24	12606.13
481.41	12472.71
481.59	12786.35
481.77	12781.67
481.95	13118.70
482.13	13029.76
482.31	13015.72
482.49	13348.08
482.67	13343.39
482.85	13507.23
483.03	13659.37
483.21	13844.27
483.39	14019.81
483.57	13839.59
483.74	13827.88
483.92	14066.62
484.10	14115.77
484.28	14408.34
484.46	14359.19
484.64	14773.46
484.82	14513.66
485.00	14778.14
485.18	14967.73
485.35	15356.25
485.53	15180.71
485.71	15159.65
485.89	15396.04
486.07	15506.05
486.25	15489.67
486.43	15625.42
486.61	15854.79
486.78	15878.19
486.96	15829.04
487.14	16159.06
487.32	16374.39
487.50	16327.58
487.68	16580.36
487.85	16732.49
488.03	16702.06
488.21	16814.41
488.39	16879.94
488.57	17514.23
488.75	17343.37
488.92	17713.17
489.10	17603.17
489.28	17633.60
489.46	17738.92
489.64	17958.93
489.81	18031.49
489.99	18394.27
490.17	18293.63
490.35	18654.07
490.53	18455.12
490.70	18471.51
490.88	18792.16
491.06	18906.85
491.24	18740.67
491.41	19370.27
491.59	19349.21
491.77	19222.82
491.95	19672.20
492.13	19651.14
492.30	19618.37
492.48	19733.06
492.66	19693.27
492.84	20086.48
493.01	20594.37
493.19	20318.19
493.37	20877.58
493.54	20308.83
493.72	20828.43
493.90	20798.00
494.08	20865.88
494.25	21216.96
494.43	21116.31
494.61	21376.11
494.79	21324.62
494.96	21432.29
495.14	21675.70
495.32	21869.97
495.49	21708.47
495.67	21837.20
495.85	22214.02
496.02	22309.99
496.20	22356.80
496.38	22286.58
496.55	22534.68
496.73	22913.84
496.91	22918.53
497.09	23042.57
497.26	23131.51
497.44	22904.48
497.62	23082.36
497.79	23557.49
497.97	23730.69
498.14	23903.89
498.32	23606.64
498.50	23681.54
498.67	24261.99
498.85	24100.50
499.03	24194.12
499.20	24364.98
499.38	24325.19
499.56	24252.63
499.73	24702.01
499.91	24507.75
500.08	24959.47
500.26	24723.08
500.44	25032.03
500.61	25158.42
500.79	24999.26
500.97	24973.52
501.14	25387.79
501.32	25284.81
501.49	25390.13
501.67	25207.57
501.84	25603.12
502.02	25458.01
502.20	25694.40
502.37	25855.90
502.55	26017.40
502.72	25926.11
502.90	26108.68
503.07	25905.05
503.25	26380.18
503.43	26022.08
503.60	26204.64
503.78	26340.39
503.95	27026.17
504.13	26850.63
504.30	26670.40
504.48	26951.27
504.65	26848.29
504.83	27140.85
505.01	27129.15
505.18	27199.37
505.36	27276.60
505.53	27459.16
505.71	27515.34
505.88	27370.22
506.06	27391.29
506.23	27871.10
506.41	27541.08
506.58	27929.61
506.76	28009.19
506.93	28238.56
507.11	28325.16
507.28	28222.18
507.46	28166.01
507.63	28779.23
507.81	28500.70
507.98	28458.57
508.16	28634.11
508.33	28423.47
508.50	28744.12
508.68	28664.54
508.85	29160.73
509.03	29345.64
509.20	29287.12
509.38	29296.49
509.55	29338.62
509.73	29219.25
509.90	29441.60
510.08	29586.71
510.25	29404.15
510.42	29921.41
510.60	29619.48
510.77	30043.12
510.95	30150.78
511.12	30092.27
511.30	29706.08
511.47	30464.41
511.64	30183.55
511.82	30689.10
511.99	30515.90
512.17	30607.19
512.34	30515.90
512.51	31042.53
512.69	31248.49
512.86	31204.02
513.04	31173.60
513.21	31012.10
513.38	31295.30
513.56	31632.34
513.73	31182.96
513.90	31330.41
514.08	31424.03
514.25	31622.98
514.43	31681.49
514.60	31536.38
514.77	31683.83
514.95	31576.17
515.12	31960.02
515.29	31817.24
515.47	32320.46
515.64	32140.24
515.81	31915.54
515.99	32252.58
516.16	32350.88
516.33	32219.81
516.51	32645.79
516.68	32444.51
516.85	32542.81
517.03	32528.77
517.20	32760.48
517.37	32643.45
517.54	32797.93
517.72	33235.61
517.89	33228.59
518.06	33645.20
518.24	33251.99
518.41	33212.20
518.58	33612.43
518.75	33336.25
518.93	33369.02
519.10	33427.53
519.27	33378.38
519.45	33886.28
519.62	34117.99
519.79	34288.85
519.96	33722.44
520.14	33996.28
520.31	34026.71
520.48	34335.66
520.65	34478.43
520.83	34136.71
521.00	34565.03
521.17	34448.00
521.34	34494.82
521.52	34962.92
521.69	34513.54
521.86	35061.22
522.03	35218.04
522.20	35068.25
522.38	35168.89
522.55	35269.53
522.72	35108.04
522.89	35662.74
523.07	35463.80
523.24	35627.63
523.41	35721.26
523.58	35398.26
523.75	35999.78
523.92	35625.29
524.10	36128.51
524.27	35810.20
524.44	35798.49
524.61	36034.89
524.78	36552.15
524.96	36383.63
525.13	36060.63
525.30	36737.05
525.47	36217.45
525.64	36699.60
525.81	36425.76
525.98	36685.56
526.16	36456.18
526.33	36453.84
526.50	36868.12
526.67	36479.59
526.84	36666.83
527.01	36713.64
527.18	37156.00
527.36	37256.65
527.53	36790.88
527.70	37422.83
527.87	37514.11
528.04	36594.28
528.21	37401.76
528.38	37343.25
528.55	37715.39
528.72	37659.22
528.89	37556.24
529.07	37598.37
529.24	36992.17
529.41	37951.79
529.58	37535.17
529.75	37577.30
529.92	37476.66
530.09	37970.51
530.26	37970.51
530.43	38139.03
530.60	38146.05
530.77	37673.26
530.94	38080.52
531.11	38134.35
531.28	38321.59
531.46	38274.78
531.63	38436.28
531.80	38356.70
531.97	38305.21
532.14	38658.63
532.31	38756.93
532.48	38557.99
532.65	39005.03
532.82	38562.67
532.99	38883.32
533.16	38916.09
533.33	38892.68
533.50	38969.92
533.67	38635.22
533.84	38712.46
534.01	38565.01
534.18	38822.47
534.35	39407.60
534.52	39077.58
534.69	39800.81
534.86	39679.10
535.03	39908.47
535.20	39475.48
535.37	39662.72
535.54	39910.82
535.71	39227.38
535.88	40179.98
536.05	39899.11
536.22	40030.18
536.38	39789.11
536.55	39744.64
536.72	39899.11
536.89	40119.12
537.06	40025.50
537.23	40121.46
537.40	40004.44
537.57	39976.35
537.74	40259.55
537.91	40676.17
538.08	40032.52
538.25	39945.92
538.42	40605.95
538.59	40481.91
538.75	40442.12
538.92	40868.09
539.09	40882.14
539.26	40720.64
539.43	40505.31
539.60	40470.20
539.77	40699.58
539.94	41226.20
540.11	41003.85
540.28	40872.78
540.44	40823.62
540.61	40957.03
540.78	41200.45
540.95	41151.30
541.12	41305.77
541.29	41062.36
541.46	41163.00
541.62	41186.41
541.79	41139.60
541.96	41099.81
542.13	41345.56
542.30	41553.87
542.47	41361.95
542.63	41481.31
542.80	41652.17
542.97	42012.62
543.14	42157.73
543.31	41998.57
543.48	41996.23
543.64	42000.91
543.81	42270.08
543.98	41956.44
544.15	42330.93
544.32	42213.90
544.48	42354.33
544.65	42394.12
544.82	42319.23
544.99	42162.41
545.16	42408.17
545.32	42431.57
545.49	42745.20
545.66	42857.55
545.83	42749.88
546.00	43161.82
546.16	42506.47
546.33	42672.65
546.50	42518.17
546.67	42997.98
546.83	42478.38
547.00	42803.72
547.17	42550.94
547.34	43007.34
547.50	42852.87
547.67	43210.97
547.84	43257.78
548.00	43290.55
548.17	43758.66
548.34	43363.11
548.51	43491.83
548.67	43835.89
548.84	43480.13
549.01	43288.21
549.18	43522.26
549.34	43742.27
549.51	43751.63
549.68	43683.76
549.84	43519.92
550.01	44060.58
550.18	43786.74
550.34	43971.64
550.51	44231.44
550.68	44142.50
550.84	43423.96
551.01	43866.32
551.18	43929.51
551.34	43798.44
551.51	44236.12
551.68	43817.17
551.84	44055.90
552.01	43704.82
552.18	44109.74
552.34	43749.29
552.51	44737.00
552.68	44762.75
552.84	43789.08
553.01	44727.64
553.18	44046.54
553.34	44776.79
553.51	44130.80
553.67	44364.85
553.84	44444.43
554.01	44516.99
554.17	44835.30
554.34	44921.90
554.51	44563.80
554.67	45013.18
554.84	44865.73
555.00	44650.40
555.17	44425.71
555.33	44928.92
555.50	45055.31
555.67	44804.88
555.83	45055.31
556.00	44758.06
556.16	45535.12
556.33	45034.25
556.50	44547.42
556.66	44856.37
556.83	44751.04
556.99	44989.78
557.16	45478.95
557.32	45551.51
557.49	45720.02
557.65	45109.14
557.82	44739.34
557.98	45298.73
558.15	45565.55
558.32	45074.04
558.48	45553.85
558.65	45289.37
558.81	45626.40
558.98	45310.43
559.14	45109.14
559.31	45418.10
559.47	45251.92
559.64	46127.28
559.80	45567.89
559.97	45684.92
560.13	45184.04
560.30	45940.04
560.46	45713.00
560.63	46204.52
560.79	46197.49
560.96	45979.82
561.12	45689.60
561.29	45991.53
561.45	46026.63
561.61	45909.61
561.78	45319.79
561.94	45942.38
562.11	45947.06
562.27	46286.43
562.44	45825.35
562.60	45715.34
562.77	46335.59
562.93	46330.90
563.10	46199.83
563.26	45930.67
563.42	46452.61
563.59	45923.65
563.75	45759.81
563.92	45741.09
564.08	45890.88
564.24	46225.58
564.41	46520.49
564.57	46019.61
564.74	46246.65
564.90	46190.47
565.07	46061.74
565.23	46527.51
565.39	46436.23
565.56	46494.74
565.72	46438.57
565.88	46050.04
566.05	46366.01
566.21	46239.62
566.38	46328.56
566.54	46316.86
566.70	46579.00
566.87	46628.15
567.03	46286.43
567.19	46307.50
567.36	46377.72
567.52	46316.86
567.68	46775.61
567.85	46735.82
568.01	46548.57
568.17	46546.23
568.34	46394.10
568.50	46293.46
568.66	46660.92
568.83	46834.12
568.99	46611.77
569.15	46843.48
569.32	46391.76
569.48	46691.35
569.64	47292.86
569.81	46794.33
569.97	46990.94
570.13	46955.83
570.30	46347.29
570.46	46646.88
570.62	47243.71
570.78	47054.13
570.95	46794.33
571.11	46780.29
571.27	46930.08
571.43	46597.73
571.60	46707.73
571.76	46855.18
571.92	46777.95
572.09	47210.95
572.25	46976.89
572.41	46536.87
572.57	47365.42
572.74	47175.84
572.90	46941.78
573.06	47098.60
573.22	47208.61
573.38	47356.06
573.55	47182.86
573.71	47363.08
573.87	47515.22
574.03	47194.56
574.20	47739.91
574.36	47222.65
574.52	46951.15
574.68	46944.12
574.84	47222.65
575.01	47276.48
575.17	47414.57
575.33	47124.35
575.49	47316.27
575.65	47140.73
575.82	47234.35
575.98	46958.17
576.14	47334.99
576.30	48032.47
576.46	47063.49
576.62	47421.59
576.79	47414.57
576.95	47217.97
577.11	46934.76
577.27	47323.29
577.43	47316.27
577.59	47430.96
577.75	47129.03
577.92	46983.91
578.08	47096.26
578.24	47381.80
578.40	47276.48
578.56	47370.10
578.72	47449.68
578.88	47772.67
579.04	47360.74
579.21	47154.77
579.37	47519.90
579.53	47646.29
579.69	47168.82
579.85	46817.74
580.01	47440.32
580.17	47547.98
580.33	47812.46
580.49	47281.16
580.65	47358.40
580.82	47194.56
580.98	47250.74
581.14	47056.47
581.30	47657.99
581.46	47508.19
581.62	47515.22
581.78	47381.80
581.94	47892.04
582.10	47416.91
582.26	47147.75
582.42	47618.20
582.58	47562.03
582.74	47505.85
582.90	47414.57
583.06	47927.15
583.22	47587.77
583.38	47386.49
583.54	47508.19
583.70	47814.80
583.86	47681.39
584.02	47255.42
584.18	47971.62
584.34	47669.69
584.50	47821.83
584.66	48006.73
584.82	47641.60
584.98	47948.21
585.14	47159.45
585.30	47342.02
585.46	47166.48
585.62	47423.93
585.78	47929.49
585.94	47133.71
586.10	47515.22
586.26	47002.64
586.42	47461.38
586.58	48116.73
586.74	47920.13
586.90	47372.44
587.06	47260.10
587.22	47861.61
587.38	47838.21
587.54	47592.45
587.70	48282.91
587.86	47894.38
588.02	47828.85
588.18	47587.77
588.34	47796.08
588.49	47185.20
588.65	47814.80
588.81	47636.92
588.97	47966.94
589.13	47737.57
589.29	47650.97
589.45	48217.38
589.61	47767.99
589.77	47821.83
589.93	47627.56
590.08	48140.14
590.24	48114.39
590.40	48186.95
590.56	48184.61
590.72	48147.16
590.88	48027.79
591.04	48147.16
591.20	48388.24
591.35	48051.20
591.51	48156.52
591.67	48205.67
591.83	48093.33
591.99	47980.98
592.15	47959.92
592.31	47751.61
592.46	48100.35
592.62	48212.70
592.78	48453.77
592.94	48114.39
593.10	48421.00
593.26	48385.89
593.41	48470.15
593.57	48210.35
593.73	48442.07
593.89	48523.99
594.05	48566.12
594.20	48629.31
594.36	48914.86
594.52	48652.72
594.68	48186.95
594.84	48142.48
594.99	48540.37
595.15	48102.69
595.31	48498.24
595.47	48432.71
595.62	48252.48
595.78	48280.57
595.94	48472.49
596.10	48004.39
596.25	48322.70
596.41	48416.32
596.57	48177.59
596.73	48514.62
596.88	48177.59
597.04	48460.79
597.20	48289.93
597.36	48397.60
597.51	48397.60
597.67	48278.23
597.83	48189.29
597.99	48395.26
598.14	48072.26
598.30	48587.18
598.46	48369.51
598.61	49013.16
598.77	48357.81
598.93	48753.36
599.09	48919.54
599.24	48912.52
599.40	48814.21
599.56	48460.79
599.71	49045.93
599.87	49249.55
600.03	48816.55
600.18	48472.49
600.34	48556.75
600.50	48102.69
600.65	48587.18
600.81	48575.48
600.97	48774.42
601.12	48479.52
601.28	48325.04
601.44	48727.61
601.59	48626.97
601.75	48289.93
601.91	48849.32
602.06	48362.49
602.22	48350.79
602.37	48371.85
602.53	48383.55
602.69	48423.34
602.84	48086.31
603.00	48470.15
603.16	48626.97
603.31	48453.77
603.47	48545.05
603.62	48137.80
603.78	48626.97
603.94	48598.88
604.09	48582.50
604.25	48266.53
604.40	48573.14
604.56	48533.35
604.71	48769.74
604.87	48236.10
605.03	48444.41
605.18	48418.66
605.34	48657.40
605.49	48425.68
605.65	48594.20
605.80	48172.91
605.96	48481.86
606.12	48198.65
606.27	48481.86
606.43	48596.54
606.58	48491.22
606.74	48243.12
606.89	48552.07
607.05	48397.60
607.20	48474.84
607.36	48531.01
607.51	48547.39
607.67	48135.46
607.82	48156.52
607.98	48275.89
608.13	48226.74
608.29	48236.10
608.44	48079.28
608.60	48184.61
608.75	48278.23
608.91	48282.91
609.06	48243.12
609.22	48432.71
609.37	48002.05
609.53	48453.77
609.68	48470.15
609.84	48208.01
609.99	48301.64
610.15	48662.08
610.30	48282.91
610.46	48296.95
610.61	48069.92
610.76	48140.14
610.92	48116.73
611.07	47796.08
611.23	47873.32
611.38	47906.08
611.54	48034.81
611.69	48292.27
611.84	47990.34
612.00	48009.07
612.15	47934.17
612.31	48156.52
612.46	47899.06
612.62	48121.41
612.77	47978.64
612.92	47868.64
613.08	47714.16
613.23	47896.72
613.39	48109.71
613.54	47978.64
613.69	47892.04
613.85	47716.50
614.00	48095.67
614.15	47604.16
614.31	47777.36
614.46	47936.51
614.62	47667.35
614.77	47693.10
614.92	47838.21
615.08	47763.31
615.23	48067.58
615.38	48142.48
615.54	47555.00
615.69	48142.48
615.84	47875.66
616.00	48315.68
616.15	48074.60
616.30	47475.43
616.46	47480.11
616.61	47353.72
616.76	47643.94
616.92	47728.20
617.07	47695.44
617.22	47517.56
617.37	47384.15
617.53	47522.24
617.68	47543.30
617.83	47140.73
617.99	47468.40
618.14	47592.45
618.29	47421.59
618.45	47384.15
618.60	47196.90
618.75	47075.19
618.90	47421.59
619.06	47185.20
619.21	47503.51
619.36	47379.46
619.51	47086.90
619.67	47292.86
619.82	47452.02
619.97	47206.26
620.12	46787.31
620.28	47182.86
620.43	47716.50
620.58	47203.92
620.73	47463.72
620.89	47349.04
621.04	47449.68
621.19	47215.63
621.34	47086.90
621.49	46405.80
621.65	47276.48
621.80	47342.02
621.95	47398.19
622.10	47536.28
622.25	46653.90
622.41	46801.35
622.56	47096.26
622.71	46983.91
622.86	47030.72
623.01	47217.97
623.16	46763.90
623.32	46789.65
623.47	47466.06
623.62	46696.03
623.77	46677.30
623.92	46983.91
624.07	46756.88
624.23	46642.20
624.38	46859.87
624.53	46199.83
624.68	46412.82
624.83	46443.25
624.98	46639.86
625.13	46494.74
625.29	46527.51
625.44	46630.49
625.59	46389.42
625.74	46768.58
625.89	46209.20
626.04	46567.30
626.19	46452.61
626.34	46424.53
626.49	46209.20
626.65	46635.17
626.80	46136.64
626.95	46094.51
627.10	46054.72
627.25	46241.96
627.40	46391.76
627.55	46579.00
627.70	45977.48
627.85	46541.55
628.00	46223.24
628.15	46148.34
628.30	45694.28
628.45	45656.83
628.60	45347.88
628.76	45471.93
628.91	45837.05
629.06	45301.07
629.21	45565.55
629.36	46148.34
629.51	45792.58
629.66	46003.23
629.81	45682.58
629.96	45610.02
630.11	45808.96
630.26	45570.23
630.41	45837.05
630.56	45492.99
630.71	45242.56
630.86	45399.37
631.01	45148.93
631.16	45298.73
631.31	45518.74
631.46	45003.82
631.61	45528.10
631.76	45097.44
631.91	45668.53
632.06	45776.20
632.21	45853.44
632.36	45675.55
632.51	45359.58
632.66	45230.85
632.81	45280.00
632.96	45727.05
633.10	45371.28
633.25	45595.98
633.40	45492.99
633.55	45773.86
633.70	45492.99
633.85	45422.78
634.00	44690.19
634.15	44952.33
634.30	45350.22
634.45	44858.71
634.60	45338.52
634.75	45184.04
634.90	45343.20
635.05	45221.49
635.19	44652.74
635.34	44797.85
635.49	45078.72
635.64	45280.00
635.79	44526.35
635.94	44884.45
636.09	44968.71
636.24	44760.40
636.39	44889.13
636.53	44825.94
636.68	44725.30
636.83	44292.30
636.98	44257.19
637.13	43941.22
637.28	43999.73
637.43	44706.57
637.57	44626.99
637.72	44240.81
637.87	44514.65
638.02	44790.83
638.17	43906.11
638.32	44308.68
638.46	44430.39
638.61	44304.00
638.76	44016.11
638.91	44479.54
639.06	44088.67
639.20	44226.76
639.35	43716.53
639.50	43819.51
639.65	44137.82
639.80	44610.61
639.94	44425.71
640.09	44023.14
640.24	44414.01
640.39	44215.06
640.54	43618.22
640.68	43789.08
640.83	43964.62
640.98	43725.89
641.13	43683.76
641.27	44575.50
641.42	43845.26
641.57	43571.41
641.72	44156.55
641.86	44191.65
642.01	43533.96
642.16	43688.44
642.31	43461.41
642.45	44140.16
642.60	43255.44
642.75	43812.49
642.90	43700.14
643.04	43421.62
643.19	43082.24
643.34	43344.38
643.48	43000.32
643.63	43676.74
643.78	43295.23
643.93	43676.74
644.07	43131.39
644.22	43599.50
644.37	43349.06
644.51	43267.14
644.66	43508.22
644.81	43452.05
644.95	43414.60
645.10	43438.00
645.25	42808.40
645.39	43056.50
645.54	43021.39
645.69	42824.78
645.83	43318.64
645.98	42880.95
646.13	42923.08
646.27	42883.30
646.42	42958.19
646.57	43297.57
646.71	43318.64
646.86	43047.13
647.00	42979.26
647.15	43168.84
647.30	43583.12
647.44	43016.71
647.59	42906.70
647.74	43229.69
647.88	43107.99
648.03	43264.80
648.17	43035.43
648.32	42986.28
648.47	43210.97
648.61	42983.94
648.76	42871.59
648.90	42899.68
649.05	42628.18
649.20	42857.55
649.34	42801.38
649.49	42843.51
649.63	42787.33
649.78	42529.87
649.92	42887.98
650.07	43250.76
650.21	42895.00
650.36	43222.67
650.51	42696.05
650.65	42361.36
650.80	42792.01
650.94	42295.82
651.09	42466.68
651.23	41949.42
651.38	42485.40
651.52	41811.33
651.67	42312.20
651.81	42321.57
651.96	42157.73
652.10	41972.83
652.25	41741.11
652.39	42197.52
652.54	42302.84
652.68	41921.34
652.83	42066.45
652.97	42515.83
653.12	42106.24
653.26	41986.87
653.41	42078.15
653.55	41933.04
653.70	42216.24
653.84	42600.09
653.99	41965.81
654.13	42192.84
654.27	41652.17
654.42	41546.85
654.56	41249.60
654.71	41588.98
654.85	42031.34
655.00	41872.18
655.14	41766.86
655.29	41668.56
655.43	41986.87
655.57	41698.98
655.72	41469.61
655.86	41729.41
656.01	41345.56
656.15	41214.49
656.30	41687.28
656.44	41343.22
656.58	41455.57
656.73	41331.52
656.87	41216.83
657.01	41287.05
657.16	41123.21
657.30	41310.46
657.45	41116.19
657.59	41109.17
657.73	40921.93
657.88	41216.83
658.02	41373.65
658.16	41453.23
658.31	41170.02
658.45	41415.78
658.60	40622.34
658.74	40760.43
658.88	41560.89
659.03	40563.82
659.17	40797.88
659.31	40453.82
659.46	40809.58
659.60	40854.05
659.74	39971.67
659.89	40297.00
660.03	40547.44
660.17	40877.46
660.32	40161.25
660.46	39974.01
660.60	40098.06
660.74	40299.34
660.89	40182.32
661.03	40257.21
661.17	39896.77
661.32	39950.60
661.46	40084.01
661.60	39835.92
661.74	40027.84
661.89	40095.72
662.03	40151.89
662.17	39370.15
662.31	39894.43
662.46	39943.58
662.60	39594.84
662.74	39433.35
662.88	39220.36
663.03	39164.18
663.17	39377.17
663.31	39035.45
663.45	39161.84
663.60	39473.13
663.74	39168.87
663.88	38831.83
664.02	38717.14
664.17	39264.83
664.31	39000.35
664.45	38892.68
664.59	38836.51
664.73	38628.20
664.88	38728.84
665.02	38789.70
665.16	39016.73
665.30	38646.93
665.44	38560.33
665.59	38019.66
665.73	38452.66
665.87	37647.52
666.01	38394.15
666.15	38272.44
666.29	38398.83
666.44	38356.70
666.58	37989.24
666.72	37680.28
666.86	38164.78
667.00	37956.47
667.14	37968.17
667.28	38286.48
667.43	37909.66
667.57	38071.15
667.71	37790.29
667.85	37993.92
667.99	37511.77
668.13	37598.37
668.27	37518.79
668.41	37572.62
668.56	36868.12
668.70	36765.14
668.84	36781.52
668.98	36947.70
669.12	37113.87
669.26	37195.79
669.40	36617.68
669.54	36809.61
669.68	36921.95
669.82	37106.85
669.96	36519.38
670.10	36093.40
670.25	36552.15
670.39	36313.41
670.53	36959.40
670.67	36294.69
670.81	36641.09
670.95	36533.42
671.09	36364.90
671.23	35819.56
671.37	36376.61
671.51	35548.06
671.65	35950.63
671.79	35978.72
671.93	36051.27
672.07	35754.02
672.21	35686.15
672.35	35285.92
672.49	35185.27
672.63	35711.89
672.77	35241.45
672.91	35597.21
673.05	35070.59
673.19	35185.27
673.33	34906.75
673.47	35159.53
673.61	34855.26
673.75	34651.63
673.89	34672.70
674.03	34827.17
674.17	34054.79
674.31	34438.64
674.45	34089.90
674.59	33944.79
674.73	34391.83
674.87	34134.37
675.01	33572.64
675.15	33689.67
675.29	33472.00
675.43	34099.26
675.56	33734.14
675.70	33624.14
675.84	33584.35
675.98	32250.24
676.12	33666.27
676.26	34050.11
676.40	33132.62
676.54	33022.62
676.68	33039.00
676.82	32357.91
676.96	32957.08
677.10	33029.64
677.23	32540.47
677.37	32552.17
677.51	32828.35
677.65	32191.73
677.79	32381.31
677.93	32039.59
678.07	31833.63
678.21	31721.28
678.34	31775.11
678.48	31931.93
678.62	31353.82
678.76	31456.80
678.90	31365.52
679.04	31166.57
679.18	31363.18
679.31	31178.28
679.45	31276.58
679.59	30859.96
679.73	31084.65
679.87	30675.06
680.00	30955.93
680.14	31063.59
680.28	30513.56
680.42	30483.14
680.56	30352.07
680.70	30139.08
680.83	29802.04
680.97	30066.52
681.11	30162.48
681.25	29422.87
681.39	29418.19
681.52	29783.32
681.66	29338.62
681.80	28847.10
681.94	28933.70
682.07	28905.62
682.21	28940.72
682.35	28982.85
682.49	28800.29
682.62	28807.31
682.76	28896.25
682.90	28828.38
683.04	28966.47
683.17	28872.85
683.31	28030.26
683.45	28166.01
683.59	27758.75
683.72	27793.86
683.86	27826.63
684.00	27997.49
684.13	27747.05
684.27	27468.53
684.41	27590.24
684.55	27473.21
684.68	27414.69
684.82	26972.33
684.96	27152.55
685.09	27014.46
685.23	27190.00
685.37	27391.29
685.50	27452.14
685.64	26948.93
685.78	26712.53
685.91	26340.39
686.05	26286.56
686.19	25919.09
686.32	26054.84
686.46	26237.41
686.60	25685.04
686.73	25909.73
686.87	25675.68
687.01	25837.17
687.14	26073.57
687.28	25785.68
687.42	25628.87
687.55	25336.30
687.69	25186.50
687.82	25392.47
687.96	25039.05
688.10	25130.33
688.23	25123.31
688.37	25076.50
688.50	25209.91
688.64	24931.39
688.78	24875.21
688.91	24395.40
689.05	24622.44
689.18	24203.48
689.32	23873.46
689.46	24002.19
689.59	23613.66
689.73	23934.32
689.86	23721.33
690.00	23541.11
690.13	23821.97
690.27	23356.21
690.41	23789.20
690.54	23070.66
690.68	23321.10
690.81	22911.50
690.95	23124.49
691.08	23187.69
691.22	22857.67
691.35	22637.66
691.49	22794.48
691.62	22981.72
691.76	22410.63
691.89	22033.80
692.03	22162.53
692.16	22249.13
692.30	22441.06
692.43	21830.18
692.57	21778.68
692.70	21891.03
692.84	21479.10
692.97	21865.28
693.11	21448.67
693.24	21170.15
693.38	21680.38
693.51	21394.84
693.65	21113.97
693.78	20875.24
693.92	20954.82
694.05	20812.04
694.19	20882.26
694.32	20917.37
694.45	20688.00
694.59	20830.77
694.72	20837.79
694.86	20388.41
694.99	20491.39
695.13	20011.58
695.26	19847.74
695.39	20002.22
695.53	19969.45
695.66	19896.89
695.80	19660.50
695.93	19585.60
696.07	19777.53
696.20	19227.50
696.33	18970.04
696.47	18778.12
696.60	19101.11
696.73	19073.03
696.87	19379.64
697.00	19056.64
697.14	18815.57
697.27	18754.71
697.40	18691.52
697.54	18764.07
697.67	18740.67
697.80	18420.02
697.94	18256.18
698.07	18174.26
698.21	18082.98
698.34	18183.62
698.47	18148.51
698.61	17544.66
698.74	17535.29
698.87	18026.81
699.01	17483.80
699.14	17685.09
699.27	17542.32
699.40	17406.56
699.54	17209.96
699.67	17219.32
699.80	17109.32
699.94	17104.64
700.07	16898.67
700.20	17226.34
700.34	16812.07
700.47	16992.29
700.60	16964.20
700.73	16994.63
700.87	16882.28
701.00	16524.18
701.13	16353.32
701.26	16168.42
701.40	16074.80
701.53	16159.06
701.66	16159.06
701.79	15974.16
701.93	15637.12
702.06	15660.52
702.19	15630.10
702.32	15655.84
702.46	15838.41
702.59	15910.96
702.72	15960.11
702.85	15852.45
702.99	15360.94
703.12	15225.18
703.25	15040.28
703.38	15037.94
703.51	14993.47
703.65	14808.57
703.78	14801.55
703.91	14602.60
704.04	14792.19
704.17	14609.62
704.31	14523.02
704.44	14277.27
704.57	14417.70
704.70	14223.44
704.83	14380.25
704.96	14246.84
705.10	14193.01
705.23	13823.20
>>>>>End Processed Spectral Data<<<<<
