SpectraSuite Data File
++++++++++++++++++++++++++++++++++++
Date: Fri Oct 25 11:34:06 EDT 2013
User: price-jones
Dark Spectrum Present: No
Reference Spectrum Present: No
Number of Sampled Component Spectra: 1
Spectrometers: USB2+H05261
Integration Time (usec): 100000 (USB2+H05261)
Spectra Averaged: 1 (USB2+H05261)
Boxcar Smoothing: 0 (USB2+H05261)
Correct for Electrical Dark: No (USB2+H05261)
Strobe/Lamp Enabled: No (USB2+H05261)
Correct for Detector Non-linearity: No (USB2+H05261)
Correct for Stray Light: No (USB2+H05261)
Number of Pixels in Processed Spectrum: 2048
>>>>>Begin Processed Spectral Data<<<<<
365.73	290.23
365.92	290.23
366.12	290.23
366.32	227.03
366.52	142.77
366.72	273.84
366.91	201.29
367.11	175.54
367.31	177.88
367.51	234.05
367.70	248.10
367.90	166.18
368.10	142.77
368.30	159.16
368.49	182.56
368.69	259.80
368.89	98.30
369.09	229.37
369.28	210.65
369.48	180.22
369.68	229.37
369.87	180.22
370.07	196.60
370.27	236.39
370.47	386.19
370.66	442.36
370.86	465.77
371.06	493.85
371.25	601.52
371.45	528.96
371.65	510.24
371.84	589.82
372.04	505.56
372.24	550.03
372.44	589.82
372.63	610.88
372.83	622.58
373.03	636.63
373.22	601.52
373.42	545.34
373.62	596.84
373.81	674.07
374.01	606.20
374.21	596.84
374.40	613.22
374.60	657.69
374.79	643.65
374.99	627.26
375.19	662.37
375.38	718.54
375.58	662.37
375.78	645.99
375.97	706.84
376.17	692.80
376.37	601.52
376.56	631.94
376.76	606.20
376.95	655.35
377.15	706.84
377.35	730.25
377.54	779.40
377.74	638.97
377.93	723.23
378.13	645.99
378.33	718.54
378.52	732.59
378.72	767.70
378.91	674.07
379.11	763.01
379.31	748.97
379.50	730.25
379.70	702.16
379.89	760.67
380.09	704.50
380.28	704.50
380.48	669.39
380.68	706.84
380.87	716.20
381.07	763.01
381.26	730.25
381.46	772.38
381.65	791.10
381.85	739.61
382.04	688.12
382.24	791.10
382.43	802.80
382.63	767.70
382.83	777.06
383.02	753.65
383.22	926.85
383.41	748.97
383.61	725.57
383.80	851.96
384.00	814.51
384.19	770.04
384.39	844.93
384.58	746.63
384.78	791.10
384.97	830.89
385.17	847.27
385.36	770.04
385.56	765.36
385.75	823.87
385.95	821.53
386.14	802.80
386.34	844.93
386.53	873.02
386.72	842.59
386.92	856.64
387.11	875.36
387.31	964.30
387.50	966.64
387.70	858.98
387.89	938.55
388.09	896.43
388.28	910.47
388.48	837.91
388.67	940.90
388.86	880.04
389.06	870.68
389.25	922.17
389.45	926.85
389.64	858.98
389.84	947.92
390.03	992.39
390.22	971.32
390.42	999.41
390.61	828.55
390.81	968.98
391.00	973.66
391.19	966.64
391.39	933.87
391.58	1015.79
391.78	978.34
391.97	1032.18
392.16	940.90
392.36	1034.52
392.55	1048.56
392.75	1041.54
392.94	1050.90
393.13	1088.35
393.33	980.68
393.52	976.00
393.71	1050.90
393.91	1046.22
394.10	1039.20
394.29	1149.20
394.49	1137.50
394.68	1064.94
394.88	1090.69
395.07	1114.10
395.26	1121.12
395.46	1053.24
395.65	1226.44
395.84	1137.50
396.04	1207.72
396.23	1198.35
396.42	1242.82
396.62	1242.82
396.81	1186.65
397.00	1198.35
397.19	1165.59
397.39	1294.32
397.58	1235.80
397.77	1137.50
397.97	1165.59
398.16	1252.19
398.35	1362.19
398.55	1228.78
398.74	1296.66
398.93	1364.53
399.12	1306.02
399.32	1313.04
399.51	1233.46
399.70	1418.36
399.90	1352.83
400.09	1362.19
400.28	1418.36
400.47	1299.00
400.67	1413.68
400.86	1366.87
401.05	1371.55
401.24	1378.58
401.44	1418.36
401.63	1451.13
401.82	1425.39
402.01	1486.24
402.21	1416.02
402.40	1502.62
402.59	1481.56
402.78	1476.88
402.97	1526.03
403.17	1441.77
403.36	1504.96
403.55	1600.93
403.74	1603.27
403.93	1640.72
404.13	1598.59
404.32	1511.99
404.51	1554.12
404.70	1600.93
404.89	1593.90
405.09	1643.06
405.28	1596.25
405.47	1593.90
405.66	1673.48
405.85	1666.46
406.05	1650.08
406.24	1748.38
406.43	1799.87
406.62	1724.97
406.81	1767.10
407.00	1849.02
407.20	1785.83
407.39	1664.12
407.58	1781.15
407.77	1823.28
407.96	1900.52
408.15	1886.47
408.34	1750.72
408.54	1832.64
408.73	1853.70
408.92	1832.64
409.11	1942.64
409.30	1909.88
409.49	1994.14
409.68	2019.88
409.87	1980.09
410.07	2076.06
410.26	2038.61
410.45	2097.12
410.64	2024.56
410.83	1963.71
411.02	2054.99
411.21	2181.38
411.40	2031.58
411.59	2085.42
411.78	2202.44
411.98	2172.02
412.17	2225.85
412.36	2249.25
412.55	2235.21
412.74	2347.56
412.93	2319.47
413.12	2270.32
413.31	2347.56
413.50	2335.85
413.69	2380.32
413.88	2459.90
414.07	2392.03
414.26	2445.86
414.45	2513.74
414.64	2530.12
414.83	2518.42
415.02	2469.27
415.22	2619.06
415.41	2516.08
415.60	2532.46
415.79	2672.89
415.98	2572.25
416.17	2628.42
416.36	2586.29
416.55	2689.28
416.74	2813.32
416.93	2572.25
417.12	2679.91
417.31	2771.19
417.50	2705.66
417.69	2953.76
417.88	2909.29
418.07	2972.48
418.26	2857.79
418.45	2906.95
418.64	2932.69
418.83	2911.63
419.02	3030.99
419.21	3105.89
419.39	3038.02
419.58	2970.14
419.77	2923.33
419.96	3042.70
420.15	3070.78
420.34	3194.83
420.53	3169.09
420.72	3260.37
420.91	3269.73
421.10	3194.83
421.29	3180.79
421.48	3082.49
421.67	3183.13
421.86	3232.28
422.05	3185.47
422.24	3218.24
422.43	3379.73
422.61	3260.37
422.80	3286.11
422.99	3321.22
423.18	3272.07
423.37	3370.37
423.56	3405.48
423.75	3353.99
423.94	3346.97
424.13	3105.89
424.32	3288.45
424.50	3356.33
424.69	3478.04
424.88	3426.54
425.07	3407.82
425.26	3288.45
425.45	3393.78
425.64	3290.79
425.83	3363.35
426.01	3435.91
426.20	3365.69
426.39	3403.14
426.58	3501.44
426.77	3386.76
426.96	3403.14
427.15	3471.01
427.33	3403.14
427.52	3496.76
427.71	3419.52
427.90	3503.78
428.09	3644.21
428.28	3676.98
428.46	3644.21
428.65	3618.47
428.84	3737.84
429.03	3707.41
429.22	3585.70
429.40	3777.62
429.59	3637.19
429.78	3616.13
429.97	3597.40
430.16	3669.96
430.34	3826.78
430.53	3777.62
430.72	3836.14
430.91	3833.80
431.10	3845.50
431.28	3803.37
431.47	3889.97
431.66	3915.72
431.85	3922.74
432.03	3995.29
432.22	4042.11
432.41	3857.20
432.60	4053.81
432.79	3946.14
432.97	3974.23
433.16	4107.64
433.35	4067.85
433.54	4145.09
433.72	4070.19
433.91	4121.68
434.10	4166.15
434.28	4081.89
434.47	4224.67
434.66	4168.49
434.85	4119.34
435.03	4159.13
435.22	4198.92
435.41	4236.37
435.59	4159.13
435.78	4301.90
435.97	4348.72
436.16	4243.39
436.34	4250.41
436.53	4351.06
436.72	4404.89
436.90	4353.40
437.09	4369.78
437.28	4393.19
437.46	4484.47
437.65	4353.40
437.84	4493.83
438.02	4664.69
438.21	4641.28
438.40	4526.60
438.58	4454.04
438.77	4727.88
438.96	4671.71
439.14	4765.33
439.33	4713.84
439.52	4741.93
439.70	4894.06
439.89	4994.70
440.08	4887.04
440.26	4997.04
440.45	5029.81
440.63	4971.30
440.82	5025.13
441.01	4952.57
441.19	4966.62
441.38	5179.61
441.57	5172.58
441.75	5242.80
441.94	5287.27
442.12	5296.63
442.31	5416.00
442.50	5291.95
442.68	5214.71
442.87	5462.81
443.05	5411.32
443.24	5591.54
443.43	5334.08
443.61	5394.93
443.80	5544.73
443.98	5392.59
444.17	5095.35
444.35	5526.00
444.54	5511.96
444.73	5523.66
444.91	5575.16
445.10	5523.66
445.28	5488.56
445.47	5575.16
445.65	5455.79
445.84	5530.69
446.02	5657.07
446.21	5652.39
446.39	5570.48
446.58	5657.07
446.77	5600.90
446.95	5462.81
447.14	5619.63
447.32	5647.71
447.51	5542.39
447.69	5563.45
447.88	5582.18
448.06	5579.84
448.25	5645.37
448.43	5624.31
448.62	5621.97
448.80	5631.33
448.99	5724.95
449.17	5701.54
449.36	5802.19
449.54	5973.05
449.73	5947.30
449.91	5776.44
450.10	5994.11
450.28	5905.17
450.46	5984.75
450.65	5860.70
450.83	5923.90
451.02	6043.26
451.20	6071.35
451.39	5902.83
451.57	6010.50
451.76	6061.99
451.94	5977.73
452.13	6186.04
452.31	6188.38
452.49	6057.31
452.68	6218.80
452.86	6129.86
453.05	6392.00
453.23	6422.43
453.42	6265.61
453.60	5975.39
453.78	6317.11
453.97	6235.19
454.15	6183.70
454.34	6108.80
454.52	6373.28
454.70	6333.49
454.89	6527.75
455.07	6377.96
455.26	6518.39
455.44	6471.58
455.62	6450.52
455.81	6609.67
455.99	6729.04
456.17	6565.20
456.36	6520.73
456.54	6736.06
456.73	6722.02
456.91	6841.39
457.09	6808.62
457.28	6899.90
457.46	6764.15
457.64	7066.08
457.83	6909.26
458.01	6761.81
458.19	7105.87
458.38	7007.56
458.56	7162.04
458.74	6963.09
458.93	7035.65
459.11	7082.46
459.29	7140.97
459.48	7157.36
459.66	7068.42
459.84	7295.45
460.03	7148.00
460.21	7164.38
460.39	7379.71
460.57	7279.07
460.76	7555.25
460.94	7375.03
461.12	7295.45
461.31	7297.79
461.49	7431.20
461.67	7405.46
461.85	7349.28
462.04	7620.78
462.22	7941.44
462.40	7588.02
462.59	7686.32
462.77	7475.67
462.95	7784.62
463.13	7679.30
463.32	7831.43
463.50	7779.94
463.68	7791.64
463.86	7812.71
464.05	7819.73
464.23	7770.58
464.41	7719.09
464.59	7581.00
464.78	7962.50
464.96	7859.52
465.14	7875.90
465.32	8018.68
465.50	7967.18
465.69	8063.15
465.87	7934.42
466.05	8018.68
466.23	8079.53
466.41	8072.51
466.60	8109.96
466.78	7971.86
466.96	7943.78
467.14	7875.90
467.32	8112.30
467.51	8124.00
467.69	8049.10
467.87	8243.37
468.05	8166.13
468.23	8313.58
468.41	8278.47
468.60	8336.99
468.78	8315.92
468.96	8355.71
469.14	8320.60
469.32	8372.10
469.50	8266.77
469.69	8659.98
469.87	8760.63
470.05	8674.03
470.23	8704.45
470.41	8631.90
470.59	8765.31
470.77	8669.34
470.95	8542.96
471.14	8879.99
471.32	8531.25
471.50	8781.69
471.68	8903.40
471.86	8898.72
472.04	9027.45
472.22	9132.77
472.40	8898.72
472.58	9186.60
472.77	9149.15
472.95	9078.94
473.13	9343.42
473.31	9100.00
473.49	9156.18
473.67	9256.82
473.85	9149.15
474.03	9521.30
474.21	9507.26
474.39	9596.20
474.57	9582.15
474.75	9661.73
474.93	9816.21
475.12	9668.75
475.30	9790.46
475.48	9877.06
475.66	9989.41
475.84	9860.68
476.02	10122.82
476.20	10029.20
476.38	10530.07
476.56	10551.14
476.74	10267.93
476.92	10630.71
477.10	10239.84
477.28	10448.15
477.46	10361.55
477.64	10792.21
477.82	10670.50
478.00	11000.52
478.18	10761.78
478.36	10979.45
478.54	11091.80
478.72	11239.25
478.90	11208.83
479.08	11272.02
479.26	11562.25
479.44	11496.71
479.62	11733.11
479.80	11571.61
479.98	11690.98
480.16	12088.87
480.34	11829.07
480.52	12093.55
480.70	11836.09
480.88	11854.81
481.06	12065.46
481.24	12163.76
481.41	12334.62
481.59	12486.76
481.77	12571.02
481.95	12683.36
482.13	12917.42
482.31	12606.13
482.49	12975.93
482.67	12856.56
482.85	13270.84
483.03	13135.09
483.21	13355.10
483.39	13399.57
483.57	13540.00
483.74	13577.45
483.92	13954.27
484.10	13652.34
484.28	14033.85
484.46	14246.84
484.64	14506.64
484.82	14253.86
485.00	14288.97
485.18	14530.05
485.35	14951.34
485.53	14855.38
485.71	14892.83
485.89	14979.43
486.07	14850.70
486.25	15236.89
486.43	15297.74
486.61	15475.62
486.78	15559.88
486.96	15447.54
487.14	15655.84
487.32	15800.96
487.50	16079.48
487.68	16297.15
487.85	16224.59
488.03	16355.66
488.21	16505.46
488.39	16355.66
488.57	16765.26
488.75	16875.26
488.92	16926.75
489.10	17008.67
489.28	16929.09
489.46	17181.87
489.64	17219.32
489.81	17954.25
489.99	17874.67
490.17	17631.26
490.35	18136.81
490.53	17972.97
490.70	18356.82
490.88	18200.01
491.06	18473.85
491.24	18530.02
491.41	18766.42
491.59	18717.26
491.77	18710.24
491.95	18979.40
492.13	19117.50
492.30	19140.90
492.48	19208.78
492.66	19264.95
492.84	19475.60
493.01	19829.02
493.19	19906.26
493.37	20025.62
493.54	19950.73
493.72	19995.20
493.90	20233.93
494.08	20236.27
494.25	20463.30
494.43	20149.67
494.61	20875.24
494.79	20606.08
494.96	21050.78
495.14	20952.48
495.32	21128.02
495.49	21322.28
495.67	21135.04
495.85	21432.29
496.02	21729.53
496.20	21869.97
496.38	22040.82
496.55	21867.63
496.73	22387.22
496.91	21738.90
497.09	22295.94
497.26	22471.48
497.44	22640.00
497.62	22600.21
497.79	23040.23
497.97	22597.87
498.14	22874.06
498.32	22885.76
498.50	23307.05
498.67	23651.11
498.85	23152.58
499.03	23545.79
499.20	23597.28
499.38	23608.98
499.56	23718.99
499.73	23964.75
499.91	23810.27
500.08	24180.07
500.26	24100.50
500.44	24269.01
500.61	24128.58
500.79	24240.93
500.97	24570.94
501.14	24538.18
501.32	24856.49
501.49	24816.70
501.67	24411.79
501.84	25228.63
502.02	24659.88
502.20	24865.85
502.37	25357.36
502.55	25509.50
502.72	25376.09
502.90	25294.17
503.07	25139.69
503.25	25769.30
503.43	25467.37
503.60	25785.68
503.78	25626.53
503.95	25998.67
504.13	25862.92
504.30	26223.36
504.48	26089.95
504.65	26221.02
504.83	26251.45
505.01	26183.57
505.18	26204.64
505.36	26668.06
505.53	26817.86
505.71	26693.81
505.88	26794.45
506.06	26827.22
506.23	27068.30
506.41	27030.85
506.58	27215.75
506.76	27117.45
506.93	27669.81
507.11	27316.39
507.28	27117.45
507.46	27463.85
507.63	27501.29
507.81	27660.45
507.98	27503.64
508.16	27718.96
508.33	28060.68
508.50	28236.22
508.68	28451.55
508.85	28081.75
509.03	28266.65
509.20	28395.38
509.38	29024.98
509.55	28521.77
509.73	28994.56
509.90	28397.72
510.08	28758.16
510.25	28900.94
510.42	29120.95
510.60	29024.98
510.77	29017.96
510.95	29642.88
511.12	29132.65
511.30	29427.56
511.47	29366.70
511.64	29385.43
511.82	30040.78
511.99	29551.60
512.17	29961.20
512.34	29769.27
512.51	30094.61
512.69	30286.53
512.86	30256.11
513.04	30391.86
513.21	30387.18
513.38	30433.99
513.56	30782.73
513.73	30335.68
513.90	30466.75
514.08	30195.25
514.25	30969.97
514.43	31079.97
514.60	30962.95
514.77	30705.49
514.95	31379.56
515.12	31012.10
515.29	31185.30
515.47	31512.97
515.64	31534.04
515.81	31299.98
515.99	31573.83
516.16	31674.47
516.33	31700.22
516.51	32271.31
516.68	31611.28
516.85	31545.74
517.03	31995.12
517.20	32112.15
517.37	31828.95
517.54	32060.66
517.72	32137.90
517.89	31950.65
518.06	32456.21
518.24	32311.10
518.41	32238.54
518.58	32133.21
518.75	32496.00
518.93	32765.16
519.10	32367.27
519.27	32954.74
519.45	32734.73
519.62	32968.79
519.79	33146.67
519.96	33027.30
520.14	33359.66
520.31	32978.15
520.48	33158.37
520.65	33235.61
520.83	33816.06
521.00	33734.14
521.17	33525.83
521.34	33699.03
521.52	33579.67
521.69	33640.52
521.86	33631.16
522.03	34054.79
522.20	33916.70
522.38	34171.82
522.55	34452.69
522.72	33951.81
522.89	34328.64
523.07	34536.94
523.24	34843.56
523.41	34773.34
523.58	34689.08
523.75	34572.05
523.92	34735.89
524.10	34803.77
524.27	34703.12
524.44	34904.41
524.61	35075.27
524.78	34899.73
524.96	35028.46
525.13	35393.58
525.30	35435.71
525.47	35180.59
525.64	35096.33
525.81	35608.91
525.98	35487.20
526.16	35419.33
526.33	35337.41
526.50	35768.07
526.67	35576.14
526.84	35629.98
527.01	35405.28
527.18	35847.64
527.36	36072.34
527.53	36098.08
527.70	36093.40
527.87	36484.27
528.04	35828.92
528.21	36470.23
528.38	36491.29
528.55	36666.83
528.72	36472.57
528.89	36329.80
529.07	36266.60
529.24	36100.42
529.41	36428.10
529.58	36678.54
529.75	36903.23
529.92	36914.93
530.09	36861.10
530.26	36896.20
530.43	37120.90
530.60	37172.39
530.77	37081.11
530.94	37083.45
531.11	36968.76
531.28	37118.56
531.46	37212.18
531.63	37354.95
531.80	37626.45
531.97	37270.69
532.14	37457.93
532.31	37209.84
532.48	37937.74
532.65	38110.94
532.82	37874.55
532.99	37680.28
533.16	37457.93
533.33	38045.41
533.50	37825.40
533.67	38455.00
533.84	37928.38
534.01	38157.75
534.18	38176.48
534.35	38555.64
534.52	38330.95
534.69	38841.19
534.86	38532.24
535.03	38382.45
535.20	38562.67
535.37	38539.26
535.54	38572.03
535.71	38689.06
535.88	39007.37
536.05	38857.57
536.22	38824.81
536.38	38852.89
536.55	38756.93
536.72	39009.71
536.89	38806.08
537.06	38686.71
537.23	39150.14
537.40	38906.73
537.57	38810.76
537.74	39311.64
537.91	39093.97
538.08	39367.81
538.25	39356.11
538.42	39473.13
538.59	39356.11
538.75	39491.86
538.92	39543.35
539.09	39761.02
539.26	39426.32
539.43	39866.34
539.60	39438.03
539.77	39636.97
539.94	39854.64
540.11	39807.83
540.28	39812.51
540.44	39718.89
540.61	39531.65
540.78	39639.31
540.95	39917.84
541.12	39852.30
541.29	40191.68
541.46	40236.15
541.62	40428.07
541.79	40383.60
541.96	40140.19
542.13	40086.36
542.30	40348.50
542.47	40137.85
542.63	40765.11
542.80	40271.26
542.97	41289.39
543.14	40732.34
543.31	40739.36
543.48	40730.00
543.64	41310.46
543.81	41326.84
543.98	40964.06
544.15	41041.29
544.32	41151.30
544.48	41333.86
544.65	41350.24
544.82	41411.10
544.99	41074.06
545.16	41251.94
545.32	41284.71
545.49	41874.52
545.66	41989.21
545.83	41659.20
546.00	41130.23
546.16	41701.32
546.33	41486.00
546.50	41876.86
546.67	41677.92
546.83	41144.28
547.00	41858.14
547.17	41544.51
547.34	41553.87
547.50	42106.24
547.67	42384.76
547.84	42115.60
548.00	42569.66
548.17	41916.65
548.34	41897.93
548.51	42330.93
548.67	42403.49
548.84	42185.82
549.01	42359.02
549.18	42361.36
549.34	42541.58
549.51	42494.77
549.68	42728.82
549.84	42443.27
550.01	42677.33
550.18	42700.73
550.34	42349.65
550.51	42822.44
550.68	43005.00
550.84	42513.49
551.01	42871.59
551.18	43082.24
551.34	43016.71
551.51	43040.11
551.68	43068.20
551.84	42637.54
552.01	42665.63
552.18	42817.76
552.34	43056.50
552.51	43178.20
552.68	42962.87
552.84	43295.23
553.01	43569.07
553.18	43377.15
553.34	43313.95
553.51	43126.71
553.67	43079.90
553.84	43704.82
554.01	43559.71
554.17	43379.49
554.34	43737.59
554.51	43697.80
554.67	44123.78
554.84	43477.79
555.00	43290.55
555.17	43693.12
555.33	43763.34
555.50	44133.14
555.67	43550.35
555.83	43548.01
556.00	43761.00
556.16	44334.43
556.33	43758.66
556.50	43966.96
556.66	43992.71
556.83	43571.41
556.99	43924.83
557.16	44009.09
557.32	44069.95
557.49	44776.79
557.65	43983.35
557.82	43854.62
557.98	44442.09
558.15	44425.71
558.32	44472.52
558.48	44285.28
558.65	44729.98
558.81	44292.30
558.98	44397.62
559.14	44360.17
559.31	44158.89
559.47	44460.82
559.64	44528.69
559.80	44844.66
559.97	44636.36
560.13	44327.41
560.30	44350.81
560.46	44769.77
560.63	44666.78
560.79	44746.36
560.96	44828.28
561.12	44704.23
561.29	44722.96
561.45	44912.54
561.61	44678.49
561.78	44865.73
561.94	44591.89
562.11	44940.63
562.27	44788.49
562.44	44767.43
562.60	44980.42
562.77	44587.21
562.93	44676.15
563.10	45411.07
563.26	44861.05
563.42	45715.34
563.59	44945.31
563.75	44830.62
563.92	44737.00
564.08	44786.15
564.24	45385.33
564.41	44907.86
564.57	44931.26
564.74	45048.29
564.90	45521.08
565.07	44839.98
565.23	44912.54
565.39	44781.47
565.56	45013.18
565.72	45069.36
565.88	45474.27
566.05	45420.44
566.21	45132.55
566.38	45336.18
566.54	45600.66
566.70	45483.63
566.87	45453.20
567.03	45399.37
567.19	45720.02
567.36	44886.79
567.52	45315.11
567.68	45975.14
567.85	45537.46
568.01	45595.98
568.17	45209.79
568.34	45649.81
568.50	45584.27
568.66	45287.03
568.83	45333.84
568.99	45237.87
569.15	45123.19
569.32	45455.54
569.48	45642.79
569.64	45780.88
569.81	45820.67
569.97	45579.59
570.13	45642.79
570.30	45464.91
570.46	45614.70
570.62	45825.35
570.78	45874.50
570.95	45560.87
571.11	46272.39
571.27	45820.67
571.43	45516.40
571.60	45883.86
571.76	45724.71
571.92	45876.84
572.09	45558.53
572.25	45844.07
572.41	45762.15
572.57	45851.09
572.74	46174.09
572.90	45780.88
573.06	45972.80
573.22	46106.21
573.38	46412.82
573.55	45935.35
573.71	46522.83
573.87	46014.93
574.03	45935.35
574.20	46019.61
574.36	46286.43
574.52	46138.98
574.68	45755.13
574.84	46403.46
575.01	46220.90
575.17	46239.62
575.33	46038.34
575.49	46012.59
575.65	46270.05
575.82	46326.22
575.98	45916.63
576.14	46281.75
576.30	46497.08
576.46	46176.43
576.62	46227.92
576.79	46153.02
576.95	45991.53
577.11	46146.00
577.27	45869.82
577.43	45900.25
577.59	46218.56
577.75	45951.74
577.92	46089.83
578.08	46358.99
578.24	46347.29
578.40	46445.59
578.56	46127.28
578.72	46068.76
578.88	46373.03
579.04	46131.96
579.21	46155.36
579.37	46117.92
579.53	46579.00
579.69	45876.84
579.85	45975.14
580.01	46487.72
580.17	46162.39
580.33	46232.60
580.49	45949.40
580.65	46094.51
580.82	46349.63
580.98	46028.98
581.14	46143.66
581.30	46171.75
581.46	46277.07
581.62	46373.03
581.78	45837.05
581.94	46382.40
582.10	46513.47
582.26	46330.90
582.42	46557.94
582.58	46735.82
582.74	46078.13
582.90	46356.65
583.06	46553.26
583.22	46562.62
583.38	46354.31
583.54	46389.42
583.70	46361.33
583.86	46618.79
584.02	46459.63
584.18	46894.97
584.34	46691.35
584.50	46609.43
584.66	46197.49
584.82	46658.58
584.98	46714.75
585.14	46344.95
585.30	46246.65
585.46	46560.28
585.62	46351.97
585.78	46574.32
585.94	46188.13
586.10	46335.59
586.26	46653.90
586.42	46267.71
586.58	46869.23
586.74	46754.54
586.90	46511.13
587.06	46370.69
587.22	46602.41
587.38	46277.07
587.54	46815.40
587.70	46806.03
587.86	46616.45
588.02	46330.90
588.18	46749.86
588.34	46361.33
588.49	46794.33
588.65	46583.68
588.81	46295.80
588.97	46532.19
589.13	46445.59
589.29	46412.82
589.45	47093.92
589.61	46831.78
589.77	46824.76
589.93	46356.65
590.08	46841.14
590.24	46955.83
590.40	47075.19
590.56	47224.99
590.72	46829.44
590.88	46480.70
591.04	46770.93
591.20	46871.57
591.35	47189.88
591.51	46733.48
591.67	47119.66
591.83	47325.63
591.99	46541.55
592.15	47159.45
592.31	46438.57
592.46	46827.10
592.62	46988.60
592.78	47243.71
592.94	47224.99
593.10	47192.22
593.26	47407.55
593.41	47283.50
593.57	47096.26
593.73	47349.04
593.89	47288.18
594.05	46932.42
594.20	47356.06
594.36	47718.84
594.52	47351.38
594.68	47182.86
594.84	47089.24
594.99	47566.71
595.15	47365.42
595.31	47114.98
595.47	46546.23
595.62	47360.74
595.78	47042.43
595.94	47114.98
596.10	47082.22
596.25	47311.59
596.41	47576.07
596.57	46883.27
596.73	47732.89
596.88	47412.23
597.04	47269.46
597.20	47166.48
597.36	47086.90
597.51	47065.83
597.67	47180.52
597.83	47110.30
597.99	47189.88
598.14	46944.12
598.30	47075.19
598.46	47260.10
598.61	47529.26
598.77	47157.11
598.93	47157.11
599.09	47295.21
599.24	47388.83
599.40	47194.56
599.56	47445.00
599.71	47643.94
599.87	47679.05
600.03	47639.26
600.18	47454.36
600.34	47082.22
600.50	47519.90
600.65	47601.82
600.81	48034.81
600.97	47236.69
601.12	47592.45
601.28	47529.26
601.44	47384.15
601.59	46948.81
601.75	47250.74
601.91	47739.91
602.06	47484.79
602.22	47430.96
602.37	47164.14
602.53	47550.32
602.69	47601.82
602.84	47316.27
603.00	47255.42
603.16	47700.12
603.31	47215.63
603.47	47782.04
603.62	47313.93
603.78	47452.02
603.94	47391.17
604.09	47421.59
604.25	47674.37
604.40	47339.68
604.56	47487.13
604.71	47519.90
604.87	47220.31
605.03	47405.21
605.18	47253.08
605.34	47271.80
605.49	47065.83
605.65	47564.37
605.80	46960.51
605.96	46822.42
606.12	47356.06
606.27	47555.00
606.43	47227.33
606.58	47988.00
606.74	47416.91
606.89	47419.25
607.05	47473.09
607.20	47416.91
607.36	47302.23
607.51	47428.62
607.67	47019.02
607.82	46864.55
607.98	47646.29
608.13	47210.95
608.29	47147.75
608.44	47337.33
608.60	46806.03
608.75	47327.97
608.91	47260.10
609.06	47093.92
609.22	47529.26
609.37	46911.36
609.53	47131.37
609.68	47215.63
609.84	47545.64
609.99	47105.62
610.15	47178.18
610.30	47304.57
610.46	47140.73
610.61	47070.51
610.76	47096.26
610.92	46604.75
611.07	46962.85
611.23	47079.88
611.38	47196.90
611.54	47187.54
611.69	47021.36
611.84	47543.30
612.00	46756.88
612.15	46457.29
612.31	46644.54
612.46	46745.18
612.62	46745.18
612.77	46696.03
612.92	47203.92
613.08	46473.68
613.23	46948.81
613.39	47147.75
613.54	46522.83
613.69	47014.34
613.85	46396.44
614.00	47129.03
614.15	47157.11
614.31	46670.28
614.46	46527.51
614.62	46616.45
614.77	46724.11
614.92	46450.27
615.08	46520.49
615.23	46974.55
615.38	46632.83
615.54	46745.18
615.69	46574.32
615.84	46532.19
616.00	47075.19
616.15	46670.28
616.30	46885.61
616.46	46953.49
616.61	46377.72
616.76	46597.73
616.92	46368.35
617.07	46321.54
617.22	46265.37
617.37	45996.21
617.53	46410.48
617.68	46241.96
617.83	46169.41
617.99	46639.86
618.14	46878.59
618.29	46342.61
618.45	46113.23
618.60	46321.54
618.75	45879.18
618.90	46127.28
619.06	46326.22
619.21	46117.92
619.36	46473.68
619.51	46108.55
619.67	45860.46
619.82	46349.63
619.97	46529.85
620.12	45858.12
620.28	45989.19
620.43	46026.63
620.58	45736.41
620.73	45755.13
620.89	46150.68
621.04	46160.05
621.19	45851.09
621.34	45720.02
621.49	45703.64
621.65	46167.07
621.80	46274.73
621.95	45876.84
622.10	45790.24
622.25	46057.06
622.41	45551.51
622.56	45867.48
622.71	46108.55
622.86	45617.04
623.01	45755.13
623.16	45546.82
623.32	45610.02
623.47	45979.82
623.62	45560.87
623.77	45247.24
623.92	45518.74
624.07	45734.07
624.23	45741.09
624.38	45359.58
624.53	45507.04
624.68	45411.07
624.83	45226.17
624.98	45198.09
625.13	45057.65
625.29	44905.52
625.44	45207.45
625.59	45392.35
625.74	45315.11
625.89	45368.94
626.04	45177.02
626.19	45345.54
626.34	44921.90
626.49	44891.48
626.65	44648.06
626.80	44907.86
626.95	44341.45
627.10	44388.26
627.25	45282.34
627.40	44933.60
627.55	44577.84
627.70	45001.48
627.85	44760.40
628.00	44931.26
628.15	44711.25
628.30	44898.50
628.45	44615.29
628.60	44776.79
628.76	44673.81
628.91	44657.42
629.06	44479.54
629.21	44479.54
629.36	45017.86
629.51	44580.18
629.66	45134.89
629.81	44753.38
629.96	44594.23
630.11	44467.84
630.26	44093.35
630.41	44285.28
630.56	44458.48
630.71	44446.77
630.86	44369.54
631.01	44046.54
631.16	44201.02
631.31	44421.03
631.46	44105.06
631.61	44446.77
631.76	44353.15
631.91	44411.67
632.06	44884.45
632.21	44704.23
632.36	44456.14
632.51	44067.61
632.66	44465.50
632.81	44236.12
632.96	44135.48
633.10	43889.73
633.25	43924.83
633.40	44238.47
633.55	44509.97
633.70	43978.67
633.85	43683.76
634.00	43344.38
634.15	43826.53
634.30	43524.60
634.45	44095.69
634.60	43805.47
634.75	44079.31
634.90	43981.01
635.05	44048.88
635.19	44137.82
635.34	43817.17
635.49	43847.60
635.64	43924.83
635.79	43676.74
635.94	43711.84
636.09	44163.57
636.24	43639.29
636.39	43756.32
636.53	44023.14
636.68	43093.94
636.83	43328.00
636.98	43688.44
637.13	43367.79
637.28	42969.90
637.43	42871.59
637.57	43459.07
637.72	43302.25
637.87	42995.64
638.02	43164.16
638.17	43058.84
638.32	43365.45
638.46	42845.85
638.61	42960.53
638.76	43030.75
638.91	42969.90
639.06	42976.92
639.20	42813.08
639.35	42660.94
639.50	42742.86
639.65	42749.88
639.80	42969.90
639.94	43440.34
640.09	42827.12
640.24	43210.97
640.39	42623.50
640.54	42080.49
640.68	42857.55
640.83	43086.92
640.98	42609.45
641.13	42459.66
641.27	42983.94
641.42	42689.03
641.57	42780.31
641.72	42979.26
641.86	42649.24
642.01	42333.27
642.16	42298.16
642.31	42466.68
642.45	42665.63
642.60	42394.12
642.75	42307.52
642.90	42476.04
643.04	42712.44
643.19	41841.76
643.34	42263.05
643.48	41738.77
643.63	41970.49
643.78	42284.12
643.93	42637.54
644.07	42672.65
644.22	42384.76
644.37	42157.73
644.51	42630.52
644.66	42197.52
644.81	42361.36
644.95	41816.01
645.10	42024.32
645.25	41673.24
645.39	41661.54
645.54	41844.10
645.69	41886.23
645.83	41734.09
645.98	41528.13
646.13	41776.22
646.27	41539.83
646.42	42092.19
646.57	42021.98
646.71	41844.10
646.86	41806.65
647.00	41713.03
647.15	41916.65
647.30	41518.76
647.44	41462.59
647.59	41394.71
647.74	41336.20
647.88	41813.67
648.03	41862.82
648.17	41965.81
648.32	41907.29
648.47	42155.39
648.61	41507.06
648.76	41614.72
648.90	41694.30
649.05	41408.76
649.20	41525.78
649.34	41474.29
649.49	41242.58
649.63	41546.85
649.78	41289.39
649.92	41256.62
650.07	41813.67
650.21	41715.37
650.36	41823.03
650.51	41567.91
650.65	41537.49
650.80	41324.50
650.94	41359.61
651.09	41261.30
651.23	41045.97
651.38	41041.29
651.52	40896.18
651.67	41071.72
651.81	41305.77
651.96	40870.43
652.10	40893.84
652.25	40706.60
652.39	41022.57
652.54	41223.86
652.68	40942.99
652.83	41254.28
652.97	41130.23
653.12	40954.69
653.26	40470.20
653.41	40982.78
653.55	40840.01
653.70	41420.46
653.84	40795.54
653.99	41233.22
654.13	40425.73
654.27	40568.51
654.42	40935.97
654.56	40282.96
654.71	40907.88
654.85	40596.59
655.00	40921.93
655.14	41097.47
655.29	40643.40
655.43	40830.65
655.57	40521.69
655.72	39997.41
655.86	40395.31
656.01	39962.31
656.15	39765.70
656.30	39955.29
656.44	40395.31
656.58	40409.35
656.73	40383.60
656.87	40004.44
657.01	40179.98
657.16	40093.38
657.30	40002.10
657.45	40081.67
657.59	39746.98
657.73	39590.16
657.88	40051.25
658.02	40282.96
658.16	40264.24
658.31	40051.25
658.45	40039.54
658.60	39728.25
658.74	39849.96
658.88	39269.51
659.03	39349.09
659.17	39407.60
659.31	39594.84
659.46	39461.43
659.60	39599.52
659.74	39643.99
659.89	38962.90
660.03	39157.16
660.17	38969.92
660.32	39058.86
660.46	38873.96
660.60	38745.23
660.74	39075.24
660.89	38962.90
661.03	38906.73
661.17	38497.13
661.32	38679.69
661.46	39292.91
661.60	38658.63
661.74	38911.41
661.89	38490.11
662.03	38909.07
662.17	38195.20
662.31	38412.87
662.46	39079.92
662.60	38342.66
662.74	38492.45
662.88	38188.18
663.03	37989.24
663.17	38260.74
663.31	38286.48
663.45	38302.87
663.60	38536.92
663.74	37972.85
663.88	38117.96
664.02	38080.52
664.17	38288.82
664.31	37855.82
664.45	37673.26
664.59	37876.89
664.73	37923.70
664.88	37535.17
665.02	37598.37
665.16	37502.40
665.30	37593.68
665.44	37296.44
665.59	37380.70
665.73	37212.18
665.87	36884.50
666.01	36751.09
666.15	37378.36
666.29	37237.92
666.44	37156.00
666.58	37069.40
666.72	36624.70
666.86	36528.74
667.00	36940.68
667.14	36725.35
667.28	36919.61
667.43	36900.89
667.57	36982.80
667.71	36577.89
667.85	36840.03
667.99	36594.28
668.13	36109.78
668.27	36498.31
668.41	36376.61
668.56	35859.35
668.70	35945.95
668.84	35744.66
668.98	35974.03
669.12	36081.70
669.26	35938.93
669.40	35906.16
669.54	35543.38
669.68	35814.88
669.82	35732.96
669.96	35461.46
670.10	35264.85
670.25	35849.99
670.39	35573.80
670.53	35421.67
670.67	35236.77
670.81	35426.35
670.95	35405.28
671.09	35098.67
671.23	34813.13
671.37	35356.13
671.51	34796.74
671.65	34314.59
671.79	34883.34
671.93	34696.10
672.07	35068.25
672.21	34511.20
672.35	34078.20
672.49	34443.32
672.63	34803.77
672.77	34202.25
672.91	34242.04
673.05	34054.79
673.19	34087.56
673.33	33951.81
673.47	34066.50
673.61	33640.52
673.75	33902.66
673.89	33570.30
674.03	33305.82
674.17	32982.83
674.31	33535.20
674.45	33174.75
674.59	32596.64
674.73	33298.80
674.87	33230.93
675.01	32711.33
675.15	32868.14
675.29	32456.21
675.43	32844.74
675.56	32786.22
675.70	32797.93
675.84	32615.37
675.98	31241.47
676.12	32149.60
676.26	32554.51
676.40	32318.12
676.54	32027.89
676.68	31765.75
676.82	31583.19
676.96	32074.70
677.10	32067.68
677.23	31817.24
677.37	31644.04
677.51	31686.17
677.65	31871.07
677.79	31587.87
677.93	31363.18
678.07	31328.07
678.21	31091.68
678.34	30841.24
678.48	30815.49
678.62	30740.60
678.76	30712.51
678.90	30611.87
679.04	30543.99
679.18	30820.17
679.31	29874.60
679.45	30202.27
679.59	29769.27
679.73	30071.20
679.87	29563.31
680.00	29689.70
680.14	29621.82
680.28	29507.13
680.42	29823.11
680.56	29202.86
680.70	29404.15
680.83	29001.58
680.97	29296.49
681.11	29263.72
681.25	28811.99
681.39	28851.78
681.52	28797.95
681.66	28648.16
681.80	28196.43
681.94	28257.29
682.07	28126.22
682.21	27992.81
682.35	27920.25
682.49	27936.63
682.62	27983.44
682.76	28320.48
682.90	27861.74
683.04	28016.21
683.17	27627.68
683.31	27342.14
683.45	27522.36
683.59	27056.59
683.72	27253.20
683.86	27007.44
684.00	26787.43
684.13	26761.69
684.27	26558.06
684.41	26434.01
684.55	26604.87
684.68	26487.84
684.82	26005.69
684.96	26314.64
685.09	26300.60
685.23	26265.49
685.37	26387.20
685.50	26382.52
685.64	26043.14
685.78	26092.29
685.91	25685.04
686.05	25254.38
686.19	25144.38
686.32	25406.52
686.46	25076.50
686.60	24900.96
686.73	25069.48
686.87	25090.54
687.01	24980.54
687.14	24856.49
687.28	24786.27
687.42	24893.94
687.55	24542.86
687.69	24961.81
687.82	24613.07
687.96	24486.68
688.10	24112.20
688.23	24261.99
688.37	24257.31
688.50	24187.10
688.64	24063.05
688.78	23793.89
688.91	23637.07
689.05	23917.93
689.18	23309.40
689.32	23241.52
689.46	23222.80
689.59	23239.18
689.73	23145.56
689.86	23372.59
690.00	22948.95
690.13	23023.85
690.27	22888.10
690.41	23229.82
690.54	22630.64
690.68	22333.39
690.81	22373.18
690.95	22291.26
691.08	22490.21
691.22	22274.88
691.35	22218.71
691.49	22174.24
691.62	22157.85
691.76	21841.88
691.89	21429.94
692.03	21308.24
692.16	21205.25
692.30	21530.59
692.43	21156.10
692.57	20996.95
692.70	20903.32
692.84	20952.48
692.97	20854.17
693.11	20652.89
693.24	20669.27
693.38	20711.40
693.51	20318.19
693.65	20666.93
693.78	20236.27
693.92	20182.44
694.05	20210.53
694.19	20168.40
694.32	20163.72
694.45	20456.28
694.59	20170.74
694.72	20135.63
694.86	19658.16
694.99	19564.54
695.13	19529.43
695.26	19426.45
695.39	19538.79
695.53	19337.51
695.66	19183.03
695.80	19330.48
695.93	19302.40
696.07	18843.65
696.20	18691.52
696.33	18471.51
696.47	18464.49
696.60	18597.90
696.73	18728.97
696.87	18368.52
697.00	18492.57
697.14	18169.58
697.27	18183.62
697.40	18113.41
697.54	17996.38
697.67	18038.51
697.80	17984.68
697.94	17942.55
698.07	17535.29
698.21	17680.41
698.34	17474.44
698.47	17228.68
698.61	17415.93
698.74	16931.44
698.87	17170.17
699.01	17081.23
699.14	17219.32
699.27	17046.12
699.40	16849.52
699.54	16865.90
699.67	16830.79
699.80	16840.15
699.94	16540.57
700.07	16505.46
700.20	16409.50
700.34	16463.33
700.47	16428.22
700.60	16671.64
700.73	16145.02
700.87	16088.84
701.00	15784.57
701.13	16058.42
701.26	15786.91
701.40	16018.63
701.53	15419.45
701.66	15957.77
701.79	15517.75
701.93	15161.99
702.06	15229.87
702.19	15241.57
702.32	15267.31
702.46	15229.87
702.59	15339.87
702.72	15087.09
702.85	15103.48
702.99	15023.90
703.12	15009.86
703.25	14986.45
703.38	14803.89
703.51	14487.92
703.65	14331.10
703.78	14265.57
703.91	14420.04
704.04	14153.22
704.17	13977.68
704.31	13963.64
704.44	14232.80
704.57	13998.74
704.70	13998.74
704.83	13783.41
704.96	13635.96
705.10	13319.99
705.23	13481.49
>>>>>End Processed Spectral Data<<<<<
