SpectraSuite Data File
++++++++++++++++++++++++++++++++++++
Date: Fri Oct 25 10:48:26 EDT 2013
User: price-jones
Dark Spectrum Present: No
Reference Spectrum Present: No
Number of Sampled Component Spectra: 1
Spectrometers: USB2+H05261
Integration Time (usec): 100000 (USB2+H05261)
Spectra Averaged: 1 (USB2+H05261)
Boxcar Smoothing: 0 (USB2+H05261)
Correct for Electrical Dark: No (USB2+H05261)
Strobe/Lamp Enabled: No (USB2+H05261)
Correct for Detector Non-linearity: No (USB2+H05261)
Correct for Stray Light: No (USB2+H05261)
Number of Pixels in Processed Spectrum: 2048
>>>>>Begin Processed Spectral Data<<<<<
365.73	166.18
365.92	166.18
366.12	166.18
366.32	60.85
366.52	28.09
366.72	25.75
366.91	37.45
367.11	14.04
367.31	72.56
367.51	135.75
367.70	74.90
367.90	21.06
368.10	65.54
368.30	37.45
368.49	49.15
368.69	56.17
368.89	98.30
369.09	23.41
369.28	42.13
369.48	9.36
369.68	51.49
369.87	166.18
370.07	168.52
370.27	88.94
370.47	196.60
370.66	449.38
370.86	383.85
371.06	449.38
371.25	503.22
371.45	397.89
371.65	456.40
371.84	400.23
372.04	498.53
372.24	468.11
372.44	510.24
372.63	557.05
372.83	535.98
373.03	433.00
373.22	442.36
373.42	566.41
373.62	512.58
373.81	571.09
374.01	589.82
374.21	601.52
374.40	559.39
374.60	566.41
374.79	578.11
374.99	573.43
375.19	592.16
375.38	608.54
375.58	624.92
375.78	653.01
375.97	660.03
376.17	767.70
376.37	559.39
376.56	664.71
376.76	603.86
376.95	653.01
377.15	603.86
377.35	645.99
377.54	669.39
377.74	603.86
377.93	685.78
378.13	664.71
378.33	648.33
378.52	622.58
378.72	657.69
378.91	732.59
379.11	645.99
379.31	650.67
379.50	685.78
379.70	676.41
379.89	720.88
380.09	744.29
380.28	681.10
380.48	695.14
380.68	723.23
380.87	692.80
381.07	660.03
381.26	713.86
381.46	765.36
381.65	805.14
381.85	674.07
382.04	713.86
382.24	758.33
382.43	720.88
382.63	699.82
382.83	699.82
383.02	800.46
383.22	699.82
383.41	681.10
383.61	854.30
383.80	723.23
384.00	690.46
384.19	828.55
384.39	847.27
384.58	856.64
384.78	800.46
384.97	844.93
385.17	798.12
385.36	784.08
385.56	704.50
385.75	814.51
385.95	819.19
386.14	873.02
386.34	812.17
386.53	873.02
386.72	800.46
386.92	938.55
387.11	929.19
387.31	837.91
387.50	933.87
387.70	844.93
387.89	844.93
388.09	770.04
388.28	961.96
388.48	936.21
388.67	908.13
388.86	915.15
389.06	891.74
389.25	866.00
389.45	950.26
389.64	1022.81
389.84	999.41
390.03	1036.86
390.22	959.62
390.42	968.98
390.61	1039.20
390.81	940.90
391.00	945.58
391.19	1097.71
391.39	954.94
391.58	1025.15
391.78	1027.50
391.97	1055.58
392.16	1018.13
392.36	1095.37
392.55	1121.12
392.75	1046.22
392.94	947.92
393.13	1050.90
393.33	1046.22
393.52	1053.24
393.71	1116.44
393.91	1067.28
394.10	1050.90
394.29	1090.69
394.49	1184.31
394.68	1153.88
394.88	1170.27
395.07	1212.40
395.26	1259.21
395.46	1100.05
395.65	1245.16
395.84	1233.46
396.04	1308.36
396.23	1165.59
396.42	1212.40
396.62	1254.53
396.81	1210.06
397.00	1205.38
397.19	1228.78
397.39	1245.16
397.58	1282.61
397.77	1364.53
397.97	1329.42
398.16	1357.51
398.35	1331.76
398.55	1425.39
398.74	1474.54
398.93	1341.13
399.12	1446.45
399.32	1488.58
399.51	1455.81
399.70	1474.54
399.90	1488.58
400.09	1467.52
400.28	1621.99
400.47	1607.95
400.67	1643.06
400.86	1596.25
401.05	1589.22
401.24	1631.35
401.44	1600.93
401.63	1666.46
401.82	1645.40
402.01	1643.06
402.21	1685.19
402.40	1785.83
402.59	1612.63
402.78	1729.66
402.97	1659.44
403.17	1727.32
403.36	1741.36
403.55	1757.74
403.74	1797.53
403.93	1717.95
404.13	1860.73
404.32	1802.21
404.51	1760.08
404.70	1975.41
404.89	1881.79
405.09	1865.41
405.28	1949.67
405.47	1884.13
405.66	1809.23
405.85	1877.11
406.05	1956.69
406.24	1870.09
406.43	1825.62
406.62	1942.64
406.81	2052.65
407.00	1935.62
407.20	1961.37
407.39	2001.16
407.58	2080.74
407.77	2057.33
407.96	2146.27
408.15	2249.25
408.34	2078.40
408.54	2108.82
408.73	2127.55
408.92	2150.95
409.11	2216.49
409.30	2237.55
409.49	2083.08
409.68	2188.40
409.87	2169.68
410.07	2324.15
410.26	2370.96
410.45	2317.13
410.64	2298.41
410.83	2450.54
411.02	2478.63
411.21	2516.08
411.40	2406.07
411.59	2602.68
411.78	2415.43
411.98	2368.62
412.17	2478.63
412.36	2684.59
412.55	2497.35
412.74	2551.18
412.93	2621.40
413.12	2602.68
413.31	2754.81
413.50	2782.90
413.69	2853.11
413.88	2839.07
414.07	2719.70
414.26	2752.47
414.45	2775.88
414.64	2832.05
414.83	2818.00
415.02	2878.86
415.22	3084.83
415.41	3059.08
415.60	3002.91
415.79	3185.47
415.98	3117.59
416.17	3035.67
416.36	2951.42
416.55	3075.46
416.74	3164.40
416.93	3084.83
417.12	3122.27
417.31	3124.62
417.50	3215.90
417.69	3342.28
417.88	3328.24
418.07	3379.73
418.26	3246.32
418.45	3353.99
418.64	3508.46
418.83	3499.10
419.02	3431.23
419.21	3386.76
419.39	3499.10
419.58	3499.10
419.77	3536.55
419.96	3583.36
420.15	3541.23
420.34	3578.68
420.53	3585.70
420.72	3669.96
420.91	3665.28
421.10	3784.65
421.29	3672.30
421.48	3627.83
421.67	3758.90
421.86	3796.35
422.05	3597.40
422.24	3735.50
422.43	3653.58
422.61	3779.97
422.80	3684.00
422.99	3794.01
423.18	3735.50
423.37	3655.92
423.56	3688.68
423.75	3667.62
423.94	3791.67
424.13	3552.93
424.32	3700.39
424.50	3756.56
424.69	3882.95
424.88	3964.87
425.07	3751.88
425.26	3772.94
425.45	3794.01
425.64	3817.41
425.83	3772.94
426.01	3866.56
426.20	3702.73
426.39	3918.06
426.58	3840.82
426.77	3831.46
426.96	3784.65
427.15	3889.97
427.33	4023.38
427.52	3824.44
427.71	4028.06
427.90	3946.14
428.09	4053.81
428.28	3999.98
428.46	3873.59
428.65	3997.64
428.84	4140.41
429.03	4175.52
429.22	4023.38
429.40	4105.30
429.59	3911.04
429.78	3985.93
429.97	3829.12
430.16	3810.39
430.34	3953.16
430.53	4088.92
430.72	3978.91
430.91	4219.99
431.10	4072.53
431.28	4217.65
431.47	4395.53
431.66	4578.09
431.85	4280.84
432.03	4388.50
432.22	4751.29
432.41	4393.19
432.60	4524.26
432.79	4575.75
432.97	4592.13
433.16	4498.51
433.35	4465.74
433.54	4503.19
433.72	4538.30
433.91	4383.82
434.10	4573.41
434.28	4491.49
434.47	4636.60
434.66	4702.14
434.85	4823.84
435.03	4746.61
435.22	4739.58
435.41	4954.91
435.59	4966.62
435.78	4868.31
435.97	5041.51
436.16	4849.59
436.34	4833.21
436.53	5095.35
436.72	5074.28
436.90	5006.41
437.09	4826.18
437.28	4971.30
437.46	4915.12
437.65	4994.70
437.84	5158.54
438.02	5018.11
438.21	5097.69
438.40	4952.57
438.58	5193.65
438.77	5355.15
438.96	5352.81
439.14	5380.89
439.33	5392.59
439.52	5458.13
439.70	5376.21
439.89	5605.58
440.08	5497.92
440.26	5535.37
440.45	5455.79
440.63	5612.60
440.82	5727.29
441.01	5701.54
441.19	5731.97
441.38	5792.83
441.57	5837.30
441.75	5858.36
441.94	5966.03
442.12	5877.09
442.31	6113.48
442.50	6019.86
442.68	6111.14
442.87	6171.99
443.05	6106.46
443.24	6125.18
443.43	6087.73
443.61	6225.82
443.80	6298.38
443.98	6141.57
444.17	6076.03
444.35	6209.44
444.54	6317.11
444.73	6368.60
444.91	6305.40
445.10	6087.73
445.28	6253.91
445.47	6090.07
445.65	6129.86
445.84	6253.91
446.02	6354.55
446.21	6171.99
446.39	6417.75
446.58	6310.08
446.77	6473.92
446.95	6256.25
447.14	6562.86
447.32	6480.94
447.51	6424.77
447.69	6445.84
447.88	6525.41
448.06	6429.45
448.25	6441.15
448.43	6600.31
448.62	6469.24
448.80	6420.09
448.99	6621.38
449.17	6663.51
449.36	6635.42
449.54	6574.56
449.73	6712.66
449.91	6731.38
450.10	6789.89
450.28	7171.40
450.46	6839.05
450.65	7045.01
450.83	6902.24
451.02	6935.01
451.20	7087.14
451.39	7056.72
451.57	6951.39
451.76	6883.52
451.94	6939.69
452.13	7028.63
452.31	7115.23
452.49	6864.79
452.68	7087.14
452.86	7009.90
453.05	7035.65
453.23	7152.68
453.42	7234.60
453.60	7005.22
453.78	7066.08
453.97	7045.01
454.15	7117.57
454.34	6937.35
454.52	7274.38
454.70	7241.62
454.89	7335.24
455.07	7407.80
455.26	7194.81
455.44	7492.05
455.62	7475.67
455.81	7520.14
455.99	7534.18
456.17	7527.16
456.36	7435.88
456.54	7735.47
456.73	7524.82
456.91	7878.24
457.09	7653.55
457.28	7903.99
457.46	7676.96
457.64	7929.74
457.83	7756.54
458.01	7768.24
458.19	7960.16
458.38	7915.69
458.56	7857.18
458.74	8046.76
458.93	7889.95
459.11	7981.23
459.29	7941.44
459.48	7978.89
459.66	8156.77
459.84	8086.55
460.03	8198.90
460.21	8142.72
460.39	8173.15
460.57	8140.38
460.76	8243.37
460.94	8248.05
461.12	8299.54
461.31	8358.05
461.49	8468.06
461.67	8557.00
461.85	8435.29
462.04	8372.10
462.22	8973.61
462.40	8720.84
462.59	8542.96
462.77	8573.38
462.95	8533.59
463.13	8737.22
463.32	8561.68
463.50	8718.50
463.68	8840.20
463.86	8709.13
464.05	8718.50
464.23	8788.71
464.41	8994.68
464.59	8580.40
464.78	8760.63
464.96	8765.31
465.14	8788.71
465.32	8865.95
465.50	8936.17
465.69	8915.10
465.87	8884.67
466.05	8922.12
466.23	8945.53
466.41	8762.97
466.60	9039.15
466.78	8933.82
466.96	9053.19
467.14	8961.91
467.32	9195.96
467.51	9090.64
467.69	9032.13
467.87	9043.83
468.05	9188.94
468.23	9294.27
468.41	8990.00
468.60	9132.77
468.78	9312.99
468.96	9146.81
469.14	9369.16
469.32	9404.27
469.50	9233.41
469.69	9441.72
469.87	9320.01
470.05	9516.62
470.23	9535.34
470.41	9504.92
470.59	9643.01
470.77	9614.92
470.95	9631.30
471.14	9706.20
471.32	9797.48
471.50	9851.31
471.68	9713.22
471.86	10057.28
472.04	10237.50
472.22	10045.58
472.40	9818.55
472.58	10139.20
472.77	10153.24
472.95	10284.31
473.13	10553.48
473.31	10019.83
473.49	10277.29
473.67	10370.91
473.85	10286.65
474.03	10551.14
474.21	10637.73
474.39	10773.49
474.57	10677.52
474.75	10712.63
474.93	11066.05
475.12	10736.04
475.30	10824.98
475.48	10862.43
475.66	10888.17
475.84	11026.26
476.02	11154.99
476.20	10932.64
476.38	11321.17
476.56	11595.01
476.74	11440.54
476.92	11475.65
477.10	11634.80
477.28	11644.17
477.46	11641.82
477.64	11784.60
477.82	12058.44
478.00	12252.70
478.18	12187.17
478.36	12318.24
478.54	12306.54
478.72	12409.52
478.90	12624.85
479.08	12776.98
479.26	12683.36
479.44	12669.32
479.62	12737.20
479.80	13153.81
479.98	13020.40
480.16	13221.69
480.34	13219.35
480.52	13266.16
480.70	13465.10
480.88	13348.08
481.06	13467.44
481.24	13497.87
481.41	13862.99
481.59	14017.47
481.77	13708.52
481.95	13928.53
482.13	14242.16
482.31	13991.72
482.49	14607.28
482.67	14406.00
482.85	14469.19
483.03	14855.38
483.21	14927.94
483.39	14853.04
483.57	14803.89
483.74	15143.27
483.92	15339.87
484.10	15150.29
484.28	15442.85
484.46	15433.49
484.64	15936.71
484.82	15550.52
485.00	16058.42
485.18	15969.48
485.35	15971.82
485.53	15669.89
485.71	15796.28
485.89	16299.49
486.07	16278.43
486.25	16196.51
486.43	16386.09
486.61	16683.34
486.78	16671.64
486.96	16994.63
487.14	17289.54
487.32	17025.06
487.50	17682.75
487.68	17458.06
487.85	17661.68
488.03	17884.03
488.21	18272.56
488.39	18136.81
488.57	18436.40
488.75	18310.01
488.92	18455.12
489.10	19042.60
489.28	18981.74
489.46	18960.68
489.64	19232.18
489.81	19316.44
489.99	19271.97
490.17	19690.93
490.35	19871.15
490.53	19672.20
490.70	19859.45
490.88	20077.12
491.06	20191.80
491.24	20236.27
491.41	20374.36
491.59	20573.31
491.77	20575.65
491.95	20847.15
492.13	20704.38
492.30	21139.72
492.48	21397.18
492.66	21226.32
492.84	21425.26
493.01	21614.85
493.19	21441.65
493.37	22125.08
493.54	21879.33
493.72	22263.18
493.90	22073.59
494.08	22312.33
494.25	22525.32
494.43	22441.06
494.61	22682.13
494.79	23042.57
494.96	22412.97
495.14	22881.08
495.32	22944.27
495.49	23262.58
495.67	23424.08
495.85	23363.23
496.02	23854.74
496.20	23672.18
496.38	23824.31
496.55	23962.40
496.73	24381.36
496.91	24119.22
497.09	24229.23
497.26	24552.22
497.44	24442.21
497.62	24762.87
497.79	24671.59
497.97	24699.67
498.14	25202.89
498.32	25158.42
498.50	25280.13
498.67	25305.87
498.85	25469.71
499.03	25628.87
499.20	25610.14
499.38	25633.55
499.56	26043.14
499.73	26031.44
499.91	26066.55
500.08	26026.76
500.26	25795.04
500.44	25682.70
500.61	26043.14
500.79	25907.39
500.97	26312.30
501.14	26604.87
501.32	27047.23
501.49	26375.50
501.67	26874.03
501.84	26820.20
502.02	26625.93
502.20	27208.73
502.37	27068.30
502.55	27033.19
502.72	27101.06
502.90	27290.65
503.07	26902.12
503.25	27309.37
503.43	27566.83
503.60	27672.15
503.78	28006.85
503.95	27548.11
504.13	28336.87
504.30	27894.50
504.48	27510.66
504.65	28063.02
504.83	28142.60
505.01	28652.84
505.18	28746.46
505.36	28924.34
505.53	28659.86
505.71	28774.55
505.88	28816.68
506.06	28804.97
506.23	29455.64
506.41	29146.69
506.58	29450.96
506.76	29383.09
506.93	29326.91
507.11	29177.12
507.28	29434.58
507.46	29567.99
507.63	29486.07
507.81	30003.33
507.98	29516.50
508.16	29670.97
508.33	29916.73
508.50	30085.25
508.68	30169.51
508.85	30766.34
509.03	30431.65
509.20	30284.19
509.38	30712.51
509.55	30335.68
509.73	30415.26
509.90	30426.96
510.08	30803.79
510.25	30572.08
510.42	30792.09
510.60	31262.54
510.77	31304.67
510.95	31494.25
511.12	31063.59
511.30	31541.06
511.47	31747.03
511.64	31683.83
511.82	31859.37
511.99	31676.81
512.17	31459.14
512.34	31435.74
512.51	31941.29
512.69	32016.19
512.86	31997.46
513.04	32261.94
513.21	31941.29
513.38	32128.53
513.56	32851.76
513.73	32107.47
513.90	32451.53
514.08	32390.67
514.25	32444.51
514.43	32973.47
514.60	32708.99
514.77	32364.93
514.95	32524.08
515.12	32896.23
515.29	33462.64
515.47	33359.66
515.64	33226.24
515.81	32912.61
515.99	33219.22
516.16	33170.07
516.33	33003.89
516.51	33174.75
516.68	32774.52
516.85	32826.01
517.03	33324.55
517.20	33298.80
517.37	34061.82
517.54	33816.06
517.72	33944.79
517.89	33818.40
518.06	33472.00
518.24	33170.07
518.41	33837.12
518.58	34005.64
518.75	33759.89
518.93	34305.23
519.10	34204.59
519.27	34487.79
519.45	34705.46
519.62	34462.05
519.79	34696.10
519.96	34918.45
520.14	34913.77
520.31	34677.38
520.48	35178.25
520.65	34941.86
520.83	35138.46
521.00	35550.40
521.17	35304.64
521.34	35400.60
521.52	35927.22
521.69	35534.01
521.86	35625.29
522.03	35859.35
522.20	36032.55
522.38	35845.30
522.55	35969.35
522.72	35590.19
522.89	36002.12
523.07	36460.87
523.24	35934.24
523.41	36009.14
523.58	35821.90
523.75	36814.29
523.92	36680.88
524.10	36538.10
524.27	37008.55
524.44	36865.78
524.61	36793.22
524.78	37177.07
524.96	36563.85
525.13	37151.32
525.30	37109.19
525.47	37359.63
525.64	37275.37
525.81	37106.85
525.98	37139.62
526.16	36643.43
526.33	36769.82
526.50	37113.87
526.67	37031.96
526.84	36964.08
527.01	36823.65
527.18	37727.10
527.36	37493.04
527.53	37830.08
527.70	37890.93
527.87	37874.55
528.04	37809.01
528.21	37757.52
528.38	38195.20
528.55	38354.36
528.72	38073.49
528.89	38270.10
529.07	38319.25
529.24	37972.85
529.41	38330.95
529.58	38080.52
529.75	38335.63
529.92	38639.90
530.09	38382.45
530.26	38707.78
530.43	38546.28
530.60	38300.53
530.77	38799.06
530.94	39227.38
531.11	38862.26
531.28	38927.79
531.46	38813.10
531.63	38918.43
531.80	38976.94
531.97	38986.30
532.14	39110.35
532.31	39042.48
532.48	39213.34
532.65	39344.41
532.82	39082.27
532.99	39323.34
533.16	39264.83
533.33	39604.20
533.50	39203.97
533.67	39613.57
533.84	39330.36
534.01	39349.09
534.18	39655.70
534.35	40151.89
534.52	39735.27
534.69	39866.34
534.86	39833.58
535.03	39929.54
535.20	39922.52
535.37	40032.52
535.54	40554.46
535.71	40095.72
535.88	40163.59
536.05	40072.31
536.22	40091.04
536.38	40194.02
536.55	40371.90
536.72	40432.75
536.89	40268.92
537.06	40460.84
537.23	40467.86
537.40	40622.34
537.57	40561.48
537.74	41170.02
537.91	40818.94
538.08	40872.78
538.25	40362.54
538.42	40254.87
538.59	40807.24
538.75	40577.87
538.92	41181.73
539.09	40638.72
539.26	40994.48
539.43	40573.19
539.60	41294.07
539.77	40868.09
539.94	41092.79
540.11	40961.72
540.28	40678.51
540.44	41436.84
540.61	41067.04
540.78	41411.10
540.95	40470.20
541.12	41074.06
541.29	41361.95
541.46	41581.96
541.62	41612.38
541.79	41799.63
541.96	41584.30
542.13	41373.65
542.30	41584.30
542.47	41401.74
542.63	41549.19
542.80	41441.53
542.97	41951.76
543.14	41982.19
543.31	42096.88
543.48	42625.84
543.64	42586.05
543.81	42504.13
543.98	42574.34
544.15	41986.87
544.32	42302.84
544.48	43166.50
544.65	42564.98
544.82	42801.38
544.99	41923.68
545.16	42096.88
545.32	42841.17
545.49	42700.73
545.66	42965.21
545.83	42714.78
546.00	42862.23
546.16	42829.46
546.33	42492.43
546.50	42391.78
546.67	42885.64
546.83	42082.83
547.00	42691.37
547.17	42698.39
547.34	43171.18
547.50	43089.26
547.67	43826.53
547.84	43344.38
548.00	43597.16
548.17	43213.31
548.34	43276.51
548.51	43290.55
548.67	43524.60
548.84	43449.70
549.01	43688.44
549.18	43299.91
549.34	43260.12
549.51	43501.20
549.68	43487.15
549.84	43620.56
550.01	43779.72
550.18	43597.16
550.34	43716.53
550.51	43260.12
550.68	43283.53
550.84	43470.77
551.01	43564.39
551.18	43454.39
551.34	43814.83
551.51	43672.06
551.68	43672.06
551.84	44025.48
552.01	44109.74
552.18	44034.84
552.34	43557.37
552.51	44371.88
552.68	43679.08
552.84	44357.83
553.01	44282.94
553.18	44325.07
553.34	44011.43
553.51	44453.79
553.67	43964.62
553.84	44296.98
554.01	44414.01
554.17	44470.18
554.34	44734.66
554.51	44755.72
554.67	44919.56
554.84	44165.91
555.00	44362.51
555.17	44594.23
555.33	44493.58
555.50	44591.89
555.67	44079.31
555.83	44685.51
556.00	44533.37
556.16	45207.45
556.33	44762.75
556.50	44971.05
556.66	44758.06
556.83	44402.30
556.99	44701.89
557.16	44814.24
557.32	44725.30
557.49	44945.31
557.65	44308.68
557.82	44858.71
557.98	44568.48
558.15	44535.71
558.32	44765.09
558.48	44982.76
558.65	44832.96
558.81	44814.24
558.98	44706.57
559.14	44968.71
559.31	44737.00
559.47	44748.70
559.64	45371.28
559.80	45373.63
559.97	44985.10
560.13	44411.67
560.30	44900.84
560.46	45024.89
560.63	44751.04
560.79	45027.23
560.96	45146.59
561.12	45102.12
561.29	45343.20
561.45	45308.09
561.61	45357.24
561.78	45015.52
561.94	44821.26
562.11	45509.38
562.27	45336.18
562.44	45331.50
562.60	45366.60
562.77	45944.72
562.93	45254.26
563.10	45373.63
563.26	45727.05
563.42	45514.06
563.59	45652.15
563.75	45689.60
563.92	45977.48
564.08	45584.27
564.24	45106.80
564.41	45736.41
564.57	45368.94
564.74	45331.50
564.90	45420.44
565.07	45457.88
565.23	45446.18
565.39	45261.28
565.56	45460.23
565.72	45633.42
565.88	45577.25
566.05	45408.73
566.21	45607.68
566.38	45638.11
566.54	45729.39
566.70	45581.93
566.87	45748.11
567.03	46239.62
567.19	46150.68
567.36	45757.47
567.52	45439.16
567.68	45869.82
567.85	45413.41
568.01	45933.01
568.17	45488.31
568.34	45762.15
568.50	45942.38
568.66	45443.84
568.83	45748.11
568.99	45567.89
569.15	45443.84
569.32	45659.17
569.48	45427.46
569.64	45776.20
569.81	45684.92
569.97	45691.94
570.13	46010.25
570.30	45666.19
570.46	45537.46
570.62	45478.95
570.78	45825.35
570.95	45373.63
571.11	45996.21
571.27	45897.91
571.43	45558.53
571.60	45930.67
571.76	46284.09
571.92	45511.72
572.09	45668.53
572.25	45851.09
572.41	46043.02
572.57	46347.29
572.74	46251.33
572.90	45846.41
573.06	45750.45
573.22	45937.69
573.38	45862.80
573.55	45329.16
573.71	46375.37
573.87	45764.49
574.03	45918.97
574.20	45858.12
574.36	45453.20
574.52	45757.47
574.68	45794.92
574.84	45827.69
575.01	46129.62
575.17	45563.21
575.33	45853.44
575.49	45801.94
575.65	46321.54
575.82	46043.02
575.98	46085.15
576.14	46403.46
576.30	45942.38
576.46	45937.69
576.62	45928.33
576.79	45869.82
576.95	45439.16
577.11	45701.30
577.27	46073.45
577.43	46087.49
577.59	45975.14
577.75	45984.51
577.92	45652.15
578.08	45429.80
578.24	45378.31
578.40	45696.62
578.56	46045.36
578.72	46064.08
578.88	45900.25
579.04	45911.95
579.21	45923.65
579.37	46146.00
579.53	45563.21
579.69	45893.22
579.85	46005.57
580.01	46234.94
580.17	46021.95
580.33	46050.04
580.49	46279.41
580.65	46131.96
580.82	46176.43
580.98	45792.58
581.14	45799.60
581.30	46452.61
581.46	45911.95
581.62	46326.22
581.78	46188.13
581.94	46160.05
582.10	45783.22
582.26	45951.74
582.42	46508.79
582.58	46040.68
582.74	46078.13
582.90	45865.14
583.06	46480.70
583.22	46340.27
583.38	46426.87
583.54	45851.09
583.70	46394.10
583.86	45748.11
584.02	45879.18
584.18	46087.49
584.34	46267.71
584.50	46047.70
584.66	46103.87
584.82	45874.50
584.98	45993.87
585.14	46354.31
585.30	46232.60
585.46	46366.01
585.62	46024.29
585.78	46169.41
585.94	45567.89
586.10	45815.99
586.26	45911.95
586.42	46190.47
586.58	46197.49
586.74	46415.16
586.90	46059.40
587.06	45947.06
587.22	46555.60
587.38	46003.23
587.54	46335.59
587.70	46532.19
587.86	46564.96
588.02	46370.69
588.18	46080.47
588.34	45949.40
588.49	45411.07
588.65	45635.77
588.81	45223.83
588.97	46209.20
589.13	45750.45
589.29	45895.56
589.45	46300.48
589.61	46148.34
589.77	46113.23
589.93	46185.79
590.08	46349.63
590.24	46036.00
590.40	46450.27
590.56	46389.42
590.72	46602.41
590.88	46216.22
591.04	46190.47
591.20	46602.41
591.35	46693.69
591.51	46866.89
591.67	46731.14
591.83	46017.27
591.99	46099.19
592.15	45738.75
592.31	46504.10
592.46	46227.92
592.62	46068.76
592.78	46188.13
592.94	46368.35
593.10	46637.51
593.26	46398.78
593.41	46649.22
593.57	46803.69
593.73	46454.95
593.89	46429.21
594.05	46550.91
594.20	45986.85
594.36	46745.18
594.52	46422.19
594.68	46543.89
594.84	46288.77
594.99	46548.57
595.15	46368.35
595.31	46600.07
595.47	46260.69
595.62	46356.65
595.78	46574.32
595.94	46380.06
596.10	47047.11
596.25	46794.33
596.41	46532.19
596.57	46337.93
596.73	46871.57
596.88	46323.88
597.04	46010.25
597.20	46342.61
597.36	46422.19
597.51	46424.53
597.67	46272.39
597.83	45958.76
597.99	46637.51
598.14	46370.69
598.30	46525.17
598.46	46461.97
598.61	46857.52
598.77	46129.62
598.93	46157.70
599.09	46600.07
599.24	47082.22
599.40	46546.23
599.56	46241.96
599.71	46651.56
599.87	46918.38
600.03	46513.47
600.18	46127.28
600.34	46768.58
600.50	46038.34
600.65	46801.35
600.81	46845.82
600.97	46733.48
601.12	46838.80
601.28	46113.23
601.44	46417.50
601.59	46571.98
601.75	46307.50
601.91	46380.06
602.06	46415.16
602.22	46438.57
602.37	46440.91
602.53	46909.02
602.69	46586.02
602.84	46848.16
603.00	46590.70
603.16	46225.58
603.31	46274.73
603.47	46478.36
603.62	46286.43
603.78	46396.44
603.94	46808.37
604.09	46429.21
604.25	46342.61
604.40	46581.34
604.56	46419.84
604.71	46478.36
604.87	46742.84
605.03	46543.89
605.18	46099.19
605.34	46190.47
605.49	46167.07
605.65	46267.71
605.80	46234.94
605.96	46782.63
606.12	45975.14
606.27	46356.65
606.43	46199.83
606.58	46415.16
606.74	45823.01
606.89	46302.82
607.05	45940.04
607.20	46199.83
607.36	46398.78
607.51	46672.62
607.67	45865.14
607.82	46529.85
607.98	46302.82
608.13	46204.52
608.29	46167.07
608.44	45738.75
608.60	45790.24
608.75	46204.52
608.91	46024.29
609.06	45633.42
609.22	45944.72
609.37	45673.21
609.53	46007.91
609.68	45621.72
609.84	45869.82
609.99	45689.60
610.15	46153.02
610.30	46298.14
610.46	45603.00
610.61	45815.99
610.76	45607.68
610.92	45633.42
611.07	45874.50
611.23	45312.77
611.38	45799.60
611.54	45516.40
611.69	45694.28
611.84	45659.17
612.00	45537.46
612.15	45558.53
612.31	45738.75
612.46	45556.19
612.62	45787.90
612.77	45497.67
612.92	45757.47
613.08	45691.94
613.23	45577.25
613.39	45090.42
613.54	45212.13
613.69	45624.06
613.85	45626.40
614.00	45734.07
614.15	45532.78
614.31	45677.90
614.46	45382.99
614.62	45453.20
614.77	45340.86
614.92	45326.81
615.08	45535.12
615.23	45284.68
615.38	45366.60
615.54	44914.88
615.69	44980.42
615.84	44732.32
616.00	45212.13
616.15	45123.19
616.30	45516.40
616.46	44495.92
616.61	44601.25
616.76	44811.90
616.92	44809.56
617.07	45235.53
617.22	44938.29
617.37	45144.25
617.53	44942.97
617.68	45347.88
617.83	44898.50
617.99	45249.58
618.14	44982.76
618.29	44591.89
618.45	44636.36
618.60	44575.50
618.75	44790.83
618.90	45170.00
619.06	44942.97
619.21	44629.34
619.36	44566.14
619.51	45158.30
619.67	45045.95
619.82	44917.22
619.97	45027.23
620.12	44538.05
620.28	44289.96
620.43	44437.41
620.58	44519.33
620.73	44308.68
620.89	44463.16
621.04	44587.21
621.19	44203.36
621.34	44205.70
621.49	44051.22
621.65	44219.74
621.80	44589.55
621.95	44149.53
622.10	44011.43
622.25	43817.17
622.41	44165.91
622.56	44186.97
622.71	44744.02
622.86	44240.81
623.01	43892.07
623.16	44226.76
623.32	44018.46
623.47	44163.57
623.62	44170.59
623.77	43842.92
623.92	44163.57
624.07	43833.55
624.23	43606.52
624.38	43578.43
624.53	44062.93
624.68	44264.21
624.83	43807.81
624.98	43863.98
625.13	43784.40
625.29	43384.17
625.44	43669.72
625.59	43419.28
625.74	43217.99
625.89	43119.69
626.04	43159.48
626.19	43072.88
626.34	43407.58
626.49	43292.89
626.65	43367.79
626.80	43643.97
626.95	43026.07
627.10	43009.68
627.25	43377.15
627.40	42944.15
627.55	42892.66
627.70	42660.94
627.85	42614.13
628.00	42880.95
628.15	43199.27
628.30	42843.51
628.45	43061.18
628.60	42953.51
628.76	43164.16
628.91	43129.05
629.06	42623.50
629.21	42824.78
629.36	42721.80
629.51	42518.17
629.66	42569.66
629.81	42677.33
629.96	42738.18
630.11	42843.51
630.26	42707.76
630.41	42827.12
630.56	42398.80
630.71	42351.99
630.86	42689.03
631.01	42312.20
631.16	42459.66
631.31	42316.89
631.46	42089.85
631.61	42447.96
631.76	42600.09
631.91	42359.02
632.06	42628.18
632.21	42752.23
632.36	42274.76
632.51	42237.31
632.66	42618.81
632.81	42202.20
632.96	42337.95
633.10	41631.11
633.25	42010.28
633.40	42183.48
633.55	42366.04
633.70	42148.37
633.85	41750.48
634.00	42117.94
634.15	42085.17
634.30	42305.18
634.45	42085.17
634.60	41998.57
634.75	41947.08
634.90	41762.18
635.05	42141.35
635.19	41666.22
635.34	42417.53
635.49	42068.79
635.64	41713.03
635.79	41390.03
635.94	41923.68
636.09	41888.57
636.24	41839.42
636.39	41773.88
636.53	41434.50
636.68	41570.25
636.83	41191.09
636.98	41806.65
637.13	41453.23
637.28	41855.80
637.43	41748.14
637.57	41759.84
637.72	41329.18
637.87	41675.58
638.02	41680.26
638.17	41708.35
638.32	41375.99
638.46	40781.49
638.61	41467.27
638.76	41247.26
638.91	41418.12
639.06	41060.02
639.20	41277.69
639.35	41235.56
639.50	41010.87
639.65	41586.64
639.80	41441.53
639.94	40882.14
640.09	40870.43
640.24	40917.25
640.39	40577.87
640.54	40685.53
640.68	40493.61
640.83	40900.86
640.98	40381.26
641.13	40371.90
641.27	41340.88
641.42	40479.57
641.57	40926.61
641.72	40910.22
641.86	40067.63
642.01	40517.01
642.16	40435.10
642.31	40219.77
642.45	40886.82
642.60	40587.23
642.75	40287.64
642.90	40334.45
643.04	40533.40
643.19	40339.13
643.34	40030.18
643.48	40215.08
643.63	40013.80
643.78	40392.97
643.93	40226.79
644.07	39751.66
644.22	40259.55
644.37	39814.85
644.51	39735.27
644.66	40325.09
644.81	40575.53
644.95	40411.69
645.10	40133.17
645.25	40566.16
645.39	39999.76
645.54	40252.53
645.69	39868.69
645.83	39878.05
645.98	40006.78
646.13	39913.16
646.27	39964.65
646.42	39590.16
646.57	40018.48
646.71	39810.17
646.86	39599.52
647.00	39398.24
647.15	39688.46
647.30	40194.02
647.44	39812.51
647.59	39658.04
647.74	39391.22
647.88	39459.09
648.03	39274.19
648.17	39526.97
648.32	39091.63
648.47	39253.12
648.61	39512.92
648.76	39557.39
648.90	39618.25
649.05	39674.42
649.20	39700.17
649.34	39597.18
649.49	39342.06
649.63	39363.13
649.78	39150.14
649.92	39566.76
650.07	39742.30
650.21	39222.70
650.36	39115.03
650.51	39070.56
650.65	39175.89
650.80	39658.04
650.94	39503.56
651.09	39508.24
651.23	39208.65
651.38	38855.23
651.52	38684.37
651.67	39206.31
651.81	39143.12
651.96	38792.04
652.10	38672.67
652.25	38375.42
652.39	38937.15
652.54	38869.28
652.68	38616.50
652.83	38899.70
652.97	39164.18
653.12	39108.01
653.26	38660.97
653.41	38623.52
653.55	38492.45
653.70	38506.49
653.84	38876.30
653.99	38614.16
654.13	38455.00
654.27	38623.52
654.42	38323.93
654.56	38249.03
654.71	38749.91
654.85	38443.30
655.00	38548.62
655.14	38085.20
655.29	37890.93
655.43	38162.43
655.57	38031.36
655.72	38115.62
655.86	38054.77
656.01	37912.00
656.15	37589.00
656.30	37872.21
656.44	37418.14
656.58	37806.67
656.73	37589.00
656.87	37727.10
657.01	37621.77
657.16	37729.44
657.30	37563.26
657.45	37179.41
657.59	37661.56
657.73	37443.89
657.88	37846.46
658.02	37457.93
658.16	37937.74
658.31	37640.50
658.45	38045.41
658.60	37621.77
658.74	37855.82
658.88	37724.75
659.03	37521.13
659.17	36959.40
659.31	37308.14
659.46	37296.44
659.60	37315.16
659.74	37191.11
659.89	36818.97
660.03	36980.46
660.17	37067.06
660.32	36980.46
660.46	37401.76
660.60	37266.01
660.74	37439.21
660.89	36968.76
661.03	36893.86
661.17	36542.78
661.32	36470.23
661.46	36591.94
661.60	36385.97
661.74	36542.78
661.89	36933.65
662.03	36451.50
662.17	36505.34
662.31	36378.95
662.46	36252.56
662.60	36732.37
662.74	36362.56
662.88	36835.35
663.03	36306.39
663.17	36128.51
663.31	36074.68
663.45	36215.11
663.60	35880.41
663.74	35976.37
663.88	35667.42
664.02	35168.89
664.17	36027.87
664.31	35250.81
664.45	35555.08
664.59	35299.96
664.73	35491.88
664.88	35475.50
665.02	35779.77
665.16	35990.42
665.30	35234.42
665.44	35271.87
665.59	35002.71
665.73	35344.43
665.87	35311.66
666.01	35037.82
666.15	34628.23
666.29	34991.01
666.44	35122.08
666.58	35016.75
666.72	35000.37
666.86	35185.27
667.00	34979.31
667.14	35199.32
667.28	34806.11
667.43	34590.78
667.57	34759.30
667.71	34419.92
667.85	34621.20
667.99	34188.21
668.13	34270.12
668.27	34003.30
668.41	34600.14
668.56	34190.55
668.70	33792.65
668.84	34314.59
668.98	34132.03
669.12	33919.04
669.26	34040.75
669.40	33589.03
669.54	33710.74
669.68	33968.19
669.82	33598.39
669.96	33656.90
670.10	33483.70
670.25	33434.55
670.39	33701.37
670.53	33511.79
670.67	33354.97
670.81	33652.22
670.95	33706.05
671.09	33408.81
671.23	33366.68
671.37	33579.67
671.51	32804.95
671.65	32954.74
671.79	33083.47
671.93	32882.19
672.07	32842.40
672.21	32828.35
672.35	32800.27
672.49	32378.97
672.63	32840.06
672.77	32540.47
672.91	32514.72
673.05	32573.24
673.19	32535.79
673.33	32423.44
673.47	32304.07
673.61	31868.73
673.75	31821.92
673.89	31625.32
674.03	31627.66
674.17	31768.09
674.31	31424.03
674.45	31592.55
674.59	31454.46
674.73	31323.39
674.87	31524.68
675.01	31630.00
675.15	31711.92
675.29	31908.52
675.43	31316.37
675.56	31564.46
675.70	30984.01
675.84	31021.46
675.98	29977.58
676.12	30649.32
676.26	30457.39
676.40	30132.06
676.54	30384.83
676.68	30682.08
676.82	29806.72
676.96	30508.88
677.10	30150.78
677.23	30057.16
677.37	30363.77
677.51	29944.81
677.65	29916.73
677.79	29462.66
677.93	29862.90
678.07	29944.81
678.21	29586.71
678.34	29207.55
678.48	28912.64
678.62	29390.11
678.76	29357.34
678.90	28840.08
679.04	29233.29
679.18	29240.31
679.31	28591.98
679.45	29106.90
679.59	28690.29
679.73	28173.03
679.87	28439.85
680.00	28634.11
680.14	28397.72
680.28	27990.47
680.42	27899.19
680.56	28034.94
680.70	28018.55
680.83	27740.03
680.97	27445.12
681.11	27597.26
681.25	27225.11
681.39	27491.93
681.52	27414.69
681.66	27520.02
681.80	27300.01
681.94	27208.73
682.07	27370.22
682.21	26852.97
682.35	27068.30
682.49	27360.86
682.62	27056.59
682.76	26494.86
682.90	26359.11
683.04	26801.47
683.17	26309.96
683.31	26527.63
683.45	26424.65
683.59	26279.54
683.72	25715.47
683.86	26111.02
684.00	25970.58
684.13	26153.15
684.27	25820.79
684.41	25671.00
684.55	25649.93
684.68	25467.37
684.82	25617.16
684.96	24938.41
685.09	25369.07
685.23	24996.92
685.37	25097.56
685.50	25020.33
685.64	25053.09
685.78	24905.64
685.91	24680.95
686.05	24727.76
686.19	24531.15
686.32	24538.18
686.46	24170.71
686.60	23690.90
686.73	24058.37
686.87	23789.20
687.01	23756.44
687.14	23433.44
687.28	23662.82
687.42	23564.51
687.55	23042.57
687.69	23138.54
687.82	23463.87
687.96	23396.00
688.10	23330.46
688.23	23143.22
688.37	22740.64
688.50	22789.80
688.64	22939.59
688.78	22717.24
688.91	22373.18
689.05	22277.22
689.18	22239.77
689.32	22232.75
689.46	22464.46
689.59	22419.99
689.73	22651.70
689.86	21834.86
690.00	22251.47
690.13	22251.47
690.27	22036.14
690.41	22012.74
690.54	21516.54
690.68	21689.74
690.81	21804.43
690.95	21104.61
691.08	21448.67
691.22	21252.06
691.35	21451.01
691.49	21380.79
691.62	21130.36
691.76	21312.92
691.89	21186.53
692.03	20790.98
692.16	20720.76
692.30	20650.55
692.43	20524.16
692.57	20444.58
692.70	20348.62
692.84	20341.60
692.97	20236.27
693.11	20269.04
693.24	20388.41
693.38	20051.37
693.51	19803.27
693.65	19901.58
693.78	20175.42
693.92	19817.32
694.05	19604.33
694.19	19421.77
694.32	19601.99
694.45	19871.15
694.59	19442.83
694.72	19424.11
694.86	19077.71
694.99	19094.09
695.13	18752.37
695.26	18560.45
695.39	18656.41
695.53	18478.53
695.66	18871.74
695.80	18927.91
695.93	18515.98
696.07	18546.40
696.20	18712.58
696.33	18473.85
696.47	18450.44
696.60	18136.81
696.73	18080.64
696.87	17874.67
697.00	18143.83
697.14	17877.01
697.27	17984.68
697.40	17853.61
697.54	17640.62
697.67	17661.68
697.80	17947.23
697.94	17432.31
698.07	17191.23
698.21	17408.90
698.34	17310.60
698.47	17369.12
698.61	16861.22
698.74	17301.24
698.87	17055.48
699.01	16868.24
699.14	16615.46
699.27	16936.12
699.40	16678.66
699.54	16608.44
699.67	16315.87
699.80	16350.98
699.94	16252.68
700.07	16222.25
700.20	15978.84
700.34	16294.81
700.47	16404.81
700.60	16142.67
700.73	16119.27
700.87	16460.99
701.00	15983.52
701.13	15730.74
701.26	15770.53
701.40	15604.35
701.53	15658.18
701.66	15309.44
701.79	15335.19
701.93	15501.37
702.06	15075.39
702.19	15222.84
702.32	15157.31
702.46	15016.88
702.59	15080.07
702.72	15037.94
702.85	15133.90
702.99	15089.43
703.12	15159.65
703.25	14857.72
703.38	14637.71
703.51	14600.26
703.65	14792.19
703.78	14541.75
703.91	14448.13
704.04	14476.21
704.17	14513.66
704.31	14157.90
704.44	13949.59
704.57	13942.57
704.70	13741.29
704.83	13752.99
704.96	14033.85
705.10	14195.35
705.23	14057.26
>>>>>End Processed Spectral Data<<<<<
