SpectraSuite Data File
++++++++++++++++++++++++++++++++++++
Date: Fri Oct 25 11:33:26 EDT 2013
User: price-jones
Dark Spectrum Present: No
Reference Spectrum Present: No
Number of Sampled Component Spectra: 1
Spectrometers: USB2+H05261
Integration Time (usec): 100000 (USB2+H05261)
Spectra Averaged: 1 (USB2+H05261)
Boxcar Smoothing: 0 (USB2+H05261)
Correct for Electrical Dark: No (USB2+H05261)
Strobe/Lamp Enabled: No (USB2+H05261)
Correct for Detector Non-linearity: No (USB2+H05261)
Correct for Stray Light: No (USB2+H05261)
Number of Pixels in Processed Spectrum: 2048
>>>>>Begin Processed Spectral Data<<<<<
365.73	290.23
365.92	290.23
366.12	290.23
366.32	166.18
366.52	177.88
366.72	210.65
366.91	152.13
367.11	131.07
367.31	149.79
367.51	198.95
367.70	163.84
367.90	166.18
368.10	182.56
368.30	126.39
368.49	147.45
368.69	182.56
368.89	208.31
369.09	180.22
369.28	196.60
369.48	205.97
369.68	224.69
369.87	210.65
370.07	266.82
370.27	231.71
370.47	278.52
370.66	486.83
370.86	514.92
371.06	505.56
371.25	526.62
371.45	552.37
371.65	636.63
371.84	535.98
372.04	550.03
372.24	631.94
372.44	533.64
372.63	627.26
372.83	582.79
373.03	617.90
373.22	571.09
373.42	610.88
373.62	671.73
373.81	582.79
374.01	582.79
374.21	641.31
374.40	667.05
374.60	627.26
374.79	603.86
374.99	622.58
375.19	690.46
375.38	645.99
375.58	667.05
375.78	671.73
375.97	716.20
376.17	702.16
376.37	739.61
376.56	720.88
376.76	681.10
376.95	671.73
377.15	739.61
377.35	681.10
377.54	650.67
377.74	617.90
377.93	685.78
378.13	723.23
378.33	784.08
378.52	709.18
378.72	681.10
378.91	770.04
379.11	781.74
379.31	748.97
379.50	664.71
379.70	748.97
379.89	746.63
380.09	697.48
380.28	793.44
380.48	732.59
380.68	798.12
380.87	800.46
381.07	837.91
381.26	821.53
381.46	737.27
381.65	779.40
381.85	732.59
382.04	704.50
382.24	746.63
382.43	760.67
382.63	805.14
382.83	781.74
383.02	734.93
383.22	882.38
383.41	753.65
383.61	812.17
383.80	800.46
384.00	807.48
384.19	814.51
384.39	821.53
384.58	807.48
384.78	880.04
384.97	828.55
385.17	847.27
385.36	912.81
385.56	889.40
385.75	851.96
385.95	833.23
386.14	837.91
386.34	833.23
386.53	854.30
386.72	795.78
386.92	849.61
387.11	882.38
387.31	854.30
387.50	908.13
387.70	814.51
387.89	985.37
388.09	884.72
388.28	961.96
388.48	933.87
388.67	990.05
388.86	849.61
389.06	976.00
389.25	978.34
389.45	922.17
389.64	1006.43
389.84	1018.13
390.03	964.30
390.22	1022.81
390.42	1008.77
390.61	952.60
390.81	936.21
391.00	1025.15
391.19	1011.11
391.39	1022.81
391.58	1011.11
391.78	1076.65
391.97	1020.47
392.16	1067.28
392.36	1027.50
392.55	1041.54
392.75	1076.65
392.94	997.07
393.13	1146.86
393.33	1062.60
393.52	1013.45
393.71	1078.99
393.91	1053.24
394.10	1102.39
394.29	1132.82
394.49	1125.80
394.68	1074.31
394.88	1071.97
395.07	1081.33
395.26	1132.82
395.46	1118.78
395.65	1228.78
395.84	1221.76
396.04	1217.08
396.23	1231.12
396.42	1151.54
396.62	1238.14
396.81	1198.35
397.00	1235.80
397.19	1240.48
397.39	1184.31
397.58	1210.06
397.77	1221.76
397.97	1273.25
398.16	1245.16
398.35	1203.04
398.55	1345.81
398.74	1373.89
398.93	1329.42
399.12	1317.72
399.32	1303.68
399.51	1310.70
399.70	1294.32
399.90	1240.48
400.09	1380.92
400.28	1420.71
400.47	1420.71
400.67	1373.89
400.86	1427.73
401.05	1420.71
401.24	1455.81
401.44	1467.52
401.63	1476.88
401.82	1514.33
402.01	1460.49
402.21	1420.71
402.40	1406.66
402.59	1490.92
402.78	1521.35
402.97	1563.48
403.17	1528.37
403.36	1554.12
403.55	1551.78
403.74	1591.56
403.93	1645.40
404.13	1603.27
404.32	1540.07
404.51	1596.25
404.70	1638.38
404.89	1479.22
405.09	1582.20
405.28	1701.57
405.47	1717.95
405.66	1706.25
405.85	1692.21
406.05	1708.59
406.24	1746.04
406.43	1736.68
406.62	1797.53
406.81	1879.45
407.00	1839.66
407.20	1860.73
407.39	1722.63
407.58	1802.21
407.77	1916.90
407.96	1987.11
408.15	1804.55
408.34	1830.30
408.54	1919.24
408.73	1949.67
408.92	1998.82
409.11	2083.08
409.30	2026.90
409.49	2033.93
409.68	2073.71
409.87	2022.22
410.07	1984.77
410.26	2036.27
410.45	1980.09
410.64	2101.80
410.83	2132.23
411.02	2111.16
411.21	2094.78
411.40	2080.74
411.59	2242.23
411.78	2272.66
411.98	2207.13
412.17	2230.53
412.36	2244.57
412.55	2305.43
412.74	2361.60
412.93	2408.41
413.12	2368.62
413.31	2415.43
413.50	2441.18
413.69	2441.18
413.88	2551.18
414.07	2562.89
414.26	2527.78
414.45	2499.69
414.64	2532.46
414.83	2553.52
415.02	2640.12
415.22	2579.27
415.41	2654.17
415.60	2663.53
415.79	2750.13
415.98	2815.66
416.17	2717.36
416.36	2796.94
416.55	2841.41
416.74	2750.13
416.93	2925.67
417.12	2855.45
417.31	2930.35
417.50	2949.08
417.69	2895.24
417.88	3035.67
418.07	2932.69
418.26	3056.74
418.45	3026.31
418.64	3077.80
418.83	2977.16
419.02	3103.55
419.21	3117.59
419.39	3101.21
419.58	3105.89
419.77	3084.83
419.96	3040.36
420.15	3150.36
420.34	3218.24
420.53	3091.85
420.72	3318.88
420.91	3353.99
421.10	3293.13
421.29	3321.22
421.48	3150.36
421.67	3391.44
421.86	3325.90
422.05	3274.41
422.24	3215.90
422.43	3302.50
422.61	3321.22
422.80	3449.95
422.99	3419.52
423.18	3356.33
423.37	3438.25
423.56	3379.73
423.75	3353.99
423.94	3316.54
424.13	3281.43
424.32	3318.88
424.50	3445.27
424.69	3471.01
424.88	3660.60
425.07	3478.04
425.26	3442.93
425.45	3279.09
425.64	3414.84
425.83	3494.42
426.01	3590.38
426.20	3445.27
426.39	3480.38
426.58	3473.36
426.77	3562.30
426.96	3592.72
427.15	3592.72
427.33	3562.30
427.52	3693.37
427.71	3651.24
427.90	3590.38
428.09	3754.22
428.28	3714.43
428.46	3786.99
428.65	3662.94
428.84	3904.01
429.03	3803.37
429.22	3721.45
429.40	3831.46
429.59	3878.27
429.78	3655.92
429.97	3688.68
430.16	3805.71
430.34	3929.76
430.53	3754.22
430.72	3936.78
430.91	3815.07
431.10	3915.72
431.28	3971.89
431.47	3969.55
431.66	3840.82
431.85	3899.33
432.03	3978.91
432.22	4163.81
432.41	4203.60
432.60	3950.82
432.79	4074.87
432.97	4086.58
433.16	4184.88
433.35	4212.96
433.54	4170.83
433.72	4159.13
433.91	4306.59
434.10	4248.07
434.28	4210.62
434.47	4241.05
434.66	4358.08
434.85	4386.16
435.03	4348.72
435.22	4280.84
435.41	4409.57
435.59	4369.78
435.78	4475.10
435.97	4435.32
436.16	4500.85
436.34	4287.86
436.53	4533.62
436.72	4606.17
436.90	4493.83
437.09	4631.92
437.28	4442.34
437.46	4484.47
437.65	4524.26
437.84	4557.02
438.02	4624.90
438.21	4624.90
438.40	4718.52
438.58	4709.16
438.77	4786.40
438.96	4713.84
439.14	4901.08
439.33	4975.98
439.52	4835.55
439.70	4915.12
439.89	5195.99
440.08	5095.35
440.26	5013.43
440.45	5135.14
440.63	5039.17
440.82	5191.31
441.01	5048.54
441.19	5156.20
441.38	5275.57
441.57	5247.48
441.75	5357.49
441.94	5179.61
442.12	5460.47
442.31	5301.31
442.50	5331.74
442.68	5434.72
442.87	5624.31
443.05	5521.32
443.24	5626.65
443.43	5584.52
443.61	5598.56
443.80	5738.99
443.98	5589.20
444.17	5238.12
444.35	5729.63
444.54	5701.54
444.73	5664.10
444.91	5659.42
445.10	5699.20
445.28	5696.86
445.47	5533.03
445.65	5689.84
445.84	5561.11
446.02	5675.80
446.21	5692.18
446.39	5551.75
446.58	5841.98
446.77	5743.67
446.95	5731.97
447.14	5799.85
447.32	5914.53
447.51	5757.72
447.69	5661.76
447.88	5785.80
448.06	5769.42
448.25	5776.44
448.43	5818.57
448.62	5884.11
448.80	5926.24
448.99	5930.92
449.17	5879.43
449.36	5806.87
449.54	6008.16
449.73	6104.12
449.91	6115.82
450.10	5933.26
450.28	6153.27
450.46	6232.85
450.65	6127.52
450.83	6087.73
451.02	6282.00
451.20	6270.30
451.39	6221.14
451.57	6270.30
451.76	6115.82
451.94	6267.95
452.13	6370.94
452.31	6413.07
452.49	6289.02
452.68	6377.96
452.86	6349.87
453.05	6427.11
453.23	6492.65
453.42	6347.53
453.60	6305.40
453.78	6466.90
453.97	6338.17
454.15	6394.34
454.34	6408.39
454.52	6656.48
454.70	6679.89
454.89	6612.01
455.07	6516.05
455.26	6534.78
455.44	6677.55
455.62	6707.98
455.81	6754.79
455.99	6885.86
456.17	6736.06
456.36	6932.67
456.54	6808.62
456.73	6932.67
456.91	7066.08
457.09	7103.53
457.28	7148.00
457.46	7094.16
457.64	7342.26
457.83	7110.55
458.01	7007.56
458.19	7295.45
458.38	7302.47
458.56	7332.90
458.74	7164.38
458.93	7187.79
459.11	7269.70
459.29	7258.00
459.48	7243.96
459.66	7407.80
459.84	7515.46
460.03	7559.93
460.21	7548.23
460.39	7445.24
460.57	7403.11
460.76	7702.70
460.94	7569.29
461.12	7414.82
461.31	7609.08
461.49	7522.48
461.67	7543.55
461.85	7719.09
462.04	7693.34
462.22	8173.15
462.40	7779.94
462.59	7772.92
462.77	7702.70
462.95	7719.09
463.13	7798.66
463.32	7695.68
463.50	7911.01
463.68	7810.37
463.86	7911.01
464.05	7772.92
464.23	7819.73
464.41	8093.57
464.59	7976.55
464.78	8081.87
464.96	8091.23
465.14	8030.38
465.32	8086.55
465.50	7889.95
465.69	8147.40
465.87	8105.28
466.05	8109.96
466.23	8152.09
466.41	8404.86
466.60	8271.45
466.78	8264.43
466.96	8086.55
467.14	8201.24
467.32	8306.56
467.51	8346.35
467.69	8018.68
467.87	8315.92
468.05	8461.04
468.23	8234.00
468.41	8437.63
468.60	8505.51
468.78	8458.70
468.96	8430.61
469.14	8627.21
469.32	8723.18
469.50	8688.07
469.69	8922.12
469.87	8802.75
470.05	8821.48
470.23	8861.27
470.41	8755.94
470.59	8894.04
470.77	8959.57
470.95	8732.54
471.14	9165.54
471.32	8926.80
471.50	9135.11
471.68	8830.84
471.86	9179.58
472.04	9170.22
472.22	9324.69
472.40	9036.81
472.58	9025.11
472.77	9310.65
472.95	9380.87
473.13	9540.02
473.31	9238.09
473.49	9514.28
473.67	9621.94
473.85	9488.53
474.03	9750.67
474.21	9767.06
474.39	10085.37
474.57	10094.73
474.75	9781.10
474.93	10141.54
475.12	9902.81
475.30	10118.14
475.48	9989.41
475.66	10050.26
475.84	10193.03
476.02	10181.33
476.20	10146.22
476.38	10263.25
476.56	10611.99
476.74	10658.80
476.92	10469.22
477.10	10670.50
477.28	10808.59
477.46	10918.60
477.64	11105.84
477.82	11115.20
478.00	11197.12
478.18	11211.17
478.36	11314.15
478.54	11400.75
478.72	11274.36
478.90	11386.71
479.08	11541.18
479.26	11903.96
479.44	11946.09
479.62	11896.94
479.80	11875.88
479.98	11906.31
480.16	12257.39
480.34	12334.62
480.52	12283.13
480.70	12343.99
480.88	12285.47
481.06	12500.80
481.24	12505.48
481.41	12828.48
481.59	12961.89
481.77	12945.50
481.95	12966.57
482.13	13177.22
482.31	13088.28
482.49	13408.93
482.67	13301.26
482.85	13387.86
483.03	13760.01
483.21	13579.79
483.39	13884.06
483.57	13844.27
483.74	13825.54
483.92	14171.94
484.10	13968.32
484.28	14029.17
484.46	14780.48
484.64	14724.31
484.82	14513.66
485.00	14618.99
485.18	14965.39
485.35	15276.68
485.53	15051.99
485.71	14895.17
485.89	15609.03
486.07	15602.01
486.25	15337.53
486.43	15634.78
486.61	15782.23
486.78	15578.61
486.96	16107.57
487.14	16177.78
487.32	16004.58
487.50	16107.57
487.68	16622.48
487.85	16844.84
488.03	16645.89
488.21	16959.52
488.39	16872.92
488.57	17139.74
488.75	17408.90
488.92	17781.05
489.10	17556.36
489.28	17483.80
489.46	17703.81
489.64	17820.84
489.81	18155.54
489.99	18401.29
490.17	18317.03
490.35	18658.75
490.53	18789.82
490.70	18874.08
490.88	18691.52
491.06	19222.82
491.24	19002.81
491.41	19393.68
491.59	19278.99
491.77	19283.67
491.95	19630.07
492.13	19543.47
492.30	19836.04
492.48	19777.53
492.66	20163.72
492.84	20091.16
493.01	20144.99
493.19	20357.98
493.37	20379.04
493.54	20730.12
493.72	20875.24
493.90	20510.11
494.08	20936.09
494.25	21160.78
494.43	21095.25
494.61	21226.32
494.79	21366.75
494.96	21397.18
495.14	21607.83
495.32	22043.17
495.49	21832.52
495.67	21844.22
495.85	21909.75
496.02	22202.32
496.20	22398.93
496.38	22466.80
496.55	22590.85
496.73	23129.17
496.91	22871.72
497.09	22401.27
497.26	23058.96
497.44	23019.17
497.62	23304.71
497.79	23749.42
497.97	23515.36
498.14	23730.69
498.32	23873.46
498.50	23988.15
498.67	24074.75
498.85	23868.78
499.03	24360.30
499.20	24271.36
499.38	24037.30
499.56	24474.98
499.73	24404.77
499.91	24849.47
500.08	25146.72
500.26	24587.33
500.44	24940.75
500.61	24870.53
500.79	24882.24
500.97	25355.02
501.14	25591.42
501.32	25912.07
501.49	25340.98
501.67	25228.63
501.84	25933.14
502.02	25659.29
502.20	25734.19
502.37	25769.30
502.55	25991.65
502.72	26356.77
502.90	25937.82
503.07	25825.47
503.25	26239.75
503.43	26071.23
503.60	26272.51
503.78	26246.77
503.95	26703.17
504.13	26672.74
504.30	26855.31
504.48	26822.54
504.65	26686.79
504.83	27234.47
505.01	27524.70
505.18	27431.08
505.36	27487.25
505.53	27608.96
505.71	27585.55
505.88	27623.00
506.06	27262.56
506.23	27821.95
506.41	27812.59
506.58	28067.70
506.76	28072.39
506.93	28334.53
507.11	28318.14
507.28	28584.96
507.46	28334.53
507.63	28463.25
507.81	28973.49
507.98	28566.24
508.16	28472.62
508.33	28685.61
508.50	28964.13
508.68	29034.35
508.85	29500.11
509.03	29090.52
509.20	29170.10
509.38	29413.51
509.55	29247.33
509.73	29846.51
509.90	29748.21
510.08	29502.45
510.25	29680.33
510.42	29465.00
510.60	29823.11
510.77	30052.48
510.95	30309.94
511.12	29937.79
511.30	29776.30
511.47	30146.10
511.64	30356.75
511.82	30455.05
511.99	30581.44
512.17	30504.20
512.34	30616.55
512.51	30951.24
512.69	31133.81
512.86	30780.39
513.04	31260.20
513.21	31136.15
513.38	31023.80
513.56	31566.81
513.73	31536.38
513.90	30874.01
514.08	31604.25
514.25	31564.46
514.43	31751.71
514.60	31931.93
514.77	31915.54
514.95	32063.00
515.12	31892.14
515.29	31854.69
515.47	32187.05
515.64	32367.27
515.81	32074.70
515.99	32378.97
516.16	32299.39
516.33	32299.39
516.51	32690.26
516.68	32624.73
516.85	32353.23
517.03	32779.20
517.20	32669.20
517.37	32718.35
517.54	33010.92
517.72	33149.01
517.89	33357.32
518.06	33401.79
518.24	33113.90
518.41	33151.35
518.58	33141.99
518.75	33305.82
518.93	33511.79
519.10	33537.54
519.27	33736.48
519.45	34122.67
519.62	33621.80
519.79	33881.60
519.96	33680.31
520.14	34204.59
520.31	34242.04
520.48	34473.75
520.65	34419.92
520.83	34927.81
521.00	34143.74
521.17	34300.55
521.34	34464.39
521.52	35110.38
521.69	34536.94
521.86	34604.82
522.03	35089.31
522.20	35271.87
522.38	35304.64
522.55	34955.90
522.72	35091.65
522.89	35393.58
523.07	35686.15
523.24	35180.59
523.41	35826.58
523.58	35405.28
523.75	35669.76
523.92	35931.90
524.10	35849.99
524.27	35725.94
524.44	36121.49
524.61	36240.86
524.78	36187.02
524.96	35704.87
525.13	36435.12
525.30	36470.23
525.47	36559.17
525.64	36229.15
525.81	36362.56
525.98	36825.99
526.16	36367.24
526.33	36261.92
526.50	36814.29
526.67	36662.15
526.84	36673.85
527.01	36528.74
527.18	37071.75
527.36	37010.89
527.53	37137.28
527.70	37574.96
527.87	37584.32
528.04	37436.87
528.21	37013.23
528.38	37198.13
528.55	37457.93
528.72	36978.12
528.89	37280.05
529.07	37560.92
529.24	37317.50
529.41	37811.35
529.58	37844.12
529.75	37617.09
529.92	37596.03
530.09	37567.94
530.26	37818.38
530.43	37827.74
530.60	37956.47
530.77	38082.86
530.94	37979.87
531.11	38019.66
531.28	38150.73
531.46	38305.21
531.63	38202.22
531.80	38515.86
531.97	38469.04
532.14	38714.80
532.31	38267.76
532.48	38218.61
532.65	39016.73
532.82	38478.41
532.99	38565.01
533.16	38651.61
533.33	38646.93
533.50	39414.62
533.67	39218.02
533.84	38773.31
534.01	39587.82
534.18	39051.84
534.35	39419.30
534.52	38930.13
534.69	39522.29
534.86	39328.02
535.03	39306.96
535.20	39690.80
535.37	39791.45
535.54	39873.37
535.71	39620.59
535.88	39543.35
536.05	39363.13
536.22	39845.28
536.38	39655.70
536.55	40039.54
536.72	40025.50
536.89	39845.28
537.06	39669.74
537.23	40456.16
537.40	40456.16
537.57	39988.05
537.74	40325.09
537.91	40666.81
538.08	40432.75
538.25	40257.21
538.42	40498.29
538.59	40570.85
538.75	40421.05
538.92	40512.33
539.09	41111.51
539.26	40479.57
539.43	40926.61
539.60	40849.37
539.77	40935.97
539.94	41024.91
540.11	40861.07
540.28	41263.64
540.44	41284.71
540.61	41284.71
540.78	41074.06
540.95	40774.47
541.12	41289.39
541.29	40910.22
541.46	41174.70
541.62	41368.97
541.79	41675.58
541.96	40842.35
542.13	41380.67
542.30	41251.94
542.47	41720.05
542.63	41661.54
542.80	41862.82
542.97	41841.76
543.14	42237.31
543.31	41832.39
543.48	41926.02
543.64	42602.43
543.81	42218.58
543.98	42340.29
544.15	42167.09
544.32	42562.64
544.48	42941.81
544.65	42288.80
544.82	42618.81
544.99	42368.38
545.16	42817.76
545.32	42761.59
545.49	42625.84
545.66	42724.14
545.83	42836.48
546.00	42667.97
546.16	42775.63
546.33	42454.98
546.50	42490.09
546.67	43416.94
546.83	42761.59
547.00	42953.51
547.17	42813.08
547.34	42981.60
547.50	43344.38
547.67	43517.58
547.84	43639.29
548.00	43379.49
548.17	43468.43
548.34	43456.73
548.51	43777.38
548.67	43250.76
548.84	43402.89
549.01	43590.14
549.18	43508.22
549.34	43672.06
549.51	44076.97
549.68	43847.60
549.84	43634.61
550.01	43863.98
550.18	43381.83
550.34	43557.37
550.51	44126.12
550.68	44371.88
550.84	43466.09
551.01	44161.23
551.18	43709.50
551.34	43959.94
551.51	44191.65
551.68	44107.40
551.84	44194.00
552.01	44304.00
552.18	43763.34
552.34	43999.73
552.51	43917.81
552.68	44203.36
552.84	44540.39
553.01	44210.38
553.18	44144.84
553.34	44446.77
553.51	44545.08
553.67	44652.74
553.84	44926.58
554.01	44603.59
554.17	44697.21
554.34	44486.56
554.51	44847.00
554.67	44811.90
554.84	45251.92
555.00	44509.97
555.17	44753.38
555.33	45017.86
555.50	45081.06
555.67	45055.31
555.83	45097.44
556.00	45226.17
556.16	45551.51
556.33	44992.12
556.50	45038.93
556.66	45151.27
556.83	44870.41
556.99	45703.64
557.16	45450.86
557.32	45172.34
557.49	45429.80
557.65	44793.17
557.82	45343.20
557.98	45052.97
558.15	45043.61
558.32	45755.13
558.48	45052.97
558.65	45364.26
558.81	45806.62
558.98	45132.55
559.14	45385.33
559.31	45858.12
559.47	45652.15
559.64	45406.39
559.80	45368.94
559.97	45558.53
560.13	45462.57
560.30	45741.09
560.46	45963.44
560.63	45970.46
560.79	46335.59
560.96	46153.02
561.12	46241.96
561.29	46010.25
561.45	46096.85
561.61	45921.31
561.78	45837.05
561.94	45909.61
562.11	45553.85
562.27	46014.93
562.44	45883.86
562.60	45832.37
562.77	46146.00
562.93	46021.95
563.10	46256.01
563.26	46281.75
563.42	46438.57
563.59	46120.26
563.75	46260.69
563.92	45963.44
564.08	46089.83
564.24	46433.89
564.41	46337.93
564.57	46431.55
564.74	46342.61
564.90	46284.09
565.07	46363.67
565.23	46522.83
565.39	45954.08
565.56	46546.23
565.72	46075.79
565.88	46597.73
566.05	46646.88
566.21	46579.00
566.38	46171.75
566.54	46658.58
566.70	46815.40
566.87	46483.04
567.03	46431.55
567.19	46600.07
567.36	46349.63
567.52	46316.86
567.68	46738.16
567.85	46452.61
568.01	46611.77
568.17	46677.30
568.34	46712.41
568.50	46904.34
568.66	46284.09
568.83	46464.32
568.99	46663.26
569.15	46667.94
569.32	46492.40
569.48	46806.03
569.64	47093.92
569.81	46913.70
569.97	46944.12
570.13	46808.37
570.30	46574.32
570.46	46965.19
570.62	46993.28
570.78	46857.52
570.95	46745.18
571.11	47442.66
571.27	46763.90
571.43	46817.74
571.60	47007.32
571.76	46693.69
571.92	47021.36
572.09	46728.80
572.25	46611.77
572.41	46834.12
572.57	46845.82
572.74	47480.11
572.90	46852.84
573.06	46871.57
573.22	47449.68
573.38	46972.21
573.55	47573.73
573.71	47508.19
573.87	47339.68
574.03	47112.64
574.20	47037.75
574.36	47334.99
574.52	47290.52
574.68	47278.82
574.84	47292.86
575.01	47503.51
575.17	47267.12
575.33	47299.89
575.49	46951.15
575.65	47482.45
575.82	47363.08
575.98	46965.19
576.14	47550.32
576.30	47667.35
576.46	47196.90
576.62	47253.08
576.79	47302.23
576.95	46960.51
577.11	47269.46
577.27	47281.16
577.43	47388.83
577.59	47550.32
577.75	47004.98
577.92	46705.39
578.08	46923.06
578.24	47175.84
578.40	47618.20
578.56	47421.59
578.72	47672.03
578.88	47459.04
579.04	47704.80
579.21	47316.27
579.37	47264.78
579.53	47426.28
579.69	47627.56
579.85	47164.14
580.01	47601.82
580.17	47384.15
580.33	47601.82
580.49	47559.69
580.65	47777.36
580.82	47388.83
580.98	47175.84
581.14	47320.95
581.30	47023.70
581.46	47037.75
581.62	46972.21
581.78	47161.79
581.94	47253.08
582.10	47613.52
582.26	47646.29
582.42	47239.03
582.58	47812.46
582.74	47442.66
582.90	47199.24
583.06	47763.31
583.22	47430.96
583.38	47613.52
583.54	47433.30
583.70	47445.00
583.86	47702.46
584.02	47344.36
584.18	47704.80
584.34	47585.43
584.50	47475.43
584.66	47945.87
584.82	47405.21
584.98	47934.17
585.14	47826.51
585.30	47496.49
585.46	47887.36
585.62	47604.16
585.78	47856.93
585.94	47044.77
586.10	47545.64
586.26	47550.32
586.42	47608.84
586.58	47620.54
586.74	47639.26
586.90	47346.70
587.06	47496.49
587.22	47770.33
587.38	47407.55
587.54	47522.24
587.70	48088.65
587.86	47735.23
588.02	47337.33
588.18	47971.62
588.34	47342.02
588.49	47566.71
588.65	47615.86
588.81	47810.12
588.97	47772.67
589.13	47540.96
589.29	47723.52
589.45	48215.04
589.61	47594.79
589.77	47702.46
589.93	48020.77
590.08	48184.61
590.24	48119.07
590.40	48500.58
590.56	48456.11
590.72	48076.94
590.88	47468.40
591.04	47838.21
591.20	48325.04
591.35	48308.66
591.51	48289.93
591.67	48142.48
591.83	48147.16
591.99	48275.89
592.15	47842.89
592.31	48203.33
592.46	48222.06
592.62	47924.81
592.78	47971.62
592.94	48006.73
593.10	48343.77
593.26	48781.45
593.41	47952.90
593.57	48624.63
593.73	48172.91
593.89	48147.16
594.05	48170.57
594.20	48348.45
594.36	48776.76
594.52	48701.87
594.68	48325.04
594.84	48264.19
594.99	48832.94
595.15	48390.58
595.31	48561.44
595.47	48053.54
595.62	48189.29
595.78	48048.86
595.94	47910.77
596.10	48458.45
596.25	48229.08
596.41	48832.94
596.57	48109.71
596.73	48470.15
596.88	48533.35
597.04	48432.71
597.20	48406.96
597.36	48741.66
597.51	48273.55
597.67	48282.91
597.83	48521.65
597.99	48746.34
598.14	48278.23
598.30	48500.58
598.46	48821.23
598.61	48907.83
598.77	48254.82
598.93	48519.31
599.09	48652.72
599.24	48870.39
599.40	48404.62
599.56	48353.13
599.71	48978.05
599.87	49359.56
600.03	49064.65
600.18	48669.10
600.34	48610.59
600.50	48481.86
600.65	48725.27
600.81	48924.22
600.97	48861.02
601.12	48655.06
601.28	48360.15
601.44	48453.77
601.59	48481.86
601.75	48271.21
601.91	48746.34
602.06	48481.86
602.22	48669.10
602.37	48371.85
602.53	49085.72
602.69	48811.87
602.84	48296.95
603.00	48353.13
603.16	48306.32
603.31	48861.02
603.47	48350.79
603.62	48514.62
603.78	48776.76
603.94	48542.71
604.09	48612.93
604.25	48800.17
604.40	48451.43
604.56	48814.21
604.71	48882.09
604.87	48488.88
605.03	48472.49
605.18	48505.26
605.34	48666.76
605.49	48170.57
605.65	48528.67
605.80	48306.32
605.96	48418.66
606.12	48353.13
606.27	48765.06
606.43	48402.28
606.58	48608.25
606.74	48559.09
606.89	48332.06
607.05	48753.36
607.20	48596.54
607.36	48191.63
607.51	48648.03
607.67	48233.76
607.82	48442.07
607.98	48233.76
608.13	48650.38
608.29	47990.34
608.44	48549.73
608.60	48060.56
608.75	47952.90
608.91	48151.84
609.06	48142.48
609.22	48484.20
609.37	48135.46
609.53	48343.77
609.68	48336.74
609.84	48364.83
609.99	48570.80
610.15	48615.27
610.30	48587.18
610.46	48215.04
610.61	48575.48
610.76	48098.01
610.92	48428.02
611.07	47920.13
611.23	48250.14
611.38	48058.22
611.54	48093.33
611.69	48287.59
611.84	48158.86
612.00	47564.37
612.15	47597.13
612.31	48147.16
612.46	47751.61
612.62	48156.52
612.77	47461.38
612.92	48369.51
613.08	47744.59
613.23	48119.07
613.39	47931.83
613.54	47835.87
613.69	48023.11
613.85	48158.86
614.00	48116.73
614.15	47831.19
614.31	47847.57
614.46	47571.39
614.62	47849.91
614.77	47959.92
614.92	47552.66
615.08	47831.19
615.23	48100.35
615.38	47945.87
615.54	47901.40
615.69	47903.74
615.84	47840.55
616.00	47641.60
616.15	47812.46
616.30	47896.72
616.46	47648.63
616.61	47866.30
616.76	47952.90
616.92	47557.35
617.07	47583.09
617.22	47906.08
617.37	47428.62
617.53	47690.76
617.68	47892.04
617.83	47641.60
617.99	47997.37
618.14	47695.44
618.29	47604.16
618.45	47110.30
618.60	47449.68
618.75	46979.23
618.90	47330.31
619.06	47377.12
619.21	47180.52
619.36	47861.61
619.51	47327.97
619.67	47028.38
619.82	47447.34
619.97	46955.83
620.12	47004.98
620.28	47250.74
620.43	47288.18
620.58	47657.99
620.73	47269.46
620.89	47327.97
621.04	47484.79
621.19	46850.50
621.34	46918.38
621.49	46965.19
621.65	47107.96
621.80	47346.70
621.95	47222.65
622.10	47269.46
622.25	47124.35
622.41	47049.45
622.56	46321.54
622.71	46932.42
622.86	46986.25
623.01	46946.47
623.16	46906.68
623.32	47019.02
623.47	46717.09
623.62	46979.23
623.77	46941.78
623.92	46445.59
624.07	46986.25
624.23	46457.29
624.38	47021.36
624.53	46848.16
624.68	46293.46
624.83	46415.16
624.98	46564.96
625.13	46230.26
625.29	46553.26
625.44	46780.29
625.59	46773.27
625.74	46733.48
625.89	46103.87
626.04	46103.87
626.19	46642.20
626.34	46185.79
626.49	46117.92
626.65	45916.63
626.80	46167.07
626.95	46256.01
627.10	46244.30
627.25	46244.30
627.40	46417.50
627.55	46419.84
627.70	46078.13
627.85	46054.72
628.00	46293.46
628.15	45881.52
628.30	45652.15
628.45	45518.74
628.60	45476.61
628.76	46094.51
628.91	45661.51
629.06	45766.84
629.21	45308.09
629.36	45567.89
629.51	45771.52
629.66	46293.46
629.81	45780.88
629.96	45904.93
630.11	45652.15
630.26	45703.64
630.41	46057.06
630.56	45488.31
630.71	46026.63
630.86	45284.68
631.01	45268.30
631.16	45563.21
631.31	45591.30
631.46	45544.48
631.61	45750.45
631.76	46017.27
631.91	45521.08
632.06	45862.80
632.21	45528.10
632.36	45659.17
632.51	44903.18
632.66	45783.22
632.81	45766.84
632.96	45401.71
633.10	45001.48
633.25	45155.96
633.40	45436.82
633.55	45588.95
633.70	45563.21
633.85	44994.46
634.00	44907.86
634.15	45177.02
634.30	44765.09
634.45	45212.13
634.60	45214.47
634.75	45160.64
634.90	44992.12
635.05	45212.13
635.19	44790.83
635.34	44879.77
635.49	44926.58
635.64	44849.35
635.79	45041.27
635.94	44844.66
636.09	44299.32
636.24	44741.68
636.39	44842.32
636.53	44797.85
636.68	44664.44
636.83	44383.58
636.98	44339.11
637.13	44353.15
637.28	44577.84
637.43	44280.60
637.57	44884.45
637.72	44559.12
637.87	44463.16
638.02	44390.60
638.17	44863.39
638.32	44175.27
638.46	44411.67
638.61	43985.69
638.76	44231.44
638.91	44589.55
639.06	43882.70
639.20	43903.77
639.35	44076.97
639.50	44189.31
639.65	43917.81
639.80	44446.77
639.94	44102.71
640.09	44039.52
640.24	44374.22
640.39	44060.58
640.54	43952.92
640.68	44233.78
640.83	44435.07
640.98	43709.50
641.13	43763.34
641.27	43922.49
641.42	43835.89
641.57	44137.82
641.72	43969.30
641.86	44100.37
642.01	43819.51
642.16	43849.94
642.31	43466.09
642.45	43868.66
642.60	43662.69
642.75	43796.10
642.90	43894.41
643.04	43550.35
643.19	43768.02
643.34	43115.01
643.48	43248.42
643.63	43487.15
643.78	43770.36
643.93	43330.34
644.07	43388.85
644.22	43498.86
644.37	43498.86
644.51	43438.00
644.66	43456.73
644.81	43154.80
644.95	43049.47
645.10	43306.93
645.25	43021.39
645.39	43150.12
645.54	43068.20
645.69	42930.11
645.83	42988.62
645.98	43138.41
646.13	42995.64
646.27	42859.89
646.42	42869.25
646.57	42932.45
646.71	42726.48
646.86	42899.68
647.00	42742.86
647.15	43168.84
647.30	42845.85
647.44	42892.66
647.59	42733.50
647.74	42965.21
647.88	42792.01
648.03	43445.02
648.17	42927.77
648.32	43115.01
648.47	42637.54
648.61	42749.88
648.76	42403.49
648.90	42897.34
649.05	42403.49
649.20	42564.98
649.34	42424.55
649.49	42698.39
649.63	42899.68
649.78	42895.00
649.92	42878.61
650.07	42988.62
650.21	43044.79
650.36	42803.72
650.51	42714.78
650.65	43124.37
650.80	43171.18
650.94	42162.41
651.09	42117.94
651.23	41720.05
651.38	41853.46
651.52	41666.22
651.67	42754.57
651.81	42572.00
651.96	42089.85
652.10	41858.14
652.25	42068.79
652.39	42134.32
652.54	41965.81
652.68	42129.64
652.83	41975.17
652.97	42284.12
653.12	42040.70
653.26	41818.35
653.41	41975.17
653.55	41846.44
653.70	42052.41
653.84	42019.64
653.99	42185.82
654.13	42007.94
654.27	41816.01
654.42	42110.92
654.56	41940.06
654.71	41968.15
654.85	41759.84
655.00	41778.56
655.14	41490.68
655.29	41736.43
655.43	41996.23
655.57	41808.99
655.72	41525.78
655.86	41579.62
656.01	41670.90
656.15	41097.47
656.30	41378.33
656.44	41701.32
656.58	41399.40
656.73	41226.20
656.87	41406.42
657.01	41254.28
657.16	41380.67
657.30	41450.89
657.45	41603.02
657.59	40968.74
657.73	40781.49
657.88	40914.90
658.02	40945.33
658.16	41406.42
658.31	40783.83
658.45	41179.39
658.60	41095.13
658.74	40893.84
658.88	41212.15
659.03	41202.79
659.17	40582.55
659.31	40432.75
659.46	40123.80
659.60	40620.00
659.74	40627.02
659.89	40208.06
660.03	40048.91
660.17	41008.53
660.32	40620.00
660.46	41015.55
660.60	39915.50
660.74	40091.04
660.89	40339.13
661.03	40149.55
661.17	40219.77
661.32	39746.98
661.46	40163.59
661.60	39660.38
661.74	39922.52
661.89	39501.22
662.03	40147.21
662.17	39470.79
662.31	39599.52
662.46	39526.97
662.60	39622.93
662.74	39075.24
662.88	39335.04
663.03	39222.70
663.17	39131.42
663.31	39484.84
663.45	39325.68
663.60	39564.42
663.74	39030.77
663.88	39232.06
664.02	38862.26
664.17	39222.70
664.31	38873.96
664.45	38841.19
664.59	39009.71
664.73	38967.58
664.88	39166.52
665.02	38799.06
665.16	38543.94
665.30	38782.68
665.44	38740.55
665.59	38305.21
665.73	38560.33
665.87	38178.82
666.01	38415.21
666.15	38445.64
666.29	38202.22
666.44	38211.59
666.58	38387.13
666.72	37907.32
666.86	37989.24
667.00	38096.90
667.14	37888.59
667.28	37940.08
667.43	37457.93
667.57	37488.36
667.71	37378.36
667.85	38117.96
667.99	37869.87
668.13	37392.40
668.27	36954.72
668.41	36992.17
668.56	36856.42
668.70	36861.10
668.84	36694.92
668.98	36613.00
669.12	36652.79
669.26	36973.44
669.40	36980.46
669.54	37024.93
669.68	36760.45
669.82	36704.28
669.96	36617.68
670.10	36498.31
670.25	36388.31
670.39	36250.22
670.53	36814.29
670.67	36636.41
670.81	36589.59
670.95	36580.23
671.09	35995.10
671.23	35718.92
671.37	36360.22
671.51	36077.02
671.65	35791.47
671.79	35779.77
671.93	35838.28
672.07	36294.69
672.21	35723.60
672.35	35496.56
672.49	35072.93
672.63	35873.39
672.77	35108.04
672.91	35491.88
673.05	34951.22
673.19	34866.96
673.33	35194.64
673.47	35047.18
673.61	35220.38
673.75	34731.21
673.89	34600.14
674.03	34403.53
674.17	34476.09
674.31	34256.08
674.45	34279.49
674.59	34417.58
674.73	34588.44
674.87	33656.90
675.01	33858.19
675.15	33855.85
675.29	33467.32
675.43	34068.84
675.56	33956.49
675.70	33867.55
675.84	33539.88
675.98	32767.50
676.12	33347.95
676.26	33654.56
676.40	33118.58
676.54	32936.02
676.68	32793.25
676.82	32847.08
676.96	33163.05
677.10	32781.54
677.23	32570.90
677.37	32783.88
677.51	32432.80
677.65	32493.66
677.79	32294.71
677.93	32423.44
678.07	32055.98
678.21	31709.58
678.34	31826.60
678.48	31943.63
678.62	31880.44
678.76	31505.95
678.90	31269.56
679.04	31559.78
679.18	31267.22
679.31	30991.03
679.45	31145.51
679.59	30789.75
679.73	31082.31
679.87	30527.61
680.00	31285.94
680.14	30785.07
680.28	30625.91
680.42	30817.83
680.56	30326.32
680.70	30218.66
680.83	30232.70
680.97	30064.18
681.11	29895.66
681.25	29888.64
681.39	29429.90
681.52	29607.78
681.66	29429.90
681.80	29289.46
681.94	28978.17
682.07	28849.44
682.21	28774.55
682.35	28952.43
682.49	28947.75
682.62	28966.47
682.76	28807.31
682.90	28786.25
683.04	28718.37
683.17	28706.67
683.31	28184.73
683.45	28060.68
683.59	28072.39
683.72	27798.54
683.86	27927.27
684.00	27967.06
684.13	27658.11
684.27	27557.47
684.41	27536.40
684.55	27185.32
684.68	27372.57
684.82	27103.40
684.96	27115.11
685.09	27309.37
685.23	26962.97
685.37	27461.51
685.50	27255.54
685.64	26817.86
685.78	26579.12
685.91	26499.55
686.05	26059.52
686.19	26040.80
686.32	26019.74
686.46	25671.00
686.60	25823.13
686.73	26022.08
686.87	25757.60
687.01	26153.15
687.14	26064.21
687.28	25792.70
687.42	25703.76
687.55	25785.68
687.69	25053.09
687.82	25259.06
687.96	25135.01
688.10	25020.33
688.23	25130.33
688.37	25111.61
688.50	25298.85
688.64	24718.40
688.78	24673.93
688.91	24704.35
689.05	24566.26
689.18	24329.87
689.32	23702.61
689.46	23845.38
689.59	23737.71
689.73	23999.85
689.86	24173.05
690.00	24105.18
690.13	23697.92
690.27	23714.31
690.41	23508.34
690.54	23241.52
690.68	23337.48
690.81	23147.90
690.95	23194.71
691.08	22663.41
691.22	22511.27
691.35	22895.12
691.49	22918.53
691.62	22710.22
691.76	22253.81
691.89	22324.03
692.03	22052.53
692.16	21734.21
692.30	22359.14
692.43	22106.36
692.57	21692.08
692.70	21879.33
692.84	21724.85
692.97	21518.89
693.11	21465.05
693.24	21523.57
693.38	21212.28
693.51	21376.11
693.65	21343.35
693.78	20875.24
693.92	20673.95
694.05	20793.32
694.19	20704.38
694.32	21003.97
694.45	20627.14
694.59	21083.55
694.72	20737.15
694.86	20622.46
694.99	20308.83
695.13	19920.30
695.26	19796.25
695.39	19920.30
695.53	19971.79
695.66	19939.02
695.80	19630.07
695.93	19625.39
696.07	19412.40
696.20	19234.52
696.33	19335.17
696.47	19091.75
696.60	19218.14
696.73	19234.52
696.87	19108.13
697.00	19075.37
697.14	18890.46
697.27	18611.94
697.40	18820.25
697.54	18878.76
697.67	18640.03
697.80	18593.22
697.94	18214.05
698.07	18216.39
698.21	18469.17
698.34	18097.02
698.47	17696.79
698.61	17696.79
698.74	17685.09
698.87	17881.69
699.01	17432.31
699.14	17685.09
699.27	17432.31
699.40	17392.52
699.54	17458.06
699.67	17460.40
699.80	17317.62
699.94	17137.40
700.07	17341.03
700.20	17043.78
700.34	16936.12
700.47	16989.95
700.60	17088.25
700.73	16793.34
700.87	16549.93
701.00	16554.61
701.13	16166.08
701.26	16287.79
701.40	16306.51
701.53	16259.70
701.66	15950.75
701.79	15953.09
701.93	15873.51
702.06	15723.72
702.19	15613.71
702.32	15770.53
702.46	15602.01
702.59	15793.94
702.72	15836.06
702.85	15810.32
702.99	15342.21
703.12	15286.04
703.25	15183.06
703.38	15199.44
703.51	15201.78
703.65	14747.72
703.78	14759.42
703.91	14724.31
704.04	14359.19
704.17	14750.06
704.31	14513.66
704.44	14443.45
704.57	14581.54
704.70	14274.93
704.83	14239.82
704.96	14113.43
705.10	14083.00
705.23	13741.29
>>>>>End Processed Spectral Data<<<<<
