SpectraSuite Data File
++++++++++++++++++++++++++++++++++++
Date: Fri Oct 25 10:43:22 EDT 2013
User: price-jones
Dark Spectrum Present: No
Reference Spectrum Present: No
Number of Sampled Component Spectra: 1
Spectrometers: USB2+H05261
Integration Time (usec): 100000 (USB2+H05261)
Spectra Averaged: 1 (USB2+H05261)
Boxcar Smoothing: 0 (USB2+H05261)
Correct for Electrical Dark: No (USB2+H05261)
Strobe/Lamp Enabled: No (USB2+H05261)
Correct for Detector Non-linearity: No (USB2+H05261)
Correct for Stray Light: No (USB2+H05261)
Number of Pixels in Processed Spectrum: 2048
>>>>>Begin Processed Spectral Data<<<<<
365.73	180.22
365.92	180.22
366.12	180.22
366.32	126.39
366.52	60.85
366.72	77.24
366.91	0.00
367.11	0.00
367.31	67.88
367.51	0.00
367.70	16.38
367.90	14.04
368.10	0.00
368.30	23.41
368.49	16.38
368.69	56.17
368.89	0.00
369.09	0.00
369.28	21.06
369.48	51.49
369.68	67.88
369.87	67.88
370.07	138.09
370.27	128.73
370.47	231.71
370.66	430.66
370.86	472.79
371.06	447.04
371.25	383.85
371.45	479.81
371.65	463.43
371.84	428.32
372.04	451.72
372.24	407.25
372.44	404.91
372.63	582.79
372.83	374.49
373.03	489.17
373.22	461.09
373.42	475.13
373.62	514.92
373.81	521.94
374.01	606.20
374.21	624.92
374.40	500.87
374.60	545.34
374.79	505.56
374.99	550.03
375.19	692.80
375.38	645.99
375.58	594.50
375.78	564.07
375.97	615.56
376.17	648.33
376.37	547.69
376.56	629.60
376.76	538.32
376.95	573.43
377.15	674.07
377.35	660.03
377.54	631.94
377.74	599.18
377.93	660.03
378.13	610.88
378.33	648.33
378.52	704.50
378.72	713.86
378.91	638.97
379.11	638.97
379.31	634.29
379.50	634.29
379.70	716.20
379.89	660.03
380.09	683.44
380.28	732.59
380.48	716.20
380.68	748.97
380.87	711.52
381.07	695.14
381.26	758.33
381.46	664.71
381.65	657.69
381.85	620.24
382.04	713.86
382.24	667.05
382.43	636.63
382.63	720.88
382.83	627.26
383.02	741.95
383.22	809.83
383.41	741.95
383.61	720.88
383.80	805.14
384.00	809.83
384.19	767.70
384.39	816.85
384.58	784.08
384.78	816.85
384.97	809.83
385.17	765.36
385.36	826.21
385.56	819.19
385.75	751.31
385.95	770.04
386.14	802.80
386.34	882.38
386.53	870.68
386.72	784.08
386.92	814.51
387.11	781.74
387.31	863.66
387.50	812.17
387.70	863.66
387.89	770.04
388.09	821.53
388.28	915.15
388.48	840.25
388.67	1022.81
388.86	980.68
389.06	940.90
389.25	1011.11
389.45	999.41
389.64	915.15
389.84	980.68
390.03	1025.15
390.22	1041.54
390.42	919.83
390.61	950.26
390.81	1060.26
391.00	1069.62
391.19	1142.18
391.39	1086.01
391.58	1029.84
391.78	992.39
391.97	1093.03
392.16	978.34
392.36	1041.54
392.55	1013.45
392.75	1062.60
392.94	992.39
393.13	976.00
393.33	961.96
393.52	1027.50
393.71	1018.13
393.91	1041.54
394.10	1093.03
394.29	1196.01
394.49	1114.10
394.68	1139.84
394.88	1294.32
395.07	1214.74
395.26	1165.59
395.46	1226.44
395.65	1249.85
395.84	1273.25
396.04	1263.89
396.23	1217.08
396.42	1128.14
396.62	1212.40
396.81	1249.85
397.00	1245.16
397.19	1221.76
397.39	1352.83
397.58	1385.60
397.77	1383.26
397.97	1394.96
398.16	1420.71
398.35	1465.18
398.55	1448.79
398.74	1451.13
398.93	1526.03
399.12	1535.39
399.32	1528.37
399.51	1490.92
399.70	1509.65
399.90	1502.62
400.09	1631.35
400.28	1568.16
400.47	1596.25
400.67	1671.14
400.86	1547.09
401.05	1640.72
401.24	1717.95
401.44	1617.31
401.63	1710.93
401.82	1720.29
402.01	1732.00
402.21	1785.83
402.40	1699.23
402.59	1710.93
402.78	1708.59
402.97	1788.17
403.17	1795.19
403.36	1715.61
403.55	1788.17
403.74	1898.17
403.93	1849.02
404.13	1722.63
404.32	1811.57
404.51	1912.22
404.70	1888.81
404.89	1856.04
405.09	1991.80
405.28	1982.43
405.47	1991.80
405.66	1900.52
405.85	1902.86
406.05	1998.82
406.24	2080.74
406.43	2136.91
406.62	2083.08
406.81	2071.37
407.00	1949.67
407.20	2043.29
407.39	1982.43
407.58	2174.36
407.77	2139.25
407.96	2232.87
408.15	2228.19
408.34	2221.17
408.54	2251.60
408.73	2249.25
408.92	2312.45
409.11	2324.15
409.30	2321.81
409.49	2246.91
409.68	2249.25
409.87	2331.17
410.07	2363.94
410.26	2387.35
410.45	2399.05
410.64	2443.52
410.83	2504.37
411.02	2497.35
411.21	2691.62
411.40	2473.95
411.59	2607.36
411.78	2595.65
411.98	2590.97
412.17	2661.19
412.36	2647.15
412.55	2637.78
412.74	2794.60
412.93	2747.79
413.12	2747.79
413.31	2951.42
413.50	2815.66
413.69	2855.45
413.88	2906.95
414.07	2876.52
414.26	2862.48
414.45	2937.37
414.64	2991.20
414.83	3005.25
415.02	3133.98
415.22	3075.46
415.41	3155.04
415.60	3199.51
415.79	3260.37
415.98	3382.07
416.17	3372.71
416.36	3314.20
416.55	3311.86
416.74	3194.83
416.93	3251.00
417.12	3229.94
417.31	3307.18
417.50	3489.74
417.69	3485.06
417.88	3396.12
418.07	3424.20
418.26	3442.93
418.45	3522.51
418.64	3648.90
418.83	3735.50
419.02	3625.49
419.21	3637.19
419.39	3691.02
419.58	3583.36
419.77	3552.93
419.96	3733.15
420.15	3634.85
420.34	3662.94
420.53	3672.30
420.72	3782.31
420.91	3751.88
421.10	3749.54
421.29	3887.63
421.48	3843.16
421.67	3932.10
421.86	3901.67
422.05	3770.60
422.24	3655.92
422.43	3932.10
422.61	3889.97
422.80	3946.14
422.99	3948.48
423.18	3908.69
423.37	3927.42
423.56	3847.84
423.75	3964.87
423.94	3908.69
424.13	3695.71
424.32	3721.45
424.50	3962.53
424.69	4030.40
424.88	3889.97
425.07	3911.04
425.26	3866.56
425.45	4004.66
425.64	3934.44
425.83	3950.82
426.01	3964.87
426.20	4126.36
426.39	4067.85
426.58	4133.39
426.77	3976.57
426.96	3990.61
427.15	3864.22
427.33	3950.82
427.52	4170.83
427.71	4255.09
427.90	4236.37
428.09	4248.07
428.28	4229.35
428.46	4117.00
428.65	4241.05
428.84	4259.78
429.03	4161.47
429.22	4112.32
429.40	4166.15
429.59	4149.77
429.78	3985.93
429.97	3992.95
430.16	4049.13
430.34	4098.28
430.53	4227.01
430.72	4074.87
430.91	4234.03
431.10	4458.72
431.28	4631.92
431.47	4606.17
431.66	4774.69
431.85	4540.64
432.03	4702.14
432.22	4711.50
432.41	4662.35
432.60	4683.41
432.79	4805.12
432.97	4718.52
433.16	4779.37
433.35	4741.93
433.54	4643.62
433.72	4706.82
433.91	4748.95
434.10	4767.67
434.28	4788.74
434.47	5011.09
434.66	4908.10
434.85	4898.74
435.03	4959.60
435.22	4828.53
435.41	5146.84
435.59	5153.86
435.78	5069.60
435.97	5074.28
436.16	4929.17
436.34	5048.54
436.53	4999.38
436.72	5259.18
436.90	5015.77
437.09	5245.14
437.28	5240.46
437.46	5172.58
437.65	5153.86
437.84	5226.42
438.02	5135.14
438.21	5324.72
438.40	5252.16
438.58	5334.08
438.77	5336.42
438.96	5455.79
439.14	5748.36
439.33	5603.24
439.52	5561.11
439.70	5640.69
439.89	5664.10
440.08	5694.52
440.26	5785.80
440.45	5811.55
440.63	5682.82
440.82	6122.84
441.01	5832.62
441.19	5933.26
441.38	6150.93
441.57	6080.71
441.75	6218.80
441.94	6282.00
442.12	6415.41
442.31	6258.59
442.50	6370.94
442.68	6326.47
442.87	6387.32
443.05	6473.92
443.24	6614.35
443.43	6438.81
443.61	6490.31
443.80	6626.06
443.98	6291.36
444.17	6289.02
444.35	6525.41
444.54	6757.13
444.73	6626.06
444.91	6719.68
445.10	6483.28
445.28	6558.18
445.47	6445.84
445.65	6471.58
445.84	6406.05
446.02	6745.42
446.21	6595.63
446.39	6532.44
446.58	6675.21
446.77	6675.21
446.95	6736.06
447.14	6715.00
447.32	6726.70
447.51	6668.19
447.69	6696.27
447.88	6764.15
448.06	6541.80
448.25	6729.04
448.43	6658.82
448.62	6785.21
448.80	6576.91
448.99	6719.68
449.17	6979.48
449.36	6736.06
449.54	7033.31
449.73	7070.76
449.91	7218.21
450.10	7056.72
450.28	7379.71
450.46	7176.08
450.65	7215.87
450.83	7178.42
451.02	7393.75
451.20	7243.96
451.39	7220.55
451.57	7213.53
451.76	7075.44
451.94	7236.94
452.13	7360.98
452.31	7187.79
452.49	7021.61
452.68	7140.97
452.86	7094.16
453.05	7197.15
453.23	7510.78
453.42	7229.91
453.60	7412.48
453.78	7391.41
453.97	7496.74
454.15	7473.33
454.34	7452.27
454.52	7620.78
454.70	7606.74
454.89	7515.46
455.07	7604.40
455.26	7583.34
455.44	7829.09
455.62	7606.74
455.81	7941.44
455.99	7667.60
456.17	7838.45
456.36	7873.56
456.54	7929.74
456.73	7957.82
456.91	7822.07
457.09	7976.55
457.28	8294.86
457.46	8102.93
457.64	8180.17
457.83	8301.88
458.01	8264.43
458.19	8248.05
458.38	8126.34
458.56	8292.52
458.74	8304.22
458.93	8231.66
459.11	8255.07
459.29	8163.79
459.48	8212.94
459.66	8468.06
459.84	8484.44
460.03	8496.14
460.21	8493.80
460.39	8524.23
460.57	8606.15
460.76	8521.89
460.94	8430.61
461.12	8692.75
461.31	8554.66
461.49	8706.79
461.67	8601.47
461.85	8751.26
462.04	8788.71
462.22	9394.91
462.40	8896.38
462.59	8992.34
462.77	8924.46
462.95	8908.08
463.13	8975.95
463.32	8968.93
463.50	9118.73
463.68	9085.96
463.86	8931.48
464.05	8884.67
464.23	9029.79
464.41	8985.32
464.59	8915.10
464.78	9210.01
464.96	9247.46
465.14	8889.35
465.32	9121.07
465.50	9174.90
465.69	9275.54
465.87	9231.07
466.05	9174.90
466.23	9210.01
466.41	9205.33
466.60	9324.69
466.78	9256.82
466.96	9310.65
467.14	9322.35
467.32	9385.55
467.51	9486.19
467.69	9167.88
467.87	9589.17
468.05	9542.36
468.23	9415.98
468.41	9448.74
468.60	9380.87
468.78	9727.27
468.96	9467.47
469.14	9760.03
469.32	9753.01
469.50	9453.42
469.69	9694.50
469.87	9774.08
470.05	9877.06
470.23	9692.16
470.41	9921.53
470.59	9841.95
470.77	9753.01
470.95	9797.48
471.14	10108.77
471.32	10094.73
471.50	10225.80
471.68	10319.42
471.86	10326.44
472.04	10490.28
472.22	10551.14
472.40	10225.80
472.58	10593.26
472.77	10176.65
472.95	10647.10
473.13	10965.41
473.31	10497.30
473.49	10614.33
473.67	10565.18
473.85	10951.37
474.03	10850.72
474.21	11098.82
474.39	11033.29
474.57	11016.90
474.75	11220.53
474.93	11206.48
475.12	11435.86
475.30	11389.05
475.48	11400.75
475.66	11218.19
475.84	11234.57
476.02	11733.11
476.20	11239.25
476.38	11770.55
476.56	11674.59
476.74	11817.36
476.92	11791.62
477.10	11950.78
477.28	12226.96
477.46	11932.05
477.64	12411.86
477.82	12236.32
478.00	12624.85
478.18	12659.96
478.36	12615.49
478.54	12776.98
478.72	12587.40
478.90	12938.48
479.08	13291.90
479.26	13233.39
479.44	13233.39
479.62	13327.01
479.80	13551.70
479.98	13378.50
480.16	13547.02
480.34	13722.56
480.52	13638.30
480.70	13891.08
480.88	13397.23
481.06	13916.83
481.24	13909.80
481.41	14200.03
481.59	14279.61
481.77	14642.39
481.95	14452.81
482.13	14764.10
482.31	14600.26
482.49	14939.64
482.67	14829.63
482.85	14831.97
483.03	15150.29
483.21	15419.45
483.39	15449.88
483.57	15143.27
483.74	15403.07
483.92	15690.95
484.10	15281.36
484.28	15978.84
484.46	16039.69
484.64	16240.98
484.82	16030.33
485.00	16123.95
485.18	16379.07
485.35	16262.04
485.53	16049.05
485.71	16044.37
485.89	16278.43
486.07	16336.94
486.25	16751.21
486.43	16699.72
486.61	17083.57
486.78	17404.22
486.96	17357.41
487.14	17434.65
487.32	17853.61
487.50	17937.87
487.68	18066.60
487.85	18228.09
488.03	18572.15
488.21	18637.69
488.39	18389.59
488.57	18663.43
488.75	18991.11
488.92	18930.25
489.10	19571.56
489.28	19381.98
489.46	19744.76
489.64	19709.65
489.81	20088.82
489.99	20156.69
490.17	19932.00
490.35	20400.11
490.53	20594.37
490.70	20692.68
490.88	20662.25
491.06	20795.66
491.24	21078.86
491.41	20755.87
491.59	20496.07
491.77	20989.92
491.95	21081.21
492.13	21429.94
492.30	21528.25
492.48	21783.37
492.66	21715.49
492.84	22038.48
493.01	22513.61
493.19	22249.13
493.37	22394.25
493.54	22235.09
493.72	22274.88
493.90	22640.00
494.08	23161.94
494.25	23159.60
494.43	23264.92
494.61	23332.80
494.79	23323.44
494.96	23403.02
495.14	23496.64
495.32	23775.16
495.49	23854.74
495.67	23885.17
495.85	24013.90
496.02	24428.17
496.20	24226.89
496.38	24336.89
496.55	24425.83
496.73	24783.93
496.91	24580.31
497.09	25008.62
497.26	25371.41
497.44	24917.34
497.62	25467.37
497.79	25191.19
497.97	25067.14
498.14	25324.60
498.32	25406.52
498.50	25785.68
498.67	26134.42
498.85	26319.32
499.03	26071.23
499.20	26536.99
499.38	26270.17
499.56	26258.47
499.73	26349.75
499.91	26281.88
500.08	26649.34
500.26	26579.12
500.44	26883.39
500.61	26766.37
500.79	26536.99
500.97	26845.94
501.14	27058.93
501.32	27285.97
501.49	27365.54
501.67	27297.67
501.84	27133.83
502.02	27623.00
502.20	27927.27
502.37	27751.73
502.55	27938.97
502.72	28194.09
502.90	28006.85
503.07	27953.02
503.25	27819.61
503.43	27885.14
503.60	28442.19
503.78	28074.73
503.95	28091.11
504.13	28563.90
504.30	28519.43
504.48	28615.39
504.65	28809.65
504.83	28982.85
505.01	29249.67
505.18	28971.15
505.36	29413.51
505.53	29256.70
505.71	29427.56
505.88	29755.23
506.06	29221.59
506.23	30125.04
506.41	29748.21
506.58	29603.10
506.76	29823.11
506.93	30181.21
507.11	29933.11
507.28	30075.88
507.46	30134.40
507.63	29621.82
507.81	30529.95
507.98	30106.31
508.16	30567.40
508.33	30424.62
508.50	30579.10
508.68	31030.82
508.85	31180.62
509.03	30841.24
509.20	31044.87
509.38	31332.75
509.55	31236.79
509.73	31590.21
509.90	31150.19
510.08	31503.61
510.25	31269.56
510.42	31470.84
510.60	31653.40
510.77	32077.04
510.95	32116.83
511.12	31992.78
511.30	31878.10
511.47	32273.65
511.64	32388.33
511.82	32348.54
511.99	32226.84
512.17	32477.27
512.34	32231.52
512.51	32676.22
512.69	32804.95
512.86	32943.04
513.04	32652.81
513.21	32945.38
513.38	33284.76
513.56	32856.44
513.73	32877.51
513.90	33064.75
514.08	32624.73
514.25	32912.61
514.43	33317.53
514.60	32994.53
514.77	33251.99
514.95	33663.93
515.12	33748.18
515.29	33666.27
515.47	33809.04
515.64	33799.68
515.81	33759.89
515.99	33883.94
516.16	34117.99
516.33	33579.67
516.51	33610.09
516.68	33436.89
516.85	33046.02
517.03	33476.68
517.20	33897.98
517.37	34169.48
517.54	34660.99
517.72	34213.95
517.89	33710.74
518.06	34139.05
518.24	34022.03
518.41	33804.36
518.58	34682.06
518.75	34555.67
518.93	34705.46
519.10	34820.15
519.27	35049.52
519.45	35068.25
519.62	35452.09
519.79	35639.34
519.96	35281.24
520.14	35105.70
520.31	34988.67
520.48	35531.67
520.65	35473.16
520.83	35988.08
521.00	35487.20
521.17	35798.49
521.34	35948.29
521.52	36395.33
521.69	35772.75
521.86	36098.08
522.03	36034.89
522.20	36156.60
522.38	36070.00
522.55	36301.71
522.72	36474.91
522.89	36350.86
523.07	36858.76
523.24	36732.37
523.41	36704.28
523.58	36804.92
523.75	37352.61
523.92	36561.51
524.10	37385.38
524.27	36914.93
524.44	37158.34
524.61	37340.91
524.78	37172.39
524.96	37565.60
525.13	37972.85
525.30	37619.43
525.47	37647.52
525.64	37551.56
525.81	37450.91
525.98	37560.92
526.16	37521.13
526.33	37111.53
526.50	37275.37
526.67	37109.19
526.84	37490.70
527.01	37120.90
527.18	37780.93
527.36	38167.12
527.53	38225.63
527.70	38253.72
527.87	38562.67
528.04	38277.12
528.21	38579.05
528.38	38457.34
528.55	38801.40
528.72	38747.57
528.89	38581.39
529.07	38623.52
529.24	38382.45
529.41	38700.76
529.58	38670.33
529.75	38740.55
529.92	39005.03
530.09	39400.58
530.26	38885.66
530.43	39105.67
530.60	38902.04
530.77	39423.98
530.94	39199.29
531.11	39140.78
531.28	39536.33
531.46	39313.98
531.63	39580.80
531.80	39648.68
531.97	39313.98
532.14	39374.83
532.31	39189.93
532.48	39332.70
532.65	39903.79
532.82	39058.86
532.99	39615.91
533.16	39606.55
533.33	39735.27
533.50	40004.44
533.67	40062.95
533.84	39697.83
534.01	39969.33
534.18	40222.11
534.35	39959.97
534.52	40095.72
534.69	40481.91
534.86	40304.02
535.03	40514.67
535.20	40793.20
535.37	40526.38
535.54	40687.87
535.71	40217.43
535.88	40315.73
536.05	40591.91
536.22	40477.22
536.38	40612.98
536.55	40793.20
536.72	40395.31
536.89	40484.25
537.06	40713.62
537.23	40900.86
537.40	41024.91
537.57	41123.21
537.74	41053.00
537.91	41411.10
538.08	41340.88
538.25	41198.11
538.42	40837.67
538.59	41202.79
538.75	40680.85
538.92	41261.30
539.09	41766.86
539.26	41432.16
539.43	41045.97
539.60	41626.43
539.77	41261.30
539.94	41626.43
540.11	41577.28
540.28	41818.35
540.44	41436.84
540.61	41223.86
540.78	41258.96
540.95	41532.81
541.12	41471.95
541.29	41420.46
541.46	41703.67
541.62	42244.33
541.79	41832.39
541.96	41425.14
542.13	41607.70
542.30	41647.49
542.47	42012.62
542.63	42012.62
542.80	42241.99
542.97	42178.79
543.14	42916.06
543.31	42667.97
543.48	42672.65
543.64	42667.97
543.81	42923.08
543.98	42674.99
544.15	42684.35
544.32	42443.27
544.48	42906.70
544.65	43002.66
544.82	42965.21
544.99	42761.59
545.16	42784.99
545.32	42738.18
545.49	43482.47
545.66	43725.89
545.83	43182.88
546.00	43140.75
546.16	42937.13
546.33	43285.87
546.50	42567.32
546.67	43810.15
546.83	42651.58
547.00	43068.20
547.17	43180.54
547.34	42859.89
547.50	42953.51
547.67	43217.99
547.84	43213.31
548.00	43742.27
548.17	43538.65
548.34	43796.10
548.51	43856.96
548.67	43938.88
548.84	43533.96
549.01	43878.02
549.18	43580.78
549.34	43438.00
549.51	43622.90
549.68	43796.10
549.84	43810.15
550.01	43594.82
550.18	43746.95
550.34	43742.27
550.51	43730.57
550.68	43842.92
550.84	43587.80
551.01	43831.21
551.18	43672.06
551.34	43997.39
551.51	43955.26
551.68	44348.47
551.84	44119.10
552.01	44158.89
552.18	43854.62
552.34	43854.62
552.51	44065.27
552.68	43739.93
552.84	44575.50
553.01	44177.61
553.18	43915.47
553.34	44519.33
553.51	44182.29
553.67	44849.35
553.84	44531.03
554.01	45059.99
554.17	44662.10
554.34	44449.11
554.51	44575.50
554.67	44875.09
554.84	44645.72
555.00	44158.89
555.17	44598.91
555.33	44877.43
555.50	44509.97
555.67	44837.64
555.83	44767.43
556.00	44404.64
556.16	44893.82
556.33	45045.95
556.50	44753.38
556.66	44985.10
556.83	44643.38
556.99	44825.94
557.16	44879.77
557.32	45085.74
557.49	44924.24
557.65	44634.02
557.82	44968.71
557.98	44814.24
558.15	44978.07
558.32	45177.02
558.48	44666.78
558.65	44811.90
558.81	44690.19
558.98	44746.36
559.14	44706.57
559.31	44947.65
559.47	45031.91
559.64	44971.05
559.80	44699.55
559.97	45057.65
560.13	44631.68
560.30	45263.62
560.46	45378.31
560.63	45331.50
560.79	45289.37
560.96	45680.24
561.12	45055.31
561.29	45038.93
561.45	45244.90
561.61	44734.66
561.78	45170.00
561.94	45373.63
562.11	45088.08
562.27	45766.84
562.44	45059.99
562.60	45380.65
562.77	45574.91
562.93	45263.62
563.10	45893.22
563.26	45036.59
563.42	45558.53
563.59	45071.70
563.75	45708.32
563.92	45401.71
564.08	45603.00
564.24	45991.53
564.41	45624.06
564.57	45834.71
564.74	45509.38
564.90	45408.73
565.07	45523.42
565.23	45595.98
565.39	45853.44
565.56	45371.28
565.72	45057.65
565.88	45551.51
566.05	45331.50
566.21	45050.63
566.38	45624.06
566.54	45663.85
566.70	45956.42
566.87	45947.06
567.03	45851.09
567.19	46225.58
567.36	45993.87
567.52	46080.47
567.68	45820.67
567.85	45408.73
568.01	45598.32
568.17	45673.21
568.34	45813.65
568.50	45928.33
568.66	45502.35
568.83	45642.79
568.99	45436.82
569.15	45619.38
569.32	45544.48
569.48	45404.05
569.64	45516.40
569.81	45811.31
569.97	45600.66
570.13	45736.41
570.30	45287.03
570.46	45406.39
570.62	45591.30
570.78	45343.20
570.95	44971.05
571.11	45551.51
571.27	45504.70
571.43	45448.52
571.60	46036.00
571.76	45860.46
571.92	45432.14
572.09	45720.02
572.25	45780.88
572.41	46052.38
572.57	46012.59
572.74	45989.19
572.90	45612.36
573.06	45942.38
573.22	45954.08
573.38	45701.30
573.55	45682.58
573.71	46347.29
573.87	46197.49
574.03	45769.18
574.20	45808.96
574.36	45895.56
574.52	45888.54
574.68	45907.27
574.84	46071.10
575.01	46080.47
575.17	46106.21
575.33	45759.81
575.49	45769.18
575.65	46146.00
575.82	45935.35
575.98	45787.90
576.14	46106.21
576.30	45626.40
576.46	45605.34
576.62	45567.89
576.79	45507.04
576.95	45404.05
577.11	46010.25
577.27	45776.20
577.43	45808.96
577.59	45418.10
577.75	45422.78
577.92	45464.91
578.08	45593.64
578.24	45457.88
578.40	45794.92
578.56	46267.71
578.72	46064.08
578.88	45935.35
579.04	45954.08
579.21	45518.74
579.37	45607.68
579.53	45500.01
579.69	45907.27
579.85	46167.07
580.01	46281.75
580.17	45860.46
580.33	45970.46
580.49	46192.81
580.65	46050.04
580.82	45794.92
580.98	45647.47
581.14	45455.54
581.30	46005.57
581.46	46045.36
581.62	46043.02
581.78	45818.33
581.94	46326.22
582.10	46267.71
582.26	46108.55
582.42	45801.94
582.58	46361.33
582.74	45991.53
582.90	46059.40
583.06	46113.23
583.22	46017.27
583.38	46471.34
583.54	46059.40
583.70	46309.84
583.86	46213.88
584.02	45963.44
584.18	45858.12
584.34	45921.31
584.50	45930.67
584.66	45986.85
584.82	46092.17
584.98	46131.96
585.14	45911.95
585.30	45610.02
585.46	45883.86
585.62	45766.84
585.78	45968.12
585.94	45670.87
586.10	45832.37
586.26	45865.14
586.42	45755.13
586.58	46033.66
586.74	45996.21
586.90	46160.05
587.06	45605.34
587.22	45996.21
587.38	45993.87
587.54	46270.05
587.70	46607.09
587.86	46218.56
588.02	45794.92
588.18	46155.36
588.34	45855.78
588.49	45645.13
588.65	45170.00
588.81	45202.77
588.97	45998.55
589.13	45310.43
589.29	45729.39
589.45	45563.21
589.61	45954.08
589.77	46094.51
589.93	46387.08
590.08	46160.05
590.24	46010.25
590.40	46131.96
590.56	46316.86
590.72	46021.95
590.88	45783.22
591.04	46017.27
591.20	46307.50
591.35	46586.02
591.51	46918.38
591.67	46087.49
591.83	45963.44
591.99	45574.91
592.15	45916.63
592.31	46464.32
592.46	46319.20
592.62	46153.02
592.78	46279.41
592.94	46251.33
593.10	45947.06
593.26	46178.77
593.41	46368.35
593.57	45921.31
593.73	45724.71
593.89	45998.55
594.05	46312.18
594.20	46651.56
594.36	46110.89
594.52	46204.52
594.68	45979.82
594.84	46340.27
594.99	46054.72
595.15	46241.96
595.31	46600.07
595.47	46064.08
595.62	46209.20
595.78	46342.61
595.94	46248.99
596.10	46658.58
596.25	46248.99
596.41	46370.69
596.57	46183.45
596.73	46225.58
596.88	46431.55
597.04	46253.67
597.20	46534.53
597.36	46155.36
597.51	46239.62
597.67	46057.06
597.83	46309.84
597.99	46473.68
598.14	46321.54
598.30	46375.37
598.46	45958.76
598.61	46600.07
598.77	46153.02
598.93	45703.64
599.09	46146.00
599.24	46721.77
599.40	46270.05
599.56	46356.65
599.71	46164.73
599.87	46265.37
600.03	46092.17
600.18	45862.80
600.34	46181.11
600.50	46124.94
600.65	46225.58
600.81	46590.70
600.97	46174.09
601.12	46426.87
601.28	45965.78
601.44	46155.36
601.59	46036.00
601.75	46040.68
601.91	45970.46
602.06	45895.56
602.22	46277.07
602.37	46483.04
602.53	45968.12
602.69	45933.01
602.84	46373.03
603.00	45759.81
603.16	46019.61
603.31	46227.92
603.47	46040.68
603.62	46082.81
603.78	45900.25
603.94	46454.95
604.09	46494.74
604.25	46328.56
604.40	46492.40
604.56	45928.33
604.71	45968.12
604.87	45851.09
605.03	46164.73
605.18	46059.40
605.34	45853.44
605.49	46234.94
605.65	46192.81
605.80	45715.34
605.96	46080.47
606.12	45982.16
606.27	46110.89
606.43	45553.85
606.58	45982.16
606.74	46246.65
606.89	46019.61
607.05	45970.46
607.20	46036.00
607.36	45930.67
607.51	46351.97
607.67	46211.54
607.82	45677.90
607.98	45287.03
608.13	45560.87
608.29	46101.53
608.44	45640.45
608.60	45282.34
608.75	45958.76
608.91	45624.06
609.06	45556.19
609.22	46260.69
609.37	45605.34
609.53	45879.18
609.68	45638.11
609.84	45914.29
609.99	45467.25
610.15	45865.14
610.30	45595.98
610.46	45251.92
610.61	45661.51
610.76	45684.92
610.92	45869.82
611.07	45415.76
611.23	45844.07
611.38	45455.54
611.54	45549.17
611.69	45380.65
611.84	45324.47
612.00	44849.35
612.15	45181.70
612.31	45230.85
612.46	45558.53
612.62	45067.02
612.77	45329.16
612.92	45258.94
613.08	45361.92
613.23	45226.17
613.39	44388.26
613.54	44811.90
613.69	45076.38
613.85	44411.67
614.00	45378.31
614.15	44605.93
614.31	44751.04
614.46	44975.73
614.62	44910.20
614.77	44720.62
614.92	45003.82
615.08	44690.19
615.23	44491.24
615.38	44786.15
615.54	44545.08
615.69	45170.00
615.84	44729.98
616.00	44847.00
616.15	44521.67
616.30	45373.63
616.46	44739.34
616.61	44444.43
616.76	44257.19
616.92	44502.95
617.07	44165.91
617.22	44278.25
617.37	44594.23
617.53	44959.35
617.68	44762.75
617.83	44729.98
617.99	44533.37
618.14	44224.42
618.29	44699.55
618.45	44048.88
618.60	43885.04
618.75	44130.80
618.90	43831.21
619.06	44563.80
619.21	44179.95
619.36	44701.89
619.51	44339.11
619.67	43992.71
619.82	43861.64
619.97	44414.01
620.12	43337.36
620.28	43725.89
620.43	43751.63
620.58	44369.54
620.73	43639.29
620.89	44189.31
621.04	44112.08
621.19	44236.12
621.34	44023.14
621.49	44006.75
621.65	43821.85
621.80	44182.29
621.95	43442.68
622.10	44013.77
622.25	43833.55
622.41	43615.88
622.56	43480.13
622.71	43433.32
622.86	43622.90
623.01	43592.48
623.16	43615.88
623.32	43700.14
623.47	43466.09
623.62	43604.18
623.77	43459.07
623.92	43871.00
624.07	42899.68
624.23	43316.29
624.38	43269.48
624.53	43250.76
624.68	43438.00
624.83	43241.40
624.98	43117.35
625.13	42834.14
625.29	42726.48
625.44	43203.95
625.59	43182.88
625.74	43096.28
625.89	43213.31
626.04	42536.90
626.19	43089.26
626.34	43349.06
626.49	42660.94
626.65	42815.42
626.80	42663.28
626.95	42782.65
627.10	43140.75
627.25	42628.18
627.40	42742.86
627.55	42160.07
627.70	42684.35
627.85	42202.20
628.00	42506.47
628.15	42415.19
628.30	42686.69
628.45	42773.29
628.60	42450.30
628.76	42103.90
628.91	42394.12
629.06	42115.60
629.21	42763.93
629.36	42120.28
629.51	42625.84
629.66	42328.59
629.81	41989.21
629.96	42089.85
630.11	42122.62
630.26	42546.26
630.41	42492.43
630.56	42564.98
630.71	41998.57
630.86	42337.95
631.01	41958.78
631.16	41820.69
631.31	41263.64
631.46	41991.55
631.61	41368.97
631.76	42298.16
631.91	42029.00
632.06	42373.06
632.21	41928.36
632.36	42204.54
632.51	41429.82
632.66	42012.62
632.81	41827.71
632.96	41867.50
633.10	41640.47
633.25	41890.91
633.40	41504.72
633.55	41598.34
633.70	41970.49
633.85	41053.00
634.00	41682.60
634.15	41319.82
634.30	41324.50
634.45	41605.36
634.60	41036.61
634.75	41221.52
634.90	40914.90
635.05	41560.89
635.19	41249.60
635.34	41401.74
635.49	41373.65
635.64	41064.70
635.79	41167.68
635.94	41127.89
636.09	40856.39
636.24	41233.22
636.39	40648.08
636.53	41099.81
636.68	40605.95
636.83	40842.35
636.98	41017.89
637.13	41191.09
637.28	41090.44
637.43	40900.86
637.57	41195.77
637.72	41172.36
637.87	41008.53
638.02	40596.59
638.17	40683.19
638.32	40662.13
638.46	41207.47
638.61	40603.61
638.76	40832.99
638.91	40636.38
639.06	40879.80
639.20	41020.23
639.35	40914.90
639.50	40694.89
639.65	40655.11
639.80	41001.50
639.94	40802.56
640.09	40617.66
640.24	40343.81
640.39	40222.11
640.54	40074.65
640.68	39969.33
640.83	40194.02
640.98	40130.83
641.13	40336.79
641.27	40273.60
641.42	40067.63
641.57	40428.07
641.72	40388.28
641.86	39936.56
642.01	40231.47
642.16	40250.19
642.31	39494.20
642.45	39704.85
642.60	39641.65
642.75	39817.19
642.90	40086.36
643.04	39835.92
643.19	39309.30
643.34	40051.25
643.48	39878.05
643.63	40095.72
643.78	39686.12
643.93	39807.83
644.07	39674.42
644.22	39423.98
644.37	39725.91
644.51	39775.06
644.66	39681.44
644.81	39679.10
644.95	39732.93
645.10	39433.35
645.25	39246.10
645.39	39557.39
645.54	39423.98
645.69	39302.28
645.83	39349.09
645.98	39222.70
646.13	39421.64
646.27	39339.72
646.42	39297.59
646.57	39313.98
646.71	39409.94
646.86	39161.84
647.00	39061.20
647.15	38951.20
647.30	38916.09
647.44	39187.59
647.59	38787.36
647.74	38733.53
647.88	38799.06
648.03	38770.97
648.17	38953.54
648.32	38721.82
648.47	38803.74
648.61	39014.39
648.76	39009.71
648.90	38972.26
649.05	38780.34
649.20	38981.62
649.34	38869.28
649.49	38312.23
649.63	38735.87
649.78	38520.54
649.92	38234.99
650.07	38974.60
650.21	38656.29
650.36	38700.76
650.51	38913.75
650.65	38969.92
650.80	39164.18
650.94	38447.98
651.09	38525.22
651.23	38265.42
651.38	38045.41
651.52	38089.88
651.67	38050.09
651.81	38359.04
651.96	38237.33
652.10	38115.62
652.25	38462.02
652.39	38586.07
652.54	38419.89
652.68	38251.38
652.83	38513.52
652.97	38534.58
653.12	38132.01
653.26	37322.18
653.41	38335.63
653.55	38127.33
653.70	38064.13
653.84	37874.55
653.99	37923.70
654.13	37942.42
654.27	38038.39
654.42	37734.12
654.56	37951.79
654.71	37684.97
654.85	37907.32
655.00	37897.95
655.14	37518.79
655.29	37558.58
655.43	37336.23
655.57	37184.09
655.72	37249.63
655.86	36985.15
656.01	36912.59
656.15	36968.76
656.30	37015.57
656.44	37106.85
656.58	37497.72
656.73	37628.79
656.87	37319.84
657.01	37167.71
657.16	37148.98
657.30	36833.01
657.45	36856.42
657.59	36957.06
657.73	37071.75
657.88	37095.15
658.02	37581.98
658.16	36751.09
658.31	37387.72
658.45	37010.89
658.60	37244.94
658.74	37425.17
658.88	36903.23
659.03	36879.82
659.17	36460.87
659.31	36510.02
659.46	36540.44
659.60	36837.69
659.74	36364.90
659.89	36189.36
660.03	36362.56
660.17	36582.57
660.32	36582.57
660.46	36701.94
660.60	36308.73
660.74	36493.63
660.89	36620.02
661.03	36519.38
661.17	36212.77
661.32	36098.08
661.46	36088.72
661.60	36018.50
661.74	35775.09
661.89	36032.55
662.03	36011.48
662.17	36243.20
662.31	35845.30
662.46	36519.38
662.60	36067.66
662.74	35728.28
662.88	35508.27
663.03	35445.07
663.17	35835.94
663.31	35309.32
663.45	35653.38
663.60	35260.17
663.74	35175.91
663.88	35157.19
664.02	35349.11
664.17	35393.58
664.31	35124.42
664.45	35152.51
664.59	34883.34
664.73	34995.69
664.88	34850.58
665.02	34595.46
665.16	34555.67
665.30	34878.66
665.44	34632.91
665.59	34831.85
665.73	34721.85
665.87	34286.51
666.01	34888.03
666.15	34539.29
666.29	34546.31
666.44	34815.47
666.58	34529.92
666.72	34660.99
666.86	34548.65
667.00	34726.53
667.14	34045.43
667.28	33926.07
667.43	34157.78
667.57	34162.46
667.71	33729.46
667.85	33895.64
667.99	34125.01
668.13	34277.15
668.27	34000.96
668.41	33640.52
668.56	33670.95
668.70	33268.37
668.84	33181.77
668.98	33462.64
669.12	33827.76
669.26	33528.17
669.40	32886.87
669.54	33221.56
669.68	33006.23
669.82	32531.11
669.96	32788.56
670.10	32767.50
670.25	32989.85
670.39	32664.52
670.53	32964.10
670.67	32936.02
670.81	32978.15
670.95	32821.33
671.09	32851.76
671.23	32311.10
671.37	32329.82
671.51	32240.88
671.65	32254.92
671.79	32285.35
671.93	32137.90
672.07	31974.06
672.21	31971.72
672.35	31974.06
672.49	31840.65
672.63	31894.48
672.77	31824.26
672.91	31505.95
673.05	31545.74
673.19	32063.00
673.33	31543.40
673.47	31477.86
673.61	31503.61
673.75	31103.38
673.89	31215.72
674.03	31463.82
674.17	30972.31
674.31	31012.10
674.45	31269.56
674.59	31555.10
674.73	31197.00
674.87	31005.08
675.01	30764.00
675.15	30782.73
675.29	30738.26
675.43	30803.79
675.56	30539.31
675.70	31065.93
675.84	30616.55
675.98	29432.24
676.12	29996.31
676.26	30654.00
676.40	30139.08
676.54	30422.28
676.68	29954.18
676.82	29685.01
676.96	30019.71
677.10	29687.36
677.23	29659.27
677.37	29771.61
677.51	29666.29
677.65	29294.14
677.79	28811.99
677.93	29144.35
678.07	28631.77
678.21	28299.42
678.34	28603.69
678.48	28673.90
678.62	28465.60
678.76	28137.92
678.90	28077.07
679.04	27931.95
679.18	28636.45
679.31	27744.71
679.45	27953.02
679.59	27723.65
679.73	27995.15
679.87	27566.83
680.00	27950.68
680.14	27637.05
680.28	27810.25
680.42	27360.86
680.56	27304.69
680.70	27552.79
680.83	27192.34
680.97	26937.23
681.11	26934.88
681.25	26857.65
681.39	27080.00
681.52	27145.53
681.66	27072.98
681.80	26761.69
681.94	26497.20
682.07	26497.20
682.21	26349.75
682.35	26518.27
682.49	26174.21
682.62	26408.26
682.76	25984.63
682.90	26183.57
683.04	26059.52
683.17	25792.70
683.31	25656.95
683.45	25666.31
683.59	25802.07
683.72	25350.34
683.86	25940.16
684.00	25532.90
684.13	24994.58
684.27	25450.99
684.41	24985.22
684.55	25067.14
684.68	24856.49
684.82	24676.27
684.96	24666.91
685.09	24917.34
685.23	24348.59
685.37	24786.27
685.50	24844.79
685.64	24367.32
685.78	24257.31
685.91	24058.37
686.05	24074.75
686.19	23669.84
686.32	23597.28
686.46	23419.40
686.60	22850.65
686.73	22785.12
686.87	23180.67
687.01	23201.73
687.14	22909.16
687.28	22843.63
687.42	22537.02
687.55	22490.21
687.69	23028.53
687.82	22668.09
687.96	22979.38
688.10	22558.08
688.23	22703.20
688.37	22623.62
688.50	22640.00
688.64	22508.93
688.78	22424.67
688.91	21785.71
689.05	22087.64
689.18	21844.22
689.32	21586.76
689.46	21781.03
689.59	22064.23
689.73	21930.82
689.86	21750.60
690.00	21778.68
690.13	21598.46
690.27	21415.90
690.41	21231.00
690.54	21135.04
690.68	20961.84
690.81	20992.26
690.95	21137.38
691.08	21280.15
691.22	21078.86
691.35	20884.60
691.49	21032.05
691.62	20872.90
691.76	20524.16
691.89	20442.24
692.03	20549.90
692.16	20142.65
692.30	20673.95
692.43	20346.28
692.57	20240.95
692.70	19735.40
692.84	19456.87
692.97	19889.87
693.11	19817.32
693.24	19590.28
693.38	19676.88
693.51	19496.66
693.65	19400.70
693.78	19365.59
693.92	19557.52
694.05	19391.34
694.19	19358.57
694.32	19440.49
694.45	19094.09
694.59	19002.81
694.72	18972.38
694.86	18361.50
694.99	18740.67
695.13	18658.75
695.26	18459.81
695.39	18466.83
695.53	18672.79
695.66	18314.69
695.80	18520.66
695.93	18326.39
696.07	18235.11
696.20	18111.07
696.33	18047.87
696.47	17830.20
696.60	17930.84
696.73	17783.39
696.87	17621.89
697.00	17678.07
697.14	17387.84
697.27	17116.34
697.40	17149.11
697.54	17280.18
697.67	17205.28
697.80	17282.52
697.94	17268.47
698.07	16720.79
698.21	17128.04
698.34	17076.55
698.47	16947.82
698.61	16568.65
698.74	16744.19
698.87	16627.17
699.01	16383.75
699.14	16367.37
699.27	16205.87
699.40	16453.97
699.54	15901.60
699.67	16304.17
699.80	15892.24
699.94	15913.30
700.07	15988.20
700.20	16332.26
700.34	16107.57
700.47	15829.04
700.60	15772.87
700.73	15824.36
700.87	15861.81
701.00	15557.54
701.13	15606.69
701.26	15232.21
701.40	15136.24
701.53	15286.04
701.66	15030.92
701.79	15105.82
701.93	15091.77
702.06	15089.43
702.19	14801.55
702.32	15040.28
702.46	14820.27
702.59	14682.18
702.72	14794.53
702.85	14684.52
702.99	14698.56
703.12	14195.35
703.25	14445.79
703.38	14656.43
703.51	14403.66
703.65	14064.28
703.78	14197.69
703.91	14005.77
704.04	13937.89
704.17	13877.04
704.31	13867.67
704.44	13806.82
704.57	13633.62
704.70	13420.63
704.83	13837.25
704.96	13642.98
705.10	13727.24
705.23	13334.03
>>>>>End Processed Spectral Data<<<<<
