SpectraSuite Data File
++++++++++++++++++++++++++++++++++++
Date: Fri Oct 25 11:34:43 EDT 2013
User: price-jones
Dark Spectrum Present: No
Reference Spectrum Present: No
Number of Sampled Component Spectra: 1
Spectrometers: USB2+H05261
Integration Time (usec): 100000 (USB2+H05261)
Spectra Averaged: 1 (USB2+H05261)
Boxcar Smoothing: 0 (USB2+H05261)
Correct for Electrical Dark: No (USB2+H05261)
Strobe/Lamp Enabled: No (USB2+H05261)
Correct for Detector Non-linearity: No (USB2+H05261)
Correct for Stray Light: No (USB2+H05261)
Number of Pixels in Processed Spectrum: 2048
>>>>>Begin Processed Spectral Data<<<<<
365.73	245.76
365.92	245.76
366.12	245.76
366.32	224.69
366.52	135.75
366.72	238.73
366.91	163.84
367.11	159.16
367.31	133.41
367.51	177.88
367.70	177.88
367.90	224.69
368.10	210.65
368.30	245.76
368.49	161.50
368.69	168.52
368.89	217.67
369.09	215.33
369.28	191.92
369.48	135.75
369.68	212.99
369.87	255.12
370.07	215.33
370.27	320.65
370.47	339.38
370.66	554.71
370.86	425.98
371.06	547.69
371.25	533.64
371.45	503.22
371.65	667.05
371.84	531.30
372.04	535.98
372.24	510.24
372.44	566.41
372.63	585.13
372.83	575.77
373.03	564.07
373.22	547.69
373.42	622.58
373.62	683.44
373.81	650.67
374.01	624.92
374.21	676.41
374.40	624.92
374.60	613.22
374.79	571.09
374.99	664.71
375.19	627.26
375.38	678.76
375.58	685.78
375.78	650.67
375.97	704.50
376.17	678.76
376.37	664.71
376.56	732.59
376.76	622.58
376.95	606.20
377.15	727.91
377.35	631.94
377.54	657.69
377.74	720.88
377.93	660.03
378.13	643.65
378.33	699.82
378.52	627.26
378.72	786.42
378.91	774.72
379.11	730.25
379.31	760.67
379.50	662.37
379.70	711.52
379.89	763.01
380.09	744.29
380.28	674.07
380.48	596.84
380.68	744.29
380.87	676.41
381.07	727.91
381.26	716.20
381.46	709.18
381.65	676.41
381.85	734.93
382.04	777.06
382.24	744.29
382.43	774.72
382.63	772.38
382.83	767.70
383.02	772.38
383.22	821.53
383.41	748.97
383.61	816.85
383.80	763.01
384.00	830.89
384.19	823.87
384.39	727.91
384.58	765.36
384.78	791.10
384.97	807.48
385.17	777.06
385.36	844.93
385.56	807.48
385.75	833.23
385.95	840.25
386.14	812.17
386.34	837.91
386.53	875.36
386.72	870.68
386.92	877.70
387.11	854.30
387.31	905.79
387.50	781.74
387.70	889.40
387.89	833.23
388.09	929.19
388.28	866.00
388.48	877.70
388.67	884.72
388.86	887.06
389.06	891.74
389.25	901.11
389.45	1018.13
389.64	954.94
389.84	966.64
390.03	891.74
390.22	901.11
390.42	954.94
390.61	999.41
390.81	926.85
391.00	1008.77
391.19	964.30
391.39	903.45
391.58	983.02
391.78	997.07
391.97	990.05
392.16	1064.94
392.36	1121.12
392.55	964.30
392.75	1048.56
392.94	1029.84
393.13	997.07
393.33	985.37
393.52	1090.69
393.71	1137.50
393.91	952.60
394.10	1008.77
394.29	1067.28
394.49	1048.56
394.68	1163.25
394.88	1060.26
395.07	1086.01
395.26	1181.97
395.46	1090.69
395.65	1188.99
395.84	1165.59
396.04	1186.65
396.23	1086.01
396.42	1167.93
396.62	1275.59
396.81	1163.25
397.00	1156.22
397.19	1184.31
397.39	1107.07
397.58	1149.20
397.77	1088.35
397.97	1270.91
398.16	1165.59
398.35	1245.16
398.55	1203.04
398.74	1224.10
398.93	1287.29
399.12	1259.21
399.32	1301.34
399.51	1224.10
399.70	1280.27
399.90	1158.57
400.09	1352.83
400.28	1277.93
400.47	1329.42
400.67	1263.89
400.86	1376.24
401.05	1331.76
401.24	1334.11
401.44	1399.64
401.63	1451.13
401.82	1432.41
402.01	1465.18
402.21	1521.35
402.40	1418.36
402.59	1420.71
402.78	1373.89
402.97	1376.24
403.17	1439.43
403.36	1549.43
403.55	1458.15
403.74	1526.03
403.93	1446.45
404.13	1434.75
404.32	1490.92
404.51	1556.46
404.70	1610.29
404.89	1586.88
405.09	1638.38
405.28	1558.80
405.47	1614.97
405.66	1650.08
405.85	1701.57
406.05	1631.35
406.24	1682.85
406.43	1706.25
406.62	1717.95
406.81	1781.15
407.00	1781.15
407.20	1692.21
407.39	1746.04
407.58	1834.98
407.77	1827.96
407.96	1774.13
408.15	1893.49
408.34	1776.47
408.54	1746.04
408.73	1849.02
408.92	1870.09
409.11	1811.57
409.30	1954.35
409.49	1844.34
409.68	1914.56
409.87	1881.79
410.07	1959.03
410.26	1966.05
410.45	1984.77
410.64	1942.64
410.83	2052.65
411.02	1973.07
411.21	1961.37
411.40	2106.48
411.59	2043.29
411.78	2106.48
411.98	2097.12
412.17	2111.16
412.36	2202.44
412.55	2221.17
412.74	2115.84
412.93	2181.38
413.12	2122.87
413.31	2354.58
413.50	2284.36
413.69	2293.72
413.88	2450.54
414.07	2307.77
414.26	2275.00
414.45	2380.32
414.64	2403.73
414.83	2401.39
415.02	2518.42
415.22	2487.99
415.41	2523.10
415.60	2464.58
415.79	2612.04
415.98	2642.46
416.17	2537.14
416.36	2633.10
416.55	2745.45
416.74	2658.85
416.93	2722.04
417.12	2752.47
417.31	2808.64
417.50	2663.53
417.69	2813.32
417.88	2848.43
418.07	2841.41
418.26	2740.77
418.45	2801.62
418.64	2892.90
418.83	2970.14
419.02	2808.64
419.21	2935.03
419.39	2963.12
419.58	2979.50
419.77	3045.04
419.96	2981.84
420.15	2995.89
420.34	3087.17
420.53	3068.44
420.72	3023.97
420.91	2909.29
421.10	3112.91
421.29	3152.70
421.48	3056.74
421.67	3103.55
421.86	3194.83
422.05	3162.06
422.24	3054.40
422.43	3220.58
422.61	3169.09
422.80	3215.90
422.99	3215.90
423.18	3265.05
423.37	3251.00
423.56	3279.09
423.75	3344.63
423.94	3073.12
424.13	3009.93
424.32	3126.96
424.50	3234.62
424.69	3447.61
424.88	3213.56
425.07	3379.73
425.26	3173.77
425.45	3232.28
425.64	3192.49
425.83	3183.13
426.01	3349.31
426.20	3442.93
426.39	3349.31
426.58	3243.98
426.77	3164.40
426.96	3361.01
427.15	3339.94
427.33	3428.88
427.52	3398.46
427.71	3461.65
427.90	3576.34
428.09	3503.78
428.28	3522.51
428.46	3583.36
428.65	3578.68
428.84	3576.34
429.03	3557.61
429.22	3529.53
429.40	3552.93
429.59	3691.02
429.78	3426.54
429.97	3494.42
430.16	3550.59
430.34	3571.66
430.53	3616.13
430.72	3737.84
430.91	3693.37
431.10	3684.00
431.28	3770.60
431.47	3733.15
431.66	3801.03
431.85	3728.47
432.03	3791.67
432.22	3885.29
432.41	3894.65
432.60	3880.61
432.79	3901.67
432.97	3885.29
433.16	3889.97
433.35	3770.60
433.54	3978.91
433.72	3913.38
433.91	3978.91
434.10	4002.32
434.28	3999.98
434.47	4037.42
434.66	4058.49
434.85	4077.21
435.03	4095.94
435.22	4056.15
435.41	4166.15
435.59	4161.47
435.78	4180.20
435.97	4348.72
436.16	4255.09
436.34	4210.62
436.53	4252.75
436.72	4280.84
436.90	4227.01
437.09	4184.88
437.28	4290.20
437.46	4353.40
437.65	4388.50
437.84	4575.75
438.02	4306.59
438.21	4355.74
438.40	4360.42
438.58	4535.96
438.77	4620.22
438.96	4533.62
439.14	4601.49
439.33	4564.04
439.52	4690.43
439.70	4786.40
439.89	4730.22
440.08	4667.03
440.26	4704.48
440.45	4744.27
440.63	4823.84
440.82	4947.89
441.01	4779.37
441.19	4905.76
441.38	4999.38
441.57	4873.00
441.75	5121.09
441.94	5329.40
442.12	5128.11
442.31	5233.44
442.50	5296.63
442.68	5093.01
442.87	5137.48
443.05	5172.58
443.24	5170.24
443.43	5289.61
443.61	5277.91
443.80	5486.22
443.98	5146.84
444.17	5078.96
444.35	5280.25
444.54	5343.44
444.73	5357.49
444.91	5116.41
445.10	5411.32
445.28	5423.02
445.47	5336.42
445.65	5504.94
445.84	5315.36
446.02	5387.91
446.21	5336.42
446.39	5366.85
446.58	5465.15
446.77	5453.45
446.95	5416.00
447.14	5465.15
447.32	5359.83
447.51	5390.25
447.69	5439.40
447.88	5500.26
448.06	5427.70
448.25	5537.71
448.43	5607.92
448.62	5540.05
448.80	5434.72
448.99	5654.73
449.17	5593.88
449.36	5533.03
449.54	5533.03
449.73	5509.62
449.91	5827.93
450.10	5774.10
450.28	5804.53
450.46	5865.38
450.65	5731.97
450.83	5748.36
451.02	5834.96
451.20	5874.74
451.39	5933.26
451.57	5823.25
451.76	5849.00
451.94	6012.84
452.13	5919.21
452.31	5937.94
452.49	5825.59
452.68	5858.36
452.86	5980.07
453.05	5956.66
453.23	6012.84
453.42	6092.41
453.60	5987.09
453.78	6064.33
453.97	5991.77
454.15	6050.28
454.34	6066.67
454.52	6197.74
454.70	6359.24
454.89	6270.30
455.07	6181.35
455.26	6181.35
455.44	6356.90
455.62	6420.09
455.81	6406.05
455.99	6396.68
456.17	6420.09
456.36	6384.98
456.54	6527.75
456.73	6504.35
456.91	6803.94
457.09	6642.44
457.28	6715.00
457.46	6569.88
457.64	6752.45
457.83	6516.05
458.01	6562.86
458.19	6736.06
458.38	6754.79
458.56	6906.92
458.74	6918.62
458.93	6729.04
459.11	6705.63
459.29	6672.87
459.48	6817.98
459.66	6885.86
459.84	7049.69
460.03	7030.97
460.21	7159.70
460.39	6897.56
460.57	7115.23
460.76	7145.66
460.94	7276.73
461.12	7190.13
461.31	7194.81
461.49	7049.69
461.67	7115.23
461.85	7286.09
462.04	7227.57
462.22	7396.09
462.40	7290.77
462.59	7344.60
462.77	7243.96
462.95	7550.57
463.13	7358.64
463.32	7356.30
463.50	7400.77
463.68	7356.30
463.86	7590.36
464.05	7424.18
464.23	7356.30
464.41	7461.63
464.59	7503.76
464.78	7681.64
464.96	7513.12
465.14	7578.65
465.32	7751.85
465.50	7672.28
465.69	7740.15
465.87	7772.92
466.05	7508.44
466.23	7728.45
466.41	7796.32
466.60	7927.39
466.78	7667.60
466.96	7761.22
467.14	7808.03
467.32	7726.11
467.51	8112.30
467.69	7742.49
467.87	8002.29
468.05	7948.46
468.23	7901.65
468.41	7889.95
468.60	8009.31
468.78	8124.00
468.96	7962.50
469.14	8037.40
469.32	8243.37
469.50	8105.28
469.69	8191.88
469.87	8259.75
470.05	8187.19
470.23	8280.82
470.41	8245.71
470.59	8456.36
470.77	8215.28
470.95	8336.99
471.14	8636.58
471.32	8325.29
471.50	8681.05
471.68	8528.91
471.86	8514.87
472.04	8599.13
472.22	8739.56
472.40	8748.92
472.58	8606.15
472.77	9055.53
472.95	8966.59
473.13	9100.00
473.31	8830.84
473.49	8879.99
473.67	8940.85
473.85	9057.87
474.03	9172.56
474.21	9312.99
474.39	9078.94
474.57	9277.88
474.75	9308.31
474.93	9533.00
475.12	9249.80
475.30	9584.49
475.48	9289.59
475.66	9390.23
475.84	9467.47
476.02	9628.96
476.20	9788.12
476.38	9905.15
476.56	9919.19
476.74	9820.89
476.92	10031.54
477.10	9998.77
477.28	10129.84
477.46	10284.31
477.64	10377.94
477.82	10382.62
478.00	10457.51
478.18	10406.02
478.36	10574.54
478.54	10717.31
478.72	10775.83
478.90	10682.20
479.08	10824.98
479.26	10902.22
479.44	11028.60
479.62	11185.42
479.80	11267.34
479.98	11332.87
480.16	11613.74
480.34	11342.24
480.52	11382.03
480.70	11875.88
480.88	11477.99
481.06	11602.04
481.24	11875.88
481.41	11859.49
481.59	11880.56
481.77	12201.21
481.95	12187.17
482.13	12264.41
482.31	12114.61
482.49	12683.36
482.67	12320.58
482.85	12760.60
483.03	12933.80
483.21	12835.50
483.39	13034.44
483.57	13165.51
483.74	13018.06
483.92	13111.68
484.10	12938.48
484.28	13476.80
484.46	13790.44
484.64	13944.91
484.82	13596.17
485.00	13851.29
485.18	14223.44
485.35	14216.41
485.53	14134.50
485.71	14391.95
485.89	14445.79
486.07	14487.92
486.25	14384.93
486.43	14593.24
486.61	14813.25
486.78	14841.34
486.96	15014.54
487.14	15171.35
487.32	15143.27
487.50	15250.93
487.68	15559.88
487.85	15594.99
488.03	15630.10
488.21	16086.50
488.39	16016.29
488.57	15976.50
488.75	16217.57
488.92	16456.31
489.10	16442.26
489.28	16493.76
489.46	16718.45
489.64	16552.27
489.81	17106.98
489.99	16889.31
490.17	17179.53
490.35	17530.61
490.53	17231.02
490.70	17748.28
490.88	17619.55
491.06	17923.82
491.24	17928.50
491.41	17659.34
491.59	18125.11
491.77	18225.75
491.95	18417.68
492.13	18464.49
492.30	18640.03
492.48	18735.99
492.66	18799.18
492.84	18513.64
493.01	19180.69
493.19	18824.93
493.37	19136.22
493.54	19286.01
493.72	19274.31
493.90	19487.30
494.08	19606.67
494.25	19782.21
494.43	19686.25
494.61	20147.33
494.79	19934.34
494.96	20252.66
495.14	20168.40
495.32	20313.51
495.49	20610.76
495.67	20350.96
495.85	20713.74
496.02	20882.26
496.20	21167.80
496.38	21064.82
496.55	20718.42
496.73	21453.35
496.91	21188.87
497.09	21378.45
497.26	21799.75
497.44	21673.36
497.62	21795.07
497.79	22253.81
497.97	21961.25
498.14	22075.93
498.32	22415.31
498.50	22513.61
498.67	22691.49
498.85	22471.48
499.03	22670.43
499.20	22752.35
499.38	22483.19
499.56	22925.55
499.73	23253.22
499.91	23065.98
500.08	23681.54
500.26	22923.21
500.44	23117.47
500.61	23264.92
500.79	23398.34
500.97	23489.62
501.14	24238.59
501.32	23948.36
501.49	23948.36
501.67	24081.77
501.84	24002.19
502.02	24049.00
502.20	24060.71
502.37	24439.87
502.55	24336.89
502.72	24456.26
502.90	24100.50
503.07	24287.74
503.25	24477.32
503.43	24479.66
503.60	24781.59
503.78	24861.17
503.95	25085.86
504.13	25050.75
504.30	25294.17
504.48	24980.54
504.65	25142.03
504.83	25275.45
505.01	25722.49
505.18	25472.05
505.36	25851.22
505.53	25671.00
505.71	25919.09
505.88	25993.99
506.06	25790.36
506.23	26190.59
506.41	25874.62
506.58	25769.30
506.76	26040.80
506.93	26630.62
507.11	26600.19
507.28	26792.11
507.46	26719.56
507.63	26380.18
507.81	26382.52
507.98	26361.45
508.16	26918.50
508.33	26532.31
508.50	27145.53
508.68	27012.12
508.85	27314.05
509.03	26902.12
509.20	27243.84
509.38	27555.13
509.55	27665.13
509.73	27725.99
509.90	27527.04
510.08	27747.05
510.25	27639.39
510.42	27819.61
510.60	28041.96
510.77	27700.24
510.95	28617.73
511.12	28079.41
511.30	28467.94
511.47	28245.58
511.64	28512.41
511.82	28629.43
511.99	28760.50
512.17	28613.05
512.34	29013.28
512.51	28922.00
512.69	29083.50
512.86	28870.51
513.04	29504.79
513.21	29214.57
513.38	29160.73
513.56	29172.44
513.73	29790.34
513.90	29261.38
514.08	29591.39
514.25	29701.40
514.43	29813.74
514.60	29755.23
514.77	29797.36
514.95	29972.90
515.12	30036.09
515.29	29876.94
515.47	30326.32
515.64	29975.24
515.81	30160.14
515.99	30256.11
516.16	30473.78
516.33	30628.25
516.51	30494.84
516.68	30476.12
516.85	30661.02
517.03	30483.14
517.20	31089.34
517.37	30953.58
517.54	31147.85
517.72	31082.31
517.89	30986.35
518.06	31241.47
518.24	31133.81
518.41	31136.15
518.58	31281.26
518.75	31126.78
518.93	31791.50
519.10	31175.94
519.27	32133.21
519.45	31812.56
519.62	31709.58
519.79	31828.95
519.96	31974.06
520.14	32163.64
520.31	31842.99
520.48	31990.44
520.65	32257.26
520.83	32446.85
521.00	32559.19
521.17	32542.81
521.34	32692.60
521.52	32428.12
521.69	32222.16
521.86	32739.41
522.03	32938.36
522.20	33156.03
522.38	32907.93
522.55	33462.64
522.72	33153.69
522.89	32842.40
523.07	33366.68
523.24	33280.08
523.41	33748.18
523.58	32790.91
523.75	33645.20
523.92	33521.15
524.10	33706.05
524.27	33628.82
524.44	33530.51
524.61	33832.44
524.78	33684.99
524.96	34092.24
525.13	33991.60
525.30	34328.64
525.47	34153.10
525.64	34604.82
525.81	34597.80
525.98	34490.13
526.16	34092.24
526.33	34539.29
526.50	34525.24
526.67	34361.40
526.84	34160.12
527.01	34670.36
527.18	34359.06
527.36	34881.00
527.53	34822.49
527.70	34817.81
527.87	35206.34
528.04	34792.06
528.21	35079.95
528.38	35110.38
528.55	35175.91
528.72	35173.57
528.89	35122.08
529.07	34595.46
529.24	35051.86
529.41	35791.47
529.58	35515.29
529.75	35515.29
529.92	35342.09
530.09	35754.02
530.26	35365.49
530.43	35360.81
530.60	35683.81
530.77	35367.84
530.94	35686.15
531.11	35857.01
531.28	35826.58
531.46	35945.95
531.63	36158.94
531.80	35587.85
531.97	36514.70
532.14	35882.75
532.31	36278.30
532.48	36322.77
532.65	36535.76
532.82	36596.62
532.99	36236.17
533.16	36634.06
533.33	36659.81
533.50	36432.78
533.67	36673.85
533.84	36697.26
534.01	36903.23
534.18	36947.70
534.35	36521.72
534.52	36910.25
534.69	37146.64
534.86	37076.43
535.03	36718.32
535.20	37256.65
535.37	37141.96
535.54	37954.13
535.71	37254.31
535.88	37319.84
536.05	37062.38
536.22	37591.34
536.38	37446.23
536.55	37450.91
536.72	37336.23
536.89	37392.40
537.06	37617.09
537.23	37919.02
537.40	37523.47
537.57	37457.93
537.74	37486.02
537.91	37706.03
538.08	37926.04
538.25	37670.92
538.42	38022.00
538.59	37972.85
538.75	37937.74
538.92	38359.04
539.09	38394.15
539.26	38106.26
539.43	38490.11
539.60	38476.07
539.77	38733.53
539.94	38459.68
540.11	38403.51
540.28	38593.09
540.44	38590.75
540.61	38675.01
540.78	38253.72
540.95	38377.76
541.12	38490.11
541.29	38548.62
541.46	39084.61
541.62	39051.84
541.79	38888.00
541.96	38773.31
542.13	38869.28
542.30	38967.58
542.47	39037.80
542.63	39005.03
542.80	39498.88
542.97	39599.52
543.14	39536.33
543.31	39257.81
543.48	39421.64
543.64	39931.88
543.81	40006.78
543.98	39901.45
544.15	39910.82
544.32	39721.23
544.48	39840.60
544.65	39541.01
544.82	40151.89
544.99	39995.07
545.16	39765.70
545.32	39927.20
545.49	40259.55
545.66	40058.27
545.83	40189.34
546.00	40011.46
546.16	40519.35
546.33	40517.01
546.50	40275.94
546.67	40421.05
546.83	39976.35
547.00	40467.86
547.17	40107.42
547.34	40275.94
547.50	40435.10
547.67	40416.37
547.84	40697.24
548.00	41001.50
548.17	41310.46
548.34	41132.57
548.51	40889.16
548.67	40762.77
548.84	41125.55
549.01	40760.43
549.18	40645.74
549.34	41125.55
549.51	41083.42
549.68	40828.30
549.84	40919.59
550.01	41422.80
550.18	40877.46
550.34	41277.69
550.51	41251.94
550.68	41322.16
550.84	40919.59
551.01	41544.51
551.18	41036.61
551.34	41387.69
551.51	41336.20
551.68	41411.10
551.84	41507.06
552.01	41481.31
552.18	41408.76
552.34	41394.71
552.51	41869.84
552.68	41553.87
552.84	41347.90
553.01	41687.28
553.18	41736.43
553.34	41855.80
553.51	41682.60
553.67	41949.42
553.84	42108.58
554.01	42092.19
554.17	42014.96
554.34	42244.33
554.51	42031.34
554.67	42293.48
554.84	42113.26
555.00	41935.38
555.17	42321.57
555.33	42368.38
555.50	41970.49
555.67	42153.05
555.83	42227.95
556.00	42197.52
556.16	42745.20
556.33	42632.86
556.50	42714.78
556.66	42445.62
556.83	42040.70
556.99	42749.88
557.16	42803.72
557.32	42724.14
557.49	42920.74
557.65	42337.95
557.82	42454.98
557.98	42342.63
558.15	42471.36
558.32	42522.85
558.48	42735.84
558.65	42810.74
558.81	42857.55
558.98	42733.50
559.14	42831.80
559.31	42656.26
559.47	42927.77
559.64	42967.55
559.80	42951.17
559.97	43035.43
560.13	42504.13
560.30	42438.59
560.46	43400.55
560.63	42990.96
560.79	42997.98
560.96	43604.18
561.12	43709.50
561.29	43201.61
561.45	43442.68
561.61	43377.15
561.78	43192.25
561.94	43131.39
562.11	43070.54
562.27	43583.12
562.44	43281.19
562.60	43468.43
562.77	43199.27
562.93	43402.89
563.10	43784.40
563.26	43466.09
563.42	43784.40
563.59	43283.53
563.75	43019.05
563.92	43634.61
564.08	43089.26
564.24	43744.61
564.41	43374.81
564.57	43660.35
564.74	43812.49
564.90	43728.23
565.07	43391.19
565.23	43604.18
565.39	43653.33
565.56	43597.16
565.72	43674.40
565.88	43517.58
566.05	43824.19
566.21	43892.07
566.38	43702.48
566.54	43981.01
566.70	43899.09
566.87	43650.99
567.03	43709.50
567.19	43948.24
567.36	43835.89
567.52	43828.87
567.68	44341.45
567.85	43566.73
568.01	44006.75
568.17	43711.84
568.34	43978.67
568.50	44304.00
568.66	43863.98
568.83	44023.14
568.99	44154.21
569.15	43957.60
569.32	43908.45
569.48	43725.89
569.64	44411.67
569.81	43882.70
569.97	43845.26
570.13	44418.69
570.30	43866.32
570.46	44165.91
570.62	44053.56
570.78	44053.56
570.95	44100.37
571.11	44367.20
571.27	43812.49
571.43	43936.54
571.60	44126.12
571.76	44177.61
571.92	44123.78
572.09	44037.18
572.25	44133.14
572.41	43938.88
572.57	44184.63
572.74	44758.06
572.90	44189.31
573.06	43981.01
573.22	44514.65
573.38	44685.51
573.55	44336.77
573.71	44741.68
573.87	44121.44
574.03	44341.45
574.20	44727.64
574.36	44662.10
574.52	44563.80
574.68	44369.54
574.84	44657.42
575.01	44584.86
575.17	44566.14
575.33	44432.73
575.49	44584.86
575.65	44554.44
575.82	44257.19
575.98	44158.89
576.14	44694.87
576.30	44634.02
576.46	44790.83
576.62	44055.90
576.79	44421.03
576.95	43882.70
577.11	44608.27
577.27	44772.11
577.43	44830.62
577.59	44669.12
577.75	44526.35
577.92	44048.88
578.08	44666.78
578.24	44439.75
578.40	44629.34
578.56	44683.17
578.72	44507.63
578.88	44828.28
579.04	44547.42
579.21	44877.43
579.37	44619.97
579.53	45141.91
579.69	44814.24
579.85	44289.96
580.01	44933.60
580.17	44470.18
580.33	44830.62
580.49	45064.67
580.65	44762.75
580.82	44645.72
580.98	44184.63
581.14	44456.14
581.30	44844.66
581.46	44203.36
581.62	44652.74
581.78	44959.35
581.94	44847.00
582.10	45010.84
582.26	44762.75
582.42	44680.83
582.58	44886.79
582.74	44807.22
582.90	45071.70
583.06	44800.19
583.22	44563.80
583.38	45074.04
583.54	44985.10
583.70	45202.77
583.86	44842.32
584.02	44603.59
584.18	45177.02
584.34	44729.98
584.50	45160.64
584.66	45078.72
584.82	44928.92
584.98	45371.28
585.14	44765.09
585.30	44615.29
585.46	45052.97
585.62	44807.22
585.78	44720.62
585.94	44538.05
586.10	44580.18
586.26	44734.66
586.42	45095.10
586.58	44994.46
586.74	44992.12
586.90	44903.18
587.06	44933.60
587.22	45109.14
587.38	44514.65
587.54	45013.18
587.70	45385.33
587.86	44760.40
588.02	44711.25
588.18	44776.79
588.34	45240.21
588.49	45109.14
588.65	45195.74
588.81	44715.93
588.97	45045.95
589.13	45200.43
589.29	45184.04
589.45	45338.52
589.61	45233.19
589.77	45329.16
589.93	45010.84
590.08	45390.01
590.24	44999.14
590.40	45682.58
590.56	45663.85
590.72	45574.91
590.88	44818.92
591.04	44947.65
591.20	45385.33
591.35	45359.58
591.51	45441.50
591.67	45429.80
591.83	45277.66
591.99	45530.44
592.15	45148.93
592.31	45446.18
592.46	45312.77
592.62	45137.23
592.78	45827.69
592.94	45797.26
593.10	45659.17
593.26	45118.51
593.41	45275.32
593.57	45352.56
593.73	45132.55
593.89	46150.68
594.05	45766.84
594.20	45888.54
594.36	45687.26
594.52	45900.25
594.68	45455.54
594.84	45549.17
594.99	45940.04
595.15	45682.58
595.31	45310.43
595.47	46033.66
595.62	45694.28
595.78	45345.54
595.94	45633.42
596.10	45757.47
596.25	45673.21
596.41	45523.42
596.57	45549.17
596.73	45947.06
596.88	45462.57
597.04	45467.25
597.20	45757.47
597.36	45684.92
597.51	45455.54
597.67	45518.74
597.83	45659.17
597.99	45794.92
598.14	45481.29
598.30	45727.05
598.46	45935.35
598.61	45907.27
598.77	45808.96
598.93	46131.96
599.09	45619.38
599.24	46494.74
599.40	45867.48
599.56	45986.85
599.71	46265.37
599.87	46391.76
600.03	46223.24
600.18	45979.82
600.34	45460.23
600.50	45574.91
600.65	46012.59
600.81	46099.19
600.97	46181.11
601.12	45914.29
601.28	45797.26
601.44	45944.72
601.59	45975.14
601.75	45411.07
601.91	45762.15
602.06	45720.02
602.22	45979.82
602.37	45818.33
602.53	45649.81
602.69	45830.03
602.84	45432.14
603.00	45975.14
603.16	45778.54
603.31	45649.81
603.47	45804.28
603.62	46054.72
603.78	45624.06
603.94	45504.70
604.09	45876.84
604.25	45509.38
604.40	45607.68
604.56	45581.93
604.71	46131.96
604.87	45895.56
605.03	45457.88
605.18	45588.95
605.34	46270.05
605.49	45764.49
605.65	45668.53
605.80	45357.24
605.96	45326.81
606.12	45771.52
606.27	46061.74
606.43	45717.68
606.58	46043.02
606.74	45991.53
606.89	45263.62
607.05	46003.23
607.20	46057.06
607.36	45553.85
607.51	45715.34
607.67	45586.61
607.82	45392.35
607.98	45635.77
608.13	45251.92
608.29	45684.92
608.44	45595.98
608.60	45471.93
608.75	45603.00
608.91	45202.77
609.06	45380.65
609.22	45537.46
609.37	45497.67
609.53	45649.81
609.68	45832.37
609.84	45823.01
609.99	46024.29
610.15	45617.04
610.30	45544.48
610.46	45118.51
610.61	45558.53
610.76	45705.98
610.92	45291.71
611.07	45219.15
611.23	45078.72
611.38	44886.79
611.54	45563.21
611.69	45467.25
611.84	45684.92
612.00	45500.01
612.15	45387.67
612.31	45223.83
612.46	45193.40
612.62	45165.32
612.77	45415.76
612.92	45595.98
613.08	44863.39
613.23	45162.98
613.39	45254.26
613.54	45191.06
613.69	45333.84
613.85	45106.80
614.00	44945.31
614.15	45132.55
614.31	44968.71
614.46	45083.40
614.62	44722.96
614.77	45069.36
614.92	45151.27
615.08	44844.66
615.23	45111.49
615.38	44772.11
615.54	45408.73
615.69	45298.73
615.84	44769.77
616.00	45380.65
616.15	44924.24
616.30	44959.35
616.46	44854.03
616.61	44760.40
616.76	44896.16
616.92	44858.71
617.07	45027.23
617.22	44605.93
617.37	44446.77
617.53	44683.17
617.68	44610.61
617.83	44605.93
617.99	45261.28
618.14	45284.68
618.29	44444.43
618.45	44591.89
618.60	44208.04
618.75	44285.28
618.90	45015.52
619.06	44694.87
619.21	44474.86
619.36	44769.77
619.51	44294.64
619.67	44194.00
619.82	44605.93
619.97	44577.84
620.12	44605.93
620.28	44376.56
620.43	44861.05
620.58	44584.86
620.73	44563.80
620.89	44608.27
621.04	44285.28
621.19	44549.76
621.34	44512.31
621.49	44018.46
621.65	44320.38
621.80	44479.54
621.95	44339.11
622.10	44404.64
622.25	44158.89
622.41	44048.88
622.56	44123.78
622.71	44055.90
622.86	44119.10
623.01	43952.92
623.16	43959.94
623.32	43885.04
623.47	44119.10
623.62	43688.44
623.77	43793.76
623.92	43807.81
624.07	43548.01
624.23	44201.02
624.38	43903.77
624.53	43945.90
624.68	43873.34
624.83	43721.21
624.98	43718.87
625.13	43632.27
625.29	43618.22
625.44	43353.74
625.59	43798.44
625.74	43636.95
625.89	43328.00
626.04	43335.02
626.19	43721.21
626.34	43580.78
626.49	43454.39
626.65	43021.39
626.80	43477.79
626.95	43323.32
627.10	43072.88
627.25	43447.36
627.40	43391.19
627.55	43533.96
627.70	43302.25
627.85	43150.12
628.00	43491.83
628.15	43583.12
628.30	42579.03
628.45	42806.06
628.60	42230.29
628.76	42632.86
628.91	43126.71
629.06	42611.79
629.21	42890.32
629.36	43234.38
629.51	42976.92
629.66	43402.89
629.81	43225.01
629.96	42941.81
630.11	42923.08
630.26	42478.38
630.41	43143.09
630.56	42836.48
630.71	43079.90
630.86	43002.66
631.01	42185.82
631.16	42351.99
631.31	42576.69
631.46	42880.95
631.61	43140.75
631.76	42883.30
631.91	42967.55
632.06	42941.81
632.21	42820.10
632.36	42646.90
632.51	42298.16
632.66	42712.44
632.81	42178.79
632.96	43002.66
633.10	42405.83
633.25	42490.09
633.40	42471.36
633.55	42527.53
633.70	42085.17
633.85	42031.34
634.00	41968.15
634.15	42354.33
634.30	42120.28
634.45	41804.31
634.60	42401.14
634.75	42340.29
634.90	42010.28
635.05	42143.69
635.19	42373.06
635.34	42302.84
635.49	41914.31
635.64	41977.51
635.79	42607.11
635.94	42316.89
636.09	42382.42
636.24	41979.85
636.39	41839.42
636.53	41993.89
636.68	41724.73
636.83	41532.81
636.98	41804.31
637.13	41439.18
637.28	41834.74
637.43	41961.12
637.57	41603.02
637.72	41258.96
637.87	41478.97
638.02	41979.85
638.17	41635.79
638.32	42122.62
638.46	41158.32
638.61	41509.40
638.76	41378.33
638.91	41301.09
639.06	40978.10
639.20	41308.11
639.35	41209.81
639.50	41071.72
639.65	41158.32
639.80	41415.78
639.94	41198.11
640.09	41411.10
640.24	41418.12
640.39	41029.59
640.54	41064.70
640.68	41296.41
640.83	41191.09
640.98	41165.34
641.13	41371.31
641.27	41652.17
641.42	40666.81
641.57	41261.30
641.72	41212.15
641.86	40875.12
642.01	40877.46
642.16	40694.89
642.31	40556.80
642.45	41151.30
642.60	40549.78
642.75	40748.73
642.90	40708.94
643.04	40519.35
643.19	40666.81
643.34	40877.46
643.48	40481.91
643.63	40336.79
643.78	40477.22
643.93	40727.66
644.07	40760.43
644.22	41247.26
644.37	40341.47
644.51	40704.26
644.66	40425.73
644.81	40893.84
644.95	40814.26
645.10	40596.59
645.25	40130.83
645.39	40023.16
645.54	40072.31
645.69	40053.59
645.83	39791.45
645.98	40037.20
646.13	40320.41
646.27	40308.71
646.42	40002.10
646.57	39999.76
646.71	40519.35
646.86	40481.91
647.00	39828.90
647.15	40311.05
647.30	40278.28
647.44	40009.12
647.59	40084.01
647.74	40147.21
647.88	40058.27
648.03	40369.56
648.17	40048.91
648.32	39908.47
648.47	40542.76
648.61	40067.63
648.76	39707.19
648.90	39798.47
649.05	39662.72
649.20	40191.68
649.34	39934.22
649.49	40163.59
649.63	39618.25
649.78	39676.76
649.92	39761.02
650.07	40348.50
650.21	40002.10
650.36	39852.30
650.51	40112.10
650.65	40137.85
650.80	39931.88
650.94	39545.69
651.09	39859.32
651.23	39498.88
651.38	39491.86
651.52	38864.60
651.67	39337.38
651.81	39365.47
651.96	39222.70
652.10	39318.66
652.25	39215.68
652.39	39360.79
652.54	39580.80
652.68	39285.89
652.83	39819.53
652.97	39648.68
653.12	39306.96
653.26	39030.77
653.41	39339.72
653.55	39093.97
653.70	39175.89
653.84	39325.68
653.99	39372.49
654.13	39103.33
654.27	39119.71
654.42	39236.74
654.56	39154.82
654.71	39126.74
654.85	38719.48
655.00	38998.01
655.14	38864.60
655.29	39075.24
655.43	39208.65
655.57	38569.69
655.72	38480.75
655.86	38773.31
656.01	38958.22
656.15	38508.83
656.30	38630.54
656.44	39199.29
656.58	38501.81
656.73	38749.91
656.87	38307.55
657.01	38316.91
657.16	38696.08
657.30	38670.33
657.45	38424.57
657.59	38274.78
657.73	38286.48
657.88	38478.41
658.02	38197.54
658.16	38335.63
658.31	38419.89
658.45	38473.73
658.60	38396.49
658.74	38263.08
658.88	38033.71
659.03	38110.94
659.17	38038.39
659.31	37912.00
659.46	37593.68
659.60	38129.67
659.74	37624.11
659.89	37558.58
660.03	37523.47
660.17	37794.97
660.32	38012.64
660.46	37551.56
660.60	37036.64
660.74	37516.45
660.89	37574.96
661.03	37642.84
661.17	36933.65
661.32	37331.54
661.46	37429.85
661.60	36985.15
661.74	37158.34
661.89	37256.65
662.03	37137.28
662.17	36669.17
662.31	36861.10
662.46	37617.09
662.60	36704.28
662.74	36814.29
662.88	36781.52
663.03	36608.32
663.17	36540.44
663.31	36512.36
663.45	36830.67
663.60	37127.92
663.74	36809.61
663.88	36547.47
664.02	36306.39
664.17	36505.34
664.31	36257.24
664.45	35952.97
664.59	35976.37
664.73	36144.89
664.88	36425.76
665.02	35887.43
665.16	36180.00
665.30	35786.79
665.44	36137.87
665.59	35278.89
665.73	35768.07
665.87	35049.52
666.01	36074.68
666.15	35522.31
666.29	35470.82
666.44	35997.44
666.58	35592.53
666.72	35878.07
666.86	35335.07
667.00	35189.95
667.14	35379.54
667.28	35370.18
667.43	35089.31
667.57	35529.33
667.71	35281.24
667.85	35152.51
667.99	35264.85
668.13	34862.28
668.27	34899.73
668.41	34878.66
668.56	34263.10
668.70	34742.91
668.84	34485.45
668.98	34630.57
669.12	34330.98
669.26	34747.59
669.40	34593.12
669.54	34202.25
669.68	34520.56
669.82	33926.07
669.96	33813.72
670.10	33720.10
670.25	33776.27
670.39	34033.73
670.53	34143.74
670.67	33759.89
670.81	34232.68
670.95	33928.41
671.09	33563.28
671.23	33951.81
671.37	33631.16
671.51	33652.22
671.65	33675.63
671.79	33472.00
671.93	33261.35
672.07	33259.01
672.21	33165.39
672.35	33165.39
672.49	32615.37
672.63	33406.47
672.77	32552.17
672.91	32882.19
673.05	32826.01
673.19	32648.13
673.33	32673.88
673.47	32467.91
673.61	32348.54
673.75	32222.16
673.89	32102.79
674.03	31892.14
674.17	32371.95
674.31	31515.31
674.45	31707.24
674.59	31679.15
674.73	32238.54
674.87	31480.21
675.01	31323.39
675.15	31718.94
675.29	31618.30
675.43	31417.01
675.56	31590.21
675.70	31346.79
675.84	31299.98
675.98	29951.84
676.12	30881.03
676.26	31091.68
676.40	30955.93
676.54	30462.07
676.68	30642.29
676.82	30181.21
676.96	30869.33
677.10	30897.41
677.23	30450.37
677.37	30450.37
677.51	30307.60
677.65	29909.71
677.79	30139.08
677.93	30162.48
678.07	29919.07
678.21	29687.36
678.34	30033.75
678.48	29291.80
678.62	29397.13
678.76	29511.81
678.90	29139.67
679.04	29167.76
679.18	28964.13
679.31	28910.30
679.45	28879.87
679.59	28613.05
679.73	28671.56
679.87	28217.50
680.00	28701.99
680.14	28470.28
680.28	28559.22
680.42	28517.09
680.56	28467.94
680.70	28128.56
680.83	27728.33
680.97	28261.97
681.11	27791.52
681.25	27761.09
681.39	27484.91
681.52	27480.23
681.66	27452.14
681.80	26705.51
681.94	27042.55
682.07	26946.59
682.21	26665.72
682.35	26991.06
682.49	26946.59
682.62	26651.68
682.76	26923.18
682.90	26932.54
683.04	26396.56
683.17	26356.77
683.31	26726.58
683.45	26288.90
683.59	26031.44
683.72	25888.67
683.86	25530.56
684.00	25357.36
684.13	25933.14
684.27	25710.78
684.41	25666.31
684.55	25724.83
684.68	25308.21
684.82	25172.46
684.96	25408.86
685.09	25259.06
685.23	25146.72
685.37	25577.37
685.50	25549.29
685.64	25032.03
685.78	24676.27
685.91	24446.90
686.05	24439.87
686.19	24198.80
686.32	24159.01
686.46	23878.15
686.60	23960.06
686.73	23805.59
686.87	23990.49
687.01	23634.73
687.14	24018.58
687.28	24070.07
687.42	23800.91
687.55	23728.35
687.69	23807.93
687.82	23103.43
687.96	23042.57
688.10	23384.29
688.23	23197.05
688.37	23054.28
688.50	23232.16
688.64	23040.23
688.78	22628.30
688.91	22637.66
689.05	22796.82
689.18	22576.81
689.32	22333.39
689.46	22209.34
689.59	22391.91
689.73	22366.16
689.86	22485.53
690.00	22150.83
690.13	21933.16
690.27	21912.10
690.41	22225.73
690.54	21645.27
690.68	21493.14
690.81	21659.32
690.95	21172.49
691.08	21223.98
691.22	21102.27
691.35	21160.78
691.49	21273.13
691.62	20802.68
691.76	20699.70
691.89	20189.46
692.03	20463.30
692.16	20397.77
692.30	20643.52
692.43	20379.04
692.57	20245.63
692.70	20266.70
692.84	20212.87
692.97	19873.49
693.11	20025.62
693.24	19880.51
693.38	19922.64
693.51	19784.55
693.65	19630.07
693.78	19370.27
693.92	19639.44
694.05	19124.52
694.19	19344.53
694.32	19302.40
694.45	19496.66
694.59	19653.48
694.72	19161.97
694.86	19044.94
694.99	19044.94
695.13	18698.54
695.26	18342.78
695.39	18427.04
695.53	18724.29
695.66	18101.70
695.80	18008.08
695.93	18244.48
696.07	17958.93
696.20	17649.98
696.33	17724.88
696.47	17816.16
696.60	17881.69
696.73	17530.61
696.87	17778.71
697.00	17558.70
697.14	17500.19
697.27	17476.78
697.40	17881.69
697.54	17282.52
697.67	16922.07
697.80	17345.71
697.94	17060.16
698.07	17266.13
698.21	16882.28
698.34	16964.20
698.47	16320.56
698.61	16592.06
698.74	16524.18
698.87	16669.30
699.01	16018.63
699.14	16152.04
699.27	16348.64
699.40	16369.71
699.54	16224.59
699.67	16114.59
699.80	16060.76
699.94	15831.38
700.07	15892.24
700.20	15864.15
700.34	15939.05
700.47	15929.69
700.60	15702.65
700.73	15644.14
700.87	15555.20
701.00	15583.29
701.13	15056.67
701.26	15094.11
701.40	14974.75
701.53	15325.83
701.66	14979.43
701.79	15014.54
701.93	14869.42
702.06	14649.41
702.19	14590.90
702.32	14787.50
702.46	14909.21
702.59	14810.91
702.72	14569.83
702.85	14534.73
702.99	14265.57
703.12	14183.65
703.25	13968.32
703.38	14342.80
703.51	13987.04
703.65	14094.71
703.78	13816.18
703.91	13568.09
704.04	13657.03
704.17	13881.72
704.31	13525.96
704.44	13462.76
704.57	13392.55
704.70	13294.24
704.83	13404.25
704.96	13158.49
705.10	13242.75
705.23	13331.69
>>>>>End Processed Spectral Data<<<<<
