SpectraSuite Data File
++++++++++++++++++++++++++++++++++++
Date: Fri Oct 25 11:33:37 EDT 2013
User: price-jones
Dark Spectrum Present: No
Reference Spectrum Present: No
Number of Sampled Component Spectra: 1
Spectrometers: USB2+H05261
Integration Time (usec): 100000 (USB2+H05261)
Spectra Averaged: 1 (USB2+H05261)
Boxcar Smoothing: 0 (USB2+H05261)
Correct for Electrical Dark: No (USB2+H05261)
Strobe/Lamp Enabled: No (USB2+H05261)
Correct for Detector Non-linearity: No (USB2+H05261)
Correct for Stray Light: No (USB2+H05261)
Number of Pixels in Processed Spectrum: 2048
>>>>>Begin Processed Spectral Data<<<<<
365.73	292.57
365.92	292.57
366.12	292.57
366.32	236.39
366.52	149.79
366.72	173.20
366.91	212.99
367.11	152.13
367.31	128.73
367.51	177.88
367.70	159.16
367.90	203.63
368.10	161.50
368.30	142.77
368.49	191.92
368.69	220.01
368.89	205.97
369.09	208.31
369.28	112.35
369.48	191.92
369.68	271.50
369.87	306.61
370.07	224.69
370.27	283.20
370.47	339.38
370.66	482.15
370.86	430.66
371.06	550.03
371.25	566.41
371.45	578.11
371.65	491.51
371.84	561.73
372.04	519.60
372.24	664.71
372.44	550.03
372.63	578.11
372.83	592.16
373.03	634.29
373.22	566.41
373.42	627.26
373.62	624.92
373.81	561.73
374.01	683.44
374.21	669.39
374.40	608.54
374.60	634.29
374.79	662.37
374.99	624.92
375.19	702.16
375.38	660.03
375.58	678.76
375.78	667.05
375.97	629.60
376.17	725.57
376.37	711.52
376.56	690.46
376.76	601.52
376.95	631.94
377.15	702.16
377.35	737.27
377.54	688.12
377.74	657.69
377.93	744.29
378.13	697.48
378.33	713.86
378.52	657.69
378.72	755.99
378.91	737.27
379.11	692.80
379.31	732.59
379.50	655.35
379.70	695.14
379.89	718.54
380.09	765.36
380.28	751.31
380.48	732.59
380.68	734.93
380.87	674.07
381.07	720.88
381.26	734.93
381.46	767.70
381.65	755.99
381.85	809.83
382.04	791.10
382.24	800.46
382.43	812.17
382.63	770.04
382.83	823.87
383.02	809.83
383.22	833.23
383.41	858.98
383.61	760.67
383.80	835.57
384.00	767.70
384.19	809.83
384.39	786.42
384.58	805.14
384.78	924.51
384.97	786.42
385.17	814.51
385.36	868.34
385.56	947.92
385.75	891.74
385.95	830.89
386.14	861.32
386.34	802.80
386.53	800.46
386.72	905.79
386.92	887.06
387.11	945.58
387.31	894.08
387.50	898.77
387.70	889.40
387.89	910.47
388.09	917.49
388.28	887.06
388.48	894.08
388.67	926.85
388.86	919.83
389.06	938.55
389.25	936.21
389.45	889.40
389.64	929.19
389.84	973.66
390.03	954.94
390.22	910.47
390.42	992.39
390.61	1022.81
390.81	936.21
391.00	947.92
391.19	964.30
391.39	987.71
391.58	1004.09
391.78	1034.52
391.97	1008.77
392.16	898.77
392.36	1057.92
392.55	1081.33
392.75	1097.71
392.94	1013.45
393.13	1093.03
393.33	1039.20
393.52	1090.69
393.71	1067.28
393.91	1125.80
394.10	1069.62
394.29	1083.67
394.49	1093.03
394.68	1093.03
394.88	1163.25
395.07	1102.39
395.26	1137.50
395.46	1128.14
395.65	1289.64
395.84	1163.25
396.04	1238.14
396.23	1242.82
396.42	1165.59
396.62	1132.82
396.81	1217.08
397.00	1196.01
397.19	1280.27
397.39	1294.32
397.58	1231.12
397.77	1139.84
397.97	1308.36
398.16	1315.38
398.35	1242.82
398.55	1280.27
398.74	1306.02
398.93	1338.79
399.12	1301.34
399.32	1345.81
399.51	1366.87
399.70	1383.26
399.90	1345.81
400.09	1409.00
400.28	1390.28
400.47	1390.28
400.67	1453.47
400.86	1376.24
401.05	1406.66
401.24	1425.39
401.44	1413.68
401.63	1523.69
401.82	1455.81
402.01	1460.49
402.21	1390.28
402.40	1451.13
402.59	1446.45
402.78	1516.67
402.97	1448.79
403.17	1629.01
403.36	1542.41
403.55	1575.18
403.74	1589.22
403.93	1561.14
404.13	1598.59
404.32	1605.61
404.51	1575.18
404.70	1589.22
404.89	1671.14
405.09	1689.87
405.28	1652.42
405.47	1650.08
405.66	1621.99
405.85	1692.21
406.05	1750.72
406.24	1764.76
406.43	1736.68
406.62	1715.61
406.81	1856.04
407.00	1797.53
407.20	1811.57
407.39	1806.89
407.58	1846.68
407.77	1785.83
407.96	1973.07
408.15	1907.54
408.34	1795.19
408.54	1902.86
408.73	1982.43
408.92	1937.96
409.11	1902.86
409.30	1928.60
409.49	2022.22
409.68	2010.52
409.87	2139.25
410.07	2097.12
410.26	2005.84
410.45	2076.06
410.64	2031.58
410.83	2057.33
411.02	2160.31
411.21	2204.78
411.40	2157.97
411.59	2345.22
411.78	2214.15
411.98	2026.90
412.17	2230.53
412.36	2237.55
412.55	2284.36
412.74	2284.36
412.93	2326.49
413.12	2260.96
413.31	2424.80
413.50	2427.14
413.69	2415.43
413.88	2448.20
414.07	2546.50
414.26	2471.61
414.45	2525.44
414.64	2572.25
414.83	2523.10
415.02	2628.42
415.22	2593.31
415.41	2651.83
415.60	2612.04
415.79	2778.22
415.98	2754.81
416.17	2738.43
416.36	2696.30
416.55	2642.46
416.74	2792.26
416.93	2754.81
417.12	2684.59
417.31	2832.05
417.50	2876.52
417.69	2984.18
417.88	2920.99
418.07	2991.20
418.26	2857.79
418.45	3026.31
418.64	3178.45
418.83	3049.72
419.02	2958.44
419.21	2991.20
419.39	3246.32
419.58	3098.87
419.77	3077.80
419.96	3028.65
420.15	3089.51
420.34	3138.66
420.53	3133.98
420.72	3236.96
420.91	3272.07
421.10	3265.05
421.29	3246.32
421.48	3164.40
421.67	3342.28
421.86	3412.50
422.05	3400.80
422.24	3318.88
422.43	3302.50
422.61	3445.27
422.80	3356.33
422.99	3417.18
423.18	3459.31
423.37	3480.38
423.56	3426.54
423.75	3349.31
423.94	3410.16
424.13	3267.39
424.32	3344.63
424.50	3426.54
424.69	3520.17
424.88	3534.21
425.07	3496.76
425.26	3363.35
425.45	3456.97
425.64	3368.03
425.83	3349.31
426.01	3459.31
426.20	3407.82
426.39	3463.99
426.58	3501.44
426.77	3426.54
426.96	3562.30
427.15	3658.26
427.33	3595.06
427.52	3658.26
427.71	3611.45
427.90	3616.13
428.09	3623.15
428.28	3742.52
428.46	3627.83
428.65	3728.47
428.84	3756.56
429.03	3850.18
429.22	3730.81
429.40	3838.48
429.59	3754.22
429.78	3646.55
429.97	3604.42
430.16	3754.22
430.34	3892.31
430.53	3784.65
430.72	3962.53
430.91	3932.10
431.10	3904.01
431.28	3948.48
431.47	4112.32
431.66	4065.51
431.85	3920.40
432.03	4004.66
432.22	4112.32
432.41	4016.36
432.60	4112.32
432.79	4093.60
432.97	4117.00
433.16	3971.89
433.35	4004.66
433.54	4212.96
433.72	4154.45
433.91	4236.37
434.10	4208.28
434.28	4212.96
434.47	4266.80
434.66	4299.56
434.85	4344.03
435.03	4411.91
435.22	4367.44
435.41	4381.48
435.59	4374.46
435.78	4440.00
435.97	4322.97
436.16	4376.80
436.34	4344.03
436.53	4451.70
436.72	4503.19
436.90	4489.15
437.09	4702.14
437.28	4297.22
437.46	4554.68
437.65	4526.60
437.84	4685.75
438.02	4484.47
438.21	4648.30
438.40	4521.92
438.58	4723.20
438.77	4896.40
438.96	4786.40
439.14	4964.28
439.33	4933.85
439.52	4901.08
439.70	4748.95
439.89	5116.41
440.08	5034.49
440.26	5022.79
440.45	5018.11
440.63	5067.26
440.82	5011.09
441.01	5146.84
441.19	5294.29
441.38	5296.63
441.57	5149.18
441.75	5217.05
441.94	5458.13
442.12	5441.75
442.31	5434.72
442.50	5448.77
442.68	5411.32
442.87	5479.19
443.05	5500.26
443.24	5708.57
443.43	5614.95
443.61	5582.18
443.80	5713.25
443.98	5406.64
444.17	5308.34
444.35	5376.21
444.54	5708.57
444.73	5767.08
444.91	5495.58
445.10	5603.24
445.28	5504.94
445.47	5488.56
445.65	5633.67
445.84	5713.25
446.02	5626.65
446.21	5720.27
446.39	5839.64
446.58	5788.14
446.77	5694.52
446.95	5785.80
447.14	5746.02
447.32	5799.85
447.51	5783.46
447.69	5706.23
447.88	5863.04
448.06	5741.33
448.25	5804.53
448.43	5790.49
448.62	5846.66
448.80	5802.19
448.99	5755.38
449.17	5907.51
449.36	5717.93
449.54	6022.20
449.73	5996.45
449.91	6216.46
450.10	5991.77
450.28	6120.50
450.46	6202.42
450.65	6083.05
450.83	6169.65
451.02	6169.65
451.20	6129.86
451.39	6200.08
451.57	6267.95
451.76	6265.61
451.94	6244.55
452.13	6260.93
452.31	6328.81
452.49	6450.52
452.68	6321.79
452.86	6169.65
453.05	6459.88
453.23	6555.84
453.42	6396.68
453.60	6277.32
453.78	6513.71
453.97	6335.83
454.15	6494.99
454.34	6406.05
454.52	6560.52
454.70	6562.86
454.89	6710.32
455.07	6642.44
455.26	6787.55
455.44	6731.38
455.62	6525.41
455.81	6736.06
455.99	6672.87
456.17	6771.17
456.36	6827.34
456.54	6923.30
456.73	6771.17
456.91	7129.27
457.09	7140.97
457.28	7054.37
457.46	7016.93
457.64	7021.61
457.83	7007.56
458.01	6949.05
458.19	7302.47
458.38	7009.90
458.56	7206.51
458.74	7162.04
458.93	7307.15
459.11	7325.88
459.29	7131.61
459.48	7384.39
459.66	7255.66
459.84	7262.68
460.03	7524.82
460.21	7398.43
460.39	7382.05
460.57	7356.30
460.76	7506.10
460.94	7531.84
461.12	7396.09
461.31	7492.05
461.49	7503.76
461.67	7569.29
461.85	7791.64
462.04	7651.21
462.22	7988.25
462.40	7597.38
462.59	7875.90
462.77	7730.79
462.95	7831.43
463.13	7695.68
463.32	7815.05
463.50	7833.77
463.68	7943.78
463.86	7946.12
464.05	7906.33
464.23	7852.50
464.41	8072.51
464.59	7817.39
464.78	8035.06
464.96	8018.68
465.14	7894.63
465.32	8039.74
465.50	8175.49
465.69	7934.42
465.87	8215.28
466.05	8084.21
466.23	8140.38
466.41	8114.64
466.60	8292.52
466.78	8257.41
466.96	8219.96
467.14	8182.51
467.32	8388.48
467.51	8400.18
467.69	7985.91
467.87	8334.65
468.05	8339.33
468.23	8374.44
468.41	8395.50
468.60	8243.37
468.78	8589.77
468.96	8482.10
469.14	8629.56
469.32	8702.11
469.50	8538.27
469.69	8903.40
469.87	8798.07
470.05	8622.53
470.23	8830.84
470.41	8842.54
470.59	9013.40
470.77	8809.78
470.95	8849.57
471.14	9069.58
471.32	9015.74
471.50	8980.64
471.68	9022.77
471.86	9193.62
472.04	9144.47
472.22	9497.89
472.40	9188.94
472.58	9202.99
472.77	9254.48
472.95	9394.91
473.13	9547.05
473.31	9263.84
473.49	9511.94
473.67	9610.24
473.85	9635.99
474.03	9694.50
474.21	9797.48
474.39	9736.63
474.57	9958.98
474.75	9865.36
474.93	9907.49
475.12	10040.90
475.30	9954.30
475.48	9982.38
475.66	10249.21
475.84	10186.01
476.02	10153.24
476.20	10216.44
476.38	10492.62
476.56	10640.08
476.74	10480.92
476.92	10410.70
477.10	10558.16
477.28	10843.70
477.46	10665.82
477.64	10719.65
477.82	11068.39
478.00	11274.36
478.18	11000.52
478.36	11243.93
478.54	11293.08
478.72	11534.16
478.90	11531.82
479.08	11782.26
479.26	11620.76
479.44	11564.59
479.62	11747.15
479.80	11850.13
479.98	12011.63
480.16	11957.80
480.34	12147.38
480.52	12358.03
480.70	12252.70
480.88	12119.29
481.06	12107.59
481.24	12610.81
481.41	12500.80
481.59	12744.22
481.77	12678.68
481.95	12730.17
482.13	12875.29
482.31	13004.02
482.49	13362.12
482.67	13338.71
482.85	13371.48
483.03	13605.53
483.21	13635.96
483.39	13713.20
483.57	13860.65
483.74	13575.11
483.92	13958.96
484.10	14090.02
484.28	14291.31
484.46	14295.99
484.64	14633.03
484.82	14471.53
485.00	14647.07
485.18	14853.04
485.35	15105.82
485.53	14829.63
485.71	15234.55
485.89	15590.31
486.07	14963.04
486.25	15421.79
486.43	15527.11
486.61	15627.76
486.78	15885.22
486.96	15934.37
487.14	15967.13
487.32	16231.62
487.50	16362.69
487.68	16580.36
487.85	16786.32
488.03	16898.67
488.21	17151.45
488.39	16802.71
488.57	17046.12
488.75	17226.34
488.92	17453.37
489.10	17659.34
489.28	17453.37
489.46	17839.56
489.64	17900.42
489.81	18249.16
489.99	18405.97
490.17	18026.81
490.35	18192.98
490.53	18295.97
490.70	18625.98
490.88	18609.60
491.06	18965.36
491.24	19019.19
491.41	19030.90
491.59	19033.24
491.77	19173.67
491.95	19389.00
492.13	19524.75
492.30	19885.19
492.48	19646.46
492.66	20004.56
492.84	19681.56
493.01	19920.30
493.19	20088.82
493.37	20329.89
493.54	20507.77
493.72	20716.08
493.90	20730.12
494.08	20585.01
494.25	21137.38
494.43	20821.41
494.61	21284.83
494.79	21469.73
494.96	21474.42
495.14	21429.94
495.32	21762.30
495.49	22080.61
495.67	22024.44
495.85	21738.90
496.02	22139.13
496.20	22291.26
496.38	22586.17
496.55	22080.61
496.73	22960.66
496.91	22590.85
497.09	22707.88
497.26	22874.06
497.44	22677.45
497.62	23009.81
497.79	23566.85
497.97	22937.25
498.14	23428.76
498.32	23550.47
498.50	23733.03
498.67	24334.55
498.85	23655.79
499.03	24147.31
499.20	23939.00
499.38	24346.25
499.56	24329.87
499.73	24334.55
499.91	24673.93
500.08	24683.29
500.26	24425.83
500.44	24856.49
500.61	24936.07
500.79	24608.39
500.97	25493.12
501.14	25418.22
501.32	25256.72
501.49	25106.93
501.67	25546.95
501.84	25429.92
502.02	25479.07
502.20	25900.37
502.37	25998.67
502.55	25638.23
502.72	26181.23
502.90	26345.07
503.07	25933.14
503.25	26352.09
503.43	26108.68
503.60	26426.99
503.78	26368.48
503.95	26319.32
504.13	26757.00
504.30	27253.20
504.48	26721.90
504.65	27028.51
504.83	26752.32
505.01	27131.49
505.18	27232.13
505.36	27300.01
505.53	27206.39
505.71	27438.10
505.88	27529.38
506.06	27475.55
506.23	27824.29
506.41	27290.65
506.58	27910.89
506.76	27744.71
506.93	27892.16
507.11	28201.11
507.28	28147.28
507.46	28149.62
507.63	28535.81
507.81	28465.60
507.98	28428.15
508.16	28362.61
508.33	28622.41
508.50	29046.05
508.68	28718.37
508.85	29020.30
509.03	28657.52
509.20	29305.85
509.38	29315.21
509.55	29446.28
509.73	29708.42
509.90	29181.80
510.08	29216.91
510.25	29369.04
510.42	29535.22
510.60	29942.47
510.77	29893.32
510.95	30127.38
511.12	30026.73
511.30	30000.99
511.47	30068.86
511.64	30068.86
511.82	30295.89
511.99	30057.16
512.17	30471.43
512.34	30927.84
512.51	30820.17
512.69	31012.10
512.86	30314.62
513.04	30728.89
513.21	31033.16
513.38	31220.41
513.56	31421.69
513.73	31349.14
513.90	31213.38
514.08	31030.82
514.25	31732.98
514.43	31707.24
514.60	31550.42
514.77	31606.59
514.95	31821.92
515.12	31615.96
515.29	31915.54
515.47	32058.32
515.64	32100.45
515.81	32261.94
515.99	32381.31
516.16	32446.85
516.33	32151.94
516.51	32652.81
516.68	32165.98
516.85	32727.71
517.03	32914.95
517.20	32940.70
517.37	32643.45
517.54	32531.11
517.72	33015.60
517.89	32929.00
518.06	33209.86
518.24	33034.32
518.41	33064.75
518.58	33057.73
518.75	33050.70
518.93	33516.47
519.10	33598.39
519.27	33584.35
519.45	33387.74
519.62	33879.25
519.79	33579.67
519.96	33912.02
520.14	33888.62
520.31	33546.90
520.48	34230.33
520.65	34150.76
520.83	34366.09
521.00	34749.93
521.17	34244.38
521.34	34274.80
521.52	34508.86
521.69	34403.53
521.86	34958.24
522.03	35091.65
522.20	35180.59
522.38	34920.79
522.55	34934.84
522.72	35009.73
522.89	35367.84
523.07	35491.88
523.24	35140.80
523.41	35604.23
523.58	35248.47
523.75	35571.46
523.92	35393.58
524.10	35730.62
524.27	35833.60
524.44	35864.03
524.61	36051.27
524.78	36062.97
524.96	35955.31
525.13	36196.38
525.30	36175.32
525.47	36402.35
525.64	35974.03
525.81	36711.30
525.98	36346.18
526.16	36297.03
526.33	36318.09
526.50	36507.68
526.67	36423.42
526.84	36706.62
527.01	36648.11
527.18	37127.92
527.36	36982.80
527.53	37146.64
527.70	37343.25
527.87	37240.26
528.04	37062.38
528.21	36811.95
528.38	37223.88
528.55	37886.25
528.72	37219.20
528.89	37156.00
529.07	37067.06
529.24	37214.52
529.41	37745.82
529.58	37584.32
529.75	37198.13
529.92	37855.82
530.09	37361.97
530.26	38031.36
530.43	37773.91
530.60	37659.22
530.77	37638.15
530.94	37881.57
531.11	37853.48
531.28	38038.39
531.46	38356.70
531.63	38211.59
531.80	38223.29
531.97	38340.32
532.14	38141.37
532.31	38216.27
532.48	38588.41
532.65	38625.86
532.82	38323.93
532.99	38644.59
533.16	38576.71
533.33	38838.85
533.50	38780.34
533.67	38990.98
533.84	38745.23
534.01	38965.24
534.18	38848.21
534.35	39480.16
534.52	39136.10
534.69	39555.05
534.86	39573.78
535.03	39112.69
535.20	39480.16
535.37	39676.76
535.54	39433.35
535.71	39440.37
535.88	39798.47
536.05	39899.11
536.22	39990.39
536.38	39864.00
536.55	40009.12
536.72	39796.13
536.89	39585.48
537.06	40076.99
537.23	40327.43
537.40	39864.00
537.57	39454.41
537.74	40222.11
537.91	40507.65
538.08	39854.64
538.25	39880.39
538.42	39913.16
538.59	40254.87
538.75	40498.29
538.92	40713.62
539.09	40875.12
539.26	40493.61
539.43	40299.34
539.60	40315.73
539.77	41076.40
539.94	40697.24
540.11	40919.59
540.28	40999.16
540.44	40715.96
540.61	41352.58
540.78	40844.69
540.95	41013.21
541.12	41364.29
541.29	41060.02
541.46	40858.73
541.62	41343.22
541.79	41301.09
541.96	41160.66
542.13	40266.58
542.30	41380.67
542.47	41289.39
542.63	41191.09
542.80	42185.82
542.97	42181.13
543.14	42202.20
543.31	42192.84
543.48	42155.39
543.64	42564.98
543.81	41727.07
543.98	42452.64
544.15	42026.66
544.32	42321.57
544.48	42356.67
544.65	42431.57
544.82	42244.33
544.99	41958.78
545.16	42267.73
545.32	42249.01
545.49	42295.82
545.66	42862.23
545.83	42899.68
546.00	43084.58
546.16	42607.11
546.33	42550.94
546.50	42466.68
546.67	42770.95
546.83	42127.30
547.00	42515.83
547.17	42590.73
547.34	42625.84
547.50	42543.92
547.67	42944.15
547.84	42997.98
548.00	43260.12
548.17	43533.96
548.34	42784.99
548.51	43337.36
548.67	43042.45
548.84	43632.27
549.01	43122.03
549.18	43096.28
549.34	43686.10
549.51	43746.95
549.68	43351.40
549.84	42960.53
550.01	43814.83
550.18	43143.09
550.34	43356.08
550.51	43358.42
550.68	43793.76
550.84	43421.62
551.01	44133.14
551.18	43608.86
551.34	43845.26
551.51	43796.10
551.68	44144.84
551.84	43917.81
552.01	43636.95
552.18	43964.62
552.34	43615.88
552.51	43880.36
552.68	43966.96
552.84	44336.77
553.01	44233.78
553.18	44432.73
553.34	44189.31
553.51	44327.41
553.67	44135.48
553.84	44767.43
554.01	44531.03
554.17	44357.83
554.34	44938.29
554.51	44048.88
554.67	44907.86
554.84	44690.19
555.00	44758.06
555.17	44673.81
555.33	44910.20
555.50	44704.23
555.67	44856.37
555.83	44477.20
556.00	44708.91
556.16	45553.85
556.33	44432.73
556.50	44886.79
556.66	44830.62
556.83	44793.17
556.99	45240.21
557.16	45448.52
557.32	45680.24
557.49	45460.23
557.65	45127.87
557.82	44945.31
557.98	45495.33
558.15	45303.41
558.32	45385.33
558.48	44914.88
558.65	45153.62
558.81	45200.43
558.98	44938.29
559.14	45745.77
559.31	45027.23
559.47	45523.42
559.64	45663.85
559.80	45584.27
559.97	45769.18
560.13	45319.79
560.30	45289.37
560.46	45603.00
560.63	45478.95
560.79	45689.60
560.96	45808.96
561.12	45743.43
561.29	45937.69
561.45	45970.46
561.61	45776.20
561.78	45778.54
561.94	45720.02
562.11	45375.97
562.27	46127.28
562.44	45682.58
562.60	45867.48
562.77	46148.34
562.93	45631.08
563.10	46043.02
563.26	45848.75
563.42	46220.90
563.59	45804.28
563.75	46171.75
563.92	46124.94
564.08	45925.99
564.24	45989.19
564.41	45883.86
564.57	46026.63
564.74	46124.94
564.90	45539.80
565.07	46220.90
565.23	45853.44
565.39	46380.06
565.56	46080.47
565.72	46366.01
565.88	46328.56
566.05	46155.36
566.21	45923.65
566.38	46560.28
566.54	46831.78
566.70	46651.56
566.87	46199.83
567.03	45865.14
567.19	46485.38
567.36	46148.34
567.52	46117.92
567.68	46768.58
567.85	46588.36
568.01	46829.44
568.17	46705.39
568.34	46614.11
568.50	46595.38
568.66	46426.87
568.83	46504.10
568.99	46644.54
569.15	46595.38
569.32	46436.23
569.48	46628.15
569.64	47014.34
569.81	46583.68
569.97	47021.36
570.13	46672.62
570.30	46160.05
570.46	46366.01
570.62	46607.09
570.78	46857.52
570.95	46876.25
571.11	47203.92
571.27	46555.60
571.43	46667.94
571.60	46815.40
571.76	46389.42
571.92	46562.62
572.09	46670.28
572.25	46436.23
572.41	46134.30
572.57	46972.21
572.74	46997.96
572.90	46930.08
573.06	46813.05
573.22	47171.16
573.38	46817.74
573.55	47222.65
573.71	47515.22
573.87	47033.07
574.03	46955.83
574.20	47131.37
574.36	47311.59
574.52	47100.94
574.68	46993.28
574.84	47339.68
575.01	47386.49
575.17	46969.87
575.33	46686.67
575.49	46761.56
575.65	47023.70
575.82	47110.30
575.98	47140.73
576.14	47309.25
576.30	47154.77
576.46	47056.47
576.62	46752.20
576.79	47246.05
576.95	46705.39
577.11	46883.27
577.27	46843.48
577.43	46813.05
577.59	46981.57
577.75	47210.95
577.92	46794.33
578.08	47182.86
578.24	46827.10
578.40	47510.53
578.56	47363.08
578.72	47285.84
578.88	47325.63
579.04	47023.70
579.21	46948.81
579.37	47290.52
579.53	47239.03
579.69	47246.05
579.85	46993.28
580.01	46890.29
580.17	47299.89
580.33	47224.99
580.49	47344.36
580.65	47402.87
580.82	47253.08
580.98	47098.60
581.14	46939.44
581.30	47402.87
581.46	47136.05
581.62	47173.50
581.78	46974.55
581.94	47604.16
582.10	47260.10
582.26	47571.39
582.42	47295.21
582.58	47421.59
582.74	47297.55
582.90	47524.58
583.06	47288.18
583.22	47049.45
583.38	47119.66
583.54	47267.12
583.70	47529.26
583.86	47367.76
584.02	47257.76
584.18	47679.05
584.34	47377.12
584.50	47526.92
584.66	47744.59
584.82	47831.19
584.98	47634.58
585.14	47627.56
585.30	47267.12
585.46	47302.23
585.62	47356.06
585.78	47519.90
585.94	47159.45
586.10	47409.89
586.26	47182.86
586.42	47014.34
586.58	47290.52
586.74	47309.25
586.90	47344.36
587.06	47503.51
587.22	47707.14
587.38	47056.47
587.54	47606.50
587.70	48034.81
587.86	47695.44
588.02	47285.84
588.18	47522.24
588.34	47817.14
588.49	47707.14
588.65	47002.64
588.81	47423.93
588.97	47657.99
589.13	47491.81
589.29	47393.51
589.45	47665.01
589.61	47597.13
589.77	47648.63
589.93	47882.68
590.08	47604.16
590.24	47964.60
590.40	48257.17
590.56	48065.24
590.72	47636.92
590.88	47746.93
591.04	47943.53
591.20	47945.87
591.35	47798.42
591.51	48083.97
591.67	47632.24
591.83	48303.98
591.99	47966.94
592.15	47536.28
592.31	47632.24
592.46	47468.40
592.62	47653.31
592.78	48385.89
592.94	48362.49
593.10	47739.91
593.26	48224.40
593.41	48034.81
593.57	48458.45
593.73	48215.04
593.89	48484.20
594.05	48217.38
594.20	48205.67
594.36	48605.91
594.52	48095.67
594.68	47943.53
594.84	48156.52
594.99	48921.88
595.15	48231.42
595.31	48339.08
595.47	48193.97
595.62	48289.93
595.78	47924.81
595.94	48144.82
596.10	48133.12
596.25	48245.46
596.41	48168.22
596.57	47938.85
596.73	48105.03
596.88	47882.68
597.04	48069.92
597.20	48404.62
597.36	48479.52
597.51	47995.03
597.67	47971.62
597.83	48282.91
597.99	48734.63
598.14	48158.86
598.30	48215.04
598.46	48254.82
598.61	48755.70
598.77	48130.78
598.93	48320.36
599.09	48369.51
599.24	48683.14
599.40	48175.25
599.56	48339.08
599.71	48603.56
599.87	48720.59
600.03	48739.32
600.18	48629.31
600.34	48346.11
600.50	48381.21
600.65	48301.64
600.81	48435.05
600.97	48589.52
601.12	48339.08
601.28	48439.73
601.44	48299.30
601.59	48479.52
601.75	47927.15
601.91	48390.58
602.06	48442.07
602.22	48552.07
602.37	48332.06
602.53	48596.54
602.69	48376.53
602.84	48350.79
603.00	48648.03
603.16	48027.79
603.31	48563.78
603.47	48355.47
603.62	48339.08
603.78	48877.41
603.94	48509.94
604.09	48072.26
604.25	48264.19
604.40	48540.37
604.56	48257.17
604.71	48254.82
604.87	48296.95
605.03	48158.86
605.18	48467.81
605.34	48018.43
605.49	48226.74
605.65	48126.10
605.80	48191.63
605.96	48011.41
606.12	48376.53
606.27	48179.93
606.43	48271.21
606.58	48198.65
606.74	48179.93
606.89	48034.81
607.05	47885.02
607.20	48301.64
607.36	47995.03
607.51	48027.79
607.67	47969.28
607.82	48006.73
607.98	48240.78
608.13	47969.28
608.29	48058.22
608.44	48046.52
608.60	47723.52
608.75	48095.67
608.91	48142.48
609.06	47997.37
609.22	48395.26
609.37	48151.84
609.53	48428.02
609.68	48423.34
609.84	48168.22
609.99	47875.66
610.15	47679.05
610.30	48418.66
610.46	48163.54
610.61	48219.72
610.76	48093.33
610.92	47730.54
611.07	48002.05
611.23	47782.04
611.38	47856.93
611.54	47941.19
611.69	48128.44
611.84	47875.66
612.00	48222.06
612.15	47709.48
612.31	47934.17
612.46	47517.56
612.62	47924.81
612.77	47583.09
612.92	47959.92
613.08	47540.96
613.23	47973.96
613.39	48177.59
613.54	48114.39
613.69	48095.67
613.85	47716.50
614.00	47449.68
614.15	47831.19
614.31	47625.22
614.46	47597.13
614.62	47529.26
614.77	47320.95
614.92	47419.25
615.08	47679.05
615.23	47583.09
615.38	47463.72
615.54	47948.21
615.69	47569.05
615.84	47466.06
616.00	47777.36
616.15	47714.16
616.30	47613.52
616.46	47496.49
616.61	47583.09
616.76	47489.47
616.92	47093.92
617.07	47882.68
617.22	47547.98
617.37	46803.69
617.53	47419.25
617.68	47166.48
617.83	47433.30
617.99	47334.99
618.14	47576.07
618.29	47351.38
618.45	46852.84
618.60	46965.19
618.75	46803.69
618.90	47173.50
619.06	46749.86
619.21	47208.61
619.36	47379.46
619.51	47283.50
619.67	46721.77
619.82	47508.19
619.97	47210.95
620.12	47313.93
620.28	46930.08
620.43	47428.62
620.58	46932.42
620.73	47171.16
620.89	47311.59
621.04	46918.38
621.19	47082.22
621.34	47323.29
621.49	46838.80
621.65	46948.81
621.80	47201.58
621.95	47166.48
622.10	47114.98
622.25	46740.50
622.41	47044.77
622.56	46595.38
622.71	46703.05
622.86	46820.08
623.01	47084.56
623.16	46667.94
623.32	46597.73
623.47	46618.79
623.62	46555.60
623.77	46986.25
623.92	47049.45
624.07	46752.20
624.23	46733.48
624.38	46579.00
624.53	46256.01
624.68	46281.75
624.83	46586.02
624.98	46150.68
625.13	46052.38
625.29	46513.47
625.44	46628.15
625.59	46183.45
625.74	46635.17
625.89	46426.87
626.04	46253.67
626.19	45895.56
626.34	45846.41
626.49	45848.75
626.65	45677.90
626.80	46302.82
626.95	45581.93
627.10	45965.78
627.25	46108.55
627.40	46103.87
627.55	46101.53
627.70	46211.54
627.85	46110.89
628.00	46096.85
628.15	46167.07
628.30	45439.16
628.45	45170.00
628.60	45104.46
628.76	45766.84
628.91	45820.67
629.06	45476.61
629.21	45745.77
629.36	46038.34
629.51	45413.41
629.66	45785.56
629.81	45516.40
629.96	45586.61
630.11	45291.71
630.26	45333.84
630.41	45469.59
630.56	45371.28
630.71	45500.01
630.86	45181.70
631.01	45118.51
631.16	45329.16
631.31	45263.62
631.46	45055.31
631.61	45294.05
631.76	45280.00
631.91	45146.59
632.06	45820.67
632.21	45666.19
632.36	45502.35
632.51	44783.81
632.66	45289.37
632.81	45158.30
632.96	45193.40
633.10	45137.23
633.25	44842.32
633.40	44938.29
633.55	45270.64
633.70	45052.97
633.85	44966.37
634.00	44804.88
634.15	44748.70
634.30	44687.85
634.45	44814.24
634.60	44839.98
634.75	44692.53
634.90	44882.11
635.05	44685.51
635.19	44863.39
635.34	44886.79
635.49	44615.29
635.64	44746.36
635.79	44863.39
635.94	45092.76
636.09	44765.09
636.24	44533.37
636.39	44666.78
636.53	44952.33
636.68	44278.25
636.83	44411.67
636.98	44446.77
637.13	44034.84
637.28	44292.30
637.43	44514.65
637.57	44460.82
637.72	43924.83
637.87	44278.25
638.02	44140.16
638.17	44264.21
638.32	43875.68
638.46	43723.55
638.61	44088.67
638.76	43805.47
638.91	44039.52
639.06	43871.00
639.20	43449.70
639.35	43739.93
639.50	43892.07
639.65	43742.27
639.80	44191.65
639.94	44790.83
640.09	44299.32
640.24	44044.20
640.39	43985.69
640.54	43526.94
640.68	44023.14
640.83	43812.49
640.98	43765.68
641.13	43655.67
641.27	44194.00
641.42	43660.35
641.57	43636.95
641.72	43707.16
641.86	43309.27
642.01	43540.99
642.16	43585.46
642.31	43342.04
642.45	43629.93
642.60	43278.85
642.75	43363.11
642.90	43573.75
643.04	43538.65
643.19	43482.47
643.34	42962.87
643.48	42967.55
643.63	43014.37
643.78	43473.11
643.93	43679.08
644.07	43005.00
644.22	43620.56
644.37	43342.04
644.51	43496.52
644.66	43145.44
644.81	42796.70
644.95	42714.78
645.10	43250.76
645.25	42939.47
645.39	42967.55
645.54	42958.19
645.69	42897.34
645.83	42775.63
645.98	42792.01
646.13	42843.51
646.27	43056.50
646.42	42721.80
646.57	42569.66
646.71	43082.24
646.86	43042.45
647.00	43140.75
647.15	42864.57
647.30	42583.71
647.44	42478.38
647.59	42632.86
647.74	42817.76
647.88	42794.36
648.03	43096.28
648.17	43040.11
648.32	42892.66
648.47	42899.68
648.61	42646.90
648.76	42291.14
648.90	42564.98
649.05	42127.30
649.20	42349.65
649.34	42522.85
649.49	42557.96
649.63	42389.44
649.78	42572.00
649.92	42752.23
650.07	42871.59
650.21	42948.83
650.36	42752.23
650.51	42478.38
650.65	42480.72
650.80	42703.07
650.94	42256.03
651.09	42749.88
651.23	42096.88
651.38	41741.11
651.52	41509.40
651.67	41776.22
651.81	41844.10
651.96	42019.64
652.10	41357.27
652.25	41610.04
652.39	41563.23
652.54	41584.30
652.68	41928.36
652.83	41778.56
652.97	42080.49
653.12	42024.32
653.26	41738.77
653.41	41996.23
653.55	41621.75
653.70	42146.03
653.84	42061.77
653.99	41570.25
654.13	41682.60
654.27	41661.54
654.42	41390.03
654.56	41375.99
654.71	41738.77
654.85	41780.90
655.00	41553.87
655.14	41972.83
655.29	41717.71
655.43	41909.63
655.57	41230.88
655.72	41326.84
655.86	40779.15
656.01	41221.52
656.15	40751.07
656.30	41057.68
656.44	41036.61
656.58	41336.20
656.73	41308.11
656.87	40994.48
657.01	40772.13
657.16	41092.79
657.30	41163.00
657.45	40985.12
657.59	40491.27
657.73	41043.63
657.88	40765.11
658.02	40896.18
658.16	40872.78
658.31	41003.85
658.45	40774.47
658.60	40685.53
658.74	40664.47
658.88	41092.79
659.03	40566.16
659.17	39922.52
659.31	40339.13
659.46	40495.95
659.60	40357.86
659.74	40102.74
659.89	39854.64
660.03	39983.37
660.17	40076.99
660.32	40411.69
660.46	40095.72
660.60	39672.08
660.74	40102.74
660.89	40030.18
661.03	39952.94
661.17	39730.59
661.32	39796.13
661.46	40133.17
661.60	39498.88
661.74	39379.51
661.89	39557.39
662.03	39662.72
662.17	39782.09
662.31	39496.54
662.46	39587.82
662.60	38911.41
662.74	39290.57
662.88	38876.30
663.03	38726.50
663.17	38712.46
663.31	38794.38
663.45	39501.22
663.60	39136.10
663.74	39105.67
663.88	39143.12
664.02	39028.43
664.17	39335.04
664.31	39203.97
664.45	38590.75
664.59	39061.20
664.73	38642.24
664.88	39110.35
665.02	38511.17
665.16	38841.19
665.30	38155.41
665.44	39002.69
665.59	38277.12
665.73	37736.46
665.87	37759.86
666.01	38010.30
666.15	38127.33
666.29	38127.33
666.44	37991.58
666.58	38323.93
666.72	37633.47
666.86	37989.24
667.00	37673.26
667.14	37729.44
667.28	37673.26
667.43	37439.21
667.57	38213.93
667.71	37511.77
667.85	37806.67
667.99	37825.40
668.13	37141.96
668.27	37436.87
668.41	37060.04
668.56	37031.96
668.70	36809.61
668.84	36804.92
668.98	36683.22
669.12	36725.35
669.26	36978.12
669.40	37067.06
669.54	36980.46
669.68	36797.90
669.82	36814.29
669.96	36264.26
670.10	36046.59
670.25	36336.82
670.39	36217.45
670.53	36219.79
670.67	36498.31
670.81	36608.32
670.95	36350.86
671.09	36011.48
671.23	35559.76
671.37	36151.91
671.51	35992.76
671.65	36107.44
671.79	35433.37
671.93	35742.32
672.07	35702.53
672.21	35821.90
672.35	35482.52
672.49	35431.03
672.63	35157.19
672.77	35129.10
672.91	35459.12
673.05	35306.98
673.19	35152.51
673.33	34670.36
673.47	34637.59
673.61	34841.21
673.75	34457.37
673.89	34614.18
674.03	34338.00
674.17	34272.46
674.31	34169.48
674.45	34122.67
674.59	33846.49
674.73	34052.45
674.87	34052.45
675.01	33883.94
675.15	33818.40
675.29	33404.13
675.43	33867.55
675.56	33514.13
675.70	33329.23
675.84	33322.21
675.98	32580.26
676.12	33219.22
676.26	33010.92
676.40	32795.59
676.54	32496.00
676.68	32849.42
676.82	32266.63
676.96	32601.32
677.10	32886.87
677.23	32748.78
677.37	32261.94
677.51	32608.34
677.65	32278.33
677.79	32233.86
677.93	32446.85
678.07	31866.39
678.21	31761.07
678.34	31541.06
678.48	31873.42
678.62	31775.11
678.76	31391.26
678.90	31519.99
679.04	31632.34
679.18	31318.71
679.31	30803.79
679.45	30792.09
679.59	30969.97
679.73	30976.99
679.87	30663.36
680.00	31016.78
680.14	30464.41
680.28	30733.57
680.42	30221.00
680.56	29991.62
680.70	30199.93
680.83	30146.10
680.97	30038.44
681.11	29860.55
681.25	29748.21
681.39	29518.84
681.52	29759.91
681.66	29277.76
681.80	29095.20
681.94	28765.18
682.07	28821.36
682.21	28751.14
682.35	28645.82
682.49	28849.44
682.62	28760.50
682.76	28936.04
682.90	28418.78
683.04	28348.57
683.17	28205.80
683.31	28044.30
683.45	28020.89
683.59	27812.59
683.72	27770.46
683.86	28151.96
684.00	27604.28
684.13	27772.80
684.27	27641.73
684.41	27182.98
684.55	27566.83
684.68	27260.22
684.82	27206.39
684.96	27269.58
685.09	27311.71
685.23	27129.15
685.37	27477.89
685.50	27435.76
685.64	26773.39
685.78	26759.34
685.91	26321.66
686.05	25986.97
686.19	26043.14
686.32	26164.85
686.46	25923.77
686.60	25315.23
686.73	25750.57
686.87	25535.24
687.01	25834.83
687.14	25862.92
687.28	25233.32
687.42	25537.59
687.55	25223.95
687.69	25287.15
687.82	25142.03
687.96	25184.16
688.10	24886.92
688.23	25010.96
688.37	24819.04
688.50	24744.14
688.64	24610.73
688.78	24662.22
688.91	24482.00
689.05	24355.61
689.18	23983.47
689.32	23690.90
689.46	24023.26
689.59	23557.49
689.73	23985.81
689.86	23864.10
690.00	23946.02
690.13	23749.42
690.27	23644.09
690.41	23487.28
690.54	23396.00
690.68	23065.98
690.81	23023.85
690.95	22960.66
691.08	22808.52
691.22	22623.62
691.35	22871.72
691.49	23021.51
691.62	22759.37
691.76	22417.65
691.89	22080.61
692.03	22099.34
692.16	22401.27
692.30	21865.28
692.43	22038.48
692.57	21675.70
692.70	21408.88
692.84	21640.59
692.97	21153.76
693.11	21275.47
693.24	21104.61
693.38	21188.87
693.51	21177.17
693.65	20980.56
693.78	20987.58
693.92	20758.21
694.05	20936.09
694.19	20737.15
694.32	20821.41
694.45	20999.29
694.59	20786.30
694.72	20720.76
694.86	20173.08
694.99	20262.02
695.13	20013.92
695.26	20173.08
695.39	19587.94
695.53	19721.35
695.66	20161.37
695.80	19543.47
695.93	19681.56
696.07	19372.61
696.20	19286.01
696.33	19058.98
696.47	19007.49
696.60	18810.89
696.73	19295.38
696.87	19063.66
697.00	18988.77
697.14	18864.72
697.27	18799.18
697.40	18562.79
697.54	18429.38
697.67	18698.54
697.80	18410.65
697.94	18312.35
698.07	18015.10
698.21	17965.95
698.34	17626.57
698.47	17874.67
698.61	17610.19
698.74	17624.23
698.87	17509.55
699.01	17696.79
699.14	17678.07
699.27	17659.34
699.40	17195.92
699.54	17406.56
699.67	17242.73
699.80	17198.26
699.94	17071.87
700.07	16924.41
700.20	16912.71
700.34	16659.93
700.47	16762.92
700.60	17207.62
700.73	16795.68
700.87	16482.05
701.00	16271.40
701.13	16210.55
701.26	16313.53
701.40	15985.86
701.53	15829.04
701.66	16365.03
701.79	15913.30
701.93	15566.90
702.06	15594.99
702.19	15503.71
702.32	15976.50
702.46	15740.10
702.59	15653.50
702.72	15489.67
702.85	15552.86
702.99	15578.61
703.12	15178.37
703.25	14981.77
703.38	14906.87
703.51	14813.25
703.65	14892.83
703.78	14640.05
703.91	14668.14
704.04	14640.05
704.17	14342.80
704.31	14375.57
704.44	14600.26
704.57	14422.38
704.70	14209.39
704.83	14045.55
704.96	13963.64
705.10	14108.75
705.23	13921.51
>>>>>End Processed Spectral Data<<<<<
