SpectraSuite Data File
++++++++++++++++++++++++++++++++++++
Date: Fri Oct 25 10:44:08 EDT 2013
User: price-jones
Dark Spectrum Present: No
Reference Spectrum Present: No
Number of Sampled Component Spectra: 1
Spectrometers: USB2+H05261
Integration Time (usec): 100000 (USB2+H05261)
Spectra Averaged: 1 (USB2+H05261)
Boxcar Smoothing: 0 (USB2+H05261)
Correct for Electrical Dark: No (USB2+H05261)
Strobe/Lamp Enabled: No (USB2+H05261)
Correct for Detector Non-linearity: No (USB2+H05261)
Correct for Stray Light: No (USB2+H05261)
Number of Pixels in Processed Spectrum: 2048
>>>>>Begin Processed Spectral Data<<<<<
365.73	131.07
365.92	131.07
366.12	131.07
366.32	0.00
366.52	0.00
366.72	0.00
366.91	0.00
367.11	51.49
367.31	7.02
367.51	25.75
367.70	4.68
367.90	0.00
368.10	4.68
368.30	46.81
368.49	21.06
368.69	51.49
368.89	4.68
369.09	0.00
369.28	95.96
369.48	39.79
369.68	39.79
369.87	126.39
370.07	102.98
370.27	86.60
370.47	210.65
370.66	381.51
370.86	383.85
371.06	468.11
371.25	440.02
371.45	418.96
371.65	538.32
371.84	407.25
372.04	496.19
372.24	477.47
372.44	435.34
372.63	519.60
372.83	486.83
373.03	526.62
373.22	519.60
373.42	484.49
373.62	571.09
373.81	575.77
374.01	578.11
374.21	543.00
374.40	524.28
374.60	634.29
374.79	493.85
374.99	552.37
375.19	575.77
375.38	669.39
375.58	667.05
375.78	636.63
375.97	664.71
376.17	554.71
376.37	664.71
376.56	606.20
376.76	634.29
376.95	601.52
377.15	606.20
377.35	657.69
377.54	690.46
377.74	641.31
377.93	671.73
378.13	631.94
378.33	758.33
378.52	585.13
378.72	620.24
378.91	657.69
379.11	648.33
379.31	650.67
379.50	638.97
379.70	676.41
379.89	767.70
380.09	676.41
380.28	636.63
380.48	744.29
380.68	753.65
380.87	690.46
381.07	690.46
381.26	669.39
381.46	716.20
381.65	683.44
381.85	748.97
382.04	767.70
382.24	648.33
382.43	706.84
382.63	725.57
382.83	734.93
383.02	676.41
383.22	823.87
383.41	704.50
383.61	739.61
383.80	861.32
384.00	753.65
384.19	744.29
384.39	849.61
384.58	777.06
384.78	807.48
384.97	758.33
385.17	807.48
385.36	777.06
385.56	765.36
385.75	826.21
385.95	791.10
386.14	837.91
386.34	882.38
386.53	842.59
386.72	854.30
386.92	917.49
387.11	800.46
387.31	856.64
387.50	891.74
387.70	823.87
387.89	882.38
388.09	908.13
388.28	961.96
388.48	816.85
388.67	999.41
388.86	936.21
389.06	954.94
389.25	978.34
389.45	1069.62
389.64	929.19
389.84	1036.86
390.03	1050.90
390.22	1011.11
390.42	1008.77
390.61	931.53
390.81	1039.20
391.00	947.92
391.19	1125.80
391.39	1095.37
391.58	1095.37
391.78	985.37
391.97	1041.54
392.16	978.34
392.36	1095.37
392.55	973.66
392.75	1043.88
392.94	924.51
393.13	964.30
393.33	985.37
393.52	1050.90
393.71	1041.54
393.91	1086.01
394.10	1064.94
394.29	1114.10
394.49	1275.59
394.68	1249.85
394.88	1184.31
395.07	1249.85
395.26	1256.87
395.46	1282.61
395.65	1252.19
395.84	1256.87
396.04	1291.98
396.23	1128.14
396.42	1100.05
396.62	1184.31
396.81	1219.42
397.00	1149.20
397.19	1228.78
397.39	1299.00
397.58	1322.40
397.77	1401.98
397.97	1411.34
398.16	1404.32
398.35	1437.09
398.55	1385.60
398.74	1451.13
398.93	1624.33
399.12	1486.24
399.32	1528.37
399.51	1460.49
399.70	1551.78
399.90	1537.73
400.09	1673.48
400.28	1659.44
400.47	1619.65
400.67	1621.99
400.86	1584.54
401.05	1605.61
401.24	1661.78
401.44	1650.08
401.63	1689.87
401.82	1788.17
402.01	1652.42
402.21	1734.34
402.40	1708.59
402.59	1776.47
402.78	1802.21
402.97	1703.91
403.17	1652.42
403.36	1823.28
403.55	1764.76
403.74	1783.49
403.93	1853.70
404.13	1811.57
404.32	1823.28
404.51	1856.04
404.70	1886.47
404.89	1856.04
405.09	1914.56
405.28	2019.88
405.47	1874.77
405.66	2026.90
405.85	2012.86
406.05	2001.16
406.24	2010.52
406.43	2005.84
406.62	1982.43
406.81	2165.00
407.00	2132.23
407.20	2024.56
407.39	2069.03
407.58	2062.01
407.77	2129.89
407.96	2256.28
408.15	2125.21
408.34	2157.97
408.54	2193.08
408.73	2214.15
408.92	2230.53
409.11	2204.78
409.30	2338.20
409.49	2303.09
409.68	2169.68
409.87	2335.85
410.07	2146.27
410.26	2406.07
410.45	2331.17
410.64	2410.75
410.83	2490.33
411.02	2670.55
411.21	2572.25
411.40	2504.37
411.59	2541.82
411.78	2691.62
411.98	2614.38
412.17	2562.89
412.36	2642.46
412.55	2689.28
412.74	2768.85
412.93	2729.06
413.12	2658.85
413.31	2862.48
413.50	2750.13
413.69	2789.92
413.88	2920.99
414.07	2810.98
414.26	2928.01
414.45	2986.52
414.64	2998.23
414.83	2906.95
415.02	2958.44
415.22	3061.42
415.41	3045.04
415.60	3197.17
415.79	3234.62
415.98	3234.62
416.17	3272.07
416.36	3152.70
416.55	3098.87
416.74	3321.22
416.93	3133.98
417.12	3253.34
417.31	3344.63
417.50	3342.28
417.69	3384.41
417.88	3295.47
418.07	3339.94
418.26	3438.25
418.45	3344.63
418.64	3578.68
418.83	3557.61
419.02	3492.08
419.21	3510.80
419.39	3557.61
419.58	3585.70
419.77	3625.49
419.96	3510.80
420.15	3669.96
420.34	3583.36
420.53	3763.58
420.72	3871.25
420.91	3836.14
421.10	3847.84
421.29	3887.63
421.48	3702.73
421.67	3826.78
421.86	3805.71
422.05	3758.90
422.24	3763.58
422.43	3880.61
422.61	3885.29
422.80	3911.04
422.99	3742.52
423.18	4028.06
423.37	3906.35
423.56	3829.12
423.75	3911.04
423.94	3899.33
424.13	3672.30
424.32	3873.59
424.50	3887.63
424.69	3904.01
424.88	3981.25
425.07	3941.46
425.26	3864.22
425.45	3822.09
425.64	3932.10
425.83	3997.64
426.01	3894.65
426.20	3941.46
426.39	4049.13
426.58	3953.16
426.77	3953.16
426.96	3957.85
427.15	3974.23
427.33	4067.85
427.52	4067.85
427.71	4025.72
427.90	4025.72
428.09	4121.68
428.28	4081.89
428.46	4252.75
428.65	4255.09
428.84	4222.33
429.03	4140.41
429.22	4042.11
429.40	4042.11
429.59	4009.34
429.78	4028.06
429.97	3953.16
430.16	3934.44
430.34	4187.22
430.53	4084.23
430.72	4100.62
430.91	4159.13
431.10	4280.84
431.28	4610.86
431.47	4678.73
431.66	4650.64
431.85	4432.97
432.03	4662.35
432.22	4690.43
432.41	4610.86
432.60	4582.77
432.79	4486.81
432.97	4674.05
433.16	4674.05
433.35	4587.45
433.54	4711.50
433.72	4737.24
433.91	4636.60
434.10	4573.41
434.28	4697.46
434.47	4823.84
434.66	4786.40
434.85	4873.00
435.03	4938.53
435.22	4966.62
435.41	5071.94
435.59	4919.81
435.78	5174.92
435.97	5177.26
436.16	5193.65
436.34	4985.34
436.53	5121.09
436.72	5383.23
436.90	5116.41
437.09	5132.79
437.28	4952.57
437.46	5226.42
437.65	5100.03
437.84	5188.97
438.02	5081.30
438.21	5221.74
438.40	5027.47
438.58	5320.04
438.77	5298.97
438.96	5135.14
439.14	5420.68
439.33	5741.33
439.52	5600.90
439.70	5554.09
439.89	5708.57
440.08	5675.80
440.26	5661.76
440.45	5582.18
440.63	5785.80
440.82	5907.51
441.01	5724.95
441.19	6101.78
441.38	5968.37
441.57	5919.21
441.75	6230.51
441.94	6326.47
442.12	6209.44
442.31	6291.36
442.50	6277.32
442.68	6324.13
442.87	6251.57
443.05	6289.02
443.24	6455.20
443.43	6445.84
443.61	6471.58
443.80	6679.89
443.98	6427.11
444.17	6188.38
444.35	6375.62
444.54	6607.33
444.73	6452.86
444.91	6436.47
445.10	6438.81
445.28	6286.68
445.47	6246.89
445.65	6373.28
445.84	6485.62
446.02	6509.03
446.21	6396.68
446.39	6525.41
446.58	6768.83
446.77	6487.96
446.95	6644.78
447.14	6644.78
447.32	6799.26
447.51	6649.46
447.69	6469.24
447.88	6558.18
448.06	6604.99
448.25	6530.09
448.43	6644.78
448.62	6619.04
448.80	6832.02
448.99	6710.32
449.17	6733.72
449.36	6806.28
449.54	6878.83
449.73	6902.24
449.91	7019.27
450.10	7040.33
450.28	7199.49
450.46	7117.57
450.65	7103.53
450.83	6981.82
451.02	6988.84
451.20	7047.35
451.39	6977.14
451.57	7052.03
451.76	7063.74
451.94	7311.83
452.13	7241.62
452.31	7180.76
452.49	7164.38
452.68	7063.74
452.86	7229.91
453.05	7265.02
453.23	7393.75
453.42	7279.07
453.60	7225.23
453.78	7318.86
453.97	7288.43
454.15	7253.32
454.34	7375.03
454.52	7573.97
454.70	7454.61
454.89	7356.30
455.07	7515.46
455.26	7602.06
455.44	7695.68
455.62	7693.34
455.81	7866.54
455.99	7815.05
456.17	7737.81
456.36	7761.22
456.54	7857.18
456.73	7822.07
456.91	8037.40
457.09	8018.68
457.28	8201.24
457.46	8053.78
457.64	8109.96
457.83	8121.66
458.01	7918.03
458.19	8222.30
458.38	8133.36
458.56	8215.28
458.74	8418.91
458.93	7950.80
459.11	8154.43
459.29	8234.00
459.48	8297.20
459.66	8444.65
459.84	8411.89
460.03	8456.36
460.21	8456.36
460.39	8451.67
460.57	8461.04
460.76	8514.87
460.94	8599.13
461.12	8451.67
461.31	8601.47
461.49	8585.08
461.67	8601.47
461.85	8746.58
462.04	8606.15
462.22	9184.26
462.40	8788.71
462.59	8816.80
462.77	8788.71
462.95	8905.74
463.13	8758.28
463.32	8884.67
463.50	8938.51
463.68	8879.99
463.86	8936.17
464.05	8734.88
464.23	8816.80
464.41	9036.81
464.59	8982.98
464.78	9287.25
464.96	9102.34
465.14	8800.41
465.32	9100.00
465.50	9247.46
465.69	9252.14
465.87	9074.26
466.05	9170.22
466.23	9095.32
466.41	9249.80
466.60	9305.97
466.78	9114.05
466.96	8987.66
467.14	9270.86
467.32	9193.62
467.51	9455.76
467.69	9121.07
467.87	9383.21
468.05	9432.36
468.23	9401.93
468.41	9593.86
468.60	9554.07
468.78	9696.84
468.96	9486.19
469.14	9617.26
469.32	9671.09
469.50	9525.98
469.69	9865.36
469.87	9750.67
470.05	9776.42
470.23	9980.04
470.41	9701.52
470.59	9823.23
470.77	9706.20
470.95	9909.83
471.14	10188.35
471.32	9961.32
471.50	10368.57
471.68	10164.95
471.86	10321.76
472.04	10284.31
472.22	10633.05
472.40	9961.32
472.58	10436.45
472.77	10403.68
472.95	10541.77
473.13	10958.39
473.31	10485.60
473.49	10377.94
473.67	10370.91
473.85	10764.12
474.03	10789.87
474.21	10792.21
474.39	10902.22
474.57	11164.36
474.75	11070.73
474.93	11030.94
475.12	11037.97
475.30	11171.38
475.48	11108.18
475.66	11302.45
475.84	11332.87
476.02	11243.93
476.20	11337.56
476.38	11403.09
476.56	11770.55
476.74	11836.09
476.92	11599.70
477.10	11903.96
477.28	12116.95
477.46	12028.01
477.64	12152.06
477.82	12088.87
478.00	12627.19
478.18	12437.61
478.36	12643.57
478.54	12706.77
478.72	12601.44
478.90	12844.86
479.08	12896.35
479.26	13069.55
479.44	12945.50
479.62	13034.44
479.80	13156.15
479.98	13207.64
480.16	13561.06
480.34	13483.83
480.52	13813.84
480.70	13694.47
480.88	13671.07
481.06	13940.23
481.24	13689.79
481.41	14120.45
481.59	14228.12
481.77	14511.32
481.95	14473.87
482.13	14413.02
482.31	14527.71
482.49	14604.94
482.67	14717.29
482.85	14970.07
483.03	14984.11
483.21	15468.60
483.39	15377.32
483.57	15070.71
483.74	15611.37
483.92	15658.18
484.10	15445.20
484.28	15822.02
484.46	16159.06
484.64	16407.16
484.82	15667.55
485.00	16067.78
485.18	16397.79
485.35	16765.26
485.53	16046.71
485.71	16315.87
485.89	16673.98
486.07	16381.41
486.25	16563.97
486.43	16666.95
486.61	17076.55
486.78	17156.13
486.96	17446.35
487.14	17570.40
487.32	17532.95
487.50	17755.30
487.68	18120.43
487.85	18429.38
488.03	18153.20
488.21	18239.79
488.39	18705.56
488.57	18569.81
488.75	18689.18
488.92	18991.11
489.10	19164.31
489.28	19297.72
489.46	19234.52
489.64	19487.30
489.81	20086.48
489.99	20034.99
490.17	20025.62
490.35	20397.77
490.53	20137.97
490.70	20107.54
490.88	20119.24
491.06	20798.00
491.24	20573.31
491.41	20695.02
491.59	20666.93
491.77	20568.63
491.95	21085.89
492.13	21289.51
492.30	21619.53
492.48	21413.56
492.66	21514.20
492.84	21668.68
493.01	22148.49
493.19	22136.79
493.37	22045.51
493.54	22253.81
493.72	22169.55
493.90	22370.84
494.08	22951.29
494.25	22944.27
494.43	22888.10
494.61	22897.46
494.79	23440.47
494.96	23103.43
495.14	23534.09
495.32	23468.55
495.49	23639.41
495.67	23782.18
495.85	24102.84
496.02	24222.20
496.20	24187.10
496.38	24140.29
496.55	24198.80
496.73	24741.80
496.91	25076.50
497.09	24797.98
497.26	25003.94
497.44	24999.26
497.62	25090.54
497.79	25001.60
497.97	25010.96
498.14	25163.10
498.32	25469.71
498.50	25303.53
498.67	25921.43
498.85	25846.54
499.03	26169.53
499.20	25986.97
499.38	25872.28
499.56	26326.35
499.73	26204.64
499.91	26333.37
500.08	26604.87
500.26	26183.57
500.44	26487.84
500.61	26253.79
500.79	26391.88
500.97	26326.35
501.14	26717.22
501.32	26827.22
501.49	27227.45
501.67	27051.91
501.84	27611.30
502.02	27145.53
502.20	27632.36
502.37	27749.39
502.55	27356.18
502.72	27896.85
502.90	27637.05
503.07	27683.86
503.25	28102.81
503.43	27700.24
503.60	27711.94
503.78	27917.91
503.95	28362.61
504.13	27967.06
504.30	28533.47
504.48	28753.48
504.65	28744.12
504.83	28896.25
505.01	29254.36
505.18	28931.36
505.36	29668.63
505.53	29385.43
505.71	29600.76
505.88	29750.55
506.06	29443.94
506.23	29902.68
506.41	29827.79
506.58	29703.74
506.76	29750.55
506.93	29809.06
507.11	30026.73
507.28	29876.94
507.46	29872.26
507.63	29841.83
507.81	30326.32
507.98	30284.19
508.16	30256.11
508.33	30827.20
508.50	30567.40
508.68	30691.44
508.85	30618.89
509.03	30775.70
509.20	30960.61
509.38	30878.69
509.55	31189.98
509.73	31133.81
509.90	30911.46
510.08	30829.54
510.25	31227.43
510.42	31072.95
510.60	31800.86
510.77	31812.56
510.95	31805.54
511.12	31658.09
511.30	32144.92
511.47	32095.77
511.64	32449.19
511.82	32395.35
511.99	31962.36
512.17	32449.19
512.34	32098.11
512.51	32488.98
512.69	32610.68
512.86	33099.86
513.04	32900.91
513.21	32538.13
513.38	32348.54
513.56	32769.84
513.73	32692.60
513.90	33031.98
514.08	33090.49
514.25	32587.28
514.43	33198.16
514.60	33046.02
514.77	33081.13
514.95	33680.31
515.12	33640.52
515.29	33530.51
515.47	33703.71
515.64	33853.51
515.81	33479.02
515.99	33591.37
516.16	34089.90
516.33	33219.22
516.51	33488.38
516.68	33060.07
516.85	33333.91
517.03	33244.97
517.20	33532.86
517.37	34256.08
517.54	34066.50
517.72	34174.16
517.89	34101.61
518.06	33827.76
518.24	33724.78
518.41	34218.63
518.58	34646.95
518.75	34080.54
518.93	35454.44
519.10	34717.17
519.27	35138.46
519.45	34696.10
519.62	35536.35
519.79	35255.49
519.96	35253.15
520.14	35599.55
520.31	35304.64
520.48	35480.18
520.65	35204.00
520.83	36151.91
521.00	35800.83
521.17	35920.20
521.34	35639.34
521.52	36123.83
521.69	36034.89
521.86	36624.70
522.03	35828.92
522.20	35985.74
522.38	36268.94
522.55	36449.16
522.72	36575.55
522.89	36446.82
523.07	36268.94
523.24	36224.47
523.41	36720.66
523.58	36491.29
523.75	37291.76
523.92	37212.18
524.10	37146.64
524.27	37207.50
524.44	37553.90
524.61	37418.14
524.78	37352.61
524.96	37364.31
525.13	37734.12
525.30	37518.79
525.47	37893.27
525.64	37390.06
525.81	37724.75
525.98	37216.86
526.16	37256.65
526.33	37317.50
526.50	37443.89
526.67	37303.46
526.84	37474.32
527.01	37179.41
527.18	37778.59
527.36	38080.52
527.53	38389.47
527.70	38401.17
527.87	38581.39
528.04	38113.28
528.21	38518.20
528.38	38167.12
528.55	38082.86
528.72	38532.24
528.89	38675.01
529.07	38810.76
529.24	38789.70
529.41	38686.71
529.58	38480.75
529.75	38707.78
529.92	38958.22
530.09	38899.70
530.26	39093.97
530.43	39093.97
530.60	39100.99
530.77	39063.54
530.94	39267.17
531.11	39426.32
531.28	39416.96
531.46	39370.15
531.63	39381.85
531.80	39168.87
531.97	39543.35
532.14	39262.49
532.31	39267.17
532.48	39119.71
532.65	39466.11
532.82	39199.29
532.99	39835.92
533.16	39360.79
533.33	40236.15
533.50	40184.66
533.67	39875.71
533.84	39662.72
534.01	40072.31
534.18	39976.35
534.35	40397.65
534.52	39894.43
534.69	39723.57
534.86	40367.22
535.03	40538.08
535.20	40685.53
535.37	40746.39
535.54	40828.30
535.71	40409.35
535.88	40624.68
536.05	40652.76
536.22	40727.66
536.38	40891.50
536.55	40727.66
536.72	40376.58
536.89	40327.43
537.06	40938.31
537.23	40870.43
537.40	41064.70
537.57	41514.08
537.74	41071.72
537.91	41577.28
538.08	41221.52
538.25	40725.32
538.42	41486.00
538.59	41329.18
538.75	41291.73
538.92	41354.93
539.09	41174.70
539.26	41401.74
539.43	41368.97
539.60	41404.08
539.77	41303.43
539.94	41111.51
540.11	41291.73
540.28	41411.10
540.44	40989.80
540.61	41551.53
540.78	41572.60
540.95	41497.70
541.12	42131.98
541.29	41521.10
541.46	41869.84
541.62	41911.97
541.79	42134.32
541.96	41893.25
542.13	42000.91
542.30	42078.15
542.47	41734.09
542.63	41773.88
542.80	42052.41
542.97	42763.93
543.14	42583.71
543.31	42941.81
543.48	42651.58
543.64	42995.64
543.81	42749.88
543.98	42710.10
544.15	42548.60
544.32	42810.74
544.48	43103.31
544.65	42920.74
544.82	42794.36
544.99	42679.67
545.16	43089.26
545.32	42728.82
545.49	43480.13
545.66	43285.87
545.83	43267.14
546.00	43250.76
546.16	43173.52
546.33	43192.25
546.50	42754.57
546.67	43332.68
546.83	42850.53
547.00	43122.03
547.17	43311.61
547.34	43290.55
547.50	43449.70
547.67	43225.01
547.84	43655.67
548.00	43648.65
548.17	43927.17
548.34	43866.32
548.51	43566.73
548.67	43580.78
548.84	43990.37
549.01	43182.88
549.18	43540.99
549.34	43573.75
549.51	44163.57
549.68	44032.50
549.84	44137.82
550.01	43941.22
550.18	43576.09
550.34	44121.44
550.51	44037.18
550.68	43988.03
550.84	43405.23
551.01	44098.03
551.18	44020.80
551.34	44109.74
551.51	44238.47
551.68	44023.14
551.84	44205.70
552.01	44069.95
552.18	43856.96
552.34	44320.38
552.51	44397.62
552.68	43915.47
552.84	44832.96
553.01	44650.40
553.18	44367.20
553.34	44189.31
553.51	43973.98
553.67	44294.64
553.84	44713.59
554.01	44388.26
554.17	44898.50
554.34	45113.83
554.51	44589.55
554.67	44818.92
554.84	44629.34
555.00	44734.66
555.17	44369.54
555.33	44748.70
555.50	44811.90
555.67	44786.15
555.83	44751.04
556.00	44961.69
556.16	45291.71
556.33	44898.50
556.50	44804.88
556.66	44903.18
556.83	44458.48
556.99	45254.26
557.16	45076.38
557.32	44844.66
557.49	45104.46
557.65	45067.02
557.82	45382.99
557.98	44954.67
558.15	45352.56
558.32	45151.27
558.48	45345.54
558.65	45050.63
558.81	44975.73
558.98	44942.97
559.14	45034.25
559.31	45242.56
559.47	45062.33
559.64	45380.65
559.80	45535.12
559.97	45069.36
560.13	45338.52
560.30	45404.05
560.46	45476.61
560.63	45359.58
560.79	45256.60
560.96	45897.91
561.12	45289.37
561.29	45357.24
561.45	45221.49
561.61	45317.45
561.78	45237.87
561.94	45022.54
562.11	45495.33
562.27	45177.02
562.44	45443.84
562.60	45860.46
562.77	45474.27
562.93	45567.89
563.10	46024.29
563.26	45221.49
563.42	45879.18
563.59	45375.97
563.75	45539.80
563.92	45890.88
564.08	46064.08
564.24	45649.81
564.41	45436.82
564.57	45588.95
564.74	45567.89
564.90	45537.46
565.07	45762.15
565.23	45897.91
565.39	46007.91
565.56	46103.87
565.72	44828.28
565.88	45717.68
566.05	45485.97
566.21	45375.97
566.38	45825.35
566.54	45682.58
566.70	46234.94
566.87	46347.29
567.03	45883.86
567.19	46197.49
567.36	45865.14
567.52	45617.04
567.68	46085.15
567.85	45474.27
568.01	45794.92
568.17	45572.57
568.34	46021.95
568.50	45984.51
568.66	45764.49
568.83	45921.31
568.99	45684.92
569.15	45909.61
569.32	45469.59
569.48	45408.73
569.64	45986.85
569.81	46164.73
569.97	45612.36
570.13	46157.70
570.30	45668.53
570.46	45705.98
570.62	45460.23
570.78	45287.03
570.95	45584.27
571.11	45778.54
571.27	45825.35
571.43	45834.71
571.60	45972.80
571.76	45736.41
571.92	46007.91
572.09	45879.18
572.25	45603.00
572.41	46082.81
572.57	46209.20
572.74	46445.59
572.90	46267.71
573.06	46316.86
573.22	45979.82
573.38	45837.05
573.55	46031.32
573.71	46419.84
573.87	46045.36
574.03	45935.35
574.20	45806.62
574.36	45888.54
574.52	45820.67
574.68	45940.04
574.84	45895.56
575.01	46040.68
575.17	45769.18
575.33	45757.47
575.49	46066.42
575.65	46197.49
575.82	46256.01
575.98	46045.36
576.14	46504.10
576.30	46321.54
576.46	45982.16
576.62	45755.13
576.79	46033.66
576.95	45794.92
577.11	45839.39
577.27	46431.55
577.43	46059.40
577.59	46110.89
577.75	45603.00
577.92	45485.97
578.08	45687.26
578.24	45954.08
578.40	45928.33
578.56	46162.39
578.72	46382.40
578.88	45865.14
579.04	46185.79
579.21	46253.67
579.37	46461.97
579.53	46234.94
579.69	45722.37
579.85	46092.17
580.01	46354.31
580.17	45996.21
580.33	45970.46
580.49	46096.85
580.65	46403.46
580.82	46464.32
580.98	46176.43
581.14	45720.02
581.30	45942.38
581.46	46784.97
581.62	46078.13
581.78	46230.26
581.94	46248.99
582.10	46108.55
582.26	46244.30
582.42	46230.26
582.58	46192.81
582.74	45984.51
582.90	46342.61
583.06	46745.18
583.22	46307.50
583.38	46684.33
583.54	46326.22
583.70	46335.59
583.86	46078.13
584.02	46019.61
584.18	46485.38
584.34	46382.40
584.50	46377.72
584.66	46021.95
584.82	45970.46
584.98	46185.79
585.14	46181.11
585.30	46136.64
585.46	46569.64
585.62	45935.35
585.78	45661.51
585.94	45198.09
586.10	46204.52
586.26	46288.77
586.42	46396.44
586.58	46045.36
586.74	46628.15
586.90	46061.74
587.06	46038.34
587.22	46277.07
587.38	46014.93
587.54	46469.00
587.70	46586.02
587.86	46337.93
588.02	46422.19
588.18	46557.94
588.34	46188.13
588.49	45504.70
588.65	45764.49
588.81	45485.97
588.97	46010.25
589.13	45455.54
589.29	45982.16
589.45	46244.30
589.61	46272.39
589.77	46237.28
589.93	46337.93
590.08	46408.14
590.24	46541.55
590.40	46555.60
590.56	46422.19
590.72	46625.81
590.88	46251.33
591.04	46642.20
591.20	46618.79
591.35	46504.10
591.51	46993.28
591.67	46438.57
591.83	46237.28
591.99	46244.30
592.15	46286.43
592.31	46483.04
592.46	46103.87
592.62	46291.12
592.78	46644.54
592.94	46667.94
593.10	45787.90
593.26	46731.14
593.41	46129.62
593.57	46382.40
593.73	46389.42
593.89	46199.83
594.05	46153.02
594.20	46616.45
594.36	46436.23
594.52	46092.17
594.68	46092.17
594.84	46148.34
594.99	46784.97
595.15	46387.08
595.31	46642.20
595.47	46717.09
595.62	46569.64
595.78	46639.86
595.94	46394.10
596.10	46438.57
596.25	46738.16
596.41	46656.24
596.57	46171.75
596.73	46335.59
596.88	46450.27
597.04	46401.12
597.20	46445.59
597.36	46689.01
597.51	46726.46
597.67	46672.62
597.83	46316.86
597.99	46796.67
598.14	46459.63
598.30	46363.67
598.46	46216.22
598.61	46410.48
598.77	46253.67
598.93	46492.40
599.09	46361.33
599.24	46864.55
599.40	46646.88
599.56	46265.37
599.71	46370.69
599.87	46532.19
600.03	46625.81
600.18	46466.66
600.34	46508.79
600.50	46424.53
600.65	46426.87
600.81	46658.58
600.97	46349.63
601.12	46213.88
601.28	46014.93
601.44	46576.66
601.59	46213.88
601.75	46403.46
601.91	46644.54
602.06	46176.43
602.22	46337.93
602.37	46485.38
602.53	46370.69
602.69	46391.76
602.84	46658.58
603.00	46419.84
603.16	46251.33
603.31	46789.65
603.47	46323.88
603.62	46199.83
603.78	46611.77
603.94	46131.96
604.09	46665.60
604.25	46677.30
604.40	46082.81
604.56	46174.09
604.71	46440.91
604.87	46391.76
605.03	46248.99
605.18	46148.34
605.34	45982.16
605.49	45787.90
605.65	46368.35
605.80	46202.18
605.96	46246.65
606.12	46745.18
606.27	46396.44
606.43	46354.31
606.58	46110.89
606.74	46019.61
606.89	45933.01
607.05	46490.06
607.20	46394.10
607.36	46017.27
607.51	45844.07
607.67	46099.19
607.82	46485.38
607.98	45675.55
608.13	45656.83
608.29	45617.04
608.44	46071.10
608.60	45631.08
608.75	45930.67
608.91	45532.78
609.06	45893.22
609.22	46358.99
609.37	45462.57
609.53	45794.92
609.68	46342.61
609.84	45621.72
609.99	45991.53
610.15	45656.83
610.30	45954.08
610.46	45778.54
610.61	45783.22
610.76	46028.98
610.92	46167.07
611.07	45902.59
611.23	45752.79
611.38	45645.13
611.54	45993.87
611.69	45364.26
611.84	45432.14
612.00	45120.85
612.15	45748.11
612.31	45612.36
612.46	45090.42
612.62	45633.42
612.77	45420.44
612.92	45621.72
613.08	45490.65
613.23	45698.96
613.39	45530.44
613.54	44933.60
613.69	45586.61
613.85	45167.66
614.00	45081.06
614.15	45631.08
614.31	45364.26
614.46	45846.41
614.62	45015.52
614.77	45357.24
614.92	45453.20
615.08	45242.56
615.23	44858.71
615.38	44989.78
615.54	44907.86
615.69	45200.43
615.84	44690.19
616.00	45141.91
616.15	44678.49
616.30	44851.69
616.46	44683.17
616.61	44898.50
616.76	45041.27
616.92	44685.51
617.07	44325.07
617.22	44577.84
617.37	44456.14
617.53	45209.79
617.68	45006.16
617.83	44568.48
617.99	45167.66
618.14	44786.15
618.29	44966.37
618.45	44645.72
618.60	44582.52
618.75	44687.85
618.90	44392.94
619.06	44493.58
619.21	44825.94
619.36	45134.89
619.51	44907.86
619.67	44428.05
619.82	44701.89
619.97	44996.80
620.12	44507.63
620.28	44444.43
620.43	44449.11
620.58	44458.48
620.73	44463.16
620.89	44392.94
621.04	44254.85
621.19	43945.90
621.34	44650.40
621.49	44142.50
621.65	43887.39
621.80	44257.19
621.95	43959.94
622.10	43962.28
622.25	43718.87
622.41	43718.87
622.56	43826.53
622.71	44355.49
622.86	43978.67
623.01	44018.46
623.16	43845.26
623.32	43629.93
623.47	44240.81
623.62	43943.56
623.77	43922.49
623.92	43831.21
624.07	43793.76
624.23	43484.81
624.38	43660.35
624.53	43182.88
624.68	43379.49
624.83	43391.19
624.98	43482.47
625.13	43508.22
625.29	43349.06
625.44	43423.96
625.59	43402.89
625.74	42845.85
625.89	42773.29
626.04	42796.70
626.19	42939.47
626.34	43323.32
626.49	43676.74
626.65	43082.24
626.80	43447.36
626.95	43391.19
627.10	42761.59
627.25	43093.94
627.40	43019.05
627.55	42852.87
627.70	42330.93
627.85	42937.13
628.00	42728.82
628.15	42953.51
628.30	42871.59
628.45	42836.48
628.60	42588.39
628.76	42768.61
628.91	42925.42
629.06	42185.82
629.21	42543.92
629.36	42717.12
629.51	42443.27
629.66	42766.27
629.81	42506.47
629.96	42225.60
630.11	42480.72
630.26	42485.40
630.41	42740.52
630.56	42686.69
630.71	42532.22
630.86	42586.05
631.01	41942.40
631.16	42424.55
631.31	41970.49
631.46	41874.52
631.61	41680.26
631.76	42183.48
631.91	42347.31
632.06	42326.25
632.21	42305.18
632.36	42169.43
632.51	41897.93
632.66	41989.21
632.81	41965.81
632.96	42227.95
633.10	41745.80
633.25	41916.65
633.40	42256.03
633.55	41909.63
633.70	42211.56
633.85	41553.87
634.00	41759.84
634.15	41706.01
634.30	41853.46
634.45	42075.81
634.60	41799.63
634.75	41242.58
634.90	41972.83
635.05	41794.95
635.19	41731.75
635.34	41780.90
635.49	41380.67
635.64	41397.06
635.79	41027.25
635.94	41434.50
636.09	41436.84
636.24	41720.05
636.39	41060.02
636.53	41022.57
636.68	41205.13
636.83	41193.43
636.98	41483.66
637.13	41097.47
637.28	41226.20
637.43	41490.68
637.57	41759.84
637.72	40673.83
637.87	41364.29
638.02	41345.56
638.17	41074.06
638.32	41130.23
638.46	40891.50
638.61	41350.24
638.76	40842.35
638.91	41158.32
639.06	40938.31
639.20	41001.50
639.35	41422.80
639.50	41317.48
639.65	41092.79
639.80	40804.90
639.94	40591.91
640.09	40849.37
640.24	40685.53
640.39	40154.23
640.54	40318.07
640.68	40973.42
640.83	41057.68
640.98	40294.66
641.13	40208.06
641.27	40540.42
641.42	40430.41
641.57	40282.96
641.72	40357.86
641.86	40231.47
642.01	40093.38
642.16	40491.27
642.31	40301.68
642.45	40467.86
642.60	40268.92
642.75	40409.35
642.90	40231.47
643.04	40144.87
643.19	40250.19
643.34	40179.98
643.48	40435.10
643.63	40311.05
643.78	40041.88
643.93	39573.78
644.07	40201.04
644.22	39934.22
644.37	39316.32
644.51	39962.31
644.66	39885.07
644.81	39903.79
644.95	40079.33
645.10	39915.50
645.25	39892.09
645.39	39693.15
645.54	39674.42
645.69	39943.58
645.83	39735.27
645.98	39739.96
646.13	39782.09
646.27	39866.34
646.42	39501.22
646.57	39115.03
646.71	39641.65
646.86	39414.62
647.00	39730.59
647.15	39929.54
647.30	39248.44
647.44	39115.03
647.59	39412.28
647.74	39407.60
647.88	39531.65
648.03	39255.46
648.17	39180.57
648.32	39262.49
648.47	39100.99
648.61	39210.99
648.76	39468.45
648.90	39100.99
649.05	39143.12
649.20	39203.97
649.34	39269.51
649.49	39089.29
649.63	39079.92
649.78	38934.81
649.92	39515.26
650.07	39203.97
650.21	38923.11
650.36	38770.97
650.51	38717.14
650.65	39180.57
650.80	39489.52
650.94	39316.32
651.09	39012.05
651.23	38728.84
651.38	38869.28
651.52	38649.27
651.67	38665.65
651.81	38405.85
651.96	38703.10
652.10	38766.29
652.25	38553.30
652.39	38656.29
652.54	38869.28
652.68	38227.97
652.83	38277.12
652.97	38703.10
653.12	38387.13
653.26	38691.40
653.41	38600.12
653.55	38066.47
653.70	37717.73
653.84	38366.06
653.99	38227.97
654.13	37970.51
654.27	38073.49
654.42	38391.81
654.56	37759.86
654.71	38160.09
654.85	38359.04
655.00	38031.36
655.14	37720.07
655.29	37928.38
655.43	37762.20
655.57	37537.51
655.72	37205.16
655.86	37514.11
656.01	37502.40
656.15	37471.98
656.30	37340.91
656.44	38061.79
656.58	37287.07
656.73	37284.73
656.87	37581.98
657.01	36938.33
657.16	37811.35
657.30	37170.05
657.45	37097.49
657.59	37247.29
657.73	37268.35
657.88	37661.56
658.02	37659.22
658.16	37736.46
658.31	37867.53
658.45	37378.36
658.60	37125.58
658.74	37331.54
658.88	37460.27
659.03	37116.22
659.17	37226.22
659.31	36921.95
659.46	36851.73
659.60	37258.99
659.74	37266.01
659.89	36622.36
660.03	36825.99
660.17	37008.55
660.32	36924.29
660.46	37310.48
660.60	36613.00
660.74	36608.32
660.89	37120.90
661.03	36196.38
661.17	35878.07
661.32	35962.33
661.46	36741.73
661.60	36774.50
661.74	36477.25
661.89	36294.69
662.03	36240.86
662.17	36346.18
662.31	36112.13
662.46	36556.83
662.60	36060.63
662.74	36194.04
662.88	36037.23
663.03	35662.74
663.17	35543.38
663.31	35484.86
663.45	35697.85
663.60	35606.57
663.74	35854.67
663.88	36114.47
664.02	35459.12
664.17	35639.34
664.31	35550.40
664.45	35342.09
664.59	35449.75
664.73	35646.36
664.88	35569.12
665.02	35147.82
665.16	35082.29
665.30	35194.64
665.44	35248.47
665.59	34740.57
665.73	34944.20
665.87	34679.72
666.01	34932.50
666.15	34522.90
666.29	35416.99
666.44	35136.12
666.58	34581.42
666.72	34775.68
666.86	34873.98
667.00	34607.16
667.14	34274.80
667.28	34403.53
667.43	34810.79
667.57	34265.44
667.71	34359.06
667.85	34330.98
667.99	33968.19
668.13	34359.06
668.27	34101.61
668.41	34333.32
668.56	33888.62
668.70	34249.06
668.84	33680.31
668.98	33507.11
669.12	33551.58
669.26	33558.60
669.40	33642.86
669.54	33425.19
669.68	34096.92
669.82	33017.94
669.96	33270.72
670.10	33020.28
670.25	33507.11
670.39	33027.30
670.53	33071.77
670.67	33151.35
670.81	33280.08
670.95	33153.69
671.09	32744.09
671.23	32940.70
671.37	32687.92
671.51	32811.97
671.65	32589.62
671.79	32362.59
671.93	32701.96
672.07	32809.63
672.21	32528.77
672.35	32498.34
672.49	32423.44
672.63	32472.59
672.77	32294.71
672.91	32098.11
673.05	32182.37
673.19	32273.65
673.33	31763.41
673.47	31709.58
673.61	31838.31
673.75	31461.48
673.89	31288.28
674.03	31412.33
674.17	31615.96
674.31	31615.96
674.45	31421.69
674.59	31402.97
674.73	31496.59
674.87	31468.50
675.01	31379.56
675.15	31325.73
675.29	31295.30
675.43	31098.70
675.56	31014.44
675.70	30829.54
675.84	30866.98
675.98	30036.09
676.12	30218.66
676.26	30565.06
676.40	30546.33
676.54	30567.40
676.68	30579.10
676.82	30015.03
676.96	30342.70
677.10	29858.21
677.23	29813.74
677.37	29518.84
677.51	29589.05
677.65	29420.53
677.79	28952.43
677.93	29020.30
678.07	29287.12
678.21	28659.86
678.34	28809.65
678.48	28842.42
678.62	28467.94
678.76	28594.32
678.90	28407.08
679.04	28589.64
679.18	28304.10
679.31	28119.20
679.45	28294.74
679.59	28177.71
679.73	28414.10
679.87	28149.62
680.00	27889.82
680.14	27742.37
680.28	27896.85
680.42	27648.75
680.56	27810.25
680.70	27463.85
680.83	27824.29
680.97	27814.93
681.11	27473.21
681.25	27686.20
681.39	27283.62
681.52	27218.09
681.66	27339.80
681.80	26815.52
681.94	26902.12
682.07	27201.71
682.21	26735.94
682.35	26618.91
682.49	26632.96
682.62	26787.43
682.76	26438.69
682.90	26398.90
683.04	26052.50
683.17	26345.07
683.31	26342.73
683.45	26075.91
683.59	25694.40
683.72	25551.63
683.86	26017.40
684.00	26057.18
684.13	25851.22
684.27	25436.94
684.41	25240.34
684.55	25212.25
684.68	25235.66
684.82	25273.10
684.96	24697.33
685.09	25029.69
685.23	24751.17
685.37	24673.93
685.50	25071.82
685.64	25036.71
685.78	24383.70
685.91	24247.95
686.05	24372.00
686.19	23995.17
686.32	24086.45
686.46	23934.32
686.60	23779.84
686.73	23428.76
686.87	23035.55
687.01	23398.34
687.14	23550.47
687.28	23138.54
687.42	23185.35
687.55	23180.67
687.69	23311.74
687.82	23030.87
687.96	22963.00
688.10	22789.80
688.23	22768.73
688.37	22703.20
688.50	22665.75
688.64	22710.22
688.78	22698.52
688.91	22534.68
689.05	22733.62
689.18	22499.57
689.32	22005.72
689.46	22209.34
689.59	22101.68
689.73	22043.17
689.86	21839.54
690.00	21949.54
690.13	22134.45
690.27	21467.39
690.41	21600.80
690.54	21301.22
690.68	21411.22
690.81	21582.08
690.95	21455.69
691.08	21483.78
691.22	21359.73
691.35	21259.09
691.49	21312.92
691.62	20823.75
691.76	21083.55
691.89	20563.95
692.03	20734.81
692.16	20704.38
692.30	20671.61
692.43	20177.76
692.57	20121.59
692.70	20112.22
692.84	20407.13
692.97	20137.97
693.11	19953.07
693.24	19964.77
693.38	19557.52
693.51	20006.90
693.65	20250.32
693.78	19922.64
693.92	19634.75
694.05	19194.73
694.19	19515.39
694.32	19147.92
694.45	19243.88
694.59	18806.20
694.72	18934.93
694.86	19150.26
694.99	18604.92
695.13	19140.90
695.26	18857.70
695.39	18607.26
695.53	18766.42
695.66	18750.03
695.80	18558.11
695.93	18401.29
696.07	18214.05
696.20	18721.95
696.33	18209.37
696.47	18391.93
696.60	18253.84
696.73	17940.21
696.87	17713.17
697.00	17900.42
697.14	17877.01
697.27	18045.53
697.40	17708.49
697.54	17479.12
697.67	17338.69
697.80	17579.76
697.94	17319.96
698.07	17268.47
698.21	16863.56
698.34	17036.76
698.47	16755.90
698.61	16786.32
698.74	16631.85
698.87	16493.76
699.01	16542.91
699.14	16545.25
699.27	16400.13
699.40	16175.44
699.54	16348.64
699.67	16278.43
699.80	16388.43
699.94	16236.30
700.07	16006.92
700.20	16145.02
700.34	15917.98
700.47	16170.76
700.60	16032.67
700.73	16056.08
700.87	15791.59
701.00	15742.44
701.13	15803.30
701.26	15492.01
701.40	15279.02
701.53	15463.92
701.66	15421.79
701.79	15206.46
701.93	15208.80
702.06	14878.79
702.19	15019.22
702.32	14960.70
702.46	14717.29
702.59	14993.47
702.72	15059.01
702.85	14923.26
702.99	14771.12
703.12	14728.99
703.25	14190.67
703.38	14506.64
703.51	14607.28
703.65	14356.85
703.78	14410.68
703.91	14214.07
704.04	14352.16
704.17	14230.46
704.31	14202.37
704.44	14017.47
704.57	14008.11
704.70	14022.15
704.83	13958.96
704.96	13879.38
705.10	13687.45
705.23	13827.88
>>>>>End Processed Spectral Data<<<<<
