SpectraSuite Data File
++++++++++++++++++++++++++++++++++++
Date: Fri Oct 25 11:34:19 EDT 2013
User: price-jones
Dark Spectrum Present: No
Reference Spectrum Present: No
Number of Sampled Component Spectra: 1
Spectrometers: USB2+H05261
Integration Time (usec): 100000 (USB2+H05261)
Spectra Averaged: 1 (USB2+H05261)
Boxcar Smoothing: 0 (USB2+H05261)
Correct for Electrical Dark: No (USB2+H05261)
Strobe/Lamp Enabled: No (USB2+H05261)
Correct for Detector Non-linearity: No (USB2+H05261)
Correct for Stray Light: No (USB2+H05261)
Number of Pixels in Processed Spectrum: 2048
>>>>>Begin Processed Spectral Data<<<<<
365.73	334.70
365.92	334.70
366.12	334.70
366.32	138.09
366.52	180.22
366.72	166.18
366.91	126.39
367.11	156.82
367.31	196.60
367.51	133.41
367.70	191.92
367.90	147.45
368.10	170.86
368.30	191.92
368.49	187.24
368.69	191.92
368.89	236.39
369.09	191.92
369.28	264.48
369.48	205.97
369.68	168.52
369.87	224.69
370.07	250.44
370.27	224.69
370.47	318.31
370.66	447.04
370.86	449.38
371.06	561.73
371.25	601.52
371.45	456.40
371.65	505.56
371.84	561.73
372.04	561.73
372.24	585.13
372.44	606.20
372.63	564.07
372.83	631.94
373.03	554.71
373.22	538.32
373.42	688.12
373.62	620.24
373.81	582.79
374.01	678.76
374.21	660.03
374.40	571.09
374.60	702.16
374.79	629.60
374.99	676.41
375.19	636.63
375.38	624.92
375.58	702.16
375.78	725.57
375.97	650.67
376.17	655.35
376.37	758.33
376.56	739.61
376.76	664.71
376.95	650.67
377.15	709.18
377.35	669.39
377.54	732.59
377.74	741.95
377.93	676.41
378.13	709.18
378.33	760.67
378.52	692.80
378.72	704.50
378.91	763.01
379.11	662.37
379.31	643.65
379.50	723.23
379.70	737.27
379.89	744.29
380.09	739.61
380.28	683.44
380.48	725.57
380.68	655.35
380.87	727.91
381.07	746.63
381.26	704.50
381.46	842.59
381.65	760.67
381.85	660.03
382.04	786.42
382.24	788.76
382.43	744.29
382.63	802.80
382.83	788.76
383.02	791.10
383.22	763.01
383.41	786.42
383.61	795.78
383.80	774.72
384.00	830.89
384.19	791.10
384.39	798.12
384.58	854.30
384.78	795.78
384.97	851.96
385.17	800.46
385.36	833.23
385.56	842.59
385.75	842.59
385.95	805.14
386.14	805.14
386.34	882.38
386.53	849.61
386.72	837.91
386.92	875.36
387.11	840.25
387.31	842.59
387.50	784.08
387.70	896.43
387.89	868.34
388.09	851.96
388.28	882.38
388.48	943.24
388.67	910.47
388.86	889.40
389.06	954.94
389.25	910.47
389.45	978.34
389.64	896.43
389.84	1011.11
390.03	961.96
390.22	877.70
390.42	903.45
390.61	968.98
390.81	983.02
391.00	947.92
391.19	1011.11
391.39	987.71
391.58	1071.97
391.78	1069.62
391.97	931.53
392.16	1013.45
392.36	1083.67
392.55	1055.58
392.75	1004.09
392.94	983.02
393.13	1008.77
393.33	1032.18
393.52	1069.62
393.71	1046.22
393.91	1095.37
394.10	1039.20
394.29	1090.69
394.49	1013.45
394.68	1153.88
394.88	1102.39
395.07	1167.93
395.26	1156.22
395.46	1114.10
395.65	1184.31
395.84	1186.65
396.04	1198.35
396.23	1177.29
396.42	1165.59
396.62	1167.93
396.81	1240.48
397.00	1149.20
397.19	1252.19
397.39	1184.31
397.58	1231.12
397.77	1144.52
397.97	1196.01
398.16	1235.80
398.35	1242.82
398.55	1334.11
398.74	1203.04
398.93	1324.74
399.12	1289.64
399.32	1245.16
399.51	1231.12
399.70	1362.19
399.90	1299.00
400.09	1394.96
400.28	1409.00
400.47	1259.21
400.67	1359.85
400.86	1387.94
401.05	1430.07
401.24	1282.61
401.44	1460.49
401.63	1345.81
401.82	1434.75
402.01	1350.49
402.21	1439.43
402.40	1563.48
402.59	1416.02
402.78	1399.64
402.97	1514.33
403.17	1523.69
403.36	1504.96
403.55	1479.22
403.74	1570.50
403.93	1565.82
404.13	1530.71
404.32	1521.35
404.51	1507.30
404.70	1589.22
404.89	1661.78
405.09	1685.19
405.28	1607.95
405.47	1668.80
405.66	1671.14
405.85	1626.67
406.05	1645.40
406.24	1776.47
406.43	1657.10
406.62	1799.87
406.81	1781.15
407.00	1748.38
407.20	1722.63
407.39	1792.85
407.58	1846.68
407.77	1701.57
407.96	1755.40
408.15	1870.09
408.34	1774.13
408.54	1877.11
408.73	1767.10
408.92	1853.70
409.11	1846.68
409.30	1881.79
409.49	1870.09
409.68	1926.26
409.87	1994.14
410.07	1909.88
410.26	1956.69
410.45	1980.09
410.64	2043.29
410.83	2010.52
411.02	2022.22
411.21	2190.74
411.40	2106.48
411.59	2101.80
411.78	2186.06
411.98	2197.76
412.17	2223.51
412.36	2214.15
412.55	2221.17
412.74	2415.43
412.93	2289.04
413.12	2223.51
413.31	2291.38
413.50	2342.88
413.69	2289.04
413.88	2399.05
414.07	2429.48
414.26	2438.84
414.45	2455.22
414.64	2445.86
414.83	2600.34
415.02	2546.50
415.22	2616.72
415.41	2537.14
415.60	2520.76
415.79	2520.76
415.98	2712.68
416.17	2705.66
416.36	2684.59
416.55	2750.13
416.74	2590.97
416.93	2740.77
417.12	2658.85
417.31	2778.22
417.50	2782.90
417.69	2918.65
417.88	2897.58
418.07	2792.26
418.26	2939.71
418.45	2801.62
418.64	3047.38
418.83	2986.52
419.02	2963.12
419.21	3009.93
419.39	3068.44
419.58	2944.39
419.77	2981.84
419.96	2967.80
420.15	3096.53
420.34	3133.98
420.53	2939.71
420.72	3124.62
420.91	3162.06
421.10	3211.22
421.29	3213.56
421.48	3105.89
421.67	3222.92
421.86	3208.87
422.05	3164.40
422.24	3129.30
422.43	3190.15
422.61	3309.52
422.80	3218.24
422.99	3232.28
423.18	3384.41
423.37	3332.92
423.56	3346.97
423.75	3321.22
423.94	3239.30
424.13	3129.30
424.32	3180.79
424.50	3288.45
424.69	3449.95
424.88	3501.44
425.07	3330.58
425.26	3279.09
425.45	3391.44
425.64	3220.58
425.83	3368.03
426.01	3386.76
426.20	3337.60
426.39	3258.03
426.58	3215.90
426.77	3304.84
426.96	3534.21
427.15	3417.18
427.33	3438.25
427.52	3471.01
427.71	3461.65
427.90	3515.48
428.09	3611.45
428.28	3538.89
428.46	3597.40
428.65	3576.34
428.84	3588.04
429.03	3655.92
429.22	3562.30
429.40	3765.92
429.59	3667.62
429.78	3646.55
429.97	3637.19
430.16	3576.34
430.34	3660.60
430.53	3719.11
430.72	3714.43
430.91	3822.09
431.10	3707.41
431.28	3789.33
431.47	3904.01
431.66	3892.31
431.85	3775.28
432.03	4002.32
432.22	3941.46
432.41	3850.18
432.60	3866.56
432.79	3962.53
432.97	3927.42
433.16	4063.17
433.35	4002.32
433.54	4098.28
433.72	4131.05
433.91	4065.51
434.10	4159.13
434.28	4044.45
434.47	3976.57
434.66	4147.43
434.85	4124.02
435.03	4201.26
435.22	4121.68
435.41	4198.92
435.59	4222.33
435.78	4344.03
435.97	4325.31
436.16	4264.46
436.34	4231.69
436.53	4337.01
436.72	4376.80
436.90	4170.83
437.09	4283.18
437.28	4423.61
437.46	4362.76
437.65	4252.75
437.84	4545.32
438.02	4351.06
438.21	4540.64
438.40	4393.19
438.58	4458.72
438.77	4573.41
438.96	4550.00
439.14	4716.18
439.33	4798.10
439.52	4720.86
439.70	4669.37
439.89	4732.56
440.08	4683.41
440.26	4812.14
440.45	4915.12
440.63	4968.96
440.82	5062.58
441.01	5050.88
441.19	5001.72
441.38	4978.32
441.57	4985.34
441.75	5163.22
441.94	5219.39
442.12	5004.07
442.31	5186.63
442.50	5310.68
442.68	5048.54
442.87	5165.56
443.05	5350.46
443.24	5523.66
443.43	5423.02
443.61	5373.87
443.80	5523.66
443.98	5273.23
444.17	5022.79
444.35	5404.30
444.54	5502.60
444.73	5535.37
444.91	5352.81
445.10	5614.95
445.28	5451.11
445.47	5441.75
445.65	5430.04
445.84	5418.34
446.02	5432.38
446.21	5418.34
446.39	5448.77
446.58	5504.94
446.77	5465.15
446.95	5551.75
447.14	5600.90
447.32	5593.88
447.51	5603.24
447.69	5717.93
447.88	5783.46
448.06	5589.20
448.25	5488.56
448.43	5659.42
448.62	5565.79
448.80	5645.37
448.99	5680.48
449.17	5755.38
449.36	5668.78
449.54	5832.62
449.73	5820.91
449.91	5767.08
450.10	5912.19
450.28	5975.39
450.46	6001.13
450.65	5944.96
450.83	5811.55
451.02	5973.05
451.20	6005.81
451.39	5954.32
451.57	6003.47
451.76	5954.32
451.94	6052.63
452.13	6136.88
452.31	6010.50
452.49	5970.71
452.68	6146.25
452.86	6120.50
453.05	6167.31
453.23	6202.42
453.42	6127.52
453.60	6310.08
453.78	6326.47
453.97	6164.97
454.15	6197.74
454.34	6108.80
454.52	6459.88
454.70	6457.54
454.89	6338.17
455.07	6326.47
455.26	6399.02
455.44	6476.26
455.62	6450.52
455.81	6286.68
455.99	6635.42
456.17	6558.18
456.36	6487.96
456.54	6670.53
456.73	6534.78
456.91	6869.47
457.09	6834.36
457.28	6799.26
457.46	6860.11
457.64	6927.99
457.83	6665.85
458.01	6698.61
458.19	6925.65
458.38	6871.81
458.56	6813.30
458.74	6775.85
458.93	7080.12
459.11	7040.33
459.29	6761.81
459.48	7126.93
459.66	7002.88
459.84	7129.27
460.03	7110.55
460.21	7169.06
460.39	7016.93
460.57	7068.42
460.76	7265.02
460.94	7201.83
461.12	7234.60
461.31	7405.46
461.49	7307.15
461.67	7307.15
461.85	7405.46
462.04	7368.01
462.22	7613.76
462.40	7403.11
462.59	7524.82
462.77	7468.65
462.95	7576.31
463.13	7412.48
463.32	7435.88
463.50	7569.29
463.68	7573.97
463.86	7681.64
464.05	7599.72
464.23	7815.05
464.41	7782.28
464.59	7611.42
464.78	7808.03
464.96	7618.44
465.14	7606.74
465.32	7812.71
465.50	7978.89
465.69	7833.77
465.87	7864.20
466.05	7850.16
466.23	7906.33
466.41	7765.90
466.60	7976.55
466.78	7985.91
466.96	7632.49
467.14	7934.42
467.32	8063.15
467.51	8011.65
467.69	7817.39
467.87	7899.31
468.05	8189.53
468.23	7955.48
468.41	7892.29
468.60	8224.64
468.78	8063.15
468.96	8140.38
469.14	8145.06
469.32	8400.18
469.50	8058.46
469.69	8362.73
469.87	8369.76
470.05	8339.33
470.23	8468.06
470.41	8400.18
470.59	8500.83
470.77	8475.08
470.95	8599.13
471.14	8884.67
471.32	8631.90
471.50	8744.24
471.68	8891.70
471.86	8655.30
472.04	8662.32
472.22	9050.85
472.40	8940.85
472.58	8933.82
472.77	8987.66
472.95	9158.52
473.13	9453.42
473.31	9137.45
473.49	9177.24
473.67	9092.98
473.85	9146.81
474.03	9525.98
474.21	9406.61
474.39	9369.16
474.57	9303.63
474.75	9521.30
474.93	9668.75
475.12	9322.35
475.30	9544.70
475.48	9638.33
475.66	9778.76
475.84	9720.24
476.02	9802.16
476.20	9942.60
476.38	10108.77
476.56	10218.78
476.74	10083.03
476.92	10221.12
477.10	9956.64
477.28	10333.47
477.46	10237.50
477.64	10445.81
477.82	10752.42
478.00	10836.68
478.18	10665.82
478.36	10703.27
478.54	10771.15
478.72	11129.25
478.90	11183.08
479.08	11068.39
479.26	11190.10
479.44	11351.60
479.62	11447.56
479.80	11499.05
479.98	11513.10
480.16	11808.00
480.34	11618.42
480.52	11925.03
480.70	11922.69
480.88	11749.49
481.06	11985.88
481.24	12210.57
481.41	12248.02
481.59	12287.81
481.77	12461.01
481.95	12390.80
482.13	12531.23
482.31	12505.48
482.49	13055.51
482.67	12964.23
482.85	12954.87
483.03	13092.96
483.21	13116.36
483.39	13039.12
483.57	13327.01
483.74	13434.68
483.92	13469.78
484.10	13376.16
484.28	13940.23
484.46	14298.33
484.64	14171.94
484.82	13991.72
485.00	14239.82
485.18	14628.35
485.35	14703.25
485.53	14562.81
485.71	14483.24
485.89	14857.72
486.07	14941.98
486.25	15075.39
486.43	14888.15
486.61	15257.95
486.78	15147.95
486.96	15176.03
487.14	15576.27
487.32	15590.31
487.50	15779.89
487.68	15866.49
487.85	15880.53
488.03	16154.38
488.21	16397.79
488.39	16428.22
488.57	16376.73
488.75	16566.31
488.92	16795.68
489.10	17179.53
489.28	16882.28
489.46	17170.17
489.64	17226.34
489.81	17621.89
489.99	17652.32
490.17	17661.68
490.35	17649.98
490.53	18087.66
490.70	17980.00
490.88	17965.95
491.06	18408.31
491.24	18317.03
491.41	18373.21
491.59	18515.98
491.77	18686.84
491.95	18918.55
492.13	19171.33
492.30	19066.00
492.48	19068.34
492.66	18799.18
492.84	19337.51
493.01	19583.26
493.19	19506.02
493.37	19400.70
493.54	19639.44
493.72	19826.68
493.90	19875.83
494.08	19983.49
494.25	20222.23
494.43	20467.98
494.61	20329.89
494.79	20388.41
494.96	20435.22
495.14	20610.76
495.32	21160.78
495.49	20966.52
495.67	20980.56
495.85	21364.41
496.02	21362.07
496.20	21479.10
496.38	21678.04
496.55	21404.20
496.73	22139.13
496.91	21895.71
497.09	21912.10
497.26	22029.12
497.44	21951.88
497.62	22251.47
497.79	22565.10
497.97	22466.80
498.14	22588.51
498.32	22941.93
498.50	22785.12
498.67	23201.73
498.85	22883.42
499.03	23311.74
499.20	23215.77
499.38	23545.79
499.56	23463.87
499.73	23339.82
499.91	23683.88
500.08	24091.13
500.26	23538.77
500.44	23847.72
500.61	24247.95
500.79	23536.43
500.97	24203.48
501.14	24294.76
501.32	24489.03
501.49	24154.33
501.67	24280.72
501.84	24950.11
502.02	24322.85
502.20	24821.38
502.37	24872.87
502.55	24596.69
502.72	24933.73
502.90	25057.78
503.07	25167.78
503.25	25411.20
503.43	25020.33
503.60	25507.16
503.78	25525.88
503.95	25359.70
504.13	25542.27
504.30	25317.57
504.48	25584.40
504.65	25823.13
504.83	26008.03
505.01	26099.31
505.18	26075.91
505.36	26127.40
505.53	26558.06
505.71	26410.60
505.88	26426.99
506.06	26281.88
506.23	26850.63
506.41	26391.88
506.58	27000.42
506.76	26703.17
506.93	27154.90
507.11	26988.72
507.28	27084.68
507.46	27302.35
507.63	27248.52
507.81	27255.54
507.98	27206.39
508.16	27723.65
508.33	27597.26
508.50	28023.23
508.68	27807.90
508.85	27868.76
509.03	27824.29
509.20	28137.92
509.38	27908.55
509.55	28023.23
509.73	28079.41
509.90	28205.80
510.08	28208.14
510.25	28671.56
510.42	28381.34
510.60	28732.42
510.77	28720.71
510.95	28863.49
511.12	28648.16
511.30	28650.50
511.47	28884.55
511.64	28994.56
511.82	28868.17
511.99	29338.62
512.17	29560.97
512.34	29516.50
512.51	30031.41
512.69	29785.66
512.86	29799.70
513.04	29895.66
513.21	29783.32
513.38	30118.01
513.56	30064.18
513.73	30120.35
513.90	30143.76
514.08	29914.39
514.25	29940.13
514.43	30356.75
514.60	30300.58
514.77	30429.30
514.95	30625.91
515.12	30754.64
515.29	30473.78
515.47	30817.83
515.64	30787.41
515.81	30527.61
515.99	31264.88
516.16	31323.39
516.33	31393.61
516.51	31384.24
516.68	31292.96
516.85	31365.52
517.03	31409.99
517.20	31709.58
517.37	31386.58
517.54	31445.10
517.72	31995.12
517.89	31585.53
518.06	32039.59
518.24	32009.17
518.41	31648.72
518.58	32018.53
518.75	31613.62
518.93	32437.48
519.10	31868.73
519.27	32156.62
519.45	32098.11
519.62	32610.68
519.79	32706.65
519.96	32687.92
520.14	32786.22
520.31	32493.66
520.48	32870.48
520.65	32870.48
520.83	33158.37
521.00	33109.22
521.17	33015.60
521.34	33333.91
521.52	33287.10
521.69	33242.63
521.86	33579.67
522.03	33542.22
522.20	33680.31
522.38	33715.42
522.55	33626.48
522.72	33951.81
522.89	34181.18
523.07	34445.66
523.24	33649.88
523.41	34108.63
523.58	34192.89
523.75	34230.33
523.92	34338.00
524.10	34417.58
524.27	34183.52
524.44	34127.35
524.61	34560.35
524.78	34284.17
524.96	34820.15
525.13	34132.03
525.30	35255.49
525.47	34822.49
525.64	34602.48
525.81	35115.06
525.98	35243.79
526.16	35033.14
526.33	35442.73
526.50	35438.05
526.67	35002.71
526.84	35637.00
527.01	35152.51
527.18	35122.08
527.36	35541.03
527.53	35791.47
527.70	35585.50
527.87	35878.07
528.04	35693.17
528.21	35901.48
528.38	35665.08
528.55	35585.50
528.72	35924.88
528.89	35941.27
529.07	35887.43
529.24	35388.90
529.41	36126.17
529.58	36409.37
529.75	36198.73
529.92	36290.01
530.09	36402.35
530.26	36367.24
530.43	36535.76
530.60	36116.81
530.77	36521.72
530.94	36336.82
531.11	36486.61
531.28	36751.09
531.46	36882.16
531.63	36687.90
531.80	36437.46
531.97	36926.63
532.14	37003.87
532.31	36928.97
532.48	37153.66
532.65	36968.76
532.82	36786.20
532.99	37181.75
533.16	37331.54
533.33	37324.52
533.50	37275.37
533.67	37324.52
533.84	37282.39
534.01	37556.24
534.18	37750.50
534.35	38120.31
534.52	38047.75
534.69	37916.68
534.86	38120.31
535.03	37759.86
535.20	38377.76
535.37	37687.31
535.54	38251.38
535.71	38218.61
535.88	38206.90
536.05	37811.35
536.22	38560.33
536.38	38794.38
536.55	37855.82
536.72	38253.72
536.89	38022.00
537.06	38520.54
537.23	38817.78
537.40	38534.58
537.57	38307.55
537.74	38183.50
537.91	38927.79
538.08	38808.42
538.25	38705.44
538.42	39019.07
538.59	39054.18
538.75	38953.54
538.92	38937.15
539.09	39288.23
539.26	38789.70
539.43	39512.92
539.60	39363.13
539.77	39117.37
539.94	39519.95
540.11	39164.18
540.28	39302.28
540.44	39840.60
540.61	39115.03
540.78	39349.09
540.95	39370.15
541.12	39402.92
541.29	39622.93
541.46	39835.92
541.62	39924.86
541.79	39952.94
541.96	39529.31
542.13	39686.12
542.30	40079.33
542.47	39889.75
542.63	39990.39
542.80	40282.96
542.97	40109.76
543.14	40556.80
543.31	40383.60
543.48	40025.50
543.64	40823.62
543.81	40631.70
543.98	40783.83
544.15	40250.19
544.32	40402.33
544.48	41062.36
544.65	40629.36
544.82	40783.83
544.99	40891.50
545.16	40807.24
545.32	40617.66
545.49	41373.65
545.66	41221.52
545.83	41223.86
546.00	41226.20
546.16	40952.35
546.33	41317.48
546.50	41254.28
546.67	40758.09
546.83	40690.21
547.00	41373.65
547.17	41041.29
547.34	41055.34
547.50	41675.58
547.67	41628.77
547.84	41694.30
548.00	41434.50
548.17	41926.02
548.34	41610.04
548.51	41605.36
548.67	42019.64
548.84	41588.98
549.01	41897.93
549.18	41790.27
549.34	42059.43
549.51	42057.09
549.68	42131.98
549.84	41806.65
550.01	42213.90
550.18	41991.55
550.34	41811.33
550.51	42036.02
550.68	42696.05
550.84	41584.30
551.01	42136.66
551.18	42157.73
551.34	41900.27
551.51	42370.72
551.68	42518.17
551.84	42052.41
552.01	42113.26
552.18	42672.65
552.34	42410.51
552.51	42394.12
552.68	42218.58
552.84	42382.42
553.01	42492.43
553.18	42892.66
553.34	42918.40
553.51	42457.32
553.67	43243.74
553.84	43007.34
554.01	42923.08
554.17	42965.21
554.34	42941.81
554.51	42513.49
554.67	43313.95
554.84	42983.94
555.00	42979.26
555.17	42986.28
555.33	43318.64
555.50	42953.51
555.67	43196.93
555.83	42946.49
556.00	43075.22
556.16	43648.65
556.33	43227.35
556.50	43372.47
556.66	43494.18
556.83	43110.33
556.99	43679.08
557.16	43711.84
557.32	43721.21
557.49	43746.95
557.65	43641.63
557.82	43510.56
557.98	43292.89
558.15	43543.33
558.32	43775.04
558.48	43721.21
558.65	43901.43
558.81	43704.82
558.98	43470.77
559.14	43643.97
559.31	43950.58
559.47	43746.95
559.64	43962.28
559.80	43779.72
559.97	43503.54
560.13	43393.53
560.30	43952.92
560.46	44603.59
560.63	44121.44
560.79	44032.50
560.96	44350.81
561.12	44341.45
561.29	44093.35
561.45	44343.79
561.61	43510.56
561.78	44516.99
561.94	44224.42
562.11	43697.80
562.27	44257.19
562.44	43845.26
562.60	44884.45
562.77	44196.34
562.93	44397.62
563.10	44346.13
563.26	44507.63
563.42	44655.08
563.59	44016.11
563.75	44390.60
563.92	44734.66
564.08	44093.35
564.24	44406.98
564.41	44507.63
564.57	44741.68
564.74	44566.14
564.90	44364.85
565.07	44194.00
565.23	44573.16
565.39	44470.18
565.56	44865.73
565.72	44301.66
565.88	44760.40
566.05	44985.10
566.21	44634.02
566.38	44648.06
566.54	44793.17
566.70	44762.75
566.87	44643.38
567.03	44439.75
567.19	45088.08
567.36	44854.03
567.52	44982.76
567.68	45010.84
567.85	44928.92
568.01	44935.95
568.17	44938.29
568.34	44886.79
568.50	44914.88
568.66	45137.23
568.83	44713.59
568.99	45155.96
569.15	44858.71
569.32	44952.33
569.48	45254.26
569.64	45081.06
569.81	44975.73
569.97	45057.65
570.13	45074.04
570.30	44982.76
570.46	45418.10
570.62	45406.39
570.78	45167.66
570.95	44793.17
571.11	45317.45
571.27	44818.92
571.43	44746.36
571.60	44931.26
571.76	44919.56
571.92	45158.30
572.09	45071.70
572.25	44980.42
572.41	44884.45
572.57	44919.56
572.74	45523.42
572.90	45326.81
573.06	45485.97
573.22	45382.99
573.38	45804.28
573.55	45745.77
573.71	45771.52
573.87	45485.97
574.03	45167.66
574.20	45647.47
574.36	45134.89
574.52	45478.95
574.68	45502.35
574.84	45474.27
575.01	45502.35
575.17	45448.52
575.33	45612.36
575.49	45191.06
575.65	45607.68
575.82	45420.44
575.98	45268.30
576.14	45666.19
576.30	45897.91
576.46	45446.18
576.62	45256.60
576.79	45315.11
576.95	45127.87
577.11	44809.56
577.27	45350.22
577.43	45689.60
577.59	45570.23
577.75	45242.56
577.92	45261.28
578.08	45528.10
578.24	45186.38
578.40	45748.11
578.56	45940.04
578.72	45254.26
578.88	45895.56
579.04	45481.29
579.21	45244.90
579.37	45666.19
579.53	45502.35
579.69	45443.84
579.85	45478.95
580.01	45581.93
580.17	45708.32
580.33	45855.78
580.49	45794.92
580.65	45523.42
580.82	45422.78
580.98	45607.68
581.14	45193.40
581.30	45757.47
581.46	45441.50
581.62	45537.46
581.78	45441.50
581.94	45638.11
582.10	45649.81
582.26	46134.30
582.42	45532.78
582.58	45982.16
582.74	45668.53
582.90	45748.11
583.06	45886.20
583.22	45591.30
583.38	45792.58
583.54	45600.66
583.70	45558.53
583.86	45624.06
584.02	45567.89
584.18	46300.48
584.34	46003.23
584.50	46162.39
584.66	46096.85
584.82	46085.15
584.98	46096.85
585.14	46089.83
585.30	46000.89
585.46	45823.01
585.62	45949.40
585.78	46138.98
585.94	45207.45
586.10	45717.68
586.26	45251.92
586.42	45518.74
586.58	45869.82
586.74	45977.48
586.90	45296.39
587.06	46054.72
587.22	45834.71
587.38	45979.82
587.54	46094.51
587.70	46071.10
587.86	46181.11
588.02	45825.35
588.18	46237.28
588.34	45947.06
588.49	45820.67
588.65	45806.62
588.81	46043.02
588.97	45925.99
589.13	45844.07
589.29	46181.11
589.45	46223.24
589.61	46160.05
589.77	46281.75
589.93	46270.05
590.08	46232.60
590.24	46092.17
590.40	46532.19
590.56	46461.97
590.72	46291.12
590.88	46110.89
591.04	46117.92
591.20	46330.90
591.35	46777.95
591.51	46405.80
591.67	46328.56
591.83	46684.33
591.99	46361.33
592.15	46333.24
592.31	46232.60
592.46	46522.83
592.62	46293.46
592.78	46611.77
592.94	46700.71
593.10	46693.69
593.26	47334.99
593.41	46579.00
593.57	46721.77
593.73	46429.21
593.89	46689.01
594.05	46553.26
594.20	46497.08
594.36	47056.47
594.52	46593.04
594.68	46686.67
594.84	46471.34
594.99	46904.34
595.15	46681.98
595.31	46557.94
595.47	46656.24
595.62	46904.34
595.78	46321.54
595.94	46770.93
596.10	46642.20
596.25	46810.71
596.41	47154.77
596.57	46153.02
596.73	46728.80
596.88	46396.44
597.04	46759.22
597.20	46843.48
597.36	46955.83
597.51	46410.48
597.67	46546.23
597.83	46724.11
597.99	46829.44
598.14	46396.44
598.30	46506.44
598.46	46635.17
598.61	46981.57
598.77	46293.46
598.93	47051.79
599.09	46801.35
599.24	46756.88
599.40	46787.31
599.56	47054.13
599.71	46927.74
599.87	47166.48
600.03	47239.03
600.18	46735.82
600.34	46628.15
600.50	46681.98
600.65	46827.10
600.81	47117.32
600.97	47171.16
601.12	47124.35
601.28	46866.89
601.44	47206.26
601.59	46796.67
601.75	46632.83
601.91	47196.90
602.06	46756.88
602.22	46843.48
602.37	46401.12
602.53	46925.40
602.69	47208.61
602.84	46710.07
603.00	46590.70
603.16	46431.55
603.31	47026.04
603.47	46965.19
603.62	46539.21
603.78	46913.70
603.94	46939.44
604.09	46789.65
604.25	46663.26
604.40	46536.87
604.56	46555.60
604.71	47248.39
604.87	46667.94
605.03	46806.03
605.18	46471.34
605.34	46670.28
605.49	46429.21
605.65	47129.03
605.80	46735.82
605.96	46684.33
606.12	46611.77
606.27	46958.17
606.43	46532.19
606.58	46539.21
606.74	46590.70
606.89	46707.73
607.05	46810.71
607.20	46670.28
607.36	46581.34
607.51	46419.84
607.67	46295.80
607.82	46747.52
607.98	46541.55
608.13	46230.26
608.29	46934.76
608.44	46646.88
608.60	46426.87
608.75	46909.02
608.91	46497.08
609.06	46225.58
609.22	46422.19
609.37	46115.58
609.53	46614.11
609.68	46555.60
609.84	46714.75
609.99	46806.03
610.15	46569.64
610.30	46284.09
610.46	46237.28
610.61	46667.94
610.76	46342.61
610.92	45734.07
611.07	46078.13
611.23	46391.76
611.38	46277.07
611.54	46691.35
611.69	46974.55
611.84	46506.44
612.00	45979.82
612.15	45996.21
612.31	46227.92
612.46	46007.91
612.62	46124.94
612.77	46103.87
612.92	46738.16
613.08	46068.76
613.23	46330.90
613.39	46155.36
613.54	46183.45
613.69	46223.24
613.85	46438.57
614.00	46080.47
614.15	46387.08
614.31	46033.66
614.46	45462.57
614.62	45792.58
614.77	45752.79
614.92	45741.09
615.08	46209.20
615.23	46143.66
615.38	46188.13
615.54	46410.48
615.69	46263.03
615.84	45918.97
616.00	46344.95
616.15	45940.04
616.30	46291.12
616.46	46003.23
616.61	46052.38
616.76	45418.10
616.92	45542.14
617.07	45907.27
617.22	45626.40
617.37	45490.65
617.53	45457.88
617.68	45474.27
617.83	45546.82
617.99	46026.63
618.14	45876.84
618.29	45464.91
618.45	45333.84
618.60	45422.78
618.75	45013.18
618.90	45642.79
619.06	45294.05
619.21	45331.50
619.36	45708.32
619.51	45408.73
619.67	45544.48
619.82	45303.41
619.97	45619.38
620.12	45715.34
620.28	45322.13
620.43	45223.83
620.58	45614.70
620.73	45104.46
620.89	45450.86
621.04	45876.84
621.19	45230.85
621.34	45303.41
621.49	45347.88
621.65	45368.94
621.80	45354.90
621.95	45607.68
622.10	45680.24
622.25	45179.36
622.41	45219.15
622.56	45413.41
622.71	45113.83
622.86	44996.80
623.01	45361.92
623.16	45038.93
623.32	44973.39
623.47	45038.93
623.62	44802.53
623.77	45015.52
623.92	44945.31
624.07	44512.31
624.23	45214.47
624.38	44891.48
624.53	44961.69
624.68	44683.17
624.83	44512.31
624.98	45097.44
625.13	44271.23
625.29	44968.71
625.44	44870.41
625.59	44692.53
625.74	44320.38
625.89	44292.30
626.04	44465.50
626.19	44395.28
626.34	44598.91
626.49	44561.46
626.65	43892.07
626.80	44566.14
626.95	44287.62
627.10	43686.10
627.25	44371.88
627.40	44357.83
627.55	44502.95
627.70	44037.18
627.85	44509.97
628.00	44451.45
628.15	44308.68
628.30	44165.91
628.45	43899.09
628.60	44044.20
628.76	43702.48
628.91	44280.60
629.06	43597.16
629.21	44500.61
629.36	43807.81
629.51	43412.26
629.66	44563.80
629.81	43955.26
629.96	43859.30
630.11	44128.46
630.26	44147.18
630.41	43936.54
630.56	43583.12
630.71	43983.35
630.86	43707.16
631.01	43285.87
631.16	43641.63
631.31	43655.67
631.46	43604.18
631.61	43683.76
631.76	43627.59
631.91	43746.95
632.06	44215.06
632.21	43555.03
632.36	43805.47
632.51	43372.47
632.66	43606.52
632.81	43194.59
632.96	43344.38
633.10	43306.93
633.25	43634.61
633.40	43360.76
633.55	43484.81
633.70	43452.05
633.85	42827.12
634.00	42951.17
634.15	43358.42
634.30	43641.63
634.45	43110.33
634.60	43311.61
634.75	43379.49
634.90	43274.16
635.05	43276.51
635.19	43253.10
635.34	43519.92
635.49	42639.88
635.64	43325.66
635.79	43416.94
635.94	42920.74
636.09	43271.82
636.24	43178.20
636.39	43002.66
636.53	42635.20
636.68	42761.59
636.83	42513.49
636.98	42494.77
637.13	42452.64
637.28	42405.83
637.43	42670.31
637.57	42792.01
637.72	42564.98
637.87	42539.24
638.02	43229.69
638.17	42899.68
638.32	42611.79
638.46	41930.70
638.61	42480.72
638.76	42539.24
638.91	41998.57
639.06	42597.75
639.20	42131.98
639.35	42129.64
639.50	41991.55
639.65	42099.22
639.80	42335.61
639.94	42703.07
640.09	42167.09
640.24	42260.71
640.39	41806.65
640.54	41581.96
640.68	42134.32
640.83	42394.12
640.98	42036.02
641.13	41975.17
641.27	41823.03
641.42	41853.46
641.57	41991.55
641.72	42527.53
641.86	41984.53
642.01	41816.01
642.16	41937.72
642.31	41596.00
642.45	41869.84
642.60	41553.87
642.75	41486.00
642.90	41612.38
643.04	42211.56
643.19	41851.12
643.34	41808.99
643.48	41186.41
643.63	41397.06
643.78	41209.81
643.93	41677.92
644.07	41937.72
644.22	41722.39
644.37	41481.31
644.51	41804.31
644.66	41631.11
644.81	41521.10
644.95	41486.00
645.10	41963.46
645.25	41366.63
645.39	41635.79
645.54	40919.59
645.69	40898.52
645.83	40994.48
645.98	40999.16
646.13	41315.14
646.27	41251.94
646.42	40788.52
646.57	41439.18
646.71	41088.10
646.86	41254.28
647.00	41254.28
647.15	40975.76
647.30	41055.34
647.44	41289.39
647.59	40685.53
647.74	41256.62
647.88	41116.19
648.03	41207.47
648.17	41242.58
648.32	41053.00
648.47	41310.46
648.61	41345.56
648.76	41212.15
648.90	40861.07
649.05	41060.02
649.20	41116.19
649.34	40858.73
649.49	40856.39
649.63	40994.48
649.78	40669.15
649.92	40912.56
650.07	40964.06
650.21	41015.55
650.36	41305.77
650.51	40570.85
650.65	40594.25
650.80	40971.08
650.94	40540.42
651.09	40493.61
651.23	40076.99
651.38	40451.48
651.52	39978.69
651.67	40692.55
651.81	40460.84
651.96	40760.43
652.10	39681.44
652.25	40435.10
652.39	40011.46
652.54	40453.82
652.68	40437.44
652.83	40374.24
652.97	40526.38
653.12	40259.55
653.26	40069.97
653.41	40002.10
653.55	40055.93
653.70	40598.93
653.84	40486.59
653.99	40278.28
654.13	40203.38
654.27	39962.31
654.42	40039.54
654.56	39838.26
654.71	40432.75
654.85	39704.85
655.00	40252.53
655.14	40301.68
655.29	39927.20
655.43	39941.24
655.57	40201.04
655.72	39599.52
655.86	39625.27
656.01	39655.70
656.15	39309.30
656.30	39620.59
656.44	39849.96
656.58	39597.18
656.73	39548.03
656.87	39456.75
657.01	38955.88
657.16	39573.78
657.30	39899.11
657.45	39402.92
657.59	39030.77
657.73	39154.82
657.88	39482.50
658.02	39328.02
658.16	39599.52
658.31	38998.01
658.45	39112.69
658.60	38850.55
658.74	39473.13
658.88	39283.55
659.03	39047.16
659.17	38733.53
659.31	39007.37
659.46	38710.12
659.60	38876.30
659.74	38998.01
659.89	38569.69
660.03	38546.28
660.17	38616.50
660.32	38291.16
660.46	38445.64
660.60	38586.07
660.74	38623.52
660.89	38646.93
661.03	38370.74
661.17	38281.80
661.32	37928.38
661.46	38302.87
661.60	38089.88
661.74	37628.79
661.89	38274.78
662.03	37958.81
662.17	37982.21
662.31	37738.80
662.46	38073.49
662.60	37773.91
662.74	37607.73
662.88	37743.48
663.03	37376.01
663.17	37017.91
663.31	37429.85
663.45	37666.24
663.60	37921.36
663.74	37848.80
663.88	37361.97
664.02	36896.20
664.17	37741.14
664.31	37282.39
664.45	36907.91
664.59	37661.56
664.73	36811.95
664.88	36877.48
665.02	36943.02
665.16	37195.79
665.30	36802.58
665.44	36996.85
665.59	36795.56
665.73	36353.20
665.87	36470.23
666.01	36851.73
666.15	36495.97
666.29	36655.13
666.44	36751.09
666.58	36357.88
666.72	35892.12
666.86	36400.01
667.00	36460.87
667.14	36081.70
667.28	35950.63
667.43	36472.57
667.57	36481.93
667.71	35796.15
667.85	36086.38
667.99	36130.85
668.13	35903.82
668.27	35686.15
668.41	35639.34
668.56	35569.12
668.70	35344.43
668.84	35152.51
668.98	35138.46
669.12	35456.78
669.26	35473.16
669.40	35271.87
669.54	35552.74
669.68	35051.86
669.82	34976.97
669.96	34831.85
670.10	34714.83
670.25	34724.19
670.39	34827.17
670.53	35154.85
670.67	35152.51
670.81	34976.97
670.95	34775.68
671.09	34623.54
671.23	34623.54
671.37	34501.84
671.51	34625.89
671.65	34232.68
671.79	34209.27
671.93	34335.66
672.07	34696.10
672.21	34197.57
672.35	34206.93
672.49	34036.07
672.63	33680.31
672.77	33392.42
672.91	33867.55
673.05	33406.47
673.19	33165.39
673.33	33298.80
673.47	33600.73
673.61	32912.61
673.75	33186.46
673.89	32905.59
674.03	33235.61
674.17	32945.38
674.31	32912.61
674.45	32931.34
674.59	32662.18
674.73	32226.84
674.87	32648.13
675.01	32261.94
675.15	31700.22
675.29	32460.89
675.43	32133.21
675.56	32135.56
675.70	32400.04
675.84	32203.43
675.98	30883.37
676.12	31702.56
676.26	32470.25
676.40	31810.22
676.54	31737.66
676.68	31566.81
676.82	31367.86
676.96	31281.26
677.10	31854.69
677.23	31409.99
677.37	31014.44
677.51	31220.41
677.65	30864.64
677.79	30382.49
677.93	30752.30
678.07	30979.33
678.21	30363.77
678.34	30417.60
678.48	30338.02
678.62	30127.38
678.76	30216.32
678.90	29846.51
679.04	30157.80
679.18	30309.94
679.31	29673.31
679.45	29640.54
679.59	29497.77
679.73	30019.71
679.87	29577.35
680.00	29310.53
680.14	29371.38
680.28	29500.11
680.42	29167.76
680.56	28596.67
680.70	28589.64
680.83	28631.77
680.97	29142.01
681.11	28435.17
681.25	28425.81
681.39	28294.74
681.52	28465.60
681.66	27943.66
681.80	28032.60
681.94	27604.28
682.07	27545.76
682.21	27658.11
682.35	27395.97
682.49	27501.29
682.62	27800.88
682.76	27180.64
682.90	27351.50
683.04	27358.52
683.17	27386.61
683.31	27152.55
683.45	27047.23
683.59	26438.69
683.72	26536.99
683.86	26576.78
684.00	26984.04
684.13	26272.51
684.27	26272.51
684.41	26202.30
684.55	26600.19
684.68	25820.79
684.82	26080.59
684.96	25876.96
685.09	25525.88
685.23	26017.40
685.37	26150.81
685.50	25991.65
685.64	26019.74
685.78	25406.52
685.91	25474.39
686.05	25240.34
686.19	24650.52
686.32	25172.46
686.46	24718.40
686.60	24617.75
686.73	24657.54
686.87	24779.25
687.01	24762.87
687.14	24566.26
687.28	24617.75
687.42	24446.90
687.55	24254.97
687.69	24219.86
687.82	24070.07
687.96	24224.54
688.10	24023.26
688.23	24060.71
688.37	23964.75
688.50	24037.30
688.64	23527.06
688.78	23573.88
688.91	23159.60
689.05	23573.88
689.18	23204.07
689.32	22684.47
689.46	22808.52
689.59	22932.57
689.73	23262.58
689.86	23037.89
690.00	22632.98
690.13	22370.84
690.27	22621.28
690.41	22698.52
690.54	22199.98
690.68	22143.81
690.81	21970.61
690.95	22082.95
691.08	21720.17
691.22	21411.22
691.35	21722.51
691.49	22019.76
691.62	21736.56
691.76	21207.59
691.89	21371.43
692.03	20732.47
692.16	20926.73
692.30	21046.10
692.43	20954.82
692.57	20968.86
692.70	21041.42
692.84	20538.20
692.97	20491.39
693.11	20479.69
693.24	20435.22
693.38	20386.07
693.51	20063.07
693.65	20152.01
693.78	20102.86
693.92	19929.66
694.05	19941.36
694.19	19831.36
694.32	19641.78
694.45	19688.59
694.59	19690.93
694.72	19990.52
694.86	19190.05
694.99	19503.68
695.13	19335.17
695.26	18628.32
695.39	18853.02
695.53	18967.70
695.66	18939.62
695.80	18698.54
695.93	18663.43
696.07	18515.98
696.20	18377.89
696.33	18185.96
696.47	18242.14
696.60	18398.95
696.73	18312.35
696.87	18230.43
697.00	18244.48
697.14	18033.83
697.27	17886.37
697.40	17769.35
697.54	18003.40
697.67	17774.03
697.80	17980.00
697.94	17771.69
698.07	17509.55
698.21	17165.49
698.34	17256.77
698.47	17163.15
698.61	16854.20
698.74	16950.16
698.87	17202.94
699.01	16713.77
699.14	16783.98
699.27	16589.72
699.40	16861.22
699.54	16531.20
699.67	16519.50
699.80	16425.88
699.94	16056.08
700.07	16182.46
700.20	16285.45
700.34	16032.67
700.47	16079.48
700.60	16147.36
700.73	15887.56
700.87	15929.69
701.00	15763.51
701.13	15229.87
701.26	15454.56
701.40	15386.68
701.53	15426.47
701.66	15314.13
701.79	15328.17
701.93	14995.81
702.06	14960.70
702.19	15009.86
702.32	14941.98
702.46	15204.12
702.59	15192.42
702.72	14998.15
702.85	14834.32
702.99	14656.43
703.12	14466.85
703.25	14438.76
703.38	14204.71
703.51	14406.00
703.65	14478.55
703.78	14064.28
703.91	14052.58
704.04	14066.62
704.17	13731.92
704.31	13900.44
704.44	13907.46
704.57	13752.99
704.70	13734.26
704.83	13551.70
704.96	13439.36
705.10	13366.80
705.23	13165.51
>>>>>End Processed Spectral Data<<<<<
