SpectraSuite Data File
++++++++++++++++++++++++++++++++++++
Date: Fri Oct 25 10:47:17 EDT 2013
User: price-jones
Dark Spectrum Present: No
Reference Spectrum Present: No
Number of Sampled Component Spectra: 1
Spectrometers: USB2+H05261
Integration Time (usec): 100000 (USB2+H05261)
Spectra Averaged: 1 (USB2+H05261)
Boxcar Smoothing: 0 (USB2+H05261)
Correct for Electrical Dark: No (USB2+H05261)
Strobe/Lamp Enabled: No (USB2+H05261)
Correct for Detector Non-linearity: No (USB2+H05261)
Correct for Stray Light: No (USB2+H05261)
Number of Pixels in Processed Spectrum: 2048
>>>>>Begin Processed Spectral Data<<<<<
365.73	163.84
365.92	163.84
366.12	163.84
366.32	133.41
366.52	86.60
366.72	79.58
366.91	2.34
367.11	0.00
367.31	0.00
367.51	49.15
367.70	74.90
367.90	30.43
368.10	0.00
368.30	0.00
368.49	46.81
368.69	98.30
368.89	91.28
369.09	56.17
369.28	117.03
369.48	37.45
369.68	135.75
369.87	138.09
370.07	98.30
370.27	154.48
370.47	222.35
370.66	372.15
370.86	421.30
371.06	447.04
371.25	435.34
371.45	376.83
371.65	477.47
371.84	418.96
372.04	400.23
372.24	468.11
372.44	531.30
372.63	381.51
372.83	526.62
373.03	463.43
373.22	458.74
373.42	482.15
373.62	538.32
373.81	615.56
374.01	545.34
374.21	521.94
374.40	557.05
374.60	601.52
374.79	514.92
374.99	484.49
375.19	580.45
375.38	585.13
375.58	580.45
375.78	564.07
375.97	571.09
376.17	671.73
376.37	547.69
376.56	451.72
376.76	440.02
376.95	547.69
377.15	587.47
377.35	566.41
377.54	585.13
377.74	571.09
377.93	582.79
378.13	697.48
378.33	622.58
378.52	629.60
378.72	620.24
378.91	589.82
379.11	610.88
379.31	543.00
379.50	573.43
379.70	681.10
379.89	653.01
380.09	636.63
380.28	631.94
380.48	674.07
380.68	624.92
380.87	627.26
381.07	592.16
381.26	660.03
381.46	734.93
381.65	732.59
381.85	676.41
382.04	603.86
382.24	662.37
382.43	662.37
382.63	662.37
382.83	643.65
383.02	662.37
383.22	690.46
383.41	720.88
383.61	711.52
383.80	767.70
384.00	704.50
384.19	748.97
384.39	711.52
384.58	655.35
384.78	816.85
384.97	741.95
385.17	641.31
385.36	711.52
385.56	739.61
385.75	755.99
385.95	795.78
386.14	816.85
386.34	755.99
386.53	720.88
386.72	674.07
386.92	739.61
387.11	847.27
387.31	873.02
387.50	809.83
387.70	835.57
387.89	727.91
388.09	847.27
388.28	849.61
388.48	819.19
388.67	751.31
388.86	861.32
389.06	849.61
389.25	866.00
389.45	866.00
389.64	842.59
389.84	952.60
390.03	882.38
390.22	863.66
390.42	868.34
390.61	858.98
390.81	844.93
391.00	877.70
391.19	837.91
391.39	1006.43
391.58	880.04
391.78	873.02
391.97	1004.09
392.16	940.90
392.36	931.53
392.55	936.21
392.75	910.47
392.94	987.71
393.13	891.74
393.33	940.90
393.52	924.51
393.71	1013.45
393.91	971.32
394.10	1107.07
394.29	1013.45
394.49	950.26
394.68	1102.39
394.88	1050.90
395.07	1067.28
395.26	1064.94
395.46	1020.47
395.65	1011.11
395.84	1111.75
396.04	1184.31
396.23	990.05
396.42	1069.62
396.62	1111.75
396.81	1181.97
397.00	1121.12
397.19	1067.28
397.39	1270.91
397.58	1137.50
397.77	1179.63
397.97	1231.12
398.16	1291.98
398.35	1270.91
398.55	1242.82
398.74	1186.65
398.93	1303.68
399.12	1167.93
399.32	1306.02
399.51	1315.38
399.70	1228.78
399.90	1329.42
400.09	1303.68
400.28	1320.06
400.47	1329.42
400.67	1437.09
400.86	1420.71
401.05	1336.45
401.24	1362.19
401.44	1441.77
401.63	1446.45
401.82	1423.05
402.01	1373.89
402.21	1418.36
402.40	1401.98
402.59	1432.41
402.78	1460.49
402.97	1509.65
403.17	1533.05
403.36	1544.75
403.55	1448.79
403.74	1495.60
403.93	1570.50
404.13	1554.12
404.32	1556.46
404.51	1577.52
404.70	1741.36
404.89	1554.12
405.09	1715.61
405.28	1610.29
405.47	1645.40
405.66	1631.35
405.85	1713.27
406.05	1722.63
406.24	1699.23
406.43	1739.02
406.62	1710.93
406.81	1802.21
407.00	1879.45
407.20	1699.23
407.39	1762.42
407.58	1732.00
407.77	1715.61
407.96	1842.00
408.15	1830.30
408.34	1816.26
408.54	1853.70
408.73	1870.09
408.92	1895.83
409.11	1834.98
409.30	1844.34
409.49	1872.43
409.68	1996.48
409.87	1954.35
410.07	2022.22
410.26	2047.97
410.45	2080.74
410.64	2104.14
410.83	2022.22
411.02	2008.18
411.21	2148.61
411.40	2136.91
411.59	2122.87
411.78	2223.51
411.98	2069.03
412.17	2225.85
412.36	2235.21
412.55	2363.94
412.74	2317.13
412.93	2214.15
413.12	2286.70
413.31	2375.64
413.50	2466.92
413.69	2342.88
413.88	2300.75
414.07	2389.69
414.26	2347.56
414.45	2546.50
414.64	2513.74
414.83	2605.02
415.02	2499.69
415.22	2600.34
415.41	2616.72
415.60	2661.19
415.79	2616.72
415.98	2712.68
416.17	2724.38
416.36	2700.98
416.55	2696.30
416.74	2871.84
416.93	2768.85
417.12	2696.30
417.31	2890.56
417.50	2789.92
417.69	2956.10
417.88	2874.18
418.07	2904.60
418.26	2899.92
418.45	2874.18
418.64	3063.76
418.83	3056.74
419.02	3077.80
419.21	3138.66
419.39	3155.04
419.58	3038.02
419.77	3038.02
419.96	3176.11
420.15	3073.12
420.34	3096.53
420.53	3026.31
420.72	3222.92
420.91	3194.83
421.10	3265.05
421.29	3279.09
421.48	3258.03
421.67	3321.22
421.86	3236.96
422.05	3138.66
422.24	3258.03
422.43	3314.20
422.61	3396.12
422.80	3454.63
422.99	3288.45
423.18	3342.28
423.37	3405.48
423.56	3251.00
423.75	3351.65
423.94	3290.79
424.13	3213.56
424.32	3297.81
424.50	3478.04
424.69	3452.29
424.88	3407.82
425.07	3435.91
425.26	3300.16
425.45	3328.24
425.64	3321.22
425.83	3510.80
426.01	3534.21
426.20	3574.00
426.39	3492.08
426.58	3515.48
426.77	3471.01
426.96	3421.86
427.15	3412.50
427.33	3534.21
427.52	3496.76
427.71	3672.30
427.90	3585.70
428.09	3744.86
428.28	3531.87
428.46	3562.30
428.65	3595.06
428.84	3740.18
429.03	3716.77
429.22	3604.42
429.40	3721.45
429.59	3662.94
429.78	3660.60
429.97	3480.38
430.16	3545.91
430.34	3721.45
430.53	3702.73
430.72	3763.58
430.91	3684.00
431.10	3812.73
431.28	3922.74
431.47	3985.93
431.66	4025.72
431.85	3836.14
432.03	4018.70
432.22	4135.73
432.41	3990.61
432.60	4063.17
432.79	4147.43
432.97	4051.47
433.16	3950.82
433.35	3978.91
433.54	4009.34
433.72	4044.45
433.91	4028.06
434.10	4189.56
434.28	4217.65
434.47	4205.94
434.66	4243.39
434.85	4184.88
435.03	4208.28
435.22	4348.72
435.41	4425.95
435.59	4409.57
435.78	4351.06
435.97	4411.91
436.16	4358.08
436.34	4376.80
436.53	4432.97
436.72	4496.17
436.90	4390.84
437.09	4432.97
437.28	4463.40
437.46	4491.49
437.65	4629.58
437.84	4444.68
438.02	4428.29
438.21	4472.76
438.40	4449.36
438.58	4711.50
438.77	4798.10
438.96	4683.41
439.14	4711.50
439.33	4765.33
439.52	4840.23
439.70	4685.75
439.89	4936.19
440.08	4954.91
440.26	4971.30
440.45	5004.07
440.63	5011.09
440.82	5071.94
441.01	5078.96
441.19	5179.61
441.38	5114.07
441.57	5172.58
441.75	5294.29
441.94	5280.25
442.12	5322.38
442.31	5542.39
442.50	5579.84
442.68	5317.70
442.87	5427.70
443.05	5430.04
443.24	5556.43
443.43	5373.87
443.61	5558.77
443.80	5820.91
443.98	5301.31
444.17	5334.08
444.35	5528.35
444.54	5668.78
444.73	5636.01
444.91	5575.16
445.10	5451.11
445.28	5593.88
445.47	5544.73
445.65	5474.51
445.84	5516.64
446.02	5504.94
446.21	5778.78
446.39	5584.52
446.58	5628.99
446.77	5617.29
446.95	5514.30
447.14	5720.27
447.32	5776.44
447.51	5474.51
447.69	5598.56
447.88	5661.76
448.06	5687.50
448.25	5755.38
448.43	5764.74
448.62	5792.83
448.80	5722.61
448.99	5827.93
449.17	5722.61
449.36	5762.40
449.54	5755.38
449.73	5982.41
449.91	6066.67
450.10	5968.37
450.28	6225.82
450.46	6125.18
450.65	6134.54
450.83	6061.99
451.02	6157.95
451.20	6202.42
451.39	6136.88
451.57	6214.12
451.76	6073.69
451.94	6359.24
452.13	6136.88
452.31	6225.82
452.49	6211.78
452.68	6038.58
452.86	6345.19
453.05	6328.81
453.23	6314.77
453.42	6150.93
453.60	6223.48
453.78	6361.58
453.97	6298.38
454.15	6413.07
454.34	6279.66
454.52	6579.25
454.70	6492.65
454.89	6534.78
455.07	6434.13
455.26	6670.53
455.44	6574.56
455.62	6506.69
455.81	6640.10
455.99	6722.02
456.17	6825.00
456.36	6930.33
456.54	6684.57
456.73	6867.13
456.91	6944.37
457.09	6942.03
457.28	7169.06
457.46	6977.14
457.64	6977.14
457.83	7056.72
458.01	7026.29
458.19	7119.91
458.38	7063.74
458.56	6981.82
458.74	6977.14
458.93	7105.87
459.11	7218.21
459.29	7080.12
459.48	7157.36
459.66	7138.63
459.84	7049.69
460.03	7393.75
460.21	7391.41
460.39	7365.67
460.57	7258.00
460.76	7295.45
460.94	7386.73
461.12	7534.18
461.31	7506.10
461.49	7499.08
461.67	7480.35
461.85	7475.67
462.04	7400.77
462.22	7990.59
462.40	7590.36
462.59	7595.04
462.77	7494.40
462.95	7468.65
463.13	7754.19
463.32	7911.01
463.50	7733.13
463.68	7669.94
463.86	7861.86
464.05	7616.10
464.23	7658.23
464.41	7939.10
464.59	7770.58
464.78	7864.20
464.96	7889.95
465.14	7843.14
465.32	7791.64
465.50	8028.04
465.69	7997.61
465.87	7866.54
466.05	7969.52
466.23	7871.22
466.41	8023.36
466.60	8077.19
466.78	7873.56
466.96	7939.10
467.14	8166.13
467.32	8271.45
467.51	8418.91
467.69	7953.14
467.87	8028.04
468.05	8255.07
468.23	8107.62
468.41	8313.58
468.60	8212.94
468.78	8512.53
468.96	8351.03
469.14	8507.85
469.32	8297.20
469.50	8381.46
469.69	8446.99
469.87	8507.85
470.05	8435.29
470.23	8493.80
470.41	8500.83
470.59	8615.51
470.77	8720.84
470.95	8594.45
471.14	8826.16
471.32	8784.03
471.50	8978.30
471.68	9048.51
471.86	9111.71
472.04	8865.95
472.22	9219.37
472.40	9020.42
472.58	8922.12
472.77	9053.19
472.95	9214.69
473.13	9490.87
473.31	9322.35
473.49	9224.05
473.67	9163.20
473.85	9256.82
474.03	9446.40
474.21	9537.68
474.39	9554.07
474.57	9252.14
474.75	9675.77
474.93	9720.24
475.12	9535.34
475.30	9912.17
475.48	9884.08
475.66	9764.72
475.84	9937.91
476.02	10029.20
476.20	10176.65
476.38	10176.65
476.56	10366.23
476.74	10349.85
476.92	10399.00
477.10	10408.36
477.28	10583.90
477.46	10375.59
477.64	10782.85
477.82	10696.25
478.00	10932.64
478.18	11023.92
478.36	10960.73
478.54	11082.44
478.72	11267.34
478.90	11157.33
479.08	11550.54
479.26	11452.24
479.44	11559.91
479.62	11433.52
479.80	11571.61
479.98	11793.96
480.16	11864.18
480.34	11805.66
480.52	12154.40
480.70	12051.42
480.88	11831.41
481.06	12133.34
481.24	12009.29
481.41	12301.86
481.59	12713.79
481.77	12706.77
481.95	12723.15
482.13	12938.48
482.31	12568.68
482.49	13165.51
482.67	13256.79
482.85	13074.23
483.03	13312.97
483.21	13200.62
483.39	13605.53
483.57	13352.76
483.74	13448.72
483.92	13603.19
484.10	13558.72
484.28	13671.07
484.46	14356.85
484.64	14434.08
484.82	14267.91
485.00	14427.06
485.18	14731.33
485.35	14850.70
485.53	14745.38
485.71	14700.90
485.89	15054.33
486.07	14618.99
486.25	15117.52
486.43	15300.08
486.61	15269.66
486.78	15311.78
486.96	15550.52
487.14	15487.32
487.32	15585.63
487.50	16133.31
487.68	15873.51
487.85	15985.86
488.03	16276.09
488.21	16662.27
488.39	16486.73
488.57	16692.70
488.75	16599.08
488.92	16664.61
489.10	16985.27
489.28	17118.68
489.46	17055.48
489.64	17458.06
489.81	18001.06
489.99	17586.79
490.17	17757.64
490.35	18043.19
490.53	17954.25
490.70	18202.35
490.88	18015.10
491.06	18607.26
491.24	18579.17
491.41	18293.63
491.59	18789.82
491.77	18759.39
491.95	18808.54
492.13	18906.85
492.30	19101.11
492.48	19239.20
492.66	19271.97
492.84	19639.44
493.01	19510.71
493.19	19634.75
493.37	19957.75
493.54	19747.10
493.72	19992.86
493.90	20006.90
494.08	20322.87
494.25	20449.26
494.43	20868.22
494.61	20692.68
494.79	20678.63
494.96	20711.40
495.14	20538.20
495.32	21200.57
495.49	21149.08
495.67	21130.36
495.85	21392.50
496.02	21497.82
496.20	21865.28
496.38	21689.74
496.55	21745.92
496.73	22164.87
496.91	21844.22
497.09	22455.10
497.26	22279.56
497.44	22207.00
497.62	22256.15
497.79	22773.41
497.97	22738.30
498.14	22850.65
498.32	22951.29
498.50	22635.32
498.67	23115.13
498.85	23065.98
499.03	23711.97
499.20	23407.70
499.38	23662.82
499.56	23538.77
499.73	23697.92
499.91	23726.01
500.08	23946.02
500.26	23569.19
500.44	23836.02
500.61	24077.09
500.79	23562.17
500.97	24137.94
501.14	24140.29
501.32	24271.36
501.49	24376.68
501.67	24545.20
501.84	24418.81
502.02	24744.14
502.20	25027.35
502.37	24954.79
502.55	25017.99
502.72	25235.66
502.90	25170.12
503.07	24959.47
503.25	25113.95
503.43	25294.17
503.60	25455.67
503.78	25198.21
503.95	25649.93
504.13	25612.48
504.30	25766.96
504.48	25876.96
504.65	25773.98
504.83	26150.81
505.01	26499.55
505.18	25734.19
505.36	26401.24
505.53	26298.26
505.71	26485.50
505.88	26651.68
506.06	26438.69
506.23	26684.45
506.41	26675.09
506.58	26785.09
506.76	26654.02
506.93	27077.66
507.11	27000.42
507.28	27466.19
507.46	27110.43
507.63	26958.29
507.81	27288.31
507.98	27428.74
508.16	27555.13
508.33	27417.04
508.50	27503.64
508.68	27868.76
508.85	27798.54
509.03	27807.90
509.20	27974.08
509.38	28308.78
509.55	28147.28
509.73	28067.70
509.90	28285.37
510.08	28151.96
510.25	28304.10
510.42	28868.17
510.60	28622.41
510.77	28755.82
510.95	28758.16
511.12	28849.44
511.30	29067.11
511.47	29139.67
511.64	29378.40
511.82	29586.71
511.99	29226.27
512.17	29132.65
512.34	29256.70
512.51	29621.82
512.69	29846.51
512.86	29813.74
513.04	29844.17
513.21	29919.07
513.38	29795.02
513.56	29942.47
513.73	29935.45
513.90	30349.73
514.08	29926.09
514.25	30345.05
514.43	30363.77
514.60	30429.30
514.77	30412.92
514.95	30651.66
515.12	30522.93
515.29	30974.65
515.47	30885.71
515.64	31082.31
515.81	30822.51
515.99	30810.81
516.16	30909.11
516.33	30843.58
516.51	31026.14
516.68	30939.54
516.85	30787.41
517.03	31428.71
517.20	31431.05
517.37	31398.29
517.54	31449.78
517.72	31419.35
517.89	31234.45
518.06	31428.71
518.24	31627.66
518.41	31400.63
518.58	31826.60
518.75	31482.55
518.93	32002.14
519.10	32051.30
519.27	32109.81
519.45	31899.16
519.62	32025.55
519.79	32088.74
519.96	31969.38
520.14	32528.77
520.31	32507.70
520.48	32540.47
520.65	32577.92
520.83	32556.85
521.00	32732.39
521.17	32664.52
521.34	32720.69
521.52	33179.43
521.69	32833.04
521.86	32865.80
522.03	32933.68
522.20	33216.88
522.38	33149.01
522.55	33598.39
522.72	33429.87
522.89	33329.23
523.07	33301.14
523.24	33347.95
523.41	33427.53
523.58	33242.63
523.75	33855.85
523.92	33874.57
524.10	34078.20
524.27	33954.15
524.44	34211.61
524.61	34146.08
524.78	33975.22
524.96	34466.73
525.13	34457.37
525.30	34586.10
525.47	34689.08
525.64	34593.12
525.81	34359.06
525.98	34349.70
526.16	34501.84
526.33	34272.46
526.50	35030.80
526.67	34267.78
526.84	34738.23
527.01	34885.68
527.18	34679.72
527.36	34988.67
527.53	35175.91
527.70	35487.20
527.87	35494.22
528.04	34976.97
528.21	35314.00
528.38	35665.08
528.55	35599.55
528.72	35681.47
528.89	35793.81
529.07	35526.99
529.24	35365.49
529.41	35789.13
529.58	35402.94
529.75	35583.16
529.92	36046.59
530.09	36121.49
530.26	36119.15
530.43	36065.31
530.60	35644.02
530.77	36123.83
530.94	36093.40
531.11	36449.16
531.28	36498.31
531.46	36121.49
531.63	36198.73
531.80	36332.14
531.97	36325.11
532.14	36332.14
532.31	36397.67
532.48	36559.17
532.65	36720.66
532.82	36870.46
532.99	36804.92
533.16	36760.45
533.33	36971.10
533.50	36905.57
533.67	37095.15
533.84	36711.30
534.01	36882.16
534.18	36985.15
534.35	37090.47
534.52	36999.19
534.69	37350.27
534.86	36957.06
535.03	37256.65
535.20	37619.43
535.37	37612.41
535.54	37626.45
535.71	37392.40
535.88	37486.02
536.05	37991.58
536.22	37488.36
536.38	37570.28
536.55	38181.16
536.72	37720.07
536.89	37476.66
537.06	37715.39
537.23	37930.72
537.40	37560.92
537.57	37867.53
537.74	37556.24
537.91	38607.14
538.08	38244.35
538.25	37937.74
538.42	37935.40
538.59	38487.77
538.75	37975.19
538.92	38389.47
539.09	38660.97
539.26	38220.95
539.43	38319.25
539.60	38057.11
539.77	38457.34
539.94	38256.06
540.11	38192.86
540.28	38438.62
540.44	38190.52
540.61	38419.89
540.78	38635.22
540.95	38766.29
541.12	38588.41
541.29	38401.17
541.46	38817.78
541.62	39243.76
541.79	39332.70
541.96	38726.50
542.13	39075.24
542.30	39187.59
542.47	39398.24
542.63	39105.67
542.80	39171.21
542.97	39800.81
543.14	39473.13
543.31	39875.71
543.48	39796.13
543.64	40016.14
543.81	40053.59
543.98	39894.43
544.15	39784.43
544.32	39899.11
544.48	40203.38
544.65	40261.90
544.82	40011.46
544.99	39634.63
545.16	39779.74
545.32	39948.26
545.49	40327.43
545.66	40076.99
545.83	40610.64
546.00	40399.99
546.16	40231.47
546.33	39800.81
546.50	39784.43
546.67	40247.85
546.83	39667.40
547.00	40811.92
547.17	40446.80
547.34	40161.25
547.50	40343.81
547.67	40774.47
547.84	40624.68
548.00	40683.19
548.17	40748.73
548.34	41137.26
548.51	41031.93
548.67	41404.08
548.84	41441.53
549.01	40533.40
549.18	40947.67
549.34	41048.32
549.51	40975.76
549.68	41265.99
549.84	41202.79
550.01	41088.10
550.18	41029.59
550.34	41387.69
550.51	41195.77
550.68	41130.23
550.84	40725.32
551.01	40992.14
551.18	41317.48
551.34	41567.91
551.51	41195.77
551.68	41684.94
551.84	41528.13
552.01	41448.55
552.18	41682.60
552.34	41387.69
552.51	41537.49
552.68	41486.00
552.84	41703.67
553.01	42031.34
553.18	41631.11
553.34	42014.96
553.51	41385.35
553.67	41684.94
553.84	42169.43
554.01	41923.68
554.17	42054.75
554.34	42082.83
554.51	42206.88
554.67	42157.73
554.84	41525.78
555.00	41703.67
555.17	41319.82
555.33	41855.80
555.50	42139.00
555.67	41495.36
555.83	42499.45
556.00	42291.14
556.16	42433.91
556.33	42305.18
556.50	42029.00
556.66	42684.35
556.83	42185.82
556.99	42487.74
557.16	42579.03
557.32	42511.15
557.49	42518.17
557.65	42279.44
557.82	42218.58
557.98	42295.82
558.15	42515.83
558.32	42501.79
558.48	42522.85
558.65	42639.88
558.81	42354.33
558.98	42459.66
559.14	42497.11
559.31	42476.04
559.47	42089.85
559.64	42782.65
559.80	42927.77
559.97	42902.02
560.13	42642.22
560.30	42541.58
560.46	42342.63
560.63	42864.57
560.79	42876.27
560.96	42658.60
561.12	42572.00
561.29	43061.18
561.45	42836.48
561.61	42660.94
561.78	42834.14
561.94	42529.87
562.11	42756.91
562.27	43131.39
562.44	42827.12
562.60	43325.66
562.77	43267.14
562.93	42522.85
563.10	43342.04
563.26	42925.42
563.42	42986.28
563.59	42934.79
563.75	43040.11
563.92	43414.60
564.08	43070.54
564.24	42974.58
564.41	43309.27
564.57	43173.52
564.74	43049.47
564.90	43295.23
565.07	43585.46
565.23	43014.37
565.39	43562.05
565.56	43522.26
565.72	43098.62
565.88	43070.54
566.05	43168.84
566.21	43353.74
566.38	43260.12
566.54	43285.87
566.70	43545.67
566.87	43775.04
567.03	43421.62
567.19	43852.28
567.36	43578.43
567.52	43737.59
567.68	43863.98
567.85	43194.59
568.01	43370.13
568.17	43335.02
568.34	43583.12
568.50	43491.83
568.66	43540.99
568.83	43601.84
568.99	43152.46
569.15	43772.70
569.32	43330.34
569.48	43400.55
569.64	43388.85
569.81	43775.04
569.97	43510.56
570.13	43335.02
570.30	43016.71
570.46	43772.70
570.62	43283.53
570.78	43274.16
570.95	43590.14
571.11	43662.69
571.27	43889.73
571.43	43655.67
571.60	43494.18
571.76	43552.69
571.92	43332.68
572.09	43264.80
572.25	43613.54
572.41	43751.63
572.57	43672.06
572.74	44509.97
572.90	43796.10
573.06	43721.21
573.22	43779.72
573.38	43627.59
573.55	43395.87
573.71	43863.98
573.87	43859.30
574.03	43426.30
574.20	43704.82
574.36	43409.92
574.52	43772.70
574.68	43985.69
574.84	44107.40
575.01	43782.06
575.17	43650.99
575.33	43203.95
575.49	43433.32
575.65	44051.22
575.82	44355.49
575.98	43494.18
576.14	44069.95
576.30	43868.66
576.46	43686.10
576.62	43728.23
576.79	44079.31
576.95	43660.35
577.11	43882.70
577.27	43927.17
577.43	44095.69
577.59	44165.91
577.75	44002.07
577.92	43950.58
578.08	43482.47
578.24	43887.39
578.40	43704.82
578.56	43873.34
578.72	43901.43
578.88	44037.18
579.04	44105.06
579.21	44051.22
579.37	43735.25
579.53	44011.43
579.69	43803.13
579.85	43512.90
580.01	43894.41
580.17	44100.37
580.33	44004.41
580.49	44229.10
580.65	43931.86
580.82	44484.22
580.98	43969.30
581.14	43669.72
581.30	44151.87
581.46	44013.77
581.62	44025.48
581.78	44371.88
581.94	44102.71
582.10	44088.67
582.26	43875.68
582.42	43772.70
582.58	43878.02
582.74	43548.01
582.90	43835.89
583.06	43992.71
583.22	44100.37
583.38	44154.21
583.54	43929.51
583.70	43725.89
583.86	44039.52
584.02	43419.28
584.18	43943.56
584.34	44076.97
584.50	44116.76
584.66	44009.09
584.82	43819.51
584.98	44023.14
585.14	43629.93
585.30	43913.13
585.46	43952.92
585.62	43711.84
585.78	44603.59
585.94	43753.97
586.10	43763.34
586.26	44060.58
586.42	44334.43
586.58	43924.83
586.74	44439.75
586.90	43842.92
587.06	43887.39
587.22	44456.14
587.38	43976.33
587.54	44144.84
587.70	44004.41
587.86	44023.14
588.02	44465.50
588.18	44304.00
588.34	44460.82
588.49	44121.44
588.65	43538.65
588.81	43714.19
588.97	44182.29
589.13	43676.74
589.29	43917.81
589.45	44191.65
589.61	43966.96
589.77	44512.31
589.93	44107.40
590.08	44332.09
590.24	44224.42
590.40	44580.18
590.56	44488.90
590.72	44744.02
590.88	44308.68
591.04	44357.83
591.20	44346.13
591.35	44776.79
591.51	44737.00
591.67	44484.22
591.83	44704.23
591.99	44151.87
592.15	44254.85
592.31	44154.21
592.46	44357.83
592.62	44437.41
592.78	44350.81
592.94	44318.04
593.10	44535.71
593.26	44575.50
593.41	44418.69
593.57	43938.88
593.73	44732.32
593.89	44261.87
594.05	44201.02
594.20	43948.24
594.36	44582.52
594.52	44210.38
594.68	44816.58
594.84	44519.33
594.99	44919.56
595.15	44383.58
595.31	44404.64
595.47	44423.37
595.62	44516.99
595.78	44502.95
595.94	44414.01
596.10	44996.80
596.25	44875.09
596.41	44844.66
596.57	44626.99
596.73	44587.21
596.88	43896.75
597.04	44729.98
597.20	44687.85
597.36	44830.62
597.51	44598.91
597.67	44893.82
597.83	44341.45
597.99	44673.81
598.14	44395.28
598.30	44905.52
598.46	44423.37
598.61	44484.22
598.77	44425.71
598.93	44465.50
599.09	44285.28
599.24	44985.10
599.40	44545.08
599.56	44949.99
599.71	44535.71
599.87	44999.14
600.03	44985.10
600.18	44051.22
600.34	44526.35
600.50	44554.44
600.65	44168.25
600.81	44839.98
600.97	44882.11
601.12	44961.69
601.28	44748.70
601.44	44608.27
601.59	44306.34
601.75	44334.43
601.91	44903.18
602.06	44439.75
602.22	44533.37
602.37	45010.84
602.53	44280.60
602.69	44664.44
602.84	44762.75
603.00	44402.30
603.16	44641.04
603.31	44596.57
603.47	44423.37
603.62	44233.78
603.78	44402.30
603.94	44793.17
604.09	44357.83
604.25	44266.55
604.40	45111.49
604.56	44318.04
604.71	44718.28
604.87	44467.84
605.03	44641.04
605.18	44175.27
605.34	44306.34
605.49	44404.64
605.65	44486.56
605.80	44519.33
605.96	44451.45
606.12	44568.48
606.27	44959.35
606.43	44376.56
606.58	44729.98
606.74	44130.80
606.89	44313.36
607.05	44474.86
607.20	44439.75
607.36	44268.89
607.51	44685.51
607.67	44430.39
607.82	44493.58
607.98	44563.80
608.13	44378.90
608.29	44275.91
608.44	44091.01
608.60	43889.73
608.75	44231.44
608.91	44322.72
609.06	43983.35
609.22	44524.01
609.37	44383.58
609.53	44339.11
609.68	44280.60
609.84	44383.58
609.99	44217.40
610.15	44013.77
610.30	43894.41
610.46	43999.73
610.61	44037.18
610.76	43983.35
610.92	44245.49
611.07	44044.20
611.23	43945.90
611.38	43796.10
611.54	44294.64
611.69	43828.87
611.84	43470.77
612.00	44119.10
612.15	43875.68
612.31	43959.94
612.46	43627.59
612.62	44098.03
612.77	43744.61
612.92	44226.76
613.08	43821.85
613.23	43856.96
613.39	43463.75
613.54	43938.88
613.69	43433.32
613.85	43805.47
614.00	43721.21
614.15	44069.95
614.31	43758.66
614.46	44381.24
614.62	43608.86
614.77	43475.45
614.92	43409.92
615.08	43189.91
615.23	43749.29
615.38	43501.20
615.54	43138.41
615.69	43320.98
615.84	43225.01
616.00	43225.01
616.15	43056.50
616.30	43538.65
616.46	43157.14
616.61	43026.07
616.76	43585.46
616.92	43037.77
617.07	42897.34
617.22	42855.21
617.37	43098.62
617.53	43313.95
617.68	43166.50
617.83	43702.48
617.99	43325.66
618.14	43374.81
618.29	42913.72
618.45	42763.93
618.60	42976.92
618.75	43122.03
618.90	43374.81
619.06	43166.50
619.21	43262.46
619.36	43564.39
619.51	43040.11
619.67	43037.77
619.82	43503.54
619.97	43175.86
620.12	42590.73
620.28	42735.84
620.43	42576.69
620.58	42946.49
620.73	43150.12
620.89	42740.52
621.04	42887.98
621.19	42684.35
621.34	42251.35
621.49	42490.09
621.65	42422.21
621.80	42499.45
621.95	42433.91
622.10	42382.42
622.25	42361.36
622.41	42696.05
622.56	42148.37
622.71	42932.45
622.86	42923.08
623.01	42295.82
623.16	42703.07
623.32	42426.89
623.47	42665.63
623.62	42443.27
623.77	42555.62
623.92	42401.14
624.07	42043.04
624.23	41825.37
624.38	42024.32
624.53	42167.09
624.68	42061.77
624.83	42192.84
624.98	42197.52
625.13	42185.82
625.29	41823.03
625.44	42029.00
625.59	42153.05
625.74	41972.83
625.89	41628.77
626.04	41497.70
626.19	41729.41
626.34	42000.91
626.49	42209.22
626.65	41684.94
626.80	41757.50
626.95	41745.80
627.10	41457.91
627.25	41560.89
627.40	41399.40
627.55	41769.20
627.70	41219.17
627.85	41448.55
628.00	41209.81
628.15	41977.51
628.30	41375.99
628.45	41710.69
628.60	41415.78
628.76	41947.08
628.91	41689.62
629.06	40851.71
629.21	41043.63
629.36	41383.01
629.51	41574.94
629.66	40987.46
629.81	41036.61
629.96	41181.73
630.11	41305.77
630.26	41280.03
630.41	41291.73
630.56	40598.93
630.71	41216.83
630.86	40718.30
631.01	40889.16
631.16	41155.98
631.31	41310.46
631.46	40708.94
631.61	40776.81
631.76	40879.80
631.91	40942.99
632.06	40676.17
632.21	41144.28
632.36	40737.02
632.51	40861.07
632.66	40840.01
632.81	40308.71
632.96	40495.95
633.10	40664.47
633.25	40383.60
633.40	40435.10
633.55	40811.92
633.70	41071.72
633.85	40329.77
634.00	40657.45
634.15	40652.76
634.30	40491.27
634.45	40030.18
634.60	39831.24
634.75	40524.04
634.90	40545.10
635.05	40509.99
635.19	40395.31
635.34	40779.15
635.49	40217.43
635.64	39974.01
635.79	39983.37
635.94	40011.46
636.09	40034.86
636.24	39828.90
636.39	39658.04
636.53	39793.79
636.68	40095.72
636.83	39842.94
636.98	40306.37
637.13	40107.42
637.28	39896.77
637.43	40399.99
637.57	40222.11
637.72	40053.59
637.87	39852.30
638.02	40095.72
638.17	39889.75
638.32	39791.45
638.46	39463.77
638.61	39756.34
638.76	39688.46
638.91	39548.03
639.06	39517.60
639.20	39655.70
639.35	39480.16
639.50	39653.36
639.65	39702.51
639.80	39768.04
639.94	39629.95
640.09	39463.77
640.24	39096.31
640.39	38981.62
640.54	39330.36
640.68	39569.10
640.83	39414.62
640.98	39594.84
641.13	38885.66
641.27	39611.23
641.42	39267.17
641.57	39374.83
641.72	39749.32
641.86	39262.49
642.01	39196.95
642.16	39285.89
642.31	38686.71
642.45	39171.21
642.60	39100.99
642.75	38579.05
642.90	38974.60
643.04	38660.97
643.19	38845.87
643.34	39416.96
643.48	38806.08
643.63	39014.39
643.78	38944.17
643.93	38834.17
644.07	38352.02
644.22	38880.98
644.37	38389.47
644.51	38469.04
644.66	39112.69
644.81	38967.58
644.95	38703.10
645.10	38944.17
645.25	38707.78
645.39	38820.13
645.54	38834.17
645.69	38281.80
645.83	38450.32
645.98	38387.13
646.13	38445.64
646.27	38548.62
646.42	38724.16
646.57	38359.04
646.71	38967.58
646.86	38417.55
647.00	38410.53
647.15	38768.63
647.30	38850.55
647.44	38478.41
647.59	38646.93
647.74	38110.94
647.88	38337.98
648.03	38225.63
648.17	37778.59
648.32	38103.92
648.47	37844.12
648.61	37895.61
648.76	38302.87
648.90	38129.67
649.05	38263.08
649.20	38202.22
649.34	37965.83
649.49	38014.98
649.63	37647.52
649.78	38101.58
649.92	37635.81
650.07	38227.97
650.21	37909.66
650.36	37937.74
650.51	37514.11
650.65	38045.41
650.80	38440.96
650.94	38064.13
651.09	37799.65
651.23	37464.96
651.38	37933.06
651.52	37762.20
651.67	37904.98
651.81	37481.34
651.96	37495.38
652.10	37329.20
652.25	37364.31
652.39	37401.76
652.54	37294.10
652.68	37656.88
652.83	38190.52
652.97	37729.44
653.12	37642.84
653.26	37181.75
653.41	37696.67
653.55	37249.63
653.70	37397.08
653.84	37350.27
653.99	36989.83
654.13	36999.19
654.27	37263.67
654.42	37387.72
654.56	37385.38
654.71	37130.26
654.85	36631.72
655.00	37001.53
655.14	37120.90
655.29	36723.01
655.43	36914.93
655.57	36659.81
655.72	36741.73
655.86	36910.25
656.01	37216.86
656.15	36718.32
656.30	36793.22
656.44	36708.96
656.58	36865.78
656.73	36311.07
656.87	36526.40
657.01	36535.76
657.16	36336.82
657.30	36189.36
657.45	36439.80
657.59	36053.61
657.73	36655.13
657.88	36184.68
658.02	36343.84
658.16	36493.63
658.31	36652.79
658.45	36121.49
658.60	36472.57
658.74	36027.87
658.88	36549.81
659.03	36245.54
659.17	35903.82
659.31	35952.97
659.46	35868.71
659.60	35288.26
659.74	36107.44
659.89	35929.56
660.03	35660.40
660.17	36039.57
660.32	35920.20
660.46	36306.39
660.60	35871.05
660.74	35945.95
660.89	35611.25
661.03	35391.24
661.17	35674.45
661.32	35175.91
661.46	35372.52
661.60	35204.00
661.74	35098.67
661.89	35679.13
662.03	35651.04
662.17	35306.98
662.31	35227.40
662.46	35269.53
662.60	35269.53
662.74	35236.77
662.88	35175.91
663.03	35016.75
663.17	34981.65
663.31	35101.01
663.45	35236.77
663.60	35051.86
663.74	34834.19
663.88	34316.93
664.02	34728.87
664.17	34632.91
664.31	34834.19
664.45	34188.21
664.59	34607.16
664.73	34796.74
664.88	34588.44
665.02	34017.35
665.16	34033.73
665.30	34639.93
665.44	34277.15
665.59	33778.61
665.73	33757.55
665.87	34085.22
666.01	33961.17
666.15	33603.07
666.29	33558.60
666.44	34040.75
666.58	34057.14
666.72	33434.55
666.86	33752.87
667.00	33624.14
667.14	33514.13
667.28	33514.13
667.43	33282.42
667.57	33493.07
667.71	33174.75
667.85	33542.22
667.99	33153.69
668.13	33041.34
668.27	32837.72
668.41	33469.66
668.56	32996.87
668.70	33277.74
668.84	32718.35
668.98	32526.42
669.12	32664.52
669.26	32769.84
669.40	32875.16
669.54	32671.54
669.68	33099.86
669.82	33069.43
669.96	32294.71
670.10	32081.72
670.25	32493.66
670.39	32762.82
670.53	32423.44
670.67	32222.16
670.81	32315.78
670.95	32601.32
671.09	32292.37
671.23	32535.79
671.37	32631.75
671.51	32142.58
671.65	31990.44
671.79	31695.53
671.93	31744.69
672.07	32095.77
672.21	31894.48
672.35	31431.05
672.49	31648.72
672.63	31725.96
672.77	31468.50
672.91	31274.24
673.05	31253.17
673.19	31234.45
673.33	30733.57
673.47	31218.07
673.61	30761.66
673.75	31110.40
673.89	30899.75
674.03	30562.72
674.17	30539.31
674.31	30869.33
674.45	30455.05
674.59	30534.63
674.73	30941.88
674.87	30726.55
675.01	30401.22
675.15	30766.34
675.29	30691.44
675.43	30377.81
675.56	30506.54
675.70	29909.71
675.84	29930.77
675.98	28982.85
676.12	29607.78
676.26	29799.70
676.40	29575.01
676.54	29535.22
676.68	29371.38
676.82	29053.07
676.96	29308.19
677.10	29460.32
677.23	28919.66
677.37	29277.76
677.51	28816.68
677.65	28943.06
677.79	28617.73
677.93	28671.56
678.07	28446.87
678.21	28098.13
678.34	28624.75
678.48	28439.85
678.62	28404.74
678.76	28376.66
678.90	27971.74
679.04	27709.60
679.18	27864.08
679.31	28044.30
679.45	27880.46
679.59	27487.25
679.73	27498.95
679.87	27971.74
680.00	27917.91
680.14	27168.94
680.28	27136.17
680.42	27428.74
680.56	27182.98
680.70	27122.13
680.83	27108.08
680.97	27316.39
681.11	26799.13
681.25	26504.23
681.39	26256.13
681.52	26658.70
681.66	26546.36
681.80	26754.66
681.94	26937.23
682.07	26206.98
682.21	26050.16
682.35	26178.89
682.49	26094.63
682.62	26120.38
682.76	25792.70
682.90	25666.31
683.04	25790.36
683.17	25905.05
683.31	25860.58
683.45	25642.91
683.59	25570.35
683.72	25247.36
683.86	25025.01
684.00	24931.39
684.13	24879.89
684.27	25598.44
684.41	25057.78
684.55	24844.79
684.68	24144.97
684.82	24505.41
684.96	24863.51
685.09	24603.71
685.23	24542.86
685.37	24053.69
685.50	24343.91
685.64	24320.51
685.78	23992.83
685.91	24135.60
686.05	23594.94
686.19	23332.80
686.32	23608.98
686.46	23456.85
686.60	23246.20
686.73	23592.60
686.87	23370.25
687.01	23063.64
687.14	23094.07
687.28	23321.10
687.42	22705.54
687.55	22916.19
687.69	22721.92
687.82	22541.70
687.96	22745.33
688.10	22492.55
688.23	22324.03
688.37	22286.58
688.50	21991.67
688.64	22281.90
688.78	21942.52
688.91	22129.77
689.05	22258.49
689.18	21940.18
689.32	21235.68
689.46	21759.96
689.59	21692.08
689.73	22038.48
689.86	21582.08
690.00	21443.99
690.13	21558.67
690.27	21350.37
690.41	20922.05
690.54	20931.41
690.68	21032.05
690.81	20947.79
690.95	20891.62
691.08	20807.36
691.22	20648.21
691.35	20730.12
691.49	20727.78
691.62	20552.24
691.76	20748.85
691.89	20709.06
692.03	20114.56
692.16	20311.17
692.30	20229.25
692.43	19819.66
692.57	19754.12
692.70	19824.34
692.84	19730.72
692.97	19620.71
693.11	19557.52
693.24	19377.30
693.38	19468.58
693.51	19267.29
693.65	19620.71
693.78	19494.32
693.92	19309.42
694.05	19337.51
694.19	18883.44
694.32	19073.03
694.45	19370.27
694.59	18684.50
694.72	18794.50
694.86	18490.23
694.99	18616.62
695.13	18424.70
695.26	18059.57
695.39	18253.84
695.53	18157.88
695.66	18424.70
695.80	18352.14
695.93	18192.98
696.07	17865.31
696.20	17736.58
696.33	18054.89
696.47	17736.58
696.60	17799.77
696.73	17727.22
696.87	17731.90
697.00	17689.77
697.14	17488.48
697.27	17408.90
697.40	17575.08
697.54	17539.97
697.67	17006.33
697.80	17198.26
697.94	16849.52
698.07	16596.74
698.21	16830.79
698.34	17078.89
698.47	16755.90
698.61	16517.16
698.74	16437.58
698.87	16568.65
699.01	16252.68
699.14	16374.39
699.27	16091.18
699.40	16140.33
699.54	15873.51
699.67	15800.96
699.80	16086.50
699.94	16020.97
700.07	15829.04
700.20	15676.91
700.34	15761.17
700.47	15646.48
700.60	15592.65
700.73	15632.44
700.87	15274.34
701.00	15524.77
701.13	15283.70
701.26	15449.88
701.40	15192.42
701.53	14979.43
701.66	15119.86
701.79	14993.47
701.93	14991.13
702.06	14506.64
702.19	14857.72
702.32	14932.62
702.46	14754.74
702.59	14527.71
702.72	14747.72
702.85	14576.86
702.99	14310.04
703.12	14546.43
703.25	14317.06
703.38	14408.34
703.51	14459.83
703.65	14253.86
703.78	13940.23
703.91	13900.44
704.04	14064.28
704.17	13804.48
704.31	13834.91
704.44	13600.85
704.57	13563.40
704.70	13551.70
704.83	13345.73
704.96	13600.85
705.10	13495.53
705.23	13521.27
>>>>>End Processed Spectral Data<<<<<
