SpectraSuite Data File
++++++++++++++++++++++++++++++++++++
Date: Fri Oct 25 10:47:08 EDT 2013
User: price-jones
Dark Spectrum Present: No
Reference Spectrum Present: No
Number of Sampled Component Spectra: 1
Spectrometers: USB2+H05261
Integration Time (usec): 100000 (USB2+H05261)
Spectra Averaged: 1 (USB2+H05261)
Boxcar Smoothing: 0 (USB2+H05261)
Correct for Electrical Dark: No (USB2+H05261)
Strobe/Lamp Enabled: No (USB2+H05261)
Correct for Detector Non-linearity: No (USB2+H05261)
Correct for Stray Light: No (USB2+H05261)
Number of Pixels in Processed Spectrum: 2048
>>>>>Begin Processed Spectral Data<<<<<
365.73	191.92
365.92	191.92
366.12	191.92
366.32	91.28
366.52	58.51
366.72	30.43
366.91	39.79
367.11	28.09
367.31	28.09
367.51	46.81
367.70	95.96
367.90	60.85
368.10	56.17
368.30	16.38
368.49	60.85
368.69	86.60
368.89	51.49
369.09	32.77
369.28	0.00
369.48	58.51
369.68	49.15
369.87	93.62
370.07	107.66
370.27	95.96
370.47	227.03
370.66	407.25
370.86	479.81
371.06	433.00
371.25	461.09
371.45	379.17
371.65	461.09
371.84	416.62
372.04	454.06
372.24	512.58
372.44	461.09
372.63	451.72
372.83	465.77
373.03	514.92
373.22	507.90
373.42	505.56
373.62	587.47
373.81	531.30
374.01	451.72
374.21	510.24
374.40	535.98
374.60	543.00
374.79	493.85
374.99	580.45
375.19	531.30
375.38	543.00
375.58	547.69
375.78	550.03
375.97	580.45
376.17	638.97
376.37	573.43
376.56	526.62
376.76	594.50
376.95	521.94
377.15	587.47
377.35	543.00
377.54	521.94
377.74	533.64
377.93	592.16
378.13	582.79
378.33	545.34
378.52	603.86
378.72	620.24
378.91	636.63
379.11	655.35
379.31	653.01
379.50	716.20
379.70	622.58
379.89	620.24
380.09	571.09
380.28	676.41
380.48	643.65
380.68	634.29
380.87	683.44
381.07	645.99
381.26	674.07
381.46	699.82
381.65	674.07
381.85	606.20
382.04	622.58
382.24	622.58
382.43	627.26
382.63	627.26
382.83	681.10
383.02	760.67
383.22	774.72
383.41	697.48
383.61	653.01
383.80	748.97
384.00	685.78
384.19	821.53
384.39	732.59
384.58	763.01
384.78	788.76
384.97	753.65
385.17	786.42
385.36	706.84
385.56	798.12
385.75	678.76
385.95	753.65
386.14	826.21
386.34	805.14
386.53	823.87
386.72	819.19
386.92	791.10
387.11	800.46
387.31	667.05
387.50	805.14
387.70	739.61
387.89	887.06
388.09	837.91
388.28	835.57
388.48	812.17
388.67	856.64
388.86	877.70
389.06	870.68
389.25	863.66
389.45	966.64
389.64	877.70
389.84	936.21
390.03	837.91
390.22	884.72
390.42	929.19
390.61	828.55
390.81	849.61
391.00	910.47
391.19	957.28
391.39	954.94
391.58	980.68
391.78	1025.15
391.97	980.68
392.16	976.00
392.36	1006.43
392.55	999.41
392.75	1011.11
392.94	868.34
393.13	894.08
393.33	894.08
393.52	961.96
393.71	1008.77
393.91	973.66
394.10	1039.20
394.29	1018.13
394.49	968.98
394.68	1146.86
394.88	1083.67
395.07	1174.95
395.26	1228.78
395.46	1053.24
395.65	994.73
395.84	1151.54
396.04	1097.71
396.23	1132.82
396.42	1071.97
396.62	1074.31
396.81	1170.27
397.00	1104.73
397.19	1142.18
397.39	1163.25
397.58	1256.87
397.77	1231.12
397.97	1327.08
398.16	1289.64
398.35	1277.93
398.55	1289.64
398.74	1212.40
398.93	1270.91
399.12	1348.15
399.32	1263.89
399.51	1331.76
399.70	1371.55
399.90	1256.87
400.09	1427.73
400.28	1409.00
400.47	1397.30
400.67	1383.26
400.86	1401.98
401.05	1423.05
401.24	1439.43
401.44	1507.30
401.63	1479.22
401.82	1455.81
402.01	1490.92
402.21	1537.73
402.40	1432.41
402.59	1497.94
402.78	1509.65
402.97	1577.52
403.17	1610.29
403.36	1544.75
403.55	1593.90
403.74	1694.55
403.93	1657.10
404.13	1638.38
404.32	1624.33
404.51	1680.50
404.70	1643.06
404.89	1762.42
405.09	1680.50
405.28	1701.57
405.47	1593.90
405.66	1727.32
405.85	1757.74
406.05	1795.19
406.24	1732.00
406.43	1715.61
406.62	1748.38
406.81	1790.51
407.00	1717.95
407.20	1860.73
407.39	1792.85
407.58	1900.52
407.77	1872.43
407.96	1952.01
408.15	1834.98
408.34	1877.11
408.54	1865.41
408.73	1982.43
408.92	1858.39
409.11	1935.62
409.30	2038.61
409.49	2071.37
409.68	1987.11
409.87	2001.16
410.07	1968.39
410.26	2015.20
410.45	2080.74
410.64	2179.04
410.83	2204.78
411.02	2153.29
411.21	2335.85
411.40	2157.97
411.59	2263.30
411.78	2214.15
411.98	2331.17
412.17	2253.94
412.36	2342.88
412.55	2328.83
412.74	2317.13
412.93	2377.98
413.12	2279.68
413.31	2499.69
413.50	2483.31
413.69	2562.89
413.88	2626.08
414.07	2623.74
414.26	2567.57
414.45	2581.61
414.64	2605.02
414.83	2588.63
415.02	2689.28
415.22	2665.87
415.41	2651.83
415.60	2743.11
415.79	2869.50
415.98	2803.96
416.17	2822.69
416.36	2836.73
416.55	2768.85
416.74	2998.23
416.93	2857.79
417.12	2913.97
417.31	2902.26
417.50	2904.60
417.69	3150.36
417.88	2998.23
418.07	3021.63
418.26	3021.63
418.45	3054.40
418.64	3082.49
418.83	3155.04
419.02	3131.64
419.21	3016.95
419.39	3227.60
419.58	3194.83
419.77	3183.13
419.96	3236.96
420.15	3337.60
420.34	3267.39
420.53	3274.41
420.72	3300.16
420.91	3295.47
421.10	3351.65
421.29	3304.84
421.48	3241.64
421.67	3426.54
421.86	3400.80
422.05	3318.88
422.24	3403.14
422.43	3349.31
422.61	3435.91
422.80	3431.23
422.99	3454.63
423.18	3396.12
423.37	3417.18
423.56	3384.41
423.75	3389.10
423.94	3335.26
424.13	3157.38
424.32	3405.48
424.50	3396.12
424.69	3562.30
424.88	3536.55
425.07	3459.31
425.26	3389.10
425.45	3555.27
425.64	3623.15
425.83	3463.99
426.01	3536.55
426.20	3442.93
426.39	3536.55
426.58	3520.17
426.77	3541.23
426.96	3641.87
427.15	3478.04
427.33	3611.45
427.52	3606.77
427.71	3726.13
427.90	3751.88
428.09	3786.99
428.28	3728.47
428.46	3637.19
428.65	3770.60
428.84	3728.47
429.03	3847.84
429.22	3747.20
429.40	3791.67
429.59	3756.56
429.78	3583.36
429.97	3611.45
430.16	3676.98
430.34	3665.28
430.53	3824.44
430.72	3857.20
430.91	3801.03
431.10	3906.35
431.28	3985.93
431.47	4065.51
431.66	4124.02
431.85	3948.48
432.03	4035.08
432.22	4219.99
432.41	4131.05
432.60	4248.07
432.79	4238.71
432.97	4229.35
433.16	4187.22
433.35	4212.96
433.54	4135.73
433.72	4175.52
433.91	4070.19
434.10	4397.87
434.28	4236.37
434.47	4259.78
434.66	4472.76
434.85	4458.72
435.03	4358.08
435.22	4456.38
435.41	4418.93
435.59	4608.51
435.78	4484.47
435.97	4652.98
436.16	4418.93
436.34	4421.27
436.53	4601.49
436.72	4566.39
436.90	4533.62
437.09	4702.14
437.28	4582.77
437.46	4650.64
437.65	4599.15
437.84	4709.16
438.02	4662.35
438.21	4688.09
438.40	4463.40
438.58	4727.88
438.77	4847.25
438.96	4762.99
439.14	4919.81
439.33	4961.94
439.52	5006.41
439.70	4997.04
439.89	5022.79
440.08	4936.19
440.26	5078.96
440.45	4985.34
440.63	5186.63
440.82	5359.83
441.01	5301.31
441.19	5235.78
441.38	5289.61
441.57	5380.89
441.75	5579.84
441.94	5472.17
442.12	5504.94
442.31	5462.81
442.50	5694.52
442.68	5598.56
442.87	5710.91
443.05	5645.37
443.24	5685.16
443.43	5699.20
443.61	5636.01
443.80	5954.32
443.98	5647.71
444.17	5387.91
444.35	5645.37
444.54	5996.45
444.73	5841.98
444.91	5870.06
445.10	5664.10
445.28	5823.25
445.47	5797.51
445.65	5741.33
445.84	5935.60
446.02	5933.26
446.21	5895.81
446.39	5692.18
446.58	5935.60
446.77	5865.38
446.95	5830.27
447.14	6029.22
447.32	5991.77
447.51	5832.62
447.69	5825.59
447.88	5820.91
448.06	5933.26
448.25	5937.94
448.43	6101.78
448.62	5717.93
448.80	5788.14
448.99	6061.99
449.17	6026.88
449.36	6108.80
449.54	6108.80
449.73	5940.28
449.91	6190.72
450.10	6167.31
450.28	6312.42
450.46	6186.04
450.65	6284.34
450.83	6296.04
451.02	6342.85
451.20	6291.36
451.39	6223.48
451.57	6445.84
451.76	6396.68
451.94	6270.30
452.13	6504.35
452.31	6457.54
452.49	6317.11
452.68	6487.96
452.86	6202.42
453.05	6291.36
453.23	6408.39
453.42	6516.05
453.60	6356.90
453.78	6382.64
453.97	6485.62
454.15	6609.67
454.34	6452.86
454.52	6623.72
454.70	6878.83
454.89	6654.14
455.07	6684.57
455.26	6747.76
455.44	6700.95
455.62	6806.28
455.81	6841.39
455.99	6825.00
456.17	6960.75
456.36	6951.39
456.54	7222.89
456.73	6953.73
456.91	7126.93
457.09	6951.39
457.28	7122.25
457.46	7070.76
457.64	7272.04
457.83	7152.68
458.01	6970.12
458.19	7178.42
458.38	7353.96
458.56	7349.28
458.74	7412.48
458.93	7356.30
459.11	7178.42
459.29	7405.46
459.48	7550.57
459.66	7332.90
459.84	7428.86
460.03	7616.10
460.21	7520.14
460.39	7576.31
460.57	7573.97
460.76	7756.54
460.94	7405.46
461.12	7698.02
461.31	7623.12
461.49	7613.76
461.67	7648.87
461.85	7641.85
462.04	7758.88
462.22	8287.84
462.40	8046.76
462.59	7826.75
462.77	7939.10
462.95	7957.82
463.13	7925.05
463.32	8016.33
463.50	8210.60
463.68	7744.83
463.86	8009.31
464.05	7777.60
464.23	7955.48
464.41	8175.49
464.59	7943.78
464.78	8325.29
464.96	8131.02
465.14	8028.04
465.32	8032.72
465.50	8222.30
465.69	8238.69
465.87	8341.67
466.05	8201.24
466.23	8121.66
466.41	8126.34
466.60	8318.26
466.78	8287.84
466.96	8231.66
467.14	8367.42
467.32	8407.20
467.51	8425.93
467.69	8168.47
467.87	8489.12
468.05	8599.13
468.23	8365.07
468.41	8414.23
468.60	8573.38
468.78	8580.40
468.96	8610.83
469.14	8786.37
469.32	8933.82
469.50	8477.42
469.69	8610.83
469.87	8734.88
470.05	8835.52
470.23	8844.88
470.41	8936.17
470.59	8812.12
470.77	8657.64
470.95	8936.17
471.14	9174.90
471.32	8875.31
471.50	9114.05
471.68	9191.28
471.86	9277.88
472.04	9135.11
472.22	9348.10
472.40	9081.28
472.58	9242.78
472.77	9289.59
472.95	9336.40
473.13	9694.50
473.31	9322.35
473.49	9430.02
473.67	9462.79
473.85	9425.34
474.03	9891.10
474.21	9741.31
474.39	9935.57
474.57	9921.53
474.75	10003.45
474.93	10195.37
475.12	10085.37
475.30	10160.27
475.48	9935.57
475.66	10321.76
475.84	10207.08
476.02	10235.16
476.20	10249.21
476.38	10305.38
476.56	10661.14
476.74	10494.96
476.92	10434.11
477.10	10679.86
477.28	10799.23
477.46	10743.06
477.64	10792.21
477.82	11101.16
478.00	11267.34
478.18	11290.74
478.36	11103.50
478.54	11302.45
478.72	11332.87
478.90	11421.81
479.08	11639.48
479.26	11777.58
479.44	11793.96
479.62	11847.79
479.80	11845.45
479.98	12135.68
480.16	12222.28
480.34	12135.68
480.52	12491.44
480.70	12217.60
480.88	12138.02
481.06	12325.26
481.24	12369.73
481.41	12812.09
481.59	12807.41
481.77	13046.15
481.95	12861.24
482.13	13343.39
482.31	13034.44
482.49	13359.78
482.67	13277.86
482.85	13465.10
483.03	13521.27
483.21	13659.37
483.39	13909.80
483.57	13900.44
483.74	13916.83
483.92	14150.88
484.10	14230.46
484.28	14225.78
484.46	14600.26
484.64	14855.38
484.82	14520.68
485.00	14483.24
485.18	14640.05
485.35	14843.68
485.53	14600.26
485.71	14824.95
485.89	15068.37
486.07	15110.50
486.25	15122.20
486.43	15311.78
486.61	15374.98
486.78	15850.11
486.96	15803.30
487.14	16262.04
487.32	15880.53
487.50	16259.70
487.68	16112.25
487.85	16613.12
488.03	16769.94
488.21	16802.71
488.39	16964.20
488.57	16922.07
488.75	17245.07
488.92	16940.80
489.10	17577.42
489.28	17497.84
489.46	17825.52
489.64	17708.49
489.81	18333.42
489.99	18237.45
490.17	18249.16
490.35	18429.38
490.53	18256.18
490.70	18513.64
490.88	18691.52
491.06	18860.04
491.24	18743.01
491.41	19033.24
491.59	19037.92
491.77	19136.22
491.95	19337.51
492.13	19330.48
492.30	20093.50
492.48	19655.82
492.66	20072.43
492.84	19531.77
493.01	19950.73
493.19	20135.63
493.37	19939.02
493.54	20402.45
493.72	20739.49
493.90	20559.27
494.08	20503.09
494.25	21022.69
494.43	20809.70
494.61	21172.49
494.79	21144.40
494.96	20978.22
495.14	21310.58
495.32	21656.98
495.49	21757.62
495.67	21661.66
495.85	21790.39
496.02	21776.34
496.20	22356.80
496.38	21968.27
496.55	22366.16
496.73	22890.44
496.91	22511.27
497.09	22345.09
497.26	22794.48
497.44	23077.68
497.62	22918.53
497.79	23030.87
497.97	22726.60
498.14	23192.37
498.32	23227.48
498.50	23461.53
498.67	23571.54
498.85	23807.93
499.03	23929.64
499.20	24067.73
499.38	23950.70
499.56	23847.72
499.73	23866.44
499.91	24247.95
500.08	24362.64
500.26	24159.01
500.44	24816.70
500.61	24292.42
500.79	24400.08
500.97	24952.45
501.14	24957.13
501.32	24922.02
501.49	24755.85
501.67	24978.20
501.84	25158.42
502.02	25099.90
502.20	25383.11
502.37	25289.49
502.55	25671.00
502.72	25654.61
502.90	25420.56
503.07	25741.21
503.25	25937.82
503.43	25965.90
503.60	25869.94
503.78	26118.04
503.95	25886.32
504.13	25989.31
504.30	26380.18
504.48	26099.31
504.65	26328.69
504.83	26714.87
505.01	26717.22
505.18	26553.38
505.36	26941.91
505.53	26932.54
505.71	27119.79
505.88	27246.18
506.06	27094.04
506.23	27627.68
506.41	27070.64
506.58	27285.97
506.76	27232.13
506.93	27307.03
507.11	27412.35
507.28	27529.38
507.46	27864.08
507.63	27889.82
507.81	28180.05
507.98	27623.00
508.16	27620.66
508.33	27910.89
508.50	27941.32
508.68	28414.10
508.85	28680.92
509.03	28608.37
509.20	28694.97
509.38	28882.21
509.55	28704.33
509.73	28816.68
509.90	28774.55
510.08	28694.97
510.25	29029.66
510.42	29048.39
510.60	29310.53
510.77	28868.17
510.95	29586.71
511.12	29518.84
511.30	29282.44
511.47	30043.12
511.64	29715.44
511.82	29689.70
511.99	29954.18
512.17	29535.22
512.34	29682.67
512.51	29851.19
512.69	30375.47
512.86	30253.76
513.04	30169.51
513.21	30314.62
513.38	30206.95
513.56	30602.50
513.73	30546.33
513.90	30314.62
514.08	30661.02
514.25	30639.95
514.43	30794.43
514.60	31035.50
514.77	30649.32
514.95	30810.81
515.12	31171.25
515.29	31112.74
515.47	31590.21
515.64	31955.33
515.81	31545.74
515.99	31344.45
516.16	31456.80
516.33	31468.50
516.51	31630.00
516.68	31133.81
516.85	31253.17
517.03	31461.48
517.20	31857.03
517.37	31747.03
517.54	31927.25
517.72	32170.66
517.89	31789.16
518.06	31941.29
518.24	31985.76
518.41	31992.78
518.58	32313.44
518.75	32144.92
518.93	32439.82
519.10	32493.66
519.27	32545.15
519.45	32535.79
519.62	32814.31
519.79	32790.91
519.96	32767.50
520.14	33144.33
520.31	32643.45
520.48	33046.02
520.65	33097.52
520.83	33570.30
521.00	33455.62
521.17	33362.00
521.34	33853.51
521.52	33116.24
521.69	33635.84
521.86	33663.93
522.03	33495.41
522.20	34223.31
522.38	33731.80
522.55	33830.10
522.72	34251.40
522.89	34017.35
523.07	34389.49
523.24	34064.16
523.41	34354.38
523.58	34197.57
523.75	34829.51
523.92	34450.35
524.10	34419.92
524.27	34471.41
524.44	34792.06
524.61	34918.45
524.78	34771.00
524.96	35236.77
525.13	34991.01
525.30	35409.96
525.47	35667.42
525.64	34735.89
525.81	35243.79
525.98	35683.81
526.16	35122.08
526.33	34937.18
526.50	35314.00
526.67	34494.82
526.84	35145.48
527.01	35005.05
527.18	35424.01
527.36	35243.79
527.53	35845.30
527.70	36304.05
527.87	36070.00
528.04	35826.58
528.21	35969.35
528.38	36041.91
528.55	35889.77
528.72	35887.43
528.89	36346.18
529.07	36212.77
529.24	36287.67
529.41	36098.08
529.58	36271.28
529.75	36304.05
529.92	36273.62
530.09	36334.48
530.26	36573.21
530.43	36411.71
530.60	36591.94
530.77	36514.70
530.94	36903.23
531.11	36683.22
531.28	37202.82
531.46	37226.22
531.63	37336.23
531.80	37095.15
531.97	37198.13
532.14	37078.77
532.31	36624.70
532.48	37411.12
532.65	37249.63
532.82	37214.52
532.99	37151.32
533.16	37003.87
533.33	37141.96
533.50	37713.05
533.67	37551.56
533.84	37820.72
534.01	37771.57
534.18	37841.78
534.35	37811.35
534.52	37713.05
534.69	38377.76
534.86	37589.00
535.03	37902.64
535.20	38024.34
535.37	38335.63
535.54	38129.67
535.71	38204.56
535.88	38469.04
536.05	37993.92
536.22	38462.02
536.38	38813.10
536.55	38508.83
536.72	38593.09
536.89	38417.55
537.06	38352.02
537.23	38003.28
537.40	38256.06
537.57	38504.15
537.74	38770.97
537.91	38785.02
538.08	38607.14
538.25	38576.71
538.42	38756.93
538.59	38909.07
538.75	38195.20
538.92	39014.39
539.09	38724.16
539.26	38780.34
539.43	38888.00
539.60	39012.05
539.77	38572.03
539.94	39023.75
540.11	38651.61
540.28	39082.27
540.44	39206.31
540.61	38953.54
540.78	39255.46
540.95	39536.33
541.12	39124.40
541.29	39227.38
541.46	39702.51
541.62	39379.51
541.79	39538.67
541.96	39257.81
542.13	39754.00
542.30	39548.03
542.47	39861.66
542.63	39573.78
542.80	40271.26
542.97	39756.34
543.14	40069.97
543.31	40219.77
543.48	40201.04
543.64	40390.62
543.81	40376.58
543.98	40638.72
544.15	40591.91
544.32	40423.39
544.48	40547.44
544.65	40517.01
544.82	40722.98
544.99	40460.84
545.16	40980.44
545.32	40402.33
545.49	40449.14
545.66	40722.98
545.83	40802.56
546.00	41205.13
546.16	41184.07
546.33	40889.16
546.50	40318.07
546.67	41057.68
546.83	40411.69
547.00	40865.75
547.17	40807.24
547.34	40739.36
547.50	41060.02
547.67	41029.59
547.84	40713.62
548.00	41511.74
548.17	41586.64
548.34	41125.55
548.51	41261.30
548.67	41439.18
548.84	41352.58
549.01	41628.77
549.18	40793.20
549.34	41380.67
549.51	41429.82
549.68	41654.51
549.84	41390.03
550.01	42108.58
550.18	41258.96
550.34	41436.84
550.51	41684.94
550.68	41675.58
550.84	41160.66
551.01	41614.72
551.18	42134.32
551.34	41359.61
551.51	41799.63
551.68	41907.29
551.84	42099.22
552.01	41478.97
552.18	42216.24
552.34	41689.62
552.51	42209.22
552.68	42185.82
552.84	42078.15
553.01	42295.82
553.18	42054.75
553.34	42220.92
553.51	42300.50
553.67	41895.59
553.84	42682.01
554.01	42316.89
554.17	42792.01
554.34	42621.16
554.51	42663.28
554.67	42820.10
554.84	43194.59
555.00	42377.74
555.17	42356.67
555.33	42513.49
555.50	42380.08
555.67	42593.07
555.83	42335.61
556.00	42817.76
556.16	42960.53
556.33	43058.84
556.50	42787.33
556.66	42815.42
556.83	42370.72
556.99	42780.31
557.16	43030.75
557.32	42934.79
557.49	43000.32
557.65	42464.34
557.82	42883.30
557.98	42667.97
558.15	42382.42
558.32	43299.91
558.48	42979.26
558.65	43196.93
558.81	43122.03
558.98	43381.83
559.14	43196.93
559.31	43304.59
559.47	43021.39
559.64	43225.01
559.80	43049.47
559.97	43386.51
560.13	43215.65
560.30	43035.43
560.46	43239.06
560.63	42962.87
560.79	43304.59
560.96	43934.20
561.12	43562.05
561.29	43342.04
561.45	43753.97
561.61	43353.74
561.78	43419.28
561.94	43000.32
562.11	43100.97
562.27	43236.72
562.44	43548.01
562.60	43496.52
562.77	43690.78
562.93	43555.03
563.10	44107.40
563.26	43468.43
563.42	43971.64
563.59	43491.83
563.75	43522.26
563.92	44205.70
564.08	43718.87
564.24	43789.08
564.41	43676.74
564.57	43915.47
564.74	43955.26
564.90	43786.74
565.07	44168.25
565.23	43810.15
565.39	43571.41
565.56	43229.69
565.72	43559.71
565.88	43632.27
566.05	43456.73
566.21	43585.46
566.38	43990.37
566.54	43814.83
566.70	44226.76
566.87	44493.58
567.03	43704.82
567.19	44240.81
567.36	44081.65
567.52	44081.65
567.68	43730.57
567.85	43868.66
568.01	44025.48
568.17	43793.76
568.34	44439.75
568.50	44013.77
568.66	43545.67
568.83	44072.29
568.99	43688.44
569.15	43421.62
569.32	43824.19
569.48	43835.89
569.64	44086.33
569.81	44168.25
569.97	44037.18
570.13	44715.93
570.30	44161.23
570.46	43878.02
570.62	43636.95
570.78	43906.11
570.95	44027.82
571.11	44140.16
571.27	44177.61
571.43	43973.98
571.60	43943.56
571.76	44406.98
571.92	44144.84
572.09	44488.90
572.25	43959.94
572.41	43849.94
572.57	44149.53
572.74	44610.61
572.90	44198.68
573.06	44198.68
573.22	44439.75
573.38	44332.09
573.55	43725.89
573.71	44484.22
573.87	44119.10
574.03	43920.15
574.20	44304.00
574.36	43964.62
574.52	44430.39
574.68	44205.70
574.84	44231.44
575.01	44439.75
575.17	44243.15
575.33	44046.54
575.49	44006.75
575.65	44378.90
575.82	44491.24
575.98	44535.71
576.14	44734.66
576.30	44500.61
576.46	44051.22
576.62	44198.68
576.79	44311.02
576.95	43959.94
577.11	44229.10
577.27	44079.31
577.43	44575.50
577.59	44505.29
577.75	44240.81
577.92	44313.36
578.08	43849.94
578.24	44479.54
578.40	43941.22
578.56	44245.49
578.72	43966.96
578.88	44825.94
579.04	44521.67
579.21	44531.03
579.37	44580.18
579.53	44336.77
579.69	44638.70
579.85	44231.44
580.01	44622.31
580.17	44369.54
580.33	44701.89
580.49	44423.37
580.65	45003.82
580.82	44788.49
580.98	44903.18
581.14	44467.84
581.30	44676.15
581.46	44121.44
581.62	44498.26
581.78	44493.58
581.94	44694.87
582.10	44673.81
582.26	44465.50
582.42	44397.62
582.58	44748.70
582.74	44685.51
582.90	44601.25
583.06	44311.02
583.22	44657.42
583.38	45045.95
583.54	44610.61
583.70	44051.22
583.86	44266.55
584.02	44355.49
584.18	44741.68
584.34	44793.17
584.50	44395.28
584.66	44708.91
584.82	44596.57
584.98	44886.79
585.14	44664.44
585.30	44524.01
585.46	44751.04
585.62	44357.83
585.78	44594.23
585.94	44203.36
586.10	44280.60
586.26	44179.95
586.42	44538.05
586.58	44722.96
586.74	44664.44
586.90	44626.99
587.06	44605.93
587.22	44568.48
587.38	44102.71
587.54	44945.31
587.70	44821.26
587.86	44961.69
588.02	44369.54
588.18	44877.43
588.34	44474.86
588.49	44172.93
588.65	44369.54
588.81	44133.14
588.97	43969.30
589.13	44758.06
589.29	44175.27
589.45	44706.57
589.61	44828.28
589.77	44856.37
589.93	44912.54
590.08	44619.97
590.24	44395.28
590.40	44856.37
590.56	44762.75
590.72	44839.98
590.88	44697.21
591.04	44814.24
591.20	44816.58
591.35	45097.44
591.51	45324.47
591.67	44921.90
591.83	44797.85
591.99	44435.07
592.15	44610.61
592.31	44905.52
592.46	44505.29
592.62	44676.15
592.78	44861.05
592.94	44591.89
593.10	44949.99
593.26	44921.90
593.41	45045.95
593.57	44547.42
593.73	44814.24
593.89	45106.80
594.05	44472.52
594.20	44432.73
594.36	44751.04
594.52	44917.22
594.68	45198.09
594.84	44673.81
594.99	45120.85
595.15	44793.17
595.31	45045.95
595.47	44910.20
595.62	45256.60
595.78	44931.26
595.94	45167.66
596.10	45024.89
596.25	45242.56
596.41	44776.79
596.57	45125.53
596.73	45336.18
596.88	44638.70
597.04	44788.49
597.20	44617.63
597.36	45069.36
597.51	44732.32
597.67	45031.91
597.83	45006.16
597.99	45287.03
598.14	44854.03
598.30	44762.75
598.46	44839.98
598.61	45020.20
598.77	45029.57
598.93	45375.97
599.09	45350.22
599.24	45151.27
599.40	45254.26
599.56	45303.41
599.71	44622.31
599.87	45329.16
600.03	45097.44
600.18	45130.21
600.34	44924.24
600.50	44802.53
600.65	44966.37
600.81	45387.67
600.97	45399.37
601.12	45495.33
601.28	45020.20
601.44	44788.49
601.59	44795.51
601.75	44683.17
601.91	44823.60
602.06	44917.22
602.22	45146.59
602.37	44774.45
602.53	44596.57
602.69	45642.79
602.84	44821.26
603.00	44781.47
603.16	44727.64
603.31	44863.39
603.47	44793.17
603.62	44891.48
603.78	45071.70
603.94	44591.89
604.09	45038.93
604.25	45333.84
604.40	44858.71
604.56	45116.17
604.71	44748.70
604.87	45373.63
605.03	44711.25
605.18	44739.34
605.34	44643.38
605.49	44287.62
605.65	45221.49
605.80	44854.03
605.96	45013.18
606.12	45052.97
606.27	45345.54
606.43	44786.15
606.58	45050.63
606.74	44350.81
606.89	44727.64
607.05	44580.18
607.20	45104.46
607.36	44903.18
607.51	45237.87
607.67	45085.74
607.82	45081.06
607.98	44622.31
608.13	44842.32
608.29	44507.63
608.44	44727.64
608.60	43971.64
608.75	44538.05
608.91	44498.26
609.06	44624.65
609.22	44905.52
609.37	44313.36
609.53	44645.72
609.68	44701.89
609.84	44638.70
609.99	44790.83
610.15	44238.47
610.30	44009.09
610.46	43929.51
610.61	44435.07
610.76	44294.64
610.92	44308.68
611.07	44051.22
611.23	44156.55
611.38	44542.74
611.54	44397.62
611.69	44046.54
611.84	44409.32
612.00	44636.36
612.15	44233.78
612.31	44414.01
612.46	44278.25
612.62	44631.68
612.77	44247.83
612.92	44556.78
613.08	43969.30
613.23	44416.35
613.39	44306.34
613.54	43744.61
613.69	44126.12
613.85	44041.86
614.00	44505.29
614.15	44615.29
614.31	44264.21
614.46	44491.24
614.62	44243.15
614.77	44069.95
614.92	43899.09
615.08	44170.59
615.23	43337.36
615.38	43971.64
615.54	43552.69
615.69	43800.79
615.84	43580.78
616.00	43821.85
616.15	43700.14
616.30	44095.69
616.46	43789.08
616.61	43393.53
616.76	44243.15
616.92	42885.64
617.07	43234.38
617.22	43203.95
617.37	43407.58
617.53	43721.21
617.68	43744.61
617.83	43356.08
617.99	43966.96
618.14	43400.55
618.29	43143.09
618.45	43299.91
618.60	43590.14
618.75	43243.74
618.90	43639.29
619.06	44179.95
619.21	43416.94
619.36	43571.41
619.51	43236.72
619.67	43253.10
619.82	43054.15
619.97	43791.42
620.12	43234.38
620.28	42876.27
620.43	42988.62
620.58	43145.44
620.73	43070.54
620.89	43232.04
621.04	43056.50
621.19	43164.16
621.34	43005.00
621.49	42913.72
621.65	42916.06
621.80	42679.67
621.95	42653.92
622.10	43171.18
622.25	42953.51
622.41	42897.34
622.56	42920.74
622.71	42974.58
622.86	42806.06
623.01	42815.42
623.16	43075.22
623.32	42557.96
623.47	42960.53
623.62	43105.65
623.77	42703.07
623.92	42850.53
624.07	42445.62
624.23	42564.98
624.38	42382.42
624.53	42630.52
624.68	42321.57
624.83	42649.24
624.98	42176.45
625.13	42511.15
625.29	42403.49
625.44	42340.29
625.59	41944.74
625.74	41961.12
625.89	42110.92
626.04	41972.83
626.19	42621.16
626.34	42342.63
626.49	42019.64
626.65	41930.70
626.80	42401.14
626.95	42178.79
627.10	42370.72
627.25	41720.05
627.40	41853.46
627.55	41305.77
627.70	41586.64
627.85	41808.99
628.00	41621.75
628.15	41942.40
628.30	41722.39
628.45	42279.44
628.60	41900.27
628.76	42029.00
628.91	41783.24
629.06	42134.32
629.21	41523.44
629.36	41284.71
629.51	41439.18
629.66	41642.81
629.81	41357.27
629.96	41249.60
630.11	41523.44
630.26	41228.54
630.41	41649.83
630.56	41338.54
630.71	41619.41
630.86	41488.34
631.01	41493.02
631.16	41666.22
631.31	41116.19
631.46	40720.64
631.61	41612.38
631.76	41600.68
631.91	41113.85
632.06	41553.87
632.21	41542.17
632.36	41219.17
632.51	40975.76
632.66	41265.99
632.81	40589.57
632.96	40886.82
633.10	40648.08
633.25	40858.73
633.40	41116.19
633.55	41275.35
633.70	41148.96
633.85	40889.16
634.00	41273.01
634.15	40753.41
634.30	40865.75
634.45	40285.30
634.60	40385.94
634.75	40666.81
634.90	41172.36
635.05	40685.53
635.19	40884.48
635.34	41038.95
635.49	40484.25
635.64	40343.81
635.79	40886.82
635.94	40521.69
636.09	40744.05
636.24	40282.96
636.39	40315.73
636.53	40051.25
636.68	40002.10
636.83	40100.40
636.98	40456.16
637.13	39882.73
637.28	40154.23
637.43	40313.39
637.57	40432.75
637.72	40458.50
637.87	40275.94
638.02	40053.59
638.17	40304.02
638.32	39849.96
638.46	39732.93
638.61	39360.79
638.76	39622.93
638.91	39791.45
639.06	40009.12
639.20	39688.46
639.35	39920.18
639.50	39992.73
639.65	40095.72
639.80	40081.67
639.94	39503.56
640.09	39728.25
640.24	39665.06
640.39	39522.29
640.54	39304.62
640.68	40027.84
640.83	39695.49
640.98	39700.17
641.13	39702.51
641.27	39454.41
641.42	39608.89
641.57	39555.05
641.72	39835.92
641.86	39271.85
642.01	39339.72
642.16	39206.31
642.31	39016.73
642.45	39653.36
642.60	39098.65
642.75	39255.46
642.90	38899.70
643.04	39309.30
643.19	39262.49
643.34	39271.85
643.48	39349.09
643.63	39463.77
643.78	39028.43
643.93	38735.87
644.07	39129.08
644.22	39250.78
644.37	38834.17
644.51	38590.75
644.66	39281.21
644.81	39175.89
644.95	39126.74
645.10	39040.14
645.25	38796.72
645.39	39431.01
645.54	39164.18
645.69	38965.24
645.83	38609.48
645.98	38518.20
646.13	38670.33
646.27	38852.89
646.42	38820.13
646.57	39065.88
646.71	38731.18
646.86	38536.92
647.00	38719.48
647.15	39180.57
647.30	38850.55
647.44	38754.59
647.59	38483.09
647.74	38707.78
647.88	38424.57
648.03	38490.11
648.17	38756.93
648.32	38043.07
648.47	38319.25
648.61	38326.27
648.76	38562.67
648.90	38602.46
649.05	38806.08
649.20	38462.02
649.34	38431.60
649.49	38136.69
649.63	38234.99
649.78	38071.15
649.92	38066.47
650.07	38679.69
650.21	37958.81
650.36	37961.15
650.51	38347.34
650.65	38359.04
650.80	38155.41
650.94	38389.47
651.09	38017.32
651.23	37984.55
651.38	37928.38
651.52	37755.18
651.67	37986.89
651.81	37874.55
651.96	37556.24
652.10	37986.89
652.25	37783.27
652.39	38122.65
652.54	37923.70
652.68	37687.31
652.83	37797.31
652.97	37872.21
653.12	37504.74
653.26	37677.94
653.41	37984.55
653.55	37479.00
653.70	37315.16
653.84	37792.63
653.99	37731.78
654.13	37507.08
654.27	37684.97
654.42	37497.72
654.56	37411.12
654.71	37521.13
654.85	37308.14
655.00	36868.12
655.14	37074.09
655.29	37060.04
655.43	37151.32
655.57	37221.54
655.72	37006.21
655.86	36865.78
656.01	36947.70
656.15	37163.03
656.30	36596.62
656.44	36858.76
656.58	36978.12
656.73	36692.58
656.87	37116.22
657.01	36638.75
657.16	36804.92
657.30	36800.24
657.45	36811.95
657.59	36704.28
657.73	36439.80
657.88	36699.60
658.02	36575.55
658.16	36762.79
658.31	36790.88
658.45	36828.33
658.60	36683.22
658.74	36830.67
658.88	36833.01
659.03	36210.43
659.17	36165.96
659.31	36287.67
659.46	35983.40
659.60	36465.55
659.74	36154.26
659.89	36194.04
660.03	36470.23
660.17	36154.26
660.32	36435.12
660.46	36430.44
660.60	36325.11
660.74	36133.19
660.89	36133.19
661.03	35700.19
661.17	35943.61
661.32	35014.41
661.46	35590.19
661.60	35363.15
661.74	35522.31
661.89	35473.16
662.03	35889.77
662.17	35742.32
662.31	35566.78
662.46	35849.99
662.60	35192.30
662.74	35632.32
662.88	35473.16
663.03	35447.41
663.17	35501.25
663.31	34768.66
663.45	35173.57
663.60	35398.26
663.74	34450.35
663.88	34862.28
664.02	34813.13
664.17	34721.85
664.31	34682.06
664.45	34799.08
664.59	35110.38
664.73	34731.21
664.88	34944.20
665.02	33963.51
665.16	34352.04
665.30	34658.65
665.44	34462.05
665.59	33951.81
665.73	33701.37
665.87	34260.76
666.01	34321.62
666.15	34246.72
666.29	33876.91
666.44	34183.52
666.58	33914.36
666.72	34267.78
666.86	34340.34
667.00	34045.43
667.14	33673.29
667.28	33825.42
667.43	33532.86
667.57	33890.96
667.71	33186.46
667.85	33558.60
667.99	33699.03
668.13	33912.02
668.27	33186.46
668.41	33907.34
668.56	33397.10
668.70	33670.95
668.84	33308.16
668.98	33102.20
669.12	33280.08
669.26	33085.81
669.40	33481.36
669.54	32882.19
669.68	33102.20
669.82	32882.19
669.96	32774.52
670.10	32388.33
670.25	33010.92
670.39	33015.60
670.53	32690.26
670.67	32706.65
670.81	32723.03
670.95	32779.20
671.09	32793.25
671.23	32624.73
671.37	32409.40
671.51	32491.32
671.65	32114.49
671.79	31564.46
671.93	31854.69
672.07	32184.71
672.21	31892.14
672.35	31426.37
672.49	31819.58
672.63	31676.81
672.77	31662.77
672.91	31557.44
673.05	31606.59
673.19	30895.07
673.33	31332.75
673.47	31456.80
673.61	31023.80
673.75	30958.27
673.89	31232.11
674.03	30731.23
674.17	30838.90
674.31	30843.58
674.45	30785.07
674.59	30581.44
674.73	31185.30
674.87	30644.63
675.01	30721.87
675.15	30878.69
675.29	30862.30
675.43	30588.46
675.56	30962.95
675.70	30225.68
675.84	30665.70
675.98	29486.07
676.12	29844.17
676.26	29865.24
676.40	29736.51
676.54	29656.93
676.68	29507.13
676.82	29336.27
676.96	29310.53
677.10	29352.66
677.23	28992.22
677.37	29560.97
677.51	29259.04
677.65	28994.56
677.79	28594.32
677.93	28914.98
678.07	29142.01
678.21	28704.33
678.34	28643.48
678.48	28166.01
678.62	28891.57
678.76	28514.75
678.90	28587.30
679.04	28238.56
679.18	28547.51
679.31	27742.37
679.45	27817.27
679.59	27693.22
679.73	27662.79
679.87	27695.56
680.00	27459.16
680.14	27674.49
680.28	27482.57
680.42	27236.81
680.56	27398.31
680.70	26916.16
680.83	27311.71
680.97	26988.72
681.11	26895.10
681.25	26864.67
681.39	26651.68
681.52	27154.90
681.66	26541.68
681.80	26625.93
681.94	26558.06
682.07	26525.29
682.21	26136.76
682.35	26122.72
682.49	26216.34
682.62	26148.46
682.76	26031.44
682.90	25933.14
683.04	25635.89
683.17	25848.88
683.31	25722.49
683.45	25785.68
683.59	25479.07
683.72	25355.02
683.86	25605.46
684.00	25081.18
684.13	25319.92
684.27	25521.20
684.41	25352.68
684.55	25029.69
684.68	24451.58
684.82	24830.74
684.96	24772.23
685.09	24236.25
685.23	24329.87
685.37	24456.26
685.50	24383.70
685.64	24545.20
685.78	24510.09
685.91	24156.67
686.05	23910.91
686.19	23644.09
686.32	23714.31
686.46	23777.50
686.60	23531.75
686.73	23611.32
686.87	23417.06
687.01	23325.78
687.14	23204.07
687.28	23014.49
687.42	22939.59
687.55	22878.74
687.69	22801.50
687.82	22654.05
687.96	22815.54
688.10	22850.65
688.23	22480.85
688.37	22618.94
688.50	22178.92
688.64	22260.84
688.78	22118.06
688.91	22153.17
689.05	22277.22
689.18	22066.57
689.32	21603.14
689.46	21977.63
689.59	21853.58
689.73	21862.94
689.86	21879.33
690.00	21535.27
690.13	21727.19
690.27	21518.89
690.41	21479.10
690.54	20830.77
690.68	20982.90
690.81	21123.33
690.95	20996.95
691.08	20847.15
691.22	20931.41
691.35	20669.27
691.49	20840.13
691.62	21020.35
691.76	20381.38
691.89	20526.50
692.03	20292.44
692.16	20247.97
692.30	20049.03
692.43	20147.33
692.57	19924.98
692.70	19873.49
692.84	20084.14
692.97	19538.79
693.11	19623.05
693.24	19531.77
693.38	19569.22
693.51	19405.38
693.65	19253.25
693.78	19342.19
693.92	19688.59
694.05	19403.04
694.19	19339.85
694.32	18925.57
694.45	19318.78
694.59	18888.12
694.72	18841.31
694.86	18888.12
694.99	18862.38
695.13	18923.23
695.26	18841.31
695.39	18588.53
695.53	18415.34
695.66	18324.05
695.80	18431.72
695.93	18141.49
696.07	17963.61
696.20	17919.14
696.33	18188.30
696.47	17984.68
696.60	17984.68
696.73	17511.89
696.87	17788.07
697.00	17802.11
697.14	17769.35
697.27	17642.96
697.40	17535.29
697.54	17516.57
697.67	17018.04
697.80	17301.24
697.94	17303.58
698.07	16901.01
698.21	16971.22
698.34	17231.02
698.47	16996.97
698.61	16547.59
698.74	16606.10
698.87	16386.09
699.01	16379.07
699.14	16308.85
699.27	16238.64
699.40	16248.00
699.54	16395.45
699.67	15901.60
699.80	15922.66
699.94	15920.32
700.07	16051.39
700.20	15805.64
700.34	15623.08
700.47	15531.80
700.60	15857.13
700.73	15908.62
700.87	15690.95
701.00	15573.92
701.13	15660.52
701.26	15475.62
701.40	15391.36
701.53	14981.77
701.66	15047.30
701.79	14991.13
701.93	15108.16
702.06	14850.70
702.19	15115.18
702.32	15089.43
702.46	14831.97
702.59	14714.95
702.72	14761.76
702.85	14874.10
702.99	14366.21
703.12	14759.42
703.25	14682.18
703.38	14370.89
703.51	14317.06
703.65	14094.71
703.78	14150.88
703.91	14012.79
704.04	14153.22
704.17	13879.38
704.31	13940.23
704.44	13774.05
704.57	13706.18
704.70	13362.12
704.83	13312.97
704.96	13575.11
705.10	13818.52
705.23	13687.45
>>>>>End Processed Spectral Data<<<<<
