SpectraSuite Data File
++++++++++++++++++++++++++++++++++++
Date: Fri Oct 25 10:46:58 EDT 2013
User: price-jones
Dark Spectrum Present: No
Reference Spectrum Present: No
Number of Sampled Component Spectra: 1
Spectrometers: USB2+H05261
Integration Time (usec): 100000 (USB2+H05261)
Spectra Averaged: 1 (USB2+H05261)
Boxcar Smoothing: 0 (USB2+H05261)
Correct for Electrical Dark: No (USB2+H05261)
Strobe/Lamp Enabled: No (USB2+H05261)
Correct for Detector Non-linearity: No (USB2+H05261)
Correct for Stray Light: No (USB2+H05261)
Number of Pixels in Processed Spectrum: 2048
>>>>>Begin Processed Spectral Data<<<<<
365.73	95.96
365.92	95.96
366.12	95.96
366.32	28.09
366.52	0.00
366.72	63.19
366.91	11.70
367.11	95.96
367.31	49.15
367.51	9.36
367.70	0.00
367.90	11.70
368.10	39.79
368.30	21.06
368.49	32.77
368.69	112.35
368.89	102.98
369.09	67.88
369.28	100.64
369.48	65.54
369.68	147.45
369.87	105.32
370.07	39.79
370.27	131.07
370.47	210.65
370.66	447.04
370.86	393.21
371.06	428.32
371.25	496.19
371.45	425.98
371.65	454.06
371.84	498.53
372.04	440.02
372.24	500.87
372.44	493.85
372.63	545.34
372.83	470.45
373.03	514.92
373.22	479.81
373.42	503.22
373.62	514.92
373.81	514.92
374.01	631.94
374.21	674.07
374.40	550.03
374.60	624.92
374.79	578.11
374.99	624.92
375.19	589.82
375.38	528.96
375.58	538.32
375.78	655.35
375.97	603.86
376.17	599.18
376.37	510.24
376.56	592.16
376.76	603.86
376.95	690.46
377.15	648.33
377.35	711.52
377.54	641.31
377.74	657.69
377.93	678.76
378.13	746.63
378.33	704.50
378.52	641.31
378.72	674.07
378.91	662.37
379.11	561.73
379.31	667.05
379.50	631.94
379.70	676.41
379.89	751.31
380.09	643.65
380.28	716.20
380.48	727.91
380.68	643.65
380.87	638.97
381.07	713.86
381.26	741.95
381.46	702.16
381.65	706.84
381.85	718.54
382.04	645.99
382.24	662.37
382.43	690.46
382.63	671.73
382.83	653.01
383.02	704.50
383.22	779.40
383.41	713.86
383.61	685.78
383.80	702.16
384.00	685.78
384.19	809.83
384.39	730.25
384.58	800.46
384.78	723.23
384.97	809.83
385.17	772.38
385.36	788.76
385.56	873.02
385.75	802.80
385.95	713.86
386.14	821.53
386.34	844.93
386.53	837.91
386.72	802.80
386.92	807.48
387.11	875.36
387.31	880.04
387.50	894.08
387.70	931.53
387.89	858.98
388.09	833.23
388.28	833.23
388.48	847.27
388.67	966.64
388.86	945.58
389.06	933.87
389.25	905.79
389.45	968.98
389.64	994.73
389.84	952.60
390.03	997.07
390.22	947.92
390.42	1015.79
390.61	1006.43
390.81	976.00
391.00	961.96
391.19	990.05
391.39	994.73
391.58	1027.50
391.78	1071.97
391.97	997.07
392.16	1102.39
392.36	1076.65
392.55	980.68
392.75	987.71
392.94	1004.09
393.13	1013.45
393.33	966.64
393.52	964.30
393.71	1039.20
393.91	1060.26
394.10	1107.07
394.29	1177.29
394.49	1137.50
394.68	1203.04
394.88	1191.33
395.07	1160.91
395.26	1228.78
395.46	1163.25
395.65	1203.04
395.84	1205.38
396.04	1411.34
396.23	1170.27
396.42	1170.27
396.62	1191.33
396.81	1193.67
397.00	1245.16
397.19	1291.98
397.39	1268.57
397.58	1242.82
397.77	1362.19
397.97	1308.36
398.16	1350.49
398.35	1313.04
398.55	1416.02
398.74	1387.94
398.93	1561.14
399.12	1469.86
399.32	1521.35
399.51	1385.60
399.70	1434.75
399.90	1425.39
400.09	1521.35
400.28	1607.95
400.47	1528.37
400.67	1540.07
400.86	1472.20
401.05	1570.50
401.24	1547.09
401.44	1614.97
401.63	1610.29
401.82	1668.80
402.01	1687.53
402.21	1675.82
402.40	1781.15
402.59	1682.85
402.78	1650.08
402.97	1619.65
403.17	1610.29
403.36	1746.04
403.55	1760.08
403.74	1839.66
403.93	1687.53
404.13	1771.79
404.32	1881.79
404.51	1736.68
404.70	1760.08
404.89	1783.49
405.09	1816.26
405.28	1853.70
405.47	1837.32
405.66	1921.58
405.85	1907.54
406.05	1844.34
406.24	1952.01
406.43	1928.60
406.62	1996.48
406.81	2001.16
407.00	1942.64
407.20	2057.33
407.39	1982.43
407.58	2019.88
407.77	2141.59
407.96	2092.44
408.15	2172.02
408.34	2136.91
408.54	2200.10
408.73	2270.32
408.92	2146.27
409.11	2303.09
409.30	2284.36
409.49	2174.36
409.68	2298.41
409.87	2340.54
410.07	2410.75
410.26	2314.79
410.45	2314.79
410.64	2403.73
410.83	2349.90
411.02	2401.39
411.21	2459.90
411.40	2399.05
411.59	2502.03
411.78	2431.82
411.98	2406.07
412.17	2476.29
412.36	2532.46
412.55	2651.83
412.74	2689.28
412.93	2738.43
413.12	2541.82
413.31	2782.90
413.50	2726.72
413.69	2726.72
413.88	2696.30
414.07	2785.24
414.26	2771.19
414.45	2796.94
414.64	2808.64
414.83	2918.65
415.02	2876.52
415.22	2918.65
415.41	3016.95
415.60	2988.86
415.79	3063.76
415.98	3201.85
416.17	3014.61
416.36	3028.65
416.55	3171.43
416.74	3054.40
416.93	3176.11
417.12	3122.27
417.31	3108.23
417.50	3300.16
417.69	3363.35
417.88	3239.30
418.07	3358.67
418.26	3304.84
418.45	3449.95
418.64	3424.20
418.83	3412.50
419.02	3506.12
419.21	3361.01
419.39	3361.01
419.58	3440.59
419.77	3506.12
419.96	3534.21
420.15	3613.79
420.34	3623.15
420.53	3693.37
420.72	3620.81
420.91	3660.60
421.10	3648.90
421.29	3777.62
421.48	3630.17
421.67	3686.34
421.86	3681.66
422.05	3754.22
422.24	3742.52
422.43	3644.21
422.61	3695.71
422.80	3859.54
422.99	3646.55
423.18	3737.84
423.37	3627.83
423.56	3817.41
423.75	3779.97
423.94	3829.12
424.13	3620.81
424.32	3545.91
424.50	3887.63
424.69	3751.88
424.88	3871.25
425.07	3770.60
425.26	3604.42
425.45	3719.11
425.64	3868.91
425.83	3754.22
426.01	3992.95
426.20	3887.63
426.39	3747.20
426.58	3857.20
426.77	3786.99
426.96	3868.91
427.15	3843.16
427.33	3819.75
427.52	3899.33
427.71	4198.92
427.90	3908.69
428.09	3892.31
428.28	4128.70
428.46	4152.11
428.65	3960.19
428.84	4208.28
429.03	4161.47
429.22	3864.22
429.40	4018.70
429.59	4091.26
429.78	3887.63
429.97	3861.88
430.16	3925.08
430.34	3939.12
430.53	4210.62
430.72	3915.72
430.91	4098.28
431.10	4102.96
431.28	4266.80
431.47	4273.82
431.66	4573.41
431.85	4266.80
432.03	4411.91
432.22	4500.85
432.41	4458.72
432.60	4631.92
432.79	4496.17
432.97	4535.96
433.16	4678.73
433.35	4500.85
433.54	4622.56
433.72	4538.30
433.91	4468.08
434.10	4734.90
434.28	4685.75
434.47	4631.92
434.66	4622.56
434.85	4720.86
435.03	4861.29
435.22	4828.53
435.41	4884.70
435.59	4767.67
435.78	4961.94
435.97	4933.85
436.16	4978.32
436.34	4917.47
436.53	4898.74
436.72	4997.04
436.90	4875.34
437.09	4973.64
437.28	4861.29
437.46	5125.77
437.65	5102.37
437.84	5097.69
438.02	5088.32
438.21	5123.43
438.40	4894.06
438.58	5310.68
438.77	5355.15
438.96	5165.56
439.14	5329.40
439.33	5308.34
439.52	5432.38
439.70	5504.94
439.89	5547.07
440.08	5521.32
440.26	5544.73
440.45	5537.71
440.63	5516.64
440.82	5795.17
441.01	5774.10
441.19	5895.81
441.38	5909.85
441.57	5891.13
441.75	5858.36
441.94	6064.33
442.12	5907.51
442.31	6214.12
442.50	6111.14
442.68	6003.47
442.87	6012.84
443.05	6148.59
443.24	6066.67
443.43	6085.39
443.61	6211.78
443.80	6223.48
443.98	6183.70
444.17	6040.92
444.35	6265.61
444.54	6375.62
444.73	6113.48
444.91	6417.75
445.10	6387.32
445.28	6200.08
445.47	6197.74
445.65	6176.67
445.84	6251.57
446.02	6518.39
446.21	6345.19
446.39	6230.51
446.58	6335.83
446.77	6551.16
446.95	6497.33
447.14	6396.68
447.32	6593.29
447.51	6382.64
447.69	6406.05
447.88	6389.66
448.06	6424.77
448.25	6513.71
448.43	6424.77
448.62	6462.22
448.80	6424.77
448.99	6462.22
449.17	6586.27
449.36	6729.04
449.54	6700.95
449.73	6616.69
449.91	6729.04
450.10	6836.70
450.28	6942.03
450.46	6841.39
450.65	6899.90
450.83	6834.36
451.02	6555.84
451.20	6782.87
451.39	6822.66
451.57	6864.79
451.76	6953.73
451.94	6899.90
452.13	6988.84
452.31	7026.29
452.49	6953.73
452.68	6876.49
452.86	6890.54
453.05	7164.38
453.23	7187.79
453.42	7070.76
453.60	7103.53
453.78	7302.47
453.97	7094.16
454.15	7075.44
454.34	7199.49
454.52	7344.60
454.70	7208.85
454.89	7330.56
455.07	7321.20
455.26	7541.21
455.44	7473.33
455.62	7344.60
455.81	7559.93
455.99	7445.24
456.17	7665.25
456.36	7562.27
456.54	7564.61
456.73	7616.10
456.91	7768.24
457.09	7810.37
457.28	8002.29
457.46	7772.92
457.64	7789.30
457.83	7705.04
458.01	7545.89
458.19	7889.95
458.38	7737.81
458.56	7805.69
458.74	7920.37
458.93	7812.71
459.11	8046.76
459.29	8180.17
459.48	8140.38
459.66	8023.36
459.84	8320.60
460.03	8229.32
460.21	8114.64
460.39	8252.73
460.57	8191.88
460.76	8432.95
460.94	8491.46
461.12	8315.92
461.31	8224.64
461.49	8163.79
461.67	8395.50
461.85	8650.62
462.04	8526.57
462.22	9006.38
462.40	8435.29
462.59	8489.12
462.77	8695.09
462.95	8664.66
463.13	8496.14
463.32	8755.94
463.50	8610.83
463.68	8772.33
463.86	8578.06
464.05	8521.89
464.23	8723.18
464.41	8557.00
464.59	8393.16
464.78	8788.71
464.96	8777.01
465.14	8823.82
465.32	8884.67
465.50	9004.04
465.69	8908.08
465.87	8915.10
466.05	8884.67
466.23	8755.94
466.41	8912.76
466.60	9076.60
466.78	8968.93
466.96	8821.48
467.14	8961.91
467.32	9015.74
467.51	9130.43
467.69	8856.59
467.87	8961.91
468.05	9067.24
468.23	9125.75
468.41	9020.42
468.60	9085.96
468.78	9448.74
468.96	9224.05
469.14	9420.66
469.32	9341.08
469.50	9238.09
469.69	9420.66
469.87	9502.58
470.05	9493.21
470.23	9460.45
470.41	9322.35
470.59	9650.03
470.77	9427.68
470.95	9619.60
471.14	9675.77
471.32	9867.70
471.50	9982.38
471.68	10005.79
471.86	10068.98
472.04	9998.77
472.22	10314.74
472.40	10036.22
472.58	9989.41
472.77	10104.09
472.95	10312.40
473.13	10523.05
473.31	10087.71
473.49	10319.42
473.67	10349.85
473.85	10408.36
474.03	10619.01
474.21	10492.62
474.39	10576.88
474.57	10717.31
474.75	10778.17
474.93	10995.84
475.12	10689.23
475.30	10738.38
475.48	10862.43
475.66	10902.22
475.84	11108.18
476.02	10920.94
476.20	11014.56
476.38	11213.51
476.56	11318.83
476.74	11487.35
476.92	11438.20
477.10	11243.93
477.28	11655.87
477.46	11433.52
477.64	11765.87
477.82	11903.96
478.00	12358.03
478.18	12145.04
478.36	12140.36
478.54	12479.74
478.72	12231.64
478.90	12695.07
479.08	12575.70
479.26	12795.71
479.44	12793.37
479.62	12938.48
479.80	12781.67
479.98	13275.52
480.16	13011.04
480.34	13099.98
480.52	13327.01
480.70	13076.57
480.88	13228.71
481.06	13383.18
481.24	13371.48
481.41	13640.64
481.59	13881.72
481.77	13947.25
481.95	13951.93
482.13	14150.88
482.31	14202.37
482.49	14626.01
482.67	14244.50
482.85	14703.25
483.03	14862.40
483.21	15183.06
483.39	15014.54
483.57	14705.59
483.74	14614.30
483.92	14850.70
484.10	15000.49
484.28	15393.70
484.46	15704.99
484.64	15798.62
484.82	15686.27
485.00	15644.14
485.18	15882.88
485.35	16196.51
485.53	15740.10
485.71	15754.15
485.89	16184.80
486.07	16109.91
486.25	16226.93
486.43	16486.73
486.61	16423.54
486.78	16573.33
486.96	16753.55
487.14	17231.02
487.32	17184.21
487.50	17706.15
487.68	17811.48
487.85	17827.86
488.03	18155.54
488.21	17914.46
488.39	18001.06
488.57	17928.50
488.75	18087.66
488.92	18817.91
489.10	18771.10
489.28	18537.04
489.46	19243.88
489.64	19157.28
489.81	19637.09
489.99	19545.81
490.17	19613.69
490.35	19761.14
490.53	19826.68
490.70	19866.47
490.88	19896.89
491.06	20102.86
491.24	20128.61
491.41	20210.53
491.59	20222.23
491.77	20400.11
491.95	20673.95
492.13	20636.50
492.30	20812.04
492.48	21003.97
492.66	21081.21
492.84	21266.11
493.01	21369.09
493.19	21422.92
493.37	21455.69
493.54	21551.65
493.72	22008.06
493.90	22108.70
494.08	22375.52
494.25	22534.68
494.43	22419.99
494.61	22466.80
494.79	22649.36
494.96	22796.82
495.14	22654.05
495.32	23234.50
495.49	23140.88
495.67	23101.09
495.85	23442.81
496.02	23393.65
496.20	23894.53
496.38	23639.41
496.55	23632.39
496.73	24470.30
496.91	23843.04
497.09	24112.20
497.26	24280.72
497.44	24308.80
497.62	24627.12
497.79	24671.59
497.97	24720.74
498.14	24746.48
498.32	24767.55
498.50	25025.01
498.67	24938.41
498.85	25238.00
499.03	25362.04
499.20	25469.71
499.38	25579.71
499.56	25645.25
499.73	25823.13
499.91	25963.56
500.08	25802.07
500.26	25617.16
500.44	25930.80
500.61	26221.02
500.79	26174.21
500.97	26377.84
501.14	26426.99
501.32	26494.86
501.49	26684.45
501.67	26361.45
501.84	26761.69
502.02	27131.49
502.20	26852.97
502.37	27112.77
502.55	26927.86
502.72	27473.21
502.90	27606.62
503.07	27342.14
503.25	27482.57
503.43	27461.51
503.60	27559.81
503.78	27718.96
503.95	27520.02
504.13	27681.52
504.30	27735.35
504.48	27758.75
504.65	28133.24
504.83	28554.54
505.01	28601.35
505.18	28212.82
505.36	28542.83
505.53	28758.16
505.71	28837.74
505.88	29027.32
506.06	28694.97
506.23	29193.50
506.41	28701.99
506.58	29200.52
506.76	29186.48
506.93	29465.00
507.11	29172.44
507.28	29399.47
507.46	29701.40
507.63	28666.88
507.81	29418.19
507.98	29085.84
508.16	30022.05
508.33	30157.80
508.50	29947.15
508.68	29769.27
508.85	30270.15
509.03	30340.36
509.20	30312.28
509.38	30426.96
509.55	30459.73
509.73	30728.89
509.90	30813.15
510.08	30890.39
510.25	30738.26
510.42	30974.65
510.60	31091.68
510.77	31297.64
510.95	31054.23
511.12	31292.96
511.30	31049.55
511.47	31503.61
511.64	31814.90
511.82	31627.66
511.99	31447.44
512.17	31679.15
512.34	31828.95
512.51	31695.53
512.69	31742.35
512.86	31868.73
513.04	32280.67
513.21	32327.48
513.38	32018.53
513.56	31976.40
513.73	32058.32
513.90	32315.78
514.08	32140.24
514.25	32385.99
514.43	32526.42
514.60	32800.27
514.77	32917.29
514.95	32964.10
515.12	33015.60
515.29	33010.92
515.47	33141.99
515.64	33436.89
515.81	33041.34
515.99	33301.14
516.16	33284.76
516.33	33043.68
516.51	33060.07
516.68	32790.91
516.85	33055.39
517.03	33226.24
517.20	33127.94
517.37	33593.71
517.54	33862.87
517.72	33745.84
517.89	33347.95
518.06	33596.05
518.24	33607.75
518.41	33757.55
518.58	33743.50
518.75	34094.58
518.93	33993.94
519.10	34043.09
519.27	34513.54
519.45	34597.80
519.62	34913.77
519.79	35206.34
519.96	34586.10
520.14	34944.20
520.31	34522.90
520.48	34873.98
520.65	35517.63
520.83	35077.61
521.00	35484.86
521.17	35093.99
521.34	35388.90
521.52	35295.28
521.69	35402.94
521.86	35725.94
522.03	35227.40
522.20	35868.71
522.38	35611.25
522.55	35786.79
522.72	35761.05
522.89	35386.56
523.07	36187.02
523.24	35744.66
523.41	36208.09
523.58	36278.30
523.75	36634.06
523.92	36355.54
524.10	36664.49
524.27	36652.79
524.44	36615.34
524.61	36409.37
524.78	36690.24
524.96	37303.46
525.13	37064.72
525.30	36765.14
525.47	37317.50
525.64	37277.71
525.81	37345.59
525.98	37088.13
526.16	36919.61
526.33	36533.42
526.50	36856.42
526.67	36739.39
526.84	37191.11
527.01	37071.75
527.18	37156.00
527.36	37385.38
527.53	37378.36
527.70	37619.43
527.87	38014.98
528.04	37411.12
528.21	37783.27
528.38	38080.52
528.55	38265.42
528.72	38075.84
528.89	38169.46
529.07	38567.35
529.24	37713.05
529.41	38010.30
529.58	38213.93
529.75	38012.64
529.92	38305.21
530.09	38473.73
530.26	38052.43
530.43	38335.63
530.60	38576.71
530.77	38501.81
530.94	38873.96
531.11	38754.59
531.28	38778.00
531.46	38675.01
531.63	38705.44
531.80	39061.20
531.97	38850.55
532.14	38850.55
532.31	38576.71
532.48	39185.25
532.65	39049.50
532.82	38920.77
532.99	39346.75
533.16	39332.70
533.33	39269.51
533.50	39358.45
533.67	39173.55
533.84	39402.92
534.01	39608.89
534.18	39393.56
534.35	39910.82
534.52	39541.01
534.69	39803.15
534.86	39854.64
535.03	39622.93
535.20	39950.60
535.37	40622.34
535.54	40086.36
535.71	39784.43
535.88	39674.42
536.05	40273.60
536.22	40091.04
536.38	40261.90
536.55	40170.61
536.72	40486.59
536.89	39974.01
537.06	40329.77
537.23	40275.94
537.40	40505.31
537.57	40495.95
537.74	40502.97
537.91	40699.58
538.08	40470.20
538.25	40631.70
538.42	40540.42
538.59	40877.46
538.75	40294.66
538.92	40938.31
539.09	40830.65
539.26	40804.90
539.43	40470.20
539.60	40638.72
539.77	40921.93
539.94	40940.65
540.11	41205.13
540.28	41366.63
540.44	40978.10
540.61	41003.85
540.78	41368.97
540.95	41155.98
541.12	41010.87
541.29	40627.02
541.46	41308.11
541.62	41380.67
541.79	41434.50
541.96	41249.60
542.13	41179.39
542.30	41771.54
542.47	41401.74
542.63	41439.18
542.80	41907.29
542.97	41893.25
543.14	42059.43
543.31	42230.29
543.48	42136.66
543.64	42452.64
543.81	42342.63
543.98	42300.50
544.15	42122.62
544.32	42415.19
544.48	42696.05
544.65	42326.25
544.82	42415.19
544.99	42038.36
545.16	42560.30
545.32	42478.38
545.49	42674.99
545.66	42656.26
545.83	42487.74
546.00	42726.48
546.16	42665.63
546.33	42740.52
546.50	42422.21
546.67	42759.25
546.83	42197.52
547.00	42635.20
547.17	42731.16
547.34	42747.54
547.50	42784.99
547.67	43615.88
547.84	42916.06
548.00	43068.20
548.17	42965.21
548.34	43035.43
548.51	43227.35
548.67	43234.38
548.84	43421.62
549.01	42927.77
549.18	42649.24
549.34	43325.66
549.51	43555.03
549.68	43559.71
549.84	43646.31
550.01	43751.63
550.18	43779.72
550.34	43714.19
550.51	43192.25
550.68	43234.38
550.84	43557.37
551.01	43842.92
551.18	43519.92
551.34	43761.00
551.51	44051.22
551.68	43915.47
551.84	43835.89
552.01	43604.18
552.18	44072.29
552.34	43569.07
552.51	43714.19
552.68	43976.33
552.84	44135.48
553.01	43796.10
553.18	43688.44
553.34	44130.80
553.51	43704.82
553.67	44060.58
553.84	43859.30
554.01	43835.89
554.17	44350.81
554.34	44760.40
554.51	44168.25
554.67	44184.63
554.84	44643.38
555.00	44032.50
555.17	44186.97
555.33	44208.04
555.50	44339.11
555.67	44474.86
555.83	44425.71
556.00	44528.69
556.16	45120.85
556.33	44247.83
556.50	44392.94
556.66	44786.15
556.83	44533.37
556.99	44804.88
557.16	44804.88
557.32	44652.74
557.49	44587.21
557.65	44629.34
557.82	44102.71
557.98	44390.60
558.15	44591.89
558.32	45134.89
558.48	44587.21
558.65	44538.05
558.81	44779.13
558.98	44502.95
559.14	44638.70
559.31	44296.98
559.47	44458.48
559.64	45429.80
559.80	44626.99
559.97	44538.05
560.13	44505.29
560.30	44758.06
560.46	45291.71
560.63	44753.38
560.79	45198.09
560.96	45385.33
561.12	45186.38
561.29	45020.20
561.45	44917.22
561.61	45029.57
561.78	44795.51
561.94	44978.07
562.11	45111.49
562.27	44978.07
562.44	45287.03
562.60	44942.97
562.77	45193.40
562.93	45429.80
563.10	45558.53
563.26	44800.19
563.42	45497.67
563.59	45380.65
563.75	45287.03
563.92	45827.69
564.08	45422.78
564.24	45511.72
564.41	45436.82
564.57	45223.83
564.74	45762.15
564.90	45961.10
565.07	45167.66
565.23	45837.05
565.39	45170.00
565.56	45645.13
565.72	44994.46
565.88	45333.84
566.05	45539.80
566.21	45223.83
566.38	45628.74
566.54	45427.46
566.70	45642.79
566.87	45925.99
567.03	45483.63
567.19	45911.95
567.36	45532.78
567.52	45195.74
567.68	45577.25
567.85	45516.40
568.01	45237.87
568.17	45525.76
568.34	45895.56
568.50	45343.20
568.66	45322.13
568.83	45390.01
568.99	45296.39
569.15	45200.43
569.32	45158.30
569.48	45385.33
569.64	46160.05
569.81	45724.71
569.97	45408.73
570.13	45834.71
570.30	45385.33
570.46	45352.56
570.62	45425.12
570.78	45188.72
570.95	45581.93
571.11	45752.79
571.27	45514.06
571.43	45701.30
571.60	46274.73
571.76	45610.02
571.92	45869.82
572.09	45464.91
572.25	46068.76
572.41	45301.07
572.57	45956.42
572.74	45970.46
572.90	45563.21
573.06	45804.28
573.22	45265.96
573.38	45542.14
573.55	45998.55
573.71	46005.57
573.87	45425.12
574.03	45600.66
574.20	45691.94
574.36	45661.51
574.52	45839.39
574.68	45705.98
574.84	45858.12
575.01	46026.63
575.17	45811.31
575.33	45593.64
575.49	45603.00
575.65	46167.07
575.82	46164.73
575.98	45455.54
576.14	46199.83
576.30	45722.37
576.46	45769.18
576.62	45841.73
576.79	45991.53
576.95	45436.82
577.11	45794.92
577.27	45790.24
577.43	45855.78
577.59	45705.98
577.75	46017.27
577.92	45727.05
578.08	45921.31
578.24	45492.99
578.40	45813.65
578.56	45766.84
578.72	45766.84
578.88	45581.93
579.04	45514.06
579.21	45642.79
579.37	46298.14
579.53	45446.18
579.69	45689.60
579.85	46064.08
580.01	46197.49
580.17	46181.11
580.33	46010.25
580.49	45801.94
580.65	46057.06
580.82	46014.93
580.98	46085.15
581.14	45738.75
581.30	46110.89
581.46	45965.78
581.62	45893.22
581.78	45736.41
581.94	46192.81
582.10	45944.72
582.26	46190.47
582.42	46157.70
582.58	45839.39
582.74	45888.54
582.90	45874.50
583.06	45762.15
583.22	46096.85
583.38	46326.22
583.54	46031.32
583.70	45895.56
583.86	46157.70
584.02	45895.56
584.18	46038.34
584.34	45982.16
584.50	46576.66
584.66	46071.10
584.82	45860.46
584.98	46120.26
585.14	46272.39
585.30	46082.81
585.46	45982.16
585.62	45799.60
585.78	45848.75
585.94	45727.05
586.10	45909.61
586.26	45558.53
586.42	46131.96
586.58	46473.68
586.74	46087.49
586.90	45867.48
587.06	45930.67
587.22	46043.02
587.38	45684.92
587.54	46195.15
587.70	46223.24
587.86	46340.27
588.02	46073.45
588.18	46251.33
588.34	45888.54
588.49	45895.56
588.65	45457.88
588.81	45675.55
588.97	45825.35
589.13	45858.12
589.29	45626.40
589.45	46136.64
589.61	46216.22
589.77	46586.02
589.93	45925.99
590.08	46429.21
590.24	46146.00
590.40	46113.23
590.56	46480.70
590.72	46384.74
590.88	46061.74
591.04	46284.09
591.20	46319.20
591.35	46520.49
591.51	46382.40
591.67	45989.19
591.83	46263.03
591.99	46117.92
592.15	46047.70
592.31	46387.08
592.46	45956.42
592.62	46131.96
592.78	46431.55
592.94	46258.35
593.10	46445.59
593.26	46162.39
593.41	46384.74
593.57	46241.96
593.73	45911.95
593.89	46305.16
594.05	46038.34
594.20	46286.43
594.36	46272.39
594.52	46539.21
594.68	46178.77
594.84	46010.25
594.99	46356.65
595.15	46124.94
595.31	46571.98
595.47	46274.73
595.62	46733.48
595.78	46490.06
595.94	46401.12
596.10	46047.70
596.25	46340.27
596.41	46822.42
596.57	46302.82
596.73	46443.25
596.88	45942.38
597.04	46478.36
597.20	46349.63
597.36	46415.16
597.51	46284.09
597.67	46096.85
597.83	46679.64
597.99	46520.49
598.14	46106.21
598.30	46469.00
598.46	46529.85
598.61	46595.38
598.77	46211.54
598.93	46415.16
599.09	46815.40
599.24	46740.50
599.40	46616.45
599.56	46700.71
599.71	46777.95
599.87	46721.77
600.03	46649.22
600.18	46447.93
600.34	46539.21
600.50	46101.53
600.65	46504.10
600.81	46894.97
600.97	46351.97
601.12	46855.18
601.28	46274.73
601.44	46241.96
601.59	46061.74
601.75	46195.15
601.91	46117.92
602.06	46358.99
602.22	46316.86
602.37	46384.74
602.53	46309.84
602.69	46333.24
602.84	46356.65
603.00	46447.93
603.16	46232.60
603.31	46368.35
603.47	46490.06
603.62	45979.82
603.78	46272.39
603.94	45982.16
604.09	46550.91
604.25	46176.43
604.40	46094.51
604.56	46087.49
604.71	45968.12
604.87	46433.89
605.03	46398.78
605.18	45713.00
605.34	46185.79
605.49	46190.47
605.65	46328.56
605.80	45935.35
605.96	46218.56
606.12	46094.51
606.27	46876.25
606.43	46344.95
606.58	46405.80
606.74	46050.04
606.89	46405.80
607.05	46469.00
607.20	46241.96
607.36	46202.18
607.51	46579.00
607.67	46429.21
607.82	45698.96
607.98	45598.32
608.13	45659.17
608.29	45633.42
608.44	45588.95
608.60	45663.85
608.75	45741.09
608.91	45453.20
609.06	45303.41
609.22	45619.38
609.37	45434.48
609.53	45757.47
609.68	45970.46
609.84	46043.02
609.99	45790.24
610.15	45572.57
610.30	45841.73
610.46	45825.35
610.61	46110.89
610.76	45652.15
610.92	45923.65
611.07	45514.06
611.23	45750.45
611.38	46157.70
611.54	45492.99
611.69	45495.33
611.84	45556.19
612.00	45361.92
612.15	45134.89
612.31	45284.68
612.46	45500.01
612.62	45900.25
612.77	45240.21
612.92	45411.07
613.08	45586.61
613.23	45165.32
613.39	45308.09
613.54	45251.92
613.69	45364.26
613.85	44952.33
614.00	45214.47
614.15	45703.64
614.31	45155.96
614.46	45474.27
614.62	45848.75
614.77	45216.81
614.92	45141.91
615.08	45055.31
615.23	44954.67
615.38	45141.91
615.54	44861.05
615.69	44598.91
615.84	44582.52
616.00	45116.17
616.15	44781.47
616.30	44795.51
616.46	44753.38
616.61	44399.96
616.76	45170.00
616.92	44479.54
617.07	44737.00
617.22	44325.07
617.37	44839.98
617.53	44877.43
617.68	44903.18
617.83	44516.99
617.99	44863.39
618.14	45043.61
618.29	44680.83
618.45	44357.83
618.60	44435.07
618.75	45092.76
618.90	44734.66
619.06	44673.81
619.21	44858.71
619.36	44706.57
619.51	44795.51
619.67	44222.08
619.82	44645.72
619.97	44889.13
620.12	43936.54
620.28	43611.20
620.43	44198.68
620.58	44498.26
620.73	44250.17
620.89	44161.23
621.04	44322.72
621.19	44226.76
621.34	43927.17
621.49	44083.99
621.65	44184.63
621.80	43915.47
621.95	44044.20
622.10	44453.79
622.25	44046.54
622.41	43646.31
622.56	43611.20
622.71	44559.12
622.86	43973.98
623.01	44336.77
623.16	44123.78
623.32	43702.48
623.47	44105.06
623.62	44044.20
623.77	43697.80
623.92	43494.18
624.07	43896.75
624.23	43306.93
624.38	43445.02
624.53	43309.27
624.68	43728.23
624.83	43817.17
624.98	43775.04
625.13	43379.49
625.29	43615.88
625.44	43529.28
625.59	43526.94
625.74	43012.02
625.89	43440.34
626.04	43189.91
626.19	43550.35
626.34	43398.21
626.49	43091.60
626.65	43423.96
626.80	43452.05
626.95	43241.40
627.10	43407.58
627.25	42850.53
627.40	42796.70
627.55	42703.07
627.70	42298.16
627.85	42850.53
628.00	42249.01
628.15	42801.38
628.30	42967.55
628.45	42960.53
628.60	43021.39
628.76	42965.21
628.91	42855.21
629.06	42707.76
629.21	42927.77
629.36	42630.52
629.51	42466.68
629.66	42389.44
629.81	41893.25
629.96	42546.26
630.11	42604.77
630.26	42522.85
630.41	42941.81
630.56	42658.60
630.71	42873.93
630.86	42286.46
631.01	42422.21
631.16	42457.32
631.31	42064.11
631.46	42052.41
631.61	42101.56
631.76	42728.82
631.91	42356.67
632.06	42197.52
632.21	42319.23
632.36	42497.11
632.51	42581.37
632.66	42567.32
632.81	41673.24
632.96	42342.63
633.10	41553.87
633.25	42052.41
633.40	42321.57
633.55	42656.26
633.70	42092.19
633.85	41223.86
634.00	42185.82
634.15	41944.74
634.30	41387.69
634.45	41895.59
634.60	41598.34
634.75	41986.87
634.90	41368.97
635.05	41713.03
635.19	41413.44
635.34	41654.51
635.49	41806.65
635.64	41240.24
635.79	41652.17
635.94	41607.70
636.09	41469.61
636.24	41586.64
636.39	41237.90
636.53	41574.94
636.68	40973.42
636.83	40973.42
636.98	41375.99
637.13	41081.08
637.28	41163.00
637.43	41427.48
637.57	41584.30
637.72	41368.97
637.87	41310.46
638.02	41170.02
638.17	40973.42
638.32	41158.32
638.46	41043.63
638.61	40882.14
638.76	41359.61
638.91	40577.87
639.06	40938.31
639.20	40935.97
639.35	41118.53
639.50	40811.92
639.65	40634.04
639.80	41134.92
639.94	40959.38
640.09	40786.18
640.24	40800.22
640.39	40622.34
640.54	40769.79
640.68	40575.53
640.83	40659.79
640.98	40610.64
641.13	40531.06
641.27	40636.38
641.42	40652.76
641.57	40865.75
641.72	40715.96
641.86	40442.12
642.01	40091.04
642.16	40285.30
642.31	40250.19
642.45	40514.67
642.60	40383.60
642.75	40229.13
642.90	40285.30
643.04	40254.87
643.19	40559.14
643.34	40044.23
643.48	40264.24
643.63	40275.94
643.78	39995.07
643.93	40313.39
644.07	40069.97
644.22	40273.60
644.37	39880.39
644.51	40105.08
644.66	39791.45
644.81	40428.07
644.95	40065.29
645.10	40004.44
645.25	40247.85
645.39	39732.93
645.54	40084.01
645.69	40025.50
645.83	39651.02
645.98	39786.77
646.13	39655.70
646.27	39896.77
646.42	39828.90
646.57	39859.32
646.71	39669.74
646.86	39571.44
647.00	39604.20
647.15	39859.32
647.30	39400.58
647.44	39681.44
647.59	39367.81
647.74	39559.73
647.88	39414.62
648.03	39402.92
648.17	39330.36
648.32	39033.11
648.47	39234.40
648.61	38969.92
648.76	39335.04
648.90	39246.10
649.05	39393.56
649.20	39416.96
649.34	39311.64
649.49	39199.29
649.63	39370.15
649.78	39232.06
649.92	38843.53
650.07	39552.71
650.21	39239.08
650.36	39313.98
650.51	39028.43
650.65	39545.69
650.80	39505.90
650.94	39105.67
651.09	39199.29
651.23	39054.18
651.38	38923.11
651.52	38518.20
651.67	38944.17
651.81	38986.30
651.96	38855.23
652.10	38822.47
652.25	38492.45
652.39	38820.13
652.54	38759.27
652.68	38965.24
652.83	38438.62
652.97	39187.59
653.12	38611.82
653.26	38335.63
653.41	38946.51
653.55	37933.06
653.70	38328.61
653.84	38298.19
653.99	38763.95
654.13	38628.20
654.27	38361.38
654.42	38595.43
654.56	38000.94
654.71	38117.96
654.85	38237.33
655.00	38455.00
655.14	37848.80
655.29	37628.79
655.43	37956.47
655.57	37909.66
655.72	37872.21
655.86	37841.78
656.01	37411.12
656.15	37174.73
656.30	37907.32
656.44	37479.00
656.58	37577.30
656.73	37809.01
656.87	37780.93
657.01	37282.39
657.16	37303.46
657.30	37226.22
657.45	37413.46
657.59	37422.83
657.73	37233.24
657.88	37574.96
658.02	37979.87
658.16	37350.27
658.31	37750.50
658.45	37523.47
658.60	37350.27
658.74	37064.72
658.88	37312.82
659.03	37214.52
659.17	37228.56
659.31	37048.34
659.46	36666.83
659.60	36935.99
659.74	37097.49
659.89	36886.84
660.03	36706.62
660.17	37130.26
660.32	36772.16
660.46	36725.35
660.60	36751.09
660.74	37275.37
660.89	36463.21
661.03	36189.36
661.17	36421.08
661.32	36514.70
661.46	36753.43
661.60	36229.15
661.74	36603.64
661.89	36432.78
662.03	36446.82
662.17	36357.88
662.31	36172.98
662.46	36034.89
662.60	36360.22
662.74	36507.68
662.88	35985.74
663.03	36123.83
663.17	35908.50
663.31	35674.45
663.45	35838.28
663.60	36041.91
663.74	35793.81
663.88	35407.62
664.02	35613.59
664.17	36032.55
664.31	35828.92
664.45	35585.50
664.59	35611.25
664.73	35704.87
664.88	35435.71
665.02	35250.81
665.16	35253.15
665.30	35473.16
665.44	35318.68
665.59	35180.59
665.73	34614.18
665.87	34824.83
666.01	35026.12
666.15	35101.01
666.29	35196.98
666.44	34754.61
666.58	34209.27
666.72	34906.75
666.86	34878.66
667.00	34892.71
667.14	34623.54
667.28	34637.59
667.43	34232.68
667.57	34686.74
667.71	34375.45
667.85	34260.76
667.99	34696.10
668.13	34249.06
668.27	34153.10
668.41	34387.15
668.56	33883.94
668.70	34611.84
668.84	34141.39
668.98	33895.64
669.12	34108.63
669.26	34022.03
669.40	34225.65
669.54	33535.20
669.68	33738.82
669.82	33560.94
669.96	33736.48
670.10	33406.47
670.25	33949.47
670.39	33626.48
670.53	33088.15
670.67	33256.67
670.81	33542.22
670.95	33254.33
671.09	33172.41
671.23	33291.78
671.37	32882.19
671.51	33081.13
671.65	32631.75
671.79	32587.28
671.93	32678.56
672.07	33001.55
672.21	32898.57
672.35	32371.95
672.49	32598.98
672.63	32512.38
672.77	32596.64
672.91	32294.71
673.05	32261.94
673.19	32058.32
673.33	31906.18
673.47	31901.50
673.61	31763.41
673.75	31751.71
673.89	31491.91
674.03	31281.26
674.17	31393.61
674.31	31498.93
674.45	31316.37
674.59	31501.27
674.73	31859.37
674.87	31435.74
675.01	31335.09
675.15	31054.23
675.29	31344.45
675.43	30836.56
675.56	31377.22
675.70	31234.45
675.84	30948.90
675.98	29853.53
676.12	30815.49
676.26	30630.59
676.40	30349.73
676.54	30625.91
676.68	30433.99
676.82	30197.59
676.96	29888.64
677.10	29928.43
677.23	29954.18
677.37	29853.53
677.51	30068.86
677.65	29846.51
677.79	29453.30
677.93	29551.60
678.07	29465.00
678.21	29287.12
678.34	29553.94
678.48	29137.33
678.62	29167.76
678.76	29338.62
678.90	28774.55
679.04	28952.43
679.18	28814.34
679.31	28238.56
679.45	28624.75
679.59	28170.69
679.73	27934.29
679.87	28320.48
680.00	28039.62
680.14	28210.48
680.28	28093.45
680.42	27854.72
680.56	27964.72
680.70	27936.63
680.83	27843.01
680.97	27552.79
681.11	27873.44
681.25	27311.71
681.39	27585.55
681.52	27395.97
681.66	27112.77
681.80	27229.79
681.94	26998.08
682.07	27028.51
682.21	27009.78
682.35	26944.25
682.49	26710.19
682.62	26792.11
682.76	26539.33
682.90	26476.14
683.04	26286.56
683.17	26228.04
683.31	26099.31
683.45	26230.38
683.59	26087.61
683.72	26010.37
683.86	26111.02
684.00	25549.29
684.13	25495.46
684.27	25949.52
684.41	25600.78
684.55	25572.69
684.68	25558.65
684.82	25036.71
684.96	25333.96
685.09	25621.84
685.23	24875.21
685.37	24882.24
685.50	25055.43
685.64	25127.99
685.78	24624.78
685.91	24486.68
686.05	24589.67
686.19	24350.93
686.32	24247.95
686.46	24018.58
686.60	23847.72
686.73	24287.74
686.87	23660.48
687.01	23578.56
687.14	23527.06
687.28	23475.57
687.42	23653.45
687.55	23218.11
687.69	23122.15
687.82	23419.40
687.96	23150.24
688.10	23007.47
688.23	23445.15
688.37	23023.85
688.50	22370.84
688.64	22824.90
688.78	22815.54
688.91	22307.65
689.05	22672.77
689.18	22387.22
689.32	22001.04
689.46	22106.36
689.59	22408.29
689.73	22520.63
689.86	22246.79
690.00	21858.26
690.13	21930.82
690.27	21832.52
690.41	21570.38
690.54	21556.33
690.68	21486.12
690.81	21436.97
690.95	21041.42
691.08	21188.87
691.22	21102.27
691.35	21186.53
691.49	21591.44
691.62	21511.86
691.76	21287.17
691.89	20889.28
692.03	20662.25
692.16	20872.90
692.30	20489.05
692.43	20589.69
692.57	20430.54
692.70	20418.83
692.84	20276.06
692.97	19908.60
693.11	20081.80
693.24	20034.99
693.38	19744.76
693.51	19824.34
693.65	19936.68
693.78	19988.18
693.92	19887.53
694.05	19714.33
694.19	19487.30
694.32	19723.69
694.45	19297.72
694.59	19426.45
694.72	19377.30
694.86	19122.18
694.99	19108.13
695.13	19117.50
695.26	19105.79
695.39	18906.85
695.53	18726.63
695.66	18668.11
695.80	18740.67
695.93	18324.05
696.07	18459.81
696.20	18352.14
696.33	18295.97
696.47	18239.79
696.60	17926.16
696.73	18019.78
696.87	17949.57
697.00	17811.48
697.14	17790.41
697.27	18022.12
697.40	17692.11
697.54	17855.95
697.67	17200.60
697.80	17586.79
697.94	17371.46
698.07	17329.33
698.21	17294.22
698.34	17352.73
698.47	17214.64
698.61	16954.84
698.74	16793.34
698.87	16814.41
699.01	16809.73
699.14	16439.92
699.27	16514.82
699.40	16659.93
699.54	16575.67
699.67	16400.13
699.80	16446.94
699.94	16084.16
700.07	16475.03
700.20	16215.23
700.34	15969.48
700.47	15950.75
700.60	16350.98
700.73	16290.13
700.87	16027.99
701.00	15805.64
701.13	15742.44
701.26	15639.46
701.40	15559.88
701.53	15651.16
701.66	15035.60
701.79	15300.08
701.93	15159.65
702.06	15227.53
702.19	15112.84
702.32	15374.98
702.46	14970.07
702.59	14808.57
702.72	14771.12
702.85	14897.51
702.99	14787.50
703.12	15080.07
703.25	14946.66
703.38	14771.12
703.51	14616.65
703.65	14822.61
703.78	14508.98
703.91	14459.83
704.04	14434.08
704.17	14328.76
704.31	14237.48
704.44	14015.13
704.57	14040.87
704.70	13855.97
704.83	13886.40
704.96	14115.77
705.10	13998.74
705.23	14015.13
>>>>>End Processed Spectral Data<<<<<
