SpectraSuite Data File
++++++++++++++++++++++++++++++++++++
Date: Fri Oct 25 11:33:22 EDT 2013
User: price-jones
Dark Spectrum Present: No
Reference Spectrum Present: No
Number of Sampled Component Spectra: 1
Spectrometers: USB2+H05261
Integration Time (usec): 100000 (USB2+H05261)
Spectra Averaged: 1 (USB2+H05261)
Boxcar Smoothing: 0 (USB2+H05261)
Correct for Electrical Dark: No (USB2+H05261)
Strobe/Lamp Enabled: No (USB2+H05261)
Correct for Detector Non-linearity: No (USB2+H05261)
Correct for Stray Light: No (USB2+H05261)
Number of Pixels in Processed Spectrum: 2048
>>>>>Begin Processed Spectral Data<<<<<
365.73	276.18
365.92	276.18
366.12	276.18
366.32	191.92
366.52	217.67
366.72	287.89
366.91	138.09
367.11	177.88
367.31	175.54
367.51	168.52
367.70	140.43
367.90	187.24
368.10	156.82
368.30	189.58
368.49	100.64
368.69	234.05
368.89	177.88
369.09	285.55
369.28	292.57
369.48	196.60
369.68	140.43
369.87	196.60
370.07	259.80
370.27	306.61
370.47	348.74
370.66	489.17
370.86	463.43
371.06	557.05
371.25	510.24
371.45	524.28
371.65	608.54
371.84	533.64
372.04	582.79
372.24	552.37
372.44	545.34
372.63	615.56
372.83	557.05
373.03	571.09
373.22	557.05
373.42	568.75
373.62	578.11
373.81	585.13
374.01	627.26
374.21	575.77
374.40	606.20
374.60	713.86
374.79	615.56
374.99	695.14
375.19	683.44
375.38	650.67
375.58	653.01
375.78	704.50
375.97	739.61
376.17	732.59
376.37	688.12
376.56	638.97
376.76	685.78
376.95	671.73
377.15	674.07
377.35	650.67
377.54	664.71
377.74	748.97
377.93	711.52
378.13	650.67
378.33	734.93
378.52	695.14
378.72	784.08
378.91	723.23
379.11	748.97
379.31	638.97
379.50	718.54
379.70	699.82
379.89	688.12
380.09	713.86
380.28	681.10
380.48	781.74
380.68	695.14
380.87	711.52
381.07	737.27
381.26	767.70
381.46	777.06
381.65	763.01
381.85	744.29
382.04	688.12
382.24	814.51
382.43	823.87
382.63	823.87
382.83	866.00
383.02	851.96
383.22	828.55
383.41	844.93
383.61	748.97
383.80	751.31
384.00	835.57
384.19	819.19
384.39	737.27
384.58	826.21
384.78	858.98
384.97	851.96
385.17	788.76
385.36	854.30
385.56	821.53
385.75	861.32
385.95	894.08
386.14	933.87
386.34	875.36
386.53	908.13
386.72	805.14
386.92	840.25
387.11	842.59
387.31	938.55
387.50	882.38
387.70	835.57
387.89	847.27
388.09	903.45
388.28	889.40
388.48	884.72
388.67	952.60
388.86	952.60
389.06	898.77
389.25	957.28
389.45	938.55
389.64	933.87
389.84	973.66
390.03	950.26
390.22	1013.45
390.42	922.17
390.61	903.45
390.81	1025.15
391.00	1015.79
391.19	1006.43
391.39	1022.81
391.58	1055.58
391.78	957.28
391.97	997.07
392.16	1006.43
392.36	1053.24
392.55	1081.33
392.75	1097.71
392.94	1078.99
393.13	1050.90
393.33	1095.37
393.52	983.02
393.71	1102.39
393.91	1050.90
394.10	1083.67
394.29	1029.84
394.49	1069.62
394.68	1114.10
394.88	1081.33
395.07	1111.75
395.26	1160.91
395.46	1107.07
395.65	1179.63
395.84	1191.33
396.04	1212.40
396.23	1217.08
396.42	1144.52
396.62	1219.42
396.81	1186.65
397.00	1193.67
397.19	1240.48
397.39	1210.06
397.58	1240.48
397.77	1240.48
397.97	1303.68
398.16	1350.49
398.35	1287.29
398.55	1254.53
398.74	1263.89
398.93	1341.13
399.12	1277.93
399.32	1373.89
399.51	1348.15
399.70	1373.89
399.90	1256.87
400.09	1324.74
400.28	1427.73
400.47	1413.68
400.67	1425.39
400.86	1423.05
401.05	1458.15
401.24	1432.41
401.44	1453.47
401.63	1535.39
401.82	1535.39
402.01	1401.98
402.21	1392.62
402.40	1446.45
402.59	1462.83
402.78	1469.86
402.97	1481.56
403.17	1537.73
403.36	1533.05
403.55	1554.12
403.74	1584.54
403.93	1659.44
404.13	1614.97
404.32	1652.42
404.51	1638.38
404.70	1694.55
404.89	1626.67
405.09	1664.12
405.28	1736.68
405.47	1664.12
405.66	1750.72
405.85	1739.02
406.05	1776.47
406.24	1792.85
406.43	1748.38
406.62	1811.57
406.81	1914.56
407.00	1767.10
407.20	1811.57
407.39	1785.83
407.58	1853.70
407.77	1867.75
407.96	1846.68
408.15	1935.62
408.34	1750.72
408.54	1863.07
408.73	1834.98
408.92	1919.24
409.11	1996.48
409.30	1954.35
409.49	1973.07
409.68	1919.24
409.87	1977.75
410.07	2029.24
410.26	2127.55
410.45	2160.31
410.64	2111.16
410.83	2108.82
411.02	2094.78
411.21	2272.66
411.40	2186.06
411.59	2218.83
411.78	2162.66
411.98	2207.13
412.17	2305.43
412.36	2289.04
412.55	2312.45
412.74	2356.92
412.93	2392.03
413.12	2345.22
413.31	2459.90
413.50	2331.17
413.69	2380.32
413.88	2499.69
414.07	2574.59
414.26	2457.56
414.45	2511.39
414.64	2429.48
414.83	2483.31
415.02	2555.86
415.22	2602.68
415.41	2705.66
415.60	2726.72
415.79	2605.02
415.98	2836.73
416.17	2682.25
416.36	2661.19
416.55	2686.94
416.74	2839.07
416.93	2726.72
417.12	2794.60
417.31	2813.32
417.50	2841.41
417.69	2911.63
417.88	2899.92
418.07	2909.29
418.26	2913.97
418.45	3012.27
418.64	3115.25
418.83	2984.18
419.02	3084.83
419.21	3098.87
419.39	3199.51
419.58	3052.06
419.77	3077.80
419.96	3157.38
420.15	3218.24
420.34	3197.17
420.53	3208.87
420.72	3258.03
420.91	3290.79
421.10	3225.26
421.29	3314.20
421.48	3276.75
421.67	3267.39
421.86	3129.30
422.05	3337.60
422.24	3272.07
422.43	3358.67
422.61	3463.99
422.80	3393.78
422.99	3482.72
423.18	3463.99
423.37	3386.76
423.56	3351.65
423.75	3386.76
423.94	3342.28
424.13	3180.79
424.32	3365.69
424.50	3398.46
424.69	3625.49
424.88	3585.70
425.07	3463.99
425.26	3442.93
425.45	3510.80
425.64	3428.88
425.83	3353.99
426.01	3517.83
426.20	3510.80
426.39	3379.73
426.58	3459.31
426.77	3372.71
426.96	3524.85
427.15	3482.72
427.33	3566.98
427.52	3529.53
427.71	3653.58
427.90	3684.00
428.09	3691.02
428.28	3777.62
428.46	3794.01
428.65	3705.07
428.84	3775.28
429.03	3658.26
429.22	3786.99
429.40	3852.52
429.59	3826.78
429.78	3691.02
429.97	3723.79
430.16	3786.99
430.34	3918.06
430.53	3885.29
430.72	3822.09
430.91	3906.35
431.10	3803.37
431.28	4053.81
431.47	4007.00
431.66	4039.76
431.85	3770.60
432.03	3964.87
432.22	4135.73
432.41	4105.30
432.60	4236.37
432.79	4210.62
432.97	4196.58
433.16	4058.49
433.35	4173.18
433.54	4168.49
433.72	4224.67
433.91	4156.79
434.10	4124.02
434.28	4088.92
434.47	4313.61
434.66	4140.41
434.85	4402.55
435.03	4344.03
435.22	4337.01
435.41	4475.10
435.59	4535.96
435.78	4393.19
435.97	4423.61
436.16	4332.33
436.34	4390.84
436.53	4423.61
436.72	4685.75
436.90	4400.21
437.09	4482.13
437.28	4278.50
437.46	4500.85
437.65	4430.63
437.84	4748.95
438.02	4547.66
438.21	4844.91
438.40	4498.51
438.58	4713.84
438.77	4779.37
438.96	4720.86
439.14	4788.74
439.33	4877.68
439.52	4971.30
439.70	4990.02
439.89	5097.69
440.08	5114.07
440.26	4940.87
440.45	4936.19
440.63	5083.64
440.82	5221.74
441.01	5076.62
441.19	5078.96
441.38	5301.31
441.57	5376.21
441.75	5256.84
441.94	5256.84
442.12	5373.87
442.31	5476.85
442.50	5423.02
442.68	5282.59
442.87	5556.43
443.05	5474.51
443.24	5647.71
443.43	5537.71
443.61	5657.07
443.80	5680.48
443.98	5507.28
444.17	5458.13
444.35	5544.73
444.54	5769.42
444.73	5584.52
444.91	5631.33
445.10	5769.42
445.28	5680.48
445.47	5671.12
445.65	5680.48
445.84	5762.40
446.02	5790.49
446.21	5809.21
446.39	5790.49
446.58	5839.64
446.77	5746.02
446.95	5460.47
447.14	5699.20
447.32	6001.13
447.51	5804.53
447.69	5675.80
447.88	5863.04
448.06	5760.06
448.25	5959.00
448.43	5947.30
448.62	5827.93
448.80	5827.93
448.99	5980.07
449.17	5884.11
449.36	5888.79
449.54	5914.53
449.73	6136.88
449.91	6033.90
450.10	6033.90
450.28	6127.52
450.46	6258.59
450.65	6094.76
450.83	6139.23
451.02	6043.26
451.20	6282.00
451.39	6263.27
451.57	6359.24
451.76	6256.25
451.94	6282.00
452.13	6370.94
452.31	6293.70
452.49	6228.17
452.68	6319.45
452.86	6363.92
453.05	6513.71
453.23	6450.52
453.42	6415.41
453.60	6401.37
453.78	6494.99
453.97	6284.34
454.15	6413.07
454.34	6396.68
454.52	6534.78
454.70	6689.25
454.89	6729.04
455.07	6707.98
455.26	6693.93
455.44	6750.10
455.62	6810.96
455.81	6675.21
455.99	6696.27
456.17	6953.73
456.36	6726.70
456.54	6682.23
456.73	6956.07
456.91	7028.63
457.09	6843.73
457.28	7073.10
457.46	7124.59
457.64	7239.28
457.83	7049.69
458.01	6958.41
458.19	7258.00
458.38	7087.14
458.56	7192.47
458.74	7269.70
458.93	7370.35
459.11	7208.85
459.29	7309.49
459.48	7440.56
459.66	7199.49
459.84	7323.54
460.03	7492.05
460.21	7295.45
460.39	7517.80
460.57	7520.14
460.76	7482.69
460.94	7779.94
461.12	7543.55
461.31	7669.94
461.49	7660.57
461.67	7564.61
461.85	7726.11
462.04	7468.65
462.22	8196.56
462.40	7882.92
462.59	7712.07
462.77	7705.04
462.95	7967.18
463.13	7625.47
463.32	7836.11
463.50	7946.12
463.68	8116.98
463.86	7854.84
464.05	7815.05
464.23	7920.37
464.41	8067.83
464.59	7932.08
464.78	8147.40
464.96	8081.87
465.14	7948.46
465.32	8114.64
465.50	8056.12
465.69	8285.50
465.87	8372.10
466.05	8290.18
466.23	8198.90
466.41	8301.88
466.60	8446.99
466.78	8194.22
466.96	8346.35
467.14	8283.16
467.32	8177.83
467.51	8479.76
467.69	8133.36
467.87	8418.91
468.05	8461.04
468.23	8468.06
468.41	8449.33
468.60	8372.10
468.78	8580.40
468.96	8372.10
469.14	8592.11
469.32	8692.75
469.50	8524.23
469.69	8657.64
469.87	8781.69
470.05	8636.58
470.23	8751.26
470.41	8788.71
470.59	9144.47
470.77	8898.72
470.95	8990.00
471.14	9041.49
471.32	8898.72
471.50	9132.77
471.68	9013.40
471.86	9177.24
472.04	9315.33
472.22	9418.32
472.40	9207.67
472.58	9516.62
472.77	9301.29
472.95	9465.13
473.13	9818.55
473.31	9380.87
473.49	9507.26
473.67	9495.55
473.85	9490.87
474.03	9958.98
474.21	9729.61
474.39	9685.14
474.57	9591.52
474.75	9678.12
474.93	10017.49
475.12	9987.07
475.30	10120.48
475.48	10057.28
475.66	10061.96
475.84	10157.92
476.02	10331.12
476.20	10298.36
476.38	10478.58
476.56	10824.98
476.74	10506.66
476.92	10752.42
477.10	10548.79
477.28	10703.27
477.46	10874.13
477.64	10871.79
477.82	11110.52
478.00	11054.35
478.18	11147.97
478.36	11337.56
478.54	11330.53
478.72	11246.27
478.90	11578.63
479.08	11524.80
479.26	11864.18
479.44	11859.49
479.62	11845.45
479.80	11913.33
479.98	12105.25
480.16	12231.64
480.34	12233.98
480.52	12322.92
480.70	12362.71
480.88	12070.14
481.06	12610.81
481.24	12482.08
481.41	12734.85
481.59	12835.50
481.77	12807.41
481.95	13029.76
482.13	12964.23
482.31	13135.09
482.49	13364.46
482.67	13327.01
482.85	13465.10
483.03	13582.13
483.21	13830.23
483.39	13870.01
483.57	13832.57
483.74	14195.35
483.92	13926.19
484.10	13970.66
484.28	14265.57
484.46	14663.46
484.64	14874.10
484.82	14427.06
485.00	14780.48
485.18	14843.68
485.35	15391.36
485.53	15346.89
485.71	15407.75
485.89	15536.48
486.07	15311.78
486.25	15508.39
486.43	15749.46
486.61	15669.89
486.78	16056.08
486.96	16114.59
487.14	16100.55
487.32	16404.81
487.50	16292.47
487.68	16460.99
487.85	16989.95
488.03	17022.72
488.21	17027.40
488.39	16851.86
488.57	17436.99
488.75	17371.46
488.92	17273.15
489.10	17671.04
489.28	17479.12
489.46	18017.44
489.64	17902.76
489.81	18345.12
489.99	18331.08
490.17	18113.41
490.35	18766.42
490.53	18408.31
490.70	18902.17
490.88	18841.31
491.06	18808.54
491.24	19037.92
491.41	19110.47
491.59	19147.92
491.77	19236.86
491.95	19625.39
492.13	19566.88
492.30	19756.46
492.48	19770.51
492.66	19981.15
492.84	19920.30
493.01	20369.68
493.19	20336.91
493.37	20423.51
493.54	20622.46
493.72	20779.28
493.90	20837.79
494.08	20982.90
494.25	21071.84
494.43	20959.50
494.61	21350.37
494.79	21380.79
494.96	21195.89
495.14	21621.87
495.32	21823.16
495.49	22080.61
495.67	21963.59
495.85	21975.29
496.02	22176.58
496.20	22305.31
496.38	22471.48
496.55	22328.71
496.73	22981.72
496.91	22597.87
497.09	23147.90
497.26	23241.52
497.44	22860.01
497.62	23094.07
497.79	23524.72
497.97	23328.12
498.14	23908.57
498.32	23847.72
498.50	23814.95
498.67	24390.72
498.85	24367.32
499.03	24093.47
499.20	24245.61
499.38	24376.68
499.56	24238.59
499.73	24355.61
499.91	25020.33
500.08	24690.31
500.26	24938.41
500.44	24704.35
500.61	25308.21
500.79	24947.77
500.97	25242.68
501.14	25532.90
501.32	25465.03
501.49	25458.01
501.67	25422.90
501.84	25685.04
502.02	25825.47
502.20	25748.23
502.37	25883.98
502.55	25642.91
502.72	26068.89
502.90	26036.12
503.07	26120.38
503.25	26181.23
503.43	26043.14
503.60	26160.17
503.78	26682.11
503.95	26707.85
504.13	27054.25
504.30	27098.72
504.48	27033.19
504.65	27178.30
504.83	27082.34
505.01	27171.28
505.18	27234.47
505.36	27505.98
505.53	27646.41
505.71	27620.66
505.88	27681.52
506.06	27826.63
506.23	28135.58
506.41	27475.55
506.58	27922.59
506.76	28201.11
506.93	28671.56
507.11	28383.68
507.28	28343.89
507.46	28245.58
507.63	28294.74
507.81	28781.57
507.98	28568.58
508.16	28613.05
508.33	28922.00
508.50	28685.61
508.68	29177.12
508.85	29266.06
509.03	29017.96
509.20	29434.58
509.38	29226.27
509.55	29486.07
509.73	29408.83
509.90	29434.58
510.08	29612.46
510.25	29436.92
510.42	29940.13
510.60	30125.04
510.77	30314.62
510.95	30354.41
511.12	30433.99
511.30	30000.99
511.47	30410.58
511.64	30319.30
511.82	30204.61
511.99	30267.81
512.17	30635.27
512.34	30693.79
512.51	31030.82
512.69	30778.04
512.86	31302.32
513.04	31098.70
513.21	30859.96
513.38	31005.08
513.56	31236.79
513.73	31009.76
513.90	31220.41
514.08	31428.71
514.25	31421.69
514.43	31798.52
514.60	31810.22
514.77	31299.98
514.95	32046.62
515.12	32158.96
515.29	32180.03
515.47	32332.16
515.64	32173.00
515.81	32051.30
515.99	32290.03
516.16	32673.88
516.33	32467.91
516.51	33031.98
516.68	32549.83
516.85	32631.75
517.03	32793.25
517.20	32884.53
517.37	32811.97
517.54	33202.84
517.72	32996.87
517.89	32957.08
518.06	33181.77
518.24	33151.35
518.41	33233.27
518.58	33064.75
518.75	32996.87
518.93	33619.46
519.10	33406.47
519.27	33649.88
519.45	33968.19
519.62	33986.92
519.79	33706.05
519.96	33895.64
520.14	34178.84
520.31	34267.78
520.48	34162.46
520.65	34429.28
520.83	34550.99
521.00	34478.43
521.17	34396.51
521.34	34621.20
521.52	34742.91
521.69	34637.59
521.86	34801.43
522.03	34710.14
522.20	35108.04
522.38	35299.96
522.55	35431.03
522.72	35218.04
522.89	34958.24
523.07	35754.02
523.24	35569.12
523.41	35735.30
523.58	35290.60
523.75	35747.00
523.92	35510.61
524.10	35639.34
524.27	35655.72
524.44	36180.00
524.61	36109.78
524.78	36318.09
524.96	36402.35
525.13	36250.22
525.30	35934.24
525.47	36467.89
525.64	36208.09
525.81	36613.00
525.98	36301.71
526.16	36261.92
526.33	36381.29
526.50	36477.25
526.67	36601.30
526.84	36748.75
527.01	37163.03
527.18	36926.63
527.36	37401.76
527.53	36961.74
527.70	37333.89
527.87	37350.27
528.04	37193.45
528.21	37471.98
528.38	37567.94
528.55	37488.36
528.72	37390.06
528.89	37368.99
529.07	37261.33
529.24	37060.04
529.41	37670.92
529.58	38064.13
529.75	37605.39
529.92	37914.34
530.09	38082.86
530.26	37474.32
530.43	38014.98
530.60	37956.47
530.77	37404.10
530.94	38347.34
531.11	37848.80
531.28	38340.32
531.46	38134.35
531.63	38436.28
531.80	38239.67
531.97	38756.93
532.14	38342.66
532.31	38176.48
532.48	38651.61
532.65	38806.08
532.82	38897.36
532.99	38974.60
533.16	38440.96
533.33	39239.08
533.50	39192.27
533.67	38939.49
533.84	39047.16
534.01	38983.96
534.18	39192.27
534.35	39697.83
534.52	39056.52
534.69	39377.17
534.86	40011.46
535.03	38965.24
535.20	39583.14
535.37	39718.89
535.54	39985.71
535.71	39838.26
535.88	39533.99
536.05	39775.06
536.22	40039.54
536.38	39924.86
536.55	39864.00
536.72	39709.53
536.89	39964.65
537.06	39775.06
537.23	40177.64
537.40	40079.33
537.57	39728.25
537.74	39746.98
537.91	40161.25
538.08	40362.54
538.25	40107.42
538.42	40830.65
538.59	40526.38
538.75	40367.22
538.92	40526.38
539.09	40999.16
539.26	40863.41
539.43	40432.75
539.60	41251.94
539.77	40526.38
539.94	40968.74
540.11	41500.04
540.28	41495.36
540.44	41191.09
540.61	41102.15
540.78	41167.68
540.95	40978.10
541.12	40999.16
541.29	41373.65
541.46	41333.86
541.62	41401.74
541.79	41773.88
541.96	41392.37
542.13	41116.19
542.30	41453.23
542.47	41453.23
542.63	41654.51
542.80	41734.09
542.97	41900.27
543.14	42185.82
543.31	42176.45
543.48	42026.66
543.64	42251.35
543.81	42206.88
543.98	42232.63
544.15	42150.71
544.32	42319.23
544.48	42536.90
544.65	42574.34
544.82	42265.39
544.99	42447.96
545.16	42602.43
545.32	42632.86
545.49	42948.83
545.66	42679.67
545.83	43047.13
546.00	42958.19
546.16	42642.22
546.33	42674.99
546.50	42782.65
546.67	42827.12
546.83	42623.50
547.00	42974.58
547.17	42792.01
547.34	42866.91
547.50	43529.28
547.67	43225.01
547.84	43323.32
548.00	43564.39
548.17	43650.99
548.34	43615.88
548.51	43524.60
548.67	43480.13
548.84	43639.29
549.01	43625.25
549.18	43304.59
549.34	43545.67
549.51	43800.79
549.68	43779.72
549.84	43515.24
550.01	43835.89
550.18	43852.28
550.34	43744.61
550.51	43828.87
550.68	44257.19
550.84	43948.24
551.01	44280.60
551.18	43440.34
551.34	43861.64
551.51	44083.99
551.68	44060.58
551.84	44191.65
552.01	44137.82
552.18	44430.39
552.34	44170.59
552.51	44435.07
552.68	43957.60
552.84	43955.26
553.01	44556.78
553.18	44168.25
553.34	44334.43
553.51	44360.17
553.67	44425.71
553.84	45085.74
554.01	45050.63
554.17	44758.06
554.34	44786.15
554.51	44903.18
554.67	44933.60
554.84	44811.90
555.00	44837.64
555.17	44938.29
555.33	45097.44
555.50	45085.74
555.67	45008.50
555.83	45202.77
556.00	45310.43
556.16	45820.67
556.33	44996.80
556.50	44804.88
556.66	45184.04
556.83	44804.88
556.99	45420.44
557.16	44980.42
557.32	45256.60
557.49	45666.19
557.65	44783.81
557.82	45202.77
557.98	45301.07
558.15	45181.70
558.32	45815.99
558.48	45270.64
558.65	45455.54
558.81	45595.98
558.98	45504.70
559.14	45460.23
559.31	45310.43
559.47	45607.68
559.64	45385.33
559.80	46176.43
559.97	46096.85
560.13	45649.81
560.30	45408.73
560.46	46307.50
560.63	46178.77
560.79	45916.63
560.96	45888.54
561.12	46150.68
561.29	45858.12
561.45	46012.59
561.61	45778.54
561.78	45734.07
561.94	46340.27
562.11	46157.70
562.27	46024.29
562.44	45841.73
562.60	45874.50
562.77	46122.60
562.93	45577.25
563.10	46485.38
563.26	45687.26
563.42	46536.87
563.59	45996.21
563.75	46195.15
563.92	46101.53
564.08	46204.52
564.24	46017.27
564.41	46281.75
564.57	46384.74
564.74	46319.20
564.90	46635.17
565.07	46387.08
565.23	45780.88
565.39	46403.46
565.56	46412.82
565.72	46415.16
565.88	46272.39
566.05	46309.84
566.21	46167.07
566.38	46295.80
566.54	46398.78
566.70	46838.80
566.87	46710.07
567.03	46298.14
567.19	46408.14
567.36	46686.67
567.52	46438.57
567.68	47250.74
567.85	46864.55
568.01	46775.61
568.17	46703.05
568.34	46445.59
568.50	46796.67
568.66	46586.02
568.83	46752.20
568.99	46674.96
569.15	46794.33
569.32	46794.33
569.48	46522.83
569.64	47061.15
569.81	47047.11
569.97	47079.88
570.13	46988.60
570.30	46064.08
570.46	46911.36
570.62	46681.98
570.78	46939.44
570.95	46972.21
571.11	47428.62
571.27	46616.45
571.43	46728.80
571.60	46799.01
571.76	46686.67
571.92	46960.51
572.09	46782.63
572.25	47079.88
572.41	46651.56
572.57	47299.89
572.74	47072.85
572.90	46829.44
573.06	47386.49
573.22	47395.85
573.38	47290.52
573.55	47129.03
573.71	47735.23
573.87	47232.01
574.03	47473.09
574.20	47290.52
574.36	47330.31
574.52	47622.88
574.68	47388.83
574.84	47393.51
575.01	47475.43
575.17	47559.69
575.33	47157.11
575.49	47012.00
575.65	47093.92
575.82	47386.49
575.98	46939.44
576.14	47622.88
576.30	47430.96
576.46	47112.64
576.62	47019.02
576.79	47428.62
576.95	47012.00
577.11	47093.92
577.27	47538.62
577.43	47239.03
577.59	47529.26
577.75	47543.30
577.92	47182.86
578.08	47388.83
578.24	47363.08
578.40	47370.10
578.56	47775.02
578.72	47381.80
578.88	47634.58
579.04	47313.93
579.21	47098.60
579.37	47463.72
579.53	48006.73
579.69	46838.80
579.85	47285.84
580.01	47615.86
580.17	47337.33
580.33	47789.06
580.49	47531.60
580.65	47564.37
580.82	47072.85
580.98	47213.29
581.14	47409.89
581.30	47374.78
581.46	47304.57
581.62	47049.45
581.78	47215.63
581.94	47709.48
582.10	47318.61
582.26	47643.94
582.42	47863.96
582.58	47426.28
582.74	47714.16
582.90	47454.36
583.06	48079.28
583.22	47253.08
583.38	47955.24
583.54	47665.01
583.70	47576.07
583.86	47536.28
584.02	47618.20
584.18	47791.40
584.34	48011.41
584.50	48371.85
584.66	47746.93
584.82	47599.47
584.98	47847.57
585.14	48208.01
585.30	47679.05
585.46	47370.10
585.62	47573.73
585.78	47973.96
585.94	47236.69
586.10	47903.74
586.26	47576.07
586.42	47196.90
586.58	47814.80
586.74	47889.70
586.90	47466.06
587.06	47395.85
587.22	47765.65
587.38	47555.00
587.54	47775.02
587.70	48292.27
587.86	47941.19
588.02	47723.52
588.18	47742.25
588.34	47709.48
588.49	47468.40
588.65	47770.33
588.81	47760.97
588.97	48037.16
589.13	47288.18
589.29	47501.17
589.45	47929.49
589.61	48116.73
589.77	48156.52
589.93	47875.66
590.08	47665.01
590.24	48044.18
590.40	48397.60
590.56	48549.73
590.72	47973.96
590.88	48257.17
591.04	47620.54
591.20	48196.31
591.35	48451.43
591.51	48275.89
591.67	48137.80
591.83	48481.86
591.99	48240.78
592.15	48046.52
592.31	48161.20
592.46	48254.82
592.62	48355.47
592.78	48479.52
592.94	48580.16
593.10	48435.05
593.26	48470.15
593.41	48233.76
593.57	47880.34
593.73	48413.98
593.89	48430.36
594.05	48641.01
594.20	48325.04
594.36	48818.89
594.52	48306.32
594.68	48493.56
594.84	48266.53
594.99	48779.10
595.15	48381.21
595.31	48418.66
595.47	48566.12
595.62	48406.96
595.78	48470.15
595.94	48472.49
596.10	48037.16
596.25	48652.72
596.41	48648.03
596.57	48591.86
596.73	48437.39
596.88	48170.57
597.04	48596.54
597.20	48463.13
597.36	48685.48
597.51	48570.80
597.67	48100.35
597.83	48481.86
597.99	48849.32
598.14	48053.54
598.30	48533.35
598.46	48687.82
598.61	48865.70
598.77	48432.71
598.93	48643.35
599.09	48318.02
599.24	48683.14
599.40	48542.71
599.56	48734.63
599.71	48715.91
599.87	49254.23
600.03	48615.27
600.18	48458.45
600.34	48477.18
600.50	48622.29
600.65	48133.12
600.81	48800.17
600.97	48676.12
601.12	48465.47
601.28	48523.99
601.44	48591.86
601.59	48369.51
601.75	48446.75
601.91	48390.58
602.06	48858.68
602.22	48921.88
602.37	48671.44
602.53	48945.28
602.69	48449.09
602.84	48465.47
603.00	48538.03
603.16	48486.54
603.31	48783.79
603.47	48928.90
603.62	48273.55
603.78	48713.57
603.94	48715.91
604.09	48411.64
604.25	48463.13
604.40	48704.21
604.56	48470.15
604.71	48428.02
604.87	48535.69
605.03	48479.52
605.18	48308.66
605.34	48580.16
605.49	48350.79
605.65	48760.38
605.80	48282.91
605.96	48341.42
606.12	48353.13
606.27	48722.93
606.43	48463.13
606.58	48633.99
606.74	48243.12
606.89	48500.58
607.05	48825.92
607.20	48437.39
607.36	48172.91
607.51	48259.51
607.67	48446.75
607.82	48224.40
607.98	48200.99
608.13	48437.39
608.29	47936.51
608.44	48545.05
608.60	47814.80
608.75	48341.42
608.91	47992.68
609.06	48264.19
609.22	48385.89
609.37	47969.28
609.53	48383.55
609.68	48451.43
609.84	48053.54
609.99	48479.52
610.15	48453.77
610.30	48161.20
610.46	48315.68
610.61	48509.94
610.76	48528.67
610.92	47894.38
611.07	48025.45
611.23	48526.33
611.38	48147.16
611.54	48374.19
611.69	48165.88
611.84	48222.06
612.00	47927.15
612.15	47863.96
612.31	47978.64
612.46	47725.86
612.62	47810.12
612.77	48133.12
612.92	48172.91
613.08	48011.41
613.23	47739.91
613.39	48102.69
613.54	47524.58
613.69	48177.59
613.85	48044.18
614.00	48030.13
614.15	47957.58
614.31	47964.60
614.46	47772.67
614.62	48004.39
614.77	47484.79
614.92	47763.31
615.08	47491.81
615.23	47784.38
615.38	47885.02
615.54	47796.08
615.69	47880.34
615.84	47716.50
616.00	47931.83
616.15	47964.60
616.30	47611.18
616.46	47789.06
616.61	47807.78
616.76	47999.71
616.92	47522.24
617.07	47889.70
617.22	47636.92
617.37	47241.37
617.53	47402.87
617.68	47419.25
617.83	47105.62
617.99	47501.17
618.14	47409.89
618.29	47372.44
618.45	47402.87
618.60	47508.19
618.75	47194.56
618.90	47379.46
619.06	46841.14
619.21	47318.61
619.36	47679.05
619.51	47192.22
619.67	47241.37
619.82	47196.90
619.97	47611.18
620.12	47327.97
620.28	47246.05
620.43	47625.22
620.58	47419.25
620.73	46939.44
620.89	47758.63
621.04	47559.69
621.19	47178.18
621.34	47519.90
621.49	46887.95
621.65	47236.69
621.80	47342.02
621.95	47133.71
622.10	47414.57
622.25	46820.08
622.41	46876.25
622.56	46705.39
622.71	47274.14
622.86	46960.51
623.01	47222.65
623.16	46876.25
623.32	46754.54
623.47	47107.96
623.62	47133.71
623.77	46822.42
623.92	46686.67
624.07	47267.12
624.23	47110.30
624.38	47084.56
624.53	47058.81
624.68	46501.76
624.83	46527.51
624.98	46770.93
625.13	46171.75
625.29	46401.12
625.44	46712.41
625.59	46286.43
625.74	46562.62
625.89	46153.02
626.04	46047.70
626.19	46532.19
626.34	46672.62
626.49	45991.53
626.65	46050.04
626.80	45954.08
626.95	46232.60
627.10	46234.94
627.25	46007.91
627.40	46108.55
627.55	46190.47
627.70	45975.14
627.85	46396.44
628.00	46263.03
628.15	45940.04
628.30	45593.64
628.45	45972.80
628.60	45626.40
628.76	45815.99
628.91	46153.02
629.06	45598.32
629.21	45680.24
629.36	45731.73
629.51	45848.75
629.66	46248.99
629.81	45904.93
629.96	46146.00
630.11	45766.84
630.26	45387.67
630.41	45935.35
630.56	45280.00
630.71	45420.44
630.86	45251.92
631.01	45511.72
631.16	45560.87
631.31	45656.83
631.46	45340.86
631.61	45815.99
631.76	45525.76
631.91	45823.01
632.06	45612.36
632.21	46169.41
632.36	45715.34
632.51	45254.26
632.66	45467.25
632.81	45289.37
632.96	45724.71
633.10	45172.34
633.25	45336.18
633.40	45385.33
633.55	45600.66
633.70	45167.66
633.85	45289.37
634.00	44889.13
634.15	44793.17
634.30	45062.33
634.45	44835.30
634.60	44793.17
634.75	45586.61
634.90	44865.73
635.05	45172.34
635.19	44832.96
635.34	45095.10
635.49	45247.24
635.64	45247.24
635.79	45387.67
635.94	45081.06
636.09	44694.87
636.24	44521.67
636.39	44907.86
636.53	45013.18
636.68	44648.06
636.83	44662.10
636.98	44683.17
637.13	44222.08
637.28	44364.85
637.43	44898.50
637.57	44879.77
637.72	44626.99
637.87	44430.39
638.02	44713.59
638.17	44336.77
638.32	44130.80
638.46	44184.63
638.61	44418.69
638.76	44315.70
638.91	44074.63
639.06	44201.02
639.20	44039.52
639.35	43732.91
639.50	44308.68
639.65	44355.49
639.80	44477.20
639.94	44573.16
640.09	44521.67
640.24	44224.42
640.39	44037.18
640.54	43599.50
640.68	44016.11
640.83	44442.09
640.98	43732.91
641.13	43622.90
641.27	44095.69
641.42	44072.29
641.57	43957.60
641.72	43681.42
641.86	43849.94
642.01	43702.48
642.16	43711.84
642.31	43255.44
642.45	43761.00
642.60	43365.45
642.75	43716.53
642.90	43505.88
643.04	43700.14
643.19	43360.76
643.34	43285.87
643.48	43381.83
643.63	43519.92
643.78	43674.40
643.93	43578.43
644.07	43536.30
644.22	43384.17
644.37	43360.76
644.51	43604.18
644.66	43445.02
644.81	43871.00
644.95	43665.03
645.10	43814.83
645.25	43274.16
645.39	43028.41
645.54	43264.80
645.69	42799.04
645.83	42852.87
645.98	43105.65
646.13	42724.14
646.27	43040.11
646.42	42642.22
646.57	43295.23
646.71	43042.45
646.86	43337.36
647.00	43203.95
647.15	42848.19
647.30	43122.03
647.44	42986.28
647.59	42899.68
647.74	43042.45
647.88	43012.02
648.03	43213.31
648.17	43222.67
648.32	43215.65
648.47	43433.32
648.61	42646.90
648.76	42934.79
648.90	42852.87
649.05	42960.53
649.20	42347.31
649.34	42637.54
649.49	42838.83
649.63	42597.75
649.78	42967.55
649.92	42604.77
650.07	43208.63
650.21	42946.49
650.36	42923.08
650.51	42658.60
650.65	42885.64
650.80	42656.26
650.94	42902.02
651.09	42780.31
651.23	41993.89
651.38	42286.46
651.52	41759.84
651.67	42806.06
651.81	42625.84
651.96	41979.85
652.10	41961.12
652.25	41918.99
652.39	42284.12
652.54	41888.57
652.68	42220.92
652.83	42080.49
652.97	42134.32
653.12	42183.48
653.26	41811.33
653.41	42284.12
653.55	42019.64
653.70	42078.15
653.84	42087.51
653.99	42038.36
654.13	42101.56
654.27	41991.55
654.42	42288.80
654.56	41624.09
654.71	41860.48
654.85	41703.67
655.00	42246.67
655.14	41647.49
655.29	41918.99
655.43	42279.44
655.57	41624.09
655.72	41830.05
655.86	41467.27
656.01	41401.74
656.15	41666.22
656.30	41160.66
656.44	41436.84
656.58	41713.03
656.73	41603.02
656.87	41071.72
657.01	41008.53
657.16	41474.29
657.30	41347.90
657.45	41361.95
657.59	41317.48
657.73	41003.85
657.88	41242.58
658.02	41111.51
658.16	41069.38
658.31	41277.69
658.45	41263.64
658.60	40694.89
658.74	40622.34
658.88	41043.63
659.03	40896.18
659.17	40673.83
659.31	40769.79
659.46	40624.68
659.60	40659.79
659.74	40442.12
659.89	40624.68
660.03	39964.65
660.17	40655.11
660.32	40009.12
660.46	40470.20
660.60	39835.92
660.74	40285.30
660.89	40250.19
661.03	39604.20
661.17	39838.26
661.32	40416.37
661.46	39786.77
661.60	40009.12
661.74	39927.20
661.89	40121.46
662.03	39519.95
662.17	39966.99
662.31	39503.56
662.46	39721.23
662.60	39772.72
662.74	39805.49
662.88	39606.55
663.03	39225.04
663.17	39215.68
663.31	39248.44
663.45	39641.65
663.60	39473.13
663.74	39058.86
663.88	39098.65
664.02	39225.04
664.17	39051.84
664.31	39641.65
664.45	39058.86
664.59	39208.65
664.73	38834.17
664.88	38934.81
665.02	38677.35
665.16	38937.15
665.30	38820.13
665.44	38773.31
665.59	38270.10
665.73	38529.90
665.87	38068.81
666.01	38426.92
666.15	38499.47
666.29	38080.52
666.44	38740.55
666.58	38073.49
666.72	37839.44
666.86	38314.57
667.00	37818.38
667.14	37797.31
667.28	37769.22
667.43	37947.11
667.57	38249.03
667.71	37750.50
667.85	37993.92
667.99	37703.69
668.13	37457.93
668.27	37289.42
668.41	37841.78
668.56	37120.90
668.70	36531.08
668.84	37006.21
668.98	37352.61
669.12	37397.08
669.26	37106.85
669.40	37219.20
669.54	36996.85
669.68	36978.12
669.82	37202.82
669.96	36531.08
670.10	36439.80
670.25	36528.74
670.39	36744.07
670.53	36526.40
670.67	36561.51
670.81	36524.06
670.95	36706.62
671.09	36013.82
671.23	36147.23
671.37	36257.24
671.51	36126.17
671.65	36163.62
671.79	36048.93
671.93	36151.91
672.07	35798.49
672.21	35917.86
672.35	35531.67
672.49	35845.30
672.63	35431.03
672.77	35388.90
672.91	35519.97
673.05	35030.80
673.19	34909.09
673.33	34934.84
673.47	35253.15
673.61	34653.97
673.75	34979.31
673.89	34778.02
674.03	34600.14
674.17	34141.39
674.31	34469.07
674.45	34352.04
674.59	34370.77
674.73	34253.74
674.87	34136.71
675.01	33738.82
675.15	33998.62
675.29	33668.61
675.43	33773.93
675.56	33970.54
675.70	33968.19
675.84	33366.68
675.98	32758.14
676.12	33345.61
676.26	33844.15
676.40	33254.33
676.54	32718.35
676.68	32737.07
676.82	32332.16
676.96	33088.15
677.10	32826.01
677.23	32858.78
677.37	32622.39
677.51	32369.61
677.65	32669.20
677.79	32350.88
677.93	32350.88
678.07	32198.75
678.21	32011.51
678.34	31758.73
678.48	31784.48
678.62	31428.71
678.76	31527.02
678.90	31557.44
679.04	31538.72
679.18	31484.89
679.31	31367.86
679.45	31440.42
679.59	31171.25
679.73	31215.72
679.87	30340.36
680.00	30735.92
680.14	30602.50
680.28	30705.49
680.42	31047.21
680.56	30326.32
680.70	30263.13
680.83	30291.21
680.97	30080.56
681.11	30008.01
681.25	29591.39
681.39	29614.80
681.52	29792.68
681.66	29656.93
681.80	29041.37
681.94	28952.43
682.07	29102.22
682.21	28957.11
682.35	28788.59
682.49	28924.34
682.62	28701.99
682.76	28875.19
682.90	28772.21
683.04	28271.33
683.17	28491.34
683.31	28208.14
683.45	28203.46
683.59	28350.91
683.72	27765.78
683.86	28116.86
684.00	28046.64
684.13	28077.07
684.27	27304.69
684.41	27630.02
684.55	27845.35
684.68	27531.72
684.82	27145.53
684.96	27077.66
685.09	27171.28
685.23	27505.98
685.37	27601.94
685.50	27241.50
685.64	26948.93
685.78	26740.62
685.91	26485.50
686.05	26384.86
686.19	25507.16
686.32	26487.84
686.46	25851.22
686.60	25996.33
686.73	26050.16
686.87	26192.94
687.01	25647.59
687.14	25926.11
687.28	25790.36
687.42	25303.53
687.55	25387.79
687.69	25469.71
687.82	25055.43
687.96	25099.90
688.10	24952.45
688.23	25132.67
688.37	25060.12
688.50	25057.78
688.64	24812.02
688.78	24554.56
688.91	24540.52
689.05	24608.39
689.18	24037.30
689.32	24100.50
689.46	24044.32
689.59	23896.87
689.73	24245.61
689.86	24580.31
690.00	23817.29
690.13	23948.36
690.27	23503.66
690.41	23571.54
690.54	23494.30
690.68	23400.68
690.81	23187.69
690.95	23110.45
691.08	22698.52
691.22	22640.00
691.35	22780.43
691.49	22686.81
691.62	22888.10
691.76	22515.95
691.89	22225.73
692.03	22396.59
692.16	22024.44
692.30	22097.00
692.43	21902.73
692.57	22045.51
692.70	21898.05
692.84	21720.17
692.97	21577.40
693.11	21408.88
693.24	21371.43
693.38	21202.91
693.51	21434.63
693.65	21329.30
693.78	20987.58
693.92	20716.08
694.05	20992.26
694.19	20877.58
694.32	21001.63
694.45	20959.50
694.59	20903.32
694.72	20734.81
694.86	20355.64
694.99	20297.13
695.13	20205.84
695.26	20105.20
695.39	19845.40
695.53	19875.83
695.66	20074.77
695.80	19653.48
695.93	19829.02
696.07	19552.84
696.20	19213.46
696.33	18993.45
696.47	19033.24
696.60	19129.20
696.73	19183.03
696.87	19157.28
697.00	19445.17
697.14	19124.52
697.27	18895.14
697.40	18492.57
697.54	18733.65
697.67	18775.78
697.80	18836.63
697.94	18583.85
698.07	18087.66
698.21	17869.99
698.34	18375.55
698.47	18068.94
698.61	17530.61
698.74	17715.51
698.87	17994.04
699.01	17898.08
699.14	17453.37
699.27	17418.27
699.40	17383.16
699.54	17252.09
699.67	17263.79
699.80	17224.00
699.94	16924.41
700.07	17326.99
700.20	16893.99
700.34	16826.11
700.47	16908.03
700.60	17167.83
700.73	16624.83
700.87	16783.98
701.00	16201.19
701.13	16009.26
701.26	16449.28
701.40	16404.81
701.53	16236.30
701.66	16205.87
701.79	16065.44
701.93	15800.96
702.06	15506.05
702.19	15714.36
702.32	15852.45
702.46	15625.42
702.59	15646.48
702.72	15723.72
702.85	15810.32
702.99	15473.28
703.12	15374.98
703.25	15276.68
703.38	14895.17
703.51	15176.03
703.65	15033.26
703.78	14618.99
703.91	14696.22
704.04	14721.97
704.17	14494.94
704.31	14705.59
704.44	14579.20
704.57	14410.68
704.70	14408.34
704.83	14317.06
704.96	14310.04
705.10	14073.64
705.23	13982.36
>>>>>End Processed Spectral Data<<<<<
