SpectraSuite Data File
++++++++++++++++++++++++++++++++++++
Date: Fri Oct 25 11:34:35 EDT 2013
User: price-jones
Dark Spectrum Present: No
Reference Spectrum Present: No
Number of Sampled Component Spectra: 1
Spectrometers: USB2+H05261
Integration Time (usec): 100000 (USB2+H05261)
Spectra Averaged: 1 (USB2+H05261)
Boxcar Smoothing: 0 (USB2+H05261)
Correct for Electrical Dark: No (USB2+H05261)
Strobe/Lamp Enabled: No (USB2+H05261)
Correct for Detector Non-linearity: No (USB2+H05261)
Correct for Stray Light: No (USB2+H05261)
Number of Pixels in Processed Spectrum: 2048
>>>>>Begin Processed Spectral Data<<<<<
365.73	318.31
365.92	318.31
366.12	318.31
366.32	208.31
366.52	168.52
366.72	198.95
366.91	168.52
367.11	187.24
367.31	133.41
367.51	170.86
367.70	173.20
367.90	217.67
368.10	182.56
368.30	212.99
368.49	145.11
368.69	168.52
368.89	156.82
369.09	98.30
369.28	271.50
369.48	194.26
369.68	280.86
369.87	224.69
370.07	182.56
370.27	311.29
370.47	376.83
370.66	470.45
370.86	477.47
371.06	519.60
371.25	568.75
371.45	500.87
371.65	575.77
371.84	524.28
372.04	540.66
372.24	573.43
372.44	603.86
372.63	575.77
372.83	634.29
373.03	561.73
373.22	603.86
373.42	603.86
373.62	641.31
373.81	578.11
374.01	669.39
374.21	615.56
374.40	615.56
374.60	603.86
374.79	603.86
374.99	653.01
375.19	688.12
375.38	702.16
375.58	688.12
375.78	578.11
375.97	681.10
376.17	704.50
376.37	678.76
376.56	653.01
376.76	610.88
376.95	657.69
377.15	737.27
377.35	662.37
377.54	695.14
377.74	575.77
377.93	690.46
378.13	697.48
378.33	683.44
378.52	662.37
378.72	725.57
378.91	697.48
379.11	713.86
379.31	739.61
379.50	683.44
379.70	746.63
379.89	753.65
380.09	716.20
380.28	688.12
380.48	800.46
380.68	753.65
380.87	664.71
381.07	814.51
381.26	685.78
381.46	681.10
381.65	720.88
381.85	767.70
382.04	732.59
382.24	674.07
382.43	765.36
382.63	816.85
382.83	774.72
383.02	702.16
383.22	809.83
383.41	748.97
383.61	786.42
383.80	858.98
384.00	835.57
384.19	784.08
384.39	737.27
384.58	877.70
384.78	828.55
384.97	739.61
385.17	833.23
385.36	828.55
385.56	833.23
385.75	758.33
385.95	840.25
386.14	819.19
386.34	795.78
386.53	798.12
386.72	744.29
386.92	772.38
387.11	854.30
387.31	833.23
387.50	840.25
387.70	854.30
387.89	912.81
388.09	856.64
388.28	802.80
388.48	777.06
388.67	854.30
388.86	887.06
389.06	882.38
389.25	777.06
389.45	968.98
389.64	961.96
389.84	994.73
390.03	915.15
390.22	950.26
390.42	961.96
390.61	952.60
390.81	947.92
391.00	994.73
391.19	1060.26
391.39	954.94
391.58	933.87
391.78	983.02
391.97	915.15
392.16	999.41
392.36	1067.28
392.55	1011.11
392.75	999.41
392.94	1004.09
393.13	973.66
393.33	997.07
393.52	1109.41
393.71	1076.65
393.91	1057.92
394.10	1071.97
394.29	1074.31
394.49	1067.28
394.68	1156.22
394.88	1053.24
395.07	1170.27
395.26	1060.26
395.46	1071.97
395.65	1121.12
395.84	1132.82
396.04	1205.38
396.23	1186.65
396.42	1132.82
396.62	1128.14
396.81	1179.63
397.00	1235.80
397.19	1303.68
397.39	1160.91
397.58	1172.61
397.77	1181.97
397.97	1259.21
398.16	1277.93
398.35	1266.23
398.55	1149.20
398.74	1221.76
398.93	1266.23
399.12	1242.82
399.32	1275.59
399.51	1249.85
399.70	1306.02
399.90	1277.93
400.09	1394.96
400.28	1383.26
400.47	1334.11
400.67	1287.29
400.86	1373.89
401.05	1427.73
401.24	1404.32
401.44	1427.73
401.63	1425.39
401.82	1394.96
402.01	1437.09
402.21	1401.98
402.40	1453.47
402.59	1451.13
402.78	1481.56
402.97	1425.39
403.17	1404.32
403.36	1432.41
403.55	1462.83
403.74	1528.37
403.93	1514.33
404.13	1530.71
404.32	1554.12
404.51	1598.59
404.70	1586.88
404.89	1579.86
405.09	1612.63
405.28	1640.72
405.47	1689.87
405.66	1612.63
405.85	1661.78
406.05	1626.67
406.24	1589.22
406.43	1659.44
406.62	1694.55
406.81	1746.04
407.00	1696.89
407.20	1708.59
407.39	1694.55
407.58	1760.08
407.77	1797.53
407.96	1753.06
408.15	1820.94
408.34	1804.55
408.54	1736.68
408.73	1926.26
408.92	1762.42
409.11	1937.96
409.30	1884.13
409.49	1916.90
409.68	1914.56
409.87	1975.41
410.07	1989.46
410.26	2040.95
410.45	1872.43
410.64	1996.48
410.83	1991.80
411.02	1961.37
411.21	2038.61
411.40	2022.22
411.59	2111.16
411.78	2167.34
411.98	2139.25
412.17	2176.70
412.36	2284.36
412.55	2160.31
412.74	2200.10
412.93	2251.60
413.12	2148.61
413.31	2267.98
413.50	2335.85
413.69	2349.90
413.88	2317.13
414.07	2420.11
414.26	2476.29
414.45	2450.54
414.64	2361.60
414.83	2370.96
415.02	2385.01
415.22	2424.80
415.41	2525.44
415.60	2569.91
415.79	2537.14
415.98	2525.44
416.17	2654.17
416.36	2750.13
416.55	2651.83
416.74	2729.06
416.93	2708.00
417.12	2661.19
417.31	2715.02
417.50	2640.12
417.69	2881.20
417.88	2780.56
418.07	2855.45
418.26	2892.90
418.45	2862.48
418.64	3009.93
418.83	2986.52
419.02	2918.65
419.21	2822.69
419.39	3012.27
419.58	3068.44
419.77	2920.99
419.96	3126.96
420.15	3016.95
420.34	2944.39
420.53	3007.59
420.72	3180.79
420.91	3131.64
421.10	3150.36
421.29	3138.66
421.48	3059.08
421.67	3225.26
421.86	3019.29
422.05	3038.02
422.24	3164.40
422.43	3152.70
422.61	3197.17
422.80	3332.92
422.99	3253.34
423.18	3272.07
423.37	3456.97
423.56	3281.43
423.75	3424.20
423.94	3260.37
424.13	2998.23
424.32	3342.28
424.50	3461.65
424.69	3332.92
424.88	3323.56
425.07	3253.34
425.26	3300.16
425.45	3356.33
425.64	3339.94
425.83	3323.56
426.01	3265.05
426.20	3323.56
426.39	3311.86
426.58	3251.00
426.77	3297.81
426.96	3353.99
427.15	3487.40
427.33	3522.51
427.52	3412.50
427.71	3496.76
427.90	3524.85
428.09	3508.46
428.28	3513.14
428.46	3482.72
428.65	3447.61
428.84	3538.89
429.03	3728.47
429.22	3578.68
429.40	3581.02
429.59	3641.87
429.78	3538.89
429.97	3501.44
430.16	3517.83
430.34	3854.86
430.53	3782.31
430.72	3698.05
430.91	3709.75
431.10	3655.92
431.28	3866.56
431.47	3794.01
431.66	3873.59
431.85	3763.58
432.03	3887.63
432.22	3892.31
432.41	3918.06
432.60	3918.06
432.79	3850.18
432.97	3927.42
433.16	3957.85
433.35	3901.67
433.54	3887.63
433.72	4070.19
433.91	3978.91
434.10	3960.19
434.28	4124.02
434.47	4032.74
434.66	4133.39
434.85	4147.43
435.03	4142.75
435.22	4231.69
435.41	4271.48
435.59	4278.50
435.78	4390.84
435.97	4390.84
436.16	4334.67
436.34	4299.56
436.53	4189.56
436.72	4329.99
436.90	4117.00
437.09	4269.14
437.28	4285.52
437.46	4367.44
437.65	4365.10
437.84	4402.55
438.02	4418.93
438.21	4456.38
438.40	4334.67
438.58	4461.06
438.77	4671.71
438.96	4627.24
439.14	4582.77
439.33	4837.89
439.52	4669.37
439.70	4681.07
439.89	4887.04
440.08	4812.14
440.26	4816.82
440.45	4702.14
440.63	4844.91
440.82	4919.81
441.01	4880.02
441.19	4917.47
441.38	5036.83
441.57	5029.81
441.75	5177.26
441.94	5144.50
442.12	5268.55
442.31	5186.63
442.50	5203.01
442.68	5036.83
442.87	5289.61
443.05	5172.58
443.24	5313.02
443.43	5167.90
443.61	5366.85
443.80	5528.35
443.98	5188.97
444.17	5050.88
444.35	5324.72
444.54	5329.40
444.73	5338.76
444.91	5427.70
445.10	5266.21
445.28	5380.89
445.47	5348.12
445.65	5432.38
445.84	5568.13
446.02	5465.15
446.21	5511.96
446.39	5551.75
446.58	5483.88
446.77	5413.66
446.95	5418.34
447.14	5504.94
447.32	5481.53
447.51	5444.09
447.69	5521.32
447.88	5439.40
448.06	5535.37
448.25	5458.13
448.43	5659.42
448.62	5612.60
448.80	5530.69
448.99	5561.11
449.17	5703.89
449.36	5504.94
449.54	5795.17
449.73	5823.25
449.91	5797.51
450.10	5636.01
450.28	5928.58
450.46	5724.95
450.65	5834.96
450.83	5907.51
451.02	5811.55
451.20	5998.79
451.39	5877.09
451.57	6064.33
451.76	5907.51
451.94	6181.35
452.13	5944.96
452.31	5933.26
452.49	5984.75
452.68	6174.33
452.86	6132.20
453.05	6139.23
453.23	6132.20
453.42	6104.12
453.60	6157.95
453.78	6026.88
453.97	6129.86
454.15	6087.73
454.34	6090.07
454.52	6312.42
454.70	6141.57
454.89	6267.95
455.07	6293.70
455.26	6375.62
455.44	6392.00
455.62	6413.07
455.81	6319.45
455.99	6457.54
456.17	6478.60
456.36	6548.82
456.54	6722.02
456.73	6469.24
456.91	6834.36
457.09	6679.89
457.28	6761.81
457.46	6546.48
457.64	6787.55
457.83	6452.86
458.01	6527.75
458.19	6789.89
458.38	6722.02
458.56	6927.99
458.74	6876.49
458.93	7012.24
459.11	7016.93
459.29	6754.79
459.48	6764.15
459.66	7012.24
459.84	6904.58
460.03	7185.44
460.21	7089.48
460.39	6974.80
460.57	7260.34
460.76	7194.81
460.94	7096.50
461.12	7279.07
461.31	7452.27
461.49	7005.22
461.67	7183.10
461.85	7396.09
462.04	7157.36
462.22	7653.55
462.40	7379.71
462.59	7316.51
462.77	7403.11
462.95	7391.41
463.13	7344.60
463.32	7520.14
463.50	7506.10
463.68	7433.54
463.86	7573.97
464.05	7522.48
464.23	7606.74
464.41	7590.36
464.59	7419.50
464.78	7789.30
464.96	7620.78
465.14	7445.24
465.32	7527.16
465.50	7845.48
465.69	7726.11
465.87	7693.34
466.05	7782.28
466.23	7852.50
466.41	7847.82
466.60	7957.82
466.78	7815.05
466.96	7920.37
467.14	7808.03
467.32	7698.02
467.51	8039.74
467.69	7829.09
467.87	8060.80
468.05	7864.20
468.23	8086.55
468.41	7974.21
468.60	8112.30
468.78	8098.25
468.96	8166.13
469.14	8294.86
469.32	8259.75
469.50	8023.36
469.69	8238.69
469.87	8372.10
470.05	8416.57
470.23	8287.84
470.41	8500.83
470.59	8367.42
470.77	8311.24
470.95	8603.81
471.14	8503.17
471.32	8341.67
471.50	8683.39
471.68	8491.46
471.86	8688.07
472.04	8730.20
472.22	8788.71
472.40	8709.13
472.58	8751.26
472.77	8959.57
472.95	8882.33
473.13	9296.61
473.31	9083.62
473.49	9069.58
473.67	8905.74
473.85	8933.82
474.03	9259.16
474.21	9441.72
474.39	9430.02
474.57	9277.88
474.75	9462.79
474.93	9579.81
475.12	9350.44
475.30	9572.79
475.48	9544.70
475.66	9891.10
475.84	9619.60
476.02	9729.61
476.20	9715.56
476.38	9778.76
476.56	9996.43
476.74	10061.96
476.92	9895.78
477.10	10090.05
477.28	10249.21
477.46	10092.39
477.64	10260.91
477.82	10494.96
478.00	10532.41
478.18	10619.01
478.36	10565.18
478.54	10717.31
478.72	10813.28
478.90	10789.87
479.08	11042.65
479.26	11180.74
479.44	11028.60
479.62	11276.70
479.80	11396.07
479.98	11459.26
480.16	11372.66
480.34	11520.12
480.52	11786.94
480.70	11721.40
480.88	11508.41
481.06	11709.70
481.24	11793.96
481.41	11793.96
481.59	12177.81
481.77	12173.13
481.95	12189.51
482.13	12517.18
482.31	12362.71
482.49	12791.03
482.67	12664.64
482.85	12851.88
483.03	12865.92
483.21	13004.02
483.39	13139.77
483.57	12896.35
483.74	13268.50
483.92	13415.95
484.10	13181.90
484.28	13736.60
484.46	13750.65
484.64	13874.70
484.82	13764.69
485.00	13951.93
485.18	14090.02
485.35	14193.01
485.53	14497.28
485.71	14326.42
485.89	14630.69
486.07	14398.98
486.25	14565.15
486.43	14860.06
486.61	14960.70
486.78	14956.02
486.96	14979.43
487.14	15314.13
487.32	15227.53
487.50	15501.37
487.68	15545.84
487.85	16107.57
488.03	15803.30
488.21	16210.55
488.39	15957.77
488.57	16248.00
488.75	16702.06
488.92	16463.33
489.10	16517.16
489.28	17067.19
489.46	17074.21
489.64	16861.22
489.81	17177.19
489.99	17504.87
490.17	17268.47
490.35	17053.14
490.53	17682.75
490.70	17951.91
490.88	17621.89
491.06	17921.48
491.24	18115.75
491.41	17902.76
491.59	18225.75
491.77	18288.95
491.95	18434.06
492.13	18333.42
492.30	18827.27
492.48	18733.65
492.66	18778.12
492.84	19084.73
493.01	19377.30
493.19	19363.25
493.37	19288.35
493.54	19438.15
493.72	19566.88
493.90	19414.74
494.08	19896.89
494.25	19733.06
494.43	19707.31
494.61	20149.67
494.79	20238.61
494.96	20093.50
495.14	20533.52
495.32	20627.14
495.49	20865.88
495.67	20542.88
495.85	21102.27
496.02	21200.57
496.20	21322.28
496.38	21539.95
496.55	21710.81
496.73	21841.88
496.91	21247.38
497.09	21664.00
497.26	22012.74
497.44	21874.65
497.62	21837.20
497.79	22146.15
497.97	22195.30
498.14	22546.38
498.32	22471.48
498.50	22700.86
498.67	22801.50
498.85	22848.31
499.03	23058.96
499.20	23028.53
499.38	23208.75
499.56	23005.13
499.73	23028.53
499.91	23131.51
500.08	23522.38
500.26	23126.83
500.44	23393.65
500.61	23637.07
500.79	23419.40
500.97	23838.36
501.14	24217.52
501.32	24128.58
501.49	23950.70
501.67	24095.82
501.84	24276.04
502.02	24240.93
502.20	24360.30
502.37	24404.77
502.55	24456.26
502.72	24699.67
502.90	24301.78
503.07	24634.14
503.25	24840.11
503.43	24975.86
503.60	25132.67
503.78	25053.09
503.95	24992.24
504.13	25053.09
504.30	25289.49
504.48	25439.28
504.65	25514.18
504.83	25757.60
505.01	25645.25
505.18	25586.74
505.36	25804.41
505.53	25689.72
505.71	25640.57
505.88	26026.76
506.06	25661.63
506.23	26309.96
506.41	26377.84
506.58	26242.09
506.76	26738.28
506.93	26728.92
507.11	26721.90
507.28	27065.96
507.46	26689.13
507.63	26455.08
507.81	26855.31
507.98	26843.60
508.16	27075.32
508.33	27267.24
508.50	26981.70
508.68	27351.50
508.85	27662.79
509.03	27501.29
509.20	27580.87
509.38	27580.87
509.55	27503.64
509.73	28067.70
509.90	27644.07
510.08	27957.70
510.25	27742.37
510.42	28034.94
510.60	28175.37
510.77	28268.99
510.95	28760.50
511.12	28294.74
511.30	28285.37
511.47	28545.17
511.64	28446.87
511.82	29015.62
511.99	28514.75
512.17	28907.96
512.34	28732.42
512.51	29209.89
512.69	29125.63
512.86	29207.55
513.04	29355.00
513.21	29362.02
513.38	29720.12
513.56	29769.27
513.73	29624.16
513.90	29839.49
514.08	29605.44
514.25	29972.90
514.43	29736.51
514.60	30036.09
514.77	29841.83
514.95	30204.61
515.12	30291.21
515.29	29989.28
515.47	30560.37
515.64	30525.27
515.81	30497.18
515.99	30930.18
516.16	30789.75
516.33	31051.89
516.51	30948.90
516.68	30618.89
516.85	30944.22
517.03	31068.27
517.20	30969.97
517.37	31323.39
517.54	31124.44
517.72	31288.28
517.89	31330.41
518.06	31494.25
518.24	31049.55
518.41	31555.10
518.58	31676.81
518.75	31489.57
518.93	32165.98
519.10	31747.03
519.27	32278.33
519.45	31936.61
519.62	31875.76
519.79	31688.51
519.96	32119.17
520.14	32299.39
520.31	32339.18
520.48	32545.15
520.65	32339.18
520.83	32603.66
521.00	32954.74
521.17	32610.68
521.34	32521.74
521.52	32978.15
521.69	32907.93
521.86	33123.26
522.03	33322.21
522.20	33216.88
522.38	33818.40
522.55	33345.61
522.72	32826.01
522.89	33312.84
523.07	33383.06
523.24	33303.48
523.41	33759.89
523.58	33347.95
523.75	33832.44
523.92	33605.41
524.10	33820.74
524.27	33979.90
524.44	33872.23
524.61	34253.74
524.78	34010.32
524.96	34377.79
525.13	34558.01
525.30	34462.05
525.47	34637.59
525.64	34368.43
525.81	34520.56
525.98	34536.94
526.16	34277.15
526.33	34506.52
526.50	34565.03
526.67	34864.62
526.84	34548.65
527.01	34712.49
527.18	34991.01
527.36	34962.92
527.53	35044.84
527.70	35306.98
527.87	34932.50
528.04	34941.86
528.21	35119.74
528.38	34749.93
528.55	35152.51
528.72	35580.82
528.89	35637.00
529.07	35157.19
529.24	35026.12
529.41	35196.98
529.58	35367.84
529.75	35847.64
529.92	35718.92
530.09	35562.10
530.26	36046.59
530.43	36084.04
530.60	35604.23
530.77	35590.19
530.94	35896.80
531.11	35959.99
531.28	35784.45
531.46	36100.42
531.63	35952.97
531.80	36575.55
531.97	36374.27
532.14	36484.27
532.31	36198.73
532.48	36734.71
532.65	36762.79
532.82	36407.03
532.99	36697.26
533.16	36367.24
533.33	36919.61
533.50	37116.22
533.67	36825.99
533.84	36631.72
534.01	36868.12
534.18	37003.87
534.35	37336.23
534.52	37158.34
534.69	37640.50
534.86	37600.71
535.03	36945.36
535.20	37670.92
535.37	37638.15
535.54	37486.02
535.71	37514.11
535.88	37495.38
536.05	37860.51
536.22	37881.57
536.38	37607.73
536.55	38038.39
536.72	37790.29
536.89	37703.69
537.06	37834.76
537.23	38040.73
537.40	37668.58
537.57	37832.42
537.74	38284.14
537.91	38295.85
538.08	37874.55
538.25	37591.34
538.42	38220.95
538.59	38417.55
538.75	38267.76
538.92	38239.67
539.09	38340.32
539.26	38485.43
539.43	38445.64
539.60	38672.67
539.77	38625.86
539.94	39210.99
540.11	38932.47
540.28	38700.76
540.44	38394.15
540.61	38857.57
540.78	38286.48
540.95	38972.26
541.12	38740.55
541.29	38995.67
541.46	39035.45
541.62	39126.74
541.79	39051.84
541.96	38644.59
542.13	38925.45
542.30	39339.72
542.47	38815.44
542.63	39377.17
542.80	39372.49
542.97	39892.09
543.14	39573.78
543.31	39412.28
543.48	39913.16
543.64	40182.32
543.81	39639.31
543.98	40016.14
544.15	39988.05
544.32	39409.94
544.48	40762.77
544.65	39929.54
544.82	40098.06
544.99	40130.83
545.16	40179.98
545.32	40109.76
545.49	40463.18
545.66	40765.11
545.83	40289.98
546.00	40367.22
546.16	40060.61
546.33	40634.04
546.50	39906.13
546.67	40547.44
546.83	40053.59
547.00	40634.04
547.17	40376.58
547.34	40617.66
547.50	40706.60
547.67	41359.61
547.84	40886.82
548.00	41020.23
548.17	41502.38
548.34	41312.80
548.51	41422.80
548.67	41359.61
548.84	41069.38
549.01	40657.45
549.18	41347.90
549.34	41443.87
549.51	41406.42
549.68	41525.78
549.84	41399.40
550.01	41310.46
550.18	41523.44
550.34	41366.63
550.51	41418.12
550.68	41713.03
550.84	41486.00
551.01	41897.93
551.18	41167.68
551.34	41464.93
551.51	41745.80
551.68	41635.79
551.84	41598.34
552.01	41729.41
552.18	41720.05
552.34	41691.96
552.51	42279.44
552.68	41741.11
552.84	41682.60
553.01	42223.26
553.18	42038.36
553.34	42309.86
553.51	41565.57
553.67	41839.42
553.84	42466.68
554.01	42017.30
554.17	42335.61
554.34	42057.09
554.51	42351.99
554.67	42628.18
554.84	42464.34
555.00	42501.79
555.17	42316.89
555.33	42454.98
555.50	41961.12
555.67	42492.43
555.83	42644.56
556.00	42784.99
556.16	43384.17
556.33	42667.97
556.50	42691.37
556.66	42885.64
556.83	42431.57
556.99	43072.88
557.16	43103.31
557.32	43234.38
557.49	43040.11
557.65	42754.57
557.82	42646.90
557.98	42939.47
558.15	42876.27
558.32	43730.57
558.48	42920.74
558.65	42831.80
558.81	43260.12
558.98	43210.97
559.14	42869.25
559.31	42887.98
559.47	43374.81
559.64	43330.34
559.80	43274.16
559.97	43283.53
560.13	43042.45
560.30	43281.19
560.46	43330.34
560.63	43318.64
560.79	43915.47
560.96	44100.37
561.12	43452.05
561.29	43150.12
561.45	43761.00
561.61	43810.15
561.78	43714.19
561.94	43592.48
562.11	43835.89
562.27	43545.67
562.44	43625.25
562.60	43978.67
562.77	43833.55
562.93	43643.97
563.10	43449.70
563.26	43138.41
563.42	44130.80
563.59	43873.34
563.75	43709.50
563.92	43962.28
564.08	43861.64
564.24	44076.97
564.41	43833.55
564.57	43761.00
564.74	44027.82
564.90	43814.83
565.07	43761.00
565.23	43491.83
565.39	43658.01
565.56	44430.39
565.72	44088.67
565.88	43955.26
566.05	44341.45
566.21	43779.72
566.38	44671.46
566.54	44336.77
566.70	44280.60
566.87	44034.84
567.03	43873.34
567.19	44247.83
567.36	44170.59
567.52	43863.98
567.68	44320.38
567.85	44425.71
568.01	44189.31
568.17	43667.37
568.34	44596.57
568.50	44353.15
568.66	44133.14
568.83	44446.77
568.99	44538.05
569.15	44285.28
569.32	44357.83
569.48	44570.82
569.64	44350.81
569.81	44247.83
569.97	44636.36
570.13	44589.55
570.30	44697.21
570.46	44418.69
570.62	44720.62
570.78	44460.82
570.95	44605.93
571.11	44842.32
571.27	44732.32
571.43	44119.10
571.60	44486.56
571.76	44385.92
571.92	44809.56
572.09	44449.11
572.25	44362.51
572.41	44542.74
572.57	44479.54
572.74	45216.81
572.90	44540.39
573.06	44900.84
573.22	44713.59
573.38	44973.39
573.55	44907.86
573.71	44891.48
573.87	44645.72
574.03	44725.30
574.20	44823.60
574.36	44626.99
574.52	44636.36
574.68	44451.45
574.84	44753.38
575.01	45181.70
575.17	44912.54
575.33	44624.65
575.49	44739.34
575.65	44634.02
575.82	45123.19
575.98	44273.57
576.14	44634.02
576.30	45247.24
576.46	44811.90
576.62	44821.26
576.79	44802.53
576.95	44732.32
577.11	44514.65
577.27	44795.51
577.43	45001.48
577.59	45148.93
577.75	44933.60
577.92	44685.51
578.08	44830.62
578.24	44708.91
578.40	45120.85
578.56	44947.65
578.72	44657.42
578.88	45277.66
579.04	44828.28
579.21	44781.47
579.37	45099.78
579.53	44781.47
579.69	44989.78
579.85	44687.85
580.01	45223.83
580.17	45174.68
580.33	45015.52
580.49	44554.44
580.65	45022.54
580.82	45097.44
580.98	44865.73
581.14	44608.27
581.30	44935.95
581.46	44470.18
581.62	44828.28
581.78	44847.00
581.94	45170.00
582.10	45038.93
582.26	45186.38
582.42	45165.32
582.58	44879.77
582.74	45155.96
582.90	45478.95
583.06	45064.67
583.22	44809.56
583.38	45467.25
583.54	45301.07
583.70	45022.54
583.86	44797.85
584.02	44931.26
584.18	45165.32
584.34	45272.98
584.50	45221.49
584.66	45698.96
584.82	45214.47
584.98	45485.97
585.14	45120.85
585.30	44952.33
585.46	45120.85
585.62	45401.71
585.78	45120.85
585.94	45099.78
586.10	45270.64
586.26	45221.49
586.42	45160.64
586.58	44966.37
586.74	44807.22
586.90	45352.56
587.06	45127.87
587.22	45544.48
587.38	45041.27
587.54	45397.03
587.70	45373.63
587.86	45769.18
588.02	45052.97
588.18	45268.30
588.34	45331.50
588.49	45345.54
588.65	45368.94
588.81	45429.80
588.97	45256.60
589.13	45069.36
589.29	45130.21
589.45	45478.95
589.61	45970.46
589.77	45532.78
589.93	45237.87
590.08	45741.09
590.24	45666.19
590.40	45759.81
590.56	45928.33
590.72	46010.25
590.88	45502.35
591.04	45528.10
591.20	45748.11
591.35	45970.46
591.51	45893.22
591.67	45698.96
591.83	45979.82
591.99	45514.06
592.15	45546.82
592.31	45806.62
592.46	45752.79
592.62	46033.66
592.78	45624.06
592.94	46155.36
593.10	45862.80
593.26	46040.68
593.41	45883.86
593.57	45635.77
593.73	46234.94
593.89	46436.23
594.05	46005.57
594.20	46061.74
594.36	46012.59
594.52	45954.08
594.68	45797.26
594.84	45977.48
594.99	45797.26
595.15	45577.25
595.31	46375.37
595.47	45937.69
595.62	45865.14
595.78	45769.18
595.94	46059.40
596.10	45888.54
596.25	45724.71
596.41	45944.72
596.57	45535.12
596.73	46366.01
596.88	45914.29
597.04	45832.37
597.20	46265.37
597.36	45937.69
597.51	45834.71
597.67	45865.14
597.83	45874.50
597.99	46155.36
598.14	45975.14
598.30	45666.19
598.46	45787.90
598.61	46433.89
598.77	45743.43
598.93	46473.68
599.09	46005.57
599.24	46284.09
599.40	46075.79
599.56	45764.49
599.71	46284.09
599.87	46279.41
600.03	45914.29
600.18	45904.93
600.34	46176.43
600.50	46005.57
600.65	45954.08
600.81	46340.27
600.97	46258.35
601.12	46569.64
601.28	46033.66
601.44	46052.38
601.59	45961.10
601.75	45834.71
601.91	46321.54
602.06	46127.28
602.22	46199.83
602.37	45715.34
602.53	46319.20
602.69	46351.97
602.84	45982.16
603.00	46094.51
603.16	45970.46
603.31	45954.08
603.47	46054.72
603.62	45848.75
603.78	46246.65
603.94	46089.83
604.09	46007.91
604.25	46003.23
604.40	45925.99
604.56	46120.26
604.71	46136.64
604.87	45703.64
605.03	46597.73
605.18	46216.22
605.34	46197.49
605.49	45935.35
605.65	46092.17
605.80	45591.30
605.96	45914.29
606.12	46504.10
606.27	46005.57
606.43	45895.56
606.58	46007.91
606.74	45771.52
606.89	46094.51
607.05	46000.89
607.20	45865.14
607.36	45911.95
607.51	45729.39
607.67	45603.00
607.82	45823.01
607.98	46089.83
608.13	45876.84
608.29	45818.33
608.44	45738.75
608.60	45918.97
608.75	45937.69
608.91	45720.02
609.06	45605.34
609.22	45813.65
609.37	45612.36
609.53	45832.37
609.68	45750.45
609.84	45448.52
609.99	45715.34
610.15	45720.02
610.30	45993.87
610.46	45844.07
610.61	45769.18
610.76	46120.26
610.92	45160.64
611.07	45539.80
611.23	45488.31
611.38	46014.93
611.54	45488.31
611.69	46326.22
611.84	45701.30
612.00	45420.44
612.15	45324.47
612.31	45500.01
612.46	45277.66
612.62	45647.47
612.77	45443.84
612.92	45808.96
613.08	45799.60
613.23	46115.58
613.39	45284.68
613.54	45160.64
613.69	45523.42
613.85	45380.65
614.00	45228.51
614.15	45535.12
614.31	44823.60
614.46	45081.06
614.62	45139.57
614.77	45310.43
614.92	45212.13
615.08	44994.46
615.23	45411.07
615.38	45584.27
615.54	45258.94
615.69	45436.82
615.84	45247.24
616.00	45556.19
616.15	45017.86
616.30	45088.08
616.46	45228.51
616.61	45282.34
616.76	45242.56
616.92	45059.99
617.07	44903.18
617.22	45244.90
617.37	45022.54
617.53	44886.79
617.68	45485.97
617.83	44779.13
617.99	45291.71
618.14	45495.33
618.29	45090.42
618.45	44896.16
618.60	44617.63
618.75	44760.40
618.90	44961.69
619.06	45022.54
619.21	45071.70
619.36	45029.57
619.51	44617.63
619.67	44498.26
619.82	44891.48
619.97	45261.28
620.12	44395.28
620.28	44692.53
620.43	45153.62
620.58	44954.67
620.73	44486.56
620.89	44807.22
621.04	45022.54
621.19	44629.34
621.34	44425.71
621.49	44872.75
621.65	44711.25
621.80	44687.85
621.95	44376.56
622.10	44676.15
622.25	44933.60
622.41	44458.48
622.56	44390.60
622.71	44458.48
622.86	44619.97
623.01	44617.63
623.16	44069.95
623.32	44240.81
623.47	44856.37
623.62	44287.62
623.77	44275.91
623.92	44219.74
624.07	44369.54
624.23	44456.14
624.38	44636.36
624.53	44339.11
624.68	43875.68
624.83	43934.20
624.98	43903.77
625.13	43545.67
625.29	43894.41
625.44	44378.90
625.59	43812.49
625.74	44067.61
625.89	43660.35
626.04	43786.74
626.19	43887.39
626.34	43702.48
626.49	43976.33
626.65	43257.78
626.80	43941.22
626.95	43217.99
627.10	43597.16
627.25	43952.92
627.40	43578.43
627.55	43751.63
627.70	43835.89
627.85	43920.15
628.00	44105.06
628.15	43313.95
628.30	43110.33
628.45	42955.85
628.60	43243.74
628.76	43154.80
628.91	43526.94
629.06	43306.93
629.21	43402.89
629.36	42976.92
629.51	43313.95
629.66	43648.65
629.81	43222.67
629.96	43672.06
630.11	43213.31
630.26	42726.48
630.41	43285.87
630.56	43302.25
630.71	43210.97
630.86	43236.72
631.01	43133.73
631.16	42630.52
631.31	42644.56
631.46	43021.39
631.61	42939.47
631.76	43187.56
631.91	43262.46
632.06	43070.54
632.21	43313.95
632.36	43145.44
632.51	42857.55
632.66	42871.59
632.81	42424.55
632.96	42447.96
633.10	42452.64
633.25	42557.96
633.40	42913.72
633.55	42555.62
633.70	42792.01
633.85	42532.22
634.00	42183.48
634.15	42443.27
634.30	42417.53
634.45	42260.71
634.60	42307.52
634.75	42754.57
634.90	42536.90
635.05	42806.06
635.19	42642.22
635.34	42366.04
635.49	42019.64
635.64	41930.70
635.79	42014.96
635.94	42794.36
636.09	42241.99
636.24	42150.71
636.39	42227.95
636.53	42462.00
636.68	41801.97
636.83	42000.91
636.98	41612.38
637.13	41989.21
637.28	41935.38
637.43	42101.56
637.57	42141.35
637.72	41881.55
637.87	41792.61
638.02	41888.57
638.17	42251.35
638.32	41668.56
638.46	41584.30
638.61	41654.51
638.76	41509.40
638.91	42047.72
639.06	41998.57
639.20	41427.48
639.35	41034.27
639.50	41621.75
639.65	41785.58
639.80	41502.38
639.94	41886.23
640.09	41488.34
640.24	41691.96
640.39	41420.46
640.54	41373.65
640.68	41343.22
640.83	41408.76
640.98	41375.99
641.13	41055.34
641.27	41694.30
641.42	41642.81
641.57	40959.38
641.72	41462.59
641.86	41303.43
642.01	41273.01
642.16	41237.90
642.31	40921.93
642.45	41198.11
642.60	41141.94
642.75	41345.56
642.90	41216.83
643.04	41041.29
643.19	40699.58
643.34	40589.57
643.48	41076.40
643.63	40734.68
643.78	40856.39
643.93	41102.15
644.07	41333.86
644.22	40905.54
644.37	40900.86
644.51	41251.94
644.66	41284.71
644.81	40882.14
644.95	40786.18
645.10	40573.19
645.25	40444.46
645.39	40662.13
645.54	40891.50
645.69	40280.62
645.83	40278.28
645.98	40533.40
646.13	40620.00
646.27	40624.68
646.42	40264.24
646.57	40753.41
646.71	40837.67
646.86	40547.44
647.00	40388.28
647.15	40737.02
647.30	40112.10
647.44	40645.74
647.59	40868.09
647.74	39976.35
647.88	40706.60
648.03	40341.47
648.17	40538.08
648.32	40521.69
648.47	40357.86
648.61	40357.86
648.76	40584.89
648.90	39955.29
649.05	40233.81
649.20	40514.67
649.34	39974.01
649.49	40397.65
649.63	40346.15
649.78	40060.61
649.92	39856.98
650.07	40500.63
650.21	40011.46
650.36	40594.25
650.51	39866.34
650.65	40154.23
650.80	39852.30
650.94	40187.00
651.09	39966.99
651.23	39487.18
651.38	39594.84
651.52	39482.50
651.67	40023.16
651.81	39599.52
651.96	39849.96
652.10	39283.55
652.25	39344.41
652.39	39442.71
652.54	39433.35
652.68	39641.65
652.83	39735.27
652.97	40053.59
653.12	39138.44
653.26	39007.37
653.41	39344.41
653.55	39517.60
653.70	39613.57
653.84	39868.69
653.99	39503.56
654.13	39636.97
654.27	39519.95
654.42	39388.88
654.56	38878.64
654.71	39269.51
654.85	38939.49
655.00	39213.34
655.14	39342.06
655.29	39704.85
655.43	39566.76
655.57	39192.27
655.72	38787.36
655.86	38707.78
656.01	39103.33
656.15	38689.06
656.30	38794.38
656.44	38834.17
656.58	39278.87
656.73	38555.64
656.87	38382.45
657.01	38616.50
657.16	38803.74
657.30	38696.08
657.45	38394.15
657.59	38824.81
657.73	38455.00
657.88	38754.59
658.02	39070.56
658.16	38981.62
658.31	38651.61
658.45	38611.82
658.60	38190.52
658.74	38368.40
658.88	38843.53
659.03	38433.94
659.17	38284.14
659.31	38108.60
659.46	37956.47
659.60	38387.13
659.74	38075.84
659.89	38132.01
660.03	37532.83
660.17	38277.12
660.32	38003.28
660.46	37830.08
660.60	37921.36
660.74	37921.36
660.89	37867.53
661.03	37567.94
661.17	37163.03
661.32	37446.23
661.46	37647.52
661.60	37507.08
661.74	37294.10
661.89	37502.40
662.03	37535.17
662.17	37422.83
662.31	37493.04
662.46	37703.69
662.60	37120.90
662.74	37120.90
662.88	36751.09
663.03	37188.77
663.17	36952.38
663.31	36573.21
663.45	36910.25
663.60	36907.91
663.74	37106.85
663.88	37060.04
664.02	36627.04
664.17	37167.71
664.31	36708.96
664.45	36357.88
664.59	36313.41
664.73	36772.16
664.88	36306.39
665.02	36072.34
665.16	36477.25
665.30	36428.10
665.44	36432.78
665.59	36334.48
665.73	35821.90
665.87	35952.97
666.01	36121.49
666.15	36088.72
666.29	35665.08
666.44	35737.64
666.58	35995.10
666.72	35660.40
666.86	35519.97
667.00	35707.21
667.14	35452.09
667.28	35625.29
667.43	35454.44
667.57	35885.09
667.71	35431.03
667.85	35709.55
667.99	35379.54
668.13	35126.76
668.27	35051.86
668.41	34902.07
668.56	34700.78
668.70	34433.96
668.84	34600.14
668.98	34663.33
669.12	34752.27
669.26	35047.18
669.40	34749.93
669.54	35227.40
669.68	34813.13
669.82	34731.21
669.96	34539.29
670.10	34022.03
670.25	34230.33
670.39	34068.84
670.53	34464.39
670.67	34007.98
670.81	34356.72
670.95	34312.25
671.09	33827.76
671.23	33460.30
671.37	33933.09
671.51	33689.67
671.65	33614.77
671.79	33596.05
671.93	33663.93
672.07	33656.90
672.21	34080.54
672.35	33481.36
672.49	33469.66
672.63	33315.19
672.77	33167.73
672.91	33699.03
673.05	32973.47
673.19	32690.26
673.33	32954.74
673.47	32905.59
673.61	32575.58
673.75	32547.49
673.89	32444.51
674.03	32437.48
674.17	32222.16
674.31	32222.16
674.45	31861.71
674.59	31948.31
674.73	32507.70
674.87	31658.09
675.01	31805.54
675.15	31538.72
675.29	31393.61
675.43	31704.90
675.56	31798.52
675.70	31625.32
675.84	31398.29
675.98	30668.04
676.12	31559.78
676.26	31435.74
676.40	31087.00
676.54	31215.72
676.68	31157.21
676.82	30228.02
676.96	30717.19
677.10	30768.68
677.23	30967.63
677.37	30438.67
677.51	30522.93
677.65	30600.16
677.79	30263.13
677.93	30424.62
678.07	29949.50
678.21	29954.18
678.34	29621.82
678.48	29680.33
678.62	29509.47
678.76	29434.58
678.90	29106.90
679.04	29237.97
679.18	29425.22
679.31	29532.88
679.45	29256.70
679.59	28790.93
679.73	28807.31
679.87	28503.04
680.00	28732.42
680.14	28596.67
680.28	28840.08
680.42	28376.66
680.56	28917.32
680.70	28189.41
680.83	28135.58
680.97	28140.26
681.11	28149.62
681.25	27669.81
681.39	27777.48
681.52	27948.34
681.66	27414.69
681.80	27154.90
681.94	27564.49
682.07	27084.68
682.21	27353.84
682.35	27140.85
682.49	26958.29
682.62	27138.51
682.76	27206.39
682.90	27154.90
683.04	26920.84
683.17	27087.02
683.31	26387.20
683.45	26309.96
683.59	26394.22
683.72	26288.90
683.86	26073.57
684.00	26129.74
684.13	26003.35
684.27	25785.68
684.41	25926.11
684.55	25869.94
684.68	25680.36
684.82	25493.12
684.96	25436.94
685.09	25518.86
685.23	25357.36
685.37	25635.89
685.50	25525.88
685.64	25252.04
685.78	25015.65
685.91	25326.94
686.05	24556.90
686.19	24638.82
686.32	24797.98
686.46	24208.16
686.60	24098.16
686.73	24496.05
686.87	24056.03
687.01	24510.09
687.14	24294.76
687.28	23915.59
687.42	23892.19
687.55	23737.71
687.69	23857.08
687.82	23721.33
687.96	23421.74
688.10	23569.19
688.23	23222.80
688.37	23410.04
688.50	23335.14
688.64	23323.44
688.78	23269.61
688.91	22974.70
689.05	22930.23
689.18	22761.71
689.32	22415.31
689.46	22354.46
689.59	22363.82
689.73	22717.24
689.86	22824.90
690.00	22272.54
690.13	22361.48
690.27	22024.44
690.41	22225.73
690.54	21809.11
690.68	21678.04
690.81	21862.94
690.95	21481.44
691.08	21341.00
691.22	21245.04
691.35	21266.11
691.49	21575.06
691.62	20954.82
691.76	21088.23
691.89	21081.21
692.03	20931.41
692.16	20751.19
692.30	20996.95
692.43	20517.14
692.57	20367.34
692.70	20357.98
692.84	20212.87
692.97	20332.23
693.11	19957.75
693.24	19990.52
693.38	19803.27
693.51	19859.45
693.65	19466.24
693.78	19924.98
693.92	19611.35
694.05	19391.34
694.19	19318.78
694.32	19246.23
694.45	19513.05
694.59	19676.88
694.72	19641.78
694.86	19098.77
694.99	18960.68
695.13	19023.87
695.26	18752.37
695.39	18789.82
695.53	18803.86
695.66	18616.62
695.80	18721.95
695.93	18614.28
696.07	18242.14
696.20	18085.32
696.33	17743.60
696.47	17951.91
696.60	17830.20
696.73	18164.90
696.87	17736.58
697.00	17774.03
697.14	17748.28
697.27	17841.90
697.40	17467.42
697.54	17628.92
697.67	17336.35
697.80	17298.90
697.94	17247.41
698.07	17418.27
698.21	17247.41
698.34	17032.08
698.47	16889.31
698.61	16276.09
698.74	16381.41
698.87	16720.79
699.01	16556.95
699.14	16390.77
699.27	16638.87
699.40	16599.08
699.54	15910.96
699.67	16346.30
699.80	16133.31
699.94	15922.66
700.07	15941.39
700.20	15758.83
700.34	15840.75
700.47	15843.09
700.60	15733.08
700.73	15606.69
700.87	15393.70
701.00	15503.71
701.13	15110.50
701.26	15293.06
701.40	15220.50
701.53	15197.10
701.66	15133.90
701.79	15047.30
701.93	14850.70
702.06	14696.22
702.19	14757.08
702.32	14677.50
702.46	14841.34
702.59	14689.20
702.72	14658.78
702.85	14803.89
702.99	14590.90
703.12	14237.48
703.25	14504.30
703.38	14223.44
703.51	14157.90
703.65	14207.05
703.78	13820.86
703.91	13806.82
704.04	13657.03
704.17	13565.74
704.31	13713.20
704.44	13453.40
704.57	13624.26
704.70	13535.32
704.83	13291.90
704.96	13411.27
705.10	12978.27
705.23	13036.78
>>>>>End Processed Spectral Data<<<<<
