SpectraSuite Data File
++++++++++++++++++++++++++++++++++++
Date: Fri Oct 25 10:47:47 EDT 2013
User: price-jones
Dark Spectrum Present: No
Reference Spectrum Present: No
Number of Sampled Component Spectra: 1
Spectrometers: USB2+H05261
Integration Time (usec): 100000 (USB2+H05261)
Spectra Averaged: 1 (USB2+H05261)
Boxcar Smoothing: 0 (USB2+H05261)
Correct for Electrical Dark: No (USB2+H05261)
Strobe/Lamp Enabled: No (USB2+H05261)
Correct for Detector Non-linearity: No (USB2+H05261)
Correct for Stray Light: No (USB2+H05261)
Number of Pixels in Processed Spectrum: 2048
>>>>>Begin Processed Spectral Data<<<<<
365.73	175.54
365.92	175.54
366.12	175.54
366.32	25.75
366.52	49.15
366.72	77.24
366.91	0.00
367.11	63.19
367.31	2.34
367.51	0.00
367.70	0.00
367.90	67.88
368.10	39.79
368.30	44.47
368.49	46.81
368.69	107.66
368.89	21.06
369.09	35.11
369.28	74.90
369.48	72.56
369.68	51.49
369.87	79.58
370.07	112.35
370.27	88.94
370.47	203.63
370.66	386.19
370.86	386.19
371.06	461.09
371.25	477.47
371.45	468.11
371.65	454.06
371.84	500.87
372.04	409.59
372.24	543.00
372.44	496.19
372.63	491.51
372.83	507.90
373.03	540.66
373.22	528.96
373.42	564.07
373.62	521.94
373.81	566.41
374.01	547.69
374.21	575.77
374.40	526.62
374.60	578.11
374.79	486.83
374.99	543.00
375.19	587.47
375.38	566.41
375.58	645.99
375.78	599.18
375.97	636.63
376.17	669.39
376.37	566.41
376.56	559.39
376.76	540.66
376.95	585.13
377.15	599.18
377.35	641.31
377.54	587.47
377.74	571.09
377.93	458.74
378.13	587.47
378.33	610.88
378.52	638.97
378.72	645.99
378.91	653.01
379.11	582.79
379.31	685.78
379.50	613.22
379.70	653.01
379.89	713.86
380.09	648.33
380.28	697.48
380.48	720.88
380.68	585.13
380.87	704.50
381.07	664.71
381.26	704.50
381.46	613.22
381.65	681.10
381.85	676.41
382.04	671.73
382.24	650.67
382.43	702.16
382.63	676.41
382.83	692.80
383.02	732.59
383.22	727.91
383.41	744.29
383.61	643.65
383.80	760.67
384.00	699.82
384.19	695.14
384.39	725.57
384.58	737.27
384.78	774.72
384.97	833.23
385.17	788.76
385.36	784.08
385.56	760.67
385.75	770.04
385.95	889.40
386.14	830.89
386.34	854.30
386.53	786.42
386.72	725.57
386.92	809.83
387.11	856.64
387.31	868.34
387.50	795.78
387.70	746.63
387.89	760.67
388.09	760.67
388.28	889.40
388.48	730.25
388.67	924.51
388.86	875.36
389.06	798.12
389.25	954.94
389.45	877.70
389.64	840.25
389.84	877.70
390.03	945.58
390.22	931.53
390.42	931.53
390.61	905.79
390.81	870.68
391.00	903.45
391.19	1020.47
391.39	957.28
391.58	1008.77
391.78	936.21
391.97	917.49
392.16	976.00
392.36	912.81
392.55	917.49
392.75	887.06
392.94	978.34
393.13	1090.69
393.33	917.49
393.52	980.68
393.71	1020.47
393.91	954.94
394.10	971.32
394.29	1095.37
394.49	1018.13
394.68	1062.60
394.88	1095.37
395.07	1184.31
395.26	1170.27
395.46	1144.52
395.65	1109.41
395.84	1174.95
396.04	1184.31
396.23	1163.25
396.42	1081.33
396.62	1097.71
396.81	1132.82
397.00	1170.27
397.19	1205.38
397.39	1214.74
397.58	1205.38
397.77	1188.99
397.97	1299.00
398.16	1303.68
398.35	1392.62
398.55	1301.34
398.74	1341.13
398.93	1359.85
399.12	1359.85
399.32	1352.83
399.51	1357.51
399.70	1385.60
399.90	1380.92
400.09	1411.34
400.28	1444.11
400.47	1409.00
400.67	1526.03
400.86	1495.60
401.05	1460.49
401.24	1462.83
401.44	1488.58
401.63	1439.43
401.82	1383.26
402.01	1537.73
402.21	1563.48
402.40	1596.25
402.59	1476.88
402.78	1446.45
402.97	1561.14
403.17	1556.46
403.36	1659.44
403.55	1589.22
403.74	1605.61
403.93	1713.27
404.13	1612.63
404.32	1598.59
404.51	1687.53
404.70	1753.06
404.89	1722.63
405.09	1774.13
405.28	1717.95
405.47	1788.17
405.66	1762.42
405.85	1799.87
406.05	1732.00
406.24	1790.51
406.43	1739.02
406.62	1753.06
406.81	1977.75
407.00	1818.60
407.20	1823.28
407.39	1961.37
407.58	1926.26
407.77	1989.46
407.96	1987.11
408.15	1973.07
408.34	2052.65
408.54	1954.35
408.73	1898.17
408.92	2008.18
409.11	2019.88
409.30	2010.52
409.49	2094.78
409.68	2062.01
409.87	2022.22
410.07	2001.16
410.26	2136.91
410.45	2141.59
410.64	2148.61
410.83	2223.51
411.02	2235.21
411.21	2272.66
411.40	2303.09
411.59	2223.51
411.78	2263.30
411.98	2237.55
412.17	2298.41
412.36	2408.41
412.55	2464.58
412.74	2445.86
412.93	2534.80
413.12	2476.29
413.31	2548.84
413.50	2506.71
413.69	2555.86
413.88	2513.74
414.07	2581.61
414.26	2644.81
414.45	2637.78
414.64	2689.28
414.83	2750.13
415.02	2693.96
415.22	2696.30
415.41	2853.11
415.60	2759.49
415.79	2871.84
415.98	2820.35
416.17	2953.76
416.36	2773.53
416.55	2909.29
416.74	2974.82
416.93	2892.90
417.12	2920.99
417.31	3012.27
417.50	3045.04
417.69	3059.08
417.88	3185.47
418.07	2979.50
418.26	3173.77
418.45	3035.67
418.64	3145.68
418.83	3138.66
419.02	3220.58
419.21	3166.74
419.39	3272.07
419.58	3143.34
419.77	3201.85
419.96	3272.07
420.15	3349.31
420.34	3143.34
420.53	3344.63
420.72	3405.48
420.91	3534.21
421.10	3459.31
421.29	3499.10
421.48	3419.52
421.67	3398.46
421.86	3407.82
422.05	3361.01
422.24	3424.20
422.43	3424.20
422.61	3454.63
422.80	3414.84
422.99	3377.39
423.18	3606.77
423.37	3592.72
423.56	3646.55
423.75	3524.85
423.94	3499.10
424.13	3239.30
424.32	3433.57
424.50	3588.04
424.69	3749.54
424.88	3597.40
425.07	3506.12
425.26	3548.25
425.45	3496.76
425.64	3478.04
425.83	3545.91
426.01	3604.42
426.20	3588.04
426.39	3508.46
426.58	3658.26
426.77	3501.44
426.96	3517.83
427.15	3585.70
427.33	3681.66
427.52	3758.90
427.71	3733.15
427.90	3686.34
428.09	3749.54
428.28	3777.62
428.46	3662.94
428.65	3782.31
428.84	3878.27
429.03	3978.91
429.22	3826.78
429.40	3779.97
429.59	3882.95
429.78	3651.24
429.97	3508.46
430.16	3737.84
430.34	3826.78
430.53	3976.57
430.72	3974.23
430.91	3875.93
431.10	3826.78
431.28	3990.61
431.47	4175.52
431.66	4194.24
431.85	3936.78
432.03	4163.81
432.22	4285.52
432.41	4327.65
432.60	4219.99
432.79	4191.90
432.97	4383.82
433.16	4259.78
433.35	4149.77
433.54	4201.26
433.72	4234.03
433.91	4313.61
434.10	4447.02
434.28	4327.65
434.47	4355.74
434.66	4381.48
434.85	4400.21
435.03	4421.27
435.22	4400.21
435.41	4559.36
435.59	4615.54
435.78	4484.47
435.97	4545.32
436.16	4793.42
436.34	4484.47
436.53	4592.13
436.72	4833.21
436.90	4636.60
437.09	4746.61
437.28	4631.92
437.46	4709.16
437.65	4678.73
437.84	4753.63
438.02	4709.16
438.21	4594.47
438.40	4683.41
438.58	4961.94
438.77	4945.55
438.96	4849.59
439.14	4959.60
439.33	5102.37
439.52	5102.37
439.70	5160.88
439.89	5146.84
440.08	5071.94
440.26	5067.26
440.45	5093.01
440.63	5437.06
440.82	5416.00
441.01	5469.83
441.19	5324.72
441.38	5383.23
441.57	5537.71
441.75	5383.23
441.94	5607.92
442.12	5577.50
442.31	5738.99
442.50	5640.69
442.68	5806.87
442.87	5783.46
443.05	5577.50
443.24	5682.82
443.43	5727.29
443.61	5872.40
443.80	5963.68
443.98	5708.57
444.17	5598.56
444.35	5750.70
444.54	5940.28
444.73	5900.49
444.91	5998.79
445.10	5809.21
445.28	5785.80
445.47	5743.67
445.65	5841.98
445.84	5720.27
446.02	6057.31
446.21	6040.92
446.39	5959.00
446.58	6139.23
446.77	5996.45
446.95	6026.88
447.14	5994.11
447.32	5907.51
447.51	5846.66
447.69	5963.68
447.88	6139.23
448.06	6094.76
448.25	6059.65
448.43	6150.93
448.62	6076.03
448.80	6113.48
448.99	6134.54
449.17	6115.82
449.36	6132.20
449.54	6181.35
449.73	6237.53
449.91	6333.49
450.10	6436.47
450.28	6548.82
450.46	6698.61
450.65	6504.35
450.83	6600.31
451.02	6368.60
451.20	6310.08
451.39	6424.77
451.57	6452.86
451.76	6363.92
451.94	6492.65
452.13	6588.61
452.31	6429.45
452.49	6363.92
452.68	6656.48
452.86	6455.20
453.05	6642.44
453.23	6593.29
453.42	6438.81
453.60	6628.40
453.78	6581.59
453.97	6757.13
454.15	6513.71
454.34	6572.22
454.52	6724.36
454.70	6792.23
454.89	6834.36
455.07	6963.09
455.26	6855.43
455.44	6946.71
455.62	7016.93
455.81	6951.39
455.99	7105.87
456.17	6998.20
456.36	7014.59
456.54	7157.36
456.73	7115.23
456.91	7487.37
457.09	7358.64
457.28	7548.23
457.46	7349.28
457.64	7475.67
457.83	7159.70
458.01	7314.17
458.19	7513.12
458.38	7286.09
458.56	7438.22
458.74	7410.14
458.93	7412.48
459.11	7480.35
459.29	7433.54
459.48	7620.78
459.66	7363.33
459.84	7424.18
460.03	7646.53
460.21	7740.15
460.39	7564.61
460.57	7719.09
460.76	7625.47
460.94	7749.51
461.12	7789.30
461.31	7836.11
461.49	7691.00
461.67	7653.55
461.85	7955.48
462.04	7868.88
462.22	8451.67
462.40	8114.64
462.59	8107.62
462.77	8042.08
462.95	8081.87
463.13	8018.68
463.32	8257.41
463.50	7995.27
463.68	8180.17
463.86	8044.42
464.05	8042.08
464.23	8072.51
464.41	8154.43
464.59	8088.89
464.78	8311.24
464.96	8140.38
465.14	8154.43
465.32	8290.18
465.50	8257.41
465.69	8367.42
465.87	8402.52
466.05	8325.29
466.23	8205.92
466.41	8446.99
466.60	8564.02
466.78	8248.05
466.96	8336.99
467.14	8500.83
467.32	8432.95
467.51	8709.13
467.69	8379.12
467.87	8493.80
468.05	8863.61
468.23	8512.53
468.41	8439.97
468.60	8678.71
468.78	8739.56
468.96	8601.47
469.14	8709.13
469.32	8858.93
469.50	8655.30
469.69	8805.10
469.87	9006.38
470.05	9137.45
470.23	8917.44
470.41	8992.34
470.59	9212.35
470.77	8947.87
470.95	8924.46
471.14	9277.88
471.32	9022.77
471.50	9472.15
471.68	9462.79
471.86	9305.97
472.04	9242.78
472.22	9493.21
472.40	9408.95
472.58	9310.65
472.77	9528.32
472.95	9614.92
473.13	9865.36
473.31	9771.74
473.49	9383.21
473.67	9582.15
473.85	9722.59
474.03	9996.43
474.21	10064.30
474.39	10101.75
474.57	9944.94
474.75	10265.59
474.93	10022.17
475.12	9914.51
475.30	10200.05
475.48	10305.38
475.66	10345.17
475.84	10230.48
476.02	10328.78
476.20	10478.58
476.38	10705.61
476.56	10691.57
476.74	10960.73
476.92	10810.93
477.10	10560.50
477.28	11239.25
477.46	10956.05
477.64	11098.82
477.82	11042.65
478.00	11346.92
478.18	11211.17
478.36	11297.77
478.54	11566.93
478.72	11634.80
478.90	11712.04
479.08	11976.52
479.26	11873.54
479.44	11712.04
479.62	12166.10
479.80	12126.32
479.98	12313.56
480.16	12177.81
480.34	12610.81
480.52	12666.98
480.70	12538.25
480.88	12547.61
481.06	12704.43
481.24	12732.51
481.41	12786.35
481.59	12901.03
481.77	13238.07
481.95	12936.14
482.13	13109.34
482.31	13275.52
482.49	13394.89
482.67	13621.92
482.85	13734.26
483.03	13841.93
483.21	13935.55
483.39	14097.05
483.57	13912.14
483.74	14164.92
483.92	14338.12
484.10	14071.30
484.28	14579.20
484.46	14630.69
484.64	14815.59
484.82	14443.45
485.00	14972.41
485.18	15241.57
485.35	15304.76
485.53	15005.17
485.71	15056.67
485.89	15276.68
486.07	15154.97
486.25	15548.18
486.43	15508.39
486.61	15709.68
486.78	16126.29
486.96	16079.48
487.14	16205.87
487.32	16107.57
487.50	16475.03
487.68	16755.90
487.85	16989.95
488.03	16989.95
488.21	17172.51
488.39	17317.62
488.57	17132.72
488.75	17479.12
488.92	17481.46
489.10	17762.33
489.28	17891.06
489.46	18085.32
489.64	17769.35
489.81	18494.91
489.99	18398.95
490.17	18609.60
490.35	18614.28
490.53	18398.95
490.70	18773.44
490.88	18698.54
491.06	18906.85
491.24	19199.41
491.41	19187.71
491.59	19473.26
491.77	19262.61
491.95	19676.88
492.13	19552.84
492.30	19941.36
492.48	19953.07
492.66	20154.35
492.84	19953.07
493.01	20458.62
493.19	20278.40
493.37	20418.83
493.54	20884.60
493.72	20809.70
493.90	20933.75
494.08	21092.91
494.25	21362.07
494.43	21153.76
494.61	21156.10
494.79	21507.18
494.96	21294.19
495.14	21795.07
495.32	22005.72
495.49	21680.38
495.67	22136.79
495.85	22129.77
496.02	22485.53
496.20	22586.17
496.38	22417.65
496.55	22546.38
496.73	23225.14
496.91	22604.89
497.09	22869.37
497.26	23337.48
497.44	22930.23
497.62	23236.84
497.79	23559.83
497.97	23103.43
498.14	23772.82
498.32	23749.42
498.50	23630.05
498.67	24329.87
498.85	23929.64
499.03	24203.48
499.20	24163.69
499.38	24231.57
499.56	24453.92
499.73	24505.41
499.91	24269.01
500.08	24486.68
500.26	24254.97
500.44	24767.55
500.61	24870.53
500.79	24512.43
500.97	24657.54
501.14	25352.68
501.32	25025.01
501.49	25095.22
501.67	25720.15
501.84	25425.24
502.02	25680.36
502.20	25699.08
502.37	25816.11
502.55	25996.33
502.72	26106.34
502.90	26342.73
503.07	25764.62
503.25	25853.56
503.43	25820.79
503.60	26384.86
503.78	26258.47
503.95	26504.23
504.13	26579.12
504.30	26490.18
504.48	26778.07
504.65	27077.66
504.83	26899.78
505.01	26902.12
505.18	26953.61
505.36	27587.89
505.53	27065.96
505.71	27672.15
505.88	27201.71
506.06	27438.10
506.23	27318.73
506.41	27321.07
506.58	27477.89
506.76	27292.99
506.93	27962.38
507.11	27953.02
507.28	27594.92
507.46	27906.21
507.63	28411.76
507.81	28060.68
507.98	28123.88
508.16	28376.66
508.33	28479.64
508.50	28591.98
508.68	28465.60
508.85	28952.43
509.03	28936.04
509.20	28811.99
509.38	29106.90
509.55	28987.53
509.73	28985.19
509.90	29158.39
510.08	29200.52
510.25	29263.72
510.42	29329.25
510.60	29408.83
510.77	29736.51
510.95	30057.16
511.12	29528.20
511.30	29619.48
511.47	30345.05
511.64	29951.84
511.82	30368.45
511.99	29907.37
512.17	30260.79
512.34	30045.46
512.51	30738.26
512.69	30487.82
512.86	30932.52
513.04	30466.75
513.21	30705.49
513.38	30462.07
513.56	30726.55
513.73	30771.02
513.90	30960.61
514.08	30859.96
514.25	30916.14
514.43	31166.57
514.60	30761.66
514.77	31026.14
514.95	31419.35
515.12	31548.08
515.29	31555.10
515.47	31508.29
515.64	32055.98
515.81	31590.21
515.99	31468.50
516.16	31569.15
516.33	31789.16
516.51	31658.09
516.68	31562.12
516.85	31728.30
517.03	31697.88
517.20	32135.56
517.37	31983.42
517.54	32449.19
517.72	32196.41
517.89	32161.30
518.06	32287.69
518.24	32201.09
518.41	32147.26
518.58	32615.37
518.75	32577.92
518.93	33296.46
519.10	32914.95
519.27	33071.77
519.45	33308.16
519.62	33223.90
519.79	33214.54
519.96	33230.93
520.14	33422.85
520.31	33031.98
520.48	33083.47
520.65	33294.12
520.83	33610.09
521.00	33153.69
521.17	33757.55
521.34	34132.03
521.52	34181.18
521.69	34101.61
521.86	33982.24
522.03	33996.28
522.20	33963.51
522.38	34099.26
522.55	34300.55
522.72	34391.83
522.89	34412.90
523.07	34408.22
523.24	34415.24
523.41	34555.67
523.58	34469.07
523.75	34939.52
523.92	34394.17
524.10	34817.81
524.27	34843.56
524.44	34944.20
524.61	35042.50
524.78	35009.73
524.96	35098.67
525.13	35922.54
525.30	35414.65
525.47	35700.19
525.64	35732.96
525.81	35758.70
525.98	35470.82
526.16	35665.08
526.33	35061.22
526.50	35665.08
526.67	35498.91
526.84	35295.28
527.01	35559.76
527.18	35903.82
527.36	36215.11
527.53	36170.64
527.70	36292.35
527.87	36444.48
528.04	36493.63
528.21	36416.40
528.38	36048.93
528.55	36545.12
528.72	36566.19
528.89	36524.06
529.07	36584.91
529.24	36842.37
529.41	36236.17
529.58	36767.48
529.75	36467.89
529.92	37062.38
530.09	36825.99
530.26	36673.85
530.43	37022.59
530.60	36858.76
530.77	36774.50
530.94	37340.91
531.11	37343.25
531.28	37216.86
531.46	37666.24
531.63	37722.41
531.80	37689.65
531.97	37273.03
532.14	37083.45
532.31	37696.67
532.48	37373.67
532.65	38258.40
532.82	37682.62
532.99	37691.99
533.16	37322.18
533.33	37598.37
533.50	37710.71
533.67	37801.99
533.84	37347.93
534.01	38040.73
534.18	37804.33
534.35	38719.48
534.52	38141.37
534.69	38312.23
534.86	38169.46
535.03	38550.96
535.20	38333.29
535.37	38555.64
535.54	38335.63
535.71	38347.34
535.88	38242.01
536.05	38569.69
536.22	38808.42
536.38	38623.52
536.55	38595.43
536.72	38590.75
536.89	38462.02
537.06	38583.73
537.23	39084.61
537.40	38457.34
537.57	38588.41
537.74	38508.83
537.91	39466.11
538.08	39271.85
538.25	38958.22
538.42	38862.26
538.59	39058.86
538.75	38525.22
538.92	38965.24
539.09	39585.48
539.26	39344.41
539.43	39299.94
539.60	39398.24
539.77	39255.46
539.94	39431.01
540.11	39686.12
540.28	39363.13
540.44	39393.56
540.61	39271.85
540.78	39321.00
540.95	39793.79
541.12	39435.69
541.29	39676.76
541.46	39749.32
541.62	39716.55
541.79	39667.40
541.96	39608.89
542.13	39821.87
542.30	40051.25
542.47	40367.22
542.63	40210.40
542.80	40055.93
542.97	40580.21
543.14	40842.35
543.31	40350.84
543.48	40870.43
543.64	41050.66
543.81	41057.68
543.98	40477.22
544.15	40652.76
544.32	41050.66
544.48	41647.49
544.65	40921.93
544.82	40877.46
544.99	40645.74
545.16	41177.04
545.32	40872.78
545.49	41291.73
545.66	41626.43
545.83	41053.00
546.00	41390.03
546.16	41254.28
546.33	41163.00
546.50	40589.57
546.67	41191.09
546.83	40779.15
547.00	40938.31
547.17	41584.30
547.34	41221.52
547.50	41486.00
547.67	41626.43
547.84	41621.75
548.00	41776.22
548.17	42080.49
548.34	41914.31
548.51	41680.26
548.67	41790.27
548.84	41762.18
549.01	41748.14
549.18	42263.05
549.34	42124.96
549.51	42115.60
549.68	41942.40
549.84	41979.85
550.01	42363.70
550.18	41855.80
550.34	42078.15
550.51	41940.06
550.68	41918.99
550.84	41710.69
551.01	42139.00
551.18	42188.16
551.34	41968.15
551.51	42265.39
551.68	42190.50
551.84	42314.55
552.01	42017.30
552.18	42656.26
552.34	42452.64
552.51	42422.21
552.68	42670.31
552.84	42555.62
553.01	42859.89
553.18	42469.02
553.34	42637.54
553.51	42443.27
553.67	42705.41
553.84	42436.25
554.01	43100.97
554.17	43248.42
554.34	43232.04
554.51	42871.59
554.67	43241.40
554.84	42703.07
555.00	42934.79
555.17	42316.89
555.33	42836.48
555.50	43159.48
555.67	43016.71
555.83	43428.64
556.00	43044.79
556.16	43182.88
556.33	43084.58
556.50	43185.22
556.66	43021.39
556.83	43075.22
556.99	43278.85
557.16	43592.48
557.32	43173.52
557.49	43526.94
557.65	43229.69
557.82	43030.75
557.98	43215.65
558.15	43374.81
558.32	43168.84
558.48	42953.51
558.65	43264.80
558.81	43358.42
558.98	43608.86
559.14	43571.41
559.31	43409.92
559.47	43433.32
559.64	43597.16
559.80	43800.79
559.97	43892.07
560.13	43400.55
560.30	43243.74
560.46	43674.40
560.63	43690.78
560.79	43498.86
560.96	43775.04
561.12	43840.57
561.29	43931.86
561.45	44002.07
561.61	44055.90
561.78	43629.93
561.94	43620.56
562.11	43906.11
562.27	43597.16
562.44	43983.35
562.60	44254.85
562.77	44210.38
562.93	43892.07
563.10	43803.13
563.26	43655.67
563.42	43852.28
563.59	44109.74
563.75	43791.42
563.92	44184.63
564.08	44404.64
564.24	44343.79
564.41	44301.66
564.57	44266.55
564.74	43992.71
564.90	43920.15
565.07	44453.79
565.23	44100.37
565.39	44418.69
565.56	44123.78
565.72	44102.71
565.88	44191.65
566.05	44322.72
566.21	44184.63
566.38	43924.83
566.54	44229.10
566.70	44264.21
566.87	44807.22
567.03	43936.54
567.19	44311.02
567.36	44414.01
567.52	43871.00
567.68	44655.08
567.85	44240.81
568.01	44531.03
568.17	44325.07
568.34	44652.74
568.50	43920.15
568.66	44486.56
568.83	44133.14
568.99	44376.56
569.15	44301.66
569.32	44175.27
569.48	43957.60
569.64	44715.93
569.81	44376.56
569.97	44582.52
570.13	44638.70
570.30	44535.71
570.46	44205.70
570.62	44168.25
570.78	44271.23
570.95	44362.51
571.11	44378.90
571.27	44423.37
571.43	44442.09
571.60	44715.93
571.76	44737.00
571.92	44554.44
572.09	44109.74
572.25	44683.17
572.41	44409.32
572.57	44336.77
572.74	44601.25
572.90	44687.85
573.06	44540.39
573.22	44189.31
573.38	44744.02
573.55	44299.32
573.71	44467.84
573.87	44729.98
574.03	44343.79
574.20	44402.30
574.36	44706.57
574.52	44921.90
574.68	44453.79
574.84	44729.98
575.01	44526.35
575.17	44404.64
575.33	44486.56
575.49	44460.82
575.65	44905.52
575.82	44652.74
575.98	44982.76
576.14	45207.45
576.30	44905.52
576.46	44397.62
576.62	44442.09
576.79	44680.83
576.95	44208.04
577.11	44446.77
577.27	44521.67
577.43	44596.57
577.59	45095.10
577.75	44481.88
577.92	44542.74
578.08	44308.68
578.24	44367.20
578.40	44762.75
578.56	44992.12
578.72	44133.14
578.88	45048.29
579.04	44570.82
579.21	45017.86
579.37	44996.80
579.53	44395.28
579.69	44453.79
579.85	44685.51
580.01	44598.91
580.17	44896.16
580.33	45375.97
580.49	45038.93
580.65	44858.71
580.82	45123.19
580.98	44786.15
581.14	44711.25
581.30	45106.80
581.46	44921.90
581.62	44854.03
581.78	44900.84
581.94	44907.86
582.10	44800.19
582.26	44940.63
582.42	44587.21
582.58	44781.47
582.74	44657.42
582.90	44954.67
583.06	45097.44
583.22	44884.45
583.38	44994.46
583.54	44858.71
583.70	44931.26
583.86	45104.46
584.02	44587.21
584.18	44720.62
584.34	44577.84
584.50	45137.23
584.66	45095.10
584.82	45219.15
584.98	44996.80
585.14	44657.42
585.30	44903.18
585.46	44626.99
585.62	44540.39
585.78	44772.11
585.94	44261.87
586.10	44280.60
586.26	44863.39
586.42	44921.90
586.58	44907.86
586.74	45024.89
586.90	44896.16
587.06	44451.45
587.22	44912.54
587.38	44250.17
587.54	44952.33
587.70	44999.14
587.86	44987.44
588.02	45158.30
588.18	45478.95
588.34	45181.70
588.49	44299.32
588.65	44570.82
588.81	44898.50
588.97	44767.43
589.13	44816.58
589.29	44737.00
589.45	45038.93
589.61	45551.51
589.77	45200.43
589.93	44968.71
590.08	44839.98
590.24	44980.42
590.40	44989.78
590.56	45268.30
590.72	45490.65
590.88	44896.16
591.04	45069.36
591.20	45296.39
591.35	45371.28
591.51	45387.67
591.67	44987.44
591.83	45024.89
591.99	45277.66
592.15	44779.13
592.31	45118.51
592.46	45102.12
592.62	45116.17
592.78	45373.63
592.94	45230.85
593.10	45401.71
593.26	45130.21
593.41	44772.11
593.57	44987.44
593.73	44961.69
593.89	45123.19
594.05	45130.21
594.20	45614.70
594.36	45453.20
594.52	44903.18
594.68	45289.37
594.84	45088.08
594.99	45422.78
595.15	44992.12
595.31	45418.10
595.47	44966.37
595.62	45113.83
595.78	45202.77
595.94	45097.44
596.10	45450.86
596.25	45137.23
596.41	45476.61
596.57	45331.50
596.73	45193.40
596.88	44942.97
597.04	45118.51
597.20	45263.62
597.36	45029.57
597.51	45748.11
597.67	45263.62
597.83	45422.78
597.99	45841.73
598.14	45485.97
598.30	45455.54
598.46	45162.98
598.61	45382.99
598.77	45455.54
598.93	45097.44
599.09	45155.96
599.24	45357.24
599.40	45539.80
599.56	45474.27
599.71	45305.75
599.87	45595.98
600.03	45041.27
600.18	45422.78
600.34	45223.83
600.50	45638.11
600.65	44966.37
600.81	45846.41
600.97	45862.80
601.12	45581.93
601.28	45223.83
601.44	45361.92
601.59	45275.32
601.75	45095.10
601.91	45696.62
602.06	44753.38
602.22	45106.80
602.37	45619.38
602.53	45240.21
602.69	45347.88
602.84	45083.40
603.00	45553.85
603.16	44985.10
603.31	45043.61
603.47	45020.20
603.62	44631.68
603.78	45022.54
603.94	45193.40
604.09	45628.74
604.25	45429.80
604.40	45001.48
604.56	45298.73
604.71	45294.05
604.87	44786.15
605.03	45057.65
605.18	45287.03
605.34	45022.54
605.49	44828.28
605.65	45298.73
605.80	45022.54
605.96	45511.72
606.12	45233.19
606.27	45331.50
606.43	45343.20
606.58	45193.40
606.74	44933.60
606.89	45090.42
607.05	45027.23
607.20	44987.44
607.36	44949.99
607.51	45521.08
607.67	45464.91
607.82	45298.73
607.98	45029.57
608.13	45048.29
608.29	44926.58
608.44	44540.39
608.60	44226.76
608.75	44957.01
608.91	44624.65
609.06	44652.74
609.22	45008.50
609.37	44825.94
609.53	44985.10
609.68	44779.13
609.84	45076.38
609.99	45092.76
610.15	44837.64
610.30	44858.71
610.46	45003.82
610.61	44818.92
610.76	44748.70
610.92	44659.76
611.07	44603.59
611.23	44706.57
611.38	44755.72
611.54	44327.41
611.69	44495.92
611.84	44704.23
612.00	44491.24
612.15	44608.27
612.31	44278.25
612.46	44329.75
612.62	44942.97
612.77	44133.14
612.92	44687.85
613.08	44268.89
613.23	44416.35
613.39	44226.76
613.54	43992.71
613.69	44570.82
613.85	44509.97
614.00	44818.92
614.15	44947.65
614.31	44161.23
614.46	44545.08
614.62	44346.13
614.77	44060.58
614.92	44306.34
615.08	43913.13
615.23	43941.22
615.38	44032.50
615.54	43885.04
615.69	44439.75
615.84	43798.44
616.00	44289.96
616.15	43590.14
616.30	44477.20
616.46	44179.95
616.61	43861.64
616.76	43971.64
616.92	43941.22
617.07	44296.98
617.22	43604.18
617.37	43966.96
617.53	44215.06
617.68	43735.25
617.83	43533.96
617.99	44039.52
618.14	43901.43
618.29	43950.58
618.45	43810.15
618.60	43955.26
618.75	43985.69
618.90	43718.87
619.06	43386.51
619.21	43393.53
619.36	43819.51
619.51	43688.44
619.67	43466.09
619.82	43833.55
619.97	43885.04
620.12	43489.49
620.28	43402.89
620.43	43295.23
620.58	43487.15
620.73	43115.01
620.89	43213.31
621.04	43086.92
621.19	43236.72
621.34	42639.88
621.49	43311.61
621.65	43421.62
621.80	43613.54
621.95	43037.77
622.10	43529.28
622.25	43213.31
622.41	42993.30
622.56	43194.59
622.71	43016.71
622.86	43072.88
623.01	43426.30
623.16	42976.92
623.32	43194.59
623.47	43454.39
623.62	43019.05
623.77	42763.93
623.92	42927.77
624.07	42873.93
624.23	42642.22
624.38	43100.97
624.53	42466.68
624.68	42773.29
624.83	42810.74
624.98	43220.33
625.13	43047.13
625.29	42672.65
625.44	43295.23
625.59	42539.24
625.74	42562.64
625.89	42064.11
626.04	41729.41
626.19	42124.96
626.34	42106.24
626.49	42473.70
626.65	42457.32
626.80	42384.76
626.95	42099.22
627.10	42017.30
627.25	42085.17
627.40	42087.51
627.55	41652.17
627.70	41865.16
627.85	42010.28
628.00	41902.61
628.15	42363.70
628.30	42380.08
628.45	42490.09
628.60	42298.16
628.76	41909.63
628.91	42307.52
629.06	42256.03
629.21	42160.07
629.36	41773.88
629.51	41975.17
629.66	41539.83
629.81	41584.30
629.96	41937.72
630.11	41525.78
630.26	41645.15
630.41	42043.04
630.56	41530.47
630.71	41804.31
630.86	41816.01
631.01	41460.25
631.16	41811.33
631.31	41333.86
631.46	41092.79
631.61	41598.34
631.76	41567.91
631.91	42031.34
632.06	41418.12
632.21	41830.05
632.36	41593.66
632.51	41294.07
632.66	41422.80
632.81	41280.03
632.96	41195.77
633.10	41308.11
633.25	41141.94
633.40	41141.94
633.55	41834.74
633.70	41486.00
633.85	41153.64
634.00	41670.90
634.15	41060.02
634.30	41200.45
634.45	41436.84
634.60	40765.11
634.75	41315.14
634.90	40905.54
635.05	40863.41
635.19	40961.72
635.34	41132.57
635.49	40830.65
635.64	40765.11
635.79	40498.29
635.94	40809.58
636.09	40528.72
636.24	40687.87
636.39	40683.19
636.53	40463.18
636.68	40650.42
636.83	40280.62
636.98	40577.87
637.13	39962.31
637.28	40631.70
637.43	40119.12
637.57	40931.29
637.72	40636.38
637.87	40247.85
638.02	40512.33
638.17	40341.47
638.32	40137.85
638.46	40329.77
638.61	40210.40
638.76	40114.44
638.91	40376.58
639.06	40524.04
639.20	40240.83
639.35	40495.95
639.50	40201.04
639.65	40474.88
639.80	40327.43
639.94	40264.24
640.09	40023.16
640.24	40318.07
640.39	39796.13
640.54	39835.92
640.68	39501.22
640.83	40208.06
640.98	39796.13
641.13	39941.24
641.27	39974.01
641.42	39697.83
641.57	39817.19
641.72	39948.26
641.86	39349.09
642.01	39636.97
642.16	39405.26
642.31	39180.57
642.45	39501.22
642.60	39271.85
642.75	39239.08
642.90	39643.99
643.04	39377.17
643.19	39435.69
643.34	39494.20
643.48	39185.25
643.63	39695.49
643.78	39000.35
643.93	39466.11
644.07	39136.10
644.22	39218.02
644.37	39030.77
644.51	39044.82
644.66	39260.15
644.81	39313.98
644.95	39526.97
645.10	39690.80
645.25	39590.16
645.39	39171.21
645.54	39178.23
645.69	39009.71
645.83	39166.52
645.98	38878.64
646.13	38974.60
646.27	39309.30
646.42	38827.15
646.57	38979.28
646.71	39255.46
646.86	39075.24
647.00	39344.41
647.15	39161.84
647.30	39166.52
647.44	39119.71
647.59	38843.53
647.74	38880.98
647.88	38951.20
648.03	39154.82
648.17	38958.22
648.32	38623.52
648.47	38932.47
648.61	38450.32
648.76	38621.18
648.90	38370.74
649.05	38679.69
649.20	38672.67
649.34	38539.26
649.49	38555.64
649.63	38501.81
649.78	38389.47
649.92	38298.19
650.07	38939.49
650.21	38209.25
650.36	38515.86
650.51	38553.30
650.65	38433.94
650.80	38913.75
650.94	38834.17
651.09	38455.00
651.23	38450.32
651.38	38611.82
651.52	38000.94
651.67	38342.66
651.81	37844.12
651.96	37624.11
652.10	37771.57
652.25	37897.95
652.39	37937.74
652.54	38103.92
652.68	38457.34
652.83	38174.14
652.97	38316.91
653.12	38007.96
653.26	37589.00
653.41	37434.53
653.55	37694.33
653.70	37184.09
653.84	38199.88
653.99	37689.65
654.13	37675.60
654.27	37600.71
654.42	37907.32
654.56	37605.39
654.71	37921.36
654.85	37598.37
655.00	37214.52
655.14	36889.18
655.29	36950.04
655.43	37298.78
655.57	36931.31
655.72	37092.81
655.86	37310.48
656.01	36961.74
656.15	36999.19
656.30	36971.10
656.44	36783.86
656.58	36903.23
656.73	37102.17
656.87	37034.30
657.01	36945.36
657.16	37043.66
657.30	36781.52
657.45	36706.62
657.59	36914.93
657.73	36893.86
657.88	36996.85
658.02	36603.64
658.16	36943.02
658.31	37116.22
658.45	36823.65
658.60	37205.16
658.74	36964.08
658.88	36556.83
659.03	36596.62
659.17	36582.57
659.31	36507.68
659.46	36411.71
659.60	36591.94
659.74	36620.02
659.89	36243.20
660.03	36252.56
660.17	36039.57
660.32	36608.32
660.46	36711.30
660.60	36388.31
660.74	36552.15
660.89	36231.49
661.03	36065.31
661.17	35875.73
661.32	35798.49
661.46	35700.19
661.60	35608.91
661.74	35573.80
661.89	35828.92
662.03	36044.25
662.17	35508.27
662.31	35400.60
662.46	35908.50
662.60	35871.05
662.74	35714.23
662.88	35384.22
663.03	35056.54
663.17	35419.33
663.31	35260.17
663.45	35550.40
663.60	35379.54
663.74	35344.43
663.88	35035.48
664.02	34960.58
664.17	35199.32
664.31	35182.93
664.45	34988.67
664.59	35105.70
664.73	35105.70
664.88	34789.72
665.02	34663.33
665.16	34345.02
665.30	34960.58
665.44	34555.67
665.59	34321.62
665.73	34326.30
665.87	34293.53
666.01	34555.67
666.15	34499.50
666.29	33993.94
666.44	34305.23
666.58	34230.33
666.72	34232.68
666.86	34642.27
667.00	34422.26
667.14	33652.22
667.28	33729.46
667.43	33628.82
667.57	33947.13
667.71	33912.02
667.85	34045.43
667.99	33387.74
668.13	33684.99
668.27	33474.34
668.41	33282.42
668.56	33296.46
668.70	33762.23
668.84	33464.98
668.98	33223.90
669.12	33275.40
669.26	33441.57
669.40	32758.14
669.54	33085.81
669.68	33378.38
669.82	32868.14
669.96	32474.93
670.10	32463.23
670.25	32701.96
670.39	32643.45
670.53	32744.09
670.67	32795.59
670.81	32964.10
670.95	32861.12
671.09	32779.20
671.23	32591.96
671.37	32921.98
671.51	32123.85
671.65	32556.85
671.79	31875.76
671.93	31964.70
672.07	32266.63
672.21	32142.58
672.35	32011.51
672.49	31817.24
672.63	32098.11
672.77	31669.79
672.91	31800.86
673.05	31541.06
673.19	31552.76
673.33	31517.65
673.47	32039.59
673.61	31283.60
673.75	31417.01
673.89	31171.25
674.03	31206.36
674.17	30925.50
674.31	31187.64
674.45	31133.81
674.59	30906.77
674.73	31683.83
674.87	31290.62
675.01	30806.13
675.15	31002.74
675.29	30754.64
675.43	30824.86
675.56	30497.18
675.70	30574.42
675.84	30677.40
675.98	29034.35
676.12	30160.14
676.26	30380.15
676.40	30045.46
676.54	29881.62
676.68	29905.02
676.82	29731.83
676.96	29734.17
677.10	29614.80
677.23	29483.73
677.37	29427.56
677.51	29214.57
677.65	29242.65
677.79	28765.18
677.93	29420.53
678.07	28800.29
678.21	28992.22
678.34	28727.74
678.48	28369.63
678.62	28842.42
678.76	28341.55
678.90	28624.75
679.04	28173.03
679.18	28474.96
679.31	28196.43
679.45	28304.10
679.59	28093.45
679.73	27915.57
679.87	28030.26
680.00	28353.25
680.14	27520.02
680.28	27740.03
680.42	27428.74
680.56	27744.71
680.70	27665.13
680.83	27197.02
680.97	27257.88
681.11	27325.75
681.25	26869.35
681.39	26738.28
681.52	26916.16
681.66	26752.32
681.80	26932.54
681.94	26803.82
682.07	26948.93
682.21	26782.75
682.35	26082.93
682.49	26412.95
682.62	26654.02
682.76	26001.01
682.90	25998.67
683.04	26050.16
683.17	26029.10
683.31	25689.72
683.45	25586.74
683.59	25979.95
683.72	25572.69
683.86	25355.02
684.00	25530.56
684.13	25357.36
684.27	25394.81
684.41	25174.80
684.55	24858.83
684.68	24851.81
684.82	24863.51
684.96	24987.56
685.09	24765.21
685.23	24584.99
685.37	24744.14
685.50	24416.47
685.64	24198.80
685.78	24381.36
685.91	23859.42
686.05	23894.53
686.19	23805.59
686.32	24084.11
686.46	23562.17
686.60	23597.28
686.73	23758.78
686.87	23578.56
687.01	23482.59
687.14	23307.05
687.28	23304.71
687.42	23058.96
687.55	23332.80
687.69	22948.95
687.82	23143.22
687.96	22895.12
688.10	23138.54
688.23	22735.96
688.37	22532.34
688.50	22188.28
688.64	22256.15
688.78	22209.34
688.91	21970.61
689.05	22239.77
689.18	22202.32
689.32	21500.16
689.46	21961.25
689.59	21965.93
689.73	22167.21
689.86	22288.92
690.00	21757.62
690.13	21895.71
690.27	21511.86
690.41	21661.66
690.54	21348.03
690.68	21268.45
690.81	21315.26
690.95	20762.89
691.08	20868.22
691.22	20947.79
691.35	21083.55
691.49	21008.65
691.62	20992.26
691.76	20896.30
691.89	20760.55
692.03	20381.38
692.16	20463.30
692.30	20379.04
692.43	20018.60
692.57	20107.54
692.70	20063.07
692.84	20236.27
692.97	19896.89
693.11	19927.32
693.24	19580.92
693.38	19686.25
693.51	19330.48
693.65	19524.75
693.78	19742.42
693.92	19276.65
694.05	19253.25
694.19	19297.72
694.32	19204.10
694.45	19302.40
694.59	19077.71
694.72	19047.28
694.86	18890.46
694.99	18614.28
695.13	18546.40
695.26	18256.18
695.39	18272.56
695.53	18462.15
695.66	18625.98
695.80	18445.76
695.93	18342.78
696.07	17961.27
696.20	18342.78
696.33	18010.42
696.47	18195.32
696.60	17951.91
696.73	18015.10
696.87	17809.14
697.00	17715.51
697.14	17710.83
697.27	17671.04
697.40	17715.51
697.54	17160.81
697.67	17177.19
697.80	17216.98
697.94	17212.30
698.07	17121.02
698.21	17099.95
698.34	17109.32
698.47	16940.80
698.61	16723.13
698.74	16585.04
698.87	16779.30
699.01	16601.42
699.14	16320.56
699.27	16290.13
699.40	16444.60
699.54	16304.17
699.67	16116.93
699.80	16259.70
699.94	16294.81
700.07	16191.83
700.20	16072.46
700.34	15817.34
700.47	15707.34
700.60	15901.60
700.73	15953.09
700.87	15557.54
701.00	15274.34
701.13	15822.02
701.26	15587.97
701.40	15403.07
701.53	15286.04
701.66	15494.35
701.79	15264.97
701.93	14953.68
702.06	14941.98
702.19	15229.87
702.32	14939.64
702.46	14668.14
702.59	14736.01
702.72	14724.31
702.85	14820.27
702.99	14822.61
703.12	14794.53
703.25	14539.41
703.38	14572.18
703.51	14235.14
703.65	14333.44
703.78	14244.50
703.91	14139.18
704.04	14090.02
704.17	13944.91
704.31	14218.75
704.44	13879.38
704.57	13551.70
704.70	13561.06
704.83	13607.87
704.96	13696.82
705.10	13942.57
705.23	13841.93
>>>>>End Processed Spectral Data<<<<<
