SpectraSuite Data File
++++++++++++++++++++++++++++++++++++
Date: Fri Oct 25 11:33:37 EDT 2013
User: price-jones
Dark Spectrum Present: No
Reference Spectrum Present: No
Number of Sampled Component Spectra: 1
Spectrometers: USB2+H05261
Integration Time (usec): 100000 (USB2+H05261)
Spectra Averaged: 1 (USB2+H05261)
Boxcar Smoothing: 0 (USB2+H05261)
Correct for Electrical Dark: No (USB2+H05261)
Strobe/Lamp Enabled: No (USB2+H05261)
Correct for Detector Non-linearity: No (USB2+H05261)
Correct for Stray Light: No (USB2+H05261)
Number of Pixels in Processed Spectrum: 2048
>>>>>Begin Processed Spectral Data<<<<<
365.73	227.03
365.92	227.03
366.12	227.03
366.32	196.60
366.52	205.97
366.72	168.52
366.91	217.67
367.11	217.67
367.31	236.39
367.51	152.13
367.70	182.56
367.90	182.56
368.10	163.84
368.30	119.37
368.49	145.11
368.69	215.33
368.89	189.58
369.09	163.84
369.28	119.37
369.48	128.73
369.68	229.37
369.87	269.16
370.07	245.76
370.27	266.82
370.47	315.97
370.66	458.74
370.86	505.56
371.06	547.69
371.25	645.99
371.45	507.90
371.65	514.92
371.84	475.13
372.04	535.98
372.24	503.22
372.44	561.73
372.63	528.96
372.83	528.96
373.03	592.16
373.22	566.41
373.42	645.99
373.62	669.39
373.81	667.05
374.01	664.71
374.21	688.12
374.40	669.39
374.60	711.52
374.79	648.33
374.99	571.09
375.19	634.29
375.38	613.22
375.58	603.86
375.78	713.86
375.97	636.63
376.17	622.58
376.37	592.16
376.56	592.16
376.76	702.16
376.95	748.97
377.15	746.63
377.35	641.31
377.54	667.05
377.74	622.58
377.93	723.23
378.13	732.59
378.33	699.82
378.52	662.37
378.72	760.67
378.91	744.29
379.11	709.18
379.31	720.88
379.50	667.05
379.70	784.08
379.89	681.10
380.09	674.07
380.28	674.07
380.48	758.33
380.68	746.63
380.87	788.76
381.07	779.40
381.26	770.04
381.46	767.70
381.65	741.95
381.85	704.50
382.04	763.01
382.24	812.17
382.43	842.59
382.63	807.48
382.83	777.06
383.02	877.70
383.22	751.31
383.41	765.36
383.61	802.80
383.80	779.40
384.00	786.42
384.19	851.96
384.39	903.45
384.58	786.42
384.78	800.46
384.97	856.64
385.17	821.53
385.36	884.72
385.56	819.19
385.75	823.87
385.95	898.77
386.14	805.14
386.34	779.40
386.53	828.55
386.72	868.34
386.92	847.27
387.11	901.11
387.31	851.96
387.50	929.19
387.70	844.93
387.89	938.55
388.09	971.32
388.28	966.64
388.48	861.32
388.67	997.07
388.86	884.72
389.06	1036.86
389.25	880.04
389.45	1036.86
389.64	905.79
389.84	957.28
390.03	954.94
390.22	943.24
390.42	976.00
390.61	1029.84
390.81	992.39
391.00	912.81
391.19	997.07
391.39	1050.90
391.58	992.39
391.78	1039.20
391.97	1004.09
392.16	973.66
392.36	1036.86
392.55	976.00
392.75	994.73
392.94	1088.35
393.13	1050.90
393.33	1074.31
393.52	1149.20
393.71	1034.52
393.91	1088.35
394.10	1074.31
394.29	1081.33
394.49	1006.43
394.68	1111.75
394.88	1123.46
395.07	1214.74
395.26	1170.27
395.46	1107.07
395.65	1266.23
395.84	1163.25
396.04	1224.10
396.23	1282.61
396.42	1221.76
396.62	1256.87
396.81	1135.16
397.00	1252.19
397.19	1210.06
397.39	1203.04
397.58	1245.16
397.77	1280.27
397.97	1261.55
398.16	1191.33
398.35	1228.78
398.55	1322.40
398.74	1261.55
398.93	1336.45
399.12	1280.27
399.32	1313.04
399.51	1343.47
399.70	1357.51
399.90	1397.30
400.09	1385.60
400.28	1416.02
400.47	1364.53
400.67	1404.32
400.86	1444.11
401.05	1362.19
401.24	1406.66
401.44	1432.41
401.63	1392.62
401.82	1504.96
402.01	1511.99
402.21	1406.66
402.40	1462.83
402.59	1469.86
402.78	1483.90
402.97	1502.62
403.17	1493.26
403.36	1514.33
403.55	1568.16
403.74	1650.08
403.93	1526.03
404.13	1596.25
404.32	1603.27
404.51	1575.18
404.70	1685.19
404.89	1563.48
405.09	1717.95
405.28	1680.50
405.47	1535.39
405.66	1701.57
405.85	1713.27
406.05	1750.72
406.24	1736.68
406.43	1680.50
406.62	1797.53
406.81	1846.68
407.00	1771.79
407.20	1809.23
407.39	1827.96
407.58	1853.70
407.77	1849.02
407.96	1832.64
408.15	1823.28
408.34	1893.49
408.54	1823.28
408.73	1923.92
408.92	1832.64
409.11	1898.17
409.30	2017.54
409.49	2078.40
409.68	2022.22
409.87	1935.62
410.07	2136.91
410.26	2080.74
410.45	2015.20
410.64	2076.06
410.83	2195.42
411.02	2085.42
411.21	2104.14
411.40	2092.44
411.59	2150.95
411.78	2232.87
411.98	2202.44
412.17	2228.19
412.36	2188.40
412.55	2291.38
412.74	2256.28
412.93	2342.88
413.12	2312.45
413.31	2394.37
413.50	2523.10
413.69	2413.09
413.88	2445.86
414.07	2480.97
414.26	2626.08
414.45	2506.71
414.64	2551.18
414.83	2495.01
415.02	2607.36
415.22	2548.84
415.41	2647.15
415.60	2572.25
415.79	2677.57
415.98	2768.85
416.17	2668.21
416.36	2789.92
416.55	2623.74
416.74	2773.53
416.93	2792.26
417.12	2799.28
417.31	2904.60
417.50	2956.10
417.69	2949.08
417.88	2939.71
418.07	2843.75
418.26	2930.35
418.45	3084.83
418.64	3080.14
418.83	3112.91
419.02	3061.42
419.21	3075.46
419.39	3103.55
419.58	3197.17
419.77	3045.04
419.96	3038.02
420.15	3220.58
420.34	3236.96
420.53	3131.64
420.72	3295.47
420.91	3276.75
421.10	3325.90
421.29	3243.98
421.48	3332.92
421.67	3353.99
421.86	3405.48
422.05	3286.11
422.24	3363.35
422.43	3318.88
422.61	3358.67
422.80	3454.63
422.99	3321.22
423.18	3475.70
423.37	3442.93
423.56	3391.44
423.75	3368.03
423.94	3328.24
424.13	3176.11
424.32	3290.79
424.50	3407.82
424.69	3611.45
424.88	3578.68
425.07	3384.41
425.26	3410.16
425.45	3400.80
425.64	3389.10
425.83	3463.99
426.01	3503.78
426.20	3468.67
426.39	3562.30
426.58	3365.69
426.77	3522.51
426.96	3499.10
427.15	3541.23
427.33	3590.38
427.52	3548.25
427.71	3616.13
427.90	3552.93
428.09	3665.28
428.28	3688.68
428.46	3726.13
428.65	3637.19
428.84	3791.67
429.03	3843.16
429.22	3536.55
429.40	3747.20
429.59	3805.71
429.78	3796.35
429.97	3660.60
430.16	3758.90
430.34	3974.23
430.53	3915.72
430.72	3861.88
430.91	3777.62
431.10	3864.22
431.28	3854.86
431.47	4023.38
431.66	4032.74
431.85	4007.00
432.03	4037.42
432.22	4163.81
432.41	4084.23
432.60	4121.68
432.79	4049.13
432.97	4140.41
433.16	4231.69
433.35	4109.98
433.54	4156.79
433.72	4241.05
433.91	4131.05
434.10	4133.39
434.28	4145.09
434.47	4196.58
434.66	4259.78
434.85	4166.15
435.03	4306.59
435.22	4456.38
435.41	4566.39
435.59	4421.27
435.78	4339.35
435.97	4479.79
436.16	4484.47
436.34	4550.00
436.53	4437.66
436.72	4573.41
436.90	4423.61
437.09	4512.55
437.28	4383.82
437.46	4482.13
437.65	4519.57
437.84	4690.43
438.02	4681.07
438.21	4638.94
438.40	4580.43
438.58	4786.40
438.77	4746.61
438.96	4685.75
439.14	4910.44
439.33	4910.44
439.52	5015.77
439.70	4938.53
439.89	4999.38
440.08	4917.47
440.26	5036.83
440.45	5027.47
440.63	5163.22
440.82	5224.08
441.01	5041.51
441.19	5146.84
441.38	5287.27
441.57	5336.42
441.75	5371.53
441.94	5392.59
442.12	5497.92
442.31	5362.17
442.50	5383.23
442.68	5380.89
442.87	5577.50
443.05	5406.64
443.24	5556.43
443.43	5582.18
443.61	5771.76
443.80	5778.78
443.98	5322.38
444.17	5266.21
444.35	5673.46
444.54	5710.91
444.73	5694.52
444.91	5671.12
445.10	5610.26
445.28	5694.52
445.47	5638.35
445.65	5710.91
445.84	5722.61
446.02	5900.49
446.21	5706.23
446.39	5764.74
446.58	5886.45
446.77	5722.61
446.95	5610.26
447.14	5685.16
447.32	5813.89
447.51	5706.23
447.69	5706.23
447.88	5790.49
448.06	5858.36
448.25	5753.04
448.43	5813.89
448.62	5902.83
448.80	5713.25
448.99	5900.49
449.17	6019.86
449.36	5933.26
449.54	6174.33
449.73	6129.86
449.91	6169.65
450.10	6031.56
450.28	6073.69
450.46	6190.72
450.65	6111.14
450.83	6076.03
451.02	6258.59
451.20	6293.70
451.39	6235.19
451.57	6258.59
451.76	6160.29
451.94	6326.47
452.13	6361.58
452.31	6274.98
452.49	6253.91
452.68	6209.44
452.86	6279.66
453.05	6298.38
453.23	6546.48
453.42	6293.70
453.60	6321.79
453.78	6450.52
453.97	6202.42
454.15	6335.83
454.34	6394.34
454.52	6661.16
454.70	6457.54
454.89	6616.69
455.07	6537.12
455.26	6698.61
455.44	6782.87
455.62	6682.23
455.81	6705.63
455.99	6717.34
456.17	6869.47
456.36	6932.67
456.54	6902.24
456.73	6874.15
456.91	7227.57
457.09	7152.68
457.28	6970.12
457.46	6958.41
457.64	7136.29
457.83	7269.70
458.01	7094.16
458.19	7358.64
458.38	7087.14
458.56	7337.58
458.74	7197.15
458.93	7075.44
459.11	7030.97
459.29	7304.81
459.48	7218.21
459.66	7297.79
459.84	7293.11
460.03	7461.63
460.21	7435.88
460.39	7431.20
460.57	7466.31
460.76	7559.93
460.94	7639.51
461.12	7412.48
461.31	7606.74
461.49	7634.83
461.67	7536.52
461.85	7676.96
462.04	7590.36
462.22	7983.57
462.40	7779.94
462.59	7616.10
462.77	7662.91
462.95	7854.84
463.13	7801.01
463.32	7772.92
463.50	7822.07
463.68	8009.31
463.86	7932.08
464.05	7911.01
464.23	7911.01
464.41	8018.68
464.59	7896.97
464.78	8044.42
464.96	8030.38
465.14	8013.99
465.32	8081.87
465.50	8215.28
465.69	8119.32
465.87	8201.24
466.05	8395.50
466.23	8210.60
466.41	8175.49
466.60	8418.91
466.78	8147.40
466.96	8203.58
467.14	8241.03
467.32	8336.99
467.51	8409.54
467.69	8320.60
467.87	8437.63
468.05	8444.65
468.23	8451.67
468.41	8376.78
468.60	8463.38
468.78	8465.72
468.96	8512.53
469.14	8662.32
469.32	8674.03
469.50	8414.23
469.69	8681.05
469.87	8795.73
470.05	8610.83
470.23	8865.95
470.41	8891.70
470.59	9048.51
470.77	8894.04
470.95	8975.95
471.14	9057.87
471.32	8664.66
471.50	9210.01
471.68	9013.40
471.86	9125.75
472.04	9156.18
472.22	9373.85
472.40	9067.24
472.58	9277.88
472.77	9336.40
472.95	9476.83
473.13	9694.50
473.31	9390.23
473.49	9497.89
473.67	9518.96
473.85	9614.92
474.03	9856.00
474.21	9710.88
474.39	9870.04
474.57	9823.23
474.75	9832.59
474.93	9867.70
475.12	10033.88
475.30	10090.05
475.48	9977.70
475.66	10277.29
475.84	10153.24
476.02	10186.01
476.20	10396.66
476.38	10539.43
476.56	10635.39
476.74	10607.31
476.92	10640.08
477.10	10579.22
477.28	10623.69
477.46	10806.25
477.64	10871.79
477.82	10824.98
478.00	11225.21
478.18	11452.24
478.36	11173.72
478.54	11265.00
478.72	11403.09
478.90	11496.71
479.08	11393.73
479.26	11765.87
479.44	11793.96
479.62	11964.82
479.80	11910.99
479.98	12072.48
480.16	12217.60
480.34	11995.25
480.52	12292.49
480.70	12271.43
480.88	12095.89
481.06	12308.88
481.24	12311.22
481.41	12493.78
481.59	12919.76
481.77	12744.22
481.95	12947.84
482.13	12971.25
482.31	13001.68
482.49	13362.12
482.67	13305.95
482.85	13699.16
483.03	13813.84
483.21	13586.81
483.39	13806.82
483.57	13738.94
483.74	13970.66
483.92	13886.40
484.10	14342.80
484.28	14314.72
484.46	14200.03
484.64	14941.98
484.82	14441.11
485.00	14682.18
485.18	14754.74
485.35	15105.82
485.53	15236.89
485.71	15386.68
485.89	15438.17
486.07	15318.81
486.25	15648.82
486.43	15587.97
486.61	15655.84
486.78	15810.32
486.96	15880.53
487.14	16196.51
487.32	16088.84
487.50	16255.02
487.68	16643.55
487.85	16563.97
488.03	16765.26
488.21	17064.85
488.39	17008.67
488.57	17081.23
488.75	17177.19
488.92	17408.90
489.10	17649.98
489.28	17575.08
489.46	17926.16
489.64	17799.77
489.81	18066.60
489.99	18221.07
490.17	18192.98
490.35	18462.15
490.53	18761.73
490.70	18750.03
490.88	18565.13
491.06	18902.17
491.24	19236.86
491.41	19021.53
491.59	19384.32
491.77	19173.67
491.95	19456.87
492.13	19655.82
492.30	19803.27
492.48	19733.06
492.66	19695.61
492.84	19943.70
493.01	20512.46
493.19	20194.14
493.37	20360.32
493.54	20533.52
493.72	20695.02
493.90	20737.15
494.08	20610.76
494.25	21003.97
494.43	21074.18
494.61	21394.84
494.79	21116.31
494.96	21488.46
495.14	21593.78
495.32	21752.94
495.49	21635.91
495.67	21975.29
495.85	21717.83
496.02	22167.21
496.20	22403.61
496.38	22359.14
496.55	22628.30
496.73	23260.24
496.91	22888.10
497.09	22923.21
497.26	23068.32
497.44	22871.72
497.62	23234.50
497.79	23864.10
497.97	23503.66
498.14	23285.99
498.32	23740.05
498.50	23772.82
498.67	23819.63
498.85	23943.68
499.03	24259.65
499.20	24350.93
499.38	24144.97
499.56	24372.00
499.73	24528.81
499.91	24809.68
500.08	24987.56
500.26	24425.83
500.44	24807.34
500.61	24704.35
500.79	24760.53
500.97	25385.45
501.14	25383.11
501.32	25397.15
501.49	25427.58
501.67	25631.21
501.84	25752.91
502.02	25462.69
502.20	25902.71
502.37	26038.46
502.55	25696.74
502.72	26059.52
502.90	25996.33
503.07	26246.77
503.25	26148.46
503.43	26326.35
503.60	26157.83
503.78	26314.64
503.95	26801.47
504.13	26483.16
504.30	26766.37
504.48	26721.90
504.65	27009.78
504.83	26904.46
505.01	26881.05
505.18	26986.38
505.36	27454.48
505.53	27145.53
505.71	27503.64
505.88	27220.43
506.06	27168.94
506.23	27742.37
506.41	27995.15
506.58	27747.05
506.76	27658.11
506.93	28283.03
507.11	27934.29
507.28	28201.11
507.46	28170.69
507.63	28601.35
507.81	28575.60
507.98	28268.99
508.16	28334.53
508.33	28851.78
508.50	28772.21
508.68	28594.32
508.85	29074.13
509.03	28936.04
509.20	29221.59
509.38	29593.73
509.55	29270.74
509.73	29621.82
509.90	29490.75
510.08	29624.16
510.25	29776.30
510.42	29411.17
510.60	30101.63
510.77	30202.27
510.95	30572.08
511.12	30312.28
511.30	30429.30
511.47	30225.68
511.64	30052.48
511.82	30487.82
511.99	30012.69
512.17	30426.96
512.34	30630.59
512.51	30974.65
512.69	30698.47
512.86	31091.68
513.04	31044.87
513.21	30960.61
513.38	31084.65
513.56	31077.63
513.73	31337.43
513.90	31480.21
514.08	31131.47
514.25	31515.31
514.43	31716.60
514.60	31529.36
514.77	32006.83
514.95	32023.21
515.12	31777.45
515.29	32175.34
515.47	31756.39
515.64	32091.09
515.81	31644.04
515.99	32180.03
516.16	32636.43
516.33	32404.72
516.51	32414.08
516.68	32086.40
516.85	32474.93
517.03	32570.90
517.20	32786.22
517.37	32498.34
517.54	33151.35
517.72	33003.89
517.89	33167.73
518.06	33261.35
518.24	33139.65
518.41	33064.75
518.58	33291.78
518.75	33179.43
518.93	33610.09
519.10	33888.62
519.27	33853.51
519.45	33605.41
519.62	33989.26
519.79	33661.58
519.96	33928.41
520.14	34036.07
520.31	33839.47
520.48	34033.73
520.65	34092.24
520.83	34677.38
521.00	34281.83
521.17	34476.09
521.34	34869.30
521.52	34504.18
521.69	34450.35
521.86	34735.89
522.03	34656.31
522.20	35150.17
522.38	35028.46
522.55	35150.17
522.72	35435.71
522.89	34986.33
523.07	35311.66
523.24	35494.22
523.41	35639.34
523.58	35152.51
523.75	35463.80
523.92	35510.61
524.10	35990.42
524.27	35859.35
524.44	35756.36
524.61	35648.70
524.78	35941.27
524.96	36217.45
525.13	35962.33
525.30	36116.81
525.47	35889.77
525.64	36032.55
525.81	36112.13
525.98	36423.42
526.16	36238.51
526.33	36322.77
526.50	36652.79
526.67	36453.84
526.84	36673.85
527.01	36898.55
527.18	36814.29
527.36	36971.10
527.53	37326.86
527.70	37364.31
527.87	37223.88
528.04	37258.99
528.21	37102.17
528.38	36947.70
528.55	37205.16
528.72	37083.45
528.89	37483.68
529.07	37324.52
529.24	37614.75
529.41	37525.81
529.58	37364.31
529.75	37806.67
529.92	37493.04
530.09	37958.81
530.26	37876.89
530.43	38017.32
530.60	37256.65
530.77	37930.72
530.94	38148.39
531.11	37942.42
531.28	38267.76
531.46	38258.40
531.63	38265.42
531.80	38153.07
531.97	38639.90
532.14	38754.59
532.31	38450.32
532.48	38728.84
532.65	38686.71
532.82	38520.54
532.99	38665.65
533.16	38714.80
533.33	39016.73
533.50	38747.57
533.67	38649.27
533.84	38658.63
534.01	38609.48
534.18	39042.48
534.35	39470.79
534.52	39154.82
534.69	39405.26
534.86	39082.27
535.03	39236.74
535.20	39360.79
535.37	39400.58
535.54	39440.37
535.71	39655.70
535.88	39821.87
536.05	39643.99
536.22	39845.28
536.38	39742.30
536.55	39686.12
536.72	39812.51
536.89	39828.90
537.06	40208.06
537.23	40165.93
537.40	39889.75
537.57	39997.41
537.74	39672.08
537.91	40610.64
538.08	39732.93
538.25	39899.11
538.42	40332.11
538.59	40617.66
538.75	40158.91
538.92	40837.67
539.09	40687.87
539.26	40718.30
539.43	40814.26
539.60	40364.88
539.77	40502.97
539.94	41305.77
540.11	41001.50
540.28	40858.73
540.44	40884.48
540.61	40690.21
540.78	40547.44
540.95	41137.26
541.12	41263.64
541.29	40807.24
541.46	40978.10
541.62	41333.86
541.79	41469.61
541.96	41188.75
542.13	41418.12
542.30	41495.36
542.47	41759.84
542.63	41593.66
542.80	41808.99
542.97	41888.57
543.14	42021.98
543.31	41954.10
543.48	41720.05
543.64	42459.66
543.81	41972.83
543.98	42101.56
544.15	42316.89
544.32	42298.16
544.48	42616.47
544.65	42604.77
544.82	42244.33
544.99	41982.19
545.16	42389.44
545.32	42412.85
545.49	42574.34
545.66	43391.19
545.83	42206.88
546.00	42883.30
546.16	42813.08
546.33	42581.37
546.50	42382.42
546.67	43426.30
546.83	42602.43
547.00	42815.42
547.17	42696.05
547.34	42747.54
547.50	43227.35
547.67	43196.93
547.84	43278.85
548.00	43496.52
548.17	43227.35
548.34	43147.78
548.51	43580.78
548.67	43442.68
548.84	43304.59
549.01	43173.52
549.18	43679.08
549.34	43646.31
549.51	43653.33
549.68	43384.17
549.84	43276.51
550.01	43669.72
550.18	43358.42
550.34	43807.81
550.51	43868.66
550.68	43606.52
550.84	43531.62
551.01	44182.29
551.18	43915.47
551.34	43828.87
551.51	44116.76
551.68	44292.30
551.84	43803.13
552.01	43674.40
552.18	44163.57
552.34	43896.75
552.51	44191.65
552.68	44100.37
552.84	44268.89
553.01	44257.19
553.18	44652.74
553.34	44465.50
553.51	43976.33
553.67	44034.84
553.84	44524.01
554.01	44458.48
554.17	44624.65
554.34	44418.69
554.51	44542.74
554.67	44404.64
554.84	44603.59
555.00	44608.27
555.17	44678.49
555.33	44631.68
555.50	44879.77
555.67	44940.63
555.83	44931.26
556.00	45020.20
556.16	45680.24
556.33	45134.89
556.50	44821.26
556.66	44889.13
556.83	44516.99
556.99	45085.74
557.16	45165.32
557.32	45593.64
557.49	45371.28
557.65	45214.47
557.82	45125.53
557.98	45029.57
558.15	45516.40
558.32	45272.98
558.48	45305.75
558.65	45216.81
558.81	45088.08
558.98	45593.64
559.14	44861.05
559.31	45270.64
559.47	45507.04
559.64	45261.28
559.80	45638.11
559.97	45626.40
560.13	44933.60
560.30	45607.68
560.46	46014.93
560.63	46096.85
560.79	45715.34
560.96	45830.03
561.12	46106.21
561.29	45673.21
561.45	45794.92
561.61	45471.93
561.78	45797.26
561.94	45808.96
562.11	45116.17
562.27	45558.53
562.44	45811.31
562.60	45717.68
562.77	45839.39
562.93	45904.93
563.10	46466.66
563.26	46178.77
563.42	46436.23
563.59	46017.27
563.75	45848.75
563.92	46256.01
564.08	46127.28
564.24	46085.15
564.41	46209.20
564.57	45825.35
564.74	45951.74
564.90	46059.40
565.07	46344.95
565.23	46141.32
565.39	46349.63
565.56	46162.39
565.72	46176.43
565.88	46377.72
566.05	46508.79
566.21	46401.12
566.38	46557.94
566.54	46328.56
566.70	46300.48
566.87	46667.94
567.03	46515.81
567.19	46689.01
567.36	46719.43
567.52	46546.23
567.68	46398.78
567.85	46323.88
568.01	46649.22
568.17	46410.48
568.34	46307.50
568.50	46799.01
568.66	46417.50
568.83	46595.38
568.99	46742.84
569.15	46611.77
569.32	46061.74
569.48	46679.64
569.64	46721.77
569.81	46852.84
569.97	46532.19
570.13	47192.22
570.30	46700.71
570.46	46478.36
570.62	46731.14
570.78	46822.42
570.95	46667.94
571.11	46672.62
571.27	47061.15
571.43	46632.83
571.60	46532.19
571.76	46485.38
571.92	46810.71
572.09	46796.67
572.25	46747.52
572.41	46415.16
572.57	46890.29
572.74	47164.14
572.90	46609.43
573.06	47267.12
573.22	46836.46
573.38	46803.69
573.55	47428.62
573.71	46993.28
573.87	46810.71
574.03	47091.58
574.20	47449.68
574.36	47384.15
574.52	47421.59
574.68	47304.57
574.84	47489.47
575.01	47288.18
575.17	47278.82
575.33	47601.82
575.49	46791.99
575.65	47351.38
575.82	47302.23
575.98	46672.62
576.14	47239.03
576.30	47353.72
576.46	47210.95
576.62	47009.66
576.79	47679.05
576.95	46342.61
577.11	46906.68
577.27	46733.48
577.43	46939.44
577.59	47257.76
577.75	47164.14
577.92	47103.28
578.08	47388.83
578.24	47016.68
578.40	47363.08
578.56	47295.21
578.72	47157.11
578.88	47283.50
579.04	47152.43
579.21	47070.51
579.37	47159.45
579.53	47311.59
579.69	47180.52
579.85	47058.81
580.01	47189.88
580.17	47189.88
580.33	47580.75
580.49	47161.79
580.65	47674.37
580.82	47416.91
580.98	47150.09
581.14	47161.79
581.30	47107.96
581.46	47452.02
581.62	47379.46
581.78	47334.99
581.94	47098.60
582.10	46974.55
582.26	47292.86
582.42	47594.79
582.58	47201.58
582.74	47437.98
582.90	47370.10
583.06	47405.21
583.22	47428.62
583.38	47164.14
583.54	47203.92
583.70	47466.06
583.86	47779.70
584.02	47264.78
584.18	47632.24
584.34	47311.59
584.50	47416.91
584.66	47583.09
584.82	47323.29
584.98	47583.09
585.14	47283.50
585.30	47739.91
585.46	47051.79
585.62	47285.84
585.78	47189.88
585.94	47306.91
586.10	47456.70
586.26	47147.75
586.42	47405.21
586.58	47402.87
586.74	47449.68
586.90	47129.03
587.06	47538.62
587.22	47653.31
587.38	47798.42
587.54	47760.97
587.70	47643.94
587.86	47786.72
588.02	47791.40
588.18	47700.12
588.34	47517.56
588.49	47732.89
588.65	47093.92
588.81	47433.30
588.97	47398.19
589.13	47988.00
589.29	47901.40
589.45	47702.46
589.61	47859.27
589.77	47786.72
589.93	47552.66
590.08	47964.60
590.24	48095.67
590.40	47952.90
590.56	48109.71
590.72	47868.64
590.88	47737.57
591.04	47636.92
591.20	47718.84
591.35	47999.71
591.51	48456.11
591.67	48037.16
591.83	48238.44
591.99	47831.19
592.15	48002.05
592.31	47737.57
592.46	48107.37
592.62	47824.17
592.78	48413.98
592.94	48039.50
593.10	48229.08
593.26	48313.34
593.41	48664.42
593.57	48088.65
593.73	48114.39
593.89	48409.30
594.05	48491.22
594.20	48456.11
594.36	48624.63
594.52	48296.95
594.68	48219.72
594.84	48264.19
594.99	48259.51
595.15	47934.17
595.31	47955.24
595.47	48463.13
595.62	48294.61
595.78	48088.65
595.94	48149.50
596.10	48175.25
596.25	48505.26
596.41	48671.44
596.57	47842.89
596.73	48385.89
596.88	48212.70
597.04	48383.55
597.20	48477.18
597.36	48020.77
597.51	48294.61
597.67	48067.58
597.83	48037.16
597.99	48573.14
598.14	48020.77
598.30	48598.88
598.46	48240.78
598.61	48222.06
598.77	48355.47
598.93	48413.98
599.09	48456.11
599.24	48582.50
599.40	48264.19
599.56	48458.45
599.71	48744.00
599.87	48795.49
600.03	48533.35
600.18	48477.18
600.34	48633.99
600.50	48296.95
600.65	48659.74
600.81	48837.62
600.97	48825.92
601.12	48392.92
601.28	48250.14
601.44	48624.63
601.59	48259.51
601.75	48507.60
601.91	48626.97
602.06	47952.90
602.22	48413.98
602.37	48123.75
602.53	48573.14
602.69	48552.07
602.84	48413.98
603.00	48605.91
603.16	48240.78
603.31	48268.87
603.47	48275.89
603.62	48301.64
603.78	48428.02
603.94	48519.31
604.09	48435.05
604.25	48446.75
604.40	48744.00
604.56	48296.95
604.71	48390.58
604.87	48526.33
605.03	48229.08
605.18	48584.84
605.34	48404.62
605.49	48367.17
605.65	48495.90
605.80	48018.43
605.96	47863.96
606.12	48102.69
606.27	48704.21
606.43	48090.99
606.58	48854.00
606.74	48404.62
606.89	48289.93
607.05	48561.44
607.20	48105.03
607.36	48488.88
607.51	48467.81
607.67	48203.33
607.82	47665.01
607.98	48341.42
608.13	48112.05
608.29	48226.74
608.44	48224.40
608.60	48430.36
608.75	48435.05
608.91	48432.71
609.06	47784.38
609.22	48367.17
609.37	47784.38
609.53	48133.12
609.68	48318.02
609.84	47969.28
609.99	47863.96
610.15	48030.13
610.30	48041.84
610.46	47922.47
610.61	47817.14
610.76	48360.15
610.92	48144.82
611.07	47587.77
611.23	48058.22
611.38	47662.67
611.54	47866.30
611.69	48200.99
611.84	47796.08
612.00	48182.27
612.15	47962.26
612.31	48135.46
612.46	47840.55
612.62	47524.58
612.77	48156.52
612.92	48210.35
613.08	47683.73
613.23	48074.60
613.39	47592.45
613.54	47445.00
613.69	48051.20
613.85	47992.68
614.00	47807.78
614.15	47753.95
614.31	47519.90
614.46	47976.30
614.62	47657.99
614.77	47718.84
614.92	47665.01
615.08	47540.96
615.23	47765.65
615.38	47681.39
615.54	47618.20
615.69	47737.57
615.84	47508.19
616.00	47875.66
616.15	47667.35
616.30	47849.91
616.46	47627.56
616.61	47384.15
616.76	47543.30
616.92	47538.62
617.07	47655.65
617.22	47533.94
617.37	47187.54
617.53	47290.52
617.68	47473.09
617.83	47187.54
617.99	47405.21
618.14	47920.13
618.29	47138.39
618.45	47136.05
618.60	47187.54
618.75	47051.79
618.90	47323.29
619.06	47136.05
619.21	47112.64
619.36	47583.09
619.51	47136.05
619.67	46916.04
619.82	47166.48
619.97	47391.17
620.12	46791.99
620.28	46969.87
620.43	47316.27
620.58	46988.60
620.73	47049.45
620.89	47260.10
621.04	46916.04
621.19	46841.14
621.34	46904.34
621.49	46880.93
621.65	47253.08
621.80	46960.51
621.95	47295.21
622.10	46883.27
622.25	46686.67
622.41	46733.48
622.56	46897.31
622.71	46717.09
622.86	46927.74
623.01	46948.81
623.16	46909.02
623.32	46822.42
623.47	46714.75
623.62	46686.67
623.77	46724.11
623.92	46581.34
624.07	46890.29
624.23	46824.76
624.38	46796.67
624.53	46237.28
624.68	46700.71
624.83	46836.46
624.98	46461.97
625.13	45815.99
625.29	46092.17
625.44	46279.41
625.59	46220.90
625.74	46529.85
625.89	46314.52
626.04	46459.63
626.19	46232.60
626.34	46340.27
626.49	46218.56
626.65	45883.86
626.80	46192.81
626.95	45947.06
627.10	45858.12
627.25	46211.54
627.40	46176.43
627.55	45731.73
627.70	46265.37
627.85	46092.17
628.00	46089.83
628.15	46000.89
628.30	45434.48
628.45	45581.93
628.60	45516.40
628.76	45661.51
628.91	45488.31
629.06	45099.78
629.21	46003.23
629.36	45488.31
629.51	45673.21
629.66	46124.94
629.81	45406.39
629.96	45914.29
630.11	45998.55
630.26	45354.90
630.41	45223.83
630.56	45560.87
630.71	45528.10
630.86	45413.41
631.01	45598.32
631.16	45352.56
631.31	45659.17
631.46	45647.47
631.61	45591.30
631.76	45600.66
631.91	45535.12
632.06	45556.19
632.21	45397.03
632.36	45427.46
632.51	45287.03
632.66	45691.94
632.81	45174.68
632.96	44994.46
633.10	44842.32
633.25	45462.57
633.40	45041.27
633.55	45455.54
633.70	45392.35
633.85	45331.50
634.00	45059.99
634.15	45186.38
634.30	45120.85
634.45	44973.39
634.60	44622.31
634.75	44942.97
634.90	44605.93
635.05	45249.58
635.19	44917.22
635.34	45090.42
635.49	44884.45
635.64	44814.24
635.79	45102.12
635.94	45041.27
636.09	44982.76
636.24	44959.35
636.39	44524.01
636.53	44399.96
636.68	44460.82
636.83	44582.52
636.98	44402.30
637.13	44123.78
637.28	44348.47
637.43	44865.73
637.57	44350.81
637.72	44198.68
637.87	44423.37
638.02	44325.07
638.17	44428.05
638.32	44154.21
638.46	43950.58
638.61	44165.91
638.76	44018.46
638.91	44025.48
639.06	44055.90
639.20	43819.51
639.35	44137.82
639.50	43880.36
639.65	44095.69
639.80	44189.31
639.94	44116.76
640.09	44095.69
640.24	44023.14
640.39	43641.63
640.54	43608.86
640.68	44233.78
640.83	44428.05
640.98	43786.74
641.13	43634.61
641.27	44357.83
641.42	43782.06
641.57	43868.66
641.72	43690.78
641.86	43976.33
642.01	43566.73
642.16	43536.30
642.31	43182.88
642.45	43810.15
642.60	43356.08
642.75	43599.50
642.90	43484.81
643.04	43433.32
643.19	43342.04
643.34	43349.06
643.48	43075.22
643.63	43393.53
643.78	43349.06
643.93	43463.75
644.07	43306.93
644.22	43023.73
644.37	43082.24
644.51	43084.58
644.66	43035.43
644.81	43353.74
644.95	43274.16
645.10	43154.80
645.25	43021.39
645.39	42808.40
645.54	43236.72
645.69	42485.40
645.83	42803.72
645.98	42583.71
646.13	42897.34
646.27	42859.89
646.42	42595.41
646.57	42478.38
646.71	43042.45
646.86	43044.79
647.00	43051.81
647.15	43098.62
647.30	43089.26
647.44	43023.73
647.59	42967.55
647.74	42462.00
647.88	42658.60
648.03	43105.65
648.17	43285.87
648.32	42801.38
648.47	42953.51
648.61	42637.54
648.76	42447.96
648.90	42700.73
649.05	42536.90
649.20	42611.79
649.34	42532.22
649.49	42405.83
649.63	42557.96
649.78	42848.19
649.92	42256.03
650.07	42897.34
650.21	42607.11
650.36	42574.34
650.51	42707.76
650.65	42344.97
650.80	42396.46
650.94	42391.78
651.09	42150.71
651.23	41968.15
651.38	42101.56
651.52	41844.10
651.67	41612.38
651.81	41958.78
651.96	41909.63
652.10	41757.50
652.25	41691.96
652.39	41581.96
652.54	41907.29
652.68	41865.16
652.83	42515.83
652.97	42344.97
653.12	41750.48
653.26	41619.41
653.41	41478.97
653.55	41642.81
653.70	41956.44
653.84	42199.86
653.99	42066.45
654.13	41832.39
654.27	41481.31
654.42	41642.81
654.56	41474.29
654.71	41366.63
654.85	41757.50
655.00	41883.89
655.14	42092.19
655.29	41553.87
655.43	41727.07
655.57	41626.43
655.72	41420.46
655.86	41404.08
656.01	40973.42
656.15	41172.36
656.30	41469.61
656.44	40999.16
656.58	41198.11
656.73	41038.95
656.87	40643.40
657.01	41083.42
657.16	41109.17
657.30	41453.23
657.45	41319.82
657.59	40877.46
657.73	40734.68
657.88	41177.04
658.02	40772.13
658.16	40989.80
658.31	40832.99
658.45	40758.09
658.60	40893.84
658.74	41055.34
658.88	40589.57
659.03	40612.98
659.17	40725.32
659.31	40388.28
659.46	40509.99
659.60	40690.21
659.74	40772.13
659.89	40062.95
660.03	40098.06
660.17	40158.91
660.32	40371.90
660.46	40488.93
660.60	40032.52
660.74	40350.84
660.89	40311.05
661.03	39964.65
661.17	39906.13
661.32	39868.69
661.46	40257.21
661.60	40126.14
661.74	39594.84
661.89	39679.10
662.03	39739.96
662.17	39482.50
662.31	39653.36
662.46	39367.81
662.60	39400.58
662.74	38981.62
662.88	39154.82
663.03	38672.67
663.17	38759.27
663.31	39063.54
663.45	39082.27
663.60	39423.98
663.74	39072.90
663.88	38794.38
664.02	38801.40
664.17	39395.90
664.31	38714.80
664.45	38342.66
664.59	38810.76
664.73	38883.32
664.88	38756.93
665.02	38211.59
665.16	38639.90
665.30	38590.75
665.44	38298.19
665.59	38293.50
665.73	37970.51
665.87	38043.07
666.01	37820.72
666.15	38408.19
666.29	37909.66
666.44	38122.65
666.58	37872.21
666.72	37846.46
666.86	37745.82
667.00	37942.42
667.14	37872.21
667.28	37600.71
667.43	37876.89
667.57	38195.20
667.71	37806.67
667.85	38080.52
667.99	37790.29
668.13	37165.37
668.27	37530.49
668.41	37212.18
668.56	36472.57
668.70	36828.33
668.84	36872.80
668.98	36687.90
669.12	36825.99
669.26	37333.89
669.40	37099.83
669.54	36809.61
669.68	37060.04
669.82	36458.52
669.96	36669.17
670.10	36013.82
670.25	36594.28
670.39	35845.30
670.53	36697.26
670.67	36079.36
670.81	36481.93
670.95	36615.34
671.09	36339.16
671.23	35611.25
671.37	35917.86
671.51	35676.79
671.65	36027.87
671.79	35391.24
671.93	35651.04
672.07	35908.50
672.21	35669.76
672.35	35424.01
672.49	35466.14
672.63	35264.85
672.77	34803.77
672.91	35538.69
673.05	35346.77
673.19	35098.67
673.33	34691.42
673.47	34771.00
673.61	34672.70
673.75	34983.99
673.89	34820.15
674.03	34075.86
674.17	33919.04
674.31	34082.88
674.45	34157.78
674.59	34064.16
674.73	33907.34
674.87	34085.22
675.01	33818.40
675.15	33486.04
675.29	33235.61
675.43	33392.42
675.56	33488.38
675.70	33738.82
675.84	33298.80
675.98	32128.53
676.12	33130.28
676.26	33567.96
676.40	33060.07
676.54	32769.84
676.68	32912.61
676.82	32067.68
676.96	32591.96
677.10	32716.01
677.23	32641.11
677.37	32161.30
677.51	32477.27
677.65	32339.18
677.79	32048.96
677.93	32151.94
678.07	32299.39
678.21	31845.33
678.34	31688.51
678.48	31505.95
678.62	31206.36
678.76	31440.42
678.90	31236.79
679.04	31412.33
679.18	31559.78
679.31	31353.82
679.45	31147.85
679.59	30625.91
679.73	31213.38
679.87	30932.52
680.00	30614.21
680.14	30689.10
680.28	31065.93
680.42	30061.84
680.56	30017.37
680.70	30298.23
680.83	30333.34
680.97	30017.37
681.11	30118.01
681.25	29921.41
681.39	29427.56
681.52	29544.58
681.66	29371.38
681.80	28744.12
681.94	28631.77
682.07	28879.87
682.21	28971.15
682.35	29202.86
682.49	28802.63
682.62	28755.82
682.76	28912.64
682.90	28421.13
683.04	28463.25
683.17	28519.43
683.31	28369.63
683.45	27754.07
683.59	27938.97
683.72	27999.83
683.86	27866.42
684.00	27625.34
684.13	27264.90
684.27	27246.18
684.41	27552.79
684.55	27718.96
684.68	27342.14
684.82	26869.35
684.96	27077.66
685.09	27288.31
685.23	27124.47
685.37	26845.94
685.50	27346.82
685.64	26841.26
685.78	26937.23
685.91	26302.94
686.05	26127.40
686.19	26031.44
686.32	26068.89
686.46	25790.36
686.60	25631.21
686.73	25963.56
686.87	25839.51
687.01	26089.95
687.14	25731.85
687.28	25525.88
687.42	25563.33
687.55	25425.24
687.69	25179.48
687.82	24861.17
687.96	25027.35
688.10	25184.16
688.23	25017.99
688.37	25003.94
688.50	25090.54
688.64	25144.38
688.78	24779.25
688.91	24301.78
689.05	24592.01
689.18	24105.18
689.32	23910.91
689.46	23939.00
689.59	23370.25
689.73	23901.55
689.86	24034.96
690.00	23627.71
690.13	23587.92
690.27	23618.35
690.41	23555.15
690.54	23304.71
690.68	23438.12
690.81	23201.73
690.95	23164.28
691.08	22988.74
691.22	22565.10
691.35	22897.46
691.49	22782.77
691.62	22714.90
691.76	22288.92
691.89	22031.46
692.03	22178.92
692.16	22183.60
692.30	21687.40
692.43	21619.53
692.57	21902.73
692.70	21570.38
692.84	21724.85
692.97	21312.92
693.11	21696.77
693.24	21113.97
693.38	21238.02
693.51	21125.68
693.65	20865.88
693.78	20952.48
693.92	20664.59
694.05	20781.62
694.19	20596.71
694.32	20889.28
694.45	20884.60
694.59	20908.01
694.72	20929.07
694.86	20259.68
694.99	20231.59
695.13	20086.48
695.26	19798.59
695.39	19789.23
695.53	19527.09
695.66	19775.19
695.80	19901.58
695.93	19985.83
696.07	19644.12
696.20	18890.46
696.33	19396.02
696.47	19307.08
696.60	19002.81
696.73	19503.68
696.87	19002.81
697.00	18747.69
697.14	18754.71
697.27	18911.53
697.40	18520.66
697.54	18738.33
697.67	18326.39
697.80	18738.33
697.94	18310.01
698.07	18569.81
698.21	18080.64
698.34	18211.71
698.47	17914.46
698.61	17593.81
698.74	17584.44
698.87	17544.66
699.01	17427.63
699.14	17537.63
699.27	17685.09
699.40	17219.32
699.54	17355.07
699.67	17345.71
699.80	17181.87
699.94	17102.29
700.07	17362.09
700.20	16809.73
700.34	16547.59
700.47	16711.42
700.60	16959.52
700.73	16732.49
700.87	16538.23
701.00	16374.39
701.13	16372.05
701.26	16205.87
701.40	16046.71
701.53	15943.73
701.66	16056.08
701.79	16133.31
701.93	15922.66
702.06	15707.34
702.19	15405.41
702.32	15690.95
702.46	15585.63
702.59	15609.03
702.72	15885.22
702.85	15700.31
702.99	15346.89
703.12	15257.95
703.25	15157.31
703.38	15227.53
703.51	15190.08
703.65	15014.54
703.78	14686.86
703.91	14658.78
704.04	14602.60
704.17	14382.59
704.31	14586.22
704.44	14427.06
704.57	14443.45
704.70	14185.99
704.83	14307.69
704.96	13954.27
705.10	14047.90
705.23	13790.44
>>>>>End Processed Spectral Data<<<<<
