SpectraSuite Data File
++++++++++++++++++++++++++++++++++++
Date: Fri Oct 25 11:33:56 EDT 2013
User: price-jones
Dark Spectrum Present: No
Reference Spectrum Present: No
Number of Sampled Component Spectra: 1
Spectrometers: USB2+H05261
Integration Time (usec): 100000 (USB2+H05261)
Spectra Averaged: 1 (USB2+H05261)
Boxcar Smoothing: 0 (USB2+H05261)
Correct for Electrical Dark: No (USB2+H05261)
Strobe/Lamp Enabled: No (USB2+H05261)
Correct for Detector Non-linearity: No (USB2+H05261)
Correct for Stray Light: No (USB2+H05261)
Number of Pixels in Processed Spectrum: 2048
>>>>>Begin Processed Spectral Data<<<<<
365.73	327.68
365.92	327.68
366.12	327.68
366.32	201.29
366.52	220.01
366.72	170.86
366.91	152.13
367.11	212.99
367.31	131.07
367.51	140.43
367.70	156.82
367.90	208.31
368.10	180.22
368.30	175.54
368.49	191.92
368.69	259.80
368.89	187.24
369.09	229.37
369.28	299.59
369.48	142.77
369.68	180.22
369.87	191.92
370.07	222.35
370.27	250.44
370.47	271.50
370.66	475.13
370.86	552.37
371.06	472.79
371.25	531.30
371.45	557.05
371.65	606.20
371.84	594.50
372.04	557.05
372.24	484.49
372.44	571.09
372.63	601.52
372.83	622.58
373.03	561.73
373.22	622.58
373.42	622.58
373.62	627.26
373.81	650.67
374.01	690.46
374.21	613.22
374.40	706.84
374.60	683.44
374.79	695.14
374.99	617.90
375.19	685.78
375.38	662.37
375.58	676.41
375.78	664.71
375.97	641.31
376.17	725.57
376.37	667.05
376.56	620.24
376.76	589.82
376.95	608.54
377.15	683.44
377.35	702.16
377.54	657.69
377.74	741.95
377.93	713.86
378.13	709.18
378.33	748.97
378.52	720.88
378.72	688.12
378.91	702.16
379.11	713.86
379.31	718.54
379.50	770.04
379.70	629.60
379.89	704.50
380.09	755.99
380.28	695.14
380.48	725.57
380.68	718.54
380.87	767.70
381.07	669.39
381.26	748.97
381.46	744.29
381.65	741.95
381.85	830.89
382.04	758.33
382.24	791.10
382.43	798.12
382.63	798.12
382.83	849.61
383.02	828.55
383.22	777.06
383.41	784.08
383.61	849.61
383.80	730.25
384.00	910.47
384.19	795.78
384.39	711.52
384.58	784.08
384.78	711.52
384.97	755.99
385.17	912.81
385.36	863.66
385.56	767.70
385.75	828.55
385.95	830.89
386.14	887.06
386.34	798.12
386.53	784.08
386.72	830.89
386.92	903.45
387.11	868.34
387.31	851.96
387.50	854.30
387.70	964.30
387.89	882.38
388.09	866.00
388.28	805.14
388.48	922.17
388.67	940.90
388.86	919.83
389.06	903.45
389.25	971.32
389.45	973.66
389.64	952.60
389.84	992.39
390.03	957.28
390.22	971.32
390.42	987.71
390.61	1050.90
390.81	954.94
391.00	959.62
391.19	1018.13
391.39	945.58
391.58	1006.43
391.78	978.34
391.97	1076.65
392.16	994.73
392.36	1081.33
392.55	1036.86
392.75	1139.84
392.94	997.07
393.13	1036.86
393.33	1057.92
393.52	1149.20
393.71	1074.31
393.91	1018.13
394.10	1027.50
394.29	1104.73
394.49	1022.81
394.68	1146.86
394.88	1102.39
395.07	1163.25
395.26	1177.29
395.46	1100.05
395.65	1226.44
395.84	1100.05
396.04	1306.02
396.23	1207.72
396.42	1203.04
396.62	1153.88
396.81	1158.57
397.00	1226.44
397.19	1121.12
397.39	1224.10
397.58	1308.36
397.77	1177.29
397.97	1308.36
398.16	1270.91
398.35	1287.29
398.55	1200.69
398.74	1350.49
398.93	1294.32
399.12	1329.42
399.32	1334.11
399.51	1299.00
399.70	1313.04
399.90	1390.28
400.09	1427.73
400.28	1502.62
400.47	1376.24
400.67	1474.54
400.86	1455.81
401.05	1413.68
401.24	1392.62
401.44	1448.79
401.63	1427.73
401.82	1479.22
402.01	1329.42
402.21	1479.22
402.40	1462.83
402.59	1490.92
402.78	1493.26
402.97	1483.90
403.17	1561.14
403.36	1568.16
403.55	1544.75
403.74	1675.82
403.93	1626.67
404.13	1643.06
404.32	1551.78
404.51	1540.07
404.70	1717.95
404.89	1687.53
405.09	1638.38
405.28	1673.48
405.47	1680.50
405.66	1643.06
405.85	1661.78
406.05	1720.29
406.24	1753.06
406.43	1699.23
406.62	1746.04
406.81	1825.62
407.00	1757.74
407.20	1825.62
407.39	1797.53
407.58	1863.07
407.77	1799.87
407.96	1881.79
408.15	1834.98
408.34	1858.39
408.54	1886.47
408.73	1844.34
408.92	1956.69
409.11	1989.46
409.30	1944.99
409.49	1973.07
409.68	1991.80
409.87	1994.14
410.07	2062.01
410.26	2040.95
410.45	1975.41
410.64	2078.40
410.83	2120.53
411.02	2115.84
411.21	2071.37
411.40	2101.80
411.59	2160.31
411.78	2115.84
411.98	2160.31
412.17	2291.38
412.36	2256.28
412.55	2366.28
412.74	2352.24
412.93	2401.39
413.12	2342.88
413.31	2394.37
413.50	2434.16
413.69	2303.09
413.88	2459.90
414.07	2436.50
414.26	2586.29
414.45	2546.50
414.64	2541.82
414.83	2642.46
415.02	2429.48
415.22	2647.15
415.41	2679.91
415.60	2703.32
415.79	2722.04
415.98	2857.79
416.17	2759.49
416.36	2668.21
416.55	2679.91
416.74	2923.33
416.93	2705.66
417.12	2717.36
417.31	2768.85
417.50	2876.52
417.69	2899.92
417.88	2988.86
418.07	3089.51
418.26	2874.18
418.45	3023.97
418.64	3035.67
418.83	3035.67
419.02	3012.27
419.21	2935.03
419.39	3056.74
419.58	3101.21
419.77	3000.57
419.96	3136.32
420.15	3164.40
420.34	3159.72
420.53	3117.59
420.72	3283.77
420.91	3274.41
421.10	3199.51
421.29	3269.73
421.48	3279.09
421.67	3295.47
421.86	3346.97
422.05	3253.34
422.24	3316.54
422.43	3309.52
422.61	3363.35
422.80	3316.54
422.99	3356.33
423.18	3442.93
423.37	3468.67
423.56	3417.18
423.75	3382.07
423.94	3389.10
424.13	3248.66
424.32	3234.62
424.50	3325.90
424.69	3503.78
424.88	3452.29
425.07	3361.01
425.26	3361.01
425.45	3438.25
425.64	3438.25
425.83	3534.21
426.01	3506.12
426.20	3510.80
426.39	3508.46
426.58	3440.59
426.77	3475.70
426.96	3545.91
427.15	3515.48
427.33	3534.21
427.52	3562.30
427.71	3538.89
427.90	3543.57
428.09	3588.04
428.28	3646.55
428.46	3705.07
428.65	3754.22
428.84	3815.07
429.03	3925.08
429.22	3758.90
429.40	3796.35
429.59	3714.43
429.78	3604.42
429.97	3648.90
430.16	3772.94
430.34	3803.37
430.53	3775.28
430.72	3913.38
430.91	3908.69
431.10	3801.03
431.28	3974.23
431.47	3911.04
431.66	3868.91
431.85	3871.25
432.03	4084.23
432.22	3941.46
432.41	4124.02
432.60	4063.17
432.79	4004.66
432.97	4058.49
433.16	4088.92
433.35	4093.60
433.54	4189.56
433.72	4208.28
433.91	4112.32
434.10	4180.20
434.28	4084.23
434.47	4215.30
434.66	4224.67
434.85	4222.33
435.03	4365.10
435.22	4250.41
435.41	4435.32
435.59	4250.41
435.78	4372.12
435.97	4425.95
436.16	4351.06
436.34	4381.48
436.53	4414.25
436.72	4568.73
436.90	4351.06
437.09	4456.38
437.28	4414.25
437.46	4395.53
437.65	4383.82
437.84	4669.37
438.02	4620.22
438.21	4561.70
438.40	4592.13
438.58	4720.86
438.77	4802.78
438.96	4692.77
439.14	4772.35
439.33	4966.62
439.52	4837.89
439.70	4814.48
439.89	5088.32
440.08	5018.11
440.26	4957.25
440.45	4926.83
440.63	4947.89
440.82	5146.84
441.01	4966.62
441.19	5259.18
441.38	5210.03
441.57	5324.72
441.75	5404.30
441.94	5324.72
442.12	5369.19
442.31	5430.04
442.50	5542.39
442.68	5387.91
442.87	5289.61
443.05	5502.60
443.24	5703.89
443.43	5577.50
443.61	5549.41
443.80	5713.25
443.98	5516.64
444.17	5261.52
444.35	5537.71
444.54	5671.12
444.73	5666.44
444.91	5605.58
445.10	5657.07
445.28	5785.80
445.47	5577.50
445.65	5607.92
445.84	5563.45
446.02	5619.63
446.21	5720.27
446.39	5640.69
446.58	5549.41
446.77	5645.37
446.95	5565.79
447.14	5614.95
447.32	5851.34
447.51	5935.60
447.69	5694.52
447.88	5851.34
448.06	5687.50
448.25	5638.35
448.43	5748.36
448.62	5650.05
448.80	5771.76
448.99	5846.66
449.17	5891.13
449.36	5825.59
449.54	5863.04
449.73	6104.12
449.91	6054.97
450.10	5956.66
450.28	6204.76
450.46	6050.28
450.65	6017.52
450.83	6265.61
451.02	6108.80
451.20	6179.01
451.39	6279.66
451.57	6064.33
451.76	6038.58
451.94	6087.73
452.13	6251.57
452.31	6181.35
452.49	6157.95
452.68	6415.41
452.86	6429.45
453.05	6361.58
453.23	6415.41
453.42	6366.26
453.60	6293.70
453.78	6490.31
453.97	6537.12
454.15	6438.81
454.34	6394.34
454.52	6628.40
454.70	6551.16
454.89	6551.16
455.07	6441.15
455.26	6471.58
455.44	6679.89
455.62	6689.25
455.81	6537.12
455.99	6661.16
456.17	6619.04
456.36	6736.06
456.54	6789.89
456.73	6822.66
456.91	7007.56
457.09	6923.30
457.28	7084.80
457.46	6864.79
457.64	7000.54
457.83	6953.73
458.01	6885.86
458.19	7222.89
458.38	7066.08
458.56	7262.68
458.74	7049.69
458.93	7192.47
459.11	7101.19
459.29	7052.03
459.48	7204.17
459.66	7335.24
459.84	7342.26
460.03	7414.82
460.21	7311.83
460.39	7204.17
460.57	7269.70
460.76	7293.11
460.94	7382.05
461.12	7515.46
461.31	7293.11
461.49	7489.71
461.67	7508.44
461.85	7588.02
462.04	7527.16
462.22	7913.35
462.40	7911.01
462.59	7581.00
462.77	7604.40
462.95	7798.66
463.13	7735.47
463.32	7740.15
463.50	7836.11
463.68	7892.29
463.86	7756.54
464.05	7906.33
464.23	8032.72
464.41	7901.65
464.59	7939.10
464.78	7960.16
464.96	7903.99
465.14	8032.72
465.32	7957.82
465.50	8100.59
465.69	8032.72
465.87	8002.29
466.05	8021.02
466.23	7929.74
466.41	8163.79
466.60	8381.46
466.78	8091.23
466.96	8219.96
467.14	8219.96
467.32	8231.66
467.51	8306.56
467.69	8070.17
467.87	8250.39
468.05	8278.47
468.23	8156.77
468.41	8145.06
468.60	8505.51
468.78	8484.44
468.96	8346.35
469.14	8381.46
469.32	8643.60
469.50	8484.44
469.69	8643.60
469.87	8765.31
470.05	8606.15
470.23	8755.94
470.41	8723.18
470.59	8933.82
470.77	8894.04
470.95	8877.65
471.14	8929.14
471.32	8755.94
471.50	8926.80
471.68	9025.11
471.86	8896.38
472.04	9060.21
472.22	9282.56
472.40	8823.82
472.58	8947.87
472.77	9378.53
472.95	9458.10
473.13	9556.41
473.31	9476.83
473.49	9401.93
473.67	9493.21
473.85	9392.57
474.03	9745.99
474.21	9547.05
474.39	9851.31
474.57	9811.53
474.75	9940.26
474.93	9961.32
475.12	9891.10
475.30	10225.80
475.48	9666.41
475.66	10008.13
475.84	10059.62
476.02	10218.78
476.20	10125.16
476.38	10258.57
476.56	10565.18
476.74	10600.29
476.92	10445.81
477.10	10324.10
477.28	10478.58
477.46	10600.29
477.64	10714.97
477.82	10939.66
478.00	11119.89
478.18	10970.09
478.36	10932.64
478.54	11112.86
478.72	11349.26
478.90	11522.46
479.08	11616.08
479.26	11707.36
479.44	11740.13
479.62	11742.47
479.80	11882.90
479.98	11868.86
480.16	12243.34
480.34	11812.68
480.52	12201.21
480.70	12058.44
480.88	11943.75
481.06	12060.78
481.24	12479.74
481.41	12788.69
481.59	12727.83
481.77	12842.52
481.95	12762.94
482.13	13107.00
482.31	12870.61
482.49	13420.63
482.67	13298.92
482.85	13650.00
483.03	13568.09
483.21	13675.75
483.39	13493.19
483.57	13708.52
483.74	14073.64
483.92	13951.93
484.10	14024.49
484.28	13956.61
484.46	14050.24
484.64	14675.16
484.82	14200.03
485.00	14775.80
485.18	14881.13
485.35	14843.68
485.53	14836.66
485.71	15005.17
485.89	15321.15
486.07	15075.39
486.25	15239.23
486.43	15339.87
486.61	15737.76
486.78	15826.70
486.96	15637.12
487.14	16079.48
487.32	16123.95
487.50	16004.58
487.68	16006.92
487.85	16491.41
488.03	16753.55
488.21	16791.00
488.39	16673.98
488.57	17390.18
488.75	16929.09
488.92	17352.73
489.10	17497.84
489.28	17518.91
489.46	17467.42
489.64	17408.90
489.81	17954.25
489.99	18401.29
490.17	18106.38
490.35	18235.11
490.53	18361.50
490.70	18370.86
490.88	18251.50
491.06	18579.17
491.24	18724.29
491.41	18944.30
491.59	19168.99
491.77	18970.04
491.95	19569.22
492.13	19248.57
492.30	19700.29
492.48	19503.68
492.66	19637.09
492.84	19634.75
493.01	19861.79
493.19	19903.92
493.37	19948.39
493.54	20189.46
493.72	20240.95
493.90	20449.26
494.08	20762.89
494.25	20978.22
494.43	20999.29
494.61	21125.68
494.79	21308.24
494.96	20798.00
495.14	21315.26
495.32	21656.98
495.49	21523.57
495.67	21724.85
495.85	21898.05
496.02	22043.17
496.20	22288.92
496.38	22284.24
496.55	22225.73
496.73	22654.05
496.91	22181.26
497.09	22644.68
497.26	22864.69
497.44	22604.89
497.62	22742.99
497.79	23091.73
497.97	23021.51
498.14	23473.23
498.32	23201.73
498.50	23789.20
498.67	23611.32
498.85	23688.56
499.03	24032.62
499.20	23730.69
499.38	24254.97
499.56	24063.05
499.73	24222.20
499.91	24423.49
500.08	24816.70
500.26	24208.16
500.44	24563.92
500.61	24669.25
500.79	24535.84
500.97	24919.68
501.14	25055.43
501.32	25305.87
501.49	25284.81
501.67	25135.01
501.84	25263.74
502.02	25280.13
502.20	25720.15
502.37	25221.61
502.55	25687.38
502.72	25827.81
502.90	25816.11
503.07	25546.95
503.25	25563.33
503.43	25745.89
503.60	26115.70
503.78	26101.65
503.95	26314.64
504.13	26614.23
504.30	26501.89
504.48	26731.26
504.65	26298.26
504.83	26918.50
505.01	26862.33
505.18	27157.24
505.36	27194.68
505.53	26595.51
505.71	27178.30
505.88	27274.26
506.06	27058.93
506.23	27447.46
506.41	27529.38
506.58	27583.21
506.76	27756.41
506.93	27681.52
507.11	27878.12
507.28	27866.42
507.46	27634.71
507.63	27814.93
507.81	28264.31
507.98	27864.08
508.16	28306.44
508.33	28636.45
508.50	28680.92
508.68	28540.49
508.85	28982.85
509.03	28837.74
509.20	28931.36
509.38	29298.83
509.55	28900.94
509.73	29240.31
509.90	29359.68
510.08	29273.08
510.25	29319.89
510.42	29500.11
510.60	29610.12
510.77	29584.37
510.95	30022.05
511.12	29713.10
511.30	29504.79
511.47	29958.86
511.64	29537.56
511.82	30052.48
511.99	29898.00
512.17	29919.07
512.34	30134.40
512.51	30209.29
512.69	30677.40
512.86	30628.25
513.04	30824.86
513.21	30735.92
513.38	30962.95
513.56	31054.23
513.73	30684.42
513.90	30892.73
514.08	30815.49
514.25	30904.43
514.43	31559.78
514.60	31332.75
514.77	31377.22
514.95	31522.34
515.12	31140.83
515.29	31328.07
515.47	31494.25
515.64	31747.03
515.81	31880.44
515.99	31571.49
516.16	32165.98
516.33	31999.80
516.51	32390.67
516.68	32105.13
516.85	32135.56
517.03	32524.08
517.20	32435.14
517.37	32500.68
517.54	32786.22
517.72	32914.95
517.89	32411.74
518.06	33057.73
518.24	32945.38
518.41	32835.38
518.58	33020.28
518.75	33053.05
518.93	32877.51
519.10	33127.94
519.27	32982.83
519.45	33483.70
519.62	33523.49
519.79	33722.44
519.96	33251.99
520.14	33518.81
520.31	33546.90
520.48	33741.16
520.65	34057.14
520.83	34492.47
521.00	33813.72
521.17	34043.09
521.34	33921.38
521.52	34284.17
521.69	34206.93
521.86	34258.42
522.03	34389.49
522.20	34653.97
522.38	34712.49
522.55	34881.00
522.72	34527.58
522.89	34686.74
523.07	35346.77
523.24	34974.63
523.41	35196.98
523.58	34881.00
523.75	35370.18
523.92	35262.51
524.10	35044.84
524.27	35063.57
524.44	35215.70
524.61	35601.89
524.78	35723.60
524.96	35803.17
525.13	35480.18
525.30	35861.69
525.47	36053.61
525.64	35866.37
525.81	35990.42
525.98	36282.98
526.16	36238.51
526.33	36156.60
526.50	36505.34
526.67	36058.29
526.84	36512.36
527.01	36259.58
527.18	36598.96
527.36	37010.89
527.53	36788.54
527.70	36678.54
527.87	36809.61
528.04	36732.37
528.21	36643.43
528.38	37029.62
528.55	36940.68
528.72	36779.18
528.89	36910.25
529.07	36793.22
529.24	36992.17
529.41	36758.11
529.58	37113.87
529.75	37539.85
529.92	37226.22
530.09	37050.68
530.26	37640.50
530.43	37507.08
530.60	37350.27
530.77	37170.05
530.94	37324.52
531.11	37691.99
531.28	37757.52
531.46	37708.37
531.63	37923.70
531.80	38066.47
531.97	38581.39
532.14	38183.50
532.31	38302.87
532.48	38284.14
532.65	38429.26
532.82	37759.86
532.99	38092.22
533.16	37703.69
533.33	38628.20
533.50	38476.07
533.67	38490.11
533.84	38230.31
534.01	38892.68
534.18	38852.89
534.35	39192.27
534.52	39150.14
534.69	39096.31
534.86	39007.37
535.03	38906.73
535.20	38869.28
535.37	39007.37
535.54	39098.65
535.71	39122.05
535.88	38864.60
536.05	39606.55
536.22	39473.13
536.38	39309.30
536.55	39742.30
536.72	39274.19
536.89	39526.97
537.06	40109.76
537.23	40109.76
537.40	39634.63
537.57	39541.01
537.74	39676.76
537.91	39878.05
538.08	40086.36
538.25	39807.83
538.42	39583.14
538.59	40292.32
538.75	39835.92
538.92	40016.14
539.09	40563.82
539.26	40142.53
539.43	40264.24
539.60	40446.80
539.77	40182.32
539.94	40247.85
540.11	40645.74
540.28	40456.16
540.44	40266.58
540.61	40514.67
540.78	40217.43
540.95	41029.59
541.12	40226.79
541.29	40250.19
541.46	40854.05
541.62	40868.09
541.79	41406.42
541.96	40598.93
542.13	40458.50
542.30	40945.33
542.47	40664.47
542.63	41249.60
542.80	41500.04
542.97	41462.59
543.14	41727.07
543.31	41415.78
543.48	41275.35
543.64	41790.27
543.81	41790.27
543.98	41647.49
544.15	41778.56
544.32	41947.08
544.48	42373.06
544.65	41977.51
544.82	41769.20
544.99	41717.71
545.16	41977.51
545.32	42164.75
545.49	42312.20
545.66	42487.74
545.83	41827.71
546.00	41930.70
546.16	42553.28
546.33	42522.85
546.50	41876.86
546.67	42576.69
546.83	42131.98
547.00	42398.80
547.17	42602.43
547.34	42703.07
547.50	42281.78
547.67	42733.50
547.84	42375.40
548.00	42890.32
548.17	42990.96
548.34	43091.60
548.51	43103.31
548.67	42906.70
548.84	43086.92
549.01	42777.97
549.18	42969.90
549.34	42925.42
549.51	43103.31
549.68	43203.95
549.84	43107.99
550.01	43271.82
550.18	43281.19
550.34	43150.12
550.51	43934.20
550.68	43641.63
550.84	42941.81
551.01	43714.19
551.18	43400.55
551.34	43239.06
551.51	43281.19
551.68	43463.75
551.84	43613.54
552.01	43501.20
552.18	43264.80
552.34	43646.31
552.51	43917.81
552.68	43578.43
552.84	43756.32
553.01	44058.24
553.18	43608.86
553.34	44016.11
553.51	43910.79
553.67	43648.65
553.84	44020.80
554.01	44191.65
554.17	43880.36
554.34	44093.35
554.51	44123.78
554.67	44030.16
554.84	44268.89
555.00	44102.71
555.17	43861.64
555.33	44598.91
555.50	44023.14
555.67	44781.47
555.83	44334.43
556.00	44463.16
556.16	45017.86
556.33	44774.45
556.50	44591.89
556.66	44854.03
556.83	44271.23
556.99	44479.54
557.16	44814.24
557.32	44961.69
557.49	44554.44
557.65	44650.40
557.82	44580.18
557.98	44594.23
558.15	44835.30
558.32	44753.38
558.48	44835.30
558.65	44636.36
558.81	44921.90
558.98	44896.16
559.14	44739.34
559.31	44935.95
559.47	44884.45
559.64	44856.37
559.80	45205.11
559.97	45488.31
560.13	45172.34
560.30	44907.86
560.46	45453.20
560.63	45045.95
560.79	45605.34
560.96	45102.12
561.12	45235.53
561.29	45354.90
561.45	45212.13
561.61	45504.70
561.78	45092.76
561.94	45308.09
562.11	45598.32
562.27	45460.23
562.44	45202.77
562.60	45455.54
562.77	45174.68
562.93	45385.33
563.10	45303.41
563.26	45485.97
563.42	46033.66
563.59	45378.31
563.75	45415.76
563.92	45748.11
564.08	45504.70
564.24	45661.51
564.41	45827.69
564.57	45820.67
564.74	46131.96
564.90	45638.11
565.07	45729.39
565.23	45722.37
565.39	45579.59
565.56	45736.41
565.72	45867.48
565.88	45933.01
566.05	45776.20
566.21	45808.96
566.38	45855.78
566.54	46286.43
566.70	46017.27
566.87	46096.85
567.03	46043.02
567.19	46197.49
567.36	46052.38
567.52	45930.67
567.68	46639.86
567.85	45918.97
568.01	46459.63
568.17	46176.43
568.34	46174.09
568.50	46033.66
568.66	45879.18
568.83	46206.86
568.99	45853.44
569.15	46358.99
569.32	46302.82
569.48	46052.38
569.64	46464.32
569.81	46300.48
569.97	46567.30
570.13	46354.31
570.30	46078.13
570.46	45984.51
570.62	46431.55
570.78	46263.03
570.95	46281.75
571.11	46581.34
571.27	46328.56
571.43	46260.69
571.60	46291.12
571.76	46265.37
571.92	46241.96
572.09	46190.47
572.25	46204.52
572.41	46155.36
572.57	46628.15
572.74	46649.22
572.90	46752.20
573.06	46586.02
573.22	46574.32
573.38	46799.01
573.55	46461.97
573.71	46958.17
573.87	46504.10
574.03	46368.35
574.20	46557.94
574.36	46146.00
574.52	46560.28
574.68	46700.71
574.84	46796.67
575.01	46820.08
575.17	47065.83
575.33	46801.35
575.49	46412.82
575.65	46824.76
575.82	46890.29
575.98	46248.99
576.14	47009.66
576.30	47192.22
576.46	46801.35
576.62	46389.42
576.79	46733.48
576.95	46871.57
577.11	46546.23
577.27	46759.22
577.43	46824.76
577.59	46782.63
577.75	46850.50
577.92	46167.07
578.08	46497.08
578.24	46981.57
578.40	46941.78
578.56	46995.62
578.72	46571.98
578.88	46710.07
579.04	46621.13
579.21	46588.36
579.37	47112.64
579.53	47131.37
579.69	46536.87
579.85	46586.02
580.01	46693.69
580.17	46586.02
580.33	46649.22
580.49	46937.10
580.65	46920.72
580.82	46712.41
580.98	46677.30
581.14	46396.44
581.30	46857.52
581.46	46796.67
581.62	46859.87
581.78	46653.90
581.94	47178.18
582.10	47316.27
582.26	46852.84
582.42	46981.57
582.58	47051.79
582.74	46831.78
582.90	46927.74
583.06	47302.23
583.22	46579.00
583.38	46913.70
583.54	47487.13
583.70	46948.81
583.86	47178.18
584.02	46873.91
584.18	47330.31
584.34	46876.25
584.50	47306.91
584.66	47257.76
584.82	47189.88
584.98	47590.11
585.14	47236.69
585.30	47145.41
585.46	46876.25
585.62	46979.23
585.78	46974.55
585.94	46803.69
586.10	47098.60
586.26	47051.79
586.42	47161.79
586.58	47224.99
586.74	46885.61
586.90	47386.49
587.06	47040.09
587.22	47615.86
587.38	46815.40
587.54	47182.86
587.70	47433.30
587.86	46834.12
588.02	47026.04
588.18	47061.15
588.34	46684.33
588.49	47185.20
588.65	46852.84
588.81	47229.67
588.97	47040.09
589.13	47381.80
589.29	47571.39
589.45	47311.59
589.61	47299.89
589.77	47323.29
589.93	47295.21
590.08	47419.25
590.24	47894.38
590.40	47817.14
590.56	47519.90
590.72	47482.45
590.88	47260.10
591.04	47576.07
591.20	47370.10
591.35	47716.50
591.51	47920.13
591.67	47625.22
591.83	47634.58
591.99	47751.61
592.15	47629.90
592.31	47665.01
592.46	47524.58
592.62	47573.73
592.78	48044.18
592.94	47903.74
593.10	47945.87
593.26	48137.80
593.41	48013.75
593.57	47662.67
593.73	47714.16
593.89	48076.94
594.05	47789.06
594.20	47524.58
594.36	48217.38
594.52	47983.32
594.68	47796.08
594.84	47428.62
594.99	48018.43
595.15	47880.34
595.31	47306.91
595.47	47934.17
595.62	47903.74
595.78	47508.19
595.94	47852.25
596.10	48074.60
596.25	48025.45
596.41	48027.79
596.57	47325.63
596.73	48247.80
596.88	47756.29
597.04	47906.08
597.20	47906.08
597.36	47957.58
597.51	48168.22
597.67	47292.86
597.83	47782.04
597.99	47826.51
598.14	47721.18
598.30	48346.11
598.46	47798.42
598.61	48098.01
598.77	47889.70
598.93	47985.66
599.09	47601.82
599.24	48142.48
599.40	48048.86
599.56	47927.15
599.71	48140.14
599.87	48591.86
600.03	48456.11
600.18	48318.02
600.34	47821.83
600.50	47870.98
600.65	47807.78
600.81	48294.61
600.97	48142.48
601.12	48205.67
601.28	48196.31
601.44	48210.35
601.59	48318.02
601.75	47892.04
601.91	48002.05
602.06	47952.90
602.22	48175.25
602.37	48109.71
602.53	48250.14
602.69	47866.30
602.84	47999.71
603.00	48051.20
603.16	47725.86
603.31	47782.04
603.47	47955.24
603.62	48065.24
603.78	48212.70
603.94	48236.10
604.09	48411.64
604.25	47756.29
604.40	47274.14
604.56	48296.95
604.71	48451.43
604.87	47725.86
605.03	48076.94
605.18	47814.80
605.34	48161.20
605.49	48025.45
605.65	48002.05
605.80	47784.38
605.96	47325.63
606.12	47339.68
606.27	47817.14
606.43	47501.17
606.58	47901.40
606.74	47756.29
606.89	48039.50
607.05	48088.65
607.20	48208.01
607.36	47611.18
607.51	47536.28
607.67	47526.92
607.82	47557.35
607.98	47482.45
608.13	47606.50
608.29	47875.66
608.44	47494.15
608.60	47915.45
608.75	47845.23
608.91	47819.49
609.06	47297.55
609.22	47821.83
609.37	47508.19
609.53	48109.71
609.68	47667.35
609.84	47112.64
609.99	47531.60
610.15	47714.16
610.30	47583.09
610.46	47704.80
610.61	47562.03
610.76	47746.93
610.92	47093.92
611.07	47157.11
611.23	47077.54
611.38	47650.97
611.54	47711.82
611.69	47749.27
611.84	47494.15
612.00	47384.15
612.15	47449.68
612.31	47732.89
612.46	47161.79
612.62	47419.25
612.77	47826.51
612.92	47547.98
613.08	47236.69
613.23	47164.14
613.39	47325.63
613.54	47236.69
613.69	47367.76
613.85	47449.68
614.00	47494.15
614.15	47976.30
614.31	47323.29
614.46	47187.54
614.62	46976.89
614.77	46918.38
614.92	47351.38
615.08	47501.17
615.23	47246.05
615.38	47353.72
615.54	47227.33
615.69	47084.56
615.84	46918.38
616.00	47327.97
616.15	47669.69
616.30	47379.46
616.46	47140.73
616.61	47182.86
616.76	47075.19
616.92	46983.91
617.07	47143.07
617.22	47124.35
617.37	46810.71
617.53	46810.71
617.68	46799.01
617.83	47100.94
617.99	47253.08
618.14	46953.49
618.29	46787.31
618.45	46642.20
618.60	46806.03
618.75	46731.14
618.90	46777.95
619.06	47089.24
619.21	46866.89
619.36	46834.12
619.51	46473.68
619.67	46419.84
619.82	46618.79
619.97	46902.00
620.12	46707.73
620.28	46632.83
620.43	47327.97
620.58	46326.22
620.73	46623.47
620.89	46911.36
621.04	46756.88
621.19	46525.17
621.34	46412.82
621.49	46316.86
621.65	46265.37
621.80	46780.29
621.95	46663.26
622.10	46330.90
622.25	46674.96
622.41	46794.33
622.56	46618.79
622.71	46396.44
622.86	46590.70
623.01	46410.48
623.16	45750.45
623.32	46323.88
623.47	46358.99
623.62	46040.68
623.77	46803.69
623.92	45947.06
624.07	46153.02
624.23	46752.20
624.38	46138.98
624.53	46099.19
624.68	45696.62
624.83	45928.33
624.98	46162.39
625.13	45572.57
625.29	45750.45
625.44	46309.84
625.59	46005.57
625.74	45916.63
625.89	45731.73
626.04	45640.45
626.19	45659.17
626.34	45467.25
626.49	45478.95
626.65	45284.68
626.80	45703.64
626.95	45287.03
627.10	45610.02
627.25	45434.48
627.40	45624.06
627.55	45713.00
627.70	45743.43
627.85	45535.12
628.00	45710.66
628.15	45230.85
628.30	45116.17
628.45	45310.43
628.60	44961.69
628.76	45134.89
628.91	45434.48
629.06	44851.69
629.21	45141.91
629.36	45186.38
629.51	45308.09
629.66	45516.40
629.81	44746.36
629.96	44830.62
630.11	45123.19
630.26	44404.64
630.41	45027.23
630.56	44971.05
630.71	45326.81
630.86	45242.56
631.01	44650.40
631.16	44877.43
631.31	45036.59
631.46	44938.29
631.61	45048.29
631.76	45055.31
631.91	45085.74
632.06	44519.33
632.21	45022.54
632.36	45167.66
632.51	44795.51
632.66	44650.40
632.81	44615.29
632.96	44753.38
633.10	44912.54
633.25	44739.34
633.40	44802.53
633.55	45162.98
633.70	44566.14
633.85	44500.61
634.00	44552.10
634.15	44451.45
634.30	44650.40
634.45	44538.05
634.60	44470.18
634.75	44493.58
634.90	44584.86
635.05	44301.66
635.19	44158.89
635.34	44477.20
635.49	44168.25
635.64	44507.63
635.79	44622.31
635.94	44388.26
636.09	44161.23
636.24	44189.31
636.39	44053.56
636.53	44287.62
636.68	44399.96
636.83	44278.25
636.98	43594.82
637.13	43487.15
637.28	43758.66
637.43	43981.01
637.57	44137.82
637.72	44018.46
637.87	43873.34
638.02	43983.35
638.17	43859.30
638.32	43941.22
638.46	42876.27
638.61	43140.75
638.76	43824.19
638.91	43700.14
639.06	43669.72
639.20	43288.21
639.35	43274.16
639.50	43332.68
639.65	43611.20
639.80	43966.96
639.94	43753.97
640.09	43557.37
640.24	43723.55
640.39	43248.42
640.54	42738.18
640.68	43150.12
640.83	43447.36
640.98	43349.06
641.13	43283.53
641.27	43878.02
641.42	43061.18
641.57	43239.06
641.72	43480.13
641.86	43246.08
642.01	42808.40
642.16	43681.42
642.31	42988.62
642.45	43306.93
642.60	43070.54
642.75	42803.72
642.90	43168.84
643.04	43161.82
643.19	43012.02
643.34	42962.87
643.48	42532.22
643.63	42801.38
643.78	43098.62
643.93	42909.04
644.07	43206.29
644.22	43042.45
644.37	42501.79
644.51	42960.53
644.66	43117.35
644.81	42349.65
644.95	42459.66
645.10	42480.72
645.25	42377.74
645.39	42487.74
645.54	42443.27
645.69	42246.67
645.83	42415.19
645.98	42312.20
646.13	42361.36
646.27	42649.24
646.42	42241.99
646.57	42560.30
646.71	42312.20
646.86	42887.98
647.00	42494.77
647.15	42864.57
647.30	42389.44
647.44	42050.06
647.59	42057.09
647.74	42291.14
647.88	42284.12
648.03	42454.98
648.17	42094.53
648.32	42347.31
648.47	42410.51
648.61	42450.30
648.76	42099.22
648.90	42260.71
649.05	42047.72
649.20	42080.49
649.34	42021.98
649.49	41832.39
649.63	41926.02
649.78	41911.97
649.92	42167.09
650.07	42122.62
650.21	42216.24
650.36	42644.56
650.51	41530.47
650.65	42078.15
650.80	42377.74
650.94	42031.34
651.09	41923.68
651.23	41502.38
651.38	41773.88
651.52	41638.13
651.67	41511.74
651.81	41455.57
651.96	41638.13
652.10	40978.10
652.25	41476.63
652.39	41558.55
652.54	41401.74
652.68	41483.66
652.83	41270.67
652.97	41698.98
653.12	41680.26
653.26	41315.14
653.41	41614.72
653.55	41305.77
653.70	41598.34
653.84	41771.54
653.99	41668.56
654.13	41212.15
654.27	41221.52
654.42	41287.05
654.56	40942.99
654.71	41572.60
654.85	41191.09
655.00	40973.42
655.14	41006.19
655.29	41792.61
655.43	41600.68
655.57	40727.66
655.72	41151.30
655.86	41060.02
656.01	40755.75
656.15	40360.20
656.30	40238.49
656.44	41074.06
656.58	40718.30
656.73	40690.21
656.87	40215.08
657.01	40205.72
657.16	40779.15
657.30	40910.22
657.45	41041.29
657.59	40151.89
657.73	40187.00
657.88	39957.63
658.02	40648.08
658.16	40421.05
658.31	40411.69
658.45	40598.93
658.60	40392.97
658.74	40226.79
658.88	40666.81
659.03	40177.64
659.17	40062.95
659.31	40102.74
659.46	39562.08
659.60	39995.07
659.74	40172.96
659.89	39739.96
660.03	39646.33
660.17	39929.54
660.32	39807.83
660.46	39618.25
660.60	39608.89
660.74	39842.94
660.89	39756.34
661.03	39667.40
661.17	39452.07
661.32	39367.81
661.46	39285.89
661.60	39122.05
661.74	39313.98
661.89	39154.82
662.03	39274.19
662.17	39421.64
662.31	39501.22
662.46	39271.85
662.60	38679.69
662.74	38492.45
662.88	38700.76
663.03	38377.76
663.17	38679.69
663.31	38373.08
663.45	39026.09
663.60	38920.77
663.74	38644.59
663.88	38452.66
664.02	38635.22
664.17	38738.21
664.31	38394.15
664.45	38080.52
664.59	38485.43
664.73	38384.79
664.88	38124.99
665.02	37785.61
665.16	38230.31
665.30	37986.89
665.44	38244.35
665.59	37827.74
665.73	37860.51
665.87	37542.19
666.01	37523.47
666.15	38017.32
666.29	37699.01
666.44	37968.17
666.58	37565.60
666.72	37361.97
666.86	37340.91
667.00	37617.09
667.14	37312.82
667.28	37563.26
667.43	37083.45
667.57	37462.61
667.71	37542.19
667.85	37069.40
667.99	37284.73
668.13	36828.33
668.27	36835.35
668.41	37048.34
668.56	36341.50
668.70	36727.69
668.84	36182.34
668.98	36613.00
669.12	36645.77
669.26	36259.58
669.40	36322.77
669.54	36638.75
669.68	36364.90
669.82	36364.90
669.96	35730.62
670.10	35873.39
670.25	35906.16
670.39	35871.05
670.53	36077.02
670.67	36142.55
670.81	36280.64
670.95	35728.28
671.09	35896.80
671.23	35040.16
671.37	35683.81
671.51	35400.60
671.65	35318.68
671.79	35438.05
671.93	35323.36
672.07	35522.31
672.21	35318.68
672.35	34857.60
672.49	34927.81
672.63	35206.34
672.77	34675.04
672.91	34820.15
673.05	34747.59
673.19	34270.12
673.33	34550.99
673.47	34197.57
673.61	34232.68
673.75	33961.17
673.89	33816.06
674.03	33996.28
674.17	33565.62
674.31	33654.56
674.45	33923.72
674.59	33486.04
674.73	33495.41
674.87	33268.37
675.01	33539.88
675.15	32989.85
675.29	33174.75
675.43	33359.66
675.56	33488.38
675.70	33123.26
675.84	33067.09
675.98	31276.58
676.12	32835.38
676.26	33432.21
676.40	32943.04
676.54	32657.49
676.68	32477.27
676.82	32046.62
676.96	32723.03
677.10	32203.43
677.23	32432.80
677.37	31810.22
677.51	32081.72
677.65	31952.99
677.79	31644.04
677.93	31960.02
678.07	31730.64
678.21	31400.63
678.34	31604.25
678.48	31042.53
678.62	31372.54
678.76	31157.21
678.90	31087.00
679.04	30747.62
679.18	31342.11
679.31	31049.55
679.45	30588.46
679.59	30511.22
679.73	30604.84
679.87	30511.22
680.00	30700.81
680.14	30199.93
680.28	30281.85
680.42	29958.86
680.56	29839.49
680.70	29408.83
680.83	29589.05
680.97	29465.00
681.11	29465.00
681.25	29408.83
681.39	29493.09
681.52	29233.29
681.66	28795.61
681.80	28559.22
681.94	28348.57
682.07	28599.01
682.21	28762.84
682.35	28554.54
682.49	28395.38
682.62	28460.91
682.76	28922.00
682.90	28142.60
683.04	28350.91
683.17	28034.94
683.31	27969.40
683.45	27468.53
683.59	27697.90
683.72	27393.63
683.86	27608.96
684.00	27402.99
684.13	27536.40
684.27	27250.86
684.41	27311.71
684.55	27384.27
684.68	26979.36
684.82	26864.67
684.96	26417.63
685.09	27035.53
685.23	26808.50
685.37	27098.72
685.50	26920.84
685.64	26572.10
685.78	26188.25
685.91	26080.59
686.05	25764.62
686.19	25647.59
686.32	25762.28
686.46	25565.67
686.60	25324.60
686.73	25483.75
686.87	25523.54
687.01	25385.45
687.14	25472.05
687.28	25212.25
687.42	25432.26
687.55	24830.74
687.69	24823.72
687.82	24741.80
687.96	24559.24
688.10	24704.35
688.23	24439.87
688.37	24570.94
688.50	24699.67
688.64	24538.18
688.78	24372.00
688.91	24273.70
689.05	24357.96
689.18	23534.09
689.32	23747.08
689.46	23419.40
689.59	23763.46
689.73	23917.93
689.86	23999.85
690.00	23388.97
690.13	23669.84
690.27	23393.65
690.41	23239.18
690.54	22712.56
690.68	22869.37
690.81	22827.24
690.95	22874.06
691.08	22363.82
691.22	22537.02
691.35	22324.03
691.49	22707.88
691.62	22492.55
691.76	22024.44
691.89	21940.18
692.03	21909.75
692.16	21671.02
692.30	21776.34
692.43	21598.46
692.57	21200.57
692.70	21565.70
692.84	21184.19
692.97	21041.42
693.11	20945.45
693.24	21060.14
693.38	20931.41
693.51	20805.02
693.65	20606.08
693.78	20800.34
693.92	20320.53
694.05	20409.47
694.19	20065.41
694.32	20643.52
694.45	20582.67
694.59	20404.79
694.72	20336.91
694.86	20180.10
694.99	19999.88
695.13	19756.46
695.26	19695.61
695.39	19531.77
695.53	19433.47
695.66	19569.22
695.80	19529.43
695.93	19466.24
696.07	18918.55
696.20	19028.56
696.33	18916.21
696.47	18576.83
696.60	18642.37
696.73	18668.11
696.87	19143.24
697.00	18904.51
697.14	18384.91
697.27	18752.37
697.40	18410.65
697.54	18560.45
697.67	18183.62
697.80	18036.17
697.94	18106.38
698.07	17984.68
698.21	17921.48
698.34	17788.07
698.47	17816.16
698.61	17390.18
698.74	17582.10
698.87	17776.37
699.01	17528.27
699.14	17249.75
699.27	17172.51
699.40	17170.17
699.54	17003.99
699.67	17092.93
699.80	16898.67
699.94	16898.67
700.07	17018.04
700.20	16835.47
700.34	16702.06
700.47	16500.78
700.60	16786.32
700.73	16711.42
700.87	16390.77
701.00	16027.99
701.13	16095.86
701.26	15889.90
701.40	15955.43
701.53	15812.66
701.66	15817.34
701.79	15772.87
701.93	15665.21
702.06	15583.29
702.19	15360.94
702.32	15534.14
702.46	15548.18
702.59	15550.52
702.72	15459.24
702.85	15508.39
702.99	15264.97
703.12	15105.82
703.25	14834.32
703.38	14803.89
703.51	15026.24
703.65	14569.83
703.78	14448.13
703.91	14345.14
704.04	14597.92
704.17	14033.85
704.31	14347.48
704.44	14258.54
704.57	14122.79
704.70	14108.75
704.83	14075.98
704.96	13982.36
705.10	13895.76
705.23	13764.69
>>>>>End Processed Spectral Data<<<<<
