SpectraSuite Data File
++++++++++++++++++++++++++++++++++++
Date: Fri Oct 25 11:34:29 EDT 2013
User: price-jones
Dark Spectrum Present: No
Reference Spectrum Present: No
Number of Sampled Component Spectra: 1
Spectrometers: USB2+H05261
Integration Time (usec): 100000 (USB2+H05261)
Spectra Averaged: 1 (USB2+H05261)
Boxcar Smoothing: 0 (USB2+H05261)
Correct for Electrical Dark: No (USB2+H05261)
Strobe/Lamp Enabled: No (USB2+H05261)
Correct for Detector Non-linearity: No (USB2+H05261)
Correct for Stray Light: No (USB2+H05261)
Number of Pixels in Processed Spectrum: 2048
>>>>>Begin Processed Spectral Data<<<<<
365.73	255.12
365.92	255.12
366.12	255.12
366.32	152.13
366.52	133.41
366.72	159.16
366.91	166.18
367.11	149.79
367.31	182.56
367.51	145.11
367.70	198.95
367.90	156.82
368.10	140.43
368.30	180.22
368.49	98.30
368.69	189.58
368.89	173.20
369.09	168.52
369.28	241.08
369.48	245.76
369.68	215.33
369.87	234.05
370.07	212.99
370.27	248.10
370.47	280.86
370.66	437.68
370.86	493.85
371.06	496.19
371.25	524.28
371.45	547.69
371.65	540.66
371.84	566.41
372.04	557.05
372.24	550.03
372.44	493.85
372.63	596.84
372.83	587.47
373.03	606.20
373.22	657.69
373.42	660.03
373.62	631.94
373.81	643.65
374.01	713.86
374.21	636.63
374.40	599.18
374.60	571.09
374.79	645.99
374.99	610.88
375.19	596.84
375.38	685.78
375.58	601.52
375.78	615.56
375.97	634.29
376.17	699.82
376.37	704.50
376.56	601.52
376.76	774.72
376.95	657.69
377.15	660.03
377.35	634.29
377.54	734.93
377.74	727.91
377.93	657.69
378.13	634.29
378.33	636.63
378.52	657.69
378.72	657.69
378.91	753.65
379.11	711.52
379.31	678.76
379.50	709.18
379.70	767.70
379.89	737.27
380.09	758.33
380.28	720.88
380.48	746.63
380.68	688.12
380.87	763.01
381.07	798.12
381.26	725.57
381.46	781.74
381.65	751.31
381.85	723.23
382.04	770.04
382.24	763.01
382.43	772.38
382.63	704.50
382.83	849.61
383.02	830.89
383.22	849.61
383.41	781.74
383.61	875.36
383.80	795.78
384.00	823.87
384.19	809.83
384.39	826.21
384.58	800.46
384.78	837.91
384.97	772.38
385.17	858.98
385.36	798.12
385.56	821.53
385.75	788.76
385.95	795.78
386.14	793.44
386.34	856.64
386.53	858.98
386.72	777.06
386.92	929.19
387.11	950.26
387.31	807.48
387.50	922.17
387.70	863.66
387.89	929.19
388.09	821.53
388.28	929.19
388.48	903.45
388.67	931.53
388.86	912.81
389.06	922.17
389.25	926.85
389.45	901.11
389.64	875.36
389.84	973.66
390.03	1008.77
390.22	992.39
390.42	952.60
390.61	922.17
390.81	957.28
391.00	931.53
391.19	1025.15
391.39	929.19
391.58	957.28
391.78	931.53
391.97	1034.52
392.16	1043.88
392.36	1111.75
392.55	917.49
392.75	1036.86
392.94	997.07
393.13	1081.33
393.33	1029.84
393.52	1093.03
393.71	1020.47
393.91	1078.99
394.10	1008.77
394.29	1121.12
394.49	1041.54
394.68	1125.80
394.88	1102.39
395.07	1109.41
395.26	1135.16
395.46	1153.88
395.65	1064.94
395.84	1167.93
396.04	1247.51
396.23	1181.97
396.42	1163.25
396.62	1123.46
396.81	1196.01
397.00	1193.67
397.19	1153.88
397.39	1228.78
397.58	1144.52
397.77	1198.35
397.97	1233.46
398.16	1198.35
398.35	1214.74
398.55	1193.67
398.74	1338.79
398.93	1338.79
399.12	1294.32
399.32	1259.21
399.51	1270.91
399.70	1282.61
399.90	1308.36
400.09	1245.16
400.28	1476.88
400.47	1392.62
400.67	1345.81
400.86	1416.02
401.05	1242.82
401.24	1378.58
401.44	1369.21
401.63	1418.36
401.82	1444.11
402.01	1369.21
402.21	1383.26
402.40	1378.58
402.59	1462.83
402.78	1444.11
402.97	1320.06
403.17	1441.77
403.36	1451.13
403.55	1451.13
403.74	1514.33
403.93	1575.18
404.13	1561.14
404.32	1563.48
404.51	1530.71
404.70	1657.10
404.89	1528.37
405.09	1701.57
405.28	1650.08
405.47	1549.43
405.66	1652.42
405.85	1584.54
406.05	1666.46
406.24	1643.06
406.43	1523.69
406.62	1685.19
406.81	1739.02
407.00	1666.46
407.20	1724.97
407.39	1689.87
407.58	1748.38
407.77	1937.96
407.96	1909.88
408.15	1884.13
408.34	1919.24
408.54	1926.26
408.73	1860.73
408.92	1994.14
409.11	1860.73
409.30	1867.75
409.49	1792.85
409.68	1893.49
409.87	1912.22
410.07	2008.18
410.26	2026.90
410.45	1980.09
410.64	2080.74
410.83	2008.18
411.02	2012.86
411.21	2087.76
411.40	2078.40
411.59	2101.80
411.78	2183.72
411.98	2087.76
412.17	2101.80
412.36	2160.31
412.55	2160.31
412.74	2167.34
412.93	2235.21
413.12	2237.55
413.31	2368.62
413.50	2361.60
413.69	2314.79
413.88	2385.01
414.07	2377.98
414.26	2382.67
414.45	2473.95
414.64	2326.49
414.83	2490.33
415.02	2420.11
415.22	2565.23
415.41	2647.15
415.60	2485.65
415.79	2626.08
415.98	2637.78
416.17	2619.06
416.36	2607.36
416.55	2679.91
416.74	2663.53
416.93	2696.30
417.12	2642.46
417.31	2818.00
417.50	2757.15
417.69	2808.64
417.88	2876.52
418.07	2825.03
418.26	2848.43
418.45	2855.45
418.64	3038.02
418.83	2960.78
419.02	2885.88
419.21	3000.57
419.39	3038.02
419.58	3009.93
419.77	2899.92
419.96	2993.55
420.15	3052.06
420.34	2995.89
420.53	3049.72
420.72	3110.57
420.91	3087.17
421.10	3026.31
421.29	3173.77
421.48	3136.32
421.67	3173.77
421.86	3150.36
422.05	3166.74
422.24	3204.19
422.43	3295.47
422.61	3253.34
422.80	3185.47
422.99	3220.58
423.18	3300.16
423.37	3297.81
423.56	3251.00
423.75	3222.92
423.94	3262.71
424.13	3070.78
424.32	3199.51
424.50	3309.52
424.69	3330.58
424.88	3297.81
425.07	3339.94
425.26	3358.67
425.45	3358.67
425.64	3211.22
425.83	3272.07
426.01	3435.91
426.20	3499.10
426.39	3438.25
426.58	3215.90
426.77	3309.52
426.96	3398.46
427.15	3419.52
427.33	3471.01
427.52	3475.70
427.71	3515.48
427.90	3501.44
428.09	3590.38
428.28	3499.10
428.46	3524.85
428.65	3485.06
428.84	3658.26
429.03	3578.68
429.22	3494.42
429.40	3571.66
429.59	3658.26
429.78	3499.10
429.97	3487.40
430.16	3644.21
430.34	3681.66
430.53	3756.56
430.72	3691.02
430.91	3768.26
431.10	3672.30
431.28	3920.40
431.47	3791.67
431.66	3927.42
431.85	3941.46
432.03	3770.60
432.22	3822.09
432.41	3885.29
432.60	3854.86
432.79	3847.84
432.97	3929.76
433.16	3871.25
433.35	3927.42
433.54	3964.87
433.72	4021.04
433.91	3892.31
434.10	4180.20
434.28	4067.85
434.47	4070.19
434.66	4016.36
434.85	4208.28
435.03	4248.07
435.22	4081.89
435.41	4177.86
435.59	4161.47
435.78	4329.99
435.97	4147.43
436.16	4095.94
436.34	4285.52
436.53	4264.46
436.72	4383.82
436.90	4311.27
437.09	4283.18
437.28	4184.88
437.46	4287.86
437.65	4418.93
437.84	4376.80
438.02	4493.83
438.21	4311.27
438.40	4428.29
438.58	4564.04
438.77	4533.62
438.96	4564.04
439.14	4667.03
439.33	4650.64
439.52	4772.35
439.70	4777.03
439.89	4793.42
440.08	4805.12
440.26	4807.46
440.45	4816.82
440.63	5008.75
440.82	5048.54
441.01	4985.34
441.19	4870.65
441.38	5027.47
441.57	4947.89
441.75	5193.65
441.94	5179.61
442.12	5224.08
442.31	5373.87
442.50	5301.31
442.68	5200.67
442.87	5322.38
443.05	5338.76
443.24	5446.43
443.43	5385.57
443.61	5303.65
443.80	5411.32
443.98	5282.59
444.17	5083.64
444.35	5392.59
444.54	5474.51
444.73	5371.53
444.91	5439.40
445.10	5308.34
445.28	5540.05
445.47	5451.11
445.65	5378.55
445.84	5516.64
446.02	5547.07
446.21	5465.15
446.39	5434.72
446.58	5399.62
446.77	5518.98
446.95	5366.85
447.14	5418.34
447.32	5563.45
447.51	5563.45
447.69	5467.49
447.88	5418.34
448.06	5479.19
448.25	5626.65
448.43	5584.52
448.62	5579.84
448.80	5699.20
448.99	5706.23
449.17	5628.99
449.36	5769.42
449.54	5671.12
449.73	5942.62
449.91	5956.66
450.10	5846.66
450.28	5872.40
450.46	5809.21
450.65	5916.87
450.83	5933.26
451.02	5778.78
451.20	6164.97
451.39	5912.19
451.57	5949.64
451.76	5755.38
451.94	6012.84
452.13	6078.37
452.31	6085.39
452.49	5987.09
452.68	5865.38
452.86	6057.31
453.05	6146.25
453.23	6101.78
453.42	6022.20
453.60	6083.05
453.78	6146.25
453.97	6183.70
454.15	6122.84
454.34	6270.30
454.52	6195.40
454.70	6328.81
454.89	6424.77
455.07	6328.81
455.26	6331.15
455.44	6490.31
455.62	6434.13
455.81	6286.68
455.99	6471.58
456.17	6317.11
456.36	6373.28
456.54	6810.96
456.73	6707.98
456.91	6960.75
457.09	6794.58
457.28	6801.60
457.46	6637.76
457.64	6745.42
457.83	6768.83
458.01	6679.89
458.19	6808.62
458.38	6913.94
458.56	6839.05
458.74	6778.19
458.93	6888.20
459.11	6747.76
459.29	6876.49
459.48	6939.69
459.66	6944.37
459.84	7096.50
460.03	7225.23
460.21	7131.61
460.39	7056.72
460.57	7000.54
460.76	7131.61
460.94	7126.93
461.12	7363.33
461.31	7089.48
461.49	7155.02
461.67	7309.49
461.85	7222.89
462.04	7122.25
462.22	7634.83
462.40	7419.50
462.59	7461.63
462.77	7213.53
462.95	7485.03
463.13	7351.62
463.32	7634.83
463.50	7569.29
463.68	7576.31
463.86	7683.98
464.05	7391.41
464.23	7559.93
464.41	7737.81
464.59	7438.22
464.78	7882.92
464.96	7669.94
465.14	7662.91
465.32	7786.96
465.50	7761.22
465.69	7796.32
465.87	7833.77
466.05	7955.48
466.23	7824.41
466.41	7733.13
466.60	8004.63
466.78	7754.19
466.96	7810.37
467.14	7852.50
467.32	7932.08
467.51	7929.74
467.69	7880.58
467.87	7602.06
468.05	8035.06
468.23	7847.82
468.41	7941.44
468.60	8030.38
468.78	8266.77
468.96	8079.53
469.14	8248.05
469.32	8238.69
469.50	8173.15
469.69	8280.82
469.87	8395.50
470.05	8379.12
470.23	8395.50
470.41	8449.33
470.59	8360.39
470.77	8383.80
470.95	8505.51
471.14	8535.93
471.32	8395.50
471.50	8645.94
471.68	8606.15
471.86	8659.98
472.04	8645.94
472.22	8734.88
472.40	8652.96
472.58	8922.12
472.77	8828.50
472.95	8856.59
473.13	9394.91
473.31	9008.72
473.49	9132.77
473.67	9015.74
473.85	9139.79
474.03	9291.93
474.21	9305.97
474.39	9418.32
474.57	9432.36
474.75	9593.86
474.93	9528.32
475.12	9467.47
475.30	9528.32
475.48	9518.96
475.66	9621.94
475.84	9509.60
476.02	9795.14
476.20	9785.78
476.38	10164.95
476.56	10291.34
476.74	10164.95
476.92	10190.69
477.10	10003.45
477.28	10363.89
477.46	10122.82
477.64	10422.41
477.82	10462.19
478.00	10824.98
478.18	10562.84
478.36	10665.82
478.54	10745.40
478.72	10906.90
478.90	10843.70
479.08	11143.29
479.26	11096.48
479.44	11143.29
479.62	11253.30
479.80	11360.96
479.98	11571.61
480.16	11538.84
480.34	11702.68
480.52	11875.88
480.70	11737.79
480.88	11665.23
481.06	11887.58
481.24	11761.19
481.41	11948.43
481.59	12336.96
481.77	12325.26
481.95	12290.15
482.13	12280.79
482.31	12456.33
482.49	12706.77
482.67	12716.13
482.85	12996.99
483.03	13092.96
483.21	13231.05
483.39	12959.55
483.57	13008.70
483.74	13364.46
483.92	13472.12
484.10	13488.51
484.28	13727.24
484.46	13687.45
484.64	13886.40
484.82	13577.45
485.00	13961.30
485.18	14047.90
485.35	14469.19
485.53	14382.59
485.71	14286.63
485.89	14761.76
486.07	14611.96
486.25	14654.09
486.43	14848.36
486.61	15049.64
486.78	15096.46
486.96	15323.49
487.14	15307.10
487.32	15353.91
487.50	15473.28
487.68	15555.20
487.85	15838.41
488.03	16030.33
488.21	16145.02
488.39	16358.00
488.57	16395.45
488.75	16531.20
488.92	16648.23
489.10	16793.34
489.28	16814.41
489.46	17032.08
489.64	17057.82
489.81	17277.83
489.99	17575.08
490.17	17336.35
490.35	17411.25
490.53	17551.68
490.70	17671.04
490.88	17905.10
491.06	17982.34
491.24	18192.98
491.41	17937.87
491.59	18349.80
491.77	18345.12
491.95	18707.90
492.13	18642.37
492.30	19023.87
492.48	18881.10
492.66	18757.05
492.84	18771.10
493.01	19126.86
493.19	19206.44
493.37	19431.13
493.54	19541.13
493.72	19740.08
493.90	20027.96
494.08	20093.50
494.25	19997.54
494.43	20147.33
494.61	20430.54
494.79	20229.25
494.96	20395.43
495.14	20531.18
495.32	21029.71
495.49	20320.53
495.67	20788.64
495.85	21092.91
496.02	20922.05
496.20	21191.21
496.38	21296.53
496.55	21528.25
496.73	22008.06
496.91	21659.32
497.09	21706.13
497.26	21809.11
497.44	21902.73
497.62	22192.96
497.79	22525.32
497.97	22309.99
498.14	22607.23
498.32	22616.60
498.50	22670.43
498.67	22611.92
498.85	23007.47
499.03	22764.05
499.20	22768.73
499.38	23166.62
499.56	23262.58
499.73	23000.44
499.91	23260.24
500.08	23473.23
500.26	23452.17
500.44	23821.97
500.61	23707.29
500.79	23786.86
500.97	23723.67
501.14	24261.99
501.32	24170.71
501.49	24252.63
501.67	24023.26
501.84	24486.68
502.02	24348.59
502.20	24606.05
502.37	24269.01
502.55	24690.31
502.72	24702.01
502.90	24905.64
503.07	24676.27
503.25	24788.61
503.43	24917.34
503.60	25088.20
503.78	25308.21
503.95	25542.27
504.13	25200.55
504.30	25741.21
504.48	25432.26
504.65	25439.28
504.83	25771.64
505.01	25790.36
505.18	26106.34
505.36	26382.52
505.53	26129.74
505.71	26169.53
505.88	26033.78
506.06	26171.87
506.23	26600.19
506.41	26118.04
506.58	26057.18
506.76	26663.38
506.93	26871.69
507.11	26864.67
507.28	26967.65
507.46	26939.57
507.63	27157.24
507.81	27007.44
507.98	27035.53
508.16	27491.93
508.33	27328.10
508.50	27447.46
508.68	27157.24
508.85	27803.22
509.03	27674.49
509.20	27524.70
509.38	28070.04
509.55	27817.27
509.73	27754.07
509.90	28107.49
510.08	28013.87
510.25	28322.82
510.42	28421.13
510.60	28601.35
510.77	28744.12
510.95	28870.51
511.12	28350.91
511.30	28456.23
511.47	28657.52
511.64	28973.49
511.82	28802.63
511.99	29223.93
512.17	29020.30
512.34	28978.17
512.51	29200.52
512.69	29413.51
512.86	29326.91
513.04	29591.39
513.21	29682.67
513.38	29928.43
513.56	29413.51
513.73	29244.99
513.90	29685.01
514.08	29790.34
514.25	29860.55
514.43	30394.20
514.60	30576.76
514.77	30251.42
514.95	30391.86
515.12	30604.84
515.29	30211.64
515.47	30597.82
515.64	31058.91
515.81	30197.59
515.99	30745.28
516.16	31164.23
516.33	30768.68
516.51	31143.17
516.68	30841.24
516.85	30998.06
517.03	31037.84
517.20	31281.26
517.37	31192.32
517.54	31374.88
517.72	31040.18
517.89	31433.39
518.06	31842.99
518.24	31505.95
518.41	31438.08
518.58	31821.92
518.75	31655.75
518.93	31749.37
519.10	32030.23
519.27	31534.04
519.45	31679.15
519.62	32266.63
519.79	32456.21
519.96	32105.13
520.14	32044.27
520.31	32229.18
520.48	32210.45
520.65	32346.20
520.83	32708.99
521.00	32753.46
521.17	32811.97
521.34	32975.81
521.52	33284.76
521.69	32730.05
521.86	33291.78
522.03	33354.97
522.20	33584.35
522.38	33537.54
522.55	33420.51
522.72	33448.60
522.89	33282.42
523.07	34024.37
523.24	33511.79
523.41	33914.36
523.58	33343.27
523.75	33827.76
523.92	33738.82
524.10	34003.30
524.27	34115.65
524.44	34148.42
524.61	34246.72
524.78	34281.83
524.96	34576.73
525.13	34216.29
525.30	34307.57
525.47	34300.55
525.64	34508.86
525.81	34548.65
525.98	34738.23
526.16	34962.92
526.33	34384.81
526.50	34895.05
526.67	34972.28
526.84	34890.37
527.01	35014.41
527.18	34944.20
527.36	35405.28
527.53	35405.28
527.70	35381.88
527.87	35196.98
528.04	35356.13
528.21	35084.63
528.38	35269.53
528.55	35627.63
528.72	35239.11
528.89	35576.14
529.07	35543.38
529.24	35292.94
529.41	35662.74
529.58	35655.72
529.75	35456.78
529.92	36086.38
530.09	36282.98
530.26	35761.05
530.43	36273.62
530.60	35857.01
530.77	36275.96
530.94	36074.68
531.11	36048.93
531.28	36065.31
531.46	36238.51
531.63	36856.42
531.80	36659.81
531.97	36505.34
532.14	36744.07
532.31	36533.42
532.48	36800.24
532.65	36893.86
532.82	36865.78
532.99	37027.28
533.16	36418.74
533.33	37092.81
533.50	37198.13
533.67	36938.33
533.84	36921.95
534.01	37179.41
534.18	36959.40
534.35	37429.85
534.52	37418.14
534.69	37872.21
534.86	37647.52
535.03	37439.21
535.20	37635.81
535.37	37846.46
535.54	37933.06
535.71	37425.17
535.88	37432.19
536.05	37839.44
536.22	38176.48
536.38	38007.96
536.55	37865.19
536.72	37801.99
536.89	37766.88
537.06	37867.53
537.23	38703.10
537.40	37792.63
537.57	37811.35
537.74	37961.15
537.91	38532.24
538.08	38426.92
538.25	38279.46
538.42	38497.13
538.59	38614.16
538.75	38646.93
538.92	39131.42
539.09	39005.03
539.26	38899.70
539.43	38707.78
539.60	39152.48
539.77	38693.74
539.94	38752.25
540.11	39164.18
540.28	38948.85
540.44	38843.53
540.61	38895.02
540.78	38983.96
540.95	39274.19
541.12	38927.79
541.29	38848.21
541.46	38859.91
541.62	39407.60
541.79	39550.37
541.96	39019.07
542.13	39522.29
542.30	39316.32
542.47	39068.22
542.63	39908.47
542.80	39910.82
542.97	40140.19
543.14	40479.57
543.31	40067.63
543.48	39665.06
543.64	39948.26
543.81	39952.94
543.98	39878.05
544.15	39765.70
544.32	40121.46
544.48	40524.04
544.65	40086.36
544.82	40179.98
544.99	40376.58
545.16	40425.73
545.32	40158.91
545.49	40935.97
545.66	40903.20
545.83	40968.74
546.00	40662.13
546.16	40573.19
546.33	40694.89
546.50	40540.42
546.67	41233.22
546.83	40301.68
547.00	40690.21
547.17	40385.94
547.34	40832.99
547.50	41074.06
547.67	40971.08
547.84	40528.72
548.00	41303.43
548.17	41806.65
548.34	41497.70
548.51	41322.16
548.67	41612.38
548.84	41427.48
549.01	41132.57
549.18	41383.01
549.34	41511.74
549.51	42047.72
549.68	41443.87
549.84	41289.39
550.01	41694.30
550.18	41280.03
550.34	41937.72
550.51	41846.44
550.68	41818.35
550.84	41834.74
551.01	41991.55
551.18	41628.77
551.34	41879.21
551.51	42164.75
551.68	41851.12
551.84	41984.53
552.01	42115.60
552.18	42340.29
552.34	42031.34
552.51	41947.08
552.68	41830.05
552.84	42038.36
553.01	42197.52
553.18	42197.52
553.34	42036.02
553.51	41991.55
553.67	42312.20
553.84	42454.98
554.01	42529.87
554.17	42363.70
554.34	42850.53
554.51	42522.85
554.67	42997.98
554.84	42674.99
555.00	42869.25
555.17	43089.26
555.33	42672.65
555.50	42710.10
555.67	42691.37
555.83	42548.60
556.00	42895.00
556.16	43140.75
556.33	42911.38
556.50	43351.40
556.66	43056.50
556.83	42454.98
556.99	42965.21
557.16	43124.37
557.32	43236.72
557.49	43215.65
557.65	42934.79
557.82	42747.54
557.98	42953.51
558.15	43423.96
558.32	43154.80
558.48	43342.04
558.65	43227.35
558.81	42941.81
558.98	42909.04
559.14	43026.07
559.31	43222.67
559.47	43096.28
559.64	43562.05
559.80	43370.13
559.97	43653.33
560.13	43363.11
560.30	43395.87
560.46	43819.51
560.63	43524.60
560.79	43381.83
560.96	43751.63
561.12	43969.30
561.29	44002.07
561.45	43805.47
561.61	43805.47
561.78	43611.20
561.94	43639.29
562.11	43325.66
562.27	43627.59
562.44	43344.38
562.60	43903.77
562.77	44165.91
562.93	43665.03
563.10	43814.83
563.26	44067.61
563.42	44170.59
563.59	43777.38
563.75	43686.10
563.92	44065.27
564.08	43812.49
564.24	44189.31
564.41	44030.16
564.57	44215.06
564.74	44219.74
564.90	44034.84
565.07	44186.97
565.23	43768.02
565.39	43826.53
565.56	44083.99
565.72	44074.63
565.88	44069.95
566.05	44177.61
566.21	44098.03
566.38	44538.05
566.54	44229.10
566.70	44687.85
566.87	44219.74
567.03	43959.94
567.19	44437.41
567.36	44233.78
567.52	43997.39
567.68	44861.05
567.85	44610.61
568.01	44610.61
568.17	44348.47
568.34	44011.43
568.50	44423.37
568.66	44100.37
568.83	44786.15
568.99	44460.82
569.15	44350.81
569.32	44294.64
569.48	44531.03
569.64	44978.07
569.81	44505.29
569.97	44980.42
570.13	44903.18
570.30	44500.61
570.46	44680.83
570.62	44369.54
570.78	44456.14
570.95	44755.72
571.11	44992.12
571.27	44926.58
571.43	44582.52
571.60	44521.67
571.76	44596.57
571.92	44591.89
572.09	44519.33
572.25	44737.00
572.41	44399.96
572.57	44729.98
572.74	45303.41
572.90	44669.12
573.06	44788.49
573.22	45036.59
573.38	44891.48
573.55	44905.52
573.71	45425.12
573.87	44926.58
574.03	44683.17
574.20	45191.06
574.36	45216.81
574.52	44800.19
574.68	45059.99
574.84	45214.47
575.01	45240.21
575.17	45139.57
575.33	45207.45
575.49	45036.59
575.65	45118.51
575.82	44823.60
575.98	45153.62
576.14	45092.76
576.30	45118.51
576.46	45151.27
576.62	44741.68
576.79	45207.45
576.95	44678.49
577.11	44577.84
577.27	45118.51
577.43	45247.24
577.59	44982.76
577.75	44804.88
577.92	44545.08
578.08	44645.72
578.24	45263.62
578.40	45418.10
578.56	45378.31
578.72	45139.57
578.88	45134.89
579.04	45209.79
579.21	45017.86
579.37	45240.21
579.53	45413.41
579.69	44715.93
579.85	45195.74
580.01	45373.63
580.17	45202.77
580.33	45282.34
580.49	45120.85
580.65	45251.92
580.82	45127.87
580.98	44999.14
581.14	44739.34
581.30	45242.56
581.46	44692.53
581.62	45219.15
581.78	45263.62
581.94	45120.85
582.10	45240.21
582.26	44926.58
582.42	45584.27
582.58	45055.31
582.74	45422.78
582.90	45165.32
583.06	44898.50
583.22	45303.41
583.38	45352.56
583.54	45507.04
583.70	45488.31
583.86	45588.95
584.02	45214.47
584.18	45656.83
584.34	45209.79
584.50	45256.60
584.66	45972.80
584.82	45453.20
584.98	45804.28
585.14	45591.30
585.30	45207.45
585.46	45184.04
585.62	45354.90
585.78	45052.97
585.94	44975.73
586.10	44957.01
586.26	45277.66
586.42	45132.55
586.58	45722.37
586.74	45687.26
586.90	45312.77
587.06	45478.95
587.22	45682.58
587.38	45485.97
587.54	45280.00
587.70	46115.58
587.86	45514.06
588.02	45038.93
588.18	45525.76
588.34	45593.64
588.49	45427.46
588.65	45359.58
588.81	45844.07
588.97	45778.54
589.13	45745.77
589.29	45263.62
589.45	45628.74
589.61	45787.90
589.77	45654.49
589.93	45570.23
590.08	45514.06
590.24	46082.81
590.40	45790.24
590.56	46258.35
590.72	45776.20
590.88	45752.79
591.04	45574.91
591.20	46146.00
591.35	46209.20
591.51	46513.47
591.67	45729.39
591.83	46401.12
591.99	45698.96
592.15	45865.14
592.31	46141.32
592.46	45839.39
592.62	46064.08
592.78	45886.20
592.94	46225.58
593.10	45944.72
593.26	46085.15
593.41	46101.53
593.57	46246.65
593.73	46134.30
593.89	46494.74
594.05	46108.55
594.20	46171.75
594.36	46483.04
594.52	46438.57
594.68	45827.69
594.84	46244.30
594.99	46157.70
595.15	46160.05
595.31	45996.21
595.47	46059.40
595.62	46101.53
595.78	46167.07
595.94	46424.53
596.10	45785.56
596.25	46066.42
596.41	46328.56
596.57	46108.55
596.73	46356.65
596.88	46061.74
597.04	46281.75
597.20	46078.13
597.36	46064.08
597.51	46377.72
597.67	45668.53
597.83	46183.45
597.99	46398.78
598.14	45794.92
598.30	46167.07
598.46	46618.79
598.61	46246.65
598.77	46337.93
598.93	46436.23
599.09	46326.22
599.24	46515.81
599.40	46178.77
599.56	46342.61
599.71	46571.98
599.87	46651.56
600.03	46473.68
600.18	46499.42
600.34	46150.68
600.50	46150.68
600.65	46192.81
600.81	46885.61
600.97	46834.12
601.12	46579.00
601.28	46366.01
601.44	46431.55
601.59	45998.55
601.75	46314.52
601.91	46693.69
602.06	46103.87
602.22	46635.17
602.37	46408.14
602.53	46728.80
602.69	46354.31
602.84	46387.08
603.00	46234.94
603.16	46344.95
603.31	45734.07
603.47	46436.23
603.62	46689.01
603.78	46796.67
603.94	46234.94
604.09	46410.48
604.25	46085.15
604.40	46174.09
604.56	46213.88
604.71	46766.24
604.87	46101.53
605.03	46429.21
605.18	45984.51
605.34	45944.72
605.49	46361.33
605.65	46438.57
605.80	46405.80
605.96	46286.43
606.12	45961.10
606.27	46300.48
606.43	45813.65
606.58	46323.88
606.74	46344.95
606.89	46138.98
607.05	46681.98
607.20	46784.97
607.36	46138.98
607.51	46089.83
607.67	45691.94
607.82	46174.09
607.98	46143.66
608.13	46674.96
608.29	45696.62
608.44	46358.99
608.60	45668.53
608.75	46274.73
608.91	46047.70
609.06	46038.34
609.22	45989.19
609.37	45893.22
609.53	46525.17
609.68	45965.78
609.84	45902.59
609.99	45834.71
610.15	45860.46
610.30	46007.91
610.46	46103.87
610.61	46344.95
610.76	46181.11
610.92	45570.23
611.07	45640.45
611.23	45574.91
611.38	45535.12
611.54	46232.60
611.69	45748.11
611.84	46096.85
612.00	45549.17
612.15	45221.49
612.31	45911.95
612.46	45254.26
612.62	45656.83
612.77	45748.11
612.92	46241.96
613.08	45923.65
613.23	45640.45
613.39	45907.27
613.54	45663.85
613.69	45811.31
613.85	45813.65
614.00	45532.78
614.15	45481.29
614.31	45401.71
614.46	45471.93
614.62	45146.59
614.77	45312.77
614.92	45698.96
615.08	45579.59
615.23	45560.87
615.38	45350.22
615.54	45476.61
615.69	45572.57
615.84	45338.52
616.00	45762.15
616.15	45666.19
616.30	45780.88
616.46	45434.48
616.61	45132.55
616.76	45544.48
616.92	45635.77
617.07	45703.64
617.22	45418.10
617.37	44664.44
617.53	45471.93
617.68	44961.69
617.83	45298.73
617.99	45764.49
618.14	45631.08
618.29	45148.93
618.45	44954.67
618.60	45017.86
618.75	44692.53
618.90	45003.82
619.06	44938.29
619.21	45191.06
619.36	45481.29
619.51	44744.02
619.67	44479.54
619.82	44552.10
619.97	45022.54
620.12	44797.85
620.28	44952.33
620.43	45083.40
620.58	45017.86
620.73	44844.66
620.89	45137.23
621.04	45059.99
621.19	44992.12
621.34	44704.23
621.49	44933.60
621.65	45050.63
621.80	45244.90
621.95	44732.32
622.10	45067.02
622.25	44758.06
622.41	44650.40
622.56	44772.11
622.71	44734.66
622.86	44884.45
623.01	44720.62
623.16	44477.20
623.32	44697.21
623.47	44615.29
623.62	44367.20
623.77	44652.74
623.92	44505.29
624.07	44645.72
624.23	44811.90
624.38	44631.68
624.53	44706.57
624.68	43821.85
624.83	44502.95
624.98	44580.18
625.13	43999.73
625.29	44198.68
625.44	44037.18
625.59	44570.82
625.74	44238.47
625.89	44170.59
626.04	44325.07
626.19	43629.93
626.34	44039.52
626.49	43739.93
626.65	43674.40
626.80	43704.82
626.95	43351.40
627.10	43365.45
627.25	44299.32
627.40	43871.00
627.55	43950.58
627.70	43730.57
627.85	44072.29
628.00	43777.38
628.15	44196.34
628.30	43693.12
628.45	43304.59
628.60	43477.79
628.76	43672.06
628.91	43405.23
629.06	43178.20
629.21	43419.28
629.36	43456.73
629.51	43482.47
629.66	44168.25
629.81	43545.67
629.96	43585.46
630.11	43770.36
630.26	43487.15
630.41	43358.42
630.56	43210.97
630.71	43075.22
630.86	43232.04
631.01	43131.39
631.16	43056.50
631.31	43393.53
631.46	42906.70
631.61	43793.76
631.76	43353.74
631.91	43365.45
632.06	43587.80
632.21	43440.34
632.36	43232.04
632.51	42799.04
632.66	43166.50
632.81	42986.28
632.96	43269.48
633.10	43040.11
633.25	42913.72
633.40	43356.08
633.55	43232.04
633.70	42974.58
633.85	42824.78
634.00	42602.43
634.15	42885.64
634.30	42906.70
634.45	43014.37
634.60	42981.60
634.75	43360.76
634.90	42684.35
635.05	42880.95
635.19	42749.88
635.34	42471.36
635.49	43122.03
635.64	42932.45
635.79	42902.02
635.94	42337.95
636.09	42616.47
636.24	42370.72
636.39	42560.30
636.53	42733.50
636.68	42368.38
636.83	42167.09
636.98	42454.98
637.13	42064.11
637.28	42029.00
637.43	42738.18
637.57	42000.91
637.72	42120.28
637.87	41614.72
638.02	42066.45
638.17	42270.08
638.32	41785.58
638.46	42225.60
638.61	41745.80
638.76	41593.66
638.91	42141.35
639.06	41654.51
639.20	41797.29
639.35	41816.01
639.50	41673.24
639.65	42462.00
639.80	42478.38
639.94	42003.25
640.09	42066.45
640.24	41600.68
640.39	41698.98
640.54	41394.71
640.68	41598.34
640.83	42050.06
640.98	41294.07
641.13	41567.91
641.27	41696.64
641.42	41333.86
641.57	41130.23
641.72	41837.08
641.86	41413.44
642.01	41626.43
642.16	41577.28
642.31	41069.38
642.45	41462.59
642.60	40973.42
642.75	41507.06
642.90	41551.53
643.04	41308.11
643.19	41120.87
643.34	40975.76
643.48	41448.55
643.63	40877.46
643.78	41338.54
643.93	41045.97
644.07	41029.59
644.22	41317.48
644.37	41020.23
644.51	41333.86
644.66	41219.17
644.81	40875.12
644.95	41511.74
645.10	41003.85
645.25	40957.03
645.39	41141.94
645.54	41062.36
645.69	40610.64
645.83	40362.54
645.98	40540.42
646.13	41048.32
646.27	40493.61
646.42	40566.16
646.57	40690.21
646.71	40921.93
646.86	40851.71
647.00	41097.47
647.15	40954.69
647.30	40898.52
647.44	40439.78
647.59	40472.54
647.74	40699.58
647.88	40725.32
648.03	40835.33
648.17	40966.40
648.32	40573.19
648.47	40601.27
648.61	40491.27
648.76	40598.93
648.90	40238.49
649.05	40442.12
649.20	40439.78
649.34	40418.71
649.49	40102.74
649.63	40252.53
649.78	40175.30
649.92	40025.50
650.07	40320.41
650.21	40348.50
650.36	40509.99
650.51	40280.62
650.65	40245.51
650.80	40252.53
650.94	40201.04
651.09	40016.14
651.23	39585.48
651.38	39590.16
651.52	39512.92
651.67	39966.99
651.81	40100.40
651.96	39889.75
652.10	40060.61
652.25	40025.50
652.39	39838.26
652.54	39826.56
652.68	39831.24
652.83	40041.88
652.97	40072.31
653.12	39852.30
653.26	40086.36
653.41	39789.11
653.55	39697.83
653.70	39966.99
653.84	39990.39
653.99	40009.12
654.13	40261.90
654.27	39342.06
654.42	39372.49
654.56	39435.69
654.71	39545.69
654.85	39803.15
655.00	39538.67
655.14	39398.24
655.29	39632.29
655.43	39515.26
655.57	39014.39
655.72	39344.41
655.86	39548.03
656.01	39367.81
656.15	39154.82
656.30	38951.20
656.44	39239.08
656.58	39306.96
656.73	39346.75
656.87	39136.10
657.01	38431.60
657.16	39077.58
657.30	38937.15
657.45	39349.09
657.59	39201.63
657.73	38866.94
657.88	38967.58
658.02	39026.09
658.16	38817.78
658.31	39122.05
658.45	38684.37
658.60	38473.73
658.74	39220.36
658.88	38768.63
659.03	38382.45
659.17	38583.73
659.31	38321.59
659.46	38321.59
659.60	38817.78
659.74	38455.00
659.89	38181.16
660.03	38075.84
660.17	38213.93
660.32	38660.97
660.46	38225.63
660.60	37867.53
660.74	38253.72
660.89	38415.21
661.03	37631.13
661.17	37883.91
661.32	37682.62
661.46	37460.27
661.60	37900.29
661.74	38192.86
661.89	37722.41
662.03	37638.15
662.17	37553.90
662.31	37392.40
662.46	37493.04
662.60	37181.75
662.74	37436.87
662.88	36896.20
663.03	36954.72
663.17	37170.05
663.31	37134.94
663.45	37392.40
663.60	37397.08
663.74	37296.44
663.88	37186.43
664.02	37055.36
664.17	37177.07
664.31	36856.42
664.45	36526.40
664.59	36807.26
664.73	36559.17
664.88	37170.05
665.02	36666.83
665.16	36694.92
665.30	36708.96
665.44	36624.70
665.59	36613.00
665.73	36297.03
665.87	35704.87
666.01	36364.90
666.15	35864.03
666.29	36151.91
666.44	36854.08
666.58	36201.07
666.72	35819.56
666.86	36121.49
667.00	35887.43
667.14	35618.27
667.28	35969.35
667.43	35454.44
667.57	35934.24
667.71	35786.79
667.85	35878.07
667.99	35622.95
668.13	35770.41
668.27	35091.65
668.41	35019.10
668.56	34529.92
668.70	34932.50
668.84	34852.92
668.98	35159.53
669.12	34719.51
669.26	35325.71
669.40	35028.46
669.54	34794.40
669.68	35110.38
669.82	34918.45
669.96	34319.28
670.10	34146.08
670.25	34209.27
670.39	34389.49
670.53	34902.07
670.67	34675.04
670.81	34459.71
670.95	34436.30
671.09	34181.18
671.23	34211.61
671.37	33977.56
671.51	34007.98
671.65	33741.16
671.79	34199.91
671.93	34106.29
672.07	34106.29
672.21	33797.34
672.35	33371.36
672.49	33638.18
672.63	33823.08
672.77	33256.67
672.91	33371.36
673.05	33170.07
673.19	33069.43
673.33	32741.75
673.47	33160.71
673.61	33081.13
673.75	32414.08
673.89	32540.47
674.03	32451.53
674.17	32018.53
674.31	32449.19
674.45	32283.01
674.59	32341.52
674.73	32287.69
674.87	32215.13
675.01	31931.93
675.15	31632.34
675.29	31440.42
675.43	32109.81
675.56	32479.61
675.70	31667.45
675.84	31765.75
675.98	31056.57
676.12	31051.89
676.26	31606.59
676.40	31250.83
676.54	31388.92
676.68	30953.58
676.82	30448.03
676.96	30899.75
677.10	30939.54
677.23	30831.88
677.37	30834.22
677.51	30742.94
677.65	30726.55
677.79	30391.86
677.93	30368.45
678.07	30417.60
678.21	30066.52
678.34	30169.51
678.48	29909.71
678.62	29776.30
678.76	29745.87
678.90	29738.85
679.04	29752.89
679.18	29802.04
679.31	29244.99
679.45	29350.32
679.59	29266.06
679.73	29240.31
679.87	29289.46
680.00	28987.53
680.14	29104.56
680.28	28973.49
680.42	28620.07
680.56	28781.57
680.70	28437.51
680.83	28212.82
680.97	28126.22
681.11	28364.95
681.25	27938.97
681.39	27655.77
681.52	27814.93
681.66	27821.95
681.80	27180.64
681.94	27255.54
682.07	27623.00
682.21	27262.56
682.35	27136.17
682.49	27166.60
682.62	26852.97
682.76	27042.55
682.90	27044.89
683.04	26953.61
683.17	26941.91
683.31	26850.63
683.45	26527.63
683.59	26181.23
683.72	26155.49
683.86	26541.68
684.00	26075.91
684.13	26174.21
684.27	25640.57
684.41	25633.55
684.55	25788.02
684.68	25844.20
684.82	25745.89
684.96	25919.09
685.09	25429.92
685.23	25249.70
685.37	25586.74
685.50	25455.67
685.64	25832.49
685.78	25151.40
685.91	24795.64
686.05	24940.75
686.19	24135.60
686.32	24634.14
686.46	24266.67
686.60	24498.39
686.73	24486.68
686.87	24418.81
687.01	24166.03
687.14	24432.85
687.28	24053.69
687.42	23941.34
687.55	23953.04
687.69	23859.42
687.82	23498.98
687.96	23644.09
688.10	23653.45
688.23	23679.20
688.37	23594.94
688.50	23398.34
688.64	23435.78
688.78	23372.59
688.91	23342.16
689.05	23199.39
689.18	22799.16
689.32	22684.47
689.46	22494.89
689.59	22522.98
689.73	22796.82
689.86	22672.77
690.00	22637.66
690.13	22637.66
690.27	22134.45
690.41	22209.34
690.54	22129.77
690.68	21872.31
690.81	21626.55
690.95	21507.18
691.08	21490.80
691.22	21401.86
691.35	21661.66
691.49	21598.46
691.62	21263.77
691.76	20992.26
691.89	21074.18
692.03	20613.10
692.16	20463.30
692.30	20800.34
692.43	21003.97
692.57	20374.36
692.70	20369.68
692.84	20552.24
692.97	20130.95
693.11	20226.91
693.24	20042.01
693.38	19971.79
693.51	20025.62
693.65	19932.00
693.78	19915.62
693.92	19723.69
694.05	19660.50
694.19	19398.36
694.32	19824.34
694.45	19889.87
694.59	19721.35
694.72	19321.12
694.86	19255.59
694.99	18780.46
695.13	19044.94
695.26	18827.27
695.39	18822.59
695.53	18761.73
695.66	18888.12
695.80	18747.69
695.93	18728.97
696.07	18490.23
696.20	18200.01
696.33	17987.02
696.47	18019.78
696.60	18211.71
696.73	18139.15
696.87	18029.15
697.00	18223.41
697.14	17554.02
697.27	17797.43
697.40	17888.71
697.54	17401.88
697.67	17378.48
697.80	17369.12
697.94	17334.01
698.07	17554.02
698.21	17216.98
698.34	17338.69
698.47	17078.89
698.61	16608.44
698.74	16723.13
698.87	16568.65
699.01	16629.51
699.14	16662.27
699.27	16507.80
699.40	16596.74
699.54	16425.88
699.67	16170.76
699.80	16264.38
699.94	16201.19
700.07	16283.11
700.20	16016.29
700.34	15896.92
700.47	16037.35
700.60	15704.99
700.73	15690.95
700.87	15648.82
701.00	15515.41
701.13	15695.63
701.26	15140.93
701.40	15421.79
701.53	15087.09
701.66	15145.61
701.79	15351.57
701.93	14944.32
702.06	14782.82
702.19	14576.86
702.32	14675.16
702.46	15161.99
702.59	15040.28
702.72	14871.76
702.85	14647.07
702.99	14520.68
703.12	14384.93
703.25	14279.61
703.38	14047.90
703.51	14094.71
703.65	14197.69
703.78	13982.36
703.91	13551.70
704.04	13741.29
704.17	13652.34
704.31	13757.67
704.44	13458.08
704.57	13745.97
704.70	13687.45
704.83	13708.52
704.96	13542.34
705.10	13202.96
705.23	13284.88
>>>>>End Processed Spectral Data<<<<<
