SpectraSuite Data File
++++++++++++++++++++++++++++++++++++
Date: Fri Oct 25 10:43:41 EDT 2013
User: price-jones
Dark Spectrum Present: No
Reference Spectrum Present: No
Number of Sampled Component Spectra: 1
Spectrometers: USB2+H05261
Integration Time (usec): 100000 (USB2+H05261)
Spectra Averaged: 1 (USB2+H05261)
Boxcar Smoothing: 0 (USB2+H05261)
Correct for Electrical Dark: No (USB2+H05261)
Strobe/Lamp Enabled: No (USB2+H05261)
Correct for Detector Non-linearity: No (USB2+H05261)
Correct for Stray Light: No (USB2+H05261)
Number of Pixels in Processed Spectrum: 2048
>>>>>Begin Processed Spectral Data<<<<<
365.73	145.11
365.92	145.11
366.12	145.11
366.32	2.34
366.52	72.56
366.72	114.69
366.91	0.00
367.11	65.54
367.31	0.00
367.51	0.00
367.70	0.00
367.90	67.88
368.10	11.70
368.30	35.11
368.49	11.70
368.69	63.19
368.89	42.13
369.09	95.96
369.28	35.11
369.48	28.09
369.68	32.77
369.87	70.22
370.07	95.96
370.27	93.62
370.47	114.69
370.66	381.51
370.86	461.09
371.06	486.83
371.25	461.09
371.45	447.04
371.65	512.58
371.84	435.34
372.04	512.58
372.24	468.11
372.44	503.22
372.63	571.09
372.83	470.45
373.03	552.37
373.22	550.03
373.42	470.45
373.62	447.04
373.81	437.68
374.01	603.86
374.21	533.64
374.40	552.37
374.60	526.62
374.79	634.29
374.99	538.32
375.19	613.22
375.38	650.67
375.58	585.13
375.78	617.90
375.97	547.69
376.17	669.39
376.37	650.67
376.56	641.31
376.76	610.88
376.95	660.03
377.15	634.29
377.35	575.77
377.54	650.67
377.74	643.65
377.93	655.35
378.13	653.01
378.33	662.37
378.52	699.82
378.72	627.26
378.91	575.77
379.11	653.01
379.31	603.86
379.50	653.01
379.70	674.07
379.89	685.78
380.09	641.31
380.28	716.20
380.48	695.14
380.68	704.50
380.87	674.07
381.07	713.86
381.26	751.31
381.46	704.50
381.65	772.38
381.85	685.78
382.04	758.33
382.24	737.27
382.43	727.91
382.63	723.23
382.83	662.37
383.02	730.25
383.22	835.57
383.41	746.63
383.61	741.95
383.80	837.91
384.00	791.10
384.19	830.89
384.39	873.02
384.58	823.87
384.78	674.07
384.97	779.40
385.17	802.80
385.36	795.78
385.56	835.57
385.75	795.78
385.95	861.32
386.14	851.96
386.34	828.55
386.53	868.34
386.72	868.34
386.92	809.83
387.11	882.38
387.31	936.21
387.50	800.46
387.70	873.02
387.89	912.81
388.09	856.64
388.28	840.25
388.48	919.83
388.67	933.87
388.86	954.94
389.06	990.05
389.25	1006.43
389.45	999.41
389.64	994.73
389.84	1032.18
390.03	940.90
390.22	964.30
390.42	978.34
390.61	997.07
390.81	973.66
391.00	1046.22
391.19	1188.99
391.39	1121.12
391.58	1132.82
391.78	1078.99
391.97	1008.77
392.16	964.30
392.36	1151.54
392.55	1130.48
392.75	961.96
392.94	1015.79
393.13	1086.01
393.33	1062.60
393.52	1076.65
393.71	1102.39
393.91	1071.97
394.10	1163.25
394.29	1158.57
394.49	1158.57
394.68	1165.59
394.88	1193.67
395.07	1329.42
395.26	1268.57
395.46	1282.61
395.65	1214.74
395.84	1210.06
396.04	1226.44
396.23	1217.08
396.42	1174.95
396.62	1235.80
396.81	1130.48
397.00	1188.99
397.19	1322.40
397.39	1423.05
397.58	1397.30
397.77	1406.66
397.97	1362.19
398.16	1418.36
398.35	1453.47
398.55	1401.98
398.74	1526.03
398.93	1521.35
399.12	1507.30
399.32	1507.30
399.51	1530.71
399.70	1631.35
399.90	1579.86
400.09	1563.48
400.28	1668.80
400.47	1666.46
400.67	1647.74
400.86	1652.42
401.05	1685.19
401.24	1643.06
401.44	1764.76
401.63	1816.26
401.82	1671.14
402.01	1699.23
402.21	1788.17
402.40	1736.68
402.59	1771.79
402.78	1736.68
402.97	1760.08
403.17	1790.51
403.36	1827.96
403.55	1837.32
403.74	1926.26
403.93	1912.22
404.13	1886.47
404.32	1856.04
404.51	1863.07
404.70	1898.17
404.89	2015.20
405.09	2029.24
405.28	2038.61
405.47	2059.67
405.66	1898.17
405.85	1982.43
406.05	1956.69
406.24	1982.43
406.43	2033.93
406.62	2090.10
406.81	2221.17
407.00	2073.71
407.20	2057.33
407.39	2078.40
407.58	2204.78
407.77	2314.79
407.96	2277.34
408.15	2296.07
408.34	2389.69
408.54	2410.75
408.73	2342.88
408.92	2338.20
409.11	2321.81
409.30	2392.03
409.49	2242.23
409.68	2279.68
409.87	2246.91
410.07	2408.41
410.26	2429.48
410.45	2490.33
410.64	2361.60
410.83	2450.54
411.02	2637.78
411.21	2654.17
411.40	2553.52
411.59	2679.91
411.78	2780.56
411.98	2506.71
412.17	2700.98
412.36	2605.02
412.55	2789.92
412.74	2689.28
412.93	2656.51
413.12	2752.47
413.31	3009.93
413.50	2773.53
413.69	2883.54
413.88	2944.39
414.07	2923.33
414.26	2935.03
414.45	2942.05
414.64	3056.74
414.83	3016.95
415.02	3187.81
415.22	3148.02
415.41	3169.09
415.60	3145.68
415.79	3141.00
415.98	3351.65
416.17	3157.38
416.36	3337.60
416.55	3255.69
416.74	3318.88
416.93	3241.64
417.12	3400.80
417.31	3295.47
417.50	3400.80
417.69	3410.16
417.88	3503.78
418.07	3480.38
418.26	3501.44
418.45	3421.86
418.64	3653.58
418.83	3566.98
419.02	3592.72
419.21	3702.73
419.39	3810.39
419.58	3597.40
419.77	3595.06
419.96	3719.11
420.15	3662.94
420.34	3669.96
420.53	3854.86
420.72	3831.46
420.91	3950.82
421.10	3847.84
421.29	3983.59
421.48	3763.58
421.67	4037.42
421.86	3761.24
422.05	3875.93
422.24	3721.45
422.43	3866.56
422.61	3927.42
422.80	3861.88
422.99	3906.35
423.18	3868.91
423.37	4030.40
423.56	4128.70
423.75	3976.57
423.94	3873.59
424.13	3714.43
424.32	3737.84
424.50	4060.83
424.69	4025.72
424.88	4070.19
425.07	3971.89
425.26	3974.23
425.45	3934.44
425.64	3920.40
425.83	4044.45
426.01	4044.45
426.20	4009.34
426.39	4074.87
426.58	3988.27
426.77	3882.95
426.96	4060.83
427.15	4009.34
427.33	4119.34
427.52	4065.51
427.71	4095.94
427.90	4077.21
428.09	4133.39
428.28	4273.82
428.46	4215.30
428.65	4212.96
428.84	4236.37
429.03	4252.75
429.22	4124.02
429.40	4266.80
429.59	4095.94
429.78	3985.93
429.97	3969.55
430.16	4016.36
430.34	4117.00
430.53	4187.22
430.72	4107.64
430.91	4252.75
431.10	4297.22
431.28	4498.51
431.47	4564.04
431.66	4842.57
431.85	4580.43
432.03	4762.99
432.22	4753.63
432.41	4753.63
432.60	4730.22
432.79	4720.86
432.97	4753.63
433.16	4770.01
433.35	4702.14
433.54	4755.97
433.72	4830.87
433.91	4816.82
434.10	4807.46
434.28	4807.46
434.47	4915.12
434.66	5022.79
434.85	5013.43
435.03	5064.92
435.22	5036.83
435.41	5114.07
435.59	5165.56
435.78	5132.79
435.97	5198.33
436.16	5221.74
436.34	5280.25
436.53	5165.56
436.72	5366.85
436.90	5097.69
437.09	5289.61
437.28	5174.92
437.46	5210.03
437.65	5252.16
437.84	5231.10
438.02	5048.54
438.21	5331.74
438.40	5284.93
438.58	5411.32
438.77	5547.07
438.96	5394.93
439.14	5535.37
439.33	5753.04
439.52	5657.07
439.70	5633.67
439.89	5680.48
440.08	5856.02
440.26	5825.59
440.45	5673.46
440.63	5872.40
440.82	5968.37
441.01	6043.26
441.19	6033.90
441.38	6036.24
441.57	6066.67
441.75	6277.32
441.94	6445.84
442.12	6328.81
442.31	6516.05
442.50	6478.60
442.68	6303.06
442.87	6406.05
443.05	6363.92
443.24	6672.87
443.43	6366.26
443.61	6509.03
443.80	6656.48
443.98	6438.81
444.17	6230.51
444.35	6464.56
444.54	6682.23
444.73	6633.08
444.91	6490.31
445.10	6434.13
445.28	6583.93
445.47	6523.07
445.65	6450.52
445.84	6637.76
446.02	6562.86
446.21	6644.78
446.39	6490.31
446.58	6806.28
446.77	6698.61
446.95	6656.48
447.14	6815.64
447.32	6932.67
447.51	6649.46
447.69	6827.34
447.88	6740.74
448.06	6817.98
448.25	6729.04
448.43	6726.70
448.62	7012.24
448.80	6904.58
448.99	6981.82
449.17	6984.16
449.36	6841.39
449.54	6913.94
449.73	7241.62
449.91	7138.63
450.10	7143.32
450.28	7435.88
450.46	7201.83
450.65	7295.45
450.83	7431.20
451.02	7267.36
451.20	7363.33
451.39	7501.42
451.57	7358.64
451.76	7258.00
451.94	7311.83
452.13	7499.08
452.31	7272.04
452.49	7117.57
452.68	7370.35
452.86	7300.13
453.05	7426.52
453.23	7468.65
453.42	7229.91
453.60	7438.22
453.78	7513.12
453.97	7517.80
454.15	7480.35
454.34	7456.95
454.52	7653.55
454.70	7639.51
454.89	7520.14
455.07	7665.25
455.26	7754.19
455.44	7819.73
455.62	7838.45
455.81	7798.66
455.99	7873.56
456.17	7901.65
456.36	7978.89
456.54	8222.30
456.73	8088.89
456.91	8374.44
457.09	8159.11
457.28	8269.11
457.46	8021.02
457.64	8248.05
457.83	8177.83
458.01	8032.72
458.19	8416.57
458.38	8367.42
458.56	8304.22
458.74	8194.22
458.93	8135.70
459.11	8369.76
459.29	8341.67
459.48	8219.96
459.66	8510.19
459.84	8465.72
460.03	8475.08
460.21	8381.46
460.39	8704.45
460.57	8451.67
460.76	8739.56
460.94	8648.28
461.12	8652.96
461.31	8685.73
461.49	8844.88
461.67	8819.14
461.85	9036.81
462.04	8872.97
462.22	9273.20
462.40	8971.27
462.59	8957.23
462.77	9153.84
462.95	8905.74
463.13	8987.66
463.32	8898.72
463.50	9011.06
463.68	9259.16
463.86	9275.54
464.05	8936.17
464.23	8999.36
464.41	9179.58
464.59	9029.79
464.78	9364.48
464.96	9238.09
465.14	8982.98
465.32	9242.78
465.50	9371.50
465.69	9308.31
465.87	9336.40
466.05	9329.38
466.23	9263.84
466.41	9277.88
466.60	9654.71
466.78	9324.69
466.96	9404.27
467.14	9448.74
467.32	9408.95
467.51	9401.93
467.69	9404.27
467.87	9362.14
468.05	9547.05
468.23	9432.36
468.41	9486.19
468.60	9579.81
468.78	9666.41
468.96	9738.97
469.14	9764.72
469.32	9675.77
469.50	9591.52
469.69	9736.63
469.87	9865.36
470.05	9727.27
470.23	9823.23
470.41	9856.00
470.59	10176.65
470.77	10136.86
470.95	10125.16
471.14	10155.58
471.32	10080.69
471.50	10382.62
471.68	10438.79
471.86	10497.30
472.04	10373.25
472.22	10616.67
472.40	10368.57
472.58	10267.93
472.77	10658.80
472.95	10670.50
473.13	10853.06
473.31	10656.46
473.49	10834.34
473.67	10717.31
473.85	10750.08
474.03	11133.93
474.21	11077.76
474.39	10986.47
474.57	11180.74
474.75	11243.93
474.93	11171.38
475.12	11246.27
475.30	11456.92
475.48	11297.77
475.66	11342.24
475.84	11449.90
476.02	11660.55
476.20	11529.48
476.38	11831.41
476.56	12020.99
476.74	12044.40
476.92	11831.41
477.10	11990.56
477.28	12250.36
477.46	12046.74
477.64	12208.23
477.82	12479.74
478.00	12744.22
478.18	12538.25
478.36	12877.63
478.54	12737.20
478.72	13046.15
478.90	13111.68
479.08	13270.84
479.26	13144.45
479.44	13004.02
479.62	13338.71
479.80	13432.33
479.98	13502.55
480.16	13729.58
480.34	13652.34
480.52	13778.73
480.70	14097.05
480.88	13635.96
481.06	14068.96
481.24	14228.12
481.41	14211.73
481.59	14530.05
481.77	14382.59
481.95	14508.98
482.13	14754.74
482.31	14876.44
482.49	15260.29
482.67	15145.61
482.85	15337.53
483.03	15634.78
483.21	15449.88
483.39	15672.23
483.57	15826.70
483.74	15770.53
483.92	15538.82
484.10	15672.23
484.28	15800.96
484.46	16109.91
484.64	16631.85
484.82	16194.17
485.00	16262.04
485.18	16365.03
485.35	16769.94
485.53	16393.11
485.71	16559.29
485.89	16676.32
486.07	16800.37
486.25	16704.40
486.43	17268.47
486.61	17284.86
486.78	17399.54
486.96	17551.68
487.14	17909.78
487.32	18059.57
487.50	18349.80
487.68	18148.51
487.85	18513.64
488.03	18422.36
488.21	18775.78
488.39	18766.42
488.57	18911.53
488.75	18719.60
488.92	19089.41
489.10	19400.70
489.28	19365.59
489.46	19901.58
489.64	19723.69
489.81	20409.47
489.99	20336.91
490.17	20430.54
490.35	20702.04
490.53	20641.18
490.70	20631.82
490.88	20524.16
491.06	21078.86
491.24	20929.07
491.41	20891.62
491.59	21163.12
491.77	21022.69
491.95	21425.26
492.13	21420.58
492.30	21788.05
492.48	21722.51
492.66	21689.74
492.84	22232.75
493.01	22232.75
493.19	22541.70
493.37	22335.73
493.54	22597.87
493.72	22923.21
493.90	23056.62
494.08	23351.52
494.25	23522.38
494.43	23548.13
494.61	23487.28
494.79	23770.48
494.96	23742.39
495.14	23335.14
495.32	24446.90
495.49	24074.75
495.67	24034.96
495.85	24318.17
496.02	24491.37
496.20	24428.17
496.38	24673.93
496.55	24575.62
496.73	25188.85
496.91	24856.49
497.09	25617.16
497.26	25142.03
497.44	25280.13
497.62	25357.36
497.79	25458.01
497.97	25181.82
498.14	25378.43
498.32	25947.18
498.50	26019.74
498.67	26235.06
498.85	26249.11
499.03	26331.03
499.20	26632.96
499.38	26445.71
499.56	26373.16
499.73	26965.31
499.91	26684.45
500.08	27056.59
500.26	26443.37
500.44	26810.84
500.61	26895.10
500.79	27190.00
500.97	27248.52
501.14	27527.04
501.32	27143.19
501.49	27358.52
501.67	27625.34
501.84	28048.98
502.02	27515.34
502.20	27976.42
502.37	27735.35
502.55	27623.00
502.72	28390.70
502.90	28311.12
503.07	28158.99
503.25	27934.29
503.43	28273.67
503.60	28570.92
503.78	28027.92
503.95	28414.10
504.13	28535.81
504.30	29209.89
504.48	28903.28
504.65	29308.19
504.83	29605.44
505.01	29181.80
505.18	29446.28
505.36	29743.53
505.53	29645.23
505.71	29977.58
505.88	30270.15
506.06	29741.19
506.23	29778.64
506.41	29909.71
506.58	30387.18
506.76	30302.92
506.93	30258.45
507.11	30118.01
507.28	30125.04
507.46	30019.71
507.63	30419.94
507.81	30499.52
507.98	30513.56
508.16	30799.11
508.33	30780.39
508.50	30857.62
508.68	31098.70
508.85	31264.88
509.03	30845.92
509.20	31307.01
509.38	31388.92
509.55	31505.95
509.73	31524.68
509.90	31730.64
510.08	31819.58
510.25	31564.46
510.42	31814.90
510.60	31777.45
510.77	31913.20
510.95	32306.41
511.12	31950.65
511.30	32561.53
511.47	32921.98
511.64	32517.06
511.82	32781.54
511.99	32559.19
512.17	32652.81
512.34	32283.01
512.51	32751.12
512.69	32807.29
512.86	33139.65
513.04	33113.90
513.21	32872.82
513.38	33233.27
513.56	33174.75
513.73	32631.75
513.90	33453.28
514.08	33104.54
514.25	33563.28
514.43	33535.20
514.60	33464.98
514.77	33457.96
514.95	34141.39
515.12	33914.36
515.29	34050.11
515.47	34071.18
515.64	34211.61
515.81	33797.34
515.99	34349.70
516.16	34174.16
516.33	33757.55
516.51	33816.06
516.68	33352.63
516.85	33776.27
517.03	34036.07
517.20	34202.25
517.37	34555.67
517.54	34675.04
517.72	34569.71
517.89	34312.25
518.06	34082.88
518.24	33951.81
518.41	34930.16
518.58	35101.01
518.75	35009.73
518.93	34859.94
519.10	34986.33
519.27	35431.03
519.45	35051.86
519.62	35447.41
519.79	35948.29
519.96	35637.00
520.14	35805.52
520.31	35339.75
520.48	36210.43
520.65	36177.66
520.83	36107.44
521.00	36528.74
521.17	36116.81
521.34	36306.39
521.52	36664.49
521.69	36416.40
521.86	36893.86
522.03	36868.12
522.20	36584.91
522.38	36311.07
522.55	36788.54
522.72	36680.88
522.89	36580.23
523.07	37137.28
523.24	36907.91
523.41	37249.63
523.58	37102.17
523.75	37867.53
523.92	37691.99
524.10	37581.98
524.27	37890.93
524.44	37663.90
524.61	37661.56
524.78	37968.17
524.96	37750.50
525.13	37975.19
525.30	38040.73
525.47	38188.18
525.64	37397.08
525.81	37659.22
525.98	37757.52
526.16	37626.45
526.33	37841.78
526.50	37968.17
526.67	37298.78
526.84	37350.27
527.01	37156.00
527.18	38103.92
527.36	38450.32
527.53	38305.21
527.70	38803.74
527.87	38508.83
528.04	38621.18
528.21	38562.67
528.38	39072.90
528.55	39082.27
528.72	38787.36
528.89	39019.07
529.07	38946.51
529.24	39306.96
529.41	39405.26
529.58	39133.76
529.75	39019.07
529.92	39241.42
530.09	39718.89
530.26	39269.51
530.43	39732.93
530.60	39332.70
530.77	39660.38
530.94	39627.61
531.11	39302.28
531.28	40074.65
531.46	39777.40
531.63	39817.19
531.80	39943.58
531.97	40095.72
532.14	39667.40
532.31	39482.50
532.48	39828.90
532.65	40147.21
532.82	39969.33
532.99	40266.58
533.16	39679.10
533.33	40329.77
533.50	40444.46
533.67	40374.24
533.84	40116.78
534.01	40299.34
534.18	39924.86
534.35	40542.76
534.52	39999.76
534.69	40535.74
534.86	40896.18
535.03	41015.55
535.20	41745.80
535.37	41191.09
535.54	41322.16
535.71	40814.26
535.88	41188.75
536.05	40994.48
536.22	40982.78
536.38	41256.62
536.55	41022.57
536.72	41294.07
536.89	40636.38
537.06	40786.18
537.23	41736.43
537.40	41757.50
537.57	41593.66
537.74	41071.72
537.91	41813.67
538.08	41607.70
538.25	41258.96
538.42	41235.56
538.59	41624.09
538.75	41387.69
538.92	41439.18
539.09	41467.27
539.26	41827.71
539.43	41394.71
539.60	41874.52
539.77	41366.63
539.94	41493.02
540.11	41167.68
540.28	41322.16
540.44	41933.04
540.61	41715.37
540.78	41565.57
540.95	41631.11
541.12	41551.53
541.29	41972.83
541.46	42162.41
541.62	42464.34
541.79	42728.82
541.96	41958.78
542.13	42036.02
542.30	42281.78
542.47	42391.78
542.63	42113.26
542.80	42471.36
542.97	42745.20
543.14	42955.85
543.31	42707.76
543.48	43103.31
543.64	43168.84
543.81	43290.55
543.98	43086.92
544.15	43419.28
544.32	43395.87
544.48	43643.97
544.65	43215.65
544.82	43320.98
544.99	43063.52
545.16	43213.31
545.32	42862.23
545.49	43587.80
545.66	43480.13
545.83	43339.70
546.00	43255.44
546.16	43414.60
546.33	43295.23
546.50	42979.26
546.67	43578.43
546.83	42843.51
547.00	43564.39
547.17	43899.09
547.34	43100.97
547.50	43618.22
547.67	43995.05
547.84	44065.27
548.00	44238.47
548.17	44126.12
548.34	44156.55
548.51	43922.49
548.67	43976.33
548.84	43938.88
549.01	43669.72
549.18	43938.88
549.34	43826.53
549.51	43936.54
549.68	43856.96
549.84	44329.75
550.01	44598.91
550.18	43941.22
550.34	44025.48
550.51	44123.78
550.68	44378.90
550.84	44027.82
551.01	44608.27
551.18	43973.98
551.34	44758.06
551.51	44540.39
551.68	44491.24
551.84	44425.71
552.01	45024.89
552.18	44404.64
552.34	44374.22
552.51	44783.81
552.68	44229.10
552.84	44458.48
553.01	44783.81
553.18	44975.73
553.34	44795.51
553.51	44636.36
553.67	44751.04
553.84	45296.39
554.01	44657.42
554.17	44987.44
554.34	45237.87
554.51	44886.79
554.67	45081.06
554.84	45095.10
555.00	45102.12
555.17	44629.34
555.33	45476.61
555.50	45397.03
555.67	45036.59
555.83	45001.48
556.00	45010.84
556.16	45111.49
556.33	45165.32
556.50	45158.30
556.66	45268.30
556.83	45074.04
556.99	45109.14
557.16	45619.38
557.32	45338.52
557.49	45347.88
557.65	45092.76
557.82	45139.57
557.98	45567.89
558.15	45226.17
558.32	45427.46
558.48	45062.33
558.65	44987.44
558.81	44900.84
558.98	45022.54
559.14	45420.44
559.31	45467.25
559.47	45429.80
559.64	45855.78
559.80	45212.13
559.97	45598.32
560.13	45151.27
560.30	45478.95
560.46	45565.55
560.63	45574.91
560.79	45743.43
560.96	46026.63
561.12	45558.53
561.29	45434.48
561.45	45268.30
561.61	45588.95
561.78	45930.67
561.94	45621.72
562.11	45483.63
562.27	45537.46
562.44	45851.09
562.60	46148.34
562.77	45904.93
562.93	45830.03
563.10	45942.38
563.26	45490.65
563.42	46003.23
563.59	45661.51
563.75	45703.64
563.92	46087.49
564.08	45635.77
564.24	45778.54
564.41	45811.31
564.57	45830.03
564.74	46108.55
564.90	45614.70
565.07	45741.09
565.23	45567.89
565.39	45429.80
565.56	46377.72
565.72	45656.83
565.88	45820.67
566.05	45860.46
566.21	45755.13
566.38	45942.38
566.54	45720.02
566.70	45890.88
566.87	46099.19
567.03	45577.25
567.19	46192.81
567.36	46005.57
567.52	46225.58
567.68	46466.66
567.85	45750.45
568.01	45904.93
568.17	45996.21
568.34	46141.32
568.50	45874.50
568.66	46117.92
568.83	46349.63
568.99	46019.61
569.15	45808.96
569.32	46043.02
569.48	46349.63
569.64	46295.80
569.81	46181.11
569.97	46113.23
570.13	46373.03
570.30	45703.64
570.46	45773.86
570.62	45567.89
570.78	45535.12
570.95	45797.26
571.11	46511.13
571.27	46057.06
571.43	45958.76
571.60	46223.24
571.76	46195.15
571.92	46340.27
572.09	46696.03
572.25	46230.26
572.41	46419.84
572.57	46459.63
572.74	46813.05
572.90	46497.08
573.06	46307.50
573.22	46356.65
573.38	46380.06
573.55	45982.16
573.71	46351.97
573.87	46312.18
574.03	46192.81
574.20	46389.42
574.36	46277.07
574.52	46169.41
574.68	46223.24
574.84	46431.55
575.01	46052.38
575.17	46033.66
575.33	46361.33
575.49	46141.32
575.65	46326.22
575.82	47023.70
575.98	46003.23
576.14	46469.00
576.30	46511.13
576.46	46742.84
576.62	46440.91
576.79	46206.86
576.95	46211.54
577.11	46539.21
577.27	46361.33
577.43	46101.53
577.59	46036.00
577.75	45752.79
577.92	45780.88
578.08	45525.76
578.24	45874.50
578.40	46230.26
578.56	46492.40
578.72	46087.49
578.88	46817.74
579.04	46485.38
579.21	46136.64
579.37	46099.19
579.53	46082.81
579.69	46326.22
579.85	46536.87
580.01	46309.84
580.17	45991.53
580.33	46103.87
580.49	46293.46
580.65	46183.45
580.82	46677.30
580.98	46202.18
581.14	46188.13
581.30	46656.24
581.46	46396.44
581.62	46443.25
581.78	46728.80
581.94	46784.97
582.10	46564.96
582.26	46265.37
582.42	46534.53
582.58	46731.14
582.74	46246.65
582.90	46525.17
583.06	47016.68
583.22	46705.39
583.38	46356.65
583.54	46733.48
583.70	46740.50
583.86	46405.80
584.02	46059.40
584.18	46408.14
584.34	46312.18
584.50	46354.31
584.66	46309.84
584.82	46230.26
584.98	46763.90
585.14	46443.25
585.30	46185.79
585.46	46401.12
585.62	45647.47
585.78	46258.35
585.94	46064.08
586.10	46192.81
586.26	46270.05
586.42	46344.95
586.58	46665.60
586.74	46464.32
586.90	46316.86
587.06	46476.02
587.22	46326.22
587.38	46440.91
587.54	46349.63
587.70	46419.84
587.86	46630.49
588.02	46333.24
588.18	46216.22
588.34	46010.25
588.49	45797.26
588.65	46052.38
588.81	45904.93
588.97	45621.72
589.13	46082.81
589.29	46124.94
589.45	45989.19
589.61	46368.35
589.77	46529.85
589.93	46412.82
590.08	46377.72
590.24	46366.01
590.40	46923.06
590.56	46511.13
590.72	46728.80
590.88	46321.54
591.04	46171.75
591.20	47220.31
591.35	46401.12
591.51	47342.02
591.67	46492.40
591.83	46342.61
591.99	46515.81
592.15	46567.30
592.31	46522.83
592.46	46756.88
592.62	46862.21
592.78	46394.10
592.94	46866.89
593.10	46735.82
593.26	46941.78
593.41	46712.41
593.57	46625.81
593.73	46209.20
593.89	46471.34
594.05	46742.84
594.20	46349.63
594.36	46813.05
594.52	46567.30
594.68	46349.63
594.84	46335.59
594.99	46307.50
595.15	46653.90
595.31	46560.28
595.47	46696.03
595.62	46916.04
595.78	46473.68
595.94	46909.02
596.10	46569.64
596.25	46340.27
596.41	46770.93
596.57	46349.63
596.73	46370.69
596.88	46391.76
597.04	46340.27
597.20	46307.50
597.36	46628.15
597.51	47065.83
597.67	46176.43
597.83	46911.36
597.99	46782.63
598.14	46604.75
598.30	46300.48
598.46	46293.46
598.61	46703.05
598.77	46394.10
598.93	46527.51
599.09	46536.87
599.24	47150.09
599.40	46827.10
599.56	46344.95
599.71	46511.13
599.87	46808.37
600.03	46422.19
600.18	46190.47
600.34	46295.80
600.50	46579.00
600.65	46794.33
600.81	46394.10
600.97	46579.00
601.12	46674.96
601.28	46499.42
601.44	46246.65
601.59	46354.31
601.75	46031.32
601.91	46134.30
602.06	46263.03
602.22	46202.18
602.37	46431.55
602.53	46543.89
602.69	46429.21
602.84	46471.34
603.00	46586.02
603.16	46309.84
603.31	46382.40
603.47	46576.66
603.62	46199.83
603.78	46639.86
603.94	46829.44
604.09	46670.28
604.25	46501.76
604.40	46368.35
604.56	46197.49
604.71	46815.40
604.87	46768.58
605.03	46220.90
605.18	46302.82
605.34	46522.83
605.49	46040.68
605.65	46506.44
605.80	46052.38
605.96	46637.51
606.12	46597.73
606.27	46728.80
606.43	46377.72
606.58	46443.25
606.74	46146.00
606.89	46321.54
607.05	46277.07
607.20	46546.23
607.36	46277.07
607.51	46689.01
607.67	46506.44
607.82	46248.99
607.98	45689.60
608.13	46157.70
608.29	45668.53
608.44	46024.29
608.60	45591.30
608.75	45914.29
608.91	46396.44
609.06	45839.39
609.22	46263.03
609.37	45944.72
609.53	46174.09
609.68	46021.95
609.84	45495.33
609.99	46115.58
610.15	45638.11
610.30	45556.19
610.46	45378.31
610.61	45904.93
610.76	46019.61
610.92	45900.25
611.07	46202.18
611.23	45783.22
611.38	45673.21
611.54	45900.25
611.69	45507.04
611.84	45256.60
612.00	45652.15
612.15	45443.84
612.31	45890.88
612.46	45689.60
612.62	45830.03
612.77	45254.26
612.92	45902.59
613.08	45476.61
613.23	45869.82
613.39	45076.38
613.54	45319.79
613.69	45645.13
613.85	45406.39
614.00	45125.53
614.15	45579.59
614.31	45741.09
614.46	45771.52
614.62	45406.39
614.77	44931.26
614.92	45221.49
615.08	44935.95
615.23	45261.28
615.38	45097.44
615.54	45165.32
615.69	45478.95
615.84	44854.03
616.00	45167.66
616.15	45113.83
616.30	45535.12
616.46	44861.05
616.61	44933.60
616.76	45008.50
616.92	44182.29
617.07	44917.22
617.22	44861.05
617.37	45071.70
617.53	45347.88
617.68	45715.34
617.83	45305.75
617.99	44851.69
618.14	44697.21
618.29	44725.30
618.45	44561.46
618.60	44619.97
618.75	44126.12
618.90	44402.30
619.06	44584.86
619.21	44598.91
619.36	44460.82
619.51	44655.08
619.67	44694.87
619.82	44224.42
619.97	44589.55
620.12	44435.07
620.28	43929.51
620.43	44535.71
620.58	44488.90
620.73	44236.12
620.89	44341.45
621.04	44275.91
621.19	44605.93
621.34	44236.12
621.49	44107.40
621.65	44243.15
621.80	44226.76
621.95	44086.33
622.10	44109.74
622.25	44346.13
622.41	44074.63
622.56	43849.94
622.71	44177.61
622.86	44088.67
623.01	44362.51
623.16	44467.84
623.32	43908.45
623.47	43922.49
623.62	44034.84
623.77	43917.81
623.92	43990.37
624.07	43573.75
624.23	42878.61
624.38	44411.67
624.53	43557.37
624.68	43737.59
624.83	43550.35
624.98	43475.45
625.13	43379.49
625.29	43222.67
625.44	43365.45
625.59	43100.97
625.74	43269.48
625.89	43129.05
626.04	43225.01
626.19	43346.72
626.34	43210.97
626.49	43367.79
626.65	43316.29
626.80	43393.53
626.95	43234.38
627.10	43103.31
627.25	43171.18
627.40	43124.37
627.55	42572.00
627.70	42349.65
627.85	42749.88
628.00	42670.31
628.15	43208.63
628.30	43264.80
628.45	43349.06
628.60	43161.82
628.76	42674.99
628.91	42621.16
629.06	42745.20
629.21	42408.17
629.36	42733.50
629.51	42426.89
629.66	42368.38
629.81	42115.60
629.96	42134.32
630.11	42637.54
630.26	42754.57
630.41	42756.91
630.56	42534.56
630.71	42241.99
630.86	42319.23
631.01	42431.57
631.16	42443.27
631.31	42085.17
631.46	42066.45
631.61	42312.20
631.76	42349.65
631.91	42600.09
632.06	42436.25
632.21	42443.27
632.36	42555.62
632.51	42265.39
632.66	42108.58
632.81	42202.20
632.96	42174.11
633.10	42103.90
633.25	41935.38
633.40	42211.56
633.55	42323.91
633.70	42143.69
633.85	41687.28
634.00	41759.84
634.15	41523.44
634.30	41750.48
634.45	41963.46
634.60	41476.63
634.75	41837.08
634.90	41453.23
635.05	41855.80
635.19	41413.44
635.34	41979.85
635.49	41794.95
635.64	41326.84
635.79	41750.48
635.94	41689.62
636.09	41640.47
636.24	40917.25
636.39	41413.44
636.53	41593.66
636.68	41244.92
636.83	41198.11
636.98	41670.90
637.13	41408.76
637.28	41584.30
637.43	42036.02
637.57	41633.45
637.72	41205.13
637.87	41467.27
638.02	41109.17
638.17	41352.58
638.32	41167.68
638.46	41043.63
638.61	41024.91
638.76	41010.87
638.91	40989.80
639.06	41069.38
639.20	41361.95
639.35	40940.65
639.50	41036.61
639.65	41053.00
639.80	40809.58
639.94	40931.29
640.09	41034.27
640.24	40278.28
640.39	40533.40
640.54	40566.16
640.68	40376.58
640.83	40271.26
640.98	40636.38
641.13	40589.57
641.27	40814.26
641.42	40528.72
641.57	40205.72
641.72	40318.07
641.86	40437.44
642.01	40341.47
642.16	40779.15
642.31	39821.87
642.45	40645.74
642.60	40502.97
642.75	39864.00
642.90	40121.46
643.04	40641.06
643.19	40126.14
643.34	39964.65
643.48	39901.45
643.63	40208.06
643.78	40189.34
643.93	40311.05
644.07	40215.08
644.22	39704.85
644.37	40184.66
644.51	39873.37
644.66	40259.55
644.81	40004.44
644.95	40229.13
645.10	39985.71
645.25	39831.24
645.39	39702.51
645.54	39391.22
645.69	39445.05
645.83	39896.77
645.98	39676.76
646.13	39707.19
646.27	39765.70
646.42	39412.28
646.57	39370.15
646.71	39372.49
646.86	39459.09
647.00	39627.61
647.15	39625.27
647.30	39929.54
647.44	39372.49
647.59	39491.86
647.74	39283.55
647.88	39374.83
648.03	39248.44
648.17	39353.77
648.32	39152.48
648.47	39260.15
648.61	38955.88
648.76	39255.46
648.90	38932.47
649.05	38876.30
649.20	39194.61
649.34	39133.76
649.49	38607.14
649.63	38740.55
649.78	38934.81
649.92	38998.01
650.07	39028.43
650.21	38927.79
650.36	38827.15
650.51	39201.63
650.65	39304.62
650.80	39388.88
650.94	39278.87
651.09	38803.74
651.23	38618.84
651.38	38628.20
651.52	38557.99
651.67	38440.96
651.81	38579.05
651.96	38618.84
652.10	38738.21
652.25	38733.53
652.39	38953.54
652.54	39014.39
652.68	38733.53
652.83	39164.18
652.97	38766.29
653.12	38309.89
653.26	38581.39
653.41	38057.11
653.55	38234.99
653.70	38330.95
653.84	38621.18
653.99	38810.76
654.13	37991.58
654.27	38550.96
654.42	38195.20
654.56	38415.21
654.71	38316.91
654.85	37801.99
655.00	38281.80
655.14	37766.88
655.29	38068.81
655.43	37862.85
655.57	37326.86
655.72	37027.28
655.86	37750.50
656.01	37333.89
656.15	37046.00
656.30	37652.20
656.44	37773.91
656.58	37289.42
656.73	37546.87
656.87	37277.71
657.01	37502.40
657.16	37834.76
657.30	36723.01
657.45	37125.58
657.59	37319.84
657.73	37469.64
657.88	37797.31
658.02	37647.52
658.16	37869.87
658.31	37834.76
658.45	37127.92
658.60	37074.09
658.74	37434.53
658.88	37518.79
659.03	37139.62
659.17	36964.08
659.31	36671.51
659.46	37434.53
659.60	36868.12
659.74	37057.70
659.89	36935.99
660.03	36540.44
660.17	36992.17
660.32	36816.63
660.46	37120.90
660.60	36561.51
660.74	36671.51
660.89	36367.24
661.03	36219.79
661.17	36720.66
661.32	36348.52
661.46	36334.48
661.60	36374.27
661.74	35962.33
661.89	36982.80
662.03	36388.31
662.17	36294.69
662.31	36292.35
662.46	36713.64
662.60	36392.99
662.74	36212.77
662.88	36107.44
663.03	36034.89
663.17	36142.55
663.31	35508.27
663.45	35974.03
663.60	35817.22
663.74	35086.97
663.88	35749.34
664.02	35548.06
664.17	36149.57
664.31	35023.78
664.45	35311.66
664.59	34738.23
664.73	35669.76
664.88	35578.48
665.02	35026.12
665.16	35058.88
665.30	34759.30
665.44	35143.14
665.59	34548.65
665.73	35260.17
665.87	34843.56
666.01	34866.96
666.15	34962.92
666.29	34895.05
666.44	34405.88
666.58	34644.61
666.72	34684.40
666.86	34873.98
667.00	34768.66
667.14	34433.96
667.28	34125.01
667.43	34485.45
667.57	34462.05
667.71	34031.39
667.85	34141.39
667.99	34291.19
668.13	34621.20
668.27	34455.03
668.41	34235.02
668.56	34003.30
668.70	34082.88
668.84	33380.72
668.98	33518.81
669.12	33624.14
669.26	33734.14
669.40	33825.42
669.54	33490.73
669.68	33551.58
669.82	33076.45
669.96	32725.37
670.10	33008.58
670.25	33156.03
670.39	33305.82
670.53	32877.51
670.67	32907.93
670.81	32896.23
670.95	32512.38
671.09	32835.38
671.23	32182.37
671.37	33029.64
671.51	32964.10
671.65	32510.04
671.79	32921.98
671.93	32573.24
672.07	32685.58
672.21	32685.58
672.35	32540.47
672.49	32353.23
672.63	32414.08
672.77	32046.62
672.91	31941.29
673.05	32187.05
673.19	32055.98
673.33	31810.22
673.47	31854.69
673.61	31690.85
673.75	31463.82
673.89	31529.36
674.03	31283.60
674.17	31344.45
674.31	31508.29
674.45	31119.76
674.59	31810.22
674.73	31463.82
674.87	31498.93
675.01	31150.19
675.15	31211.04
675.29	31234.45
675.43	30946.56
675.56	30974.65
675.70	30862.30
675.84	30548.67
675.98	29827.79
676.12	30419.94
676.26	30661.02
676.40	30583.78
676.54	30815.49
676.68	30623.57
676.82	30132.06
676.96	30073.54
677.10	29963.54
677.23	29802.04
677.37	29977.58
677.51	29596.07
677.65	29820.77
677.79	28896.25
677.93	29413.51
678.07	29134.99
678.21	28898.59
678.34	28847.10
678.48	28833.06
678.62	28758.16
678.76	28514.75
678.90	28266.65
679.04	28489.00
679.18	28767.52
679.31	28135.58
679.45	28371.97
679.59	28294.74
679.73	28182.39
679.87	28205.80
680.00	28184.73
680.14	27882.80
680.28	27796.20
680.42	27683.86
680.56	27470.87
680.70	27983.44
680.83	27702.58
680.97	27590.24
681.11	27496.61
681.25	27349.16
681.39	27056.59
681.52	27136.17
681.66	26878.71
681.80	26953.61
681.94	26913.82
682.07	26871.69
682.21	26588.49
682.35	26787.43
682.49	26665.72
682.62	26663.38
682.76	26232.72
682.90	26253.79
683.04	26342.73
683.17	26003.35
683.31	26113.36
683.45	26267.83
683.59	25465.03
683.72	25722.49
683.86	26033.78
684.00	25692.06
684.13	25715.47
684.27	25137.35
684.41	25125.65
684.55	25111.61
684.68	25006.28
684.82	25132.67
684.96	25097.56
685.09	24861.17
685.23	24790.95
685.37	24891.60
685.50	24987.56
685.64	24599.03
685.78	24577.97
685.91	24393.06
686.05	24449.24
686.19	23782.18
686.32	23962.40
686.46	23580.90
686.60	23150.24
686.73	23168.96
686.87	23400.68
687.01	23349.18
687.14	23098.75
687.28	23124.49
687.42	23288.33
687.55	22700.86
687.69	22934.91
687.82	23138.54
687.96	23161.94
688.10	22735.96
688.23	22822.56
688.37	22787.46
688.50	22881.08
688.64	22719.58
688.78	22473.82
688.91	22185.94
689.05	22431.69
689.18	22071.25
689.32	22111.04
689.46	22188.28
689.59	22546.38
689.73	22157.85
689.86	21872.31
690.00	21626.55
690.13	21865.28
690.27	21462.71
690.41	21216.96
690.54	21249.72
690.68	20982.90
690.81	21364.41
690.95	21284.83
691.08	21338.66
691.22	21319.94
691.35	20774.60
691.49	21331.64
691.62	21228.66
691.76	21003.97
691.89	21163.12
692.03	20500.75
692.16	20601.40
692.30	20259.68
692.43	20400.11
692.57	20376.70
692.70	20002.22
692.84	19906.26
692.97	19917.96
693.11	19609.01
693.24	19793.91
693.38	19688.59
693.51	19910.94
693.65	19681.56
693.78	19506.02
693.92	19562.20
694.05	19381.98
694.19	19145.58
694.32	19400.70
694.45	19278.99
694.59	19152.60
694.72	19026.21
694.86	18977.06
694.99	18740.67
695.13	19030.90
695.26	18607.26
695.39	18780.46
695.53	18665.77
695.66	18663.43
695.80	18515.98
695.93	18326.39
696.07	18312.35
696.20	18553.43
696.33	18471.51
696.47	17989.36
696.60	18134.47
696.73	17834.88
696.87	17975.31
697.00	17830.20
697.14	17539.97
697.27	17455.72
697.40	17336.35
697.54	17345.71
697.67	17212.30
697.80	17397.20
697.94	17228.68
698.07	17507.21
698.21	17317.62
698.34	17380.82
698.47	17186.55
698.61	16870.58
698.74	17099.95
698.87	16748.87
699.01	16573.33
699.14	16578.01
699.27	16236.30
699.40	16531.20
699.54	16353.32
699.67	16044.37
699.80	16063.10
699.94	16205.87
700.07	16315.87
700.20	16098.20
700.34	15894.58
700.47	15978.84
700.60	15929.69
700.73	16063.10
700.87	15836.06
701.00	15613.71
701.13	15616.05
701.26	15499.03
701.40	15321.15
701.53	15276.68
701.66	15262.63
701.79	15199.44
701.93	15143.27
702.06	14794.53
702.19	15138.58
702.32	14963.04
702.46	15147.95
702.59	14878.79
702.72	14939.64
702.85	14824.95
702.99	14724.31
703.12	14637.71
703.25	14413.02
703.38	14366.21
703.51	14377.91
703.65	14427.06
703.78	14260.88
703.91	14078.32
704.04	13968.32
704.17	14111.09
704.31	13834.91
704.44	13916.83
704.57	13973.00
704.70	13605.53
704.83	13809.16
704.96	13790.44
705.10	13867.67
705.23	13713.20
>>>>>End Processed Spectral Data<<<<<
