SpectraSuite Data File
++++++++++++++++++++++++++++++++++++
Date: Fri Oct 25 10:48:11 EDT 2013
User: price-jones
Dark Spectrum Present: No
Reference Spectrum Present: No
Number of Sampled Component Spectra: 1
Spectrometers: USB2+H05261
Integration Time (usec): 100000 (USB2+H05261)
Spectra Averaged: 1 (USB2+H05261)
Boxcar Smoothing: 0 (USB2+H05261)
Correct for Electrical Dark: No (USB2+H05261)
Strobe/Lamp Enabled: No (USB2+H05261)
Correct for Detector Non-linearity: No (USB2+H05261)
Correct for Stray Light: No (USB2+H05261)
Number of Pixels in Processed Spectrum: 2048
>>>>>Begin Processed Spectral Data<<<<<
365.73	203.63
365.92	203.63
366.12	203.63
366.32	53.83
366.52	0.00
366.72	93.62
366.91	30.43
367.11	53.83
367.31	14.04
367.51	21.06
367.70	77.24
367.90	63.19
368.10	16.38
368.30	11.70
368.49	58.51
368.69	88.94
368.89	44.47
369.09	88.94
369.28	98.30
369.48	110.01
369.68	42.13
369.87	91.28
370.07	110.01
370.27	184.90
370.47	147.45
370.66	430.66
370.86	400.23
371.06	447.04
371.25	461.09
371.45	447.04
371.65	454.06
371.84	416.62
372.04	440.02
372.24	470.45
372.44	470.45
372.63	472.79
372.83	468.11
373.03	491.51
373.22	514.92
373.42	507.90
373.62	477.47
373.81	533.64
374.01	564.07
374.21	486.83
374.40	561.73
374.60	559.39
374.79	531.30
374.99	580.45
375.19	535.98
375.38	552.37
375.58	580.45
375.78	582.79
375.97	620.24
376.17	617.90
376.37	568.75
376.56	606.20
376.76	547.69
376.95	573.43
377.15	643.65
377.35	653.01
377.54	608.54
377.74	547.69
377.93	561.73
378.13	547.69
378.33	629.60
378.52	566.41
378.72	592.16
378.91	596.84
379.11	634.29
379.31	650.67
379.50	603.86
379.70	571.09
379.89	655.35
380.09	653.01
380.28	683.44
380.48	641.31
380.68	702.16
380.87	620.24
381.07	596.84
381.26	655.35
381.46	692.80
381.65	601.52
381.85	681.10
382.04	667.05
382.24	748.97
382.43	763.01
382.63	697.48
382.83	718.54
383.02	638.97
383.22	758.33
383.41	662.37
383.61	760.67
383.80	763.01
384.00	709.18
384.19	765.36
384.39	718.54
384.58	781.74
384.78	748.97
384.97	760.67
385.17	793.44
385.36	641.31
385.56	755.99
385.75	755.99
385.95	746.63
386.14	791.10
386.34	863.66
386.53	830.89
386.72	753.65
386.92	837.91
387.11	856.64
387.31	819.19
387.50	873.02
387.70	809.83
387.89	861.32
388.09	798.12
388.28	772.38
388.48	877.70
388.67	830.89
388.86	842.59
389.06	889.40
389.25	945.58
389.45	945.58
389.64	985.37
389.84	929.19
390.03	933.87
390.22	947.92
390.42	950.26
390.61	936.21
390.81	940.90
391.00	919.83
391.19	992.39
391.39	891.74
391.58	929.19
391.78	936.21
391.97	943.24
392.16	1013.45
392.36	896.43
392.55	933.87
392.75	1013.45
392.94	931.53
393.13	945.58
393.33	971.32
393.52	1036.86
393.71	1025.15
393.91	987.71
394.10	1076.65
394.29	1057.92
394.49	1050.90
394.68	999.41
394.88	1123.46
395.07	1196.01
395.26	1083.67
395.46	1186.65
395.65	1170.27
395.84	1130.48
396.04	1137.50
396.23	1053.24
396.42	1032.18
396.62	1104.73
396.81	1177.29
397.00	1118.78
397.19	1238.14
397.39	1270.91
397.58	1277.93
397.77	1245.16
397.97	1254.53
398.16	1280.27
398.35	1289.64
398.55	1268.57
398.74	1336.45
398.93	1336.45
399.12	1247.51
399.32	1315.38
399.51	1336.45
399.70	1378.58
399.90	1343.47
400.09	1446.45
400.28	1355.17
400.47	1446.45
400.67	1378.58
400.86	1451.13
401.05	1495.60
401.24	1446.45
401.44	1497.94
401.63	1455.81
401.82	1500.28
402.01	1521.35
402.21	1423.05
402.40	1497.94
402.59	1640.72
402.78	1469.86
402.97	1614.97
403.17	1598.59
403.36	1589.22
403.55	1708.59
403.74	1633.69
403.93	1591.56
404.13	1619.65
404.32	1497.94
404.51	1633.69
404.70	1722.63
404.89	1720.29
405.09	1837.32
405.28	1715.61
405.47	1776.47
405.66	1741.36
405.85	1788.17
406.05	1788.17
406.24	1746.04
406.43	1834.98
406.62	1837.32
406.81	1827.96
407.00	1884.13
407.20	1788.17
407.39	1776.47
407.58	1949.67
407.77	1907.54
407.96	1949.67
408.15	2024.56
408.34	2045.63
408.54	2047.97
408.73	2001.16
408.92	2064.35
409.11	1998.82
409.30	2059.67
409.49	1952.01
409.68	2022.22
409.87	2099.46
410.07	2111.16
410.26	2108.82
410.45	2033.93
410.64	2120.53
410.83	2225.85
411.02	2251.60
411.21	2335.85
411.40	2211.81
411.59	2270.32
411.78	2282.02
411.98	2328.83
412.17	2349.90
412.36	2249.25
412.55	2331.17
412.74	2282.02
412.93	2480.97
413.12	2490.33
413.31	2607.36
413.50	2448.20
413.69	2555.86
413.88	2651.83
414.07	2527.78
414.26	2651.83
414.45	2612.04
414.64	2750.13
414.83	2541.82
415.02	2724.38
415.22	2785.24
415.41	2841.41
415.60	2780.56
415.79	2778.22
415.98	2860.13
416.17	2780.56
416.36	2785.24
416.55	2937.37
416.74	3012.27
416.93	2899.92
417.12	2944.39
417.31	3068.44
417.50	2991.20
417.69	3105.89
417.88	3115.25
418.07	2937.37
418.26	3073.12
418.45	3260.37
418.64	3157.38
418.83	3110.57
419.02	3143.34
419.21	3176.11
419.39	3304.84
419.58	3141.00
419.77	3201.85
419.96	3246.32
420.15	3414.84
420.34	3358.67
420.53	3386.76
420.72	3424.20
420.91	3414.84
421.10	3393.78
421.29	3391.44
421.48	3440.59
421.67	3377.39
421.86	3379.73
422.05	3377.39
422.24	3274.41
422.43	3386.76
422.61	3513.14
422.80	3597.40
422.99	3557.61
423.18	3468.67
423.37	3557.61
423.56	3527.19
423.75	3581.02
423.94	3578.68
424.13	3295.47
424.32	3574.00
424.50	3634.85
424.69	3651.24
424.88	3461.65
425.07	3606.77
425.26	3494.42
425.45	3571.66
425.64	3597.40
425.83	3581.02
426.01	3632.51
426.20	3471.01
426.39	3508.46
426.58	3515.48
426.77	3686.34
426.96	3669.96
427.15	3744.86
427.33	3801.03
427.52	3721.45
427.71	3782.31
427.90	3623.15
428.09	3749.54
428.28	3667.62
428.46	3988.27
428.65	3585.70
428.84	3904.01
429.03	3936.78
429.22	3674.64
429.40	3859.54
429.59	3779.97
429.78	3599.74
429.97	3496.76
430.16	3669.96
430.34	3880.61
430.53	4007.00
430.72	3948.48
430.91	4016.36
431.10	3861.88
431.28	4081.89
431.47	4135.73
431.66	4264.46
431.85	4236.37
432.03	4236.37
432.22	4194.24
432.41	4182.54
432.60	4191.90
432.79	4194.24
432.97	4390.84
433.16	4313.61
433.35	4227.01
433.54	4276.16
433.72	4320.63
433.91	4358.08
434.10	4297.22
434.28	4421.27
434.47	4458.72
434.66	4407.23
434.85	4531.28
435.03	4475.10
435.22	4435.32
435.41	4538.30
435.59	4449.36
435.78	4545.32
435.97	4561.70
436.16	4587.45
436.34	4594.47
436.53	4557.02
436.72	4725.54
436.90	4690.43
437.09	4528.94
437.28	4613.20
437.46	4557.02
437.65	4629.58
437.84	4784.06
438.02	4657.67
438.21	4692.77
438.40	4557.02
438.58	4826.18
438.77	4884.70
438.96	4959.60
439.14	5156.20
439.33	5062.58
439.52	5130.45
439.70	5116.41
439.89	5123.43
440.08	5219.39
440.26	5076.62
440.45	5135.14
440.63	5317.70
440.82	5472.17
441.01	5252.16
441.19	5479.19
441.38	5423.02
441.57	5448.77
441.75	5380.89
441.94	5544.73
442.12	5596.22
442.31	5589.20
442.50	5743.67
442.68	5495.58
442.87	5589.20
443.05	5610.26
443.24	5820.91
443.43	5708.57
443.61	5881.77
443.80	5874.74
443.98	5748.36
444.17	5631.33
444.35	5746.02
444.54	6033.90
444.73	6019.86
444.91	5874.74
445.10	5722.61
445.28	5834.96
445.47	5689.84
445.65	5781.12
445.84	5846.66
446.02	5935.60
446.21	5846.66
446.39	5951.98
446.58	5933.26
446.77	5977.73
446.95	5909.85
447.14	5881.77
447.32	6038.58
447.51	5907.51
447.69	5970.71
447.88	6111.14
448.06	5989.43
448.25	5994.11
448.43	6033.90
448.62	5837.30
448.80	5994.11
448.99	6043.26
449.17	6132.20
449.36	6115.82
449.54	6097.10
449.73	6345.19
449.91	6202.42
450.10	6197.74
450.28	6377.96
450.46	6387.32
450.65	6483.28
450.83	6520.73
451.02	6483.28
451.20	6459.88
451.39	6457.54
451.57	6380.30
451.76	6420.09
451.94	6438.81
452.13	6427.11
452.31	6555.84
452.49	6387.32
452.68	6576.91
452.86	6546.48
453.05	6518.39
453.23	6656.48
453.42	6647.12
453.60	6597.97
453.78	6651.80
453.97	6506.69
454.15	6541.80
454.34	6579.25
454.52	6874.15
454.70	6745.42
454.89	6820.32
455.07	6855.43
455.26	6923.30
455.44	7087.14
455.62	6991.18
455.81	6942.03
455.99	7009.90
456.17	7042.67
456.36	6944.37
456.54	6988.84
456.73	7185.44
456.91	7391.41
457.09	7199.49
457.28	7421.84
457.46	7192.47
457.64	7232.26
457.83	7190.13
458.01	7316.51
458.19	7541.21
458.38	7452.27
458.56	7592.70
458.74	7360.98
458.93	7522.48
459.11	7578.65
459.29	7576.31
459.48	7485.03
459.66	7449.93
459.84	7758.88
460.03	7641.85
460.21	7576.31
460.39	7496.74
460.57	7562.27
460.76	7779.94
460.94	7702.70
461.12	7761.22
461.31	7843.14
461.49	7843.14
461.67	7702.70
461.85	7878.24
462.04	7852.50
462.22	8259.75
462.40	8013.99
462.59	7810.37
462.77	8124.00
462.95	7985.91
463.13	7798.66
463.32	8107.62
463.50	8299.54
463.68	8154.43
463.86	8285.50
464.05	8126.34
464.23	8079.53
464.41	8294.86
464.59	7981.23
464.78	8407.20
464.96	8098.25
465.14	8180.17
465.32	8437.63
465.50	8407.20
465.69	8468.06
465.87	8369.76
466.05	8360.39
466.23	8334.65
466.41	8411.89
466.60	8613.17
466.78	8182.51
466.96	8414.23
467.14	8468.06
467.32	8475.08
467.51	8601.47
467.69	8491.46
467.87	8575.72
468.05	8493.80
468.23	8571.04
468.41	8678.71
468.60	8454.02
468.78	8575.72
468.96	8629.56
469.14	8821.48
469.32	8833.18
469.50	8430.61
469.69	8917.44
469.87	8868.29
470.05	9034.47
470.23	8990.00
470.41	8812.12
470.59	8940.85
470.77	8879.99
470.95	9022.77
471.14	9174.90
471.32	8936.17
471.50	9163.20
471.68	9188.94
471.86	9301.29
472.04	9521.30
472.22	9680.46
472.40	9495.55
472.58	9476.83
472.77	9540.02
472.95	9703.86
473.13	9891.10
473.31	9708.54
473.49	9582.15
473.67	9661.73
473.85	9610.24
474.03	10017.49
474.21	9844.29
474.39	9989.41
474.57	9930.89
474.75	9846.63
474.93	10129.84
475.12	10125.16
475.30	10235.16
475.48	10150.90
475.66	10176.65
475.84	10225.80
476.02	10394.32
476.20	10511.35
476.38	10773.49
476.56	10953.71
476.74	10916.26
476.92	10640.08
477.10	10747.74
477.28	10778.17
477.46	11063.71
477.64	10930.30
477.82	11192.44
478.00	11449.90
478.18	11290.74
478.36	11396.07
478.54	11679.27
478.72	11555.22
478.90	11681.61
479.08	11662.89
479.26	11653.53
479.44	12166.10
479.62	12079.50
479.80	12093.55
479.98	11990.56
480.16	12411.86
480.34	12283.13
480.52	12500.80
480.70	12444.63
480.88	12322.92
481.06	12596.76
481.24	12601.44
481.41	12776.98
481.59	12774.64
481.77	12933.80
481.95	13235.73
482.13	13104.66
482.31	13528.30
482.49	13699.16
482.67	13731.92
482.85	13476.80
483.03	14118.11
483.21	14012.79
483.39	14029.17
483.57	14211.73
483.74	14052.58
483.92	13968.32
484.10	14134.50
484.28	14581.54
484.46	14677.50
484.64	14867.08
484.82	14651.75
485.00	15012.20
485.18	15096.46
485.35	15281.36
485.53	15091.77
485.71	15264.97
485.89	15459.24
486.07	15133.90
486.25	15765.85
486.43	15737.76
486.61	15686.27
486.78	15672.23
486.96	15885.22
487.14	16308.85
487.32	16346.30
487.50	16343.96
487.68	16547.59
487.85	16940.80
488.03	17060.16
488.21	17263.79
488.39	17078.89
488.57	17160.81
488.75	17261.45
488.92	17408.90
489.10	17631.26
489.28	17666.36
489.46	18008.08
489.64	17926.16
489.81	18321.71
489.99	18506.62
490.17	18448.10
490.35	18750.03
490.53	18583.85
490.70	18670.45
490.88	18771.10
491.06	19147.92
491.24	19084.73
491.41	19201.76
491.59	19276.65
491.77	19297.72
491.95	19499.00
492.13	19807.95
492.30	19793.91
492.48	20135.63
492.66	20060.73
492.84	19910.94
493.01	20180.10
493.19	20093.50
493.37	20650.55
493.54	20400.11
493.72	20718.42
493.90	20753.53
494.08	21067.16
494.25	20795.66
494.43	21055.46
494.61	21338.66
494.79	21383.13
494.96	21362.07
495.14	21696.77
495.32	21715.49
495.49	21678.04
495.67	21738.90
495.85	22080.61
496.02	22253.81
496.20	22586.17
496.38	22499.57
496.55	22838.95
496.73	23161.94
496.91	22984.06
497.09	23073.00
497.26	22838.95
497.44	23173.64
497.62	23028.53
497.79	23309.40
497.97	23358.55
498.14	23805.59
498.32	23506.00
498.50	23599.62
498.67	23981.13
498.85	23873.46
499.03	24222.20
499.20	24318.17
499.38	24283.06
499.56	24276.04
499.73	24570.94
499.91	24430.51
500.08	24664.57
500.26	24650.52
500.44	24711.38
500.61	24849.47
500.79	24861.17
500.97	25219.27
501.14	25568.01
501.32	25081.18
501.49	25174.80
501.67	25212.25
501.84	25294.17
502.02	25254.38
502.20	25617.16
502.37	25874.62
502.55	25809.09
502.72	25954.20
502.90	25891.01
503.07	25776.32
503.25	26272.51
503.43	25965.90
503.60	26181.23
503.78	26206.98
503.95	26459.76
504.13	26396.56
504.30	26789.77
504.48	26370.82
504.65	26857.65
504.83	27115.11
505.01	27044.89
505.18	27101.06
505.36	27122.13
505.53	27248.52
505.71	27353.84
505.88	27573.85
506.06	27016.80
506.23	27356.18
506.41	27239.15
506.58	27749.39
506.76	28006.85
506.93	27955.36
507.11	27728.33
507.28	27814.93
507.46	28128.56
507.63	28046.64
507.81	28116.86
507.98	28166.01
508.16	28285.37
508.33	28470.28
508.50	28327.50
508.68	28568.58
508.85	28713.69
509.03	28966.47
509.20	28987.53
509.38	28886.89
509.55	29310.53
509.73	29085.84
509.90	29230.95
510.08	29263.72
510.25	29259.04
510.42	29467.34
510.60	29689.70
510.77	29696.72
510.95	29628.84
511.12	29589.05
511.30	30033.75
511.47	30331.00
511.64	30157.80
511.82	30054.82
511.99	29944.81
512.17	30433.99
512.34	29930.77
512.51	30572.08
512.69	30206.95
512.86	30745.28
513.04	30820.17
513.21	30602.50
513.38	30501.86
513.56	30735.92
513.73	30661.02
513.90	30881.03
514.08	30654.00
514.25	30925.50
514.43	31442.76
514.60	31143.17
514.77	31307.01
514.95	31440.42
515.12	31424.03
515.29	31131.47
515.47	31618.30
515.64	32205.77
515.81	31817.24
515.99	31552.76
516.16	32114.49
516.33	32020.87
516.51	31899.16
516.68	31264.88
516.85	31517.65
517.03	32149.60
517.20	31929.59
517.37	32128.53
517.54	32184.71
517.72	32339.18
517.89	32313.44
518.06	32238.54
518.24	32339.18
518.41	32306.41
518.58	32327.48
518.75	32720.69
518.93	33144.33
519.10	32847.08
519.27	32746.44
519.45	33111.56
519.62	32936.02
519.79	33069.43
519.96	33099.86
520.14	33677.97
520.31	33603.07
520.48	33565.62
520.65	33656.90
520.83	33670.95
521.00	33853.51
521.17	33799.68
521.34	33741.16
521.52	34012.66
521.69	34040.75
521.86	34249.06
522.03	34192.89
522.20	34583.76
522.38	34305.23
522.55	34117.99
522.72	34171.82
522.89	34087.56
523.07	34646.95
523.24	34010.32
523.41	34394.17
523.58	34532.26
523.75	34916.11
523.92	35096.33
524.10	35082.29
524.27	34768.66
524.44	35311.66
524.61	35204.00
524.78	35009.73
524.96	35754.02
525.13	35391.24
525.30	35864.03
525.47	35704.87
525.64	35952.97
525.81	35625.29
525.98	35110.38
526.16	35388.90
526.33	35007.39
526.50	35456.78
526.67	35325.71
526.84	35833.60
527.01	35782.11
527.18	35697.85
527.36	35929.56
527.53	36091.06
527.70	36112.13
527.87	36362.56
528.04	36081.70
528.21	35969.35
528.38	36498.31
528.55	36339.16
528.72	36596.62
528.89	37006.21
529.07	36774.50
529.24	36704.28
529.41	36353.20
529.58	36664.49
529.75	36868.12
529.92	36954.72
530.09	36882.16
530.26	37270.69
530.43	36952.38
530.60	36973.44
530.77	36786.20
530.94	37469.64
531.11	37055.36
531.28	37116.22
531.46	37364.31
531.63	37507.08
531.80	37343.25
531.97	37275.37
532.14	37556.24
532.31	37350.27
532.48	37368.99
532.65	37481.34
532.82	37703.69
532.99	38036.05
533.16	37619.43
533.33	37883.91
533.50	38483.09
533.67	37963.49
533.84	37806.67
534.01	38103.92
534.18	37963.49
534.35	38490.11
534.52	38043.07
534.69	37933.06
534.86	38202.22
535.03	38213.93
535.20	38426.92
535.37	38462.02
535.54	38501.81
535.71	38658.63
535.88	38967.58
536.05	38466.70
536.22	38768.63
536.38	38862.26
536.55	38438.62
536.72	38628.20
536.89	38499.47
537.06	38525.22
537.23	38998.01
537.40	38845.87
537.57	39026.09
537.74	39182.91
537.91	38862.26
538.08	39206.31
538.25	38906.73
538.42	39115.03
538.59	38951.20
538.75	39063.54
538.92	39281.21
539.09	39585.48
539.26	39498.88
539.43	39253.12
539.60	39950.60
539.77	39512.92
539.94	38897.36
540.11	39328.02
540.28	39835.92
540.44	39377.17
540.61	39590.16
540.78	39335.04
540.95	39445.05
541.12	39878.05
541.29	39566.76
541.46	39941.24
541.62	40020.82
541.79	40690.21
541.96	39608.89
542.13	39922.52
542.30	39969.33
542.47	40062.95
542.63	40069.97
542.80	40610.64
542.97	40872.78
543.14	40631.70
543.31	40327.43
543.48	40554.46
543.64	41340.88
543.81	40680.85
543.98	40830.65
544.15	40807.24
544.32	41010.87
544.48	41132.57
544.65	40863.41
544.82	41160.66
544.99	40816.60
545.16	40999.16
545.32	40484.25
545.49	41310.46
545.66	41195.77
545.83	41165.34
546.00	41198.11
546.16	41216.83
546.33	41219.17
546.50	40870.43
546.67	41390.03
546.83	40683.19
547.00	41331.52
547.17	41193.43
547.34	40987.46
547.50	41352.58
547.67	42164.75
547.84	41940.06
548.00	41553.87
548.17	41284.71
548.34	41619.41
548.51	41991.55
548.67	42047.72
548.84	41839.42
549.01	42052.41
549.18	41776.22
549.34	41851.12
549.51	42087.51
549.68	42000.91
549.84	42176.45
550.01	41801.97
550.18	42157.73
550.34	41909.63
550.51	42141.35
550.68	41741.11
550.84	41694.30
551.01	42363.70
551.18	41900.27
551.34	42244.33
551.51	42019.64
551.68	42644.56
551.84	42574.34
552.01	42314.55
552.18	42447.96
552.34	42265.39
552.51	42557.96
552.68	42178.79
552.84	42593.07
553.01	42932.45
553.18	42539.24
553.34	42359.02
553.51	42337.95
553.67	42614.13
553.84	42672.65
554.01	42806.06
554.17	43110.33
554.34	42904.36
554.51	42831.80
554.67	43098.62
554.84	43086.92
555.00	42766.27
555.17	42895.00
555.33	42384.76
555.50	42789.67
555.67	42923.08
555.83	42939.47
556.00	42878.61
556.16	43655.67
556.33	43009.68
556.50	43323.32
556.66	43019.05
556.83	43234.38
556.99	43335.02
557.16	43421.62
557.32	43316.29
557.49	43288.21
557.65	43023.73
557.82	43129.05
557.98	43604.18
558.15	43248.42
558.32	42913.72
558.48	43405.23
558.65	43086.92
558.81	43147.78
558.98	43257.78
559.14	43124.37
559.31	43723.55
559.47	43440.34
559.64	43983.35
559.80	43709.50
559.97	44093.35
560.13	43634.61
560.30	43632.27
560.46	43482.47
560.63	43660.35
560.79	43704.82
560.96	44048.88
561.12	43585.46
561.29	43997.39
561.45	43761.00
561.61	43852.28
561.78	43878.02
561.94	43594.82
562.11	43597.16
562.27	43604.18
562.44	43690.78
562.60	44144.84
562.77	44025.48
562.93	43936.54
563.10	44011.43
563.26	43672.06
563.42	43952.92
563.59	43988.03
563.75	43845.26
563.92	43723.55
564.08	43847.60
564.24	44615.29
564.41	43674.40
564.57	43896.75
564.74	43725.89
564.90	44449.11
565.07	43924.83
565.23	44320.38
565.39	44224.42
565.56	44065.27
565.72	43981.01
565.88	44175.27
566.05	43997.39
566.21	44062.93
566.38	44147.18
566.54	44423.37
566.70	44584.86
566.87	44692.53
567.03	44374.22
567.19	44226.76
567.36	44367.20
567.52	44306.34
567.68	44692.53
567.85	44568.48
568.01	44039.52
568.17	44119.10
568.34	44266.55
568.50	43807.81
568.66	44105.06
568.83	44245.49
568.99	44502.95
569.15	44278.25
569.32	44289.96
569.48	44224.42
569.64	44516.99
569.81	44397.62
569.97	43700.14
570.13	44336.77
570.30	44491.24
570.46	44369.54
570.62	44144.84
570.78	44196.34
570.95	44816.58
571.11	44615.29
571.27	44226.76
571.43	44617.63
571.60	44725.30
571.76	44509.97
571.92	44411.67
572.09	44013.77
572.25	44498.26
572.41	44531.03
572.57	44458.48
572.74	44964.03
572.90	44753.38
573.06	44561.46
573.22	45038.93
573.38	44334.43
573.55	44531.03
573.71	44531.03
573.87	44421.03
574.03	44261.87
574.20	44509.97
574.36	44360.17
574.52	44760.40
574.68	44779.13
574.84	44474.86
575.01	44584.86
575.17	44505.29
575.33	44371.88
575.49	44343.79
575.65	44870.41
575.82	45460.23
575.98	44596.57
576.14	44575.50
576.30	44685.51
576.46	44212.72
576.62	44781.47
576.79	44903.18
576.95	44573.16
577.11	44980.42
577.27	44678.49
577.43	44542.74
577.59	44493.58
577.75	44465.50
577.92	44362.51
578.08	44512.31
578.24	44011.43
578.40	44650.40
578.56	45022.54
578.72	44446.77
578.88	44762.75
579.04	44823.60
579.21	44708.91
579.37	44502.95
579.53	44304.00
579.69	44580.18
579.85	44830.62
580.01	44748.70
580.17	44917.22
580.33	45109.14
580.49	45083.40
580.65	45354.90
580.82	44861.05
580.98	44364.85
581.14	44329.75
581.30	44989.78
581.46	45059.99
581.62	44800.19
581.78	44561.46
581.94	44999.14
582.10	44842.32
582.26	44861.05
582.42	44954.67
582.58	45109.14
582.74	44802.53
582.90	44886.79
583.06	44877.43
583.22	45090.42
583.38	44959.35
583.54	44779.13
583.70	44844.66
583.86	45008.50
584.02	44498.26
584.18	44636.36
584.34	44704.23
584.50	44807.22
584.66	44556.78
584.82	44685.51
584.98	45013.18
585.14	45038.93
585.30	44570.82
585.46	44889.13
585.62	44793.17
585.78	44947.65
585.94	44215.06
586.10	44699.55
586.26	44294.64
586.42	44828.28
586.58	44697.21
586.74	44893.82
586.90	44505.29
587.06	44781.47
587.22	44980.42
587.38	44498.26
587.54	44987.44
587.70	44760.40
587.86	44893.82
588.02	45020.20
588.18	45219.15
588.34	44772.11
588.49	44589.55
588.65	45113.83
588.81	44556.78
588.97	44694.87
589.13	44910.20
589.29	44959.35
589.45	44765.09
589.61	45390.01
589.77	45207.45
589.93	44949.99
590.08	45015.52
590.24	45020.20
590.40	45287.03
590.56	45544.48
590.72	44987.44
590.88	44807.22
591.04	45277.66
591.20	45593.64
591.35	45303.41
591.51	45600.66
591.67	45144.25
591.83	45434.48
591.99	44861.05
592.15	45294.05
592.31	44921.90
592.46	45017.86
592.62	45247.24
592.78	45162.98
592.94	45198.09
593.10	45441.50
593.26	45474.27
593.41	45436.82
593.57	45078.72
593.73	44919.56
593.89	45455.54
594.05	45404.05
594.20	45305.75
594.36	45085.74
594.52	45516.40
594.68	45509.38
594.84	45436.82
594.99	45815.99
595.15	44952.33
595.31	45106.80
595.47	45081.06
595.62	45443.84
595.78	45429.80
595.94	45450.86
596.10	45404.05
596.25	45394.69
596.41	45450.86
596.57	45455.54
596.73	45294.05
596.88	45125.53
597.04	45141.91
597.20	45474.27
597.36	45361.92
597.51	45455.54
597.67	45256.60
597.83	45223.83
597.99	45593.64
598.14	45481.29
598.30	45216.81
598.46	45422.78
598.61	45247.24
598.77	45223.83
598.93	45221.49
599.09	45104.46
599.24	46033.66
599.40	45155.96
599.56	45815.99
599.71	45525.76
599.87	45687.26
600.03	45546.82
600.18	45432.14
600.34	45235.53
600.50	45186.38
600.65	44945.31
600.81	45661.51
600.97	45106.80
601.12	45771.52
601.28	45296.39
601.44	45289.37
601.59	45394.69
601.75	45031.91
601.91	45193.40
602.06	45275.32
602.22	45490.65
602.37	45605.34
602.53	45567.89
602.69	45668.53
602.84	45563.21
603.00	45160.64
603.16	45577.25
603.31	45013.18
603.47	44889.13
603.62	45265.96
603.78	45572.57
603.94	45385.33
604.09	45537.46
604.25	45167.66
604.40	45420.44
604.56	45130.21
604.71	45277.66
604.87	44746.36
605.03	45368.94
605.18	45059.99
605.34	45305.75
605.49	44896.16
605.65	45193.40
605.80	45184.04
605.96	45404.05
606.12	44919.56
606.27	45139.57
606.43	44907.86
606.58	45242.56
606.74	44858.71
606.89	45045.95
607.05	45022.54
607.20	45092.76
607.36	45282.34
607.51	45471.93
607.67	45188.72
607.82	45399.37
607.98	44837.64
608.13	45296.39
608.29	45343.20
608.44	44914.88
608.60	44383.58
608.75	44882.11
608.91	44896.16
609.06	44847.00
609.22	45212.13
609.37	44900.84
609.53	44715.93
609.68	45474.27
609.84	44905.52
609.99	45223.83
610.15	44961.69
610.30	44861.05
610.46	44886.79
610.61	44900.84
610.76	44706.57
610.92	44587.21
611.07	44938.29
611.23	44512.31
611.38	44552.10
611.54	44601.25
611.69	44584.86
611.84	44201.02
612.00	44718.28
612.15	44612.95
612.31	44690.19
612.46	44687.85
612.62	44715.93
612.77	44516.99
612.92	44893.82
613.08	44414.01
613.23	44528.69
613.39	44458.48
613.54	43838.23
613.69	44435.07
613.85	44594.23
614.00	44374.22
614.15	44706.57
614.31	44175.27
614.46	44538.05
614.62	44465.50
614.77	44250.17
614.92	44149.53
615.08	44367.20
615.23	44093.35
615.38	44034.84
615.54	43985.69
615.69	43990.37
615.84	43878.02
616.00	43948.24
616.15	44364.85
616.30	44243.15
616.46	43955.26
616.61	43917.81
616.76	44055.90
616.92	43772.70
617.07	44140.16
617.22	43744.61
617.37	43995.05
617.53	43697.80
617.68	44030.16
617.83	44360.17
617.99	43948.24
618.14	44039.52
618.29	43753.97
618.45	43807.81
618.60	43878.02
618.75	43388.85
618.90	43920.15
619.06	43405.23
619.21	43562.05
619.36	44020.80
619.51	43910.79
619.67	43606.52
619.82	43674.40
619.97	43735.25
620.12	43061.18
620.28	43344.38
620.43	43491.83
620.58	43339.70
620.73	43484.81
620.89	43283.53
621.04	43154.80
621.19	43344.38
621.34	43119.69
621.49	43463.75
621.65	43292.89
621.80	43262.46
621.95	43152.46
622.10	43189.91
622.25	43306.93
622.41	42831.80
622.56	43199.27
622.71	43459.07
622.86	43510.56
623.01	42822.44
623.16	43136.07
623.32	43438.00
623.47	43669.72
623.62	43615.88
623.77	42845.85
623.92	43040.11
624.07	42726.48
624.23	42696.05
624.38	42768.61
624.53	43129.05
624.68	42979.26
624.83	42600.09
624.98	42710.10
625.13	42799.04
625.29	42866.91
625.44	42740.52
625.59	42885.64
625.74	42628.18
625.89	42464.34
626.04	42274.76
626.19	42426.89
626.34	42473.70
626.49	42230.29
626.65	42321.57
626.80	42422.21
626.95	41804.31
627.10	41949.42
627.25	42462.00
627.40	41984.53
627.55	42234.97
627.70	41879.21
627.85	41691.96
628.00	41902.61
628.15	41865.16
628.30	42637.54
628.45	42223.26
628.60	41862.82
628.76	41715.37
628.91	41979.85
629.06	41902.61
629.21	41696.64
629.36	42167.09
629.51	41769.20
629.66	41944.74
629.81	41783.24
629.96	42192.84
630.11	41881.55
630.26	42108.58
630.41	42241.99
630.56	41296.41
630.71	41750.48
630.86	41446.21
631.01	41296.41
631.16	41553.87
631.31	41647.49
631.46	41265.99
631.61	41427.48
631.76	41347.90
631.91	41752.82
632.06	41366.63
632.21	41883.89
632.36	41422.80
632.51	41331.52
632.66	41579.62
632.81	41064.70
632.96	41507.06
633.10	41069.38
633.25	40992.14
633.40	41184.07
633.55	41895.59
633.70	41123.21
633.85	40935.97
634.00	41214.49
634.15	40968.74
634.30	41336.20
634.45	41455.57
634.60	41031.93
634.75	41013.21
634.90	41268.33
635.05	40858.73
635.19	40844.69
635.34	40900.86
635.49	40999.16
635.64	41078.74
635.79	40563.82
635.94	41053.00
636.09	41116.19
636.24	40825.96
636.39	40744.05
636.53	40720.64
636.68	40252.53
636.83	40954.69
636.98	41226.20
637.13	40189.34
637.28	40629.36
637.43	40587.23
637.57	40840.01
637.72	40694.89
637.87	40362.54
638.02	40690.21
638.17	40261.90
638.32	40484.25
638.46	40334.45
638.61	40055.93
638.76	40407.01
638.91	40076.99
639.06	40285.30
639.20	40402.33
639.35	40137.85
639.50	40439.78
639.65	40383.60
639.80	40072.31
639.94	39894.43
640.09	40041.88
640.24	39950.60
640.39	39887.41
640.54	39487.18
640.68	40332.11
640.83	39873.37
640.98	39618.25
641.13	39812.51
641.27	39718.89
641.42	39215.68
641.57	39648.68
641.72	39690.80
641.86	39522.29
642.01	39470.79
642.16	39662.72
642.31	39543.35
642.45	39463.77
642.60	39374.83
642.75	39414.62
642.90	39786.77
643.04	39585.48
643.19	39435.69
643.34	39302.28
643.48	39679.10
643.63	39646.33
643.78	39168.87
643.93	39365.47
644.07	39627.61
644.22	39192.27
644.37	39138.44
644.51	38756.93
644.66	39503.56
644.81	39206.31
644.95	39805.49
645.10	39587.82
645.25	39377.17
645.39	39475.48
645.54	39608.89
645.69	39225.04
645.83	38967.58
645.98	39044.82
646.13	38864.60
646.27	39416.96
646.42	39157.16
646.57	38960.56
646.71	38717.14
646.86	38815.44
647.00	39028.43
647.15	38983.96
647.30	38778.00
647.44	38635.22
647.59	38536.92
647.74	38862.26
647.88	38717.14
648.03	38494.79
648.17	38719.48
648.32	38770.97
648.47	38682.03
648.61	38653.95
648.76	38859.91
648.90	38770.97
649.05	38829.49
649.20	38995.67
649.34	39016.73
649.49	38253.72
649.63	38705.44
649.78	38466.70
649.92	38242.01
650.07	38384.79
650.21	38380.10
650.36	38550.96
650.51	38211.59
650.65	38740.55
650.80	38780.34
650.94	38609.48
651.09	38562.67
651.23	38141.37
651.38	38298.19
651.52	37942.42
651.67	37902.64
651.81	38185.84
651.96	38099.24
652.10	38307.55
652.25	37801.99
652.39	38029.02
652.54	38181.16
652.68	37935.40
652.83	38213.93
652.97	38274.78
653.12	38146.05
653.26	37736.46
653.41	37942.42
653.55	37413.46
653.70	37631.13
653.84	37748.16
653.99	37972.85
654.13	37544.53
654.27	38057.11
654.42	37570.28
654.56	37317.50
654.71	38059.45
654.85	37706.03
655.00	37532.83
655.14	37373.67
655.29	37067.06
655.43	36985.15
655.57	37207.50
655.72	37137.28
655.86	37324.52
656.01	37462.61
656.15	37420.48
656.30	37060.04
656.44	37455.59
656.58	37333.89
656.73	36870.46
656.87	36823.65
657.01	36905.57
657.16	36919.61
657.30	36570.87
657.45	36835.35
657.59	36975.78
657.73	36935.99
657.88	36933.65
658.02	36753.43
658.16	37361.97
658.31	36816.63
658.45	37186.43
658.60	36727.69
658.74	37186.43
658.88	36739.39
659.03	36842.37
659.17	36596.62
659.31	36430.44
659.46	36470.23
659.60	36725.35
659.74	36678.54
659.89	36720.66
660.03	36446.82
660.17	36297.03
660.32	36137.87
660.46	36851.73
660.60	36187.02
660.74	36444.48
660.89	36505.34
661.03	35756.36
661.17	35728.28
661.32	35875.73
661.46	35978.72
661.60	35887.43
661.74	35835.94
661.89	36098.08
662.03	35744.66
662.17	36039.57
662.31	35880.41
662.46	35686.15
662.60	35828.92
662.74	35463.80
662.88	35618.27
663.03	35681.47
663.17	35306.98
663.31	34939.52
663.45	35634.66
663.60	35335.07
663.74	34859.94
663.88	35234.42
664.02	35175.91
664.17	35234.42
664.31	34724.19
664.45	34843.56
664.59	35145.48
664.73	35079.95
664.88	34864.62
665.02	34387.15
665.16	34471.41
665.30	34679.72
665.44	34387.15
665.59	34576.73
665.73	34326.30
665.87	34377.79
666.01	34366.09
666.15	34410.56
666.29	34396.51
666.44	34579.07
666.58	33956.49
666.72	34345.02
666.86	34394.17
667.00	34440.98
667.14	33972.88
667.28	34078.20
667.43	33982.24
667.57	34017.35
667.71	34075.86
667.85	34057.14
667.99	33713.08
668.13	33727.12
668.27	33743.50
668.41	33535.20
668.56	33357.32
668.70	33610.09
668.84	33825.42
668.98	33305.82
669.12	33207.52
669.26	33490.73
669.40	33209.86
669.54	33195.82
669.68	33422.85
669.82	33139.65
669.96	33024.96
670.10	32645.79
670.25	33071.77
670.39	32470.25
670.53	32907.93
670.67	32355.57
670.81	32823.67
670.95	32811.97
671.09	32723.03
671.23	32985.17
671.37	32772.18
671.51	32297.05
671.65	32613.02
671.79	32027.89
671.93	32182.37
672.07	32048.96
672.21	32378.97
672.35	32011.51
672.49	31775.11
672.63	32400.04
672.77	31901.50
672.91	31721.28
673.05	31826.60
673.19	32046.62
673.33	32086.40
673.47	31538.72
673.61	31569.15
673.75	31409.99
673.89	31255.51
674.03	30986.35
674.17	30906.77
674.31	31101.04
674.45	31089.34
674.59	31000.40
674.73	31388.92
674.87	30698.47
675.01	30721.87
675.15	30871.67
675.29	30967.63
675.43	30492.50
675.56	30487.82
675.70	30560.37
675.84	30242.06
675.98	29453.30
676.12	29937.79
676.26	30141.42
676.40	29989.28
676.54	30132.06
676.68	30082.91
676.82	29635.86
676.96	29806.72
677.10	29081.16
677.23	29532.88
677.37	29287.12
677.51	29336.27
677.65	29336.27
677.79	29048.39
677.93	28898.59
678.07	29163.08
678.21	28720.71
678.34	28493.68
678.48	28851.78
678.62	28861.15
678.76	28376.66
678.90	28194.09
679.04	28091.11
679.18	28451.55
679.31	28114.52
679.45	28112.17
679.59	27714.28
679.73	28222.18
679.87	28126.22
680.00	28020.89
680.14	27934.29
680.28	27641.73
680.42	27702.58
680.56	27749.39
680.70	27227.45
680.83	27442.78
680.97	27044.89
681.11	27323.41
681.25	26635.30
681.39	26958.29
681.52	27014.46
681.66	27215.75
681.80	26766.37
681.94	26710.19
682.07	26373.16
682.21	26728.92
682.35	26199.96
682.49	26132.08
682.62	26429.33
682.76	26047.82
682.90	25930.80
683.04	26127.40
683.17	25631.21
683.31	26132.08
683.45	26036.12
683.59	25624.18
683.72	25507.16
683.86	25266.08
684.00	25781.00
684.13	25429.92
684.27	25263.74
684.41	25357.36
684.55	25184.16
684.68	24631.80
684.82	24577.97
684.96	24673.93
685.09	24954.79
685.23	24559.24
685.37	24659.88
685.50	24746.48
685.64	24449.24
685.78	24489.03
685.91	24680.95
686.05	24121.56
686.19	24182.42
686.32	24566.26
686.46	24030.28
686.60	23627.71
686.73	23452.17
686.87	23424.08
687.01	23321.10
687.14	23201.73
687.28	23480.25
687.42	23084.70
687.55	23152.58
687.69	22984.06
687.82	22881.08
687.96	22775.75
688.10	23028.53
688.23	22764.05
688.37	22569.79
688.50	22321.69
688.64	22417.65
688.78	22260.84
688.91	22066.57
689.05	22291.26
689.18	21965.93
689.32	21692.08
689.46	22160.19
689.59	21970.61
689.73	22183.60
689.86	21685.06
690.00	21490.80
690.13	21703.79
690.27	21640.59
690.41	21722.51
690.54	21362.07
690.68	21128.02
690.81	21090.57
690.95	21207.59
691.08	21074.18
691.22	21020.35
691.35	20947.79
691.49	20835.45
691.62	20783.96
691.76	21003.97
691.89	20568.63
692.03	20730.12
692.16	20439.90
692.30	20418.83
692.43	20285.42
692.57	20126.27
692.70	20042.01
692.84	20308.83
692.97	20388.41
693.11	19889.87
693.24	20074.77
693.38	19644.12
693.51	19447.51
693.65	19508.37
693.78	19466.24
693.92	19674.54
694.05	19370.27
694.19	18956.00
694.32	19281.33
694.45	19241.54
694.59	19005.15
694.72	18988.77
694.86	18925.57
694.99	18630.66
695.13	18478.53
695.26	18663.43
695.39	18195.32
695.53	18888.12
695.66	18391.93
695.80	18466.83
695.93	18274.90
696.07	17996.38
696.20	18401.29
696.33	18347.46
696.47	17928.50
696.60	17916.80
696.73	17769.35
696.87	17802.11
697.00	18054.89
697.14	17886.37
697.27	17467.42
697.40	17282.52
697.54	17390.18
697.67	17451.03
697.80	17275.49
697.94	17198.26
698.07	17163.15
698.21	17071.87
698.34	16926.75
698.47	16833.13
698.61	16723.13
698.74	16807.39
698.87	16723.13
699.01	16615.46
699.14	16552.27
699.27	16346.30
699.40	16423.54
699.54	16346.30
699.67	16072.46
699.80	16217.57
699.94	16095.86
700.07	15983.52
700.20	15775.21
700.34	15719.04
700.47	15604.35
700.60	15894.58
700.73	15793.94
700.87	15885.22
701.00	15917.98
701.13	15522.43
701.26	15344.55
701.40	15590.31
701.53	15187.74
701.66	15351.57
701.79	15211.14
701.93	14981.77
702.06	14923.26
702.19	14965.39
702.32	14794.53
702.46	14766.44
702.59	14787.50
702.72	14843.68
702.85	14761.76
702.99	14677.50
703.12	14679.84
703.25	14464.51
703.38	14335.78
703.51	14516.00
703.65	14207.05
703.78	14314.72
703.91	14209.39
704.04	13973.00
704.17	14221.10
704.31	14040.87
704.44	13762.35
704.57	13575.11
704.70	13624.26
704.83	13624.26
704.96	13799.80
705.10	13591.49
705.23	13755.33
>>>>>End Processed Spectral Data<<<<<
