SpectraSuite Data File
++++++++++++++++++++++++++++++++++++
Date: Fri Oct 25 10:48:04 EDT 2013
User: price-jones
Dark Spectrum Present: No
Reference Spectrum Present: No
Number of Sampled Component Spectra: 1
Spectrometers: USB2+H05261
Integration Time (usec): 100000 (USB2+H05261)
Spectra Averaged: 1 (USB2+H05261)
Boxcar Smoothing: 0 (USB2+H05261)
Correct for Electrical Dark: No (USB2+H05261)
Strobe/Lamp Enabled: No (USB2+H05261)
Correct for Detector Non-linearity: No (USB2+H05261)
Correct for Stray Light: No (USB2+H05261)
Number of Pixels in Processed Spectrum: 2048
>>>>>Begin Processed Spectral Data<<<<<
365.73	74.90
365.92	74.90
366.12	74.90
366.32	79.58
366.52	77.24
366.72	7.02
366.91	4.68
367.11	58.51
367.31	53.83
367.51	81.92
367.70	70.22
367.90	56.17
368.10	21.06
368.30	95.96
368.49	44.47
368.69	84.26
368.89	60.85
369.09	79.58
369.28	46.81
369.48	100.64
369.68	91.28
369.87	102.98
370.07	102.98
370.27	128.73
370.47	273.84
370.66	341.72
370.86	468.11
371.06	423.64
371.25	524.28
371.45	479.81
371.65	482.15
371.84	402.57
372.04	451.72
372.24	484.49
372.44	461.09
372.63	500.87
372.83	599.18
373.03	564.07
373.22	437.68
373.42	557.05
373.62	514.92
373.81	505.56
374.01	606.20
374.21	533.64
374.40	484.49
374.60	578.11
374.79	531.30
374.99	503.22
375.19	578.11
375.38	554.71
375.58	486.83
375.78	603.86
375.97	538.32
376.17	596.84
376.37	580.45
376.56	543.00
376.76	617.90
376.95	585.13
377.15	601.52
377.35	559.39
377.54	608.54
377.74	547.69
377.93	552.37
378.13	578.11
378.33	620.24
378.52	608.54
378.72	538.32
378.91	585.13
379.11	636.63
379.31	617.90
379.50	545.34
379.70	589.82
379.89	622.58
380.09	681.10
380.28	664.71
380.48	669.39
380.68	587.47
380.87	550.03
381.07	603.86
381.26	664.71
381.46	681.10
381.65	751.31
381.85	674.07
382.04	641.31
382.24	645.99
382.43	660.03
382.63	662.37
382.83	716.20
383.02	739.61
383.22	739.61
383.41	664.71
383.61	725.57
383.80	725.57
384.00	772.38
384.19	739.61
384.39	615.56
384.58	685.78
384.78	744.29
384.97	739.61
385.17	702.16
385.36	784.08
385.56	795.78
385.75	755.99
385.95	758.33
386.14	814.51
386.34	660.03
386.53	844.93
386.72	716.20
386.92	894.08
387.11	830.89
387.31	802.80
387.50	786.42
387.70	777.06
387.89	894.08
388.09	819.19
388.28	807.48
388.48	833.23
388.67	924.51
388.86	786.42
389.06	908.13
389.25	952.60
389.45	952.60
389.64	851.96
389.84	994.73
390.03	947.92
390.22	1004.09
390.42	894.08
390.61	863.66
390.81	816.85
391.00	940.90
391.19	966.64
391.39	978.34
391.58	971.32
391.78	1062.60
391.97	926.85
392.16	884.72
392.36	990.05
392.55	1029.84
392.75	922.17
392.94	997.07
393.13	1055.58
393.33	943.24
393.52	966.64
393.71	968.98
393.91	954.94
394.10	985.37
394.29	978.34
394.49	1067.28
394.68	1057.92
394.88	1163.25
395.07	1011.11
395.26	1039.20
395.46	1132.82
395.65	1086.01
395.84	1107.07
396.04	1057.92
396.23	1123.46
396.42	1163.25
396.62	1139.84
396.81	1114.10
397.00	1153.88
397.19	1165.59
397.39	1299.00
397.58	1179.63
397.77	1111.75
397.97	1217.08
398.16	1254.53
398.35	1242.82
398.55	1165.59
398.74	1294.32
398.93	1245.16
399.12	1245.16
399.32	1327.08
399.51	1324.74
399.70	1331.76
399.90	1401.98
400.09	1355.17
400.28	1352.83
400.47	1383.26
400.67	1385.60
400.86	1390.28
401.05	1409.00
401.24	1394.96
401.44	1432.41
401.63	1427.73
401.82	1467.52
402.01	1511.99
402.21	1554.12
402.40	1558.80
402.59	1472.20
402.78	1469.86
402.97	1432.41
403.17	1603.27
403.36	1607.95
403.55	1458.15
403.74	1596.25
403.93	1600.93
404.13	1680.50
404.32	1626.67
404.51	1610.29
404.70	1596.25
404.89	1645.40
405.09	1722.63
405.28	1657.10
405.47	1715.61
405.66	1645.40
405.85	1696.89
406.05	1685.19
406.24	1760.08
406.43	1724.97
406.62	1825.62
406.81	1856.04
407.00	1788.17
407.20	1769.44
407.39	1884.13
407.58	1919.24
407.77	1802.21
407.96	1956.69
408.15	2057.33
408.34	1952.01
408.54	1935.62
408.73	1895.83
408.92	1942.64
409.11	2003.50
409.30	1856.04
409.49	1942.64
409.68	1996.48
409.87	1893.49
410.07	2017.54
410.26	2097.12
410.45	2094.78
410.64	2132.23
410.83	2160.31
411.02	2094.78
411.21	2214.15
411.40	2326.49
411.59	2251.60
411.78	2296.07
411.98	2129.89
412.17	2275.00
412.36	2335.85
412.55	2377.98
412.74	2354.58
412.93	2483.31
413.12	2284.36
413.31	2459.90
413.50	2478.63
413.69	2513.74
413.88	2457.56
414.07	2473.95
414.26	2459.90
414.45	2485.65
414.64	2572.25
414.83	2555.86
415.02	2614.38
415.22	2651.83
415.41	2708.00
415.60	2722.04
415.79	2839.07
415.98	2712.68
416.17	2750.13
416.36	2700.98
416.55	2719.70
416.74	2764.17
416.93	2796.94
417.12	2897.58
417.31	2920.99
417.50	2888.22
417.69	3012.27
417.88	2998.23
418.07	3124.62
418.26	2986.52
418.45	3005.25
418.64	3143.34
418.83	3077.80
419.02	3243.98
419.21	3108.23
419.39	3258.03
419.58	3059.08
419.77	3080.14
419.96	3248.66
420.15	3232.28
420.34	3262.71
420.53	3234.62
420.72	3325.90
420.91	3302.50
421.10	3307.18
421.29	3297.81
421.48	3169.09
421.67	3337.60
421.86	3157.38
422.05	3346.97
422.24	3169.09
422.43	3356.33
422.61	3358.67
422.80	3550.59
422.99	3435.91
423.18	3431.23
423.37	3461.65
423.56	3487.40
423.75	3475.70
423.94	3356.33
424.13	3241.64
424.32	3274.41
424.50	3543.57
424.69	3496.76
424.88	3609.11
425.07	3456.97
425.26	3398.46
425.45	3471.01
425.64	3524.85
425.83	3480.38
426.01	3538.89
426.20	3508.46
426.39	3492.08
426.58	3529.53
426.77	3641.87
426.96	3665.28
427.15	3599.74
427.33	3616.13
427.52	3489.74
427.71	3737.84
427.90	3632.51
428.09	3548.25
428.28	3740.18
428.46	3669.96
428.65	3709.75
428.84	3826.78
429.03	3847.84
429.22	3590.38
429.40	3758.90
429.59	3646.55
429.78	3559.95
429.97	3660.60
430.16	3707.41
430.34	3667.62
430.53	3864.22
430.72	3845.50
430.91	3831.46
431.10	3920.40
431.28	3997.64
431.47	4098.28
431.66	4018.70
431.85	3887.63
432.03	4025.72
432.22	4058.49
432.41	4088.92
432.60	4205.94
432.79	4152.11
432.97	4166.15
433.16	4182.54
433.35	4177.86
433.54	4016.36
433.72	4227.01
433.91	4198.92
434.10	4189.56
434.28	4292.54
434.47	4212.96
434.66	4348.72
434.85	4292.54
435.03	4353.40
435.22	4395.53
435.41	4475.10
435.59	4292.54
435.78	4442.34
435.97	4484.47
436.16	4475.10
436.34	4505.53
436.53	4568.73
436.72	4678.73
436.90	4444.68
437.09	4578.09
437.28	4500.85
437.46	4617.88
437.65	4547.66
437.84	4655.33
438.02	4683.41
438.21	4723.20
438.40	4578.09
438.58	4807.46
438.77	4844.91
438.96	4870.65
439.14	4781.71
439.33	4978.32
439.52	4896.40
439.70	5008.75
439.89	4980.66
440.08	5004.07
440.26	4983.00
440.45	5053.22
440.63	5118.75
440.82	5210.03
441.01	5273.23
441.19	5200.67
441.38	5249.82
441.57	5305.99
441.75	5277.91
441.94	5383.23
442.12	5444.09
442.31	5579.84
442.50	5448.77
442.68	5490.90
442.87	5481.53
443.05	5593.88
443.24	5666.44
443.43	5600.90
443.61	5645.37
443.80	5767.08
443.98	5530.69
444.17	5551.75
444.35	5788.14
444.54	5762.40
444.73	5788.14
444.91	5589.20
445.10	5593.88
445.28	5753.04
445.47	5589.20
445.65	5689.84
445.84	5666.44
446.02	5755.38
446.21	5741.33
446.39	5783.46
446.58	5884.11
446.77	5792.83
446.95	5628.99
447.14	5879.43
447.32	5909.85
447.51	5760.06
447.69	5706.23
447.88	5989.43
448.06	6073.69
448.25	5942.62
448.43	5998.79
448.62	5916.87
448.80	5940.28
448.99	6097.10
449.17	5982.41
449.36	5813.89
449.54	6031.56
449.73	6230.51
449.91	6155.61
450.10	6183.70
450.28	6258.59
450.46	6333.49
450.65	6148.59
450.83	6415.41
451.02	6239.87
451.20	6291.36
451.39	6235.19
451.57	6272.64
451.76	6225.82
451.94	6265.61
452.13	6373.28
452.31	6345.19
452.49	6267.95
452.68	6492.65
452.86	6335.83
453.05	6502.01
453.23	6417.75
453.42	6361.58
453.60	6450.52
453.78	6478.60
453.97	6352.21
454.15	6450.52
454.34	6380.30
454.52	6626.06
454.70	6635.42
454.89	6642.44
455.07	6626.06
455.26	6686.91
455.44	6707.98
455.62	6932.67
455.81	6597.97
455.99	6888.20
456.17	6939.69
456.36	6782.87
456.54	6867.13
456.73	7115.23
456.91	7227.57
457.09	7145.66
457.28	7164.38
457.46	6984.16
457.64	7239.28
457.83	7140.97
458.01	6930.33
458.19	7363.33
458.38	7180.76
458.56	7487.37
458.74	7171.40
458.93	7169.06
459.11	7365.67
459.29	7274.38
459.48	7279.07
459.66	7220.55
459.84	7370.35
460.03	7515.46
460.21	7307.15
460.39	7342.26
460.57	7520.14
460.76	7365.67
460.94	7588.02
461.12	7496.74
461.31	7871.22
461.49	7452.27
461.67	7410.14
461.85	7566.95
462.04	7742.49
462.22	8131.02
462.40	7733.13
462.59	8013.99
462.77	7836.11
462.95	8086.55
463.13	7903.99
463.32	7939.10
463.50	8065.49
463.68	7988.25
463.86	7894.63
464.05	7903.99
464.23	7808.03
464.41	7992.93
464.59	7798.66
464.78	8100.59
464.96	8112.30
465.14	7772.92
465.32	8046.76
465.50	7934.42
465.69	8074.85
465.87	8004.63
466.05	7971.86
466.23	8105.28
466.41	8173.15
466.60	8418.91
466.78	8173.15
466.96	8226.98
467.14	8145.06
467.32	8542.96
467.51	8402.52
467.69	8149.75
467.87	8454.02
468.05	8589.77
468.23	8475.08
468.41	8465.72
468.60	8428.27
468.78	8571.04
468.96	8355.71
469.14	8374.44
469.32	8713.81
469.50	8365.07
469.69	8542.96
469.87	8781.69
470.05	8636.58
470.23	8863.61
470.41	8737.22
470.59	8905.74
470.77	8861.27
470.95	8992.34
471.14	8959.57
471.32	8781.69
471.50	9153.84
471.68	9022.77
471.86	8915.10
472.04	9158.52
472.22	9486.19
472.40	9151.49
472.58	9268.52
472.77	9362.14
472.95	9301.29
473.13	9628.96
473.31	9476.83
473.49	9261.50
473.67	9362.14
473.85	9453.42
474.03	9565.77
474.21	9708.54
474.39	9731.95
474.57	9853.66
474.75	9961.32
474.93	9802.16
475.12	10052.60
475.30	9764.72
475.48	10031.54
475.66	10139.20
475.84	10052.60
476.02	10310.06
476.20	10115.80
476.38	10377.94
476.56	10443.47
476.74	10520.71
476.92	10537.09
477.10	10485.60
477.28	10621.35
477.46	10752.42
477.64	10590.92
477.82	11136.27
478.00	11140.95
478.18	11234.57
478.36	11194.78
478.54	11204.14
478.72	11288.40
478.90	11527.14
479.08	11681.61
479.26	11545.86
479.44	11597.35
479.62	11763.53
479.80	11873.54
479.98	11784.60
480.16	12313.56
480.34	11873.54
480.52	12128.66
480.70	12325.26
480.88	12161.42
481.06	12187.17
481.24	12322.92
481.41	12664.64
481.59	12568.68
481.77	12922.10
481.95	12753.58
482.13	12919.76
482.31	13156.15
482.49	13282.54
482.67	13315.31
482.85	13373.82
483.03	13603.19
483.21	13518.93
483.39	13642.98
483.57	13624.26
483.74	13685.11
483.92	14251.52
484.10	13853.63
484.28	14090.02
484.46	14508.98
484.64	14501.96
484.82	14406.00
485.00	14485.58
485.18	14946.66
485.35	14960.70
485.53	14803.89
485.71	14820.27
485.89	14705.59
486.07	14808.57
486.25	15208.80
486.43	15073.05
486.61	15506.05
486.78	15737.76
486.96	15833.72
487.14	15672.23
487.32	16037.35
487.50	16053.73
487.68	16453.97
487.85	16432.90
488.03	16500.78
488.21	16828.45
488.39	16711.42
488.57	16802.71
488.75	17039.10
488.92	17170.17
489.10	17495.50
489.28	17415.93
489.46	17497.84
489.64	17579.76
489.81	17935.53
489.99	18045.53
490.17	18190.64
490.35	18277.24
490.53	18101.70
490.70	18202.35
490.88	18492.57
491.06	18651.73
491.24	18504.28
491.41	18658.75
491.59	19168.99
491.77	18738.33
491.95	18941.96
492.13	19147.92
492.30	19623.05
492.48	19419.42
492.66	19857.10
492.84	19194.73
493.01	19943.70
493.19	19456.87
493.37	20372.02
493.54	19850.08
493.72	20493.73
493.90	20561.61
494.08	20180.10
494.25	20685.65
494.43	20954.82
494.61	20936.09
494.79	21139.72
494.96	20622.46
495.14	20922.05
495.32	21916.78
495.49	21783.37
495.67	21717.83
495.85	21504.84
496.02	21991.67
496.20	22043.17
496.38	21745.92
496.55	22043.17
496.73	22597.87
496.91	22382.54
497.09	22412.97
497.26	22586.17
497.44	22696.17
497.62	22958.31
497.79	23190.03
497.97	22785.12
498.14	22799.16
498.32	23007.47
498.50	23410.04
498.67	23747.08
498.85	23484.94
499.03	23655.79
499.20	23805.59
499.38	23655.79
499.56	23953.04
499.73	24212.84
499.91	24088.79
500.08	23981.13
500.26	24114.54
500.44	24329.87
500.61	24217.52
500.79	24098.16
500.97	24589.67
501.14	24830.74
501.32	24992.24
501.49	24882.24
501.67	24989.90
501.84	25034.37
502.02	24694.99
502.20	25165.44
502.37	25521.20
502.55	25493.12
502.72	25514.18
502.90	25432.26
503.07	25348.00
503.25	25219.27
503.43	25799.73
503.60	25928.45
503.78	25612.48
503.95	25862.92
504.13	26068.89
504.30	26202.30
504.48	26588.49
504.65	26178.89
504.83	26806.16
505.01	26387.20
505.18	26897.44
505.36	27033.19
505.53	26689.13
505.71	26733.60
505.88	27407.67
506.06	27072.98
506.23	27023.83
506.41	26810.84
506.58	27199.37
506.76	26855.31
506.93	27400.65
507.11	27412.35
507.28	27407.67
507.46	27356.18
507.63	27449.80
507.81	27803.22
507.98	27501.29
508.16	27892.16
508.33	28053.66
508.50	27922.59
508.68	27920.25
508.85	28704.33
509.03	28133.24
509.20	28205.80
509.38	28751.14
509.55	28751.14
509.73	28793.27
509.90	28566.24
510.08	28704.33
510.25	28589.64
510.42	29048.39
510.60	29270.74
510.77	29308.19
510.95	29450.96
511.12	28851.78
511.30	29235.63
511.47	29696.72
511.64	29682.67
511.82	29677.99
511.99	29467.34
512.17	29790.34
512.34	29474.37
512.51	29876.94
512.69	30089.93
512.86	29874.60
513.04	30078.22
513.21	30096.95
513.38	29799.70
513.56	30267.81
513.73	30611.87
513.90	30368.45
514.08	29841.83
514.25	30822.51
514.43	30663.36
514.60	30712.51
514.77	30866.98
514.95	30958.27
515.12	30499.52
515.29	31040.18
515.47	31068.27
515.64	31503.61
515.81	30888.05
515.99	31136.15
516.16	31543.40
516.33	31337.43
516.51	31473.18
516.68	31470.84
516.85	31426.37
517.03	31641.70
517.20	31538.72
517.37	31571.49
517.54	31899.16
517.72	31892.14
517.89	31807.88
518.06	32114.49
518.24	32063.00
518.41	31985.76
518.58	32297.05
518.75	31721.28
518.93	32165.98
519.10	32238.54
519.27	32119.17
519.45	32299.39
519.62	32425.78
519.79	32769.84
519.96	32783.88
520.14	32924.32
520.31	32833.04
520.48	32807.29
520.65	33020.28
520.83	33141.99
521.00	33209.86
521.17	33181.77
521.34	33230.93
521.52	33404.13
521.69	33237.95
521.86	33795.00
522.03	33947.13
522.20	33553.92
522.38	33914.36
522.55	33570.30
522.72	33795.00
522.89	33710.74
523.07	33954.15
523.24	33687.33
523.41	34550.99
523.58	34267.78
523.75	34340.34
523.92	34483.11
524.10	34504.18
524.27	34171.82
524.44	34424.60
524.61	34476.09
524.78	34639.93
524.96	34710.14
525.13	34513.54
525.30	35199.32
525.47	35150.17
525.64	35344.43
525.81	34742.91
525.98	34923.13
526.16	34890.37
526.33	35187.61
526.50	35442.73
526.67	34958.24
526.84	35126.76
527.01	34962.92
527.18	35206.34
527.36	35208.68
527.53	35821.90
527.70	36044.25
527.87	35864.03
528.04	35590.19
528.21	35835.94
528.38	35985.74
528.55	36505.34
528.72	35899.14
528.89	36465.55
529.07	36236.17
529.24	35922.54
529.41	36222.13
529.58	35901.48
529.75	36233.83
529.92	36182.34
530.09	36460.87
530.26	36280.64
530.43	36678.54
530.60	36416.40
530.77	36432.78
530.94	36706.62
531.11	36510.02
531.28	36760.45
531.46	36645.77
531.63	36744.07
531.80	37055.36
531.97	36767.48
532.14	36849.39
532.31	36893.86
532.48	36835.35
532.65	37460.27
532.82	37193.45
532.99	37057.70
533.16	37043.66
533.33	37226.22
533.50	37315.16
533.67	37640.50
533.84	37258.99
534.01	37240.26
534.18	37649.86
534.35	37783.27
534.52	37546.87
534.69	37820.72
534.86	37970.51
535.03	37675.60
535.20	38007.96
535.37	38174.14
535.54	38234.99
535.71	38110.94
535.88	37523.47
536.05	38162.43
536.22	38218.61
536.38	38316.91
536.55	38469.04
536.72	38249.03
536.89	38080.52
537.06	37951.79
537.23	38705.44
537.40	38667.99
537.57	38707.78
537.74	38738.21
537.91	38796.72
538.08	38574.37
538.25	38305.21
538.42	38274.78
538.59	38440.96
538.75	38574.37
538.92	38951.20
539.09	38808.42
539.26	38443.30
539.43	39105.67
539.60	38644.59
539.77	39210.99
539.94	39033.11
540.11	38932.47
540.28	38710.12
540.44	39082.27
540.61	38967.58
540.78	38951.20
540.95	38969.92
541.12	39037.80
541.29	39023.75
541.46	39234.40
541.62	39409.94
541.79	39428.66
541.96	39009.71
542.13	39519.95
542.30	39311.64
542.47	39686.12
542.63	39393.56
542.80	39126.74
542.97	39913.16
543.14	39931.88
543.31	39934.22
543.48	40250.19
543.64	40252.53
543.81	39915.50
543.98	40287.64
544.15	40336.79
544.32	40301.68
544.48	40500.63
544.65	40512.33
544.82	40357.86
544.99	40252.53
545.16	40411.69
545.32	39917.84
545.49	40500.63
545.66	40451.48
545.83	40854.05
546.00	40882.14
546.16	40996.82
546.33	40671.49
546.50	40245.51
546.67	40631.70
546.83	40201.04
547.00	40488.93
547.17	40933.63
547.34	40608.29
547.50	41031.93
547.67	41378.33
547.84	40994.48
548.00	41179.39
548.17	41373.65
548.34	41170.02
548.51	41404.08
548.67	41368.97
548.84	41577.28
549.01	41132.57
549.18	41701.32
549.34	41645.15
549.51	41762.18
549.68	41691.96
549.84	41766.86
550.01	41874.52
550.18	41331.52
550.34	41560.89
550.51	41474.29
550.68	41404.08
550.84	41221.52
551.01	41624.09
551.18	41549.19
551.34	41635.79
551.51	41673.24
551.68	41668.56
551.84	41799.63
552.01	41680.26
552.18	42045.38
552.34	41345.56
552.51	41759.84
552.68	41743.45
552.84	41921.34
553.01	42190.50
553.18	42211.56
553.34	42031.34
553.51	41708.35
553.67	42274.76
553.84	42227.95
554.01	42436.25
554.17	42529.87
554.34	42609.45
554.51	42389.44
554.67	42656.26
554.84	42658.60
555.00	42319.23
555.17	42288.80
555.33	42738.18
555.50	42602.43
555.67	42438.59
555.83	42607.11
556.00	42799.04
556.16	42796.70
556.33	42773.29
556.50	42775.63
556.66	42817.76
556.83	42253.69
556.99	42520.51
557.16	42628.18
557.32	43026.07
557.49	42775.63
557.65	42284.12
557.82	42855.21
557.98	42747.54
558.15	42902.02
558.32	43175.86
558.48	42981.60
558.65	43107.99
558.81	42717.12
558.98	43070.54
559.14	42913.72
559.31	42691.37
559.47	43299.91
559.64	43089.26
559.80	43269.48
559.97	43189.91
560.13	42756.91
560.30	43281.19
560.46	43335.02
560.63	42930.11
560.79	42965.21
560.96	43299.91
561.12	43208.63
561.29	43473.11
561.45	43012.02
561.61	43356.08
561.78	43122.03
561.94	43196.93
562.11	43695.46
562.27	43285.87
562.44	43304.59
562.60	43330.34
562.77	43646.31
562.93	43445.02
563.10	43461.41
563.26	43246.08
563.42	43267.14
563.59	43180.54
563.75	43419.28
563.92	43009.68
564.08	43676.74
564.24	43356.08
564.41	43330.34
564.57	43641.63
564.74	43997.39
564.90	43723.55
565.07	43452.05
565.23	43264.80
565.39	43676.74
565.56	43739.93
565.72	43384.17
565.88	43779.72
566.05	43702.48
566.21	43711.84
566.38	43688.44
566.54	43964.62
566.70	44102.71
566.87	44318.04
567.03	43538.65
567.19	44025.48
567.36	43896.75
567.52	43400.55
567.68	43723.55
567.85	44212.72
568.01	43952.92
568.17	43269.48
568.34	43772.70
568.50	43627.59
568.66	43653.33
568.83	43910.79
568.99	43531.62
569.15	43892.07
569.32	43580.78
569.48	43672.06
569.64	44034.84
569.81	43995.05
569.97	43475.45
570.13	43988.03
570.30	43571.41
570.46	43718.87
570.62	43772.70
570.78	43594.82
570.95	43459.07
571.11	44399.96
571.27	43360.76
571.43	44051.22
571.60	44112.08
571.76	43629.93
571.92	44158.89
572.09	43707.16
572.25	44062.93
572.41	44191.65
572.57	44229.10
572.74	44626.99
572.90	44332.09
573.06	44128.46
573.22	44336.77
573.38	44154.21
573.55	44016.11
573.71	44205.70
573.87	43786.74
574.03	43641.63
574.20	44318.04
574.36	44186.97
574.52	44069.95
574.68	44533.37
574.84	44144.84
575.01	44170.59
575.17	44414.01
575.33	43990.37
575.49	43566.73
575.65	44168.25
575.82	44488.90
575.98	44713.59
576.14	44233.78
576.30	44130.80
576.46	44203.36
576.62	44336.77
576.79	43803.13
576.95	43990.37
577.11	44055.90
577.27	44259.53
577.43	44643.38
577.59	44191.65
577.75	44121.44
577.92	43831.21
578.08	43995.05
578.24	43943.56
578.40	44374.22
578.56	44271.23
578.72	44189.31
578.88	44453.79
579.04	44116.76
579.21	44041.86
579.37	43878.02
579.53	44367.20
579.69	44025.48
579.85	44109.74
580.01	44030.16
580.17	43885.04
580.33	44938.29
580.49	44416.35
580.65	44362.51
580.82	44339.11
580.98	44615.29
581.14	44271.23
581.30	44388.26
581.46	44381.24
581.62	44772.11
581.78	44210.38
581.94	44563.80
582.10	44369.54
582.26	44299.32
582.42	44786.15
582.58	43828.87
582.74	44706.57
582.90	44306.34
583.06	43901.43
583.22	44762.75
583.38	44692.53
583.54	44542.74
583.70	44582.52
583.86	44184.63
584.02	44287.62
584.18	44491.24
584.34	44570.82
584.50	44472.52
584.66	44423.37
584.82	44383.58
584.98	44252.51
585.14	44505.29
585.30	44479.54
585.46	44428.05
585.62	44170.59
585.78	44184.63
585.94	44189.31
586.10	44383.58
586.26	44217.40
586.42	44542.74
586.58	44493.58
586.74	44245.49
586.90	44470.18
587.06	44615.29
587.22	44746.36
587.38	44521.67
587.54	44758.06
587.70	44552.10
587.86	44694.87
588.02	44074.63
588.18	44191.65
588.34	44694.87
588.49	44198.68
588.65	44194.00
588.81	44406.98
588.97	44404.64
589.13	43793.76
589.29	44308.68
589.45	44629.34
589.61	44598.91
589.77	44671.46
589.93	44453.79
590.08	44879.77
590.24	44776.79
590.40	44715.93
590.56	44442.09
590.72	44409.32
590.88	44727.64
591.04	44690.19
591.20	44957.01
591.35	45134.89
591.51	44800.19
591.67	44722.96
591.83	44729.98
591.99	44231.44
592.15	44465.50
592.31	44786.15
592.46	44697.21
592.62	44854.03
592.78	44884.45
592.94	44650.40
593.10	44945.31
593.26	44739.34
593.41	44825.94
593.57	44690.19
593.73	44402.30
593.89	44493.58
594.05	44676.15
594.20	44617.63
594.36	44980.42
594.52	44329.75
594.68	44802.53
594.84	45043.61
594.99	44952.33
595.15	44807.22
595.31	44996.80
595.47	44671.46
595.62	45052.97
595.78	44549.76
595.94	44882.11
596.10	44900.84
596.25	45469.59
596.41	45038.93
596.57	44638.70
596.73	45125.53
596.88	44729.98
597.04	44758.06
597.20	44980.42
597.36	44615.29
597.51	44994.46
597.67	44940.63
597.83	45003.82
597.99	45088.08
598.14	44559.12
598.30	45034.25
598.46	44584.86
598.61	45085.74
598.77	44856.37
598.93	44650.40
599.09	44725.30
599.24	45432.14
599.40	45270.64
599.56	45481.29
599.71	44898.50
599.87	45008.50
600.03	44797.85
600.18	44919.56
600.34	44814.24
600.50	44641.04
600.65	44617.63
600.81	45055.31
600.97	45062.33
601.12	45303.41
601.28	45111.49
601.44	44849.35
601.59	44568.48
601.75	44898.50
601.91	44835.30
602.06	44568.48
602.22	44776.79
602.37	45333.84
602.53	44732.32
602.69	45235.53
602.84	44722.96
603.00	45071.70
603.16	45127.87
603.31	44631.68
603.47	44624.65
603.62	44701.89
603.78	44942.97
603.94	44671.46
604.09	45067.02
604.25	44896.16
604.40	45027.23
604.56	44713.59
604.71	45085.74
604.87	44788.49
605.03	44835.30
605.18	44882.11
605.34	44538.05
605.49	44767.43
605.65	44818.92
605.80	44673.81
605.96	45453.20
606.12	44767.43
606.27	45120.85
606.43	44135.48
606.58	44821.26
606.74	44570.82
606.89	44467.84
607.05	45041.27
607.20	44432.73
607.36	45315.11
607.51	44694.87
607.67	44425.71
607.82	44692.53
607.98	44133.14
608.13	44561.46
608.29	44432.73
608.44	44093.35
608.60	44083.99
608.75	44289.96
608.91	44350.81
609.06	44458.48
609.22	44645.72
609.37	43990.37
609.53	44535.71
609.68	44788.49
609.84	44327.41
609.99	44240.81
610.15	44367.20
610.30	43910.79
610.46	43913.13
610.61	44540.39
610.76	44598.91
610.92	44322.72
611.07	44481.88
611.23	43934.20
611.38	44203.36
611.54	44273.57
611.69	44034.84
611.84	44308.68
612.00	44350.81
612.15	44151.87
612.31	44308.68
612.46	44069.95
612.62	44266.55
612.77	44179.95
612.92	44414.01
613.08	43892.07
613.23	43927.17
613.39	44020.80
613.54	43945.90
613.69	43988.03
613.85	43948.24
614.00	43761.00
614.15	44091.01
614.31	43824.19
614.46	44194.00
614.62	44067.61
614.77	43899.09
614.92	43648.65
615.08	44100.37
615.23	44055.90
615.38	43835.89
615.54	43983.35
615.69	43896.75
615.84	43470.77
616.00	43606.52
616.15	43728.23
616.30	43714.19
616.46	43613.54
616.61	43529.28
616.76	43800.79
616.92	43337.36
617.07	43330.34
617.22	43370.13
617.37	43730.57
617.53	43477.79
617.68	43578.43
617.83	43746.95
617.99	43384.17
618.14	43248.42
618.29	43379.49
618.45	43344.38
618.60	43306.93
618.75	43126.71
618.90	43608.86
619.06	43255.44
619.21	43702.48
619.36	43487.15
619.51	43498.86
619.67	43215.65
619.82	43278.85
619.97	43538.65
620.12	43115.01
620.28	42930.11
620.43	42909.04
620.58	43377.15
620.73	43157.14
620.89	42799.04
621.04	43026.07
621.19	42796.70
621.34	43054.15
621.49	42742.86
621.65	42834.14
621.80	42724.14
621.95	42948.83
622.10	43112.67
622.25	42457.32
622.41	42810.74
622.56	42806.06
622.71	43196.93
622.86	42911.38
623.01	42466.68
623.16	42740.52
623.32	42754.57
623.47	42927.77
623.62	42609.45
623.77	42897.34
623.92	42426.89
624.07	42349.65
624.23	42401.14
624.38	42784.99
624.53	42199.86
624.68	42621.16
624.83	42677.33
624.98	42391.78
625.13	42108.58
625.29	42581.37
625.44	42454.98
625.59	42326.25
625.74	42323.91
625.89	41888.57
626.04	42223.26
626.19	42581.37
626.34	42014.96
626.49	41631.11
626.65	41951.76
626.80	41970.49
626.95	42026.66
627.10	41670.90
627.25	41984.53
627.40	41689.62
627.55	41460.25
627.70	41631.11
627.85	41830.05
628.00	41759.84
628.15	42122.62
628.30	41890.91
628.45	42106.24
628.60	41539.83
628.76	41947.08
628.91	41830.05
629.06	41556.21
629.21	41478.97
629.36	41495.36
629.51	41244.92
629.66	41251.94
629.81	40884.48
629.96	41443.87
630.11	41546.85
630.26	41677.92
630.41	41542.17
630.56	41359.61
630.71	41361.95
630.86	41476.63
631.01	41177.04
631.16	41228.54
631.31	41006.19
631.46	40854.05
631.61	40842.35
631.76	41008.53
631.91	41338.54
632.06	41184.07
632.21	41265.99
632.36	40954.69
632.51	40823.62
632.66	41001.50
632.81	40622.34
632.96	40832.99
633.10	40559.14
633.25	40694.89
633.40	41017.89
633.55	40769.79
633.70	40776.81
633.85	40973.42
634.00	40636.38
634.15	40931.29
634.30	40601.27
634.45	40788.52
634.60	40945.33
634.75	40683.19
634.90	40545.10
635.05	40556.80
635.19	40713.62
635.34	40882.14
635.49	40458.50
635.64	40442.12
635.79	40044.23
635.94	40095.72
636.09	40299.34
636.24	40004.44
636.39	39807.83
636.53	40219.77
636.68	40037.20
636.83	39962.31
636.98	40514.67
637.13	40114.44
637.28	40577.87
637.43	40322.75
637.57	40409.35
637.72	40322.75
637.87	40479.57
638.02	40137.85
638.17	40072.31
638.32	40271.26
638.46	39704.85
638.61	40306.37
638.76	39768.04
638.91	39768.04
639.06	39756.34
639.20	40072.31
639.35	40030.18
639.50	39784.43
639.65	40301.68
639.80	39859.32
639.94	39924.86
640.09	39543.35
640.24	39632.29
640.39	39632.29
640.54	39629.95
640.68	39732.93
640.83	39674.42
640.98	39421.64
641.13	39463.77
641.27	39796.13
641.42	39433.35
641.57	39566.76
641.72	39545.69
641.86	39021.41
642.01	39225.04
642.16	38873.96
642.31	39203.97
642.45	39704.85
642.60	38747.57
642.75	39210.99
642.90	39604.20
643.04	39360.79
643.19	38808.42
643.34	39606.55
643.48	39683.78
643.63	39372.49
643.78	39208.65
643.93	38611.82
644.07	38892.68
644.22	38761.61
644.37	38932.47
644.51	39072.90
644.66	38948.85
644.81	39227.38
644.95	38855.23
645.10	39026.09
645.25	38822.47
645.39	39379.51
645.54	38939.49
645.69	38597.77
645.83	38721.82
645.98	38820.13
646.13	38909.07
646.27	38770.97
646.42	38408.19
646.57	38649.27
646.71	38796.72
646.86	38583.73
647.00	38792.04
647.15	38621.18
647.30	38939.49
647.44	38436.28
647.59	38295.85
647.74	38422.23
647.88	38218.61
648.03	38457.34
648.17	38684.37
648.32	38216.27
648.47	38066.47
648.61	38349.68
648.76	38462.02
648.90	38508.83
649.05	38618.84
649.20	38522.88
649.34	38433.94
649.49	37844.12
649.63	38288.82
649.78	38525.22
649.92	37935.40
650.07	38565.01
650.21	37954.13
650.36	38014.98
650.51	38038.39
650.65	38712.46
650.80	38457.34
650.94	38260.74
651.09	37919.02
651.23	37523.47
651.38	38211.59
651.52	37675.60
651.67	38258.40
651.81	37883.91
651.96	37783.27
652.10	37607.73
652.25	37640.50
652.39	37876.89
652.54	37769.22
652.68	37785.61
652.83	37757.52
652.97	37586.66
653.12	37577.30
653.26	37413.46
653.41	37366.65
653.55	37085.79
653.70	37266.01
653.84	37734.12
653.99	37677.94
654.13	37633.47
654.27	37928.38
654.42	37720.07
654.56	37450.91
654.71	37331.54
654.85	37584.32
655.00	37542.19
655.14	37474.32
655.29	36968.76
655.43	36905.57
655.57	36966.42
655.72	36840.03
655.86	37095.15
656.01	36992.17
656.15	36900.89
656.30	36655.13
656.44	36968.76
656.58	37102.17
656.73	36638.75
656.87	37015.57
657.01	36584.91
657.16	36613.00
657.30	36371.92
657.45	36357.88
657.59	36549.81
657.73	36641.09
657.88	36720.66
658.02	36629.38
658.16	36306.39
658.31	37102.17
658.45	36704.28
658.60	36692.58
658.74	36605.98
658.88	36893.86
659.03	36229.15
659.17	36392.99
659.31	36201.07
659.46	36308.73
659.60	36046.59
659.74	36123.83
659.89	36201.07
660.03	35901.48
660.17	36229.15
660.32	36016.16
660.46	35974.03
660.60	36011.48
660.74	36364.90
660.89	35899.14
661.03	35662.74
661.17	35772.75
661.32	35627.63
661.46	35529.33
661.60	35627.63
661.74	35498.91
661.89	35461.46
662.03	35903.82
662.17	34946.54
662.31	35667.42
662.46	35178.25
662.60	35229.74
662.74	35519.97
662.88	35213.36
663.03	35428.69
663.17	35227.40
663.31	35194.64
663.45	35220.38
663.60	35093.99
663.74	34543.97
663.88	35033.14
664.02	34536.94
664.17	34712.49
664.31	34492.47
664.45	34775.68
664.59	35065.91
664.73	34562.69
664.88	34789.72
665.02	34129.69
665.16	34700.78
665.30	34359.06
665.44	34595.46
665.59	34066.50
665.73	34110.97
665.87	33933.09
666.01	34220.97
666.15	33963.51
666.29	34012.66
666.44	34440.98
666.58	34223.31
666.72	34129.69
666.86	34323.96
667.00	33713.08
667.14	33582.01
667.28	33509.45
667.43	33855.85
667.57	33603.07
667.71	33558.60
667.85	34043.09
667.99	33509.45
668.13	32903.25
668.27	32975.81
668.41	33181.77
668.56	32907.93
668.70	33149.01
668.84	33200.50
668.98	33242.63
669.12	32999.21
669.26	33046.02
669.40	33034.32
669.54	32568.55
669.68	33034.32
669.82	32755.80
669.96	32760.48
670.10	32322.80
670.25	32769.84
670.39	32987.51
670.53	32397.70
670.67	32273.65
670.81	33083.47
670.95	32851.76
671.09	32484.30
671.23	32484.30
671.37	32617.71
671.51	32510.04
671.65	32144.92
671.79	31571.49
671.93	31625.32
672.07	31901.50
672.21	31761.07
672.35	31573.83
672.49	31550.42
672.63	31814.90
672.77	31889.80
672.91	31686.17
673.05	31632.34
673.19	31475.52
673.33	31545.74
673.47	31192.32
673.61	31494.25
673.75	31122.10
673.89	30827.20
674.03	30532.29
674.17	30831.88
674.31	30976.99
674.45	30862.30
674.59	31164.23
674.73	31084.65
674.87	30969.97
675.01	30518.25
675.15	30635.27
675.29	30380.15
675.43	30415.26
675.56	30483.14
675.70	30295.89
675.84	29883.96
675.98	28896.25
676.12	30125.04
676.26	29605.44
676.40	29535.22
676.54	29500.11
676.68	29469.69
676.82	29287.12
676.96	29654.59
677.10	28744.12
677.23	29298.83
677.37	29034.35
677.51	29060.09
677.65	29085.84
677.79	29062.43
677.93	28900.94
678.07	28786.25
678.21	28411.76
678.34	28290.06
678.48	28336.87
678.62	28472.62
678.76	28371.97
678.90	28247.93
679.04	28435.17
679.18	28327.50
679.31	27920.25
679.45	27543.42
679.59	27487.25
679.73	27917.91
679.87	27681.52
680.00	27646.41
680.14	27648.75
680.28	27391.29
680.42	27424.06
680.56	27367.88
680.70	27213.41
680.83	27075.32
680.97	26852.97
681.11	26918.50
681.25	26838.92
681.39	26787.43
681.52	26834.24
681.66	26637.64
681.80	26483.16
681.94	26558.06
682.07	26473.80
682.21	26281.88
682.35	26019.74
682.49	26101.65
682.62	26469.12
682.76	25895.69
682.90	25678.02
683.04	25891.01
683.17	25907.39
683.31	25619.50
683.45	25703.76
683.59	25647.59
683.72	25542.27
683.86	25596.10
684.00	25153.74
684.13	25151.40
684.27	24999.26
684.41	25135.01
684.55	24718.40
684.68	24938.41
684.82	24318.17
684.96	24690.31
685.09	24507.75
685.23	24269.01
685.37	24067.73
685.50	24432.85
685.64	24123.90
685.78	23901.55
685.91	24528.81
686.05	24201.14
686.19	23721.33
686.32	24341.57
686.46	23899.21
686.60	23096.41
686.73	23651.11
686.87	22948.95
687.01	23112.79
687.14	23248.54
687.28	23260.24
687.42	23035.55
687.55	23133.86
687.69	22855.33
687.82	22892.78
687.96	23028.53
688.10	22572.13
688.23	22436.38
688.37	22370.84
688.50	22373.18
688.64	22207.00
688.78	22225.73
688.91	22115.72
689.05	22005.72
689.18	21994.01
689.32	21570.38
689.46	22015.08
689.59	21811.45
689.73	21795.07
689.86	21322.28
690.00	21802.09
690.13	21762.30
690.27	21504.84
690.41	21385.47
690.54	21240.36
690.68	21436.97
690.81	21193.55
690.95	20802.68
691.08	21003.97
691.22	20915.03
691.35	20776.94
691.49	20723.10
691.62	20709.06
691.76	20809.70
691.89	20875.24
692.03	20587.35
692.16	20154.35
692.30	20030.30
692.43	20350.96
692.57	20102.86
692.70	20091.16
692.84	20170.74
692.97	20081.80
693.11	19585.60
693.24	19700.29
693.38	19601.99
693.51	19286.01
693.65	19583.26
693.78	19503.68
693.92	19421.77
694.05	19344.53
694.19	19178.35
694.32	18913.87
694.45	19028.56
694.59	19037.92
694.72	18794.50
694.86	18853.02
694.99	18403.63
695.13	18459.81
695.26	18462.15
695.39	18211.71
695.53	18459.81
695.66	18569.81
695.80	18242.14
695.93	18370.86
696.07	18022.12
696.20	18026.81
696.33	18026.81
696.47	18188.30
696.60	18017.44
696.73	17926.16
696.87	17839.56
697.00	17654.66
697.14	17694.45
697.27	17385.50
697.40	17554.02
697.54	17404.22
697.67	17261.45
697.80	17397.20
697.94	17326.99
698.07	17121.02
698.21	17050.80
698.34	17076.55
698.47	16683.34
698.61	16348.64
698.74	16491.41
698.87	16610.78
699.01	16430.56
699.14	16341.62
699.27	16205.87
699.40	16374.39
699.54	16084.16
699.67	16070.12
699.80	16170.76
699.94	16245.66
700.07	16084.16
700.20	15999.90
700.34	15697.97
700.47	15754.15
700.60	15700.31
700.73	15859.47
700.87	15623.08
701.00	15398.38
701.13	15632.44
701.26	15337.53
701.40	15232.21
701.53	15325.83
701.66	15272.00
701.79	14927.94
701.93	15070.71
702.06	15206.46
702.19	14824.95
702.32	14707.93
702.46	14686.86
702.59	14633.03
702.72	14757.08
702.85	14626.01
702.99	14705.59
703.12	14644.73
703.25	14480.89
703.38	14689.20
703.51	14408.34
703.65	14384.93
703.78	14356.85
703.91	14097.05
704.04	13980.02
704.17	14029.17
704.31	13710.86
704.44	13781.07
704.57	13514.25
704.70	13437.02
704.83	13493.19
704.96	13673.41
705.10	13748.31
705.23	13565.74
>>>>>End Processed Spectral Data<<<<<
