SpectraSuite Data File
++++++++++++++++++++++++++++++++++++
Date: Fri Oct 25 10:44:03 EDT 2013
User: price-jones
Dark Spectrum Present: No
Reference Spectrum Present: No
Number of Sampled Component Spectra: 1
Spectrometers: USB2+H05261
Integration Time (usec): 100000 (USB2+H05261)
Spectra Averaged: 1 (USB2+H05261)
Boxcar Smoothing: 0 (USB2+H05261)
Correct for Electrical Dark: No (USB2+H05261)
Strobe/Lamp Enabled: No (USB2+H05261)
Correct for Detector Non-linearity: No (USB2+H05261)
Correct for Stray Light: No (USB2+H05261)
Number of Pixels in Processed Spectrum: 2048
>>>>>Begin Processed Spectral Data<<<<<
365.73	126.39
365.92	126.39
366.12	126.39
366.32	42.13
366.52	0.00
366.72	44.47
366.91	44.47
367.11	72.56
367.31	37.45
367.51	65.54
367.70	0.00
367.90	37.45
368.10	30.43
368.30	21.06
368.49	46.81
368.69	51.49
368.89	35.11
369.09	88.94
369.28	84.26
369.48	138.09
369.68	98.30
369.87	16.38
370.07	32.77
370.27	44.47
370.47	212.99
370.66	440.02
370.86	454.06
371.06	447.04
371.25	423.64
371.45	451.72
371.65	472.79
371.84	503.22
372.04	512.58
372.24	517.26
372.44	463.43
372.63	526.62
372.83	526.62
373.03	512.58
373.22	500.87
373.42	543.00
373.62	533.64
373.81	587.47
374.01	620.24
374.21	592.16
374.40	550.03
374.60	601.52
374.79	578.11
374.99	578.11
375.19	575.77
375.38	662.37
375.58	573.43
375.78	690.46
375.97	655.35
376.17	718.54
376.37	695.14
376.56	601.52
376.76	627.26
376.95	636.63
377.15	594.50
377.35	671.73
377.54	620.24
377.74	683.44
377.93	613.22
378.13	692.80
378.33	732.59
378.52	606.20
378.72	709.18
378.91	737.27
379.11	650.67
379.31	681.10
379.50	615.56
379.70	695.14
379.89	758.33
380.09	763.01
380.28	709.18
380.48	763.01
380.68	704.50
380.87	765.36
381.07	737.27
381.26	730.25
381.46	788.76
381.65	681.10
381.85	723.23
382.04	699.82
382.24	678.76
382.43	753.65
382.63	716.20
382.83	795.78
383.02	751.31
383.22	746.63
383.41	723.23
383.61	772.38
383.80	748.97
384.00	777.06
384.19	751.31
384.39	814.51
384.58	798.12
384.78	833.23
384.97	884.72
385.17	800.46
385.36	746.63
385.56	830.89
385.75	835.57
385.95	793.44
386.14	891.74
386.34	870.68
386.53	784.08
386.72	856.64
386.92	894.08
387.11	933.87
387.31	943.24
387.50	908.13
387.70	961.96
387.89	877.70
388.09	1022.81
388.28	924.51
388.48	954.94
388.67	936.21
388.86	964.30
389.06	971.32
389.25	997.07
389.45	1097.71
389.64	1022.81
389.84	1081.33
390.03	1118.78
390.22	1137.50
390.42	1013.45
390.61	1020.47
390.81	1050.90
391.00	1100.05
391.19	1128.14
391.39	1090.69
391.58	1116.44
391.78	1064.94
391.97	1081.33
392.16	1015.79
392.36	1060.26
392.55	990.05
392.75	1018.13
392.94	976.00
393.13	976.00
393.33	1015.79
393.52	1100.05
393.71	1207.72
393.91	1149.20
394.10	1160.91
394.29	1088.35
394.49	1245.16
394.68	1247.51
394.88	1268.57
395.07	1371.55
395.26	1303.68
395.46	1228.78
395.65	1350.49
395.84	1254.53
396.04	1404.32
396.23	1270.91
396.42	1252.19
396.62	1212.40
396.81	1245.16
397.00	1252.19
397.19	1338.79
397.39	1348.15
397.58	1462.83
397.77	1366.87
397.97	1488.58
398.16	1458.15
398.35	1528.37
398.55	1406.66
398.74	1519.01
398.93	1568.16
399.12	1486.24
399.32	1521.35
399.51	1537.73
399.70	1675.82
399.90	1715.61
400.09	1661.78
400.28	1720.29
400.47	1685.19
400.67	1757.74
400.86	1748.38
401.05	1774.13
401.24	1795.19
401.44	1785.83
401.63	1837.32
401.82	1853.70
402.01	1699.23
402.21	1916.90
402.40	1809.23
402.59	1732.00
402.78	1809.23
402.97	1851.36
403.17	1984.77
403.36	1930.94
403.55	1905.20
403.74	2019.88
403.93	2047.97
404.13	2069.03
404.32	1944.99
404.51	1923.92
404.70	1973.07
404.89	2033.93
405.09	2148.61
405.28	2054.99
405.47	2017.54
405.66	2017.54
405.85	2132.23
406.05	2118.18
406.24	2246.91
406.43	2139.25
406.62	2172.02
406.81	2293.72
407.00	2108.82
407.20	2195.42
407.39	2200.10
407.58	2279.68
407.77	2289.04
407.96	2289.04
408.15	2289.04
408.34	2265.64
408.54	2443.52
408.73	2328.83
408.92	2448.20
409.11	2434.16
409.30	2431.82
409.49	2370.96
409.68	2417.77
409.87	2476.29
410.07	2502.03
410.26	2420.11
410.45	2466.92
410.64	2534.80
410.83	2693.96
411.02	2567.57
411.21	2621.40
411.40	2651.83
411.59	2726.72
411.78	2640.12
411.98	2654.17
412.17	2815.66
412.36	2860.13
412.55	2902.26
412.74	2869.50
412.93	2722.04
413.12	2836.73
413.31	2965.46
413.50	2939.71
413.69	3150.36
413.88	3115.25
414.07	3098.87
414.26	3243.98
414.45	3073.12
414.64	3122.27
414.83	3164.40
415.02	3110.57
415.22	3290.79
415.41	3339.94
415.60	3243.98
415.79	3368.03
415.98	3424.20
416.17	3332.92
416.36	3314.20
416.55	3358.67
416.74	3265.05
416.93	3407.82
417.12	3323.56
417.31	3414.84
417.50	3330.58
417.69	3597.40
417.88	3676.98
418.07	3609.11
418.26	3492.08
418.45	3669.96
418.64	3623.15
418.83	3850.18
419.02	3852.52
419.21	3749.54
419.39	3805.71
419.58	3623.15
419.77	3812.73
419.96	3899.33
420.15	3754.22
420.34	3871.25
420.53	3974.23
420.72	4056.15
420.91	3904.01
421.10	4140.41
421.29	4007.00
421.48	4004.66
421.67	3983.59
421.86	3887.63
422.05	3953.16
422.24	3948.48
422.43	3988.27
422.61	3999.98
422.80	4208.28
422.99	4077.21
423.18	4138.07
423.37	4203.60
423.56	4133.39
423.75	4049.13
423.94	3962.53
424.13	3871.25
424.32	3957.85
424.50	4184.88
424.69	4212.96
424.88	4187.22
425.07	4102.96
425.26	4175.52
425.45	4114.66
425.64	4109.98
425.83	4177.86
426.01	4248.07
426.20	4093.60
426.39	4191.90
426.58	4119.34
426.77	4105.30
426.96	4107.64
427.15	4227.01
427.33	4269.14
427.52	4145.09
427.71	4297.22
427.90	4477.44
428.09	4381.48
428.28	4231.69
428.46	4344.03
428.65	4269.14
428.84	4575.75
429.03	4322.97
429.22	4187.22
429.40	4287.86
429.59	4341.69
429.78	4177.86
429.97	4131.05
430.16	4119.34
430.34	4393.19
430.53	4215.30
430.72	4348.72
430.91	4294.88
431.10	4545.32
431.28	4667.03
431.47	4762.99
431.66	4835.55
431.85	4741.93
432.03	4793.42
432.22	4802.78
432.41	4947.89
432.60	4978.32
432.79	4823.84
432.97	4919.81
433.16	4985.34
433.35	4720.86
433.54	4889.38
433.72	4947.89
433.91	4908.10
434.10	4992.36
434.28	4891.72
434.47	5074.28
434.66	5289.61
434.85	5146.84
435.03	5116.41
435.22	5200.67
435.41	5334.08
435.59	5313.02
435.78	5336.42
435.97	5401.96
436.16	5294.29
436.34	5448.77
436.53	5547.07
436.72	5399.62
436.90	5210.03
437.09	5523.66
437.28	5416.00
437.46	5345.78
437.65	5502.60
437.84	5380.89
438.02	5219.39
438.21	5270.89
438.40	5270.89
438.58	5392.59
438.77	5603.24
438.96	5636.01
439.14	5949.64
439.33	5741.33
439.52	5905.17
439.70	5870.06
439.89	5933.26
440.08	5982.41
440.26	5916.87
440.45	5975.39
440.63	6092.41
440.82	6377.96
441.01	6267.95
441.19	6317.11
441.38	6396.68
441.57	6441.15
441.75	6352.21
441.94	6424.77
442.12	6558.18
442.31	6504.35
442.50	6813.30
442.68	6637.76
442.87	6663.51
443.05	6614.35
443.24	6698.61
443.43	6717.34
443.61	6906.92
443.80	6909.26
443.98	6670.53
444.17	6541.80
444.35	6853.09
444.54	6927.99
444.73	6750.10
444.91	6614.35
445.10	6789.89
445.28	6743.08
445.47	6696.27
445.65	6691.59
445.84	6850.75
446.02	6803.94
446.21	6820.32
446.39	6731.38
446.58	7037.99
446.77	7042.67
446.95	6881.18
447.14	6967.77
447.32	6960.75
447.51	6944.37
447.69	6932.67
447.88	7035.65
448.06	7112.89
448.25	7108.21
448.43	6937.35
448.62	7173.74
448.80	7140.97
448.99	6911.60
449.17	7162.04
449.36	7152.68
449.54	7159.70
449.73	7393.75
449.91	7377.37
450.10	7384.39
450.28	7709.72
450.46	7466.31
450.65	7342.26
450.83	7419.50
451.02	7538.87
451.20	7620.78
451.39	7552.91
451.57	7531.84
451.76	7524.82
451.94	7667.60
452.13	7573.97
452.31	7520.14
452.49	7398.43
452.68	7438.22
452.86	7524.82
453.05	7641.85
453.23	7679.30
453.42	7566.95
453.60	7613.76
453.78	7915.69
453.97	7730.79
454.15	7758.88
454.34	7632.49
454.52	7791.64
454.70	7934.42
454.89	7960.16
455.07	7936.76
455.26	8070.17
455.44	8224.64
455.62	8182.51
455.81	8086.55
455.99	8444.65
456.17	8367.42
456.36	8308.90
456.54	8243.37
456.73	8393.16
456.91	8468.06
457.09	8571.04
457.28	8449.33
457.46	8446.99
457.64	8456.36
457.83	8465.72
458.01	8315.92
458.19	8592.11
458.38	8486.78
458.56	8767.65
458.74	8475.08
458.93	8589.77
459.11	8573.38
459.29	8304.22
459.48	8704.45
459.66	8578.06
459.84	8830.84
460.03	8863.61
460.21	8762.97
460.39	8854.25
460.57	8863.61
460.76	8999.36
460.94	9057.87
461.12	8779.35
461.31	8936.17
461.49	9116.39
461.67	9018.08
461.85	9327.03
462.04	9221.71
462.22	9659.39
462.40	9184.26
462.59	9657.05
462.77	9231.07
462.95	9392.57
463.13	9261.50
463.32	9453.42
463.50	9378.53
463.68	9465.13
463.86	9497.89
464.05	9350.44
464.23	9423.00
464.41	9518.96
464.59	9364.48
464.78	9619.60
464.96	9320.01
465.14	9439.38
465.32	9762.37
465.50	9701.52
465.69	9633.64
465.87	9575.13
466.05	9511.94
466.23	9500.23
466.41	9638.33
466.60	9748.33
466.78	9748.33
466.96	9713.22
467.14	9469.81
467.32	9689.82
467.51	10085.37
467.69	9589.17
467.87	9944.94
468.05	9987.07
468.23	9848.97
468.41	10160.27
468.60	9891.10
468.78	9858.34
468.96	9895.78
469.14	10148.56
469.32	10132.18
469.50	9858.34
469.69	10249.21
469.87	10045.58
470.05	10207.08
470.23	10333.47
470.41	10380.28
470.59	10328.78
470.77	10373.25
470.95	10417.72
471.14	10626.03
471.32	10211.76
471.50	10670.50
471.68	10930.30
471.86	10792.21
472.04	10885.83
472.22	10839.02
472.40	10717.31
472.58	10743.06
472.77	10773.49
472.95	11012.22
473.13	11365.64
473.31	11087.12
473.49	11019.24
473.67	10979.45
473.85	11124.57
474.03	11126.91
474.21	11332.87
474.39	11625.44
474.57	11475.65
474.75	11878.22
474.93	11838.43
475.12	11595.01
475.30	11768.21
475.48	11536.50
475.66	11777.58
475.84	11632.46
476.02	12102.91
476.20	11864.18
476.38	12020.99
476.56	12196.53
476.74	12346.33
476.92	12334.62
477.10	12285.47
477.28	12624.85
477.46	12795.71
477.64	12844.86
477.82	12870.61
478.00	13020.40
478.18	13111.68
478.36	13064.87
478.54	13214.66
478.72	13240.41
478.90	13390.20
479.08	13563.40
479.26	13565.74
479.44	13614.90
479.62	13837.25
479.80	13682.77
479.98	14012.79
480.16	14139.18
480.34	14012.79
480.52	14263.22
480.70	14197.69
480.88	14066.62
481.06	14511.32
481.24	14466.85
481.41	14956.02
481.59	15241.57
481.77	14977.09
481.95	15185.40
482.13	15201.78
482.31	15150.29
482.49	15541.16
482.67	15468.60
482.85	15765.85
483.03	15981.18
483.21	15840.75
483.39	15946.07
483.57	15896.92
483.74	16365.03
483.92	16093.52
484.10	16259.70
484.28	16641.21
484.46	16905.69
484.64	17467.42
484.82	16554.61
485.00	16987.61
485.18	17053.14
485.35	17191.23
485.53	16905.69
485.71	16549.93
485.89	17235.70
486.07	17057.82
486.25	17275.49
486.43	17514.23
486.61	17944.89
486.78	17923.82
486.96	18141.49
487.14	18576.83
487.32	18513.64
487.50	18838.97
487.68	18944.30
487.85	19227.50
488.03	19309.42
488.21	19421.77
488.39	19098.77
488.57	19435.81
488.75	19396.02
488.92	19723.69
489.10	20112.22
489.28	20140.31
489.46	20435.22
489.64	20643.52
489.81	20886.94
489.99	20849.49
490.17	20973.54
490.35	21095.25
490.53	20737.15
490.70	21097.59
490.88	21221.64
491.06	21673.36
491.24	21322.28
491.41	21661.66
491.59	21738.90
491.77	21537.61
491.95	22143.81
492.13	22279.56
492.30	22665.75
492.48	22883.42
492.66	22452.76
492.84	22778.09
493.01	22979.38
493.19	22852.99
493.37	23227.48
493.54	23255.56
493.72	23498.98
493.90	23599.62
494.08	23915.59
494.25	24126.24
494.43	23971.77
494.61	24439.87
494.79	24229.23
494.96	24479.66
495.14	24474.98
495.32	24896.28
495.49	24608.39
495.67	24741.80
495.85	25015.65
496.02	25221.61
496.20	25200.55
496.38	25486.09
496.55	25507.16
496.73	25785.68
496.91	25738.87
497.09	26038.46
497.26	26003.35
497.44	25928.45
497.62	25872.28
497.79	26567.42
497.97	26040.80
498.14	26204.64
498.32	26324.01
498.50	26480.82
498.67	26757.00
498.85	26916.16
499.03	27234.47
499.20	27241.50
499.38	27225.11
499.56	27861.74
499.73	27543.42
499.91	27676.83
500.08	27653.43
500.26	27578.53
500.44	27775.14
500.61	27812.59
500.79	27700.24
500.97	27934.29
501.14	28201.11
501.32	28243.24
501.49	27967.06
501.67	28231.54
501.84	28353.25
502.02	28367.29
502.20	28563.90
502.37	28961.79
502.55	28641.14
502.72	29060.09
502.90	29280.10
503.07	29142.01
503.25	29113.92
503.43	29277.76
503.60	29039.03
503.78	28994.56
503.95	28978.17
504.13	29631.18
504.30	29633.52
504.48	29607.78
504.65	30321.64
504.83	30342.70
505.01	30139.08
505.18	29795.02
505.36	30518.25
505.53	30621.23
505.71	31140.83
505.88	30752.30
506.06	30410.58
506.23	30536.97
506.41	30728.89
506.58	30649.32
506.76	30796.77
506.93	31309.35
507.11	30976.99
507.28	31110.40
507.46	31021.46
507.63	31229.77
507.81	31438.08
507.98	31262.54
508.16	31222.75
508.33	31742.35
508.50	31871.07
508.68	31978.74
508.85	32252.58
509.03	32299.39
509.20	31936.61
509.38	32442.17
509.55	32252.58
509.73	32474.93
509.90	32563.87
510.08	32308.76
510.25	32575.58
510.42	32421.10
510.60	32994.53
510.77	32872.82
510.95	33024.96
511.12	33062.41
511.30	33411.15
511.47	33132.62
511.64	33830.10
511.82	33530.51
511.99	32716.01
512.17	33467.32
512.34	32631.75
512.51	33717.76
512.69	34036.07
512.86	34092.24
513.04	33879.25
513.21	33720.10
513.38	33977.56
513.56	33890.96
513.73	33806.70
513.90	33869.89
514.08	34380.13
514.25	34038.41
514.43	34110.97
514.60	34155.44
514.77	34586.10
514.95	35058.88
515.12	34600.14
515.29	34888.03
515.47	35248.47
515.64	35112.72
515.81	34799.08
515.99	35014.41
516.16	34740.57
516.33	34522.90
516.51	34972.28
516.68	33989.26
516.85	34483.11
517.03	34237.36
517.20	34724.19
517.37	35353.79
517.54	35529.33
517.72	35363.15
517.89	34717.17
518.06	35145.48
518.24	35012.07
518.41	35185.27
518.58	35782.11
518.75	35695.51
518.93	35992.76
519.10	35833.60
519.27	36009.14
519.45	35959.99
519.62	36383.63
519.79	36229.15
519.96	36573.21
520.14	36788.54
520.31	36016.16
520.48	36896.20
520.65	36690.24
520.83	36795.56
521.00	37144.30
521.17	37340.91
521.34	37471.98
521.52	37088.13
521.69	37247.29
521.86	37539.85
522.03	37605.39
522.20	37324.52
522.38	37614.75
522.55	37893.27
522.72	37500.06
522.89	37287.07
523.07	38005.62
523.24	37546.87
523.41	38557.99
523.58	37881.57
523.75	38426.92
523.92	38450.32
524.10	38398.83
524.27	38288.82
524.44	38785.02
524.61	38611.82
524.78	38536.92
524.96	38827.15
525.13	38883.32
525.30	38955.88
525.47	39002.69
525.64	38876.30
525.81	38635.22
525.98	38534.58
526.16	38312.23
526.33	38363.72
526.50	38944.17
526.67	38099.24
526.84	38689.06
527.01	38796.72
527.18	38735.87
527.36	39328.02
527.53	39482.50
527.70	39552.71
527.87	39545.69
528.04	39416.96
528.21	39697.83
528.38	39751.66
528.55	40011.46
528.72	40198.70
528.89	40563.82
529.07	39868.69
529.24	39559.73
529.41	39782.09
529.58	40236.15
529.75	40130.83
529.92	40027.84
530.09	40318.07
530.26	40533.40
530.43	40289.98
530.60	40217.43
530.77	40271.26
530.94	40432.75
531.11	40690.21
531.28	40825.96
531.46	40790.86
531.63	40776.81
531.80	40783.83
531.97	40226.79
532.14	40425.73
532.31	40737.02
532.48	40568.51
532.65	40479.57
532.82	41139.60
532.99	41071.72
533.16	40711.28
533.33	41055.34
533.50	41476.63
533.67	41539.83
533.84	41125.55
534.01	40964.06
534.18	41397.06
534.35	41951.76
534.52	41195.77
534.69	42139.00
534.86	41911.97
535.03	41509.40
535.20	42188.16
535.37	42557.96
535.54	42504.13
535.71	42143.69
535.88	41825.37
536.05	41867.50
536.22	42153.05
536.38	42068.79
536.55	41942.40
536.72	42422.21
536.89	41783.24
537.06	41675.58
537.23	42457.32
537.40	42284.12
537.57	42295.82
537.74	42799.04
537.91	42864.57
538.08	42438.59
538.25	42532.22
538.42	42225.60
538.59	42651.58
538.75	42564.98
538.92	42335.61
539.09	42398.80
539.26	42555.62
539.43	42836.48
539.60	42859.89
539.77	42852.87
539.94	42518.17
540.11	42703.07
540.28	42616.47
540.44	42525.19
540.61	43061.18
540.78	42026.66
540.95	42300.50
541.12	42653.92
541.29	42663.28
541.46	43100.97
541.62	42728.82
541.79	43180.54
541.96	42831.80
542.13	42639.88
542.30	42953.51
542.47	43526.94
542.63	43168.84
542.80	43145.44
542.97	43538.65
543.14	43983.35
543.31	43842.92
543.48	43833.55
543.64	44399.96
543.81	44172.93
543.98	43931.86
544.15	43484.81
544.32	43934.20
544.48	44589.55
544.65	44292.30
544.82	44133.14
544.99	43592.48
545.16	44212.72
545.32	43700.14
545.49	44493.58
545.66	44861.05
545.83	44301.66
546.00	44662.10
546.16	44313.36
546.33	44737.00
546.50	44154.21
546.67	44502.95
546.83	44013.77
547.00	44437.41
547.17	44687.85
547.34	44093.35
547.50	44170.59
547.67	44844.66
547.84	44247.83
548.00	44875.09
548.17	45137.23
548.34	44591.89
548.51	45284.68
548.67	44940.63
548.84	44992.12
549.01	44772.11
549.18	44919.56
549.34	45504.70
549.51	45027.23
549.68	45242.56
549.84	45226.17
550.01	45099.78
550.18	45258.94
550.34	45579.59
550.51	45483.63
550.68	45179.36
550.84	45139.57
551.01	45179.36
551.18	44954.67
551.34	45350.22
551.51	45481.29
551.68	45132.55
551.84	45762.15
552.01	45462.57
552.18	45745.77
552.34	45177.02
552.51	45303.41
552.68	45261.28
552.84	45656.83
553.01	45741.09
553.18	45523.42
553.34	45483.63
553.51	45439.16
553.67	45968.12
553.84	46293.46
554.01	45785.56
554.17	46045.36
554.34	45806.62
554.51	45752.79
554.67	45986.85
554.84	46010.25
555.00	46024.29
555.17	46169.41
555.33	45794.92
555.50	46064.08
555.67	46017.27
555.83	45879.18
556.00	45745.77
556.16	46113.23
556.33	45713.00
556.50	45815.99
556.66	46129.62
556.83	45495.33
556.99	46321.54
557.16	46082.81
557.32	46485.38
557.49	46644.54
557.65	45668.53
557.82	45965.78
557.98	46340.27
558.15	46307.50
558.32	46384.74
558.48	45757.47
558.65	46272.39
558.81	45794.92
558.98	46487.72
559.14	46071.10
559.31	45745.77
559.47	46665.60
559.64	46321.54
559.80	46094.51
559.97	46356.65
560.13	46457.29
560.30	46438.57
560.46	46389.42
560.63	46424.53
560.79	46763.90
560.96	46560.28
561.12	46216.22
561.29	46508.79
561.45	46433.89
561.61	46223.24
561.78	46251.33
561.94	46319.20
562.11	46452.61
562.27	46499.42
562.44	46396.44
562.60	46649.22
562.77	46923.06
562.93	46504.10
563.10	46923.06
563.26	46382.40
563.42	46941.78
563.59	46185.79
563.75	46726.46
563.92	47051.79
564.08	46677.30
564.24	46925.40
564.41	46412.82
564.57	46997.96
564.74	46789.65
564.90	46621.13
565.07	46557.94
565.23	46412.82
565.39	46623.47
565.56	46794.33
565.72	46277.07
565.88	46698.37
566.05	46469.00
566.21	46363.67
566.38	46653.90
566.54	46717.09
566.70	47016.68
566.87	46857.52
567.03	46740.50
567.19	47409.89
567.36	46878.59
567.52	46894.97
567.68	46897.31
567.85	46696.03
568.01	46941.78
568.17	46539.21
568.34	46806.03
568.50	46862.21
568.66	46410.48
568.83	46796.67
568.99	46770.93
569.15	46452.61
569.32	46417.50
569.48	46834.12
569.64	47016.68
569.81	47241.37
569.97	46869.23
570.13	47267.12
570.30	46848.16
570.46	46328.56
570.62	46302.82
570.78	46656.24
570.95	46354.31
571.11	46813.05
571.27	46635.17
571.43	46829.44
571.60	46738.16
571.76	47033.07
571.92	47098.60
572.09	46925.40
572.25	46653.90
572.41	46983.91
572.57	47714.16
572.74	47302.23
572.90	47150.09
573.06	47414.57
573.22	47042.43
573.38	47372.44
573.55	47028.38
573.71	47098.60
573.87	47234.35
574.03	46745.18
574.20	47206.26
574.36	46953.49
574.52	46841.14
574.68	47047.11
574.84	47222.65
575.01	46857.52
575.17	47129.03
575.33	47004.98
575.49	47152.43
575.65	47189.88
575.82	47131.37
575.98	46756.88
576.14	47049.45
576.30	47063.49
576.46	46808.37
576.62	46459.63
576.79	46679.64
576.95	46946.47
577.11	46897.31
577.27	47056.47
577.43	46740.50
577.59	46731.14
577.75	46639.86
577.92	46869.23
578.08	46649.22
578.24	46295.80
578.40	46934.76
578.56	46885.61
578.72	47152.43
578.88	47454.36
579.04	47002.64
579.21	46625.81
579.37	46756.88
579.53	47363.08
579.69	46951.15
579.85	47229.67
580.01	47407.55
580.17	46782.63
580.33	47199.24
580.49	47112.64
580.65	47325.63
580.82	47299.89
580.98	47206.26
581.14	47180.52
581.30	47304.57
581.46	47173.50
581.62	47323.29
581.78	47175.84
581.94	47386.49
582.10	46883.27
582.26	47164.14
582.42	47545.64
582.58	47227.33
582.74	46862.21
582.90	47299.89
583.06	47138.39
583.22	46712.41
583.38	47222.65
583.54	47517.56
583.70	47363.08
583.86	47349.04
584.02	47236.69
584.18	47377.12
584.34	46960.51
584.50	47276.48
584.66	47304.57
584.82	47023.70
584.98	47077.54
585.14	47274.14
585.30	47351.38
585.46	46951.15
585.62	46925.40
585.78	46955.83
585.94	46925.40
586.10	47150.09
586.26	47173.50
586.42	47510.53
586.58	47461.38
586.74	47325.63
586.90	46960.51
587.06	47124.35
587.22	47138.39
587.38	46787.31
587.54	47445.00
587.70	47210.95
587.86	47407.55
588.02	46990.94
588.18	47175.84
588.34	46960.51
588.49	46803.69
588.65	46759.22
588.81	46541.55
588.97	46483.04
589.13	46600.07
589.29	46574.32
589.45	46588.36
589.61	46794.33
589.77	47208.61
589.93	47157.11
590.08	47379.46
590.24	47332.65
590.40	47445.00
590.56	47552.66
590.72	47203.92
590.88	47072.85
591.04	47641.60
591.20	47538.62
591.35	47248.39
591.51	47550.32
591.67	47140.73
591.83	47419.25
591.99	47269.46
592.15	47234.35
592.31	47826.51
592.46	47166.48
592.62	47318.61
592.78	47517.56
592.94	47463.72
593.10	47147.75
593.26	47697.78
593.41	47138.39
593.57	47192.22
593.73	47650.97
593.89	47051.79
594.05	47215.63
594.20	47168.82
594.36	47533.94
594.52	46962.85
594.68	47358.40
594.84	47391.17
594.99	47285.84
595.15	47442.66
595.31	47370.10
595.47	47281.16
595.62	47690.76
595.78	47255.42
595.94	47622.88
596.10	47562.03
596.25	47526.92
596.41	47285.84
596.57	47285.84
596.73	47613.52
596.88	46782.63
597.04	47393.51
597.20	47597.13
597.36	47414.57
597.51	47428.62
597.67	47765.65
597.83	47421.59
597.99	47669.69
598.14	47250.74
598.30	47374.78
598.46	47124.35
598.61	46939.44
598.77	46827.10
598.93	46990.94
599.09	47367.76
599.24	47700.12
599.40	47398.19
599.56	47381.80
599.71	47178.18
599.87	47459.04
600.03	47381.80
600.18	47217.97
600.34	47185.20
600.50	47126.69
600.65	47627.56
600.81	47407.55
600.97	47208.61
601.12	47587.77
601.28	47426.28
601.44	47033.07
601.59	46801.35
601.75	47072.85
601.91	46979.23
602.06	46696.03
602.22	46932.42
602.37	46845.82
602.53	47482.45
602.69	47037.75
602.84	47257.76
603.00	46857.52
603.16	47374.78
603.31	46995.62
603.47	47271.80
603.62	47007.32
603.78	47337.33
603.94	47466.06
604.09	47620.54
604.25	47482.45
604.40	46944.12
604.56	47356.06
604.71	47423.93
604.87	46880.93
605.03	47136.05
605.18	47098.60
605.34	46890.29
605.49	46791.99
605.65	47634.58
605.80	47086.90
605.96	47182.86
606.12	46993.28
606.27	47608.84
606.43	47096.26
606.58	47182.86
606.74	46892.63
606.89	47122.01
607.05	47023.70
607.20	47014.34
607.36	46803.69
607.51	46756.88
607.67	47112.64
607.82	46677.30
607.98	46742.84
608.13	47203.92
608.29	47072.85
608.44	46782.63
608.60	46415.16
608.75	46740.50
608.91	46705.39
609.06	46632.83
609.22	46824.76
609.37	46487.72
609.53	46525.17
609.68	46689.01
609.84	46745.18
609.99	46487.72
610.15	46593.04
610.30	46473.68
610.46	46307.50
610.61	46656.24
610.76	46859.87
610.92	47136.05
611.07	46377.72
611.23	46174.09
611.38	46824.76
611.54	46878.59
611.69	46480.70
611.84	46167.07
612.00	46403.46
612.15	45930.67
612.31	46162.39
612.46	46108.55
612.62	46803.69
612.77	46237.28
612.92	46466.66
613.08	45996.21
613.23	46153.02
613.39	46178.77
613.54	45977.48
613.69	46155.36
613.85	45858.12
614.00	46064.08
614.15	46773.27
614.31	46295.80
614.46	45977.48
614.62	46082.81
614.77	46162.39
614.92	46579.00
615.08	46113.23
615.23	45654.49
615.38	46061.74
615.54	45792.58
615.69	46169.41
615.84	45874.50
616.00	46031.32
616.15	45703.64
616.30	45954.08
616.46	45776.20
616.61	45544.48
616.76	45425.12
616.92	44748.70
617.07	45291.71
617.22	45457.88
617.37	45542.14
617.53	45720.02
617.68	45930.67
617.83	46007.91
617.99	46174.09
618.14	45518.74
618.29	45441.50
618.45	45359.58
618.60	45174.68
618.75	45464.91
618.90	45170.00
619.06	45422.78
619.21	45645.13
619.36	45507.04
619.51	45563.21
619.67	45270.64
619.82	45404.05
619.97	45050.63
620.12	45467.25
620.28	45055.31
620.43	45347.88
620.58	45247.24
620.73	45322.13
620.89	45207.45
621.04	45296.39
621.19	45106.80
621.34	45357.24
621.49	45013.18
621.65	44889.13
621.80	45251.92
621.95	44664.44
622.10	44685.51
622.25	44910.20
622.41	44612.95
622.56	44554.44
622.71	44996.80
622.86	44835.30
623.01	44746.36
623.16	44423.37
623.32	44718.28
623.47	44554.44
623.62	44165.91
623.77	44423.37
623.92	44147.18
624.07	44493.58
624.23	44556.78
624.38	44062.93
624.53	44208.04
624.68	44357.83
624.83	44486.56
624.98	44030.16
625.13	44156.55
625.29	43957.60
625.44	44240.81
625.59	43594.82
625.74	44039.52
625.89	43674.40
626.04	44137.82
626.19	43587.80
626.34	43990.37
626.49	43997.39
626.65	44065.27
626.80	44039.52
626.95	44116.76
627.10	43590.14
627.25	43744.61
627.40	43379.49
627.55	43358.42
627.70	43367.79
627.85	43131.39
628.00	43824.19
628.15	43512.90
628.30	43761.00
628.45	43922.49
628.60	43454.39
628.76	43863.98
628.91	43463.75
629.06	43367.79
629.21	43313.95
629.36	43337.36
629.51	43007.34
629.66	43234.38
629.81	42857.55
629.96	43540.99
630.11	43035.43
630.26	43761.00
630.41	43552.69
630.56	42986.28
630.71	43339.70
630.86	42939.47
631.01	42607.11
631.16	43051.81
631.31	42714.78
631.46	42990.96
631.61	43168.84
631.76	42593.07
631.91	43302.25
632.06	42962.87
632.21	42780.31
632.36	42990.96
632.51	42895.00
632.66	42866.91
632.81	42508.81
632.96	42462.00
633.10	42363.70
633.25	42857.55
633.40	42672.65
633.55	42834.14
633.70	42590.73
633.85	42707.76
634.00	42497.11
634.15	42370.72
634.30	42328.59
634.45	42424.55
634.60	41916.65
634.75	42398.80
634.90	42426.89
635.05	41958.78
635.19	41907.29
635.34	42712.44
635.49	42174.11
635.64	42167.09
635.79	42419.87
635.94	42204.54
636.09	42195.18
636.24	41982.19
636.39	42199.86
636.53	41883.89
636.68	42281.78
636.83	42293.48
636.98	42216.24
637.13	41832.39
637.28	42124.96
637.43	42249.01
637.57	42122.62
637.72	41881.55
637.87	42124.96
638.02	41818.35
638.17	42370.72
638.32	41771.54
638.46	41958.78
638.61	41645.15
638.76	41354.93
638.91	42014.96
639.06	41588.98
639.20	41504.72
639.35	41654.51
639.50	41523.44
639.65	41977.51
639.80	41621.75
639.94	41361.95
640.09	41528.13
640.24	41296.41
640.39	41034.27
640.54	40917.25
640.68	41155.98
640.83	41191.09
640.98	41198.11
641.13	40797.88
641.27	41387.69
641.42	40907.88
641.57	41359.61
641.72	40868.09
641.86	40886.82
642.01	40865.75
642.16	41153.64
642.31	40847.03
642.45	40912.56
642.60	40694.89
642.75	41055.34
642.90	40547.44
643.04	41038.95
643.19	40753.41
643.34	41237.90
643.48	40741.71
643.63	40891.50
643.78	40201.04
643.93	40524.04
644.07	41036.61
644.22	40573.19
644.37	40395.31
644.51	40348.50
644.66	40477.22
644.81	41069.38
644.95	40620.00
645.10	41170.02
645.25	40079.33
645.39	40697.24
645.54	40076.99
645.69	40498.29
645.83	40598.93
645.98	40189.34
646.13	40086.36
646.27	40238.49
646.42	39969.33
646.57	40114.44
646.71	40114.44
646.86	40304.02
647.00	40240.83
647.15	40463.18
647.30	39587.82
647.44	39889.75
647.59	40062.95
647.74	40119.12
647.88	39981.03
648.03	40093.38
648.17	40439.78
648.32	39803.15
648.47	39805.49
648.61	39594.84
648.76	40051.25
648.90	39707.19
649.05	40076.99
649.20	39821.87
649.34	40285.30
649.49	39283.55
649.63	39744.64
649.78	39524.63
649.92	39566.76
650.07	39800.81
650.21	39821.87
650.36	39445.05
650.51	39805.49
650.65	40219.77
650.80	39974.01
650.94	40289.98
651.09	39686.12
651.23	39480.16
651.38	39770.38
651.52	39241.42
651.67	38857.57
651.81	39173.55
651.96	39185.25
652.10	39306.96
652.25	39164.18
652.39	39391.22
652.54	39103.33
652.68	39388.88
652.83	39257.81
652.97	39484.84
653.12	39276.53
653.26	38897.36
653.41	38455.00
653.55	38913.75
653.70	38845.87
653.84	39136.10
653.99	38522.88
654.13	38499.47
654.27	38562.67
654.42	38632.88
654.56	38740.55
654.71	38789.70
654.85	38880.98
655.00	38712.46
655.14	38363.72
655.29	38419.89
655.43	38440.96
655.57	38527.56
655.72	38134.35
655.86	37624.11
656.01	37926.04
656.15	37933.06
656.30	38068.81
656.44	37876.89
656.58	37914.34
656.73	37996.26
656.87	38438.62
657.01	38129.67
657.16	37951.79
657.30	37993.92
657.45	37439.21
657.59	37970.51
657.73	37696.67
657.88	38132.01
658.02	38054.77
658.16	38274.78
658.31	38124.99
658.45	38031.36
658.60	37617.09
658.74	37970.51
658.88	37551.56
659.03	37305.80
659.17	37291.76
659.31	37310.48
659.46	37305.80
659.60	37930.72
659.74	37446.23
659.89	37378.36
660.03	37303.46
660.17	37663.90
660.32	37542.19
660.46	37195.79
660.60	37401.76
660.74	37184.09
660.89	37413.46
661.03	36870.46
661.17	36884.50
661.32	36847.05
661.46	36793.22
661.60	36772.16
661.74	36767.48
661.89	37017.91
662.03	36926.63
662.17	37008.55
662.31	36666.83
662.46	36966.42
662.60	36898.55
662.74	36893.86
662.88	36385.97
663.03	36130.85
663.17	36732.37
663.31	35938.93
663.45	36275.96
663.60	36275.96
663.74	36018.50
663.88	36034.89
664.02	36259.58
664.17	36664.49
664.31	35962.33
664.45	35892.12
664.59	35627.63
664.73	35735.30
664.88	35957.65
665.02	35943.61
665.16	35655.72
665.30	35828.92
665.44	35405.28
665.59	35225.06
665.73	35534.01
665.87	35498.91
666.01	35456.78
666.15	35637.00
666.29	35346.77
666.44	35288.26
666.58	35168.89
666.72	35534.01
666.86	35089.31
667.00	34799.08
667.14	34717.17
667.28	34567.37
667.43	34881.00
667.57	34684.40
667.71	34946.54
667.85	34855.26
667.99	34822.49
668.13	34749.93
668.27	34871.64
668.41	34799.08
668.56	34335.66
668.70	34300.55
668.84	34277.15
668.98	34216.29
669.12	33984.58
669.26	34141.39
669.40	34015.01
669.54	34223.31
669.68	34534.60
669.82	33593.71
669.96	33769.25
670.10	33642.86
670.25	33443.91
670.39	33535.20
670.53	33509.45
670.67	33617.11
670.81	33727.12
670.95	33493.07
671.09	33457.96
671.23	33137.30
671.37	33450.94
671.51	33104.54
671.65	33214.54
671.79	32779.20
671.93	32999.21
672.07	33071.77
672.21	33010.92
672.35	33060.07
672.49	32671.54
672.63	33139.65
672.77	32631.75
672.91	32772.18
673.05	32816.65
673.19	31878.10
673.33	32151.94
673.47	32444.51
673.61	32156.62
673.75	32095.77
673.89	31672.13
674.03	32133.21
674.17	32114.49
674.31	31531.70
674.45	31824.26
674.59	31927.25
674.73	31730.64
674.87	31833.63
675.01	31339.77
675.15	31342.11
675.29	31152.53
675.43	31489.57
675.56	31360.84
675.70	31140.83
675.84	31241.47
675.98	30312.28
676.12	30869.33
676.26	31391.26
676.40	30721.87
676.54	31157.21
676.68	30897.41
676.82	30230.36
676.96	30668.04
677.10	30487.82
677.23	30412.92
677.37	30127.38
677.51	30068.86
677.65	30139.08
677.79	29563.31
677.93	29825.45
678.07	29956.52
678.21	29415.85
678.34	29266.06
678.48	29668.63
678.62	29434.58
678.76	28762.84
678.90	28760.50
679.04	29069.45
679.18	28914.98
679.31	28837.74
679.45	28563.90
679.59	28161.33
679.73	28591.98
679.87	28680.92
680.00	28357.93
680.14	28285.37
680.28	28491.34
680.42	28360.27
680.56	28163.67
680.70	27765.78
680.83	28077.07
680.97	28112.17
681.11	28098.13
681.25	27475.55
681.39	27456.82
681.52	27239.15
681.66	27395.97
681.80	27325.75
681.94	27098.72
682.07	27377.25
682.21	27456.82
682.35	27187.66
682.49	27227.45
682.62	26974.67
682.76	26932.54
682.90	26499.55
683.04	26778.07
683.17	26501.89
683.31	26169.53
683.45	26331.03
683.59	26075.91
683.72	26246.77
683.86	26214.00
684.00	26115.70
684.13	26225.70
684.27	25804.41
684.41	25706.10
684.55	25546.95
684.68	25568.01
684.82	25404.17
684.96	25378.43
685.09	25408.86
685.23	25401.83
685.37	25135.01
685.50	25017.99
685.64	25022.67
685.78	24718.40
685.91	24891.60
686.05	24720.74
686.19	24439.87
686.32	24400.08
686.46	23908.57
686.60	23763.46
686.73	23894.53
686.87	23473.23
687.01	23651.11
687.14	23311.74
687.28	23358.55
687.42	23576.22
687.55	23377.27
687.69	23271.95
687.82	23267.27
687.96	23005.13
688.10	23278.97
688.23	23005.13
688.37	22391.91
688.50	22492.55
688.64	22628.30
688.78	23075.34
688.91	22836.61
689.05	22579.15
689.18	22689.15
689.32	22293.60
689.46	22548.72
689.59	22658.73
689.73	22534.68
689.86	22188.28
690.00	22167.21
690.13	22197.64
690.27	22059.55
690.41	21703.79
690.54	21476.76
690.68	21706.13
690.81	21736.56
690.95	21390.16
691.08	21366.75
691.22	21743.58
691.35	21392.50
691.49	21357.39
691.62	21336.32
691.76	21296.53
691.89	21142.06
692.03	21095.25
692.16	20910.35
692.30	20671.61
692.43	20386.07
692.57	20680.97
692.70	20458.62
692.84	20512.46
692.97	20409.47
693.11	20245.63
693.24	20184.78
693.38	19997.54
693.51	19983.49
693.65	20212.87
693.78	19845.40
693.92	19679.22
694.05	19901.58
694.19	19681.56
694.32	19669.86
694.45	19339.85
694.59	19117.50
694.72	19183.03
694.86	19208.78
694.99	19269.63
695.13	18677.48
695.26	18995.79
695.39	18822.59
695.53	18656.41
695.66	18874.08
695.80	18707.90
695.93	18602.58
696.07	18504.28
696.20	18628.32
696.33	18420.02
696.47	18338.10
696.60	18155.54
696.73	18111.07
696.87	17994.04
697.00	17977.65
697.14	18288.95
697.27	18057.23
697.40	18036.17
697.54	17987.02
697.67	17535.29
697.80	17479.12
697.94	17350.39
698.07	17362.09
698.21	17390.18
698.34	17041.44
698.47	17231.02
698.61	17312.94
698.74	16807.39
698.87	16978.25
699.01	16737.17
699.14	16641.21
699.27	16627.17
699.40	16781.64
699.54	16732.49
699.67	16442.26
699.80	16512.48
699.94	16442.26
700.07	16325.24
700.20	16109.91
700.34	15974.16
700.47	16154.38
700.60	16189.49
700.73	16259.70
700.87	15941.39
701.00	15875.85
701.13	15805.64
701.26	15585.63
701.40	15721.38
701.53	15674.57
701.66	15733.08
701.79	15618.39
701.93	15229.87
702.06	15171.35
702.19	14963.04
702.32	15293.06
702.46	15117.52
702.59	15201.78
702.72	15108.16
702.85	14909.21
702.99	15080.07
703.12	14885.81
703.25	14689.20
703.38	14457.49
703.51	14436.42
703.65	14497.28
703.78	14754.74
703.91	14239.82
704.04	14183.65
704.17	14387.27
704.31	14230.46
704.44	14127.47
704.57	14150.88
704.70	13825.54
704.83	13902.78
704.96	13778.73
705.10	13991.72
705.23	13818.52
>>>>>End Processed Spectral Data<<<<<
