SpectraSuite Data File
++++++++++++++++++++++++++++++++++++
Date: Fri Oct 25 11:33:33 EDT 2013
User: price-jones
Dark Spectrum Present: No
Reference Spectrum Present: No
Number of Sampled Component Spectra: 1
Spectrometers: USB2+H05261
Integration Time (usec): 100000 (USB2+H05261)
Spectra Averaged: 1 (USB2+H05261)
Boxcar Smoothing: 0 (USB2+H05261)
Correct for Electrical Dark: No (USB2+H05261)
Strobe/Lamp Enabled: No (USB2+H05261)
Correct for Detector Non-linearity: No (USB2+H05261)
Correct for Stray Light: No (USB2+H05261)
Number of Pixels in Processed Spectrum: 2048
>>>>>Begin Processed Spectral Data<<<<<
365.73	285.55
365.92	285.55
366.12	285.55
366.32	182.56
366.52	196.60
366.72	117.03
366.91	128.73
367.11	159.16
367.31	170.86
367.51	187.24
367.70	220.01
367.90	212.99
368.10	163.84
368.30	194.26
368.49	142.77
368.69	241.08
368.89	231.71
369.09	203.63
369.28	201.29
369.48	203.63
369.68	212.99
369.87	227.03
370.07	243.42
370.27	294.91
370.47	325.33
370.66	390.87
370.86	451.72
371.06	475.13
371.25	573.43
371.45	510.24
371.65	543.00
371.84	540.66
372.04	543.00
372.24	491.51
372.44	585.13
372.63	568.75
372.83	629.60
373.03	599.18
373.22	585.13
373.42	629.60
373.62	716.20
373.81	592.16
374.01	662.37
374.21	653.01
374.40	580.45
374.60	706.84
374.79	697.48
374.99	620.24
375.19	674.07
375.38	631.94
375.58	688.12
375.78	702.16
375.97	779.40
376.17	713.86
376.37	674.07
376.56	751.31
376.76	641.31
376.95	641.31
377.15	662.37
377.35	692.80
377.54	732.59
377.74	716.20
377.93	631.94
378.13	704.50
378.33	772.38
378.52	695.14
378.72	767.70
378.91	739.61
379.11	725.57
379.31	723.23
379.50	610.88
379.70	798.12
379.89	744.29
380.09	709.18
380.28	739.61
380.48	704.50
380.68	734.93
380.87	737.27
381.07	763.01
381.26	758.33
381.46	727.91
381.65	798.12
381.85	837.91
382.04	720.88
382.24	793.44
382.43	828.55
382.63	720.88
382.83	819.19
383.02	802.80
383.22	772.38
383.41	737.27
383.61	741.95
383.80	809.83
384.00	767.70
384.19	685.78
384.39	725.57
384.58	826.21
384.78	837.91
384.97	851.96
385.17	835.57
385.36	807.48
385.56	802.80
385.75	833.23
385.95	891.74
386.14	823.87
386.34	868.34
386.53	919.83
386.72	828.55
386.92	924.51
387.11	903.45
387.31	861.32
387.50	875.36
387.70	903.45
387.89	819.19
388.09	903.45
388.28	856.64
388.48	816.85
388.67	875.36
388.86	912.81
389.06	894.08
389.25	788.76
389.45	915.15
389.64	950.26
389.84	1015.79
390.03	1013.45
390.22	889.40
390.42	910.47
390.61	929.19
390.81	901.11
391.00	954.94
391.19	1074.31
391.39	1018.13
391.58	1015.79
391.78	1114.10
391.97	985.37
392.16	1022.81
392.36	1095.37
392.55	1022.81
392.75	1050.90
392.94	1095.37
393.13	973.66
393.33	978.34
393.52	1116.44
393.71	1104.73
393.91	1093.03
394.10	1067.28
394.29	1174.95
394.49	1081.33
394.68	1165.59
394.88	1102.39
395.07	1102.39
395.26	1064.94
395.46	1146.86
395.65	1177.29
395.84	1200.69
396.04	1198.35
396.23	1125.80
396.42	1226.44
396.62	1240.48
396.81	1177.29
397.00	1263.89
397.19	1212.40
397.39	1203.04
397.58	1263.89
397.77	1191.33
397.97	1179.63
398.16	1193.67
398.35	1231.12
398.55	1177.29
398.74	1299.00
398.93	1310.70
399.12	1420.71
399.32	1341.13
399.51	1359.85
399.70	1385.60
399.90	1341.13
400.09	1432.41
400.28	1448.79
400.47	1352.83
400.67	1348.15
400.86	1397.30
401.05	1404.32
401.24	1394.96
401.44	1404.32
401.63	1448.79
401.82	1425.39
402.01	1430.07
402.21	1603.27
402.40	1507.30
402.59	1439.43
402.78	1481.56
402.97	1636.03
403.17	1554.12
403.36	1511.99
403.55	1519.01
403.74	1591.56
403.93	1577.52
404.13	1636.03
404.32	1589.22
404.51	1610.29
404.70	1746.04
404.89	1614.97
405.09	1689.87
405.28	1703.91
405.47	1739.02
405.66	1624.33
405.85	1743.70
406.05	1748.38
406.24	1771.79
406.43	1701.57
406.62	1856.04
406.81	1825.62
407.00	1771.79
407.20	1811.57
407.39	1748.38
407.58	1867.75
407.77	1837.32
407.96	1928.60
408.15	1898.17
408.34	1858.39
408.54	1902.86
408.73	1937.96
408.92	1902.86
409.11	1919.24
409.30	1961.37
409.49	1928.60
409.68	2078.40
409.87	2038.61
410.07	1980.09
410.26	2099.46
410.45	2071.37
410.64	2141.59
410.83	2115.84
411.02	2125.21
411.21	2218.83
411.40	2115.84
411.59	2162.66
411.78	2160.31
411.98	2162.66
412.17	2291.38
412.36	2218.83
412.55	2244.57
412.74	2279.68
412.93	2328.83
413.12	2251.60
413.31	2342.88
413.50	2471.61
413.69	2340.54
413.88	2492.67
414.07	2438.84
414.26	2506.71
414.45	2457.56
414.64	2485.65
414.83	2572.25
415.02	2675.23
415.22	2726.72
415.41	2677.57
415.60	2597.99
415.79	2677.57
415.98	2679.91
416.17	2635.44
416.36	2700.98
416.55	2785.24
416.74	2764.17
416.93	2724.38
417.12	2761.83
417.31	2916.31
417.50	2874.18
417.69	2920.99
417.88	2871.84
418.07	2841.41
418.26	3028.65
418.45	3084.83
418.64	3110.57
418.83	3117.59
419.02	3000.57
419.21	3150.36
419.39	3070.78
419.58	3126.96
419.77	3059.08
419.96	3087.17
420.15	3171.43
420.34	3129.30
420.53	3194.83
420.72	3260.37
420.91	3248.66
421.10	3215.90
421.29	3325.90
421.48	3255.69
421.67	3272.07
421.86	3253.34
422.05	3328.24
422.24	3349.31
422.43	3361.01
422.61	3251.00
422.80	3337.60
422.99	3281.43
423.18	3361.01
423.37	3501.44
423.56	3454.63
423.75	3438.25
423.94	3330.58
424.13	3269.73
424.32	3262.71
424.50	3503.78
424.69	3445.27
424.88	3459.31
425.07	3332.92
425.26	3382.07
425.45	3328.24
425.64	3538.89
425.83	3400.80
426.01	3452.29
426.20	3499.10
426.39	3510.80
426.58	3449.95
426.77	3487.40
426.96	3363.35
427.15	3435.91
427.33	3630.17
427.52	3578.68
427.71	3634.85
427.90	3630.17
428.09	3660.60
428.28	3627.83
428.46	3581.02
428.65	3576.34
428.84	3796.35
429.03	3737.84
429.22	3618.47
429.40	3709.75
429.59	3712.09
429.78	3824.44
429.97	3620.81
430.16	3770.60
430.34	3730.81
430.53	3805.71
430.72	3765.92
430.91	3911.04
431.10	3838.48
431.28	4079.55
431.47	3985.93
431.66	4081.89
431.85	3901.67
432.03	3967.21
432.22	4004.66
432.41	4072.53
432.60	4081.89
432.79	4184.88
432.97	4147.43
433.16	4147.43
433.35	4278.50
433.54	4138.07
433.72	4182.54
433.91	4133.39
434.10	4124.02
434.28	4147.43
434.47	4135.73
434.66	4224.67
434.85	4351.06
435.03	4358.08
435.22	4322.97
435.41	4353.40
435.59	4306.59
435.78	4344.03
435.97	4358.08
436.16	4463.40
436.34	4346.37
436.53	4496.17
436.72	4606.17
436.90	4395.53
437.09	4425.95
437.28	4444.68
437.46	4407.23
437.65	4493.83
437.84	4571.07
438.02	4699.80
438.21	4601.49
438.40	4652.98
438.58	4774.69
438.77	4840.23
438.96	4634.26
439.14	4844.91
439.33	4844.91
439.52	4868.31
439.70	5006.41
439.89	5011.09
440.08	5025.13
440.26	5158.54
440.45	4938.53
440.63	5025.13
440.82	5144.50
441.01	5107.05
441.19	5100.03
441.38	5200.67
441.57	5184.29
441.75	5212.37
441.94	5423.02
442.12	5327.06
442.31	5385.57
442.50	5483.88
442.68	5341.10
442.87	5397.28
443.05	5383.23
443.24	5535.37
443.43	5453.45
443.61	5582.18
443.80	5664.10
443.98	5453.45
444.17	5376.21
444.35	5437.06
444.54	5769.42
444.73	5769.42
444.91	5612.60
445.10	5675.80
445.28	5612.60
445.47	5675.80
445.65	5652.39
445.84	5757.72
446.02	5764.74
446.21	5720.27
446.39	5612.60
446.58	5841.98
446.77	5753.04
446.95	5638.35
447.14	5734.31
447.32	5717.93
447.51	5703.89
447.69	5518.98
447.88	5598.56
448.06	5738.99
448.25	5736.65
448.43	5760.06
448.62	5778.78
448.80	5795.17
448.99	5956.66
449.17	5940.28
449.36	5708.57
449.54	6036.24
449.73	5961.34
449.91	5989.43
450.10	6052.63
450.28	6134.54
450.46	6129.86
450.65	6111.14
450.83	6071.35
451.02	6040.92
451.20	6230.51
451.39	6310.08
451.57	6239.87
451.76	6136.88
451.94	6237.53
452.13	6150.93
452.31	6328.81
452.49	6132.20
452.68	6181.35
452.86	6286.68
453.05	6338.17
453.23	6431.79
453.42	6340.51
453.60	6228.17
453.78	6612.01
453.97	6368.60
454.15	6441.15
454.34	6462.22
454.52	6560.52
454.70	6658.82
454.89	6539.46
455.07	6534.78
455.26	6642.44
455.44	6712.66
455.62	6792.23
455.81	6459.88
455.99	6766.49
456.17	6759.47
456.36	6757.13
456.54	6935.01
456.73	7045.01
456.91	7087.14
457.09	6937.35
457.28	7096.50
457.46	6995.86
457.64	6953.73
457.83	7023.95
458.01	7047.35
458.19	7162.04
458.38	7040.33
458.56	7096.50
458.74	7194.81
458.93	7192.47
459.11	7136.29
459.29	7155.02
459.48	7447.58
459.66	7440.56
459.84	7335.24
460.03	7485.03
460.21	7377.37
460.39	7470.99
460.57	7335.24
460.76	7433.54
460.94	7440.56
461.12	7611.42
461.31	7419.50
461.49	7449.93
461.67	7562.27
461.85	7583.34
462.04	7646.53
462.22	8194.22
462.40	7824.41
462.59	7651.21
462.77	7765.90
462.95	7873.56
463.13	7847.82
463.32	8004.63
463.50	7796.32
463.68	7749.51
463.86	8021.02
464.05	7714.41
464.23	7857.18
464.41	7852.50
464.59	7808.03
464.78	8049.10
464.96	8077.19
465.14	8051.44
465.32	8023.36
465.50	7941.44
465.69	8109.96
465.87	8011.65
466.05	8053.78
466.23	8187.19
466.41	8245.71
466.60	8212.94
466.78	8060.80
466.96	8133.36
467.14	8294.86
467.32	8205.92
467.51	8341.67
467.69	8175.49
467.87	8374.44
468.05	8613.17
468.23	8334.65
468.41	8353.37
468.60	8362.73
468.78	8545.30
468.96	8428.27
469.14	8725.52
469.32	8561.68
469.50	8430.61
469.69	8662.32
469.87	8805.10
470.05	8732.54
470.23	8683.39
470.41	8592.11
470.59	8978.30
470.77	8753.60
470.95	8917.44
471.14	9032.13
471.32	8744.24
471.50	9043.83
471.68	8964.25
471.86	9205.33
472.04	8980.64
472.22	9366.82
472.40	9032.13
472.58	9132.77
472.77	9371.50
472.95	9362.14
473.13	9577.47
473.31	9366.82
473.49	9359.80
473.67	9408.95
473.85	9462.79
474.03	9949.62
474.21	9678.12
474.39	9872.38
474.57	9741.31
474.75	9982.38
474.93	9973.02
475.12	9860.68
475.30	10066.64
475.48	10033.88
475.66	10059.62
475.84	9996.43
476.02	10045.58
476.20	10195.37
476.38	10431.77
476.56	10485.60
476.74	10642.42
476.92	10413.04
477.10	10413.04
477.28	10705.61
477.46	10787.53
477.64	10719.65
477.82	10808.59
478.00	11162.01
478.18	11262.66
478.36	11178.40
478.54	11389.05
478.72	11342.24
478.90	11265.00
479.08	11571.61
479.26	11630.12
479.44	11470.97
479.62	11833.75
479.80	11852.47
479.98	11866.52
480.16	12266.75
480.34	12077.16
480.52	12395.48
480.70	12177.81
480.88	12369.73
481.06	12547.61
481.24	12500.80
481.41	12758.26
481.59	12699.75
481.77	12975.93
481.95	12751.24
482.13	13095.30
482.31	12886.99
482.49	13322.33
482.67	13123.38
482.85	13432.33
483.03	13420.63
483.21	13530.64
483.39	13804.48
483.57	13731.92
483.74	13813.84
483.92	13991.72
484.10	14064.28
484.28	14040.87
484.46	14335.78
484.64	14478.55
484.82	14516.00
485.00	14579.20
485.18	15115.18
485.35	15035.60
485.53	14941.98
485.71	15082.41
485.89	15459.24
486.07	15215.82
486.25	15412.43
486.43	15702.65
486.61	15517.75
486.78	15915.64
486.96	15857.13
487.14	16051.39
487.32	15885.22
487.50	16266.72
487.68	16435.24
487.85	16507.80
488.03	16833.13
488.21	16910.37
488.39	16985.27
488.57	16985.27
488.75	17287.20
488.92	17488.48
489.10	17420.61
489.28	17767.01
489.46	17713.17
489.64	17673.39
489.81	18174.26
489.99	17895.74
490.17	18136.81
490.35	18441.08
490.53	18593.22
490.70	18356.82
490.88	18345.12
491.06	18682.16
491.24	18775.78
491.41	18860.04
491.59	18974.72
491.77	19143.24
491.95	19234.52
492.13	19648.80
492.30	19590.28
492.48	19679.22
492.66	19976.47
492.84	19803.27
493.01	19964.77
493.19	20299.47
493.37	20313.51
493.54	20456.28
493.72	20652.89
493.90	20676.29
494.08	20762.89
494.25	20819.07
494.43	20720.76
494.61	21231.00
494.79	21219.30
494.96	21275.47
495.14	21537.61
495.32	21598.46
495.49	21626.55
495.67	21446.33
495.85	21823.16
496.02	22277.22
496.20	22476.16
496.38	22445.74
496.55	22314.67
496.73	22686.81
496.91	22785.12
497.09	22625.96
497.26	23063.64
497.44	22963.00
497.62	22998.10
497.79	23178.33
497.97	23302.37
498.14	23417.06
498.32	23920.28
498.50	23967.09
498.67	23501.32
498.85	23920.28
499.03	24294.76
499.20	24027.94
499.38	23768.14
499.56	24381.36
499.73	24442.21
499.91	24552.22
500.08	24383.70
500.26	24594.35
500.44	24725.42
500.61	24903.30
500.79	24690.31
500.97	25020.33
501.14	25254.38
501.32	25455.67
501.49	25364.39
501.67	25144.38
501.84	25387.79
502.02	25577.37
502.20	25357.36
502.37	25799.73
502.55	25944.84
502.72	25823.13
502.90	25905.05
503.07	25949.52
503.25	26157.83
503.43	25881.64
503.60	26146.12
503.78	26728.92
503.95	26183.57
504.13	26366.13
504.30	26672.74
504.48	26656.36
504.65	27166.60
504.83	26780.41
505.01	26841.26
505.18	27164.26
505.36	27344.48
505.53	27161.92
505.71	27295.33
505.88	27318.73
506.06	27391.29
506.23	27857.06
506.41	27852.38
506.58	27559.81
506.76	27838.33
506.93	27824.29
507.11	28053.66
507.28	27924.93
507.46	27999.83
507.63	28072.39
507.81	28489.00
507.98	28219.84
508.16	28409.42
508.33	28381.34
508.50	28819.02
508.68	28755.82
508.85	29476.71
509.03	28875.19
509.20	29120.95
509.38	29083.50
509.55	29186.48
509.73	29546.92
509.90	29465.00
510.08	29493.09
510.25	29401.81
510.42	29645.23
510.60	29855.87
510.77	30052.48
510.95	30277.17
511.12	30082.91
511.30	29532.88
511.47	30054.82
511.64	29975.24
511.82	30190.57
511.99	30099.29
512.17	30312.28
512.34	30621.23
512.51	30642.29
512.69	30693.79
512.86	30616.55
513.04	31192.32
513.21	30588.46
513.38	31166.57
513.56	31070.61
513.73	30988.69
513.90	31012.10
514.08	31159.55
514.25	31562.12
514.43	31924.91
514.60	31751.71
514.77	31824.26
514.95	31391.26
515.12	31648.72
515.29	31749.37
515.47	31967.04
515.64	31915.54
515.81	31555.10
515.99	31985.76
516.16	32018.53
516.33	32507.70
516.51	32381.31
516.68	32053.64
516.85	32535.79
517.03	32355.57
517.20	32538.13
517.37	32662.18
517.54	33039.00
517.72	32851.76
517.89	33284.76
518.06	32762.82
518.24	32980.49
518.41	33024.96
518.58	33006.23
518.75	33186.46
518.93	33378.38
519.10	33392.42
519.27	33586.69
519.45	33745.84
519.62	33539.88
519.79	33682.65
519.96	34036.07
520.14	34054.79
520.31	33624.14
520.48	34139.05
520.65	34115.65
520.83	34396.51
521.00	34190.55
521.17	34227.99
521.34	34618.86
521.52	34637.59
521.69	34471.41
521.86	34653.97
522.03	34714.83
522.20	34520.56
522.38	34925.47
522.55	34878.66
522.72	34991.01
522.89	35138.46
523.07	35323.36
523.24	35189.95
523.41	35541.03
523.58	35161.87
523.75	35868.71
523.92	35494.22
524.10	35604.23
524.27	35929.56
524.44	35793.81
524.61	35990.42
524.78	35819.56
524.96	36023.19
525.13	36095.74
525.30	36397.67
525.47	36144.89
525.64	36301.71
525.81	36313.41
525.98	36439.80
526.16	36285.33
526.33	36074.68
526.50	36397.67
526.67	36201.07
526.84	36863.44
527.01	36507.68
527.18	36591.94
527.36	36889.18
527.53	36844.71
527.70	37076.43
527.87	37024.93
528.04	37235.58
528.21	36833.01
528.38	37057.70
528.55	37530.49
528.72	37205.16
528.89	37371.33
529.07	36760.45
529.24	37209.84
529.41	37448.57
529.58	37198.13
529.75	37600.71
529.92	37322.18
530.09	38106.26
530.26	37408.78
530.43	37954.13
530.60	37167.71
530.77	37710.71
530.94	37689.65
531.11	38220.95
531.28	37886.25
531.46	38157.75
531.63	38110.94
531.80	38115.62
531.97	38347.34
532.14	38611.82
532.31	38232.65
532.48	38391.81
532.65	38792.04
532.82	38059.45
532.99	38766.29
533.16	38433.94
533.33	38646.93
533.50	38550.96
533.67	38689.06
533.84	38122.65
534.01	38883.32
534.18	38532.24
534.35	38918.43
534.52	39105.67
534.69	39222.70
534.86	38990.98
535.03	39276.53
535.20	39271.85
535.37	39555.05
535.54	39901.45
535.71	39370.15
535.88	39262.49
536.05	39529.31
536.22	40112.10
536.38	39665.06
536.55	39636.97
536.72	39934.22
536.89	39545.69
537.06	39456.75
537.23	40151.89
537.40	39786.77
537.57	39641.65
537.74	40168.27
537.91	39704.85
538.08	40561.48
538.25	40034.86
538.42	40294.66
538.59	40297.00
538.75	39988.05
538.92	40605.95
539.09	40575.53
539.26	40652.76
539.43	40399.99
539.60	40538.08
539.77	40657.45
539.94	41195.77
540.11	40399.99
540.28	40783.83
540.44	41106.83
540.61	40779.15
540.78	40856.39
540.95	40921.93
541.12	40739.36
541.29	40669.15
541.46	41127.89
541.62	40978.10
541.79	41352.58
541.96	40566.16
542.13	40999.16
542.30	41247.26
542.47	41448.55
542.63	41240.24
542.80	41219.17
542.97	41825.37
543.14	41764.52
543.31	41769.20
543.48	41642.81
543.64	42429.23
543.81	41881.55
543.98	42043.04
544.15	41897.93
544.32	41886.23
544.48	42548.60
544.65	42087.51
544.82	42160.07
544.99	42326.25
545.16	42431.57
545.32	42080.49
545.49	42457.32
545.66	43002.66
545.83	42494.77
546.00	42733.50
546.16	42478.38
546.33	42094.53
546.50	42061.77
546.67	42911.38
546.83	42146.03
547.00	42548.60
547.17	42752.23
547.34	42796.70
547.50	42841.17
547.67	42932.45
547.84	42864.57
548.00	43194.59
548.17	43484.81
548.34	42981.60
548.51	43531.62
548.67	43316.29
548.84	43391.19
549.01	43016.71
549.18	43236.72
549.34	43288.21
549.51	43634.61
549.68	43147.78
549.84	43093.94
550.01	43248.42
550.18	43435.66
550.34	43585.46
550.51	43594.82
550.68	43695.46
550.84	43377.15
551.01	44371.88
551.18	43587.80
551.34	43508.22
551.51	43405.23
551.68	43878.02
551.84	43793.76
552.01	43613.54
552.18	43665.03
552.34	43744.61
552.51	44032.50
552.68	44088.67
552.84	44170.59
553.01	44294.64
553.18	43608.86
553.34	44023.14
553.51	44076.97
553.67	44226.76
553.84	44610.61
554.01	44222.08
554.17	44385.92
554.34	44509.97
554.51	44081.65
554.67	44388.26
554.84	44449.11
555.00	44519.33
555.17	44416.35
555.33	44556.78
555.50	44561.46
555.67	44425.71
555.83	44573.16
556.00	44790.83
556.16	44802.53
556.33	44931.26
556.50	44854.03
556.66	44788.49
556.83	45071.70
556.99	45076.38
557.16	45464.91
557.32	45205.11
557.49	45141.91
557.65	44767.43
557.82	45085.74
557.98	44959.35
558.15	44767.43
558.32	45188.72
558.48	45256.60
558.65	44933.60
558.81	45057.65
558.98	45272.98
559.14	44856.37
559.31	45476.61
559.47	45247.24
559.64	45174.68
559.80	45598.32
559.97	45272.98
560.13	45113.83
560.30	45420.44
560.46	45544.48
560.63	45457.88
560.79	45439.16
560.96	45752.79
561.12	45282.34
561.29	45488.31
561.45	45649.81
561.61	45364.26
561.78	45404.05
561.94	45778.54
562.11	45680.24
562.27	45717.68
562.44	45441.50
562.60	45705.98
562.77	46138.98
562.93	45600.66
563.10	45886.20
563.26	45923.65
563.42	46426.87
563.59	45710.66
563.75	45617.04
563.92	46000.89
564.08	46206.86
564.24	46316.86
564.41	45830.03
564.57	46033.66
564.74	46136.64
564.90	46178.77
565.07	46377.72
565.23	45883.86
565.39	46199.83
565.56	45848.75
565.72	45869.82
565.88	46328.56
566.05	46078.13
566.21	46532.19
566.38	46108.55
566.54	46223.24
566.70	46309.84
566.87	46017.27
567.03	46506.44
567.19	46391.76
567.36	46543.89
567.52	46579.00
567.68	46536.87
567.85	46461.97
568.01	46667.94
568.17	46117.92
568.34	46485.38
568.50	46234.94
568.66	46375.37
568.83	46586.02
568.99	46146.00
569.15	46349.63
569.32	46403.46
569.48	46380.06
569.64	46499.42
569.81	46714.75
569.97	46911.36
570.13	46679.64
570.30	46232.60
570.46	46658.58
570.62	46834.12
570.78	46852.84
570.95	46436.23
571.11	46267.71
571.27	46368.35
571.43	46852.84
571.60	46955.83
571.76	46740.50
571.92	46494.74
572.09	46986.25
572.25	46548.57
572.41	46574.32
572.57	46522.83
572.74	47302.23
572.90	46712.41
573.06	46960.51
573.22	46686.67
573.38	47138.39
573.55	46918.38
573.71	47058.81
573.87	46710.07
574.03	47082.22
574.20	47096.26
574.36	46693.69
574.52	46902.00
574.68	46810.71
574.84	47049.45
575.01	47131.37
575.17	47004.98
575.33	47283.50
575.49	46464.32
575.65	46941.78
575.82	47119.66
575.98	46951.15
576.14	46923.06
576.30	47332.65
576.46	46731.14
576.62	46742.84
576.79	46820.08
576.95	46749.86
577.11	47002.64
577.27	46993.28
577.43	47051.79
577.59	47044.77
577.75	46721.77
577.92	46677.30
578.08	46845.82
578.24	46974.55
578.40	47281.16
578.56	47100.94
578.72	47168.82
578.88	47260.10
579.04	47194.56
579.21	46920.72
579.37	47494.15
579.53	47049.45
579.69	47070.51
579.85	47196.90
580.01	47189.88
580.17	46897.31
580.33	47552.66
580.49	47224.99
580.65	47260.10
580.82	47260.10
580.98	46990.94
581.14	46939.44
581.30	47269.46
581.46	47316.27
581.62	47313.93
581.78	46784.97
581.94	46890.29
582.10	47299.89
582.26	46939.44
582.42	47110.30
582.58	47470.75
582.74	47290.52
582.90	47372.44
583.06	47615.86
583.22	47224.99
583.38	47550.32
583.54	47386.49
583.70	47306.91
583.86	47281.16
584.02	46897.31
584.18	47531.60
584.34	47583.09
584.50	47606.50
584.66	47484.79
584.82	47463.72
584.98	47716.50
585.14	47868.64
585.30	47388.83
585.46	47641.60
585.62	47274.14
585.78	47634.58
585.94	46571.98
586.10	47075.19
586.26	47107.96
586.42	47110.30
586.58	47487.13
586.74	47817.14
586.90	47353.72
587.06	47756.29
587.22	47667.35
587.38	46946.47
587.54	47566.71
587.70	47489.47
587.86	47620.54
588.02	47430.96
588.18	47129.03
588.34	47414.57
588.49	47735.23
588.65	47136.05
588.81	47360.74
588.97	47861.61
589.13	47353.72
589.29	47086.90
589.45	48088.65
589.61	47426.28
589.77	47555.00
589.93	47379.46
590.08	47555.00
590.24	47440.32
590.40	47863.96
590.56	48156.52
590.72	48252.48
590.88	47800.76
591.04	47681.39
591.20	48088.65
591.35	47723.52
591.51	48575.48
591.67	47945.87
591.83	48156.52
591.99	47784.38
592.15	47660.33
592.31	47775.02
592.46	47599.47
592.62	47491.81
592.78	47601.82
592.94	48142.48
593.10	48095.67
593.26	48217.38
593.41	48332.06
593.57	48116.73
593.73	48081.63
593.89	48311.00
594.05	48259.51
594.20	47990.34
594.36	48715.91
594.52	48130.78
594.68	48217.38
594.84	48144.82
594.99	48186.95
595.15	48245.46
595.31	47988.00
595.47	48065.24
595.62	47885.02
595.78	48032.47
595.94	48102.69
596.10	48032.47
596.25	48301.64
596.41	48250.14
596.57	47655.65
596.73	48495.90
596.88	48463.13
597.04	48147.16
597.20	47866.30
597.36	48264.19
597.51	48402.28
597.67	47634.58
597.83	48205.67
597.99	48303.98
598.14	48034.81
598.30	48236.10
598.46	47992.68
598.61	48779.10
598.77	47896.72
598.93	48430.36
599.09	48067.58
599.24	48346.11
599.40	48320.36
599.56	48142.48
599.71	48713.57
599.87	49015.50
600.03	48704.21
600.18	48523.99
600.34	48231.42
600.50	48226.74
600.65	48336.74
600.81	48655.06
600.97	48772.08
601.12	48247.80
601.28	47798.42
601.44	48318.02
601.59	48301.64
601.75	48339.08
601.91	48498.24
602.06	48013.75
602.22	48713.57
602.37	48329.72
602.53	48154.18
602.69	48261.85
602.84	48430.36
603.00	48285.25
603.16	48156.52
603.31	48215.04
603.47	48364.83
603.62	48341.42
603.78	48676.12
603.94	48486.54
604.09	48233.76
604.25	48367.17
604.40	48238.44
604.56	48170.57
604.71	48729.95
604.87	48233.76
605.03	48135.46
605.18	48144.82
605.34	48275.89
605.49	48116.73
605.65	48299.30
605.80	48254.82
605.96	48081.63
606.12	48313.34
606.27	48498.24
606.43	47980.98
606.58	48301.64
606.74	47786.72
606.89	48289.93
607.05	48161.20
607.20	48348.45
607.36	48240.78
607.51	48252.48
607.67	48339.08
607.82	48076.94
607.98	48065.24
608.13	48004.39
608.29	47962.26
608.44	48226.74
608.60	48243.12
608.75	47992.68
608.91	47938.85
609.06	47557.35
609.22	48467.81
609.37	47962.26
609.53	48226.74
609.68	48463.13
609.84	47826.51
609.99	48069.92
610.15	47964.60
610.30	47995.03
610.46	47803.10
610.61	47803.10
610.76	48226.74
610.92	47824.17
611.07	47976.30
611.23	47896.72
611.38	47821.83
611.54	48055.88
611.69	48177.59
611.84	48079.28
612.00	47880.34
612.15	47601.82
612.31	48044.18
612.46	47475.43
612.62	47718.84
612.77	47894.38
612.92	47908.43
613.08	47566.71
613.23	47683.73
613.39	47590.11
613.54	47599.47
613.69	47948.21
613.85	47522.24
614.00	47756.29
614.15	47957.58
614.31	47655.65
614.46	47515.22
614.62	47372.44
614.77	47000.30
614.92	47428.62
615.08	47559.69
615.23	47728.20
615.38	47737.57
615.54	47447.34
615.69	47562.03
615.84	47896.72
616.00	47585.43
616.15	47735.23
616.30	47533.94
616.46	47608.84
616.61	47250.74
616.76	47531.60
616.92	46948.81
617.07	47510.53
617.22	47334.99
617.37	46925.40
617.53	47426.28
617.68	47370.10
617.83	47409.89
617.99	47388.83
618.14	47592.45
618.29	47159.45
618.45	46843.48
618.60	46850.50
618.75	46983.91
618.90	47295.21
619.06	47227.33
619.21	46894.97
619.36	47365.42
619.51	47040.09
619.67	46787.31
619.82	46953.49
619.97	47002.64
620.12	46789.65
620.28	46777.95
620.43	47203.92
620.58	47243.71
620.73	47079.88
620.89	47342.02
621.04	46806.03
621.19	47019.02
621.34	46817.74
621.49	47016.68
621.65	46878.59
621.80	46993.28
621.95	46731.14
622.10	46689.01
622.25	46799.01
622.41	46532.19
622.56	47367.76
622.71	46791.99
622.86	46445.59
623.01	46707.73
623.16	46579.00
623.32	46843.48
623.47	46590.70
623.62	46218.56
623.77	46438.57
623.92	46684.33
624.07	46244.30
624.23	46522.83
624.38	46576.66
624.53	46202.18
624.68	46314.52
624.83	46471.34
624.98	46560.28
625.13	46057.06
625.29	46382.40
625.44	46429.21
625.59	46277.07
625.74	46099.19
625.89	45921.31
626.04	46160.05
626.19	46380.06
626.34	46344.95
626.49	45902.59
626.65	45731.73
626.80	45933.01
626.95	45525.76
627.10	45935.35
627.25	46106.21
627.40	45947.06
627.55	45586.61
627.70	45956.42
627.85	46225.58
628.00	45909.61
628.15	46220.90
628.30	45158.30
628.45	45366.60
628.60	45450.86
628.76	45577.25
628.91	45612.36
629.06	45031.91
629.21	45439.16
629.36	45457.88
629.51	45909.61
629.66	45694.28
629.81	45581.93
629.96	45647.47
630.11	45050.63
630.26	45862.80
630.41	45544.48
630.56	45258.94
630.71	45378.31
630.86	45371.28
631.01	45352.56
631.16	45605.34
631.31	45291.71
631.46	45455.54
631.61	45446.18
631.76	45572.57
631.91	45720.02
632.06	45654.49
632.21	45485.97
632.36	45230.85
632.51	44889.13
632.66	45588.95
632.81	45296.39
632.96	45308.09
633.10	44905.52
633.25	45043.61
633.40	45490.65
633.55	45645.13
633.70	45144.25
633.85	44926.58
634.00	44137.82
634.15	44732.32
634.30	44849.35
634.45	44669.12
634.60	44884.45
634.75	44975.73
634.90	44744.02
635.05	44779.13
635.19	44690.19
635.34	44935.95
635.49	44828.28
635.64	44879.77
635.79	44912.54
635.94	44542.74
636.09	44687.85
636.24	44545.08
636.39	44807.22
636.53	44631.68
636.68	44116.76
636.83	44287.62
636.98	44449.11
637.13	43899.09
637.28	44460.82
637.43	44304.00
637.57	44191.65
637.72	44137.82
637.87	44172.93
638.02	44402.30
638.17	44313.36
638.32	43973.98
638.46	44107.40
638.61	44229.10
638.76	44201.02
638.91	43700.14
639.06	44175.27
639.20	43833.55
639.35	43667.37
639.50	43716.53
639.65	44079.31
639.80	44051.22
639.94	43934.20
640.09	44222.08
640.24	43922.49
640.39	43962.28
640.54	43489.49
640.68	43807.81
640.83	44130.80
640.98	43798.44
641.13	43498.86
641.27	44116.76
641.42	43557.37
641.57	43622.90
641.72	43725.89
641.86	43475.45
642.01	43316.29
642.16	43810.15
642.31	43288.21
642.45	43615.88
642.60	43150.12
642.75	43363.11
642.90	43711.84
643.04	43409.92
643.19	43540.99
643.34	43161.82
643.48	42820.10
643.63	43475.45
643.78	43271.82
643.93	43763.34
644.07	43210.97
644.22	43374.81
644.37	42941.81
644.51	43524.60
644.66	43222.67
644.81	43330.34
644.95	43299.91
645.10	42911.38
645.25	42644.56
645.39	42871.59
645.54	42918.40
645.69	42658.60
645.83	42717.12
645.98	42862.23
646.13	42445.62
646.27	42520.51
646.42	42630.52
646.57	42714.78
646.71	42490.09
646.86	42993.30
647.00	42637.54
647.15	42443.27
647.30	42904.36
647.44	42471.36
647.59	42342.63
647.74	42792.01
647.88	42696.05
648.03	42852.87
648.17	43012.02
648.32	42604.77
648.47	42808.40
648.61	42450.30
648.76	42356.67
648.90	42225.60
649.05	42646.90
649.20	42363.70
649.34	42569.66
649.49	42497.11
649.63	42525.19
649.78	42689.03
649.92	42553.28
650.07	42873.93
650.21	42403.49
650.36	42480.72
650.51	42347.31
650.65	42529.87
650.80	42190.50
650.94	42401.14
651.09	42433.91
651.23	41778.56
651.38	41848.78
651.52	41635.79
651.67	41647.49
651.81	42054.75
651.96	42129.64
652.10	41748.14
652.25	41635.79
652.39	42204.54
652.54	41801.97
652.68	41825.37
652.83	41776.22
652.97	42251.35
653.12	41865.16
653.26	41691.96
653.41	41586.64
653.55	41661.54
653.70	42029.00
653.84	42206.88
653.99	41703.67
654.13	41839.42
654.27	41537.49
654.42	41766.86
654.56	41209.81
654.71	41860.48
654.85	41696.64
655.00	41794.95
655.14	41853.46
655.29	41652.17
655.43	41577.28
655.57	41551.53
655.72	41193.43
655.86	40882.14
656.01	41228.54
656.15	40772.13
656.30	40760.43
656.44	41373.65
656.58	41118.53
656.73	41324.50
656.87	40879.80
657.01	40945.33
657.16	41062.36
657.30	40528.72
657.45	41111.51
657.59	40940.65
657.73	40655.11
657.88	40692.55
658.02	40910.22
658.16	41413.44
658.31	40706.60
658.45	40769.79
658.60	40577.87
658.74	40409.35
658.88	40856.39
659.03	40680.85
659.17	40105.08
659.31	40140.19
659.46	39831.24
659.60	40278.28
659.74	40505.31
659.89	40292.32
660.03	40037.20
660.17	40189.34
660.32	40196.36
660.46	40561.48
660.60	39735.27
660.74	39658.04
660.89	40217.43
661.03	39749.32
661.17	39461.43
661.32	39604.20
661.46	39817.19
661.60	39695.49
661.74	39800.81
661.89	39721.23
662.03	39454.41
662.17	39164.18
662.31	39306.96
662.46	39959.97
662.60	39108.01
662.74	39068.22
662.88	39358.45
663.03	38799.06
663.17	38665.65
663.31	38553.30
663.45	38871.62
663.60	39124.40
663.74	38972.26
663.88	38902.04
664.02	38770.97
664.17	38995.67
664.31	38789.70
664.45	38838.85
664.59	38476.07
664.73	38471.39
664.88	39108.01
665.02	38188.18
665.16	38649.27
665.30	38803.74
665.44	38466.70
665.59	37769.22
665.73	37970.51
665.87	37926.04
666.01	37729.44
666.15	38024.34
666.29	37998.60
666.44	37773.91
666.58	38085.20
666.72	37453.25
666.86	37858.17
667.00	37546.87
667.14	37614.75
667.28	37771.57
667.43	37340.91
667.57	37724.75
667.71	37766.88
667.85	38237.33
667.99	37584.32
668.13	36931.31
668.27	36999.19
668.41	37284.73
668.56	36795.56
668.70	36849.39
668.84	36360.22
668.98	36566.19
669.12	36673.85
669.26	36746.41
669.40	37092.81
669.54	36723.01
669.68	36737.05
669.82	36446.82
669.96	36409.37
670.10	36343.84
670.25	36198.73
670.39	36240.86
670.53	36100.42
670.67	36002.12
670.81	36409.37
670.95	36498.31
671.09	35941.27
671.23	35665.08
671.37	36044.25
671.51	35959.99
671.65	35749.34
671.79	35332.73
671.93	35569.12
672.07	35594.87
672.21	35414.65
672.35	35370.18
672.49	35297.62
672.63	35299.96
672.77	34941.86
672.91	35508.27
673.05	34707.80
673.19	34836.53
673.33	34679.72
673.47	34710.14
673.61	34768.66
673.75	34588.44
673.89	34452.69
674.03	34429.28
674.17	34501.84
674.31	34024.37
674.45	34150.76
674.59	34195.23
674.73	33818.40
674.87	33802.02
675.01	33872.23
675.15	33567.96
675.29	33312.84
675.43	33488.38
675.56	33914.36
675.70	33371.36
675.84	32982.83
675.98	32095.77
676.12	33434.55
676.26	33432.21
676.40	32898.57
676.54	32950.06
676.68	32701.96
676.82	32393.01
676.96	33008.58
677.10	32748.78
677.23	32610.68
677.37	32411.74
677.51	32215.13
677.65	32285.35
677.79	32070.02
677.93	32250.24
678.07	31901.50
678.21	31615.96
678.34	31384.24
678.48	31496.59
678.62	31405.31
678.76	31253.17
678.90	31154.87
679.04	31089.34
679.18	31765.75
679.31	30665.70
679.45	30771.02
679.59	31089.34
679.73	30878.69
679.87	30375.47
680.00	30689.10
680.14	30565.06
680.28	30513.56
680.42	30185.89
680.56	30019.71
680.70	30061.84
680.83	29827.79
680.97	30127.38
681.11	30328.66
681.25	29883.96
681.39	29205.20
681.52	29755.23
681.66	29125.63
681.80	28957.11
681.94	28804.97
682.07	29095.20
682.21	28800.29
682.35	28692.63
682.49	28760.50
682.62	28732.42
682.76	28912.64
682.90	28367.29
683.04	28308.78
683.17	28580.28
683.31	28261.97
683.45	28004.51
683.59	27861.74
683.72	27604.28
683.86	27475.55
684.00	27644.07
684.13	27714.28
684.27	27454.48
684.41	27173.62
684.55	27651.09
684.68	27405.33
684.82	27019.14
684.96	26916.16
685.09	27159.58
685.23	26974.67
685.37	27283.62
685.50	27175.96
685.64	26932.54
685.78	26679.77
685.91	26412.95
686.05	26160.17
686.19	26026.76
686.32	26012.71
686.46	25846.54
686.60	25383.11
686.73	25748.23
686.87	25928.45
687.01	25380.77
687.14	25675.68
687.28	25766.96
687.42	25235.66
687.55	25067.14
687.69	25235.66
687.82	24847.13
687.96	24877.55
688.10	25090.54
688.23	24699.67
688.37	25242.68
688.50	25083.52
688.64	24456.26
688.78	24687.97
688.91	24067.73
689.05	24348.59
689.18	24240.93
689.32	23726.01
689.46	23758.78
689.59	23957.72
689.73	23709.63
689.86	24020.92
690.00	23934.32
690.13	24006.87
690.27	23178.33
690.41	23103.43
690.54	23131.51
690.68	23208.75
690.81	22728.94
690.95	23065.98
691.08	22843.63
691.22	22710.22
691.35	22611.92
691.49	22843.63
691.62	22775.75
691.76	22387.22
691.89	22071.25
692.03	21738.90
692.16	21748.26
692.30	22113.38
692.43	21921.46
692.57	21439.31
692.70	21502.50
692.84	21469.73
692.97	21214.62
693.11	21387.82
693.24	21343.35
693.38	21055.46
693.51	20968.86
693.65	20858.85
693.78	20725.44
693.92	20823.75
694.05	20783.96
694.19	20744.17
694.32	20643.52
694.45	20570.97
694.59	20577.99
694.72	20669.27
694.86	20748.85
694.99	20294.79
695.13	20020.94
695.26	19882.85
695.39	19768.16
695.53	19765.82
695.66	19695.61
695.80	19590.28
695.93	19796.25
696.07	18979.40
696.20	19098.77
696.33	19030.90
696.47	19255.59
696.60	18857.70
696.73	19023.87
696.87	19164.31
697.00	19084.73
697.14	18665.77
697.27	18499.59
697.40	18122.77
697.54	18525.34
697.67	18480.87
697.80	18609.60
697.94	17961.27
698.07	18059.57
698.21	17907.44
698.34	18134.47
698.47	17947.23
698.61	17638.28
698.74	17661.68
698.87	17668.70
699.01	17511.89
699.14	17605.51
699.27	17298.90
699.40	17420.61
699.54	17018.04
699.67	17167.83
699.80	17209.96
699.94	17104.64
700.07	17006.33
700.20	16879.94
700.34	16575.67
700.47	16641.21
700.60	17046.12
700.73	16720.79
700.87	16599.08
701.00	16219.91
701.13	16437.58
701.26	15917.98
701.40	16236.30
701.53	15861.81
701.66	15786.91
701.79	16079.48
701.93	16042.03
702.06	15580.95
702.19	15646.48
702.32	15688.61
702.46	15627.76
702.59	15585.63
702.72	15892.24
702.85	15646.48
702.99	15328.17
703.12	15112.84
703.25	15197.10
703.38	15201.78
703.51	14941.98
703.65	14806.23
703.78	14473.87
703.91	14736.01
704.04	14501.96
704.17	14689.20
704.31	14363.87
704.44	14511.32
704.57	14303.01
704.70	14258.54
704.83	14326.42
704.96	14295.99
705.10	13937.89
705.23	13912.14
>>>>>End Processed Spectral Data<<<<<
