SpectraSuite Data File
++++++++++++++++++++++++++++++++++++
Date: Fri Oct 25 10:43:55 EDT 2013
User: price-jones
Dark Spectrum Present: No
Reference Spectrum Present: No
Number of Sampled Component Spectra: 1
Spectrometers: USB2+H05261
Integration Time (usec): 100000 (USB2+H05261)
Spectra Averaged: 1 (USB2+H05261)
Boxcar Smoothing: 0 (USB2+H05261)
Correct for Electrical Dark: No (USB2+H05261)
Strobe/Lamp Enabled: No (USB2+H05261)
Correct for Detector Non-linearity: No (USB2+H05261)
Correct for Stray Light: No (USB2+H05261)
Number of Pixels in Processed Spectrum: 2048
>>>>>Begin Processed Spectral Data<<<<<
365.73	135.75
365.92	135.75
366.12	135.75
366.32	110.01
366.52	51.49
366.72	79.58
366.91	7.02
367.11	9.36
367.31	23.41
367.51	14.04
367.70	86.60
367.90	9.36
368.10	0.00
368.30	7.02
368.49	0.00
368.69	135.75
368.89	74.90
369.09	77.24
369.28	117.03
369.48	70.22
369.68	60.85
369.87	84.26
370.07	124.05
370.27	170.86
370.47	220.01
370.66	451.72
370.86	472.79
371.06	442.36
371.25	482.15
371.45	379.17
371.65	498.53
371.84	447.04
372.04	437.68
372.24	449.38
372.44	486.83
372.63	489.17
372.83	554.71
373.03	496.19
373.22	461.09
373.42	521.94
373.62	615.56
373.81	599.18
374.01	655.35
374.21	575.77
374.40	524.28
374.60	533.64
374.79	585.13
374.99	545.34
375.19	596.84
375.38	613.22
375.58	613.22
375.78	648.33
375.97	561.73
376.17	660.03
376.37	617.90
376.56	636.63
376.76	606.20
376.95	568.75
377.15	620.24
377.35	653.01
377.54	648.33
377.74	674.07
377.93	645.99
378.13	660.03
378.33	718.54
378.52	622.58
378.72	713.86
378.91	706.84
379.11	606.20
379.31	650.67
379.50	692.80
379.70	676.41
379.89	716.20
380.09	704.50
380.28	699.82
380.48	763.01
380.68	709.18
380.87	758.33
381.07	688.12
381.26	763.01
381.46	720.88
381.65	737.27
381.85	648.33
382.04	765.36
382.24	674.07
382.43	748.97
382.63	730.25
382.83	763.01
383.02	772.38
383.22	809.83
383.41	741.95
383.61	716.20
383.80	758.33
384.00	826.21
384.19	779.40
384.39	800.46
384.58	774.72
384.78	821.53
384.97	770.04
385.17	777.06
385.36	842.59
385.56	737.27
385.75	791.10
385.95	952.60
386.14	858.98
386.34	802.80
386.53	875.36
386.72	882.38
386.92	985.37
387.11	924.51
387.31	884.72
387.50	966.64
387.70	938.55
387.89	983.02
388.09	947.92
388.28	1008.77
388.48	990.05
388.67	1053.24
388.86	983.02
389.06	1022.81
389.25	931.53
389.45	1011.11
389.64	1057.92
389.84	1076.65
390.03	1076.65
390.22	1001.75
390.42	1034.52
390.61	1025.15
390.81	1088.35
391.00	1135.16
391.19	1146.86
391.39	1036.86
391.58	1107.07
391.78	1064.94
391.97	1137.50
392.16	1083.67
392.36	983.02
392.55	945.58
392.75	1029.84
392.94	1006.43
393.13	1004.09
393.33	1013.45
393.52	968.98
393.71	1137.50
393.91	1093.03
394.10	1116.44
394.29	1245.16
394.49	1242.82
394.68	1240.48
394.88	1256.87
395.07	1254.53
395.26	1240.48
395.46	1306.02
395.65	1238.14
395.84	1235.80
396.04	1282.61
396.23	1107.07
396.42	1198.35
396.62	1186.65
396.81	1238.14
397.00	1322.40
397.19	1387.94
397.39	1334.11
397.58	1486.24
397.77	1479.22
397.97	1500.28
398.16	1535.39
398.35	1467.52
398.55	1444.11
398.74	1502.62
398.93	1689.87
399.12	1572.84
399.32	1575.18
399.51	1636.03
399.70	1750.72
399.90	1572.84
400.09	1612.63
400.28	1629.01
400.47	1668.80
400.67	1764.76
400.86	1668.80
401.05	1743.70
401.24	1664.12
401.44	1870.09
401.63	1771.79
401.82	1825.62
402.01	1762.42
402.21	1832.64
402.40	1802.21
402.59	1809.23
402.78	1926.26
402.97	1802.21
403.17	1849.02
403.36	1949.67
403.55	1956.69
403.74	1944.99
403.93	2038.61
404.13	2005.84
404.32	1926.26
404.51	1984.77
404.70	2080.74
404.89	2031.58
405.09	2024.56
405.28	2026.90
405.47	2047.97
405.66	2036.27
405.85	2036.27
406.05	2143.93
406.24	2183.72
406.43	2207.13
406.62	2223.51
406.81	2160.31
407.00	2080.74
407.20	2120.53
407.39	2155.63
407.58	2303.09
407.77	2265.64
407.96	2359.26
408.15	2443.52
408.34	2375.64
408.54	2457.56
408.73	2448.20
408.92	2448.20
409.11	2345.22
409.30	2373.30
409.49	2401.39
409.68	2399.05
409.87	2422.45
410.07	2394.37
410.26	2487.99
410.45	2579.27
410.64	2565.23
410.83	2717.36
411.02	2672.89
411.21	2700.98
411.40	2733.75
411.59	2836.73
411.78	2658.85
411.98	2668.21
412.17	2848.43
412.36	2782.90
412.55	2818.00
412.74	2930.35
412.93	2892.90
413.12	2995.89
413.31	2972.48
413.50	3021.63
413.69	3033.33
413.88	2949.08
414.07	3016.95
414.26	3000.57
414.45	3054.40
414.64	3150.36
414.83	3157.38
415.02	3295.47
415.22	3183.13
415.41	3236.96
415.60	3197.17
415.79	3323.56
415.98	3571.66
416.17	3414.84
416.36	3365.69
416.55	3454.63
416.74	3412.50
416.93	3337.60
417.12	3571.66
417.31	3442.93
417.50	3527.19
417.69	3613.79
417.88	3646.55
418.07	3508.46
418.26	3632.51
418.45	3691.02
418.64	3786.99
418.83	3833.80
419.02	3719.11
419.21	3716.77
419.39	3709.75
419.58	3719.11
419.77	3772.94
419.96	3838.48
420.15	3880.61
420.34	3798.69
420.53	3950.82
420.72	4063.17
420.91	3918.06
421.10	3934.44
421.29	4098.28
421.48	4007.00
421.67	4011.68
421.86	3969.55
422.05	3969.55
422.24	4042.11
422.43	3920.40
422.61	3918.06
422.80	4100.62
422.99	4121.68
423.18	4177.86
423.37	4135.73
423.56	4030.40
423.75	4105.30
423.94	3981.25
424.13	3772.94
424.32	4042.11
424.50	4241.05
424.69	4184.88
424.88	4280.84
425.07	4004.66
425.26	4037.42
425.45	4105.30
425.64	4084.23
425.83	4025.72
426.01	4224.67
426.20	4262.12
426.39	4170.83
426.58	4173.18
426.77	4177.86
426.96	4152.11
427.15	4222.33
427.33	4180.20
427.52	4297.22
427.71	4278.50
427.90	4287.86
428.09	4386.16
428.28	4334.67
428.46	4318.29
428.65	4367.44
428.84	4440.00
429.03	4510.21
429.22	4257.43
429.40	4257.43
429.59	4337.01
429.78	4128.70
429.97	4002.32
430.16	4271.48
430.34	4255.09
430.53	4266.80
430.72	4388.50
430.91	4428.29
431.10	4451.70
431.28	4695.11
431.47	4758.31
431.66	4922.15
431.85	4746.61
432.03	4971.30
432.22	4847.25
432.41	4786.40
432.60	4837.89
432.79	4861.29
432.97	4835.55
433.16	4842.57
433.35	4765.33
433.54	4784.06
433.72	4737.24
433.91	4842.57
434.10	4868.31
434.28	5064.92
434.47	4966.62
434.66	5062.58
434.85	5291.95
435.03	5121.09
435.22	5156.20
435.41	5348.12
435.59	5280.25
435.78	5373.87
435.97	5392.59
436.16	5416.00
436.34	5390.25
436.53	5357.49
436.72	5514.30
436.90	5247.48
437.09	5296.63
437.28	5331.74
437.46	5455.79
437.65	5544.73
437.84	5430.04
438.02	5298.97
438.21	5305.99
438.40	5380.89
438.58	5621.97
438.77	5528.35
438.96	5668.78
439.14	5877.09
439.33	5734.31
439.52	5708.57
439.70	5849.00
439.89	5937.94
440.08	5949.64
440.26	5966.03
440.45	5816.23
440.63	6090.07
440.82	6174.33
441.01	6155.61
441.19	6118.16
441.38	6466.90
441.57	6406.05
441.75	6340.51
441.94	6541.80
442.12	6626.06
442.31	6403.71
442.50	6616.69
442.68	6602.65
442.87	6740.74
443.05	6628.40
443.24	6717.34
443.43	6794.58
443.61	6813.30
443.80	6829.68
443.98	6567.54
444.17	6679.89
444.35	6871.81
444.54	6759.47
444.73	6822.66
444.91	6600.31
445.10	6696.27
445.28	6649.46
445.47	6616.69
445.65	6534.78
445.84	6766.49
446.02	6963.09
446.21	6995.86
446.39	6867.13
446.58	6944.37
446.77	6747.76
446.95	6942.03
447.14	7012.24
447.32	7171.40
447.51	6939.69
447.69	6998.20
447.88	7063.74
448.06	7241.62
448.25	7080.12
448.43	6981.82
448.62	6991.18
448.80	7052.03
448.99	7148.00
449.17	7152.68
449.36	7082.46
449.54	7246.30
449.73	7356.30
449.91	7321.20
450.10	7494.40
450.28	7592.70
450.46	7440.56
450.65	7527.16
450.83	7424.18
451.02	7459.29
451.20	7550.57
451.39	7588.02
451.57	7581.00
451.76	7372.69
451.94	7559.93
452.13	7478.01
452.31	7524.82
452.49	7578.65
452.68	7618.44
452.86	7445.24
453.05	7461.63
453.23	7719.09
453.42	7452.27
453.60	7534.18
453.78	7681.64
453.97	7674.62
454.15	7754.19
454.34	7698.02
454.52	7681.64
454.70	7805.69
454.89	7735.47
455.07	8023.36
455.26	8091.23
455.44	8018.68
455.62	8107.62
455.81	8112.30
455.99	8006.97
456.17	7960.16
456.36	8285.50
456.54	8121.66
456.73	8051.44
456.91	8367.42
457.09	8376.78
457.28	8685.73
457.46	8421.25
457.64	8566.36
457.83	8428.27
458.01	8205.92
458.19	8706.79
458.38	8339.33
458.56	8596.79
458.74	8650.62
458.93	8645.94
459.11	8730.20
459.29	8704.45
459.48	8685.73
459.66	8732.54
459.84	8542.96
460.03	8903.40
460.21	8744.24
460.39	8791.05
460.57	8968.93
460.76	8905.74
460.94	9064.89
461.12	9144.47
461.31	9043.83
461.49	9085.96
461.67	8936.17
461.85	9107.02
462.04	9043.83
462.22	9277.88
462.40	9427.68
462.59	9359.80
462.77	9294.27
462.95	9441.72
463.13	9359.80
463.32	9404.27
463.50	9343.42
463.68	9378.53
463.86	9401.93
464.05	9167.88
464.23	9219.37
464.41	9455.76
464.59	9160.86
464.78	9825.57
464.96	9476.83
465.14	9359.80
465.32	9729.61
465.50	9551.73
465.69	9776.42
465.87	9769.40
466.05	9495.55
466.23	9572.79
466.41	9638.33
466.60	9879.40
466.78	9224.05
466.96	9493.21
467.14	9790.46
467.32	9720.24
467.51	9825.57
467.69	9504.92
467.87	9673.43
468.05	10012.81
468.23	9832.59
468.41	9825.57
468.60	10132.18
468.78	10228.14
468.96	10164.95
469.14	10090.05
469.32	10111.11
469.50	9923.87
469.69	10148.56
469.87	10221.12
470.05	10164.95
470.23	10394.32
470.41	10258.57
470.59	10335.81
470.77	10129.84
470.95	10462.19
471.14	10539.43
471.32	10532.41
471.50	10817.96
471.68	10885.83
471.86	10724.33
472.04	11089.46
472.22	10986.47
472.40	10654.12
472.58	10600.29
472.77	10698.59
472.95	11026.26
473.13	11239.25
473.31	11089.46
473.49	11091.80
473.67	10939.66
473.85	10942.00
474.03	11412.45
474.21	11375.00
474.39	11796.30
474.57	11644.17
474.75	11510.75
474.93	11665.23
475.12	11623.10
475.30	11529.48
475.48	11910.99
475.66	11754.17
475.84	11702.68
476.02	11789.28
476.20	11833.75
476.38	12077.16
476.56	12257.39
476.74	12311.22
476.92	12098.23
477.10	12381.43
477.28	12711.45
477.46	12690.38
477.64	12732.51
477.82	12830.82
478.00	13324.67
478.18	13151.47
478.36	13170.19
478.54	13193.60
478.72	13212.32
478.90	13289.56
479.08	13514.25
479.26	13872.36
479.44	13554.04
479.62	13853.63
479.80	13914.48
479.98	14099.39
480.16	13973.00
480.34	14017.47
480.52	14457.49
480.70	14349.82
480.88	14043.21
481.06	14298.33
481.24	14508.98
481.41	14773.46
481.59	14911.55
481.77	14932.62
481.95	15028.58
482.13	15187.74
482.31	15070.71
482.49	15503.71
482.67	15208.80
482.85	15723.72
483.03	15922.66
483.21	15817.34
483.39	15962.45
483.57	16240.98
483.74	15985.86
483.92	16383.75
484.10	16058.42
484.28	16365.03
484.46	16819.09
484.64	16964.20
484.82	16753.55
485.00	16847.18
485.18	17394.86
485.35	17146.76
485.53	16652.91
485.71	16821.43
485.89	16755.90
486.07	17001.65
486.25	17249.75
486.43	17390.18
486.61	17547.00
486.78	17921.48
486.96	18015.10
487.14	18415.34
487.32	18036.17
487.50	18696.20
487.68	18752.37
487.85	18773.44
488.03	19283.67
488.21	19206.44
488.39	19161.97
488.57	19171.33
488.75	19452.19
488.92	19831.36
489.10	20053.71
489.28	20058.39
489.46	20435.22
489.64	20390.75
489.81	20748.85
489.99	21074.18
490.17	20844.81
490.35	21039.08
490.53	21144.40
490.70	21139.72
490.88	21212.28
491.06	21507.18
491.24	21364.41
491.41	21476.76
491.59	21294.19
491.77	21752.94
491.95	21862.94
492.13	22286.58
492.30	22604.89
492.48	22314.67
492.66	22616.60
492.84	22419.99
493.01	23208.75
493.19	22834.27
493.37	23119.81
493.54	23164.28
493.72	23372.59
493.90	23637.07
494.08	23482.59
494.25	23934.32
494.43	23903.89
494.61	24685.63
494.79	24603.71
494.96	24168.37
495.14	24233.91
495.32	24472.64
495.49	24561.58
495.67	24652.86
495.85	25186.50
496.02	25006.28
496.20	25317.57
496.38	25413.54
496.55	25528.22
496.73	25947.18
496.91	26031.44
497.09	26160.17
497.26	26033.78
497.44	26031.44
497.62	25797.38
497.79	25998.67
497.97	26169.53
498.14	26506.57
498.32	26782.75
498.50	26639.98
498.67	27157.24
498.85	26998.08
499.03	27351.50
499.20	27288.31
499.38	27180.64
499.56	27405.33
499.73	27702.58
499.91	27583.21
500.08	27728.33
500.26	27278.94
500.44	27253.20
500.61	27733.01
500.79	27569.17
500.97	27782.16
501.14	27803.22
501.32	27969.40
501.49	28023.23
501.67	27960.04
501.84	28577.94
502.02	28334.53
502.20	28545.17
502.37	28606.03
502.55	28767.52
502.72	28652.84
502.90	29315.21
503.07	28615.39
503.25	29053.07
503.43	28783.91
503.60	28961.79
503.78	28917.32
503.95	29149.03
504.13	29090.52
504.30	29532.88
504.48	29523.52
504.65	29692.04
504.83	30000.99
505.01	29837.15
505.18	30103.97
505.36	30782.73
505.53	30323.98
505.71	30991.03
505.88	30689.10
506.06	30586.12
506.23	30562.72
506.41	30551.01
506.58	30838.90
506.76	30848.26
506.93	31330.41
507.11	30948.90
507.28	30761.66
507.46	30841.24
507.63	31054.23
507.81	31250.83
507.98	31012.10
508.16	31108.06
508.33	31840.65
508.50	31491.91
508.68	31475.52
508.85	32053.64
509.03	32161.30
509.20	31936.61
509.38	31957.67
509.55	32219.81
509.73	32367.27
509.90	32666.86
510.08	32315.78
510.25	32517.06
510.42	32713.67
510.60	33017.94
510.77	32594.30
510.95	32926.66
511.12	32924.32
511.30	33373.70
511.47	33525.83
511.64	33738.82
511.82	33251.99
511.99	33338.59
512.17	33301.14
512.34	33221.56
512.51	34115.65
512.69	33844.15
512.86	33464.98
513.04	34162.46
513.21	33919.04
513.38	34127.35
513.56	33549.24
513.73	34068.84
513.90	33890.96
514.08	33670.95
514.25	34293.53
514.43	34345.02
514.60	34501.84
514.77	34419.92
514.95	34644.61
515.12	34593.12
515.29	34672.70
515.47	35002.71
515.64	35414.65
515.81	34864.62
515.99	34738.23
516.16	34775.68
516.33	34787.38
516.51	34469.07
516.68	34110.97
516.85	34162.46
517.03	34801.43
517.20	35056.54
517.37	35473.16
517.54	35845.30
517.72	35480.18
517.89	34787.38
518.06	34806.11
518.24	35189.95
518.41	35159.53
518.58	35538.69
518.75	35459.12
518.93	35859.35
519.10	36135.53
519.27	35882.75
519.45	35786.79
519.62	36320.43
519.79	36119.15
519.96	36156.60
520.14	36804.92
520.31	36488.95
520.48	36655.13
520.65	36287.67
520.83	36870.46
521.00	37132.60
521.17	36870.46
521.34	37074.09
521.52	37301.12
521.69	36994.51
521.86	37528.15
522.03	37268.35
522.20	37413.46
522.38	37467.30
522.55	37439.21
522.72	37125.58
522.89	37434.53
523.07	37483.68
523.24	37785.61
523.41	38277.12
523.58	37914.34
523.75	38366.06
523.92	38279.46
524.10	38710.12
524.27	38703.10
524.44	38518.20
524.61	38927.79
524.78	38143.71
524.96	38841.19
525.13	38880.98
525.30	39021.41
525.47	38920.77
525.64	38937.15
525.81	38632.88
525.98	38541.60
526.16	38209.25
526.33	38185.84
526.50	38408.19
526.67	38094.56
526.84	38789.70
527.01	38153.07
527.18	38532.24
527.36	39304.62
527.53	39693.15
527.70	39793.79
527.87	39449.73
528.04	39505.90
528.21	39796.13
528.38	39580.80
528.55	39655.70
528.72	40126.14
528.89	39728.25
529.07	39922.52
529.24	39386.54
529.41	39938.90
529.58	39725.91
529.75	40086.36
529.92	40126.14
530.09	39938.90
530.26	40423.39
530.43	40678.51
530.60	40287.64
530.77	40825.96
530.94	40825.96
531.11	40378.92
531.28	40638.72
531.46	41006.19
531.63	41179.39
531.80	40797.88
531.97	40648.08
532.14	40282.96
532.31	40095.72
532.48	40718.30
532.65	40758.09
532.82	40779.15
532.99	40898.52
533.16	40720.64
533.33	40940.65
533.50	41240.24
533.67	41329.18
533.84	41043.63
534.01	41347.90
534.18	40893.84
534.35	41581.96
534.52	41539.83
534.69	41237.90
534.86	41411.10
535.03	41755.16
535.20	41918.99
535.37	41820.69
535.54	42134.32
535.71	41766.86
535.88	41811.33
536.05	42040.70
536.22	41823.03
536.38	41691.96
536.55	41872.18
536.72	41790.27
536.89	41769.20
537.06	41968.15
537.23	42609.45
537.40	42185.82
537.57	42188.16
537.74	42122.62
537.91	42831.80
538.08	42195.18
538.25	42183.48
538.42	42143.69
538.59	42284.12
538.75	41888.57
538.92	42658.60
539.09	42756.91
539.26	42621.16
539.43	42918.40
539.60	42218.58
539.77	42246.67
539.94	42237.31
540.11	42286.46
540.28	42513.49
540.44	42721.80
540.61	42258.37
540.78	42239.65
540.95	42829.46
541.12	42335.61
541.29	42293.48
541.46	43402.89
541.62	42983.94
541.79	42656.26
541.96	42391.78
542.13	43122.03
542.30	42979.26
542.47	43335.02
542.63	43370.13
542.80	43283.53
542.97	43339.70
543.14	43866.32
543.31	43796.10
543.48	43477.79
543.64	43683.76
543.81	43702.48
543.98	43749.29
544.15	43636.95
544.32	44123.78
544.48	44554.44
544.65	44182.29
544.82	43868.66
544.99	43871.00
545.16	44154.21
545.32	43817.17
545.49	44215.06
545.66	44315.70
545.83	44577.84
546.00	44643.38
546.16	44360.17
546.33	44243.15
546.50	43871.00
546.67	44268.89
546.83	44535.71
547.00	44414.01
547.17	44285.28
547.34	44318.04
547.50	44664.44
547.67	44662.10
547.84	44942.97
548.00	44851.69
548.17	44807.22
548.34	45024.89
548.51	45027.23
548.67	45071.70
548.84	44884.45
549.01	44966.37
549.18	44966.37
549.34	44467.84
549.51	44856.37
549.68	45170.00
549.84	45270.64
550.01	45013.18
550.18	45013.18
550.34	44594.23
550.51	44870.41
550.68	44893.82
550.84	44526.35
551.01	44942.97
551.18	45137.23
551.34	45390.01
551.51	44907.86
551.68	45329.16
551.84	45474.27
552.01	45200.43
552.18	45120.85
552.34	44832.96
552.51	45263.62
552.68	45170.00
552.84	45457.88
553.01	45404.05
553.18	45710.66
553.34	45158.30
553.51	45469.59
553.67	45441.50
553.84	45902.59
554.01	45635.77
554.17	45886.20
554.34	45977.48
554.51	45947.06
554.67	45588.95
554.84	46003.23
555.00	45382.99
555.17	45675.55
555.33	45680.24
555.50	45797.26
555.67	45724.71
555.83	45904.93
556.00	45731.73
556.16	45844.07
556.33	45677.90
556.50	45883.86
556.66	45813.65
556.83	45364.26
556.99	46218.56
557.16	46527.51
557.32	46209.20
557.49	45942.38
557.65	45649.81
557.82	46153.02
557.98	46026.63
558.15	45989.19
558.32	46248.99
558.48	45687.26
558.65	45979.82
558.81	45612.36
558.98	46696.03
559.14	46153.02
559.31	45874.50
559.47	46424.53
559.64	46532.19
559.80	46148.34
559.97	46368.35
560.13	46188.13
560.30	46312.18
560.46	46478.36
560.63	46452.61
560.79	46391.76
560.96	46632.83
561.12	46541.55
561.29	46574.32
561.45	46277.07
561.61	46909.02
561.78	46057.06
561.94	46260.69
562.11	46232.60
562.27	46501.76
562.44	46464.32
562.60	46579.00
562.77	46600.07
562.93	46569.64
563.10	46183.45
563.26	46227.92
563.42	46478.36
563.59	46480.70
563.75	46370.69
563.92	46880.93
564.08	46731.14
564.24	46796.67
564.41	46576.66
564.57	47061.15
564.74	46525.17
564.90	46834.12
565.07	47105.62
565.23	46384.74
565.39	46270.05
565.56	46604.75
565.72	46176.43
565.88	46450.27
566.05	46789.65
566.21	46117.92
566.38	46459.63
566.54	46836.46
566.70	46932.42
566.87	46951.15
567.03	46429.21
567.19	47063.49
567.36	46899.65
567.52	46396.44
567.68	46604.75
567.85	46579.00
568.01	47229.67
568.17	46768.58
568.34	47124.35
568.50	46721.77
568.66	46740.50
568.83	46794.33
568.99	46450.27
569.15	46539.21
569.32	46726.46
569.48	46595.38
569.64	47222.65
569.81	46761.56
569.97	46789.65
570.13	46777.95
570.30	46550.91
570.46	46644.54
570.62	46431.55
570.78	46450.27
570.95	46335.59
571.11	46983.91
571.27	46567.30
571.43	46422.19
571.60	47054.13
571.76	46632.83
571.92	46630.49
572.09	46955.83
572.25	46902.00
572.41	46960.51
572.57	47012.00
572.74	47117.32
572.90	47236.69
573.06	46799.01
573.22	47033.07
573.38	47112.64
573.55	46815.40
573.71	47327.97
573.87	46913.70
574.03	46583.68
574.20	46916.04
574.36	46808.37
574.52	47070.51
574.68	46864.55
574.84	47075.19
575.01	46813.05
575.17	46810.71
575.33	46791.99
575.49	46625.81
575.65	47402.87
575.82	47075.19
575.98	47070.51
576.14	47056.47
576.30	47054.13
576.46	47182.86
576.62	46979.23
576.79	46820.08
576.95	46511.13
577.11	47430.96
577.27	47117.32
577.43	47037.75
577.59	46728.80
577.75	46777.95
577.92	46246.65
578.08	46560.28
578.24	47129.03
578.40	47077.54
578.56	47103.28
578.72	46911.36
578.88	47117.32
579.04	47356.06
579.21	46670.28
579.37	47166.48
579.53	46887.95
579.69	46747.52
579.85	47056.47
580.01	47077.54
580.17	46541.55
580.33	46859.87
580.49	46761.56
580.65	46923.06
580.82	46855.18
580.98	46944.12
581.14	46960.51
581.30	47154.77
581.46	47466.06
581.62	47112.64
581.78	46887.95
581.94	47426.28
582.10	47164.14
582.26	47164.14
582.42	47194.56
582.58	47241.37
582.74	46646.88
582.90	47009.66
583.06	47182.86
583.22	47161.79
583.38	47498.83
583.54	47704.80
583.70	46894.97
583.86	47437.98
584.02	47292.86
584.18	47217.97
584.34	47166.48
584.50	47192.22
584.66	47021.36
584.82	47173.50
584.98	47124.35
585.14	47480.11
585.30	47136.05
585.46	47110.30
585.62	46635.17
585.78	46787.31
585.94	47021.36
586.10	47309.25
586.26	46656.24
586.42	47110.30
586.58	47522.24
586.74	47346.70
586.90	46974.55
587.06	47274.14
587.22	47290.52
587.38	46880.93
587.54	47129.03
587.70	47430.96
587.86	47391.17
588.02	47217.97
588.18	47182.86
588.34	46946.47
588.49	46597.73
588.65	46539.21
588.81	46590.70
588.97	46801.35
589.13	46408.14
589.29	46756.88
589.45	46916.04
589.61	46960.51
589.77	47014.34
589.93	47388.83
590.08	47445.00
590.24	47613.52
590.40	46855.18
590.56	47145.41
590.72	47608.84
590.88	46770.93
591.04	47035.41
591.20	47487.13
591.35	47669.69
591.51	47487.13
591.67	47019.02
591.83	47248.39
591.99	46604.75
592.15	46834.12
592.31	47227.33
592.46	47222.65
592.62	47143.07
592.78	47309.25
592.94	47126.69
593.10	47047.11
593.26	47454.36
593.41	47459.04
593.57	47136.05
593.73	47119.66
593.89	47084.56
594.05	46859.87
594.20	46803.69
594.36	47129.03
594.52	46986.25
594.68	47037.75
594.84	47224.99
594.99	47547.98
595.15	47114.98
595.31	47129.03
595.47	47182.86
595.62	47372.44
595.78	47267.12
595.94	47145.41
596.10	47503.51
596.25	47377.12
596.41	47426.28
596.57	46965.19
596.73	47346.70
596.88	46836.46
597.04	47086.90
597.20	47189.88
597.36	47175.84
597.51	47470.75
597.67	47028.38
597.83	47187.54
597.99	47463.72
598.14	47402.87
598.30	46866.89
598.46	46997.96
598.61	47365.42
598.77	46593.04
598.93	47189.88
599.09	46962.85
599.24	47683.73
599.40	47440.32
599.56	47391.17
599.71	46883.27
599.87	47400.53
600.03	47068.17
600.18	47023.70
600.34	47023.70
600.50	47215.63
600.65	46841.14
600.81	47173.50
600.97	47267.12
601.12	47547.98
601.28	47056.47
601.44	47157.11
601.59	47000.30
601.75	46995.62
601.91	47285.84
602.06	47145.41
602.22	47103.28
602.37	47194.56
602.53	47288.18
602.69	47400.53
602.84	47147.75
603.00	46684.33
603.16	47276.48
603.31	46887.95
603.47	47161.79
603.62	47082.22
603.78	47381.80
603.94	47138.39
604.09	47019.02
604.25	47243.71
604.40	46761.56
604.56	46836.46
604.71	47370.10
604.87	47051.79
605.03	47208.61
605.18	46887.95
605.34	46913.70
605.49	46731.14
605.65	47482.45
605.80	47393.51
605.96	47224.99
606.12	47133.71
606.27	47302.23
606.43	46571.98
606.58	46918.38
606.74	47093.92
606.89	47051.79
607.05	46941.78
607.20	46445.59
607.36	46946.47
607.51	47065.83
607.67	46880.93
607.82	46855.18
607.98	47365.42
608.13	46897.31
608.29	46866.89
608.44	46630.49
608.60	46473.68
608.75	47271.80
608.91	47173.50
609.06	46791.99
609.22	47138.39
609.37	46569.64
609.53	46906.68
609.68	46745.18
609.84	46478.36
609.99	46366.01
610.15	46398.78
610.30	46464.32
610.46	45935.35
610.61	46206.86
610.76	46253.67
610.92	46834.12
611.07	46806.03
611.23	46569.64
611.38	46539.21
611.54	46092.17
611.69	46122.60
611.84	46071.10
612.00	46113.23
612.15	46232.60
612.31	46302.82
612.46	46087.49
612.62	46298.14
612.77	46356.65
612.92	46443.25
613.08	46017.27
613.23	46251.33
613.39	46031.32
613.54	45750.45
613.69	45474.27
613.85	45792.58
614.00	46127.28
614.15	46527.51
614.31	45991.53
614.46	46223.24
614.62	46087.49
614.77	46040.68
614.92	46038.34
615.08	45811.31
615.23	45818.33
615.38	45485.97
615.54	45776.20
615.69	46005.57
615.84	45530.44
616.00	46082.81
616.15	45654.49
616.30	45750.45
616.46	45652.15
616.61	45200.43
616.76	45443.84
616.92	45558.53
617.07	45741.09
617.22	45221.49
617.37	45507.04
617.53	45921.31
617.68	45741.09
617.83	45713.00
617.99	45504.70
618.14	45633.42
618.29	45443.84
618.45	44954.67
618.60	44928.92
618.75	44811.90
618.90	45439.16
619.06	44893.82
619.21	45361.92
619.36	45275.32
619.51	44739.34
619.67	44872.75
619.82	45387.67
619.97	45308.09
620.12	44889.13
620.28	44285.28
620.43	44910.20
620.58	45399.37
620.73	45368.94
620.89	45233.19
621.04	45038.93
621.19	45382.99
621.34	45397.03
621.49	45024.89
621.65	44870.41
621.80	45205.11
621.95	44811.90
622.10	44664.44
622.25	44737.00
622.41	44395.28
622.56	44570.82
622.71	45071.70
622.86	44832.96
623.01	44528.69
623.16	44748.70
623.32	44308.68
623.47	44545.08
623.62	44065.27
623.77	44718.28
623.92	45109.14
624.07	44074.63
624.23	43995.05
624.38	44098.03
624.53	44500.61
624.68	44397.62
624.83	44437.41
624.98	44116.76
625.13	44100.37
625.29	43906.11
625.44	43859.30
625.59	43697.80
625.74	43814.83
625.89	43763.34
626.04	43620.56
626.19	44231.44
626.34	43508.22
626.49	44170.59
626.65	43910.79
626.80	43978.67
626.95	43814.83
627.10	43803.13
627.25	43433.32
627.40	43384.17
627.55	43412.26
627.70	43339.70
627.85	43107.99
628.00	43594.82
628.15	43650.99
628.30	42920.74
628.45	43426.30
628.60	43267.14
628.76	43395.87
628.91	43473.11
629.06	42969.90
629.21	42726.48
629.36	42600.09
629.51	42581.37
629.66	43213.31
629.81	43243.74
629.96	43409.92
630.11	43257.78
630.26	43021.39
630.41	43215.65
630.56	43009.68
630.71	42665.63
630.86	42586.05
631.01	42897.34
631.16	42677.33
631.31	42429.23
631.46	42181.13
631.61	42920.74
631.76	42749.88
631.91	43360.76
632.06	42873.93
632.21	43203.95
632.36	43082.24
632.51	42279.44
632.66	42632.86
632.81	42462.00
632.96	42555.62
633.10	42335.61
633.25	42827.12
633.40	42866.91
633.55	42370.72
633.70	42609.45
633.85	42312.20
634.00	42256.03
634.15	42761.59
634.30	42050.06
634.45	42401.14
634.60	42131.98
634.75	42396.46
634.90	42103.90
635.05	42178.79
635.19	42417.53
635.34	42667.97
635.49	42450.30
635.64	42342.63
635.79	42504.13
635.94	42139.00
636.09	42033.68
636.24	41670.90
636.39	41654.51
636.53	41968.15
636.68	42054.75
636.83	41862.82
636.98	41670.90
637.13	41872.18
637.28	41972.83
637.43	42059.43
637.57	42038.36
637.72	41701.32
637.87	42017.30
638.02	41794.95
638.17	41986.87
638.32	41921.34
638.46	42087.51
638.61	41729.41
638.76	41148.96
638.91	41897.93
639.06	41233.22
639.20	41593.66
639.35	42014.96
639.50	41553.87
639.65	41977.51
639.80	41237.90
639.94	41476.63
640.09	41062.36
640.24	41139.60
640.39	40821.28
640.54	41139.60
640.68	40905.54
640.83	41429.82
640.98	40896.18
641.13	41001.50
641.27	41378.33
641.42	41076.40
641.57	40933.63
641.72	40954.69
641.86	41357.27
642.01	40439.78
642.16	40973.42
642.31	40615.32
642.45	40727.66
642.60	40580.21
642.75	40741.71
642.90	40727.66
643.04	40587.23
643.19	40694.89
643.34	40760.43
643.48	40425.73
643.63	40505.31
643.78	40753.41
643.93	40987.46
644.07	40596.59
644.22	39971.67
644.37	40598.93
644.51	40566.16
644.66	40168.27
644.81	40811.92
644.95	40603.61
645.10	40488.93
645.25	40416.37
645.39	40594.25
645.54	40074.65
645.69	40308.71
645.83	39746.98
645.98	40175.30
646.13	40030.18
646.27	39974.01
646.42	39569.10
646.57	39819.53
646.71	39936.56
646.86	39936.56
647.00	40355.52
647.15	40041.88
647.30	40128.48
647.44	39990.39
647.59	39859.32
647.74	39859.32
647.88	40055.93
648.03	39854.64
648.17	39859.32
648.32	39704.85
648.47	39924.86
648.61	39194.61
648.76	39498.88
648.90	39838.26
649.05	39461.43
649.20	39447.39
649.34	39498.88
649.49	39260.15
649.63	39522.29
649.78	39482.50
649.92	39292.91
650.07	40027.84
650.21	39686.12
650.36	39379.51
650.51	39840.60
650.65	39735.27
650.80	40306.37
650.94	39395.90
651.09	39725.91
651.23	39093.97
651.38	39405.26
651.52	39007.37
651.67	38983.96
651.81	39234.40
651.96	39201.63
652.10	39002.69
652.25	39229.72
652.39	38948.85
652.54	39021.41
652.68	39065.88
652.83	39189.93
652.97	39531.65
653.12	39182.91
653.26	38948.85
653.41	38579.05
653.55	38885.66
653.70	38733.53
653.84	38635.22
653.99	38293.50
654.13	38885.66
654.27	38770.97
654.42	38345.00
654.56	38363.72
654.71	38824.81
654.85	38466.70
655.00	38569.69
655.14	38380.10
655.29	38272.44
655.43	38328.61
655.57	37598.37
655.72	37879.23
655.86	37694.33
656.01	37626.45
656.15	37340.91
656.30	37984.55
656.44	37659.22
656.58	37820.72
656.73	37722.41
656.87	37764.54
657.01	37869.87
657.16	37998.60
657.30	37586.66
657.45	37502.40
657.59	37701.35
657.73	38089.88
657.88	38199.88
658.02	38298.19
658.16	38328.61
658.31	38541.60
658.45	37893.27
658.60	37783.27
658.74	37745.82
658.88	37539.85
659.03	37682.62
659.17	37528.15
659.31	37294.10
659.46	37163.03
659.60	36985.15
659.74	37645.18
659.89	37448.57
660.03	37659.22
660.17	37427.51
660.32	37432.19
660.46	37242.60
660.60	36884.50
660.74	37221.54
660.89	37235.58
661.03	36699.60
661.17	36854.08
661.32	36947.70
661.46	37102.17
661.60	37001.53
661.74	36690.24
661.89	36947.70
662.03	36896.20
662.17	36905.57
662.31	36725.35
662.46	36987.49
662.60	36598.96
662.74	36570.87
662.88	36723.01
663.03	36395.33
663.17	36713.64
663.31	36093.40
663.45	36463.21
663.60	35936.59
663.74	36060.63
663.88	35990.42
664.02	36182.34
664.17	36341.50
664.31	35725.94
664.45	36116.81
664.59	35908.50
664.73	36041.91
664.88	35892.12
665.02	35103.35
665.16	35770.41
665.30	35505.93
665.44	35475.50
665.59	35112.72
665.73	35494.22
665.87	35459.12
666.01	35005.05
666.15	35267.19
666.29	35140.80
666.44	35543.38
666.58	35159.53
666.72	34803.77
666.86	34871.64
667.00	35133.78
667.14	34986.33
667.28	34731.21
667.43	34827.17
667.57	34827.17
667.71	34735.89
667.85	34960.58
667.99	34494.82
668.13	34522.90
668.27	34455.03
668.41	34618.86
668.56	34157.78
668.70	34527.58
668.84	34213.95
668.98	33652.22
669.12	33968.19
669.26	34314.59
669.40	33804.36
669.54	33886.28
669.68	34162.46
669.82	33488.38
669.96	33785.63
670.10	33434.55
670.25	33942.45
670.39	33677.97
670.53	33172.41
670.67	33518.81
670.81	33322.21
670.95	33556.26
671.09	33462.64
671.23	33165.39
671.37	32828.35
671.51	32624.73
671.65	32788.56
671.79	32802.61
671.93	32924.32
672.07	32996.87
672.21	32847.08
672.35	32744.09
672.49	32737.07
672.63	32818.99
672.77	32519.40
672.91	32339.18
673.05	32669.20
673.19	32484.30
673.33	32023.21
673.47	31988.10
673.61	32191.73
673.75	31885.12
673.89	32257.26
674.03	31749.37
674.17	32126.19
674.31	31613.62
674.45	31683.83
674.59	31903.84
674.73	32121.51
674.87	31992.78
675.01	31704.90
675.15	31545.74
675.29	31370.20
675.43	31136.15
675.56	31772.77
675.70	30738.26
675.84	30686.76
675.98	29972.90
676.12	30696.13
676.26	30941.88
676.40	30761.66
676.54	30761.66
676.68	31040.18
676.82	30167.16
676.96	30436.33
677.10	30405.90
677.23	30384.83
677.37	29685.01
677.51	30438.67
677.65	29818.42
677.79	29338.62
677.93	30082.91
678.07	29401.81
678.21	29560.97
678.34	29165.42
678.48	29125.63
678.62	29074.13
678.76	28994.56
678.90	28978.17
679.04	28992.22
679.18	28617.73
679.31	28690.29
679.45	28580.28
679.59	28418.78
679.73	28383.68
679.87	28496.02
680.00	28390.70
680.14	28734.76
680.28	28486.66
680.42	27906.21
680.56	27728.33
680.70	28027.92
680.83	28297.08
680.97	27777.48
681.11	27365.54
681.25	27405.33
681.39	27510.66
681.52	27480.23
681.66	27316.39
681.80	27505.98
681.94	27374.91
682.07	27246.18
682.21	27236.81
682.35	26897.44
682.49	26988.72
682.62	27040.21
682.76	26654.02
682.90	26691.47
683.04	26260.81
683.17	26401.24
683.31	26436.35
683.45	26106.34
683.59	26087.61
683.72	26008.03
683.86	25729.51
684.00	26040.80
684.13	25827.81
684.27	25465.03
684.41	25694.40
684.55	25425.24
684.68	25120.97
684.82	25125.65
684.96	25001.60
685.09	25064.80
685.23	25188.85
685.37	24959.47
685.50	25167.78
685.64	25048.41
685.78	24533.50
685.91	24725.42
686.05	24683.29
686.19	24151.99
686.32	24077.09
686.46	23997.51
686.60	23768.14
686.73	23674.52
686.87	23271.95
687.01	23412.38
687.14	23236.84
687.28	23290.67
687.42	23510.68
687.55	23459.19
687.69	23346.84
687.82	23569.19
687.96	23346.84
688.10	23016.83
688.23	22878.74
688.37	22707.88
688.50	22946.61
688.64	22923.21
688.78	22780.43
688.91	22492.55
689.05	22504.25
689.18	22511.27
689.32	22141.47
689.46	22342.75
689.59	22216.36
689.73	22476.16
689.86	22148.49
690.00	22033.80
690.13	22068.91
690.27	21439.31
690.41	21586.76
690.54	21525.91
690.68	21846.56
690.81	21570.38
690.95	21745.92
691.08	21376.11
691.22	21633.57
691.35	21596.12
691.49	21308.24
691.62	21202.91
691.76	21048.44
691.89	21247.38
692.03	20744.17
692.16	20844.81
692.30	20517.14
692.43	20688.00
692.57	20421.17
692.70	20503.09
692.84	20379.04
692.97	20325.21
693.11	20215.21
693.24	20219.89
693.38	20030.30
693.51	20191.80
693.65	20182.44
693.78	19697.95
693.92	19723.69
694.05	19662.84
694.19	19580.92
694.32	19396.02
694.45	19440.49
694.59	19548.15
694.72	19618.37
694.86	19538.79
694.99	18986.43
695.13	19227.50
695.26	18710.24
695.39	18637.69
695.53	18953.66
695.66	19225.16
695.80	18766.42
695.93	18661.09
696.07	18560.45
696.20	18822.59
696.33	18494.91
696.47	18239.79
696.60	18356.82
696.73	18314.69
696.87	18146.17
697.00	18427.04
697.14	17947.23
697.27	17668.70
697.40	17610.19
697.54	17483.80
697.67	17680.41
697.80	17312.94
697.94	17525.93
698.07	17451.03
698.21	17310.60
698.34	17163.15
698.47	17352.73
698.61	17135.06
698.74	16882.28
698.87	16945.48
699.01	16814.41
699.14	16472.69
699.27	16671.64
699.40	16418.86
699.54	16444.60
699.67	16297.15
699.80	16620.14
699.94	16091.18
700.07	16273.74
700.20	16168.42
700.34	16231.62
700.47	16049.05
700.60	16350.98
700.73	16362.69
700.87	16049.05
701.00	15679.25
701.13	15693.29
701.26	15925.00
701.40	15620.74
701.53	15529.45
701.66	15463.92
701.79	15438.17
701.93	15166.67
702.06	15178.37
702.19	15133.90
702.32	14913.89
702.46	14918.57
702.59	15398.38
702.72	15166.67
702.85	15112.84
702.99	14799.21
703.12	14817.93
703.25	14602.60
703.38	14539.41
703.51	14523.02
703.65	14745.38
703.78	14544.09
703.91	14244.50
704.04	14279.61
704.17	14218.75
704.31	14204.71
704.44	14146.20
704.57	13933.21
704.70	13951.93
704.83	13965.98
704.96	13872.36
705.10	13703.84
705.23	13706.18
>>>>>End Processed Spectral Data<<<<<
