SpectraSuite Data File
++++++++++++++++++++++++++++++++++++
Date: Fri Oct 25 10:47:05 EDT 2013
User: price-jones
Dark Spectrum Present: No
Reference Spectrum Present: No
Number of Sampled Component Spectra: 1
Spectrometers: USB2+H05261
Integration Time (usec): 100000 (USB2+H05261)
Spectra Averaged: 1 (USB2+H05261)
Boxcar Smoothing: 0 (USB2+H05261)
Correct for Electrical Dark: No (USB2+H05261)
Strobe/Lamp Enabled: No (USB2+H05261)
Correct for Detector Non-linearity: No (USB2+H05261)
Correct for Stray Light: No (USB2+H05261)
Number of Pixels in Processed Spectrum: 2048
>>>>>Begin Processed Spectral Data<<<<<
365.73	114.69
365.92	114.69
366.12	114.69
366.32	91.28
366.52	0.00
366.72	77.24
366.91	67.88
367.11	0.00
367.31	0.00
367.51	79.58
367.70	11.70
367.90	77.24
368.10	0.00
368.30	44.47
368.49	0.00
368.69	46.81
368.89	14.04
369.09	65.54
369.28	32.77
369.48	91.28
369.68	114.69
369.87	95.96
370.07	102.98
370.27	114.69
370.47	220.01
370.66	337.04
370.86	341.72
371.06	423.64
371.25	470.45
371.45	505.56
371.65	465.77
371.84	407.25
372.04	444.70
372.24	400.23
372.44	421.30
372.63	493.85
372.83	510.24
373.03	489.17
373.22	526.62
373.42	507.90
373.62	521.94
373.81	552.37
374.01	503.22
374.21	519.60
374.40	517.26
374.60	571.09
374.79	531.30
374.99	606.20
375.19	580.45
375.38	603.86
375.58	601.52
375.78	599.18
375.97	615.56
376.17	547.69
376.37	463.43
376.56	561.73
376.76	564.07
376.95	655.35
377.15	636.63
377.35	638.97
377.54	578.11
377.74	599.18
377.93	603.86
378.13	653.01
378.33	662.37
378.52	657.69
378.72	596.84
378.91	671.73
379.11	671.73
379.31	667.05
379.50	688.12
379.70	713.86
379.89	629.60
380.09	601.52
380.28	681.10
380.48	641.31
380.68	676.41
380.87	634.29
381.07	755.99
381.26	648.33
381.46	664.71
381.65	592.16
381.85	631.94
382.04	674.07
382.24	641.31
382.43	699.82
382.63	662.37
382.83	683.44
383.02	751.31
383.22	725.57
383.41	681.10
383.61	741.95
383.80	770.04
384.00	730.25
384.19	739.61
384.39	730.25
384.58	737.27
384.78	763.01
384.97	826.21
385.17	765.36
385.36	699.82
385.56	751.31
385.75	732.59
385.95	774.72
386.14	805.14
386.34	748.97
386.53	765.36
386.72	819.19
386.92	781.74
387.11	851.96
387.31	931.53
387.50	908.13
387.70	901.11
387.89	793.44
388.09	821.53
388.28	784.08
388.48	791.10
388.67	842.59
388.86	896.43
389.06	823.87
389.25	954.94
389.45	840.25
389.64	866.00
389.84	896.43
390.03	905.79
390.22	922.17
390.42	910.47
390.61	936.21
390.81	943.24
391.00	952.60
391.19	1018.13
391.39	997.07
391.58	1025.15
391.78	1011.11
391.97	903.45
392.16	985.37
392.36	1004.09
392.55	1029.84
392.75	926.85
392.94	957.28
393.13	957.28
393.33	950.26
393.52	976.00
393.71	954.94
393.91	973.66
394.10	1029.84
394.29	985.37
394.49	1064.94
394.68	1029.84
394.88	1224.10
395.07	1062.60
395.26	1043.88
395.46	1151.54
395.65	1181.97
395.84	1090.69
396.04	1149.20
396.23	1076.65
396.42	1163.25
396.62	1144.52
396.81	1172.61
397.00	1139.84
397.19	1210.06
397.39	1167.93
397.58	1238.14
397.77	1291.98
397.97	1221.76
398.16	1334.11
398.35	1233.46
398.55	1329.42
398.74	1341.13
398.93	1366.87
399.12	1329.42
399.32	1387.94
399.51	1240.48
399.70	1451.13
399.90	1247.51
400.09	1500.28
400.28	1465.18
400.47	1362.19
400.67	1383.26
400.86	1467.52
401.05	1514.33
401.24	1453.47
401.44	1612.63
401.63	1469.86
401.82	1526.03
402.01	1490.92
402.21	1519.01
402.40	1640.72
402.59	1547.09
402.78	1561.14
402.97	1504.96
403.17	1652.42
403.36	1565.82
403.55	1568.16
403.74	1661.78
403.93	1666.46
404.13	1640.72
404.32	1750.72
404.51	1629.01
404.70	1619.65
404.89	1673.48
405.09	1722.63
405.28	1823.28
405.47	1755.40
405.66	1687.53
405.85	1734.34
406.05	1755.40
406.24	1790.51
406.43	1870.09
406.62	1891.15
406.81	1928.60
407.00	1825.62
407.20	1907.54
407.39	1984.77
407.58	1977.75
407.77	1937.96
407.96	1937.96
408.15	1916.90
408.34	1973.07
408.54	1980.09
408.73	2078.40
408.92	2071.37
409.11	2064.35
409.30	2059.67
409.49	2031.58
409.68	1991.80
409.87	2015.20
410.07	2153.29
410.26	2237.55
410.45	2097.12
410.64	2115.84
410.83	2221.17
411.02	2298.41
411.21	2335.85
411.40	2331.17
411.59	2307.77
411.78	2328.83
411.98	2347.56
412.17	2382.67
412.36	2443.52
412.55	2415.43
412.74	2415.43
412.93	2466.92
413.12	2399.05
413.31	2569.91
413.50	2513.74
413.69	2562.89
413.88	2590.97
414.07	2509.05
414.26	2785.24
414.45	2691.62
414.64	2649.49
414.83	2729.06
415.02	2780.56
415.22	2792.26
415.41	2806.30
415.60	2731.41
415.79	2871.84
415.98	2829.71
416.17	2911.63
416.36	2939.71
416.55	2967.80
416.74	3005.25
416.93	2911.63
417.12	2832.05
417.31	3063.76
417.50	2956.10
417.69	3087.17
417.88	3096.53
418.07	3162.06
418.26	3190.15
418.45	3133.98
418.64	3187.81
418.83	3208.87
419.02	3054.40
419.21	3225.26
419.39	3279.09
419.58	3218.24
419.77	3304.84
419.96	3335.26
420.15	3361.01
420.34	3363.35
420.53	3440.59
420.72	3515.48
420.91	3405.48
421.10	3398.46
421.29	3513.14
421.48	3538.89
421.67	3468.67
421.86	3482.72
422.05	3351.65
422.24	3489.74
422.43	3456.97
422.61	3386.76
422.80	3545.91
422.99	3515.48
423.18	3449.95
423.37	3473.36
423.56	3541.23
423.75	3632.51
423.94	3508.46
424.13	3379.73
424.32	3288.45
424.50	3625.49
424.69	3700.39
424.88	3620.81
425.07	3550.59
425.26	3616.13
425.45	3658.26
425.64	3639.53
425.83	3515.48
426.01	3770.60
426.20	3660.60
426.39	3674.64
426.58	3522.51
426.77	3646.55
426.96	3639.53
427.15	3571.66
427.33	3667.62
427.52	3737.84
427.71	3662.94
427.90	3772.94
428.09	3794.01
428.28	3812.73
428.46	3758.90
428.65	3660.60
428.84	3852.52
429.03	3840.82
429.22	3953.16
429.40	3866.56
429.59	3962.53
429.78	3639.53
429.97	3763.58
430.16	3826.78
430.34	3871.25
430.53	3892.31
430.72	3892.31
430.91	3934.44
431.10	3885.29
431.28	4065.51
431.47	4131.05
431.66	4156.79
431.85	4088.92
432.03	4245.73
432.22	4243.39
432.41	4273.82
432.60	4210.62
432.79	4292.54
432.97	4255.09
433.16	4212.96
433.35	4297.22
433.54	4243.39
433.72	4369.78
433.91	4266.80
434.10	4367.44
434.28	4287.86
434.47	4402.55
434.66	4531.28
434.85	4484.47
435.03	4568.73
435.22	4641.28
435.41	4641.28
435.59	4533.62
435.78	4667.03
435.97	4753.63
436.16	4648.30
436.34	4718.52
436.53	4706.82
436.72	4725.54
436.90	4641.28
437.09	4816.82
437.28	4652.98
437.46	4734.90
437.65	4802.78
437.84	4809.80
438.02	4758.31
438.21	4629.58
438.40	4699.80
438.58	4952.57
438.77	4889.38
438.96	5057.90
439.14	5093.01
439.33	5193.65
439.52	5160.88
439.70	5128.11
439.89	5078.96
440.08	5172.58
440.26	5228.76
440.45	5174.92
440.63	5408.98
440.82	5408.98
441.01	5378.55
441.19	5338.76
441.38	5427.70
441.57	5540.05
441.75	5771.76
441.94	5696.86
442.12	5694.52
442.31	5792.83
442.50	5760.06
442.68	5659.42
442.87	5820.91
443.05	5748.36
443.24	5872.40
443.43	5722.61
443.61	5982.41
443.80	6008.16
443.98	5783.46
444.17	5633.67
444.35	5991.77
444.54	5991.77
444.73	6066.67
444.91	5973.05
445.10	5874.74
445.28	5832.62
445.47	5811.55
445.65	5928.58
445.84	5867.72
446.02	6003.47
446.21	6019.86
446.39	6010.50
446.58	6017.52
446.77	6078.37
446.95	5980.07
447.14	6176.67
447.32	6169.65
447.51	6029.22
447.69	5942.62
447.88	6036.24
448.06	6214.12
448.25	6129.86
448.43	6047.94
448.62	6270.30
448.80	6132.20
448.99	6225.82
449.17	6293.70
449.36	6108.80
449.54	6317.11
449.73	6366.26
449.91	6296.04
450.10	6370.94
450.28	6335.83
450.46	6338.17
450.65	6487.96
450.83	6408.39
451.02	6317.11
451.20	6658.82
451.39	6352.21
451.57	6422.43
451.76	6487.96
451.94	6551.16
452.13	6569.88
452.31	6628.40
452.49	6569.88
452.68	6595.63
452.86	6651.80
453.05	6569.88
453.23	6724.36
453.42	6633.08
453.60	6703.29
453.78	6771.17
453.97	6705.63
454.15	6630.74
454.34	6586.27
454.52	6895.22
454.70	6825.00
454.89	6820.32
455.07	6937.35
455.26	6909.26
455.44	7052.03
455.62	6834.36
455.81	6977.14
455.99	7035.65
456.17	7148.00
456.36	7002.88
456.54	7096.50
456.73	7070.76
456.91	7274.38
457.09	7288.43
457.28	7543.55
457.46	7311.83
457.64	7417.16
457.83	7492.05
458.01	7255.66
458.19	7538.87
458.38	7393.75
458.56	7492.05
458.74	7648.87
458.93	7487.37
459.11	7515.46
459.29	7702.70
459.48	7611.42
459.66	7606.74
459.84	7550.57
460.03	7740.15
460.21	7777.60
460.39	7641.85
460.57	7782.28
460.76	7733.13
460.94	7744.83
461.12	7868.88
461.31	7981.23
461.49	7791.64
461.67	7995.27
461.85	8210.60
462.04	7985.91
462.22	8472.74
462.40	8241.03
462.59	8067.83
462.77	8131.02
462.95	8161.45
463.13	7960.16
463.32	8042.08
463.50	8208.26
463.68	8510.19
463.86	8301.88
464.05	8060.80
464.23	8107.62
464.41	8292.52
464.59	8222.30
464.78	8531.25
464.96	8102.93
465.14	8351.03
465.32	8465.72
465.50	8517.21
465.69	8454.02
465.87	8301.88
466.05	8484.44
466.23	8386.14
466.41	8292.52
466.60	8627.21
466.78	8482.10
466.96	8451.67
467.14	8568.70
467.32	8475.08
467.51	8699.77
467.69	8381.46
467.87	8615.51
468.05	8870.63
468.23	8475.08
468.41	8702.11
468.60	8709.13
468.78	8709.13
468.96	8557.00
469.14	8912.76
469.32	8769.99
469.50	8793.39
469.69	8889.35
469.87	9114.05
470.05	8985.32
470.23	9090.64
470.41	9013.40
470.59	9254.48
470.77	8997.02
470.95	9069.58
471.14	9195.96
471.32	8994.68
471.50	9453.42
471.68	9425.34
471.86	9500.23
472.04	9406.61
472.22	9797.48
472.40	9439.38
472.58	9549.39
472.77	9654.71
472.95	9687.48
473.13	9907.49
473.31	9790.46
473.49	9631.30
473.67	9820.89
473.85	10001.11
474.03	9790.46
474.21	10083.03
474.39	10083.03
474.57	10031.54
474.75	10139.20
474.93	10068.98
475.12	10190.69
475.30	10263.25
475.48	10274.95
475.66	10558.16
475.84	10658.80
476.02	10621.35
476.20	10399.00
476.38	10551.14
476.56	10949.03
476.74	10918.60
476.92	11035.63
477.10	10822.64
477.28	10998.18
477.46	11105.84
477.64	11382.03
477.82	11178.40
478.00	11421.81
478.18	11386.71
478.36	11597.35
478.54	11590.33
478.72	11686.29
478.90	11836.09
479.08	12161.42
479.26	11960.14
479.44	12046.74
479.62	11939.07
479.80	12194.19
479.98	12372.07
480.16	12432.93
480.34	12594.42
480.52	12519.53
480.70	12723.15
480.88	12461.01
481.06	12760.60
481.24	12896.35
481.41	12954.87
481.59	12992.31
481.77	13151.47
481.95	13284.88
482.13	13387.86
482.31	13329.35
482.49	13664.05
482.67	13870.01
482.85	13881.72
483.03	13905.12
483.21	14139.18
483.39	14057.26
483.57	14052.58
483.74	14398.98
483.92	14520.68
484.10	14427.06
484.28	14796.87
484.46	14855.38
484.64	15087.09
484.82	14813.25
485.00	15154.97
485.18	14963.04
485.35	15424.13
485.53	15030.92
485.71	15077.73
485.89	15531.80
486.07	15267.31
486.25	15442.85
486.43	15925.00
486.61	16081.82
486.78	16137.99
486.96	16411.84
487.14	16465.67
487.32	16388.43
487.50	16741.85
487.68	16599.08
487.85	16903.35
488.03	17064.85
488.21	17027.40
488.39	17294.22
488.57	17310.60
488.75	17703.81
488.92	17605.51
489.10	17806.80
489.28	17888.71
489.46	18141.49
489.64	18066.60
489.81	18719.60
489.99	18335.76
490.17	18881.10
490.35	18590.88
490.53	18640.03
490.70	19061.32
490.88	18813.23
491.06	19257.93
491.24	19215.80
491.41	19522.41
491.59	19365.59
491.77	19431.13
491.95	19709.65
492.13	19957.75
492.30	19789.23
492.48	20245.63
492.66	20107.54
492.84	19913.28
493.01	20641.18
493.19	20353.30
493.37	20783.96
493.54	20758.21
493.72	20809.70
493.90	21085.89
494.08	20957.16
494.25	21378.45
494.43	21579.74
494.61	21635.91
494.79	21678.04
494.96	21755.28
495.14	21745.92
495.32	21886.35
495.49	21879.33
495.67	22352.12
495.85	22534.68
496.02	22120.40
496.20	22998.10
496.38	22675.11
496.55	22593.19
496.73	23178.33
496.91	23040.23
497.09	23190.03
497.26	23082.36
497.44	23213.43
497.62	23861.76
497.79	23693.24
497.97	23243.86
498.14	23477.91
498.32	23461.53
498.50	23931.98
498.67	24276.04
498.85	24123.90
499.03	24086.45
499.20	24409.45
499.38	24350.93
499.56	24592.01
499.73	24746.48
499.91	24882.24
500.08	24704.35
500.26	24687.97
500.44	24980.54
500.61	25193.53
500.79	25036.71
500.97	25296.51
501.14	25680.36
501.32	25362.04
501.49	25511.84
501.67	25331.62
501.84	25682.70
502.02	25549.29
502.20	25469.71
502.37	26185.91
502.55	25694.40
502.72	25804.41
502.90	26223.36
503.07	26469.12
503.25	26335.71
503.43	26635.30
503.60	26443.37
503.78	26347.41
503.95	26246.77
504.13	26834.24
504.30	26810.84
504.48	26679.77
504.65	27154.90
504.83	26993.40
505.01	27321.07
505.18	27391.29
505.36	27503.64
505.53	27314.05
505.71	27566.83
505.88	28163.67
506.06	27349.16
506.23	27850.03
506.41	27803.22
506.58	27880.46
506.76	27924.93
506.93	27592.58
507.11	28292.40
507.28	28020.89
507.46	28336.87
507.63	28077.07
507.81	28191.75
507.98	28381.34
508.16	28238.56
508.33	28725.39
508.50	28697.31
508.68	28924.34
508.85	29050.73
509.03	28650.50
509.20	28608.37
509.38	29003.92
509.55	29282.44
509.73	29450.96
509.90	29455.64
510.08	29376.06
510.25	29371.38
510.42	29434.58
510.60	30036.09
510.77	30026.73
510.95	30010.35
511.12	29898.00
511.30	30052.48
511.47	30080.56
511.64	30249.08
511.82	30169.51
511.99	30096.95
512.17	30389.52
512.34	30403.56
512.51	30522.93
512.69	30855.28
512.86	30707.83
513.04	30969.97
513.21	30859.96
513.38	30820.17
513.56	30810.81
513.73	30951.24
513.90	31033.16
514.08	31318.71
514.25	31150.19
514.43	31386.58
514.60	30906.77
514.77	31562.12
514.95	31639.36
515.12	31789.16
515.29	31557.44
515.47	31763.41
515.64	32535.79
515.81	31894.48
515.99	31901.50
516.16	32039.59
516.33	31618.30
516.51	31978.74
516.68	31948.31
516.85	31835.97
517.03	32184.71
517.20	32156.62
517.37	32472.59
517.54	32346.20
517.72	32582.60
517.89	32212.79
518.06	32346.20
518.24	32683.24
518.41	32610.68
518.58	32760.48
518.75	32720.69
518.93	33373.70
519.10	33041.34
519.27	33195.82
519.45	33237.95
519.62	33067.09
519.79	33359.66
519.96	33280.08
520.14	33621.80
520.31	33479.02
520.48	33251.99
520.65	33640.52
520.83	34068.84
521.00	34160.12
521.17	33951.81
521.34	34260.76
521.52	34080.54
521.69	34073.52
521.86	34094.58
522.03	34022.03
522.20	34258.42
522.38	34375.45
522.55	34340.34
522.72	34356.72
522.89	34768.66
523.07	34562.69
523.24	34466.73
523.41	34967.60
523.58	34974.63
523.75	35318.68
523.92	34794.40
524.10	34998.03
524.27	35229.74
524.44	35129.10
524.61	35346.77
524.78	34995.69
524.96	35409.96
525.13	35604.23
525.30	36126.17
525.47	36046.59
525.64	35782.11
525.81	35871.05
525.98	36025.53
526.16	35585.50
526.33	35503.59
526.50	36070.00
526.67	36072.34
526.84	35931.90
527.01	35800.83
527.18	35620.61
527.36	36161.28
527.53	36081.70
527.70	36685.56
527.87	36552.15
528.04	36107.44
528.21	36093.40
528.38	36254.90
528.55	37069.40
528.72	36704.28
528.89	36994.51
529.07	36769.82
529.24	36343.84
529.41	36865.78
529.58	36615.34
529.75	36987.49
529.92	37043.66
530.09	36996.85
530.26	36893.86
530.43	37521.13
530.60	37106.85
530.77	37453.25
530.94	37038.98
531.11	36982.80
531.28	37467.30
531.46	37528.15
531.63	37691.99
531.80	37174.73
531.97	37455.59
532.14	37881.57
532.31	36931.31
532.48	38146.05
532.65	37785.61
532.82	37558.58
532.99	37940.08
533.16	37474.32
533.33	37881.57
533.50	37923.70
533.67	37970.51
533.84	37677.94
534.01	37816.04
534.18	38225.63
534.35	38841.19
534.52	38263.08
534.69	38347.34
534.86	38333.29
535.03	38267.76
535.20	38656.29
535.37	38724.16
535.54	39002.69
535.71	38476.07
535.88	38410.53
536.05	38691.40
536.22	38752.25
536.38	38714.80
536.55	39049.50
536.72	38733.53
536.89	38998.01
537.06	39225.04
537.23	38726.50
537.40	39096.31
537.57	39117.37
537.74	39100.99
537.91	39456.75
538.08	39358.45
538.25	39335.04
538.42	39398.24
538.59	39416.96
538.75	39143.12
538.92	39356.11
539.09	39363.13
539.26	39679.10
539.43	39798.47
539.60	39512.92
539.77	39585.48
539.94	39323.34
540.11	39267.17
540.28	39814.85
540.44	39250.78
540.61	39964.65
540.78	39826.56
540.95	39985.71
541.12	39721.23
541.29	39779.74
541.46	39768.04
541.62	40076.99
541.79	40135.51
541.96	40027.84
542.13	40304.02
542.30	39955.29
542.47	40128.48
542.63	39938.90
542.80	40289.98
542.97	40561.48
543.14	41148.96
543.31	40868.09
543.48	40837.67
543.64	41027.25
543.81	41200.45
543.98	40971.08
544.15	41336.20
544.32	41209.81
544.48	41298.75
544.65	41123.21
544.82	41504.72
544.99	40664.47
545.16	41446.21
545.32	40832.99
545.49	41448.55
545.66	41450.89
545.83	41373.65
546.00	41455.57
546.16	41427.48
546.33	41432.16
546.50	40673.83
546.67	41574.94
546.83	40898.52
547.00	41453.23
547.17	41556.21
547.34	41184.07
547.50	41706.01
547.67	41729.41
547.84	41656.85
548.00	41624.09
548.17	42080.49
548.34	41937.72
548.51	41865.16
548.67	42024.32
548.84	42043.04
549.01	41886.23
549.18	42050.06
549.34	42234.97
549.51	42157.73
549.68	42033.68
549.84	42295.82
550.01	42494.77
550.18	42019.64
550.34	42213.90
550.51	42143.69
550.68	42192.84
550.84	41844.10
551.01	42160.07
551.18	42541.58
551.34	42260.71
551.51	42370.72
551.68	42656.26
551.84	42862.23
552.01	42377.74
552.18	42239.65
552.34	42258.37
552.51	42616.47
552.68	42401.14
552.84	42602.43
553.01	43009.68
553.18	42548.60
553.34	42906.70
553.51	42738.18
553.67	42487.74
553.84	43257.78
554.01	43030.75
554.17	43035.43
554.34	43386.51
554.51	42822.44
554.67	43217.99
554.84	42770.95
555.00	42951.17
555.17	43105.65
555.33	43332.68
555.50	43115.01
555.67	42831.80
555.83	43255.44
556.00	43274.16
556.16	43643.97
556.33	43676.74
556.50	43519.92
556.66	43225.01
556.83	42784.99
556.99	43480.13
557.16	43540.99
557.32	43136.07
557.49	43487.15
557.65	43208.63
557.82	43498.86
557.98	43318.64
558.15	43456.73
558.32	43723.55
558.48	43505.88
558.65	43615.88
558.81	43402.89
558.98	43330.34
559.14	43475.45
559.31	43454.39
559.47	43807.81
559.64	43901.43
559.80	43702.48
559.97	43863.98
560.13	43590.14
560.30	43543.33
560.46	43908.45
560.63	43653.33
560.79	44030.16
560.96	44151.87
561.12	43976.33
561.29	44041.86
561.45	43969.30
561.61	43805.47
561.78	43812.49
561.94	43660.35
562.11	44069.95
562.27	43735.25
562.44	43885.04
562.60	44041.86
562.77	44280.60
562.93	43765.68
563.10	43746.95
563.26	43583.12
563.42	44486.56
563.59	43714.19
563.75	44149.53
563.92	44346.13
564.08	44186.97
564.24	44360.17
564.41	44226.76
564.57	44095.69
564.74	44100.37
564.90	44409.32
565.07	44098.03
565.23	44306.34
565.39	44011.43
565.56	44446.77
565.72	43983.35
565.88	44191.65
566.05	44320.38
566.21	43966.96
566.38	43763.34
566.54	43990.37
566.70	44547.42
566.87	44615.29
567.03	44231.44
567.19	44732.32
567.36	44825.94
567.52	44072.29
567.68	44582.52
567.85	44299.32
568.01	44542.74
568.17	44493.58
568.34	44715.93
568.50	44755.72
568.66	44524.01
568.83	44823.60
568.99	44634.02
569.15	44381.24
569.32	44566.14
569.48	44547.42
569.64	45095.10
569.81	44863.39
569.97	44151.87
570.13	44168.25
570.30	44079.31
570.46	44065.27
570.62	44142.50
570.78	44215.06
570.95	44294.64
571.11	44608.27
571.27	44533.37
571.43	44729.98
571.60	44498.26
571.76	44163.57
571.92	44662.10
572.09	44231.44
572.25	44367.20
572.41	44289.96
572.57	44942.97
572.74	45162.98
572.90	44762.75
573.06	44491.24
573.22	44683.17
573.38	44594.23
573.55	44559.12
573.71	44666.78
573.87	44584.86
574.03	44385.92
574.20	44568.48
574.36	44666.78
574.52	44825.94
574.68	44947.65
574.84	44708.91
575.01	44638.70
575.17	44282.94
575.33	44601.25
575.49	44856.37
575.65	44917.22
575.82	44638.70
575.98	44598.91
576.14	44849.35
576.30	44924.24
576.46	44362.51
576.62	44671.46
576.79	44526.35
576.95	44491.24
577.11	45048.29
577.27	44882.11
577.43	44966.37
577.59	44737.00
577.75	45081.06
577.92	44311.02
578.08	44589.55
578.24	45148.93
578.40	44868.07
578.56	44811.90
578.72	44715.93
578.88	45102.12
579.04	44655.08
579.21	44762.75
579.37	44619.97
579.53	44900.84
579.69	44516.99
579.85	44835.30
580.01	44830.62
580.17	44823.60
580.33	45048.29
580.49	45024.89
580.65	44968.71
580.82	44863.39
580.98	44622.31
581.14	44704.23
581.30	45125.53
581.46	44694.87
581.62	44795.51
581.78	44968.71
581.94	45043.61
582.10	44928.92
582.26	45282.34
582.42	45071.70
582.58	45289.37
582.74	44652.74
582.90	45020.20
583.06	45191.06
583.22	45308.09
583.38	44978.07
583.54	45024.89
583.70	44795.51
583.86	44765.09
584.02	44339.11
584.18	44776.79
584.34	45443.84
584.50	45633.42
584.66	44875.09
584.82	44830.62
584.98	45155.96
585.14	45223.83
585.30	44900.84
585.46	45146.59
585.62	44814.24
585.78	44842.32
585.94	44577.84
586.10	44734.66
586.26	44821.26
586.42	44779.13
586.58	44964.03
586.74	45165.32
586.90	44966.37
587.06	44804.88
587.22	44933.60
587.38	44727.64
587.54	45244.90
587.70	45275.32
587.86	45233.19
588.02	45191.06
588.18	45312.77
588.34	44823.60
588.49	44589.55
588.65	44439.75
588.81	44816.58
588.97	44854.03
589.13	44624.65
589.29	44378.90
589.45	45221.49
589.61	45144.25
589.77	45256.60
589.93	45258.94
590.08	45193.40
590.24	45247.24
590.40	45134.89
590.56	45275.32
590.72	45181.70
590.88	45104.46
591.04	45158.30
591.20	45359.58
591.35	45282.34
591.51	46005.57
591.67	45240.21
591.83	45228.51
591.99	45186.38
592.15	44926.58
592.31	45296.39
592.46	45268.30
592.62	44802.53
592.78	44884.45
592.94	45464.91
593.10	45345.54
593.26	45443.84
593.41	45177.02
593.57	45048.29
593.73	45184.04
593.89	45581.93
594.05	45303.41
594.20	45076.38
594.36	45619.38
594.52	44938.29
594.68	45165.32
594.84	45469.59
594.99	45801.94
595.15	45059.99
595.31	45773.86
595.47	45167.66
595.62	45282.34
595.78	45322.13
595.94	45106.80
596.10	45329.16
596.25	45511.72
596.41	45612.36
596.57	45401.71
596.73	45413.41
596.88	44896.16
597.04	45179.36
597.20	45235.53
597.36	45558.53
597.51	45373.63
597.67	45055.31
597.83	45343.20
597.99	45745.77
598.14	45446.18
598.30	45022.54
598.46	44746.36
598.61	45247.24
598.77	44917.22
598.93	44818.92
599.09	45581.93
599.24	45610.02
599.40	45350.22
599.56	45787.90
599.71	45698.96
599.87	45834.71
600.03	45207.45
600.18	45441.50
600.34	45170.00
600.50	45195.74
600.65	45338.52
600.81	45544.48
600.97	45399.37
601.12	45858.12
601.28	45500.01
601.44	45319.79
601.59	45287.03
601.75	45366.60
601.91	45638.11
602.06	44919.56
602.22	45123.19
602.37	45272.98
602.53	45366.60
602.69	45607.68
602.84	45385.33
603.00	44940.63
603.16	45291.71
603.31	45675.55
603.47	45200.43
603.62	45076.38
603.78	45017.86
603.94	45492.99
604.09	45841.73
604.25	45485.97
604.40	45462.57
604.56	45483.63
604.71	45221.49
604.87	44861.05
605.03	45551.51
605.18	45097.44
605.34	45628.74
605.49	44914.88
605.65	45551.51
605.80	44793.17
605.96	45354.90
606.12	45591.30
606.27	45762.15
606.43	45242.56
606.58	45415.76
606.74	45275.32
606.89	45221.49
607.05	45074.04
607.20	45387.67
607.36	45275.32
607.51	45443.84
607.67	45406.39
607.82	45317.45
607.98	44889.13
608.13	45228.51
608.29	44949.99
608.44	44837.64
608.60	44432.73
608.75	44940.63
608.91	44584.86
609.06	44744.02
609.22	45179.36
609.37	44659.76
609.53	44741.68
609.68	44896.16
609.84	44891.48
609.99	44940.63
610.15	44823.60
610.30	45130.21
610.46	44989.78
610.61	45057.65
610.76	44538.05
610.92	44825.94
611.07	44624.65
611.23	44458.48
611.38	44964.03
611.54	44605.93
611.69	44531.03
611.84	44383.58
612.00	44296.98
612.15	44409.32
612.31	44341.45
612.46	44711.25
612.62	44722.96
612.77	44589.55
612.92	44912.54
613.08	44596.57
613.23	44760.40
613.39	44371.88
613.54	43927.17
613.69	44563.80
613.85	44442.09
614.00	44271.23
614.15	44746.36
614.31	44814.24
614.46	44919.56
614.62	44603.59
614.77	44126.12
614.92	44278.25
615.08	44259.53
615.23	44177.61
615.38	43863.98
615.54	44194.00
615.69	43730.57
615.84	43962.28
616.00	44376.56
616.15	44229.10
616.30	44570.82
616.46	43800.79
616.61	44095.69
616.76	43658.01
616.92	44009.09
617.07	43957.60
617.22	44032.50
617.37	43847.60
617.53	44273.57
617.68	43611.20
617.83	43863.98
617.99	44112.08
618.14	44198.68
618.29	43679.08
618.45	44006.75
618.60	43824.19
618.75	43906.11
618.90	43882.70
619.06	43892.07
619.21	44025.48
619.36	44025.48
619.51	43725.89
619.67	43374.81
619.82	43552.69
619.97	43793.76
620.12	43335.02
620.28	43255.44
620.43	43391.19
620.58	43512.90
620.73	43821.85
620.89	43386.51
621.04	43306.93
621.19	43452.05
621.34	43138.41
621.49	43217.99
621.65	43536.30
621.80	43498.86
621.95	43463.75
622.10	43091.60
622.25	43552.69
622.41	43126.71
622.56	43021.39
622.71	43187.56
622.86	42974.58
623.01	43260.12
623.16	43449.70
623.32	43288.21
623.47	43365.45
623.62	43648.65
623.77	42763.93
623.92	42820.10
624.07	42621.16
624.23	42663.28
624.38	42724.14
624.53	42799.04
624.68	43140.75
624.83	42319.23
624.98	42445.62
625.13	42813.08
625.29	42597.75
625.44	42569.66
625.59	42527.53
625.74	42424.55
625.89	42244.33
626.04	42213.90
626.19	42209.22
626.34	42504.13
626.49	42735.84
626.65	42401.14
626.80	42855.21
626.95	42366.04
627.10	42216.24
627.25	42057.09
627.40	42389.44
627.55	42014.96
627.70	41879.21
627.85	41432.16
628.00	42188.16
628.15	42351.99
628.30	42188.16
628.45	42263.05
628.60	41911.97
628.76	42195.18
628.91	42033.68
629.06	42129.64
629.21	41769.20
629.36	41904.95
629.51	41558.55
629.66	41993.89
629.81	41532.81
629.96	41687.28
630.11	41804.31
630.26	41970.49
630.41	42143.69
630.56	41549.19
630.71	42160.07
630.86	41481.31
631.01	41535.15
631.16	41918.99
631.31	41443.87
631.46	41359.61
631.61	41652.17
631.76	41249.60
631.91	41588.98
632.06	41553.87
632.21	41766.86
632.36	41380.67
632.51	41359.61
632.66	41902.61
632.81	41340.88
632.96	41235.56
633.10	41083.42
633.25	40872.78
633.40	41200.45
633.55	40985.12
633.70	41315.14
633.85	41350.24
634.00	41404.08
634.15	40870.43
634.30	40863.41
634.45	40940.65
634.60	40772.13
634.75	40868.09
634.90	41053.00
635.05	40727.66
635.19	41048.32
635.34	40730.00
635.49	40617.66
635.64	40638.72
635.79	40559.14
635.94	40673.83
636.09	40882.14
636.24	40608.29
636.39	40439.78
636.53	40753.41
636.68	40198.70
636.83	40758.09
636.98	41081.08
637.13	40486.59
637.28	40865.75
637.43	40535.74
637.57	40947.67
637.72	41048.32
637.87	41118.53
638.02	40500.63
638.17	40458.50
638.32	39606.55
638.46	39920.18
638.61	40311.05
638.76	40027.84
638.91	40397.65
639.06	40968.74
639.20	40336.79
639.35	40222.11
639.50	39959.97
639.65	40346.15
639.80	40514.67
639.94	40079.33
640.09	39845.28
640.24	39798.47
640.39	40128.48
640.54	39414.62
640.68	39856.98
640.83	39964.65
640.98	39812.51
641.13	39681.44
641.27	40257.21
641.42	39679.10
641.57	40189.34
641.72	39838.26
641.86	39613.57
642.01	39775.06
642.16	39454.41
642.31	39433.35
642.45	39625.27
642.60	39496.54
642.75	39828.90
642.90	39583.14
643.04	39489.52
643.19	39311.64
643.34	39751.66
643.48	39548.03
643.63	39704.85
643.78	39285.89
643.93	38946.51
644.07	39328.02
644.22	39138.44
644.37	39484.84
644.51	39093.97
644.66	39152.48
644.81	39592.50
644.95	39452.07
645.10	39274.19
645.25	39496.54
645.39	39262.49
645.54	39592.50
645.69	39330.36
645.83	38937.15
645.98	39051.84
646.13	39124.40
646.27	39423.98
646.42	38696.08
646.57	39068.22
646.71	38923.11
646.86	38990.98
647.00	39384.19
647.15	38972.26
647.30	39239.08
647.44	38740.55
647.59	38679.69
647.74	38672.67
647.88	38176.48
648.03	38398.83
648.17	39047.16
648.32	38359.04
648.47	38904.38
648.61	38440.96
648.76	39096.31
648.90	38946.51
649.05	38649.27
649.20	38401.17
649.34	38705.44
649.49	38279.46
649.63	38333.29
649.78	38602.46
649.92	38342.66
650.07	38803.74
650.21	38316.91
650.36	38705.44
650.51	38349.68
650.65	38721.82
650.80	38370.74
650.94	38684.37
651.09	38148.39
651.23	37904.98
651.38	37991.58
651.52	38438.62
651.67	38237.33
651.81	38410.53
651.96	37965.83
652.10	38066.47
652.25	37441.55
652.39	38213.93
652.54	38066.47
652.68	38328.61
652.83	38064.13
652.97	37720.07
653.12	38132.01
653.26	37294.10
653.41	38136.69
653.55	37675.60
653.70	37914.34
653.84	37881.57
653.99	37893.27
654.13	37862.85
654.27	37638.15
654.42	37769.22
654.56	37439.21
654.71	37778.59
654.85	37495.38
655.00	37600.71
655.14	37635.81
655.29	37024.93
655.43	37242.60
655.57	36643.43
655.72	37247.29
655.86	37282.39
656.01	36875.14
656.15	37113.87
656.30	37167.71
656.44	36921.95
656.58	37034.30
656.73	36739.39
656.87	37102.17
657.01	36748.75
657.16	36676.19
657.30	36947.70
657.45	36914.93
657.59	37127.92
657.73	36538.10
657.88	37184.09
658.02	36463.21
658.16	37275.37
658.31	37270.69
658.45	36947.70
658.60	36985.15
658.74	36788.54
658.88	37069.40
659.03	36535.76
659.17	36732.37
659.31	36257.24
659.46	36205.75
659.60	36477.25
659.74	36313.41
659.89	36151.91
660.03	36025.53
660.17	36507.68
660.32	36044.25
660.46	36264.26
660.60	36079.36
660.74	36238.51
660.89	36416.40
661.03	36018.50
661.17	35950.63
661.32	36034.89
661.46	35583.16
661.60	35761.05
661.74	35665.08
661.89	36203.41
662.03	35962.33
662.17	35887.43
662.31	35805.52
662.46	35842.96
662.60	35452.09
662.74	35456.78
662.88	35232.08
663.03	35393.58
663.17	35831.26
663.31	35667.42
663.45	35590.19
663.60	35608.91
663.74	34991.01
663.88	35264.85
664.02	35026.12
664.17	35304.64
664.31	34792.06
664.45	34761.64
664.59	34834.19
664.73	35274.21
664.88	35157.19
665.02	34288.85
665.16	35159.53
665.30	34574.39
665.44	34911.43
665.59	34281.83
665.73	34572.05
665.87	34274.80
666.01	34298.21
666.15	34213.95
666.29	34029.05
666.44	34532.26
666.58	34363.75
666.72	34391.83
666.86	34426.94
667.00	34485.45
667.14	34253.74
667.28	33462.64
667.43	33951.81
667.57	33858.19
667.71	33841.81
667.85	33963.51
667.99	34017.35
668.13	33736.48
668.27	33415.83
668.41	33900.32
668.56	33324.55
668.70	33958.83
668.84	33429.87
668.98	33397.10
669.12	33546.90
669.26	33523.49
669.40	33329.23
669.54	32884.53
669.68	33242.63
669.82	32875.16
669.96	33083.47
670.10	32870.48
670.25	33275.40
670.39	33177.09
670.53	32954.74
670.67	32617.71
670.81	32732.39
670.95	33001.55
671.09	32568.55
671.23	32807.29
671.37	32606.00
671.51	32580.26
671.65	32194.07
671.79	32091.09
671.93	32044.27
672.07	32809.63
672.21	32224.50
672.35	32381.31
672.49	32140.24
672.63	32149.60
672.77	31880.44
672.91	31597.23
673.05	31466.16
673.19	31482.55
673.33	31576.17
673.47	31311.69
673.61	31501.27
673.75	31328.07
673.89	31157.21
674.03	30946.56
674.17	31288.28
674.31	31288.28
674.45	31166.57
674.59	30747.62
674.73	31239.13
674.87	31016.78
675.01	31323.39
675.15	31147.85
675.29	30822.51
675.43	30771.02
675.56	30476.12
675.70	30387.18
675.84	30408.24
675.98	29184.14
676.12	30139.08
676.26	29818.42
676.40	29996.31
676.54	30008.01
676.68	29696.72
676.82	29432.24
676.96	29783.32
677.10	29453.30
677.23	29956.52
677.37	29752.89
677.51	29060.09
677.65	29530.54
677.79	29476.71
677.93	29324.57
678.07	29270.74
678.21	28706.67
678.34	28755.82
678.48	28847.10
678.62	28503.04
678.76	28807.31
678.90	28133.24
679.04	28519.43
679.18	28601.35
679.31	27962.38
679.45	28032.60
679.59	28030.26
679.73	27924.93
679.87	27646.41
680.00	27812.59
680.14	27531.72
680.28	27754.07
680.42	27637.05
680.56	27594.92
680.70	27182.98
680.83	27496.61
680.97	27147.87
681.11	27372.57
681.25	26546.36
681.39	26845.94
681.52	27002.76
681.66	27049.57
681.80	26731.26
681.94	26644.66
682.07	26675.09
682.21	26405.92
682.35	26331.03
682.49	26672.74
682.62	26441.03
682.76	25956.54
682.90	25589.08
683.04	26382.52
683.17	26169.53
683.31	26232.72
683.45	26043.14
683.59	25860.58
683.72	25324.60
683.86	25399.49
684.00	25336.30
684.13	25181.82
684.27	25542.27
684.41	25357.36
684.55	25371.41
684.68	25270.76
684.82	25029.69
684.96	25029.69
685.09	24620.10
685.23	24357.96
685.37	24545.20
685.50	24505.41
685.64	24627.12
685.78	24187.10
685.91	24224.54
686.05	24243.27
686.19	23840.70
686.32	23730.69
686.46	23871.12
686.60	23604.30
686.73	23489.62
686.87	23466.21
687.01	23459.19
687.14	23407.70
687.28	23192.37
687.42	23173.64
687.55	23248.54
687.69	23264.92
687.82	22986.40
687.96	22867.03
688.10	22796.82
688.23	22892.78
688.37	22527.66
688.50	22118.06
688.64	22490.21
688.78	22373.18
688.91	22094.66
689.05	22061.89
689.18	22097.00
689.32	22026.78
689.46	22129.77
689.59	22251.47
689.73	21968.27
689.86	21603.14
690.00	21884.01
690.13	22068.91
690.27	21605.49
690.41	21628.89
690.54	21490.80
690.68	21198.23
690.81	21270.79
690.95	20929.07
691.08	20978.22
691.22	20882.26
691.35	20982.90
691.49	20966.52
691.62	21252.06
691.76	20900.98
691.89	20664.59
692.03	20428.20
692.16	20460.96
692.30	20170.74
692.43	20212.87
692.57	20266.70
692.70	20126.27
692.84	20091.16
692.97	19676.88
693.11	19796.25
693.24	19969.45
693.38	19826.68
693.51	19658.16
693.65	19648.80
693.78	19534.11
693.92	19814.98
694.05	19660.50
694.19	19161.97
694.32	18951.32
694.45	19271.97
694.59	18771.10
694.72	19012.17
694.86	18838.97
694.99	18724.29
695.13	18574.49
695.26	18265.54
695.39	18256.18
695.53	18513.64
695.66	18412.99
695.80	18242.14
695.93	18424.70
696.07	18230.43
696.20	18141.49
696.33	17668.70
696.47	18071.28
696.60	18237.45
696.73	17776.37
696.87	17626.57
697.00	18029.15
697.14	17965.95
697.27	17818.50
697.40	17792.75
697.54	17603.17
697.67	17418.27
697.80	17303.58
697.94	17516.57
698.07	17224.00
698.21	17142.08
698.34	17376.14
698.47	16727.81
698.61	16762.92
698.74	16613.12
698.87	16734.83
699.01	16446.94
699.14	16559.29
699.27	16451.63
699.40	16362.69
699.54	16278.43
699.67	16248.00
699.80	15922.66
699.94	16025.65
700.07	16140.33
700.20	16098.20
700.34	15665.21
700.47	15829.04
700.60	15913.30
700.73	15936.71
700.87	15737.76
701.00	15709.68
701.13	15651.16
701.26	15522.43
701.40	15484.98
701.53	15468.60
701.66	15358.60
701.79	14956.02
701.93	14953.68
702.06	15110.50
702.19	14876.44
702.32	14920.92
702.46	14963.04
702.59	14850.70
702.72	14764.10
702.85	14656.43
702.99	14967.73
703.12	14590.90
703.25	14757.08
703.38	14434.08
703.51	14532.39
703.65	14258.54
703.78	14387.27
703.91	14232.80
704.04	14204.71
704.17	14167.26
704.31	14115.77
704.44	13664.05
704.57	13586.81
704.70	13724.90
704.83	13631.28
704.96	13696.82
705.10	13561.06
705.23	13762.35
>>>>>End Processed Spectral Data<<<<<
