SpectraSuite Data File
++++++++++++++++++++++++++++++++++++
Date: Fri Oct 25 11:34:47 EDT 2013
User: price-jones
Dark Spectrum Present: No
Reference Spectrum Present: No
Number of Sampled Component Spectra: 1
Spectrometers: USB2+H05261
Integration Time (usec): 100000 (USB2+H05261)
Spectra Averaged: 1 (USB2+H05261)
Boxcar Smoothing: 0 (USB2+H05261)
Correct for Electrical Dark: No (USB2+H05261)
Strobe/Lamp Enabled: No (USB2+H05261)
Correct for Detector Non-linearity: No (USB2+H05261)
Correct for Stray Light: No (USB2+H05261)
Number of Pixels in Processed Spectrum: 2048
>>>>>Begin Processed Spectral Data<<<<<
365.73	262.14
365.92	262.14
366.12	262.14
366.32	210.65
366.52	163.84
366.72	262.14
366.91	182.56
367.11	175.54
367.31	145.11
367.51	234.05
367.70	189.58
367.90	222.35
368.10	205.97
368.30	161.50
368.49	161.50
368.69	208.31
368.89	203.63
369.09	189.58
369.28	262.14
369.48	234.05
369.68	208.31
369.87	304.27
370.07	248.10
370.27	231.71
370.47	341.72
370.66	528.96
370.86	533.64
371.06	564.07
371.25	599.18
371.45	540.66
371.65	559.39
371.84	578.11
372.04	507.90
372.24	528.96
372.44	559.39
372.63	512.58
372.83	617.90
373.03	594.50
373.22	592.16
373.42	599.18
373.62	603.86
373.81	662.37
374.01	657.69
374.21	622.58
374.40	631.94
374.60	681.10
374.79	681.10
374.99	622.58
375.19	734.93
375.38	648.33
375.58	669.39
375.78	641.31
375.97	730.25
376.17	763.01
376.37	699.82
376.56	697.48
376.76	688.12
376.95	671.73
377.15	683.44
377.35	655.35
377.54	702.16
377.74	622.58
377.93	627.26
378.13	699.82
378.33	711.52
378.52	711.52
378.72	650.67
378.91	709.18
379.11	772.38
379.31	643.65
379.50	667.05
379.70	737.27
379.89	788.76
380.09	702.16
380.28	760.67
380.48	763.01
380.68	645.99
380.87	791.10
381.07	755.99
381.26	833.23
381.46	767.70
381.65	732.59
381.85	795.78
382.04	683.44
382.24	772.38
382.43	828.55
382.63	777.06
382.83	786.42
383.02	779.40
383.22	772.38
383.41	739.61
383.61	770.04
383.80	833.23
384.00	730.25
384.19	770.04
384.39	851.96
384.58	844.93
384.78	870.68
384.97	812.17
385.17	793.44
385.36	816.85
385.56	788.76
385.75	837.91
385.95	898.77
386.14	894.08
386.34	870.68
386.53	835.57
386.72	840.25
386.92	866.00
387.11	866.00
387.31	891.74
387.50	798.12
387.70	837.91
387.89	866.00
388.09	861.32
388.28	898.77
388.48	901.11
388.67	784.08
388.86	964.30
389.06	957.28
389.25	903.45
389.45	882.38
389.64	929.19
389.84	968.98
390.03	1013.45
390.22	997.07
390.42	922.17
390.61	950.26
390.81	966.64
391.00	931.53
391.19	978.34
391.39	1046.22
391.58	1013.45
391.78	983.02
391.97	999.41
392.16	1027.50
392.36	1004.09
392.55	1039.20
392.75	990.05
392.94	1036.86
393.13	1018.13
393.33	997.07
393.52	1013.45
393.71	1046.22
393.91	1034.52
394.10	945.58
394.29	1034.52
394.49	1121.12
394.68	1128.14
394.88	983.02
395.07	1160.91
395.26	1001.75
395.46	1086.01
395.65	1146.86
395.84	1135.16
396.04	1193.67
396.23	1165.59
396.42	1165.59
396.62	1139.84
396.81	1212.40
397.00	1165.59
397.19	1203.04
397.39	1118.78
397.58	1270.91
397.77	1156.22
397.97	1280.27
398.16	1210.06
398.35	1193.67
398.55	1235.80
398.74	1263.89
398.93	1254.53
399.12	1198.35
399.32	1219.42
399.51	1343.47
399.70	1327.08
399.90	1270.91
400.09	1322.40
400.28	1336.45
400.47	1331.76
400.67	1350.49
400.86	1226.44
401.05	1245.16
401.24	1401.98
401.44	1315.38
401.63	1369.21
401.82	1317.72
402.01	1378.58
402.21	1348.15
402.40	1430.07
402.59	1495.60
402.78	1472.20
402.97	1530.71
403.17	1530.71
403.36	1465.18
403.55	1519.01
403.74	1441.77
403.93	1577.52
404.13	1572.84
404.32	1516.67
404.51	1495.60
404.70	1600.93
404.89	1497.94
405.09	1579.86
405.28	1593.90
405.47	1568.16
405.66	1610.29
405.85	1659.44
406.05	1584.54
406.24	1680.50
406.43	1659.44
406.62	1736.68
406.81	1865.41
407.00	1664.12
407.20	1706.25
407.39	1748.38
407.58	1746.04
407.77	1816.26
407.96	1809.23
408.15	1818.60
408.34	1774.13
408.54	1825.62
408.73	1863.07
408.92	1750.72
409.11	1839.66
409.30	1858.39
409.49	1881.79
409.68	1898.17
409.87	1820.94
410.07	1909.88
410.26	1968.39
410.45	1963.71
410.64	1998.82
410.83	1949.67
411.02	2015.20
411.21	2101.80
411.40	2024.56
411.59	2176.70
411.78	2017.54
411.98	2179.04
412.17	2101.80
412.36	2190.74
412.55	2272.66
412.74	2333.51
412.93	2197.76
413.12	2246.91
413.31	2277.34
413.50	2305.43
413.69	2321.81
413.88	2403.73
414.07	2307.77
414.26	2485.65
414.45	2471.61
414.64	2387.35
414.83	2509.05
415.02	2534.80
415.22	2464.58
415.41	2429.48
415.60	2434.16
415.79	2530.12
415.98	2651.83
416.17	2626.08
416.36	2574.59
416.55	2752.47
416.74	2658.85
416.93	2647.15
417.12	2775.88
417.31	2754.81
417.50	2654.17
417.69	2731.41
417.88	2703.32
418.07	2773.53
418.26	2850.77
418.45	2738.43
418.64	2944.39
418.83	2778.22
419.02	2810.98
419.21	2885.88
419.39	2972.48
419.58	2850.77
419.77	2885.88
419.96	3019.29
420.15	3063.76
420.34	2979.50
420.53	3045.04
420.72	3077.80
420.91	3042.70
421.10	3035.67
421.29	3119.93
421.48	3019.29
421.67	3155.04
421.86	3136.32
422.05	3126.96
422.24	3089.51
422.43	3136.32
422.61	3059.08
422.80	3339.94
422.99	3187.81
423.18	3234.62
423.37	3297.81
423.56	3241.64
423.75	3124.62
423.94	3141.00
424.13	3063.76
424.32	3133.98
424.50	3318.88
424.69	3323.56
424.88	3356.33
425.07	3148.02
425.26	3180.79
425.45	3335.26
425.64	3382.07
425.83	3260.37
426.01	3246.32
426.20	3246.32
426.39	3435.91
426.58	3330.58
426.77	3272.07
426.96	3236.96
427.15	3449.95
427.33	3398.46
427.52	3375.05
427.71	3417.18
427.90	3389.10
428.09	3370.37
428.28	3503.78
428.46	3435.91
428.65	3590.38
428.84	3637.19
429.03	3604.42
429.22	3499.10
429.40	3543.57
429.59	3611.45
429.78	3398.46
429.97	3339.94
430.16	3639.53
430.34	3562.30
430.53	3571.66
430.72	3674.64
430.91	3749.54
431.10	3700.39
431.28	3786.99
431.47	3889.97
431.66	3754.22
431.85	3765.92
432.03	3859.54
432.22	3904.01
432.41	3836.14
432.60	3840.82
432.79	4049.13
432.97	3829.12
433.16	3920.40
433.35	3871.25
433.54	4060.83
433.72	4102.96
433.91	3988.27
434.10	4002.32
434.28	4077.21
434.47	4023.38
434.66	4159.13
434.85	4030.40
435.03	4053.81
435.22	4107.64
435.41	4166.15
435.59	4173.18
435.78	4154.45
435.97	4117.00
436.16	4119.34
436.34	4023.38
436.53	4182.54
436.72	4337.01
436.90	4231.69
437.09	4311.27
437.28	4224.67
437.46	4325.31
437.65	4215.30
437.84	4486.81
438.02	4486.81
438.21	4514.89
438.40	4306.59
438.58	4521.92
438.77	4650.64
438.96	4498.51
439.14	4503.19
439.33	4662.35
439.52	4718.52
439.70	4559.36
439.89	4833.21
440.08	4758.31
440.26	4753.63
440.45	4966.62
440.63	4732.56
440.82	4936.19
441.01	4833.21
441.19	4835.55
441.38	4957.25
441.57	5074.28
441.75	5048.54
441.94	5247.48
442.12	5137.48
442.31	5291.95
442.50	5104.71
442.68	5287.27
442.87	5266.21
443.05	5266.21
443.24	5109.39
443.43	5181.95
443.61	5322.38
443.80	5504.94
443.98	5167.90
444.17	4980.66
444.35	5200.67
444.54	5387.91
444.73	5226.42
444.91	5163.22
445.10	5350.46
445.28	5364.51
445.47	5345.78
445.65	5380.89
445.84	5371.53
446.02	5516.64
446.21	5369.19
446.39	5322.38
446.58	5413.66
446.77	5411.32
446.95	5247.48
447.14	5289.61
447.32	5362.17
447.51	5507.28
447.69	5460.47
447.88	5575.16
448.06	5518.98
448.25	5476.85
448.43	5661.76
448.62	5324.72
448.80	5570.48
448.99	5507.28
449.17	5495.58
449.36	5472.17
449.54	5640.69
449.73	5699.20
449.91	5877.09
450.10	5804.53
450.28	5806.87
450.46	5720.27
450.65	5729.63
450.83	5692.18
451.02	5680.48
451.20	5933.26
451.39	5738.99
451.57	5872.40
451.76	5764.74
451.94	5849.00
452.13	6029.22
452.31	6008.16
452.49	5926.24
452.68	5942.62
452.86	5895.81
453.05	6015.18
453.23	6005.81
453.42	6113.48
453.60	6136.88
453.78	6174.33
453.97	5980.07
454.15	6223.48
454.34	6008.16
454.52	6122.84
454.70	6225.82
454.89	6239.87
455.07	6202.42
455.26	6277.32
455.44	6253.91
455.62	6406.05
455.81	6518.39
455.99	6455.20
456.17	6314.77
456.36	6464.56
456.54	6380.30
456.73	6562.86
456.91	6675.21
457.09	6520.73
457.28	6745.42
457.46	6574.56
457.64	6602.65
457.83	6616.69
458.01	6717.34
458.19	6789.89
458.38	6686.91
458.56	6862.45
458.74	6764.15
458.93	6897.56
459.11	6768.83
459.29	6850.75
459.48	6862.45
459.66	6920.96
459.84	7002.88
460.03	6988.84
460.21	7140.97
460.39	7063.74
460.57	6937.35
460.76	7117.57
460.94	7250.98
461.12	7152.68
461.31	7269.70
461.49	6895.22
461.67	7005.22
461.85	7187.79
462.04	7105.87
462.22	7346.94
462.40	7379.71
462.59	7379.71
462.77	7269.70
462.95	7452.27
463.13	7435.88
463.32	7456.95
463.50	7382.05
463.68	7316.51
463.86	7391.41
464.05	7351.62
464.23	7398.43
464.41	7609.08
464.59	7435.88
464.78	7847.82
464.96	7573.97
465.14	7515.46
465.32	7878.24
465.50	7712.07
465.69	7707.38
465.87	7688.66
466.05	7646.53
466.23	7639.51
466.41	7786.96
466.60	7955.48
466.78	7887.61
466.96	7847.82
467.14	7695.68
467.32	7765.90
467.51	7896.97
467.69	7538.87
467.87	7707.38
468.05	7812.71
468.23	7758.88
468.41	7922.71
468.60	7918.03
468.78	8154.43
468.96	7892.29
469.14	7918.03
469.32	8163.79
469.50	7831.43
469.69	8198.90
469.87	8063.15
470.05	8292.52
470.23	8367.42
470.41	8304.22
470.59	8336.99
470.77	8257.41
470.95	8346.35
471.14	8538.27
471.32	8205.92
471.50	8601.47
471.68	8393.16
471.86	8655.30
472.04	8617.85
472.22	8870.63
472.40	8634.24
472.58	8774.67
472.77	8606.15
472.95	8821.48
473.13	8924.46
473.31	8688.07
473.49	8933.82
473.67	8884.67
473.85	8849.57
474.03	9186.60
474.21	9125.75
474.39	9404.27
474.57	9174.90
474.75	9479.17
474.93	9397.25
475.12	9380.87
475.30	9621.94
475.48	9605.56
475.66	9528.32
475.84	9694.50
476.02	9547.05
476.20	9617.26
476.38	9666.41
476.56	10076.01
476.74	10068.98
476.92	9958.98
477.10	9905.15
477.28	9977.70
477.46	9907.49
477.64	10083.03
477.82	10438.79
478.00	10473.90
478.18	10459.85
478.36	10574.54
478.54	10616.67
478.72	10689.23
478.90	10714.97
479.08	10979.45
479.26	11229.89
479.44	11218.19
479.62	11138.61
479.80	11288.40
479.98	11089.46
480.16	11620.76
480.34	11365.64
480.52	11449.90
480.70	11531.82
480.88	11578.63
481.06	11707.36
481.24	11728.42
481.41	12013.97
481.59	11981.20
481.77	11957.80
481.95	12058.44
482.13	12285.47
482.31	12325.26
482.49	12566.34
482.67	12547.61
482.85	12751.24
483.03	12954.87
483.21	12861.24
483.39	13116.36
483.57	12954.87
483.74	13092.96
483.92	12980.61
484.10	13015.72
484.28	13401.91
484.46	13500.21
484.64	13699.16
484.82	13657.03
485.00	13596.17
485.18	14066.62
485.35	14216.41
485.53	14155.56
485.71	14251.52
485.89	14501.96
486.07	14516.00
486.25	14623.67
486.43	14574.52
486.61	14721.97
486.78	14883.47
486.96	14754.74
487.14	14913.89
487.32	15047.30
487.50	15164.33
487.68	15660.52
487.85	15482.64
488.03	15779.89
488.21	15889.90
488.39	15817.34
488.57	15983.52
488.75	16313.53
488.92	16547.59
489.10	16465.67
489.28	16484.39
489.46	16842.50
489.64	16624.83
489.81	16821.43
489.99	16699.72
490.17	17092.93
490.35	17322.30
490.53	17336.35
490.70	17593.81
490.88	17551.68
491.06	17706.15
491.24	17905.10
491.41	17975.31
491.59	18118.09
491.77	18192.98
491.95	18443.42
492.13	18347.46
492.30	18609.60
492.48	18504.28
492.66	18508.96
492.84	18801.52
493.01	18897.49
493.19	19126.86
493.37	19133.88
493.54	19288.35
493.72	19396.02
493.90	19358.57
494.08	19761.14
494.25	19669.86
494.43	19768.16
494.61	19840.72
494.79	20027.96
494.96	20170.74
495.14	20320.53
495.32	20294.79
495.49	20123.93
495.67	20339.26
495.85	20758.21
496.02	20638.84
496.20	20858.85
496.38	20725.44
496.55	21055.46
496.73	21713.15
496.91	21369.09
497.09	21467.39
497.26	21542.29
497.44	21434.63
497.62	21322.28
497.79	21937.84
497.97	21589.10
498.14	22113.38
498.32	22408.29
498.50	22230.41
498.67	22317.01
498.85	22017.42
499.03	22600.21
499.20	22824.90
499.38	22623.62
499.56	22899.80
499.73	22953.63
499.91	23304.71
500.08	23180.67
500.26	23241.52
500.44	23222.80
500.61	23206.41
500.79	23194.71
500.97	23655.79
501.14	24070.07
501.32	23997.51
501.49	23646.43
501.67	23894.53
501.84	24271.36
502.02	23845.38
502.20	24346.25
502.37	24364.98
502.55	24037.30
502.72	24203.48
502.90	24102.84
503.07	24383.70
503.25	24456.26
503.43	24418.81
503.60	24699.67
503.78	24893.94
503.95	24819.04
504.13	24907.98
504.30	24938.41
504.48	25048.41
504.65	25160.76
504.83	25373.75
505.01	25921.43
505.18	25319.92
505.36	25392.47
505.53	25355.02
505.71	25656.95
505.88	25773.98
506.06	25921.43
506.23	26352.09
506.41	25818.45
506.58	26108.68
506.76	26244.43
506.93	26333.37
507.11	26403.58
507.28	26525.29
507.46	26448.05
507.63	26363.79
507.81	26881.05
507.98	26595.51
508.16	26492.52
508.33	26794.45
508.50	26623.59
508.68	26984.04
508.85	27009.78
509.03	27061.27
509.20	27150.21
509.38	27601.94
509.55	27475.55
509.73	27323.41
509.90	27510.66
510.08	27662.79
510.25	27683.86
510.42	27749.39
510.60	28467.94
510.77	27889.82
510.95	27751.73
511.12	28442.19
511.30	28355.59
511.47	28414.10
511.64	28474.96
511.82	28772.21
511.99	28142.60
512.17	28491.34
512.34	28215.16
512.51	28631.77
512.69	28669.22
512.86	29008.60
513.04	29057.75
513.21	29083.50
513.38	29247.33
513.56	29053.07
513.73	29228.61
513.90	29525.86
514.08	29240.31
514.25	29890.98
514.43	29546.92
514.60	29827.79
514.77	29806.72
514.95	29858.21
515.12	29546.92
515.29	29656.93
515.47	29989.28
515.64	30029.07
515.81	29855.87
515.99	30249.08
516.16	30501.86
516.33	30188.23
516.51	30375.47
516.68	30501.86
516.85	30333.34
517.03	30567.40
517.20	30707.83
517.37	30820.17
517.54	30902.09
517.72	31033.16
517.89	30995.71
518.06	31157.21
518.24	31126.78
518.41	30721.87
518.58	31218.07
518.75	31072.95
518.93	31297.64
519.10	31407.65
519.27	31037.84
519.45	31393.61
519.62	31819.58
519.79	31545.74
519.96	31667.45
520.14	31737.66
520.31	31550.42
520.48	32102.79
520.65	32107.47
520.83	32151.94
521.00	32439.82
521.17	31892.14
521.34	32315.78
521.52	32374.29
521.69	32275.99
521.86	32498.34
522.03	32687.92
522.20	32868.14
522.38	33326.89
522.55	32961.76
522.72	32711.33
522.89	32973.47
523.07	33212.20
523.24	32802.61
523.41	33511.79
523.58	32985.17
523.75	33560.94
523.92	33118.58
524.10	33666.27
524.27	33256.67
524.44	33457.96
524.61	33476.68
524.78	33668.61
524.96	33893.30
525.13	34068.84
525.30	33773.93
525.47	33701.37
525.64	33621.80
525.81	34174.16
525.98	34223.31
526.16	34075.86
526.33	33879.25
526.50	34438.64
526.67	34094.58
526.84	34499.50
527.01	34522.90
527.18	34679.72
527.36	34419.92
527.53	34696.10
527.70	34991.01
527.87	34838.87
528.04	34649.29
528.21	34796.74
528.38	34827.17
528.55	34885.68
528.72	34998.03
528.89	34663.33
529.07	34988.67
529.24	35049.52
529.41	35391.24
529.58	35089.31
529.75	35335.07
529.92	35555.08
530.09	35157.19
530.26	35302.30
530.43	35328.05
530.60	35079.95
530.77	35503.59
530.94	35629.98
531.11	35627.63
531.28	35887.43
531.46	35819.56
531.63	36079.36
531.80	36306.39
531.97	36385.97
532.14	35803.17
532.31	35812.54
532.48	36411.71
532.65	36217.45
532.82	35840.62
532.99	36322.77
533.16	36343.84
533.33	36144.89
533.50	36180.00
533.67	36776.84
533.84	36465.55
534.01	36435.12
534.18	36666.83
534.35	36847.05
534.52	37038.98
534.69	37031.96
534.86	37053.02
535.03	36664.49
535.20	37214.52
535.37	36758.11
535.54	37376.01
535.71	37165.37
535.88	37188.77
536.05	36882.16
536.22	37385.38
536.38	37399.42
536.55	37764.54
536.72	37055.36
536.89	37132.60
537.06	37443.89
537.23	37846.46
537.40	37504.74
537.57	37675.60
537.74	37347.93
537.91	37766.88
538.08	37797.31
538.25	37909.66
538.42	38085.20
538.59	38052.43
538.75	38061.79
538.92	38127.33
539.09	38302.87
539.26	38307.55
539.43	38157.75
539.60	38150.73
539.77	37956.47
539.94	38422.23
540.11	38511.17
540.28	38309.89
540.44	38316.91
540.61	38345.00
540.78	38403.51
540.95	38347.34
541.12	38440.96
541.29	38314.57
541.46	38499.47
541.62	38759.27
541.79	38885.66
541.96	38541.60
542.13	38478.41
542.30	39145.46
542.47	38752.25
542.63	39035.45
542.80	39126.74
542.97	39126.74
543.14	39564.42
543.31	39255.46
543.48	39810.17
543.64	39770.38
543.81	39526.97
543.98	39349.09
544.15	39669.74
544.32	39529.31
544.48	39976.35
544.65	39730.59
544.82	39641.65
544.99	39861.66
545.16	39548.03
545.32	39758.68
545.49	40540.42
545.66	40315.73
545.83	40123.80
546.00	39988.05
546.16	40348.50
546.33	40367.22
546.50	39875.71
546.67	40069.97
546.83	39585.48
547.00	40299.34
547.17	40130.83
547.34	40322.75
547.50	40442.12
547.67	40673.83
547.84	40587.23
548.00	40552.12
548.17	40671.49
548.34	40385.94
548.51	40907.88
548.67	40636.38
548.84	40861.07
549.01	40362.54
549.18	40671.49
549.34	40505.31
549.51	41074.06
549.68	41099.81
549.84	40879.80
550.01	41425.14
550.18	40767.45
550.34	41113.85
550.51	40886.82
550.68	41331.52
550.84	40655.11
551.01	41329.18
551.18	41057.68
551.34	41001.50
551.51	41078.74
551.68	41172.36
551.84	41141.94
552.01	40959.38
552.18	40989.80
552.34	41226.20
552.51	41577.28
552.68	40964.06
552.84	41687.28
553.01	41556.21
553.18	41528.13
553.34	41291.73
553.51	41181.73
553.67	41523.44
553.84	41858.14
554.01	41663.88
554.17	41649.83
554.34	42021.98
554.51	41743.45
554.67	41837.08
554.84	42089.85
555.00	41851.12
555.17	41907.29
555.33	42115.60
555.50	42167.09
555.67	42335.61
555.83	41900.27
556.00	42349.65
556.16	42740.52
556.33	42146.03
556.50	42366.04
556.66	42574.34
556.83	42483.06
556.99	42747.54
557.16	42960.53
557.32	42841.17
557.49	42834.14
557.65	42394.12
557.82	42747.54
557.98	42628.18
558.15	42300.50
558.32	42906.70
558.48	42110.92
558.65	42623.50
558.81	42590.73
558.98	42696.05
559.14	42927.77
559.31	42504.13
559.47	42824.78
559.64	43044.79
559.80	42756.91
559.97	42946.49
560.13	42602.43
560.30	42974.58
560.46	42745.20
560.63	43229.69
560.79	42906.70
560.96	43000.32
561.12	43021.39
561.29	43232.04
561.45	43152.46
561.61	43196.93
561.78	42918.40
561.94	42951.17
562.11	43548.01
562.27	42895.00
562.44	43124.37
562.60	43262.46
562.77	43367.79
562.93	42747.54
563.10	43438.00
563.26	43206.29
563.42	43344.38
563.59	42871.59
563.75	43129.05
563.92	43562.05
564.08	43103.31
564.24	43508.22
564.41	43213.31
564.57	43419.28
564.74	43604.18
564.90	43175.86
565.07	43653.33
565.23	43510.56
565.39	43468.43
565.56	43201.61
565.72	43548.01
565.88	43714.19
566.05	43562.05
566.21	43337.36
566.38	43753.97
566.54	43842.92
566.70	43433.32
566.87	43669.72
567.03	43311.61
567.19	43779.72
567.36	43522.26
567.52	43681.42
567.68	44025.48
567.85	43887.39
568.01	43737.59
568.17	43838.23
568.34	44135.48
568.50	43681.42
568.66	43351.40
568.83	44076.97
568.99	44280.60
569.15	43807.81
569.32	43873.34
569.48	43627.59
569.64	44346.13
569.81	43824.19
569.97	44088.67
570.13	44446.77
570.30	43852.28
570.46	43812.49
570.62	43814.83
570.78	44296.98
570.95	44046.54
571.11	44399.96
571.27	44135.48
571.43	44130.80
571.60	44399.96
571.76	43931.86
571.92	43763.34
572.09	43995.05
572.25	44177.61
572.41	43952.92
572.57	44142.50
572.74	44535.71
572.90	44205.70
573.06	44318.04
573.22	44083.99
573.38	44395.28
573.55	44493.58
573.71	44767.43
573.87	44463.16
574.03	44055.90
574.20	44343.79
574.36	44240.81
574.52	43828.87
574.68	44341.45
574.84	44315.70
575.01	44662.10
575.17	44364.85
575.33	44446.77
575.49	44519.33
575.65	44512.31
575.82	44238.47
575.98	44282.94
576.14	45038.93
576.30	44619.97
576.46	44711.25
576.62	44629.34
576.79	44725.30
576.95	44463.16
577.11	44406.98
577.27	44519.33
577.43	44467.84
577.59	44343.79
577.75	44325.07
577.92	44037.18
578.08	44818.92
578.24	44428.05
578.40	44931.26
578.56	44680.83
578.72	44552.10
578.88	44516.99
579.04	44498.26
579.21	44385.92
579.37	44519.33
579.53	44114.42
579.69	44233.78
579.85	44266.55
580.01	44711.25
580.17	44643.38
580.33	44762.75
580.49	44538.05
580.65	44545.08
580.82	44060.58
580.98	44313.36
581.14	44179.95
581.30	44917.22
581.46	44095.69
581.62	44481.88
581.78	44006.75
581.94	44299.32
582.10	44793.17
582.26	44870.41
582.42	44734.66
582.58	44563.80
582.74	44680.83
582.90	44582.52
583.06	44577.84
583.22	44594.23
583.38	44507.63
583.54	44439.75
583.70	44856.37
583.86	45095.10
584.02	44715.93
584.18	44638.70
584.34	44814.24
584.50	44914.88
584.66	44966.37
584.82	44692.53
584.98	44739.34
585.14	44603.59
585.30	44219.74
585.46	45048.29
585.62	44421.03
585.78	44774.45
585.94	44430.39
586.10	44598.91
586.26	44729.98
586.42	44680.83
586.58	44776.79
586.74	44552.10
586.90	44348.47
587.06	44790.83
587.22	45308.09
587.38	44573.16
587.54	44526.35
587.70	44584.86
587.86	44786.15
588.02	45036.59
588.18	44816.58
588.34	44739.34
588.49	44966.37
588.65	44268.89
588.81	45062.33
588.97	44949.99
589.13	44830.62
589.29	44978.07
589.45	45256.60
589.61	44767.43
589.77	44842.32
589.93	45045.95
590.08	44800.19
590.24	45450.86
590.40	45184.04
590.56	45359.58
590.72	45010.84
590.88	45233.19
591.04	44748.70
591.20	45043.61
591.35	44978.07
591.51	45762.15
591.67	45106.80
591.83	45305.75
591.99	45287.03
592.15	45029.57
592.31	45024.89
592.46	45481.29
592.62	45223.83
592.78	45460.23
592.94	45703.64
593.10	45382.99
593.26	45703.64
593.41	45462.57
593.57	45216.81
593.73	45605.34
593.89	45518.74
594.05	45647.47
594.20	45123.19
594.36	45858.12
594.52	45378.31
594.68	45483.63
594.84	45399.37
594.99	45780.88
595.15	45413.41
595.31	45656.83
595.47	45170.00
595.62	45354.90
595.78	45394.69
595.94	45439.16
596.10	45193.40
596.25	45305.75
596.41	45591.30
596.57	45064.67
596.73	45530.44
596.88	45694.28
597.04	45565.55
597.20	45867.48
597.36	45392.35
597.51	45663.85
597.67	45553.85
597.83	45284.68
597.99	46129.62
598.14	45951.74
598.30	45808.96
598.46	45364.26
598.61	45642.79
598.77	45626.40
598.93	45528.10
599.09	45888.54
599.24	46239.62
599.40	45958.76
599.56	45666.19
599.71	45624.06
599.87	46087.49
600.03	46195.15
600.18	46028.98
600.34	45478.95
600.50	45888.54
600.65	45865.14
600.81	45890.88
600.97	45773.86
601.12	45776.20
601.28	45567.89
601.44	45684.92
601.59	45544.48
601.75	45181.70
601.91	46040.68
602.06	45825.35
602.22	46066.42
602.37	45595.98
602.53	45837.05
602.69	45944.72
602.84	45521.08
603.00	45256.60
603.16	45247.24
603.31	45668.53
603.47	45876.84
603.62	45528.10
603.78	45570.23
603.94	45586.61
604.09	45886.20
604.25	45294.05
604.40	45731.73
604.56	45612.36
604.71	46019.61
604.87	45588.95
605.03	45652.15
605.18	45588.95
605.34	45549.17
605.49	45476.61
605.65	45270.64
605.80	45523.42
605.96	45382.99
606.12	45401.71
606.27	45670.87
606.43	45490.65
606.58	45551.51
606.74	45188.72
606.89	45394.69
607.05	45469.59
607.20	45902.59
607.36	45434.48
607.51	45570.23
607.67	45141.91
607.82	45588.95
607.98	45750.45
608.13	45347.88
608.29	45413.41
608.44	45638.11
608.60	45401.71
608.75	45874.50
608.91	45029.57
609.06	45670.87
609.22	45586.61
609.37	45017.86
609.53	45853.44
609.68	45815.99
609.84	45109.14
609.99	45560.87
610.15	45331.50
610.30	45535.12
610.46	45123.19
610.61	45322.13
610.76	45724.71
610.92	45289.37
611.07	45401.71
611.23	45027.23
611.38	45308.09
611.54	45179.36
611.69	45535.12
611.84	45399.37
612.00	45326.81
612.15	45350.22
612.31	45059.99
612.46	44514.65
612.62	45530.44
612.77	45277.66
612.92	45586.61
613.08	44886.79
613.23	45177.02
613.39	45247.24
613.54	44807.22
613.69	45207.45
613.85	44989.78
614.00	44851.69
614.15	45102.12
614.31	44772.11
614.46	44903.18
614.62	44697.21
614.77	44519.33
614.92	44921.90
615.08	44816.58
615.23	44739.34
615.38	45130.21
615.54	44788.49
615.69	44622.31
615.84	44818.92
616.00	45031.91
616.15	44760.40
616.30	44966.37
616.46	44975.73
616.61	44875.09
616.76	44994.46
616.92	44914.88
617.07	44870.41
617.22	44514.65
617.37	44767.43
617.53	44589.55
617.68	44725.30
617.83	44561.46
617.99	44760.40
618.14	44898.50
618.29	44542.74
618.45	44418.69
618.60	44439.75
618.75	44198.68
618.90	44402.30
619.06	44025.48
619.21	44004.41
619.36	44556.78
619.51	44278.25
619.67	44243.15
619.82	44140.16
619.97	44877.43
620.12	44414.01
620.28	44439.75
620.43	44292.30
620.58	44266.55
620.73	44194.00
620.89	44229.10
621.04	44079.31
621.19	44245.49
621.34	44231.44
621.49	43459.07
621.65	44198.68
621.80	44458.48
621.95	43845.26
622.10	44231.44
622.25	43929.51
622.41	44624.65
622.56	43948.24
622.71	44294.64
622.86	43962.28
623.01	44219.74
623.16	43672.06
623.32	43433.32
623.47	43899.09
623.62	43505.88
623.77	44044.20
623.92	44041.86
624.07	43962.28
624.23	43903.77
624.38	43718.87
624.53	44083.99
624.68	43332.68
624.83	43489.49
624.98	43763.34
625.13	43206.29
625.29	42976.92
625.44	43576.09
625.59	43374.81
625.74	43540.99
625.89	43225.01
626.04	43508.22
626.19	43484.81
626.34	43316.29
626.49	43016.71
626.65	43150.12
626.80	43140.75
626.95	43229.69
627.10	43234.38
627.25	43505.88
627.40	43117.35
627.55	43393.53
627.70	43360.76
627.85	43255.44
628.00	43199.27
628.15	43585.46
628.30	42579.03
628.45	42848.19
628.60	42607.11
628.76	42887.98
628.91	42550.94
629.06	42885.64
629.21	42410.51
629.36	42696.05
629.51	42939.47
629.66	42773.29
629.81	42890.32
629.96	42808.40
630.11	42586.05
630.26	42471.36
630.41	42263.05
630.56	42546.26
630.71	42726.48
630.86	42494.77
631.01	42141.35
631.16	42354.33
631.31	42359.02
631.46	42511.15
631.61	42707.76
631.76	42642.22
631.91	42726.48
632.06	43079.90
632.21	42726.48
632.36	42775.63
632.51	42043.04
632.66	42492.43
632.81	42216.24
632.96	42424.55
633.10	41909.63
633.25	42529.87
633.40	42192.84
633.55	42403.49
633.70	42347.31
633.85	42136.66
634.00	42387.10
634.15	41949.42
634.30	42171.77
634.45	41886.23
634.60	42232.63
634.75	42625.84
634.90	42349.65
635.05	42326.25
635.19	41820.69
635.34	42504.13
635.49	41970.49
635.64	41830.05
635.79	41911.97
635.94	42050.06
636.09	42312.20
636.24	41935.38
636.39	42036.02
636.53	41982.19
636.68	41869.84
636.83	41521.10
636.98	41713.03
637.13	41406.42
637.28	41310.46
637.43	41415.78
637.57	41785.58
637.72	41174.70
637.87	41343.22
638.02	41558.55
638.17	41565.57
638.32	41329.18
638.46	41439.18
638.61	41361.95
638.76	40868.09
638.91	41214.49
639.06	41265.99
639.20	41003.85
639.35	41120.87
639.50	41347.90
639.65	40964.06
639.80	41422.80
639.94	41350.24
640.09	41390.03
640.24	41333.86
640.39	41141.94
640.54	40659.79
640.68	41368.97
640.83	41130.23
640.98	40746.39
641.13	40580.21
641.27	41205.13
641.42	40629.36
641.57	40893.84
641.72	41151.30
641.86	40961.72
642.01	40589.57
642.16	40828.30
642.31	40650.42
642.45	41010.87
642.60	40013.80
642.75	40407.01
642.90	41155.98
643.04	40793.20
643.19	40374.24
643.34	40540.42
643.48	40533.40
643.63	40259.55
643.78	40301.68
643.93	41385.35
644.07	40804.90
644.22	40706.60
644.37	40407.01
644.51	40495.95
644.66	39969.33
644.81	40421.05
644.95	40465.52
645.10	40301.68
645.25	40264.24
645.39	40041.88
645.54	39758.68
645.69	39983.37
645.83	40236.15
645.98	40451.48
646.13	39620.59
646.27	40123.80
646.42	39669.74
646.57	39974.01
646.71	40498.29
646.86	40678.51
647.00	40084.01
647.15	40016.14
647.30	40222.11
647.44	40020.82
647.59	39840.60
647.74	40093.38
647.88	40172.96
648.03	40170.61
648.17	40292.32
648.32	40371.90
648.47	40556.80
648.61	40088.70
648.76	39236.74
648.90	39826.56
649.05	39512.92
649.20	39597.18
649.34	39798.47
649.49	39793.79
649.63	40165.93
649.78	39475.48
649.92	39391.22
650.07	39849.96
650.21	39864.00
650.36	39936.56
650.51	39618.25
650.65	39707.19
650.80	39639.31
650.94	39438.03
651.09	39885.07
651.23	39171.21
651.38	39515.26
651.52	39299.94
651.67	38820.13
651.81	39243.76
651.96	39386.54
652.10	39203.97
652.25	39007.37
652.39	39161.84
652.54	39456.75
652.68	38780.34
652.83	39054.18
652.97	39566.76
653.12	39412.28
653.26	39009.71
653.41	39021.41
653.55	39126.74
653.70	39103.33
653.84	39021.41
653.99	38983.96
654.13	38845.87
654.27	39044.82
654.42	38843.53
654.56	38611.82
654.71	38726.50
654.85	38649.27
655.00	38792.04
655.14	38717.14
655.29	39262.49
655.43	38778.00
655.57	38958.22
655.72	38239.67
655.86	38686.71
656.01	37876.89
656.15	38082.86
656.30	38738.21
656.44	38548.62
656.58	38719.48
656.73	38181.16
656.87	37996.26
657.01	38073.49
657.16	38962.90
657.30	38415.21
657.45	38122.65
657.59	37998.60
657.73	37921.36
657.88	38197.54
658.02	38576.71
658.16	38672.67
658.31	37830.08
658.45	37982.21
658.60	38174.14
658.74	38508.83
658.88	38000.94
659.03	38242.01
659.17	37706.03
659.31	37771.57
659.46	37373.67
659.60	38043.07
659.74	37525.81
659.89	37612.41
660.03	37565.60
660.17	37324.52
660.32	37743.48
660.46	37338.57
660.60	36708.96
660.74	37326.86
660.89	37184.09
661.03	37247.29
661.17	36968.76
661.32	36861.10
661.46	37134.94
661.60	36931.31
661.74	37273.03
661.89	37282.39
662.03	37214.52
662.17	36943.02
662.31	36584.91
662.46	36664.49
662.60	37053.02
662.74	36582.57
662.88	36336.82
663.03	36348.52
663.17	36257.24
663.31	36430.44
663.45	36353.20
663.60	36573.21
663.74	36725.35
663.88	36484.27
664.02	36219.79
664.17	36196.38
664.31	36325.11
664.45	35831.26
664.59	36135.53
664.73	35667.42
664.88	36126.17
665.02	35786.79
665.16	35988.08
665.30	35920.20
665.44	35892.12
665.59	35768.07
665.73	35409.96
665.87	35351.45
666.01	35761.05
666.15	35959.99
666.29	35952.97
666.44	35562.10
666.58	35395.92
666.72	35618.27
666.86	35299.96
667.00	35318.68
667.14	35007.39
667.28	35126.76
667.43	34740.57
667.57	35482.52
667.71	34976.97
667.85	34766.32
667.99	34976.97
668.13	35168.89
668.27	34251.40
668.41	34859.94
668.56	34621.20
668.70	34515.88
668.84	34029.05
668.98	34319.28
669.12	34569.71
669.26	34183.52
669.40	34513.54
669.54	34335.66
669.68	34560.35
669.82	34110.97
669.96	33816.06
670.10	33518.81
670.25	33553.92
670.39	33495.41
670.53	33820.74
670.67	33776.27
670.81	34040.75
670.95	33984.58
671.09	33827.76
671.23	33565.62
671.37	34059.48
671.51	33366.68
671.65	33167.73
671.79	33294.12
671.93	33521.15
672.07	33497.75
672.21	32917.29
672.35	32966.45
672.49	32952.40
672.63	33104.54
672.77	32685.58
672.91	32669.20
673.05	32414.08
673.19	32645.79
673.33	32428.12
673.47	32613.02
673.61	32215.13
673.75	32086.40
673.89	32318.12
674.03	31812.56
674.17	32222.16
674.31	31952.99
674.45	31744.69
674.59	31866.39
674.73	31814.90
674.87	31545.74
675.01	31578.51
675.15	31372.54
675.29	31363.18
675.43	31087.00
675.56	31555.10
675.70	31098.70
675.84	30855.28
675.98	29993.97
676.12	30923.16
676.26	30700.81
676.40	30946.56
676.54	30387.18
676.68	30359.09
676.82	29996.31
676.96	30422.28
677.10	30382.49
677.23	30422.28
677.37	30621.23
677.51	30361.43
677.65	29905.02
677.79	30277.17
677.93	29785.66
678.07	29647.57
678.21	30071.20
678.34	29352.66
678.48	29340.96
678.62	29301.17
678.76	29212.23
678.90	28987.53
679.04	29240.31
679.18	29556.28
679.31	29017.96
679.45	28755.82
679.59	29032.00
679.73	28690.29
679.87	28636.45
680.00	28322.82
680.14	28587.30
680.28	27999.83
680.42	28528.79
680.56	27658.11
680.70	27791.52
680.83	27758.75
680.97	27676.83
681.11	27658.11
681.25	27620.66
681.39	27583.21
681.52	27407.67
681.66	27087.02
681.80	27082.34
681.94	27000.42
682.07	26600.19
682.21	27080.00
682.35	26899.78
682.49	26775.73
682.62	26838.92
682.76	26937.23
682.90	26544.02
683.04	26595.51
683.17	26536.99
683.31	26525.29
683.45	26387.20
683.59	25986.97
683.72	25912.07
683.86	25736.53
684.00	25525.88
684.13	25837.17
684.27	25528.22
684.41	25383.11
684.55	25329.28
684.68	25291.83
684.82	25113.95
684.96	24947.77
685.09	25270.76
685.23	25050.75
685.37	25589.08
685.50	25055.43
685.64	25142.03
685.78	24655.20
685.91	24390.72
686.05	24156.67
686.19	23936.66
686.32	24100.50
686.46	23873.46
686.60	23693.24
686.73	24168.37
686.87	24170.71
687.01	23625.37
687.14	23906.23
687.28	23915.59
687.42	23487.28
687.55	23255.56
687.69	23644.09
687.82	22972.36
687.96	23175.98
688.10	23129.17
688.23	23150.24
688.37	23159.60
688.50	23075.34
688.64	23133.86
688.78	23080.02
688.91	22918.53
689.05	22600.21
689.18	22515.95
689.32	22099.34
689.46	21839.54
689.59	22368.50
689.73	22464.46
689.86	22656.39
690.00	22249.13
690.13	22057.21
690.27	21972.95
690.41	22352.12
690.54	21701.45
690.68	21649.96
690.81	21289.51
690.95	21549.31
691.08	21083.55
691.22	21158.44
691.35	20744.17
691.49	21420.58
691.62	21001.63
691.76	20451.60
691.89	20517.14
692.03	20360.32
692.16	20418.83
692.30	20430.54
692.43	20187.12
692.57	20023.28
692.70	19936.68
692.84	19800.93
692.97	20149.67
693.11	19826.68
693.24	19655.82
693.38	19475.60
693.51	19620.71
693.65	19721.35
693.78	19562.20
693.92	19115.16
694.05	19412.40
694.19	18995.79
694.32	19012.17
694.45	19152.60
694.59	19377.30
694.72	19295.38
694.86	18665.77
694.99	19117.50
695.13	18616.62
695.26	18462.15
695.39	18333.42
695.53	18225.75
695.66	18611.94
695.80	18331.08
695.93	18298.31
696.07	18190.64
696.20	17853.61
696.33	17788.07
696.47	17757.64
696.60	18029.15
696.73	17635.94
696.87	17708.49
697.00	17902.76
697.14	17479.12
697.27	17418.27
697.40	17202.94
697.54	17334.01
697.67	17149.11
697.80	17188.89
697.94	17132.72
698.07	17027.40
698.21	16856.54
698.34	16776.96
698.47	16655.25
698.61	16477.37
698.74	16435.24
698.87	16294.81
699.01	16037.35
699.14	16369.71
699.27	16437.58
699.40	16002.24
699.54	16067.78
699.67	16147.36
699.80	15957.77
699.94	15988.20
700.07	15868.83
700.20	15786.91
700.34	15499.03
700.47	15489.67
700.60	15800.96
700.73	15400.72
700.87	15279.02
701.00	15264.97
701.13	14949.00
701.26	15190.08
701.40	15033.26
701.53	14864.74
701.66	15199.44
701.79	14705.59
701.93	14436.42
702.06	14768.78
702.19	14553.45
702.32	14431.74
702.46	14855.38
702.59	14558.13
702.72	14813.25
702.85	14368.55
702.99	14473.87
703.12	14150.88
703.25	14122.79
703.38	14090.02
703.51	14078.32
703.65	14017.47
703.78	13799.80
703.91	13429.99
704.04	13715.54
704.17	13256.79
704.31	13774.05
704.44	13397.23
704.57	13692.13
704.70	13554.04
704.83	13107.00
704.96	13373.82
705.10	13343.39
705.23	13074.23
>>>>>End Processed Spectral Data<<<<<
