SpectraSuite Data File
++++++++++++++++++++++++++++++++++++
Date: Fri Oct 25 10:44:09 EDT 2013
User: price-jones
Dark Spectrum Present: No
Reference Spectrum Present: No
Number of Sampled Component Spectra: 1
Spectrometers: USB2+H05261
Integration Time (usec): 100000 (USB2+H05261)
Spectra Averaged: 1 (USB2+H05261)
Boxcar Smoothing: 0 (USB2+H05261)
Correct for Electrical Dark: No (USB2+H05261)
Strobe/Lamp Enabled: No (USB2+H05261)
Correct for Detector Non-linearity: No (USB2+H05261)
Correct for Stray Light: No (USB2+H05261)
Number of Pixels in Processed Spectrum: 2048
>>>>>Begin Processed Spectral Data<<<<<
365.73	51.49
365.92	51.49
366.12	51.49
366.32	0.00
366.52	30.43
366.72	0.00
366.91	9.36
367.11	11.70
367.31	42.13
367.51	49.15
367.70	0.00
367.90	18.72
368.10	0.00
368.30	30.43
368.49	32.77
368.69	14.04
368.89	49.15
369.09	0.00
369.28	30.43
369.48	14.04
369.68	65.54
369.87	23.41
370.07	119.37
370.27	161.50
370.47	248.10
370.66	425.98
370.86	416.62
371.06	456.40
371.25	458.74
371.45	472.79
371.65	461.09
371.84	390.87
372.04	475.13
372.24	442.36
372.44	521.94
372.63	479.81
372.83	514.92
373.03	526.62
373.22	543.00
373.42	505.56
373.62	507.90
373.81	519.60
374.01	596.84
374.21	613.22
374.40	524.28
374.60	601.52
374.79	521.94
374.99	517.26
375.19	636.63
375.38	660.03
375.58	599.18
375.78	594.50
375.97	568.75
376.17	636.63
376.37	578.11
376.56	589.82
376.76	601.52
376.95	671.73
377.15	678.76
377.35	681.10
377.54	678.76
377.74	596.84
377.93	660.03
378.13	641.31
378.33	657.69
378.52	596.84
378.72	716.20
378.91	704.50
379.11	645.99
379.31	585.13
379.50	582.79
379.70	643.65
379.89	671.73
380.09	643.65
380.28	631.94
380.48	725.57
380.68	711.52
380.87	688.12
381.07	739.61
381.26	748.97
381.46	770.04
381.65	765.36
381.85	734.93
382.04	552.37
382.24	744.29
382.43	699.82
382.63	751.31
382.83	746.63
383.02	741.95
383.22	716.20
383.41	697.48
383.61	791.10
383.80	814.51
384.00	737.27
384.19	760.67
384.39	858.98
384.58	826.21
384.78	805.14
384.97	821.53
385.17	772.38
385.36	786.42
385.56	814.51
385.75	805.14
385.95	858.98
386.14	828.55
386.34	828.55
386.53	856.64
386.72	812.17
386.92	936.21
387.11	910.47
387.31	812.17
387.50	884.72
387.70	851.96
387.89	849.61
388.09	856.64
388.28	926.85
388.48	840.25
388.67	924.51
388.86	922.17
389.06	947.92
389.25	954.94
389.45	980.68
389.64	997.07
389.84	1029.84
390.03	980.68
390.22	1027.50
390.42	901.11
390.61	1090.69
390.81	983.02
391.00	1006.43
391.19	1034.52
391.39	945.58
391.58	1095.37
391.78	1097.71
391.97	1020.47
392.16	954.94
392.36	1043.88
392.55	1001.75
392.75	1057.92
392.94	992.39
393.13	980.68
393.33	1015.79
393.52	1071.97
393.71	1100.05
393.91	1172.61
394.10	1074.31
394.29	1102.39
394.49	1137.50
394.68	1196.01
394.88	1116.44
395.07	1242.82
395.26	1266.23
395.46	1261.55
395.65	1153.88
395.84	1102.39
396.04	1217.08
396.23	1076.65
396.42	1184.31
396.62	1254.53
396.81	1238.14
397.00	1212.40
397.19	1301.34
397.39	1364.53
397.58	1315.38
397.77	1378.58
397.97	1334.11
398.16	1394.96
398.35	1446.45
398.55	1432.41
398.74	1493.26
398.93	1500.28
399.12	1495.60
399.32	1472.20
399.51	1486.24
399.70	1591.56
399.90	1495.60
400.09	1549.43
400.28	1540.07
400.47	1575.18
400.67	1598.59
400.86	1675.82
401.05	1638.38
401.24	1703.91
401.44	1647.74
401.63	1724.97
401.82	1769.44
402.01	1682.85
402.21	1764.76
402.40	1685.19
402.59	1687.53
402.78	1636.03
402.97	1703.91
403.17	1795.19
403.36	1860.73
403.55	1788.17
403.74	1767.10
403.93	1905.20
404.13	1846.68
404.32	1888.81
404.51	1893.49
404.70	1839.66
404.89	1902.86
405.09	1919.24
405.28	2015.20
405.47	1900.52
405.66	1994.14
405.85	1966.05
406.05	1987.11
406.24	1933.28
406.43	1968.39
406.62	2099.46
406.81	2066.69
407.00	2080.74
407.20	2139.25
407.39	2143.93
407.58	2176.70
407.77	2188.40
407.96	2223.51
408.15	2303.09
408.34	2195.42
408.54	2263.30
408.73	2218.83
408.92	2214.15
409.11	2289.04
409.30	2216.49
409.49	2284.36
409.68	2265.64
409.87	2347.56
410.07	2284.36
410.26	2469.27
410.45	2340.54
410.64	2492.67
410.83	2506.71
411.02	2516.08
411.21	2539.48
411.40	2565.23
411.59	2527.78
411.78	2525.44
411.98	2502.03
412.17	2649.49
412.36	2733.75
412.55	2661.19
412.74	2698.64
412.93	2612.04
413.12	2705.66
413.31	2862.48
413.50	2806.30
413.69	2883.54
413.88	2867.16
414.07	2881.20
414.26	2808.64
414.45	2946.73
414.64	2913.97
414.83	2981.84
415.02	3103.55
415.22	3016.95
415.41	3052.06
415.60	3098.87
415.79	3253.34
415.98	3276.75
416.17	3206.53
416.36	3222.92
416.55	3232.28
416.74	3281.43
416.93	3258.03
417.12	3272.07
417.31	3328.24
417.50	3335.26
417.69	3459.31
417.88	3501.44
418.07	3330.58
418.26	3426.54
418.45	3449.95
418.64	3602.08
418.83	3646.55
419.02	3660.60
419.21	3653.58
419.39	3527.19
419.58	3485.06
419.77	3473.36
419.96	3564.64
420.15	3658.26
420.34	3756.56
420.53	3730.81
420.72	3756.56
420.91	3824.44
421.10	3721.45
421.29	3878.27
421.48	3646.55
421.67	3845.50
421.86	3768.26
422.05	3627.83
422.24	3770.60
422.43	3761.24
422.61	3756.56
422.80	3845.50
422.99	3815.07
423.18	3950.82
423.37	4025.72
423.56	3878.27
423.75	3833.80
423.94	3840.82
424.13	3702.73
424.32	3716.77
424.50	4025.72
424.69	3983.59
424.88	3843.16
425.07	3927.42
425.26	3901.67
425.45	3845.50
425.64	4009.34
425.83	3889.97
426.01	4044.45
426.20	3946.14
426.39	3915.72
426.58	3957.85
426.77	3927.42
426.96	3967.21
427.15	3936.78
427.33	3992.95
427.52	4128.70
427.71	4177.86
427.90	4126.36
428.09	4198.92
428.28	4138.07
428.46	4325.31
428.65	4173.18
428.84	4255.09
429.03	4255.09
429.22	4147.43
429.40	4131.05
429.59	4156.79
429.78	3889.97
429.97	3861.88
430.16	4018.70
430.34	4187.22
430.53	4138.07
430.72	4203.60
430.91	4203.60
431.10	4297.22
431.28	4423.61
431.47	4667.03
431.66	4671.71
431.85	4524.26
432.03	4458.72
432.22	4674.05
432.41	4692.77
432.60	4681.07
432.79	4634.26
432.97	4788.74
433.16	4664.69
433.35	4533.62
433.54	4610.86
433.72	4779.37
433.91	4678.73
434.10	4643.62
434.28	4596.81
434.47	4828.53
434.66	4844.91
434.85	4901.08
435.03	4809.80
435.22	4943.21
435.41	5041.51
435.59	5004.07
435.78	5071.94
435.97	5078.96
436.16	5109.39
436.34	5093.01
436.53	5100.03
436.72	5282.59
436.90	5160.88
437.09	5165.56
437.28	4973.64
437.46	5088.32
437.65	5153.86
437.84	5170.24
438.02	5191.31
438.21	5217.05
438.40	5125.77
438.58	5263.86
438.77	5509.62
438.96	5416.00
439.14	5584.52
439.33	5570.48
439.52	5540.05
439.70	5738.99
439.89	5666.44
440.08	5640.69
440.26	5736.65
440.45	5659.42
440.63	5710.91
440.82	5933.26
441.01	6012.84
441.19	6127.52
441.38	6047.94
441.57	6005.81
441.75	6059.65
441.94	6260.93
442.12	6183.70
442.31	6319.45
442.50	6384.98
442.68	6270.30
442.87	6214.12
443.05	6214.12
443.24	6476.26
443.43	6352.21
443.61	6436.47
443.80	6670.53
443.98	6422.43
444.17	6207.10
444.35	6490.31
444.54	6764.15
444.73	6291.36
444.91	6363.92
445.10	6408.39
445.28	6438.81
445.47	6415.41
445.65	6282.00
445.84	6546.48
446.02	6462.22
446.21	6644.78
446.39	6516.05
446.58	6509.03
446.77	6565.20
446.95	6473.92
447.14	6787.55
447.32	6621.38
447.51	6539.46
447.69	6759.47
447.88	6616.69
448.06	6633.08
448.25	6640.10
448.43	6558.18
448.62	6562.86
448.80	6794.58
448.99	6761.81
449.17	6864.79
449.36	6726.70
449.54	7016.93
449.73	6977.14
449.91	7059.06
450.10	7171.40
450.28	7145.66
450.46	7192.47
450.65	7131.61
450.83	7194.81
451.02	7225.23
451.20	7199.49
451.39	7304.81
451.57	7262.68
451.76	7148.00
451.94	7283.75
452.13	7077.78
452.31	7360.98
452.49	7138.63
452.68	7190.13
452.86	7059.06
453.05	7126.93
453.23	7468.65
453.42	7360.98
453.60	7204.17
453.78	7419.50
453.97	7248.64
454.15	7349.28
454.34	7215.87
454.52	7510.78
454.70	7545.89
454.89	7447.58
455.07	7349.28
455.26	7557.59
455.44	7768.24
455.62	7590.36
455.81	7660.57
455.99	7770.58
456.17	7850.16
456.36	7894.63
456.54	7744.83
456.73	8196.56
456.91	8152.09
457.09	7936.76
457.28	8294.86
457.46	8088.89
457.64	8191.88
457.83	8049.10
458.01	7918.03
458.19	8079.53
458.38	8046.76
458.56	8189.53
458.74	8196.56
458.93	8093.57
459.11	8226.98
459.29	8276.13
459.48	8355.71
459.66	8365.07
459.84	8360.39
460.03	8526.57
460.21	8292.52
460.39	8369.76
460.57	8430.61
460.76	8395.50
460.94	8568.70
461.12	8538.27
461.31	8528.91
461.49	8585.08
461.67	8458.70
461.85	8835.52
462.04	8601.47
462.22	8711.47
462.40	8816.80
462.59	8800.41
462.77	8844.88
462.95	8802.75
463.13	8968.93
463.32	8856.59
463.50	8842.54
463.68	8943.19
463.86	8922.12
464.05	8858.93
464.23	8908.08
464.41	9078.94
464.59	8798.07
464.78	9123.41
464.96	9181.92
465.14	8929.14
465.32	9249.80
465.50	9156.18
465.69	9366.82
465.87	9338.74
466.05	9062.55
466.23	9235.75
466.41	9240.44
466.60	9308.31
466.78	9067.24
466.96	9228.73
467.14	9207.67
467.32	9284.91
467.51	9537.68
467.69	9125.75
467.87	9352.78
468.05	9474.49
468.23	9451.08
468.41	9280.22
468.60	9401.93
468.78	9582.15
468.96	9542.36
469.14	9717.90
469.32	9783.44
469.50	9514.28
469.69	9654.71
469.87	9806.84
470.05	9771.74
470.23	9720.24
470.41	9781.10
470.59	9795.14
470.77	9930.89
470.95	9956.64
471.14	10178.99
471.32	9844.29
471.50	10321.76
471.68	10178.99
471.86	10186.01
472.04	10396.66
472.22	10562.84
472.40	10183.67
472.58	10349.85
472.77	10438.79
472.95	10569.86
473.13	10757.10
473.31	10483.26
473.49	10569.86
473.67	10661.14
473.85	10703.27
474.03	10780.51
474.21	11042.65
474.39	11286.06
474.57	11115.20
474.75	11157.33
474.93	11054.35
475.12	11194.78
475.30	11243.93
475.48	11110.52
475.66	11082.44
475.84	11115.20
476.02	11508.41
476.20	11204.14
476.38	11375.00
476.56	12025.67
476.74	11784.60
476.92	11562.25
477.10	11939.07
477.28	11850.13
477.46	12081.85
477.64	12116.95
477.82	12418.88
478.00	12498.46
478.18	12458.67
478.36	12372.07
478.54	12886.99
478.72	12674.00
478.90	12877.63
479.08	12992.31
479.26	13064.87
479.44	13099.98
479.62	12964.23
479.80	13366.80
479.98	13537.66
480.16	13446.38
480.34	13373.82
480.52	13699.16
480.70	13671.07
480.88	13577.45
481.06	13816.18
481.24	13921.51
481.41	14052.58
481.59	14410.68
481.77	14434.08
481.95	14155.56
482.13	14712.61
482.31	14342.80
482.49	14864.74
482.67	15154.97
482.85	15269.66
483.03	15166.67
483.21	15447.54
483.39	15143.27
483.57	15300.08
483.74	15543.50
483.92	15506.05
484.10	15335.19
484.28	15850.11
484.46	16147.36
484.64	16100.55
484.82	15985.86
485.00	16077.14
485.18	16350.98
485.35	16383.75
485.53	16070.12
485.71	16121.61
485.89	16360.34
486.07	16681.00
486.25	16659.93
486.43	16573.33
486.61	16868.24
486.78	17214.64
486.96	17275.49
487.14	17699.13
487.32	17664.02
487.50	17776.37
487.68	17790.41
487.85	18431.72
488.03	18546.40
488.21	18469.17
488.39	18394.27
488.57	18576.83
488.75	18478.53
488.92	18857.70
489.10	19480.28
489.28	19384.32
489.46	19377.30
489.64	19470.92
489.81	20126.27
489.99	20084.14
490.17	19920.30
490.35	20313.51
490.53	20449.26
490.70	20283.08
490.88	20610.76
491.06	20966.52
491.24	20526.50
491.41	20748.85
491.59	20357.98
491.77	20603.74
491.95	21025.03
492.13	21418.24
492.30	21631.23
492.48	21521.23
492.66	21605.49
492.84	21645.27
493.01	22129.77
493.19	21701.45
493.37	21926.14
493.54	21977.63
493.72	22705.54
493.90	22546.38
494.08	23016.83
494.25	22946.61
494.43	22918.53
494.61	23386.63
494.79	23435.78
494.96	23414.72
495.14	23349.18
495.32	23669.84
495.49	23658.14
495.67	23939.00
495.85	24257.31
496.02	24044.32
496.20	24109.86
496.38	24236.25
496.55	24269.01
496.73	24812.02
496.91	24797.98
497.09	24985.22
497.26	24891.60
497.44	24933.73
497.62	24924.36
497.79	25298.85
497.97	24769.89
498.14	25067.14
498.32	25450.99
498.50	25511.84
498.67	26192.94
498.85	26082.93
499.03	26366.13
499.20	26164.85
499.38	26150.81
499.56	26267.83
499.73	26230.38
499.91	26757.00
500.08	26457.42
500.26	26146.12
500.44	26232.72
500.61	26541.68
500.79	26544.02
500.97	27028.51
501.14	26962.97
501.32	26930.20
501.49	26939.57
501.67	27140.85
501.84	27487.25
502.02	27599.60
502.20	27887.48
502.37	27716.62
502.55	27807.90
502.72	27943.66
502.90	27859.40
503.07	27920.25
503.25	28009.19
503.43	27922.59
503.60	27880.46
503.78	27852.38
503.95	28149.62
504.13	28161.33
504.30	28505.38
504.48	28718.37
504.65	28989.88
504.83	28758.16
505.01	28868.17
505.18	28971.15
505.36	29022.64
505.53	29172.44
505.71	29600.76
505.88	29766.93
506.06	29575.01
506.23	29575.01
506.41	29254.36
506.58	29652.25
506.76	29970.56
506.93	30136.74
507.11	29827.79
507.28	30221.00
507.46	29874.60
507.63	29968.22
507.81	30190.57
507.98	29600.76
508.16	30373.13
508.33	30551.01
508.50	30452.71
508.68	30792.09
508.85	31070.61
509.03	31058.91
509.20	30988.69
509.38	31220.41
509.55	31297.64
509.73	31101.04
509.90	31442.76
510.08	31215.72
510.25	31377.22
510.42	31660.43
510.60	31480.21
510.77	31622.98
510.95	31824.26
511.12	31590.21
511.30	32346.20
511.47	32428.12
511.64	32203.43
511.82	32362.59
511.99	32226.84
512.17	32393.01
512.34	32126.19
512.51	32364.93
512.69	32556.85
512.86	32706.65
513.04	32924.32
513.21	32889.21
513.38	32517.06
513.56	32907.93
513.73	32521.74
513.90	33071.77
514.08	33427.53
514.25	33083.47
514.43	32985.17
514.60	33034.32
514.77	33425.19
514.95	33795.00
515.12	33523.49
515.29	33593.71
515.47	33883.94
515.64	33797.34
515.81	33282.42
515.99	33631.16
516.16	33666.27
516.33	33392.42
516.51	33565.62
516.68	33364.34
516.85	32957.08
517.03	33495.41
517.20	33907.34
517.37	34164.80
517.54	34136.71
517.72	34134.37
517.89	33956.49
518.06	33813.72
518.24	33949.47
518.41	34082.88
518.58	34590.78
518.75	34330.98
518.93	34927.81
519.10	34712.49
519.27	34948.88
519.45	35206.34
519.62	34998.03
519.79	34920.79
519.96	34904.41
520.14	35440.39
520.31	35009.73
520.48	35522.31
520.65	35372.52
520.83	35938.93
521.00	35683.81
521.17	35959.99
521.34	35768.07
521.52	35786.79
521.69	35894.46
521.86	36212.77
522.03	36271.28
522.20	36091.06
522.38	36378.95
522.55	36662.15
522.72	36505.34
522.89	36409.37
523.07	36383.63
523.24	36835.35
523.41	36877.48
523.58	36580.23
523.75	37212.18
523.92	36884.50
524.10	37530.49
524.27	37497.72
524.44	37113.87
524.61	37429.85
524.78	37373.67
524.96	37755.18
525.13	37216.86
525.30	37699.01
525.47	37935.40
525.64	37614.75
525.81	37460.27
525.98	37696.67
526.16	37287.07
526.33	37111.53
526.50	37970.51
526.67	36978.12
526.84	37373.67
527.01	37546.87
527.18	37895.61
527.36	37745.82
527.53	38096.90
527.70	38508.83
527.87	38218.61
528.04	38328.61
528.21	38672.67
528.38	38667.99
528.55	38885.66
528.72	38738.21
528.89	38962.90
529.07	38595.43
529.24	38527.56
529.41	39079.92
529.58	38597.77
529.75	38983.96
529.92	38859.91
530.09	38869.28
530.26	39213.34
530.43	39501.22
530.60	39299.94
530.77	38960.56
530.94	39271.85
531.11	39253.12
531.28	39445.05
531.46	39564.42
531.63	39704.85
531.80	39218.02
531.97	39683.78
532.14	39419.30
532.31	38911.41
532.48	39393.56
532.65	39501.22
532.82	39423.98
532.99	39672.08
533.16	39826.56
533.33	39842.94
533.50	40053.59
533.67	39716.55
533.84	39927.20
534.01	40247.85
534.18	39882.73
534.35	40231.47
534.52	40006.78
534.69	40519.35
534.86	40194.02
535.03	40170.61
535.20	41357.27
535.37	41214.49
535.54	40912.56
535.71	40678.51
535.88	40816.60
536.05	40442.12
536.22	40807.24
536.38	40566.16
536.55	40612.98
536.72	40477.22
536.89	40631.70
537.06	40947.67
537.23	41261.30
537.40	40973.42
537.57	40638.72
537.74	40968.74
537.91	41343.22
538.08	40935.97
538.25	41099.81
538.42	41146.62
538.59	41038.95
538.75	41160.66
538.92	41326.84
539.09	41249.60
539.26	41144.28
539.43	41748.14
539.60	41167.68
539.77	41476.63
539.94	41581.96
540.11	40966.40
540.28	41415.78
540.44	41378.33
540.61	41436.84
540.78	41476.63
540.95	41453.23
541.12	41378.33
541.29	41598.34
541.46	41577.28
541.62	41834.74
541.79	41890.91
541.96	41750.48
542.13	41738.77
542.30	41570.25
542.47	41689.62
542.63	42057.09
542.80	42106.24
542.97	42801.38
543.14	42794.36
543.31	42761.59
543.48	42660.94
543.64	43328.00
543.81	42600.09
543.98	43105.65
544.15	42965.21
544.32	42583.71
544.48	42916.06
544.65	42878.61
544.82	42843.51
544.99	42333.27
545.16	42983.94
545.32	42700.73
545.49	42997.98
545.66	43852.28
545.83	43119.69
546.00	43365.45
546.16	43070.54
546.33	42948.83
546.50	42902.02
546.67	43232.04
546.83	42979.26
547.00	42794.36
547.17	43002.66
547.34	43468.43
547.50	43063.52
547.67	43538.65
547.84	42925.42
548.00	43367.79
548.17	43646.31
548.34	43688.44
548.51	43753.97
548.67	43892.07
548.84	43859.30
549.01	43711.84
549.18	43555.03
549.34	43739.93
549.51	43941.22
549.68	44299.32
549.84	43807.81
550.01	44282.94
550.18	43807.81
550.34	43817.17
550.51	44191.65
550.68	43889.73
550.84	43494.18
551.01	43964.62
551.18	43782.06
551.34	44360.17
551.51	43936.54
551.68	44783.81
551.84	44706.57
552.01	43798.44
552.18	44186.97
552.34	44329.75
552.51	44432.73
552.68	44236.12
552.84	44783.81
553.01	44940.63
553.18	44465.50
553.34	44638.70
553.51	44186.97
553.67	44275.91
553.84	44612.95
554.01	44179.95
554.17	44692.53
554.34	44769.77
554.51	44364.85
554.67	45057.65
554.84	44552.10
555.00	44547.42
555.17	44769.77
555.33	44645.72
555.50	44788.49
555.67	44856.37
555.83	44751.04
556.00	44608.27
556.16	45518.74
556.33	44664.44
556.50	44786.15
556.66	44584.86
556.83	44514.65
556.99	45076.38
557.16	45172.34
557.32	45057.65
557.49	45052.97
557.65	44561.46
557.82	45074.04
557.98	45251.92
558.15	44966.37
558.32	44994.46
558.48	45081.06
558.65	45177.02
558.81	45097.44
558.98	44849.35
559.14	45219.15
559.31	45427.46
559.47	45216.81
559.64	45680.24
559.80	45563.21
559.97	45752.79
560.13	44952.33
560.30	45052.97
560.46	45258.94
560.63	45347.88
560.79	45628.74
560.96	45397.03
561.12	45368.94
561.29	45530.44
561.45	45287.03
561.61	45467.25
561.78	45701.30
561.94	44992.12
562.11	45537.46
562.27	45530.44
562.44	45359.58
562.60	45778.54
562.77	45191.06
562.93	45394.69
563.10	45991.53
563.26	45081.06
563.42	45354.90
563.59	45429.80
563.75	45532.78
563.92	45521.08
564.08	45762.15
564.24	45979.82
564.41	45284.68
564.57	45890.88
564.74	45841.73
564.90	46000.89
565.07	45888.54
565.23	45544.48
565.39	45317.45
565.56	45928.33
565.72	45214.47
565.88	45806.62
566.05	45481.29
566.21	45607.68
566.38	45528.10
566.54	46092.17
566.70	45827.69
566.87	46096.85
567.03	45694.28
567.19	46066.42
567.36	45970.46
567.52	45762.15
567.68	45801.94
567.85	45881.52
568.01	45940.04
568.17	46014.93
568.34	45696.62
568.50	45851.09
568.66	46232.60
568.83	45404.05
568.99	45385.33
569.15	45357.24
569.32	45270.64
569.48	45621.72
569.64	45656.83
569.81	46094.51
569.97	45998.55
570.13	46057.06
570.30	45752.79
570.46	46047.70
570.62	45708.32
570.78	45673.21
570.95	45603.00
571.11	45766.84
571.27	45593.64
571.43	45804.28
571.60	45993.87
571.76	45879.18
571.92	45698.96
572.09	45855.78
572.25	45940.04
572.41	46028.98
572.57	46525.17
572.74	46197.49
572.90	46263.03
573.06	46195.15
573.22	46209.20
573.38	46101.53
573.55	46033.66
573.71	46178.77
573.87	46050.04
574.03	46148.34
574.20	46024.29
574.36	46019.61
574.52	46099.19
574.68	46464.32
574.84	46050.04
575.01	45989.19
575.17	46150.68
575.33	45603.00
575.49	45467.25
575.65	46497.08
575.82	45947.06
575.98	46162.39
576.14	46424.53
576.30	46347.29
576.46	45701.30
576.62	45668.53
576.79	46234.94
576.95	46099.19
577.11	46155.36
577.27	46354.31
577.43	45949.40
577.59	46085.15
577.75	45841.73
577.92	45815.99
578.08	45598.32
578.24	46080.47
578.40	45755.13
578.56	46183.45
578.72	45996.21
578.88	46096.85
579.04	45890.88
579.21	46391.76
579.37	45972.80
579.53	46358.99
579.69	46263.03
579.85	46169.41
580.01	46124.94
580.17	46124.94
580.33	46270.05
580.49	45893.22
580.65	46195.15
580.82	46241.96
580.98	46028.98
581.14	46148.34
581.30	46403.46
581.46	46064.08
581.62	46307.50
581.78	45947.06
581.94	46602.41
582.10	46036.00
582.26	45911.95
582.42	45832.37
582.58	46199.83
582.74	46398.78
582.90	46218.56
583.06	46501.76
583.22	46298.14
583.38	46728.80
583.54	46368.35
583.70	46454.95
583.86	46658.58
584.02	46263.03
584.18	46548.57
584.34	46373.03
584.50	46096.85
584.66	46248.99
584.82	45869.82
584.98	46335.59
585.14	46351.97
585.30	46021.95
585.46	46466.66
585.62	46157.70
585.78	46014.93
585.94	46113.23
586.10	46293.46
586.26	46110.89
586.42	46368.35
586.58	46316.86
586.74	46185.79
586.90	46429.21
587.06	45813.65
587.22	46471.34
587.38	45961.10
587.54	45914.29
587.70	46431.55
587.86	46176.43
588.02	46361.33
588.18	46340.27
588.34	45958.76
588.49	45916.63
588.65	45177.02
588.81	45553.85
588.97	46216.22
589.13	45453.20
589.29	45916.63
589.45	46265.37
589.61	46134.30
589.77	46396.44
589.93	46171.75
590.08	46557.94
590.24	46459.63
590.40	46630.49
590.56	46450.27
590.72	46684.33
590.88	46099.19
591.04	46628.15
591.20	46981.57
591.35	46469.00
591.51	46705.39
591.67	46363.67
591.83	46471.34
591.99	46335.59
592.15	46579.00
592.31	46183.45
592.46	46459.63
592.62	46878.59
592.78	46637.51
592.94	46632.83
593.10	46663.26
593.26	46363.67
593.41	46155.36
593.57	46134.30
593.73	46075.79
593.89	46293.46
594.05	46579.00
594.20	46302.82
594.36	46630.49
594.52	46178.77
594.68	46066.42
594.84	46136.64
594.99	46733.48
595.15	46546.23
595.31	46291.12
595.47	46747.52
595.62	46555.60
595.78	46443.25
595.94	46857.52
596.10	46871.57
596.25	46728.80
596.41	46438.57
596.57	46497.08
596.73	46586.02
596.88	46270.05
597.04	46543.89
597.20	46515.81
597.36	46319.20
597.51	46887.95
597.67	46726.46
597.83	46323.88
597.99	46600.07
598.14	46630.49
598.30	46504.10
598.46	46351.97
598.61	46590.70
598.77	46129.62
598.93	46164.73
599.09	46216.22
599.24	46932.42
599.40	46630.49
599.56	46131.96
599.71	46466.66
599.87	46691.35
600.03	46396.44
600.18	46763.90
600.34	46234.94
600.50	46557.94
600.65	46532.19
600.81	46944.12
600.97	46876.25
601.12	46609.43
601.28	46747.52
601.44	46719.43
601.59	46157.70
601.75	46120.26
601.91	46457.29
602.06	45998.55
602.22	46721.77
602.37	46316.86
602.53	46555.60
602.69	46665.60
602.84	46223.24
603.00	46094.51
603.16	46344.95
603.31	46536.87
603.47	46071.10
603.62	46246.65
603.78	46569.64
603.94	46347.29
604.09	46614.11
604.25	46611.77
604.40	46253.67
604.56	46300.48
604.71	46595.38
604.87	46202.18
605.03	46026.63
605.18	46071.10
605.34	46368.35
605.49	45925.99
605.65	46216.22
605.80	46527.51
605.96	46759.22
606.12	46302.82
606.27	46501.76
606.43	46438.57
606.58	46471.34
606.74	46260.69
606.89	46197.49
607.05	46693.69
607.20	45965.78
607.36	46483.04
607.51	46447.93
607.67	46045.36
607.82	46405.80
607.98	46012.59
608.13	45954.08
608.29	46096.85
608.44	45469.59
608.60	45986.85
608.75	45752.79
608.91	46167.07
609.06	46073.45
609.22	46064.08
609.37	45947.06
609.53	46309.84
609.68	46052.38
609.84	45631.08
609.99	46157.70
610.15	45998.55
610.30	45801.94
610.46	44952.33
610.61	45469.59
610.76	45694.28
610.92	46209.20
611.07	45996.21
611.23	46036.00
611.38	45481.29
611.54	45708.32
611.69	45212.13
611.84	45563.21
612.00	45404.05
612.15	45521.08
612.31	45443.84
612.46	45516.40
612.62	45450.86
612.77	45275.32
612.92	45577.25
613.08	45464.91
613.23	45581.93
613.39	45261.28
613.54	45406.39
613.69	45572.57
613.85	45539.80
614.00	45640.45
614.15	45375.97
614.31	45254.26
614.46	45509.38
614.62	45574.91
614.77	45319.79
614.92	45687.26
615.08	45324.47
615.23	45322.13
615.38	44680.83
615.54	44933.60
615.69	44746.36
615.84	44879.77
616.00	45326.81
616.15	45059.99
616.30	44788.49
616.46	45062.33
616.61	44774.45
616.76	44910.20
616.92	44254.85
617.07	44893.82
617.22	44634.02
617.37	44952.33
617.53	45193.40
617.68	44907.86
617.83	45017.86
617.99	44863.39
618.14	45118.51
618.29	44626.99
618.45	44039.52
618.60	44465.50
618.75	44666.78
618.90	44919.56
619.06	44327.41
619.21	44509.97
619.36	44891.48
619.51	44751.04
619.67	44715.93
619.82	44648.06
619.97	44671.46
620.12	44411.67
620.28	44121.44
620.43	44332.09
620.58	44500.61
620.73	44294.64
620.89	44512.31
621.04	44435.07
621.19	44341.45
621.34	44900.84
621.49	44411.67
621.65	44041.86
621.80	44102.71
621.95	44491.24
622.10	44107.40
622.25	43784.40
622.41	43981.01
622.56	44172.93
622.71	44030.16
622.86	44025.48
623.01	43803.13
623.16	44369.54
623.32	43906.11
623.47	44072.29
623.62	43927.17
623.77	43634.61
623.92	43819.51
624.07	43821.85
624.23	43775.04
624.38	43892.07
624.53	43536.30
624.68	43381.83
624.83	43512.90
624.98	43388.85
625.13	42878.61
625.29	43154.80
625.44	43133.73
625.59	43035.43
625.74	42787.33
625.89	43194.59
626.04	43187.56
626.19	43309.27
626.34	42976.92
626.49	43150.12
626.65	43271.82
626.80	43606.52
626.95	43454.39
627.10	42944.15
627.25	43129.05
627.40	42742.86
627.55	42511.15
627.70	42724.14
627.85	42501.79
628.00	42703.07
628.15	42864.57
628.30	42539.24
628.45	43175.86
628.60	42923.08
628.76	42326.25
628.91	42981.60
629.06	42895.00
629.21	42567.32
629.36	42658.60
629.51	42199.86
629.66	42333.27
629.81	42319.23
629.96	42639.88
630.11	41935.38
630.26	42712.44
630.41	42534.56
630.56	42457.32
630.71	42593.07
630.86	42377.74
631.01	42218.58
631.16	42719.46
631.31	42024.32
631.46	41797.29
631.61	41823.03
631.76	42342.63
631.91	41977.51
632.06	42408.17
632.21	42380.08
632.36	42244.33
632.51	41684.94
632.66	42277.10
632.81	41605.36
632.96	41759.84
633.10	41940.06
633.25	41921.34
633.40	42387.10
633.55	42218.58
633.70	42014.96
633.85	41507.06
634.00	41942.40
634.15	41698.98
634.30	41778.56
634.45	41752.82
634.60	41750.48
634.75	41556.21
634.90	42059.43
635.05	41638.13
635.19	41230.88
635.34	42003.25
635.49	41357.27
635.64	41748.14
635.79	41581.96
635.94	41242.58
636.09	41265.99
636.24	41448.55
636.39	41008.53
636.53	41507.06
636.68	41296.41
636.83	41375.99
636.98	41375.99
637.13	41064.70
637.28	41235.56
637.43	41254.28
637.57	41724.73
637.72	41420.46
637.87	41202.79
638.02	41244.92
638.17	40994.48
638.32	41008.53
638.46	41134.92
638.61	41148.96
638.76	41010.87
638.91	41324.50
639.06	40966.40
639.20	41275.35
639.35	41317.48
639.50	41291.73
639.65	41050.66
639.80	41020.23
639.94	40718.30
640.09	40666.81
640.24	40762.77
640.39	40467.86
640.54	40603.61
640.68	40315.73
640.83	40748.73
640.98	40744.05
641.13	40601.27
641.27	40758.09
641.42	40250.19
641.57	40708.94
641.72	40486.59
641.86	40254.87
642.01	40444.46
642.16	40278.28
642.31	40304.02
642.45	40261.90
642.60	40044.23
642.75	40289.98
642.90	40217.43
643.04	40442.12
643.19	39702.51
643.34	40198.70
643.48	40175.30
643.63	39934.22
643.78	40004.44
643.93	39636.97
644.07	39791.45
644.22	40016.14
644.37	39910.82
644.51	40170.61
644.66	39721.23
644.81	39622.93
644.95	40009.12
645.10	40039.54
645.25	40582.55
645.39	39707.19
645.54	39985.71
645.69	39894.43
645.83	39459.09
645.98	39611.23
646.13	39543.35
646.27	39868.69
646.42	39686.12
646.57	39386.54
646.71	39885.07
646.86	39442.71
647.00	39416.96
647.15	39402.92
647.30	39529.31
647.44	39381.85
647.59	39416.96
647.74	39049.50
647.88	39583.14
648.03	39405.26
648.17	39484.84
648.32	39276.53
648.47	39229.72
648.61	39299.94
648.76	39267.17
648.90	39239.08
649.05	39257.81
649.20	39124.40
649.34	39026.09
649.49	38775.66
649.63	39044.82
649.78	38969.92
649.92	39047.16
650.07	39201.63
650.21	38639.90
650.36	39100.99
650.51	38890.34
650.65	39367.81
650.80	39358.45
650.94	39180.57
651.09	39178.23
651.23	38595.43
651.38	38768.63
651.52	38550.96
651.67	38333.29
651.81	38277.12
651.96	38478.41
652.10	38513.52
652.25	38618.84
652.39	38607.14
652.54	38583.73
652.68	38670.33
652.83	38478.41
652.97	39016.73
653.12	38925.45
653.26	38272.44
653.41	38108.60
653.55	37827.74
653.70	38302.87
653.84	38543.94
653.99	38602.46
654.13	37670.92
654.27	37757.52
654.42	38075.84
654.56	37476.66
654.71	38291.16
654.85	38459.68
655.00	38389.47
655.14	37603.05
655.29	37837.10
655.43	38171.80
655.57	37172.39
655.72	37275.37
655.86	37736.46
656.01	37333.89
656.15	37584.32
656.30	37116.22
656.44	37443.89
656.58	37123.24
656.73	37586.66
656.87	37577.30
657.01	37490.70
657.16	37963.49
657.30	37535.17
657.45	37205.16
657.59	37099.83
657.73	37113.87
657.88	37881.57
658.02	37434.53
658.16	37670.92
658.31	37621.77
658.45	37427.51
658.60	37050.68
658.74	37528.15
658.88	36849.39
659.03	36692.58
659.17	37031.96
659.31	36762.79
659.46	36847.05
659.60	37010.89
659.74	37092.81
659.89	37083.45
660.03	37006.21
660.17	36851.73
660.32	36825.99
660.46	37331.54
660.60	36425.76
660.74	37046.00
660.89	36458.52
661.03	36456.18
661.17	36245.54
661.32	35948.29
661.46	36084.04
661.60	36236.17
661.74	36514.70
661.89	36898.55
662.03	36397.67
662.17	36381.29
662.31	35739.98
662.46	36491.29
662.60	36306.39
662.74	36044.25
662.88	35990.42
663.03	35569.12
663.17	35981.06
663.31	35459.12
663.45	35714.23
663.60	35693.17
663.74	35805.52
663.88	35922.54
664.02	35583.16
664.17	35405.28
664.31	35262.51
664.45	35402.94
664.59	35510.61
664.73	35388.90
664.88	35583.16
665.02	35152.51
665.16	35517.63
665.30	34991.01
665.44	35105.70
665.59	34768.66
665.73	34635.25
665.87	34941.86
666.01	34944.20
666.15	34953.56
666.29	35154.85
666.44	35290.60
666.58	34586.10
666.72	34628.23
666.86	34939.52
667.00	34883.34
667.14	34595.46
667.28	34565.03
667.43	34370.77
667.57	34295.87
667.71	34094.58
667.85	34483.11
667.99	34050.11
668.13	34078.20
668.27	34279.49
668.41	34333.32
668.56	33921.38
668.70	34209.27
668.84	33890.96
668.98	33694.35
669.12	33455.62
669.26	33448.60
669.40	33085.81
669.54	33149.01
669.68	33537.54
669.82	33132.62
669.96	33289.44
670.10	32723.03
670.25	33385.40
670.39	32971.13
670.53	33003.89
670.67	32788.56
670.81	33427.53
670.95	33036.66
671.09	32891.55
671.23	32596.64
671.37	32437.48
671.51	32837.72
671.65	32479.61
671.79	32418.76
671.93	32474.93
672.07	32505.36
672.21	32624.73
672.35	32189.39
672.49	32287.69
672.63	32868.14
672.77	32034.91
672.91	32528.77
673.05	32205.77
673.19	32329.82
673.33	31770.43
673.47	31718.94
673.61	31786.82
673.75	31449.78
673.89	31529.36
674.03	31817.24
674.17	31976.40
674.31	31337.43
674.45	31325.73
674.59	31604.25
674.73	31639.36
674.87	31220.41
675.01	31271.90
675.15	31328.07
675.29	30553.35
675.43	31182.96
675.56	30866.98
675.70	30532.29
675.84	30675.06
675.98	29804.38
676.12	30586.12
676.26	30595.48
676.40	30616.55
676.54	30506.54
676.68	30579.10
676.82	29855.87
676.96	30387.18
677.10	30110.99
677.23	30054.82
677.37	29685.01
677.51	29584.37
677.65	29713.10
677.79	29369.04
677.93	29446.28
678.07	29436.92
678.21	29078.82
678.34	28875.19
678.48	28697.31
678.62	28526.45
678.76	28849.44
678.90	28533.47
679.04	28374.31
679.18	28247.93
679.31	28348.57
679.45	27969.40
679.59	28208.14
679.73	28189.41
679.87	28507.72
680.00	28048.98
680.14	27564.49
680.28	28011.53
680.42	27681.52
680.56	27632.36
680.70	28364.95
680.83	27651.09
680.97	27440.44
681.11	27405.33
681.25	27080.00
681.39	27424.06
681.52	27632.36
681.66	27080.00
681.80	26890.41
681.94	26710.19
682.07	27096.38
682.21	26895.10
682.35	26808.50
682.49	26923.18
682.62	26852.97
682.76	26349.75
682.90	26216.34
683.04	26195.28
683.17	26426.99
683.31	25839.51
683.45	25799.73
683.59	25530.56
683.72	25671.00
683.86	25876.96
684.00	25722.49
684.13	25825.47
684.27	25483.75
684.41	25263.74
684.55	25436.94
684.68	25333.96
684.82	25085.86
684.96	24945.43
685.09	24882.24
685.23	24865.85
685.37	25130.33
685.50	25029.69
685.64	24863.51
685.78	24669.25
685.91	24795.64
686.05	24484.34
686.19	24332.21
686.32	24196.46
686.46	23506.00
686.60	23288.33
686.73	23676.86
686.87	23419.40
687.01	23047.26
687.14	23489.62
687.28	23180.67
687.42	23384.29
687.55	23225.14
687.69	23175.98
687.82	23051.94
687.96	23007.47
688.10	23040.23
688.23	22785.12
688.37	22848.31
688.50	22583.83
688.64	22670.43
688.78	22607.23
688.91	22405.95
689.05	22698.52
689.18	22394.25
689.32	21991.67
689.46	22155.51
689.59	22214.02
689.73	22211.68
689.86	21811.45
690.00	21846.56
690.13	21963.59
690.27	21734.21
690.41	21818.47
690.54	21326.96
690.68	21060.14
690.81	21165.46
690.95	21420.58
691.08	21266.11
691.22	21329.30
691.35	21291.85
691.49	21544.63
691.62	20973.54
691.76	20994.61
691.89	20788.64
692.03	20643.52
692.16	20486.71
692.30	20786.30
692.43	20390.75
692.57	20098.18
692.70	20219.89
692.84	20215.21
692.97	19850.08
693.11	20247.97
693.24	20025.62
693.38	19779.87
693.51	19751.78
693.65	20004.56
693.78	19878.17
693.92	19625.39
694.05	19541.13
694.19	19349.21
694.32	19023.87
694.45	19234.52
694.59	19047.28
694.72	19030.90
694.86	19056.64
694.99	18738.33
695.13	18803.86
695.26	19019.19
695.39	18848.33
695.53	18691.52
695.66	18932.59
695.80	18649.39
695.93	18590.88
696.07	18242.14
696.20	18513.64
696.33	18195.32
696.47	18356.82
696.60	18052.55
696.73	17853.61
696.87	17982.34
697.00	17633.60
697.14	18162.56
697.27	17673.39
697.40	17930.84
697.54	17294.22
697.67	17390.18
697.80	17338.69
697.94	17151.45
698.07	17011.01
698.21	17165.49
698.34	17249.75
698.47	17198.26
698.61	17125.70
698.74	16943.14
698.87	16622.48
699.01	16456.31
699.14	16372.05
699.27	16299.49
699.40	16140.33
699.54	16409.50
699.67	15974.16
699.80	16465.67
699.94	16077.14
700.07	16112.25
700.20	16013.95
700.34	16119.27
700.47	15817.34
700.60	16081.82
700.73	16306.51
700.87	15910.96
701.00	15662.86
701.13	15819.68
701.26	15332.85
701.40	15515.41
701.53	15365.62
701.66	15169.01
701.79	15433.49
701.93	15077.73
702.06	15126.88
702.19	15037.94
702.32	15122.20
702.46	14806.23
702.59	14562.81
702.72	15187.74
702.85	14949.00
702.99	14937.30
703.12	14562.81
703.25	14436.42
703.38	14668.14
703.51	14209.39
703.65	14420.04
703.78	14214.07
703.91	14473.87
704.04	14188.33
704.17	14125.13
704.31	14040.87
704.44	14136.84
704.57	13991.72
704.70	13790.44
704.83	13958.96
704.96	13731.92
705.10	13717.88
705.23	13657.03
>>>>>End Processed Spectral Data<<<<<
