SpectraSuite Data File
++++++++++++++++++++++++++++++++++++
Date: Fri Oct 25 11:34:15 EDT 2013
User: price-jones
Dark Spectrum Present: No
Reference Spectrum Present: No
Number of Sampled Component Spectra: 1
Spectrometers: USB2+H05261
Integration Time (usec): 100000 (USB2+H05261)
Spectra Averaged: 1 (USB2+H05261)
Boxcar Smoothing: 0 (USB2+H05261)
Correct for Electrical Dark: No (USB2+H05261)
Strobe/Lamp Enabled: No (USB2+H05261)
Correct for Detector Non-linearity: No (USB2+H05261)
Correct for Stray Light: No (USB2+H05261)
Number of Pixels in Processed Spectrum: 2048
>>>>>Begin Processed Spectral Data<<<<<
365.73	287.89
365.92	287.89
366.12	287.89
366.32	175.54
366.52	121.71
366.72	201.29
366.91	124.05
367.11	227.03
367.31	163.84
367.51	163.84
367.70	166.18
367.90	168.52
368.10	198.95
368.30	173.20
368.49	156.82
368.69	196.60
368.89	227.03
369.09	152.13
369.28	189.58
369.48	180.22
369.68	243.42
369.87	248.10
370.07	220.01
370.27	198.95
370.47	351.08
370.66	538.32
370.86	503.22
371.06	496.19
371.25	554.71
371.45	510.24
371.65	564.07
371.84	531.30
372.04	533.64
372.24	589.82
372.44	627.26
372.63	580.45
372.83	596.84
373.03	557.05
373.22	596.84
373.42	596.84
373.62	613.22
373.81	671.73
374.01	585.13
374.21	688.12
374.40	622.58
374.60	634.29
374.79	688.12
374.99	603.86
375.19	599.18
375.38	624.92
375.58	653.01
375.78	699.82
375.97	711.52
376.17	763.01
376.37	599.18
376.56	699.82
376.76	671.73
376.95	678.76
377.15	772.38
377.35	683.44
377.54	678.76
377.74	596.84
377.93	713.86
378.13	664.71
378.33	692.80
378.52	622.58
378.72	662.37
378.91	631.94
379.11	718.54
379.31	667.05
379.50	683.44
379.70	669.39
379.89	695.14
380.09	734.93
380.28	657.69
380.48	727.91
380.68	732.59
380.87	636.63
381.07	795.78
381.26	676.41
381.46	798.12
381.65	727.91
381.85	835.57
382.04	744.29
382.24	830.89
382.43	751.31
382.63	763.01
382.83	814.51
383.02	763.01
383.22	793.44
383.41	821.53
383.61	840.25
383.80	858.98
384.00	758.33
384.19	816.85
384.39	800.46
384.58	837.91
384.78	863.66
384.97	840.25
385.17	842.59
385.36	807.48
385.56	877.70
385.75	894.08
385.95	891.74
386.14	863.66
386.34	849.61
386.53	781.74
386.72	826.21
386.92	858.98
387.11	917.49
387.31	791.10
387.50	816.85
387.70	842.59
387.89	990.05
388.09	877.70
388.28	940.90
388.48	898.77
388.67	936.21
388.86	889.40
389.06	889.40
389.25	943.24
389.45	978.34
389.64	891.74
389.84	976.00
390.03	933.87
390.22	940.90
390.42	957.28
390.61	1015.79
390.81	959.62
391.00	1034.52
391.19	1034.52
391.39	997.07
391.58	1032.18
391.78	929.19
391.97	997.07
392.16	980.68
392.36	912.81
392.55	985.37
392.75	1076.65
392.94	952.60
393.13	1060.26
393.33	1039.20
393.52	1032.18
393.71	1107.07
393.91	1055.58
394.10	1064.94
394.29	1036.86
394.49	1139.84
394.68	1060.26
394.88	1004.09
395.07	1142.18
395.26	1123.46
395.46	1170.27
395.65	1107.07
395.84	1142.18
396.04	1203.04
396.23	1170.27
396.42	1249.85
396.62	1097.71
396.81	1210.06
397.00	1144.52
397.19	1177.29
397.39	1170.27
397.58	1320.06
397.77	1196.01
397.97	1252.19
398.16	1121.12
398.35	1263.89
398.55	1210.06
398.74	1238.14
398.93	1219.42
399.12	1284.95
399.32	1308.36
399.51	1217.08
399.70	1378.58
399.90	1334.11
400.09	1345.81
400.28	1303.68
400.47	1336.45
400.67	1495.60
400.86	1348.15
401.05	1399.64
401.24	1425.39
401.44	1315.38
401.63	1423.05
401.82	1458.15
402.01	1324.74
402.21	1359.85
402.40	1479.22
402.59	1467.52
402.78	1547.09
402.97	1502.62
403.17	1626.67
403.36	1460.49
403.55	1551.78
403.74	1530.71
403.93	1647.74
404.13	1533.05
404.32	1535.39
404.51	1586.88
404.70	1659.44
404.89	1598.59
405.09	1621.99
405.28	1687.53
405.47	1633.69
405.66	1598.59
405.85	1673.48
406.05	1591.56
406.24	1851.36
406.43	1727.32
406.62	1748.38
406.81	1820.94
407.00	1851.36
407.20	1755.40
407.39	1795.19
407.58	1757.74
407.77	1851.36
407.96	1797.53
408.15	1849.02
408.34	1856.04
408.54	1865.41
408.73	1832.64
408.92	1825.62
409.11	1902.86
409.30	1912.22
409.49	1930.94
409.68	1921.58
409.87	1940.30
410.07	1942.64
410.26	2008.18
410.45	1966.05
410.64	1998.82
410.83	2172.02
411.02	1968.39
411.21	1942.64
411.40	2012.86
411.59	2118.18
411.78	2097.12
411.98	2101.80
412.17	2134.57
412.36	2176.70
412.55	2256.28
412.74	2338.20
412.93	2209.47
413.12	2228.19
413.31	2335.85
413.50	2356.92
413.69	2286.70
413.88	2483.31
414.07	2513.74
414.26	2382.67
414.45	2394.37
414.64	2476.29
414.83	2525.44
415.02	2473.95
415.22	2630.76
415.41	2588.63
415.60	2607.36
415.79	2523.10
415.98	2630.76
416.17	2761.83
416.36	2672.89
416.55	2691.62
416.74	2689.28
416.93	2691.62
417.12	2712.68
417.31	2825.03
417.50	2787.58
417.69	2949.08
417.88	2911.63
418.07	2942.05
418.26	2909.29
418.45	3007.59
418.64	3054.40
418.83	2930.35
419.02	2937.37
419.21	3000.57
419.39	2935.03
419.58	3023.97
419.77	2977.16
419.96	2944.39
420.15	3112.91
420.34	2965.46
420.53	3105.89
420.72	3112.91
420.91	3215.90
421.10	3192.49
421.29	3143.34
421.48	3021.63
421.67	3239.30
421.86	3059.08
422.05	3211.22
422.24	3236.96
422.43	3274.41
422.61	3143.34
422.80	3288.45
422.99	3131.64
423.18	3229.94
423.37	3318.88
423.56	3243.98
423.75	3276.75
423.94	3232.28
424.13	3211.22
424.32	3155.04
424.50	3391.44
424.69	3379.73
424.88	3297.81
425.07	3267.39
425.26	3255.69
425.45	3236.96
425.64	3417.18
425.83	3337.60
426.01	3311.86
426.20	3370.37
426.39	3524.85
426.58	3279.09
426.77	3445.27
426.96	3414.84
427.15	3419.52
427.33	3480.38
427.52	3492.08
427.71	3597.40
427.90	3588.04
428.09	3562.30
428.28	3353.99
428.46	3562.30
428.65	3574.00
428.84	3679.32
429.03	3641.87
429.22	3463.99
429.40	3747.20
429.59	3583.36
429.78	3637.19
429.97	3445.27
430.16	3679.32
430.34	3669.96
430.53	3789.33
430.72	3779.97
430.91	3728.47
431.10	3632.51
431.28	3861.88
431.47	3838.48
431.66	3882.95
431.85	3840.82
432.03	3843.16
432.22	4042.11
432.41	3929.76
432.60	3964.87
432.79	3920.40
432.97	3990.61
433.16	3948.48
433.35	4079.55
433.54	4002.32
433.72	4079.55
433.91	4074.87
434.10	4044.45
434.28	4121.68
434.47	4077.21
434.66	4079.55
434.85	4138.07
435.03	4203.60
435.22	4147.43
435.41	4255.09
435.59	4360.42
435.78	4210.62
435.97	4259.78
436.16	4203.60
436.34	4362.76
436.53	4353.40
436.72	4421.27
436.90	4140.41
437.09	4383.82
437.28	4360.42
437.46	4430.63
437.65	4477.44
437.84	4440.00
438.02	4442.34
438.21	4404.89
438.40	4432.97
438.58	4573.41
438.77	4592.13
438.96	4533.62
439.14	4744.27
439.33	4706.82
439.52	4718.52
439.70	4865.97
439.89	4938.53
440.08	4858.95
440.26	4889.38
440.45	5053.22
440.63	4938.53
440.82	5029.81
441.01	4931.51
441.19	5095.35
441.38	5109.39
441.57	5081.30
441.75	5055.56
441.94	5336.42
442.12	5287.27
442.31	5203.01
442.50	5446.43
442.68	5359.83
442.87	5214.71
443.05	5247.48
443.24	5430.04
443.43	5188.97
443.61	5444.09
443.80	5558.77
443.98	5406.64
444.17	5308.34
444.35	5467.49
444.54	5455.79
444.73	5460.47
444.91	5308.34
445.10	5490.90
445.28	5441.75
445.47	5364.51
445.65	5427.70
445.84	5612.60
446.02	5760.06
446.21	5586.86
446.39	5460.47
446.58	5612.60
446.77	5764.74
446.95	5561.11
447.14	5504.94
447.32	5687.50
447.51	5488.56
447.69	5561.11
447.88	5561.11
448.06	5526.00
448.25	5572.82
448.43	5778.78
448.62	5582.18
448.80	5575.16
448.99	5764.74
449.17	5790.49
449.36	5834.96
449.54	5820.91
449.73	5788.14
449.91	5856.02
450.10	5762.40
450.28	5853.68
450.46	6010.50
450.65	5902.83
450.83	6104.12
451.02	6024.54
451.20	6104.12
451.39	6036.24
451.57	5973.05
451.76	5916.87
451.94	6008.16
452.13	6045.60
452.31	5998.79
452.49	6031.56
452.68	6094.76
452.86	6090.07
453.05	6328.81
453.23	6197.74
453.42	6204.76
453.60	5879.43
453.78	6106.46
453.97	6251.57
454.15	6319.45
454.34	6242.21
454.52	6349.87
454.70	6265.61
454.89	6413.07
455.07	6340.51
455.26	6502.01
455.44	6534.78
455.62	6368.60
455.81	6410.73
455.99	6724.36
456.17	6537.12
456.36	6642.44
456.54	6574.56
456.73	6530.09
456.91	6806.28
457.09	6892.88
457.28	6918.62
457.46	6834.36
457.64	6773.51
457.83	6850.75
458.01	6745.42
458.19	7073.10
458.38	7002.88
458.56	6979.48
458.74	6843.73
458.93	6988.84
459.11	7056.72
459.29	7084.80
459.48	7140.97
459.66	7194.81
459.84	7204.17
460.03	7297.79
460.21	7045.01
460.39	7185.44
460.57	7220.55
460.76	7283.75
460.94	7201.83
461.12	7183.10
461.31	7297.79
461.49	7204.17
461.67	7070.76
461.85	7503.76
462.04	7318.86
462.22	7868.88
462.40	7548.23
462.59	7620.78
462.77	7463.97
462.95	7627.81
463.13	7456.95
463.32	7665.25
463.50	7782.28
463.68	7653.55
463.86	7705.04
464.05	7691.00
464.23	7541.21
464.41	7789.30
464.59	7653.55
464.78	7770.58
464.96	7749.51
465.14	7733.13
465.32	7943.78
465.50	7971.86
465.69	7885.26
465.87	7695.68
466.05	7962.50
466.23	7913.35
466.41	7988.25
466.60	8058.46
466.78	7878.24
466.96	8067.83
467.14	8018.68
467.32	7953.14
467.51	8224.64
467.69	7992.93
467.87	8184.85
468.05	8262.09
468.23	8056.12
468.41	7983.57
468.60	7953.14
468.78	8065.49
468.96	8088.89
469.14	8381.46
469.32	8327.63
469.50	8344.01
469.69	8472.74
469.87	8381.46
470.05	8458.70
470.23	8475.08
470.41	8360.39
470.59	8664.66
470.77	8535.93
470.95	8351.03
471.14	8720.84
471.32	8674.03
471.50	8669.34
471.68	8833.18
471.86	8748.92
472.04	8826.16
472.22	8987.66
472.40	8835.52
472.58	8959.57
472.77	9055.53
472.95	9160.86
473.13	9392.57
473.31	9163.20
473.49	9097.66
473.67	9219.37
473.85	9282.56
474.03	9561.09
474.21	9394.91
474.39	9617.26
474.57	9523.64
474.75	9621.94
474.93	9664.07
475.12	9762.37
475.30	9572.79
475.48	9839.61
475.66	9891.10
475.84	9643.01
476.02	10059.62
476.20	9865.36
476.38	10097.07
476.56	10296.02
476.74	10291.34
476.92	10284.31
477.10	9947.28
477.28	10459.85
477.46	10314.74
477.64	10401.34
477.82	10698.59
478.00	10991.16
478.18	10651.78
478.36	11087.12
478.54	10892.85
478.72	11014.56
478.90	10953.71
479.08	11293.08
479.26	11419.47
479.44	11213.51
479.62	11506.07
479.80	11508.41
479.98	11435.86
480.16	11936.73
480.34	11733.11
480.52	12074.82
480.70	11997.59
480.88	11700.34
481.06	11990.56
481.24	12107.59
481.41	12023.33
481.59	12325.26
481.77	12397.82
481.95	12620.17
482.13	12889.33
482.31	12753.58
482.49	12645.91
482.67	12798.05
482.85	13008.70
483.03	13064.87
483.21	13352.76
483.39	13305.95
483.57	13207.64
483.74	13493.19
483.92	13432.33
484.10	13657.03
484.28	13715.54
484.46	13893.42
484.64	14207.05
484.82	14281.95
485.00	14185.99
485.18	14237.48
485.35	14719.63
485.53	14740.69
485.71	14712.61
485.89	14848.36
486.07	14937.30
486.25	14913.89
486.43	15124.54
486.61	15302.42
486.78	15077.73
486.96	15225.18
487.14	15489.67
487.32	15604.35
487.50	15910.96
487.68	15866.49
487.85	16100.55
488.03	16252.68
488.21	16449.28
488.39	16531.20
488.57	16681.00
488.75	16416.52
488.92	16903.35
489.10	16795.68
489.28	17041.44
489.46	17259.11
489.64	17104.64
489.81	17652.32
489.99	17624.23
490.17	17453.37
490.35	17926.16
490.53	17738.92
490.70	18125.11
490.88	17987.02
491.06	18253.84
491.24	18024.47
491.41	18150.85
491.59	18743.01
491.77	18808.54
491.95	18813.23
492.13	18864.72
492.30	18941.96
492.48	18963.02
492.66	19150.26
492.84	19101.11
493.01	19431.13
493.19	19440.49
493.37	19807.95
493.54	19611.35
493.72	19985.83
493.90	20100.52
494.08	19978.81
494.25	20217.55
494.43	20297.13
494.61	20425.86
494.79	20519.48
494.96	20498.41
495.14	20666.93
495.32	20903.32
495.49	21104.61
495.67	21039.08
495.85	20854.17
496.02	21308.24
496.20	21511.86
496.38	21678.04
496.55	22139.13
496.73	22230.41
496.91	21785.71
497.09	22012.74
497.26	22232.75
497.44	22265.52
497.62	22122.74
497.79	22761.71
497.97	22537.02
498.14	22684.47
498.32	22698.52
498.50	23091.73
498.67	23138.54
498.85	23220.45
499.03	23152.58
499.20	23405.36
499.38	23428.76
499.56	23597.28
499.73	23726.01
499.91	23941.34
500.08	24205.82
500.26	23873.46
500.44	23672.18
500.61	24142.63
500.79	24233.91
500.97	24493.71
501.14	24584.99
501.32	24568.60
501.49	24498.39
501.67	24683.29
501.84	24868.19
502.02	24940.75
502.20	24470.30
502.37	24812.02
502.55	25127.99
502.72	25034.37
502.90	24919.68
503.07	24950.11
503.25	24926.71
503.43	25392.47
503.60	25446.30
503.78	25759.94
503.95	25469.71
504.13	25537.59
504.30	25673.34
504.48	25678.02
504.65	26209.32
504.83	25876.96
505.01	26331.03
505.18	26270.17
505.36	26576.78
505.53	26162.51
505.71	26810.84
505.88	26621.25
506.06	26555.72
506.23	26565.08
506.41	26941.91
506.58	26831.90
506.76	27234.47
506.93	27428.74
507.11	26958.29
507.28	27377.25
507.46	27276.60
507.63	27367.88
507.81	27777.48
507.98	27309.37
508.16	27405.33
508.33	27770.46
508.50	27718.96
508.68	27688.54
508.85	28327.50
509.03	27889.82
509.20	28175.37
509.38	28610.71
509.55	28201.11
509.73	28388.36
509.90	28379.00
510.08	28409.42
510.25	28411.76
510.42	28739.44
510.60	28996.90
510.77	28980.51
510.95	29223.93
511.12	28751.14
511.30	29195.84
511.47	29048.39
511.64	29275.42
511.82	29474.37
511.99	29420.53
512.17	29301.17
512.34	29055.41
512.51	29816.08
512.69	29827.79
512.86	29968.22
513.04	30206.95
513.21	29893.32
513.38	30412.92
513.56	30340.36
513.73	30230.36
513.90	30148.44
514.08	30015.03
514.25	30513.56
514.43	30766.34
514.60	30756.98
514.77	30815.49
514.95	30607.19
515.12	30927.84
515.29	30822.51
515.47	30661.02
515.64	30892.73
515.81	30693.79
515.99	31173.60
516.16	31824.26
516.33	31531.70
516.51	31524.68
516.68	31651.06
516.85	31562.12
517.03	31756.39
517.20	31587.87
517.37	31641.70
517.54	31700.22
517.72	31702.56
517.89	31889.80
518.06	31908.52
518.24	31999.80
518.41	31988.10
518.58	32109.81
518.75	32023.21
518.93	32109.81
519.10	32275.99
519.27	32350.88
519.45	32428.12
519.62	32933.68
519.79	32540.47
519.96	32847.08
520.14	32762.82
520.31	32601.32
520.48	32868.14
520.65	32882.19
520.83	33198.16
521.00	33322.21
521.17	33343.27
521.34	33347.95
521.52	33631.16
521.69	33495.41
521.86	33642.86
522.03	33804.36
522.20	33710.74
522.38	34223.31
522.55	34141.39
522.72	33663.93
522.89	34178.84
523.07	34630.57
523.24	34529.92
523.41	33743.50
523.58	34288.85
523.75	34527.58
523.92	34316.93
524.10	34529.92
524.27	34389.49
524.44	34682.06
524.61	34878.66
524.78	34906.75
524.96	35185.27
525.13	34909.09
525.30	35000.37
525.47	35091.65
525.64	34946.54
525.81	34618.86
525.98	35309.32
526.16	35585.50
526.33	35433.37
526.50	35365.49
526.67	35299.96
526.84	35388.90
527.01	35016.75
527.18	35526.99
527.36	35391.24
527.53	35945.95
527.70	35842.96
527.87	36336.82
528.04	35913.18
528.21	35833.60
528.38	36165.96
528.55	36257.24
528.72	35952.97
528.89	36313.41
529.07	36343.84
529.24	36226.81
529.41	36498.31
529.58	36545.12
529.75	36570.87
529.92	36360.22
530.09	36680.88
530.26	36720.66
530.43	36503.00
530.60	36545.12
530.77	36493.63
530.94	36580.23
531.11	36435.12
531.28	37235.58
531.46	36985.15
531.63	37242.60
531.80	36797.90
531.97	36959.40
532.14	37462.61
532.31	37156.00
532.48	37464.96
532.65	37549.21
532.82	37406.44
532.99	37886.25
533.16	37343.25
533.33	37556.24
533.50	37825.40
533.67	37408.78
533.84	37078.77
534.01	37883.91
534.18	37556.24
534.35	38113.28
534.52	37656.88
534.69	38256.06
534.86	37818.38
535.03	37979.87
535.20	38132.01
535.37	38323.93
535.54	38316.91
535.71	38059.45
535.88	38412.87
536.05	38775.66
536.22	38277.12
536.38	38583.73
536.55	38089.88
536.72	38071.15
536.89	38345.00
537.06	38717.14
537.23	39030.77
537.40	38508.83
537.57	38218.61
537.74	38834.17
537.91	39543.35
538.08	38873.96
538.25	38555.64
538.42	38464.36
538.59	39627.61
538.75	38892.68
538.92	39353.77
539.09	38946.51
539.26	39194.61
539.43	38815.44
539.60	39833.58
539.77	39342.06
539.94	39922.52
540.11	39218.02
540.28	39880.39
540.44	39159.50
540.61	39253.12
540.78	39515.26
540.95	39653.36
541.12	39508.24
541.29	39805.49
541.46	39491.86
541.62	39800.81
541.79	40442.12
541.96	39290.57
542.13	39754.00
542.30	40006.78
542.47	40088.70
542.63	40137.85
542.80	40224.45
542.97	40765.11
543.14	40879.80
543.31	40617.66
543.48	40622.34
543.64	41067.04
543.81	40907.88
543.98	40666.81
544.15	40975.76
544.32	40671.49
544.48	41270.67
544.65	40598.93
544.82	41062.36
544.99	40423.39
545.16	40907.88
545.32	40837.67
545.49	41265.99
545.66	41216.83
545.83	41563.23
546.00	41591.32
546.16	41095.13
546.33	40795.54
546.50	41237.90
546.67	41708.35
546.83	40959.38
547.00	41235.56
547.17	41415.78
547.34	41502.38
547.50	41553.87
547.67	41818.35
547.84	41434.50
548.00	41904.95
548.17	41972.83
548.34	41708.35
548.51	42351.99
548.67	41553.87
548.84	41785.58
549.01	41865.16
549.18	41865.16
549.34	41961.12
549.51	42323.91
549.68	42260.71
549.84	41851.12
550.01	41949.42
550.18	41872.18
550.34	42227.95
550.51	42139.00
550.68	42370.72
550.84	42192.84
551.01	42787.33
551.18	41808.99
551.34	42021.98
551.51	42525.19
551.68	42665.63
551.84	42387.10
552.01	42581.37
552.18	42366.04
552.34	42682.01
552.51	42749.88
552.68	42546.26
552.84	42632.86
553.01	42644.56
553.18	42642.22
553.34	42855.21
553.51	43002.66
553.67	43110.33
553.84	43236.72
554.01	42880.95
554.17	42953.51
554.34	43538.65
554.51	43222.67
554.67	43346.72
554.84	42981.60
555.00	42829.46
555.17	43229.69
555.33	43119.69
555.50	43335.02
555.67	43447.36
555.83	43409.92
556.00	43501.20
556.16	44013.77
556.33	43503.54
556.50	43473.11
556.66	43585.46
556.83	43068.20
556.99	43959.94
557.16	43990.37
557.32	44151.87
557.49	44004.41
557.65	43386.51
557.82	43889.73
557.98	44158.89
558.15	43854.62
558.32	43835.89
558.48	43913.13
558.65	44189.31
558.81	43749.29
558.98	43803.13
559.14	43807.81
559.31	43704.82
559.47	43800.79
559.64	44058.24
559.80	43903.77
559.97	43924.83
560.13	43571.41
560.30	44048.88
560.46	44177.61
560.63	44395.28
560.79	44289.96
560.96	44528.69
561.12	44404.64
561.29	44318.04
561.45	44301.66
561.61	44318.04
561.78	44250.17
561.94	44287.62
562.11	44116.76
562.27	44484.22
562.44	44421.03
562.60	44528.69
562.77	44406.98
562.93	44432.73
563.10	44680.83
563.26	44491.24
563.42	44781.47
563.59	44484.22
563.75	44847.00
563.92	44715.93
564.08	44428.05
564.24	44957.01
564.41	44500.61
564.57	44926.58
564.74	45003.82
564.90	44591.89
565.07	44437.41
565.23	44418.69
565.39	44699.55
565.56	44713.59
565.72	44868.07
565.88	44980.42
566.05	44973.39
566.21	44650.40
566.38	45003.82
566.54	45165.32
566.70	44928.92
566.87	45282.34
567.03	44322.72
567.19	45212.13
567.36	45418.10
567.52	44968.71
567.68	45537.46
567.85	45198.09
568.01	45132.55
568.17	44903.18
568.34	45357.24
568.50	44783.81
568.66	44926.58
568.83	45319.79
568.99	44868.07
569.15	45078.72
569.32	45144.25
569.48	45368.94
569.64	45591.30
569.81	45659.17
569.97	45294.05
570.13	45635.77
570.30	45191.06
570.46	45272.98
570.62	45705.98
570.78	45272.98
570.95	44807.22
571.11	45593.64
571.27	45364.26
571.43	45294.05
571.60	45280.00
571.76	45237.87
571.92	45373.63
572.09	45280.00
572.25	45265.96
572.41	44889.13
572.57	45151.27
572.74	45954.08
572.90	45366.60
573.06	45081.06
573.22	45530.44
573.38	45902.59
573.55	45675.55
573.71	45935.35
573.87	45553.85
574.03	45701.30
574.20	45607.68
574.36	45640.45
574.52	45659.17
574.68	45691.94
574.84	46080.47
575.01	45560.87
575.17	45869.82
575.33	45305.75
575.49	45633.42
575.65	45825.35
575.82	45338.52
575.98	45687.26
576.14	45670.87
576.30	46176.43
576.46	45607.68
576.62	45280.00
576.79	45563.21
576.95	45235.53
577.11	45925.99
577.27	45642.79
577.43	45485.97
577.59	45565.55
577.75	45696.62
577.92	45373.63
578.08	45785.56
578.24	45682.58
578.40	46071.10
578.56	46150.68
578.72	45661.51
578.88	45837.05
579.04	45645.13
579.21	45514.06
579.37	46122.60
579.53	46087.49
579.69	45298.73
579.85	45886.20
580.01	46087.49
580.17	45923.65
580.33	45668.53
580.49	46064.08
580.65	45900.25
580.82	46117.92
580.98	45794.92
581.14	45338.52
581.30	45633.42
581.46	45357.24
581.62	45610.02
581.78	46150.68
581.94	45944.72
582.10	45404.05
582.26	46106.21
582.42	45773.86
582.58	45830.03
582.74	45979.82
582.90	46019.61
583.06	45961.10
583.22	46101.53
583.38	46031.32
583.54	46047.70
583.70	45942.38
583.86	46466.66
584.02	45387.67
584.18	46230.26
584.34	45893.22
584.50	46199.83
584.66	46258.35
584.82	46059.40
584.98	46263.03
585.14	45867.48
585.30	45579.59
585.46	45778.54
585.62	45820.67
585.78	45752.79
585.94	45659.17
586.10	45612.36
586.26	46071.10
586.42	46003.23
586.58	45841.73
586.74	45886.20
586.90	46036.00
587.06	46162.39
587.22	46080.47
587.38	45902.59
587.54	46071.10
587.70	46225.58
587.86	45965.78
588.02	46071.10
588.18	45778.54
588.34	46096.85
588.49	46068.76
588.65	45783.22
588.81	45654.49
588.97	46000.89
589.13	46185.79
589.29	46162.39
589.45	46373.03
589.61	46375.37
589.77	46630.49
589.93	46134.30
590.08	46281.75
590.24	46038.34
590.40	46897.31
590.56	46796.67
590.72	46248.99
590.88	46108.55
591.04	46834.12
591.20	46564.96
591.35	46754.54
591.51	47157.11
591.67	46389.42
591.83	46347.29
591.99	46471.34
592.15	46263.03
592.31	46752.20
592.46	46291.12
592.62	46637.51
592.78	46862.21
592.94	46724.11
593.10	46857.52
593.26	47093.92
593.41	46986.25
593.57	47004.98
593.73	46281.75
593.89	47210.95
594.05	47004.98
594.20	46775.61
594.36	47161.79
594.52	47302.23
594.68	46642.20
594.84	46632.83
594.99	46731.14
595.15	46579.00
595.31	47208.61
595.47	46710.07
595.62	47393.51
595.78	46696.03
595.94	47122.01
596.10	46988.60
596.25	47082.22
596.41	46836.46
596.57	46548.57
596.73	47224.99
596.88	46471.34
597.04	46820.08
597.20	46843.48
597.36	47091.58
597.51	46962.85
597.67	46747.52
597.83	47262.44
597.99	46820.08
598.14	46632.83
598.30	46698.37
598.46	46948.81
598.61	46923.06
598.77	46667.94
598.93	46969.87
599.09	46616.45
599.24	47440.32
599.40	46951.15
599.56	47194.56
599.71	47229.67
599.87	47346.70
600.03	47026.04
600.18	47119.66
600.34	46916.04
600.50	46698.37
600.65	47028.38
600.81	47016.68
600.97	46944.12
601.12	47044.77
601.28	47105.62
601.44	46965.19
601.59	46520.49
601.75	46932.42
601.91	47136.05
602.06	47461.38
602.22	47194.56
602.37	47339.68
602.53	47072.85
602.69	46883.27
602.84	46642.20
603.00	46944.12
603.16	46920.72
603.31	46663.26
603.47	47187.54
603.62	46976.89
603.78	47297.55
603.94	46876.25
604.09	47379.46
604.25	47086.90
604.40	46894.97
604.56	46939.44
604.71	47564.37
604.87	46574.32
605.03	46714.75
605.18	46834.12
605.34	47037.75
605.49	46696.03
605.65	47086.90
605.80	46712.41
605.96	46344.95
606.12	47058.81
606.27	46902.00
606.43	46211.54
606.58	47367.76
606.74	46632.83
606.89	47054.13
607.05	46815.40
607.20	47042.43
607.36	46827.10
607.51	46824.76
607.67	46887.95
607.82	47019.02
607.98	46965.19
608.13	47166.48
608.29	46532.19
608.44	46972.21
608.60	46583.68
608.75	46761.56
608.91	46920.72
609.06	46562.62
609.22	47033.07
609.37	46417.50
609.53	46892.63
609.68	46796.67
609.84	46513.47
609.99	46731.14
610.15	46759.22
610.30	46822.42
610.46	46354.31
610.61	46777.95
610.76	46525.17
610.92	46171.75
611.07	46361.33
611.23	46394.10
611.38	46382.40
611.54	46483.04
611.69	46660.92
611.84	46909.02
612.00	46621.13
612.15	46607.09
612.31	46188.13
612.46	46454.95
612.62	46405.80
612.77	46754.54
612.92	46588.36
613.08	46614.11
613.23	46382.40
613.39	46440.91
613.54	46321.54
613.69	46218.56
613.85	46110.89
614.00	46103.87
614.15	46625.81
614.31	45944.72
614.46	46452.61
614.62	46340.27
614.77	45956.42
614.92	45977.48
615.08	46040.68
615.23	46408.14
615.38	46476.02
615.54	46291.12
615.69	46426.87
615.84	46113.23
616.00	46309.84
616.15	46167.07
616.30	46293.46
616.46	46071.10
616.61	46134.30
616.76	46225.58
616.92	45883.86
617.07	45511.72
617.22	46136.64
617.37	45731.73
617.53	45977.48
617.68	45916.63
617.83	45909.61
617.99	46656.24
618.14	46251.33
618.29	45521.08
618.45	45633.42
618.60	45289.37
618.75	45291.71
618.90	45357.24
619.06	45799.60
619.21	45446.18
619.36	46506.44
619.51	45858.12
619.67	45345.54
619.82	45954.08
619.97	46050.04
620.12	45823.01
620.28	45907.27
620.43	45612.36
620.58	46108.55
620.73	45818.33
620.89	45865.14
621.04	46028.98
621.19	45429.80
621.34	45460.23
621.49	45361.92
621.65	45588.95
621.80	45478.95
621.95	45401.71
622.10	45411.07
622.25	45357.24
622.41	45485.97
622.56	44772.11
622.71	45034.25
622.86	45289.37
623.01	45476.61
623.16	45097.44
623.32	45020.20
623.47	45258.94
623.62	45022.54
623.77	45673.21
623.92	45001.48
624.07	45553.85
624.23	45336.18
624.38	45584.27
624.53	45188.72
624.68	44648.06
624.83	45235.53
624.98	45113.83
625.13	44626.99
625.29	44837.64
625.44	44891.48
625.59	45116.17
625.74	45191.06
625.89	44744.02
626.04	44701.89
626.19	44673.81
626.34	44830.62
626.49	44683.17
626.65	44472.52
626.80	44767.43
626.95	44287.62
627.10	44240.81
627.25	44430.39
627.40	44751.04
627.55	44341.45
627.70	44430.39
627.85	44779.13
628.00	44732.32
628.15	44287.62
628.30	44224.42
628.45	44163.57
628.60	44149.53
628.76	44528.69
628.91	44158.89
629.06	43629.93
629.21	44165.91
629.36	44165.91
629.51	43901.43
629.66	44692.53
629.81	44369.54
629.96	44301.66
630.11	44086.33
630.26	43906.11
630.41	44266.55
630.56	43957.60
630.71	43908.45
630.86	43948.24
631.01	43896.75
631.16	44004.41
631.31	43873.34
631.46	44189.31
631.61	43812.49
631.76	44006.75
631.91	44039.52
632.06	44011.43
632.21	43791.42
632.36	44205.70
632.51	43716.53
632.66	43908.45
632.81	43796.10
632.96	43807.81
633.10	43744.61
633.25	43634.61
633.40	43730.57
633.55	44048.88
633.70	43587.80
633.85	43412.26
634.00	43035.43
634.15	43569.07
634.30	43395.87
634.45	43538.65
634.60	43243.74
634.75	43772.70
634.90	43388.85
635.05	43629.93
635.19	43182.88
635.34	43484.81
635.49	42859.89
635.64	42962.87
635.79	43248.42
635.94	43372.47
636.09	43182.88
636.24	42927.77
636.39	43526.94
636.53	42993.30
636.68	42934.79
636.83	42733.50
636.98	42848.19
637.13	42752.23
637.28	43349.06
637.43	42590.73
637.57	43019.05
637.72	42609.45
637.87	42752.23
638.02	43356.08
638.17	42539.24
638.32	42532.22
638.46	42784.99
638.61	42644.56
638.76	42583.71
638.91	42621.16
639.06	42553.28
639.20	42251.35
639.35	42492.43
639.50	42391.78
639.65	42733.50
639.80	42494.77
639.94	42630.52
640.09	42272.42
640.24	42555.62
640.39	42206.88
640.54	41867.50
640.68	42948.83
640.83	42494.77
640.98	41986.87
641.13	42370.72
641.27	42644.56
641.42	42209.22
641.57	42408.17
641.72	42356.67
641.86	42237.31
642.01	42314.55
642.16	41947.08
642.31	41694.30
642.45	42490.09
642.60	41565.57
642.75	42110.92
642.90	42253.69
643.04	42171.77
643.19	41605.36
643.34	41624.09
643.48	41600.68
643.63	41989.21
643.78	41867.50
643.93	42307.52
644.07	41780.90
644.22	41855.80
644.37	41907.29
644.51	41818.35
644.66	41783.24
644.81	41457.91
644.95	41574.94
645.10	41703.67
645.25	41118.53
645.39	41317.48
645.54	41280.03
645.69	41233.22
645.83	41460.25
645.98	41256.62
646.13	41387.69
646.27	41652.17
646.42	41060.02
646.57	41336.20
646.71	41783.24
646.86	41743.45
647.00	41734.09
647.15	41546.85
647.30	41254.28
647.44	41406.42
647.59	40994.48
647.74	41490.68
647.88	41413.44
648.03	41422.80
648.17	41542.17
648.32	41401.74
648.47	41593.66
648.61	40835.33
648.76	41102.15
648.90	40840.01
649.05	40641.06
649.20	40919.59
649.34	41184.07
649.49	41310.46
649.63	40961.72
649.78	41085.76
649.92	41207.47
650.07	41048.32
650.21	41640.47
650.36	41434.50
650.51	40357.86
650.65	40680.85
650.80	40828.30
650.94	40783.83
651.09	40708.94
651.23	40589.57
651.38	40620.00
651.52	40144.87
651.67	40634.04
651.81	40788.52
651.96	40854.05
652.10	40655.11
652.25	40458.50
652.39	40292.32
652.54	40538.08
652.68	40341.47
652.83	40524.04
652.97	40479.57
653.12	40631.70
653.26	40479.57
653.41	40275.94
653.55	40538.08
653.70	40683.19
653.84	40598.93
653.99	40580.21
654.13	40037.20
654.27	40034.86
654.42	40055.93
654.56	40030.18
654.71	40168.27
654.85	40500.63
655.00	40418.71
655.14	40470.20
655.29	40598.93
655.43	40507.65
655.57	40107.42
655.72	39751.66
655.86	40229.13
656.01	39978.69
656.15	39974.01
656.30	40051.25
656.44	40177.64
656.58	39906.13
656.73	39992.73
656.87	39653.36
657.01	39508.24
657.16	39786.77
657.30	39337.38
657.45	39524.63
657.59	39370.15
657.73	39150.14
657.88	39739.96
658.02	39737.62
658.16	40027.84
658.31	39573.78
658.45	39688.46
658.60	39646.33
658.74	39344.41
658.88	39377.17
659.03	39084.61
659.17	39232.06
659.31	38754.59
659.46	38801.40
659.60	38976.94
659.74	39178.23
659.89	38799.06
660.03	38543.94
660.17	39082.27
660.32	38686.71
660.46	38855.23
660.60	38574.37
660.74	38885.66
660.89	38768.63
661.03	38059.45
661.17	38103.92
661.32	38270.10
661.46	38473.73
661.60	38054.77
661.74	38553.30
661.89	38728.84
662.03	38330.95
662.17	37998.60
662.31	37862.85
662.46	37984.55
662.60	37989.24
662.74	38120.31
662.88	37883.91
663.03	37530.49
663.17	37408.78
663.31	37607.73
663.45	37469.64
663.60	38387.13
663.74	37961.15
663.88	37731.78
664.02	37223.88
664.17	37916.68
664.31	36907.91
664.45	37347.93
664.59	37900.29
664.73	37766.88
664.88	37479.00
665.02	36882.16
665.16	36928.97
665.30	37453.25
665.44	37041.32
665.59	37188.77
665.73	36622.36
665.87	36446.82
666.01	36479.59
666.15	37003.87
666.29	36575.55
666.44	36914.93
666.58	36818.97
666.72	36229.15
666.86	36512.36
667.00	36154.26
667.14	35791.47
667.28	36116.81
667.43	36086.38
667.57	36559.17
667.71	36128.51
667.85	36378.95
667.99	36634.06
668.13	35431.03
668.27	35653.38
668.41	35599.55
668.56	35723.60
668.70	35538.69
668.84	35204.00
668.98	35447.41
669.12	35901.48
669.26	34988.67
669.40	35629.98
669.54	35440.39
669.68	35517.63
669.82	35414.65
669.96	34979.31
670.10	34890.37
670.25	35098.67
670.39	34902.07
670.53	34967.60
670.67	35192.30
670.81	34904.41
670.95	35091.65
671.09	34742.91
671.23	34265.44
671.37	34817.81
671.51	34548.65
671.65	34267.78
671.79	34532.26
671.93	34338.00
672.07	35126.76
672.21	34274.80
672.35	33984.58
672.49	34251.40
672.63	33951.81
672.77	33872.23
672.91	34347.36
673.05	33694.35
673.19	33467.32
673.33	33336.25
673.47	33696.69
673.61	33069.43
673.75	33230.93
673.89	33273.06
674.03	33064.75
674.17	32905.59
674.31	32713.67
674.45	32531.11
674.59	32814.31
674.73	32844.74
674.87	32713.67
675.01	32680.90
675.15	32407.06
675.29	32055.98
675.43	32397.70
675.56	32706.65
675.70	32194.07
675.84	32268.97
675.98	31033.16
676.12	32018.53
676.26	31798.52
676.40	32123.85
676.54	31653.40
676.68	31634.68
676.82	31047.21
676.96	32037.25
677.10	31637.02
677.23	31019.12
677.37	31484.89
677.51	31138.49
677.65	31150.19
677.79	30946.56
677.93	30920.82
678.07	30813.15
678.21	30492.50
678.34	30588.46
678.48	30244.40
678.62	30625.91
678.76	30094.61
678.90	30160.14
679.04	30581.44
679.18	30480.80
679.31	30103.97
679.45	29963.54
679.59	29708.42
679.73	29820.77
679.87	29326.91
680.00	29682.67
680.14	29394.79
680.28	29713.10
680.42	29062.43
680.56	28891.57
680.70	28608.37
680.83	28863.49
680.97	28821.36
681.11	28554.54
681.25	28432.83
681.39	28318.14
681.52	28589.64
681.66	28114.52
681.80	27976.42
681.94	27889.82
682.07	27889.82
682.21	27817.27
682.35	27971.74
682.49	28034.94
682.62	27541.08
682.76	27686.20
682.90	27346.82
683.04	27431.08
683.17	27955.36
683.31	27112.77
683.45	27227.45
683.59	26707.85
683.72	26668.06
683.86	26567.42
684.00	26897.44
684.13	26632.96
684.27	26469.12
684.41	26221.02
684.55	26499.55
684.68	26352.09
684.82	25970.58
684.96	26136.76
685.09	25795.04
685.23	25710.78
685.37	26150.81
685.50	26331.03
685.64	25879.30
685.78	25741.21
685.91	25673.34
686.05	25144.38
686.19	24982.88
686.32	25270.76
686.46	24910.32
686.60	24641.16
686.73	24805.00
686.87	24807.34
687.01	24858.83
687.14	24603.71
687.28	24503.07
687.42	24526.47
687.55	24247.95
687.69	24077.09
687.82	24121.56
687.96	23838.36
688.10	24027.94
688.23	24332.21
688.37	23922.62
688.50	23943.68
688.64	23798.57
688.78	23604.30
688.91	23843.04
689.05	23618.35
689.18	22911.50
689.32	22892.78
689.46	22794.48
689.59	23129.17
689.73	22766.39
689.86	23103.43
690.00	22995.76
690.13	23028.53
690.27	22621.28
690.41	22754.69
690.54	22401.27
690.68	22328.71
690.81	22321.69
690.95	22015.08
691.08	21958.91
691.22	21834.86
691.35	21766.98
691.49	21661.66
691.62	21734.21
691.76	21528.25
691.89	21530.59
692.03	21205.25
692.16	21216.96
692.30	21291.85
692.43	21055.46
692.57	20952.48
692.70	21029.71
692.84	20442.24
692.97	20758.21
693.11	20662.25
693.24	20388.41
693.38	20526.50
693.51	20463.30
693.65	20250.32
693.78	20135.63
693.92	19943.70
694.05	19786.89
694.19	20287.76
694.32	19822.00
694.45	19999.88
694.59	20112.22
694.72	19885.19
694.86	19435.81
694.99	19564.54
695.13	19264.95
695.26	19161.97
695.39	19042.60
695.53	18890.46
695.66	19304.74
695.80	19133.88
695.93	19103.45
696.07	18820.25
696.20	18553.43
696.33	18352.14
696.47	18368.52
696.60	18136.81
696.73	18171.92
696.87	18338.10
697.00	18352.14
697.14	18265.54
697.27	17776.37
697.40	17980.00
697.54	18001.06
697.67	18008.08
697.80	17926.16
697.94	17729.56
698.07	17748.28
698.21	17453.37
698.34	17350.39
698.47	16999.31
698.61	16781.64
698.74	16833.13
698.87	16917.39
699.01	16690.36
699.14	17043.78
699.27	16603.76
699.40	16779.30
699.54	16538.23
699.67	16720.79
699.80	16372.05
699.94	16439.92
700.07	16517.16
700.20	16224.59
700.34	16285.45
700.47	16299.49
700.60	16280.77
700.73	16259.70
700.87	16032.67
701.00	15417.11
701.13	15618.39
701.26	15461.58
701.40	15527.11
701.53	15414.77
701.66	15417.11
701.79	15414.77
701.93	15257.95
702.06	15150.29
702.19	15171.35
702.32	14932.62
702.46	15197.10
702.59	15084.75
702.72	15304.76
702.85	14806.23
702.99	14909.21
703.12	14876.44
703.25	14579.20
703.38	14513.66
703.51	14471.53
703.65	14398.98
703.78	14176.62
703.91	14003.43
704.04	13930.87
704.17	13886.40
704.31	14097.05
704.44	13907.46
704.57	13717.88
704.70	13841.93
704.83	13694.47
704.96	13628.94
705.10	13462.76
705.23	13458.08
>>>>>End Processed Spectral Data<<<<<
