SpectraSuite Data File
++++++++++++++++++++++++++++++++++++
Date: Fri Oct 25 10:44:11 EDT 2013
User: price-jones
Dark Spectrum Present: No
Reference Spectrum Present: No
Number of Sampled Component Spectra: 1
Spectrometers: USB2+H05261
Integration Time (usec): 100000 (USB2+H05261)
Spectra Averaged: 1 (USB2+H05261)
Boxcar Smoothing: 0 (USB2+H05261)
Correct for Electrical Dark: No (USB2+H05261)
Strobe/Lamp Enabled: No (USB2+H05261)
Correct for Detector Non-linearity: No (USB2+H05261)
Correct for Stray Light: No (USB2+H05261)
Number of Pixels in Processed Spectrum: 2048
>>>>>Begin Processed Spectral Data<<<<<
365.73	170.86
365.92	170.86
366.12	170.86
366.32	60.85
366.52	0.00
366.72	18.72
366.91	56.17
367.11	0.00
367.31	95.96
367.51	49.15
367.70	23.41
367.90	23.41
368.10	32.77
368.30	86.60
368.49	81.92
368.69	23.41
368.89	35.11
369.09	46.81
369.28	65.54
369.48	46.81
369.68	81.92
369.87	65.54
370.07	119.37
370.27	110.01
370.47	208.31
370.66	444.70
370.86	402.57
371.06	433.00
371.25	491.51
371.45	418.96
371.65	383.85
371.84	437.68
372.04	489.17
372.24	531.30
372.44	454.06
372.63	615.56
372.83	528.96
373.03	561.73
373.22	496.19
373.42	491.51
373.62	519.60
373.81	524.28
374.01	564.07
374.21	596.84
374.40	603.86
374.60	557.05
374.79	566.41
374.99	561.73
375.19	589.82
375.38	552.37
375.58	578.11
375.78	543.00
375.97	561.73
376.17	676.41
376.37	550.03
376.56	631.94
376.76	627.26
376.95	585.13
377.15	664.71
377.35	575.77
377.54	653.01
377.74	662.37
377.93	662.37
378.13	636.63
378.33	669.39
378.52	685.78
378.72	624.92
378.91	767.70
379.11	671.73
379.31	674.07
379.50	669.39
379.70	781.74
379.89	709.18
380.09	610.88
380.28	629.60
380.48	690.46
380.68	631.94
380.87	683.44
381.07	758.33
381.26	751.31
381.46	664.71
381.65	709.18
381.85	688.12
382.04	751.31
382.24	727.91
382.43	709.18
382.63	751.31
382.83	758.33
383.02	868.34
383.22	809.83
383.41	732.59
383.61	788.76
383.80	779.40
384.00	748.97
384.19	791.10
384.39	763.01
384.58	786.42
384.78	788.76
384.97	802.80
385.17	849.61
385.36	760.67
385.56	858.98
385.75	812.17
385.95	788.76
386.14	828.55
386.34	793.44
386.53	800.46
386.72	875.36
386.92	868.34
387.11	844.93
387.31	992.39
387.50	851.96
387.70	816.85
387.89	887.06
388.09	901.11
388.28	821.53
388.48	936.21
388.67	802.80
388.86	926.85
389.06	936.21
389.25	922.17
389.45	1053.24
389.64	992.39
389.84	954.94
390.03	1043.88
390.22	1053.24
390.42	917.49
390.61	950.26
390.81	968.98
391.00	1076.65
391.19	1093.03
391.39	1102.39
391.58	1081.33
391.78	1001.75
391.97	1039.20
392.16	1100.05
392.36	1018.13
392.55	957.28
392.75	1006.43
392.94	987.71
393.13	1041.54
393.33	1027.50
393.52	1001.75
393.71	1076.65
393.91	1050.90
394.10	1125.80
394.29	1083.67
394.49	1198.35
394.68	1221.76
394.88	1221.76
395.07	1231.12
395.26	1203.04
395.46	1172.61
395.65	1181.97
395.84	1224.10
396.04	1301.34
396.23	1219.42
396.42	1172.61
396.62	1167.93
396.81	1315.38
397.00	1224.10
397.19	1322.40
397.39	1338.79
397.58	1266.23
397.77	1336.45
397.97	1481.56
398.16	1420.71
398.35	1364.53
398.55	1453.47
398.74	1481.56
398.93	1533.05
399.12	1500.28
399.32	1530.71
399.51	1481.56
399.70	1535.39
399.90	1638.38
400.09	1544.75
400.28	1614.97
400.47	1659.44
400.67	1593.90
400.86	1582.20
401.05	1626.67
401.24	1657.10
401.44	1556.46
401.63	1715.61
401.82	1802.21
402.01	1713.27
402.21	1746.04
402.40	1732.00
402.59	1827.96
402.78	1755.40
402.97	1827.96
403.17	1816.26
403.36	1739.02
403.55	1813.92
403.74	1921.58
403.93	1816.26
404.13	1820.94
404.32	1853.70
404.51	1799.87
404.70	1898.17
404.89	1818.60
405.09	1998.82
405.28	1916.90
405.47	1933.28
405.66	2017.54
405.85	1982.43
406.05	1856.04
406.24	1994.14
406.43	2050.31
406.62	2106.48
406.81	2087.76
407.00	2040.95
407.20	1952.01
407.39	2111.16
407.58	2104.14
407.77	2155.63
407.96	2256.28
408.15	2174.36
408.34	2160.31
408.54	2310.11
408.73	2284.36
408.92	2305.43
409.11	2298.41
409.30	2284.36
409.49	2223.51
409.68	2235.21
409.87	2249.25
410.07	2319.47
410.26	2406.07
410.45	2422.45
410.64	2513.74
410.83	2532.46
411.02	2473.95
411.21	2593.31
411.40	2469.27
411.59	2705.66
411.78	2626.08
411.98	2656.51
412.17	2644.81
412.36	2530.12
412.55	2764.17
412.74	2602.68
412.93	2787.58
413.12	2635.44
413.31	2799.28
413.50	2808.64
413.69	2715.02
413.88	2930.35
414.07	2855.45
414.26	2949.08
414.45	2946.73
414.64	2871.84
414.83	3075.46
415.02	2986.52
415.22	3047.38
415.41	3204.19
415.60	3293.13
415.79	3155.04
415.98	3241.64
416.17	3353.99
416.36	3295.47
416.55	3276.75
416.74	3330.58
416.93	3199.51
417.12	3346.97
417.31	3229.94
417.50	3328.24
417.69	3447.61
417.88	3363.35
418.07	3428.88
418.26	3370.37
418.45	3487.40
418.64	3581.02
418.83	3456.97
419.02	3482.72
419.21	3562.30
419.39	3721.45
419.58	3452.29
419.77	3398.46
419.96	3634.85
420.15	3653.58
420.34	3653.58
420.53	3826.78
420.72	3784.65
420.91	3719.11
421.10	3754.22
421.29	3854.86
421.48	3819.75
421.67	3943.80
421.86	3826.78
422.05	3838.48
422.24	3716.77
422.43	3646.55
422.61	3925.08
422.80	3871.25
422.99	3786.99
423.18	3941.46
423.37	3957.85
423.56	3805.71
423.75	3955.51
423.94	3908.69
424.13	3705.07
424.32	3786.99
424.50	4039.76
424.69	3969.55
424.88	4028.06
425.07	3911.04
425.26	3875.93
425.45	3878.27
425.64	3896.99
425.83	3957.85
426.01	4058.49
426.20	3971.89
426.39	4007.00
426.58	3927.42
426.77	3845.50
426.96	4011.68
427.15	3885.29
427.33	3911.04
427.52	3985.93
427.71	4035.08
427.90	4105.30
428.09	4278.50
428.28	4147.43
428.46	4140.41
428.65	4163.81
428.84	4121.68
429.03	4332.33
429.22	4016.36
429.40	4196.58
429.59	4187.22
429.78	3918.06
429.97	4004.66
430.16	3990.61
430.34	4112.32
430.53	4058.49
430.72	4290.20
430.91	4311.27
431.10	4297.22
431.28	4521.92
431.47	4568.73
431.66	4765.33
431.85	4505.53
432.03	4540.64
432.22	4571.07
432.41	4550.00
432.60	4561.70
432.79	4744.27
432.97	4573.41
433.16	4753.63
433.35	4545.32
433.54	4524.26
433.72	4622.56
433.91	4568.73
434.10	4725.54
434.28	4674.05
434.47	4854.27
434.66	4870.65
434.85	4894.06
435.03	4905.76
435.22	4971.30
435.41	5095.35
435.59	5020.45
435.78	4971.30
435.97	5135.14
436.16	4980.66
436.34	5078.96
436.53	5142.16
436.72	5294.29
436.90	5043.85
437.09	5252.16
437.28	5123.43
437.46	5268.55
437.65	5109.39
437.84	5100.03
438.02	5116.41
438.21	5156.20
438.40	5067.26
438.58	5451.11
438.77	5462.81
438.96	5392.59
439.14	5533.03
439.33	5547.07
439.52	5631.33
439.70	5495.58
439.89	5673.46
440.08	5699.20
440.26	5675.80
440.45	5708.57
440.63	5909.85
440.82	5881.77
441.01	5856.02
441.19	6010.50
441.38	6256.25
441.57	6012.84
441.75	6150.93
441.94	6289.02
442.12	6197.74
442.31	6277.32
442.50	6277.32
442.68	6282.00
442.87	6356.90
443.05	6366.26
443.24	6548.82
443.43	6352.21
443.61	6604.99
443.80	6619.04
443.98	6223.48
444.17	6223.48
444.35	6349.87
444.54	6441.15
444.73	6345.19
444.91	6366.26
445.10	6576.91
445.28	6443.49
445.47	6174.33
445.65	6466.90
445.84	6450.52
446.02	6593.29
446.21	6469.24
446.39	6523.07
446.58	6576.91
446.77	6689.25
446.95	6480.94
447.14	6712.66
447.32	6633.08
447.51	6593.29
447.69	6747.76
447.88	6703.29
448.06	6590.95
448.25	6740.74
448.43	6752.45
448.62	6675.21
448.80	6628.40
448.99	6839.05
449.17	6803.94
449.36	6806.28
449.54	7063.74
449.73	7016.93
449.91	7211.19
450.10	6960.75
450.28	7232.26
450.46	7087.14
450.65	7192.47
450.83	7159.70
451.02	7220.55
451.20	7143.32
451.39	7255.66
451.57	7148.00
451.76	7157.36
451.94	7190.13
452.13	7283.75
452.31	7353.96
452.49	7101.19
452.68	7274.38
452.86	7166.72
453.05	7253.32
453.23	7375.03
453.42	7332.90
453.60	7487.37
453.78	7370.35
453.97	7290.77
454.15	7152.68
454.34	7281.41
454.52	7559.93
454.70	7578.65
454.89	7335.24
455.07	7524.82
455.26	7728.45
455.44	7573.97
455.62	7714.41
455.81	7571.63
455.99	7838.45
456.17	7658.23
456.36	7871.22
456.54	7756.54
456.73	7815.05
456.91	8056.12
457.09	8194.22
457.28	8177.83
457.46	8046.76
457.64	8180.17
457.83	8093.57
458.01	7953.14
458.19	8205.92
458.38	7988.25
458.56	8351.03
458.74	8182.51
458.93	8297.20
459.11	8339.33
459.29	8248.05
459.48	8308.90
459.66	8404.86
459.84	8355.71
460.03	8369.76
460.21	8374.44
460.39	8351.03
460.57	8437.63
460.76	8320.60
460.94	8627.21
461.12	8510.19
461.31	8854.25
461.49	8645.94
461.67	8608.49
461.85	8748.92
462.04	8774.67
462.22	8868.29
462.40	8868.29
462.59	8891.70
462.77	8903.40
462.95	8856.59
463.13	8837.86
463.32	8868.29
463.50	9081.28
463.68	9013.40
463.86	9048.51
464.05	8655.30
464.23	8870.63
464.41	9062.55
464.59	8802.75
464.78	9158.52
464.96	9160.86
465.14	9195.96
465.32	8966.59
465.50	9249.80
465.69	9238.09
465.87	9207.67
466.05	9076.60
466.23	9102.34
466.41	9121.07
466.60	9383.21
466.78	9336.40
466.96	9345.76
467.14	9266.18
467.32	9270.86
467.51	9235.75
467.69	9226.39
467.87	9455.76
468.05	9394.91
468.23	9345.76
468.41	9537.68
468.60	9673.43
468.78	9558.75
468.96	9565.77
469.14	9568.11
469.32	9647.69
469.50	9671.09
469.69	9783.44
469.87	9750.67
470.05	9731.95
470.23	9731.95
470.41	9591.52
470.59	9652.37
470.77	9895.78
470.95	9886.42
471.14	10134.52
471.32	10015.15
471.50	10129.84
471.68	10265.59
471.86	10377.94
472.04	10399.00
472.22	10539.43
472.40	10279.63
472.58	10352.19
472.77	10382.62
472.95	10569.86
473.13	10794.55
473.31	10544.11
473.49	10466.88
473.67	10717.31
473.85	10614.33
474.03	10663.48
474.21	11037.97
474.39	11044.99
474.57	10920.94
474.75	11133.93
474.93	11061.37
475.12	11318.83
475.30	11056.69
475.48	11283.72
475.66	11367.98
475.84	11087.12
476.02	11218.19
476.20	11309.47
476.38	11590.33
476.56	12203.55
476.74	11957.80
476.92	11789.28
477.10	11913.33
477.28	12013.97
477.46	12079.50
477.64	12166.10
477.82	12388.46
478.00	12718.47
478.18	12358.03
478.36	12517.18
478.54	12688.04
478.72	12568.68
478.90	12812.09
479.08	13071.89
479.26	13013.38
479.44	13252.11
479.62	13099.98
479.80	13256.79
479.98	13310.63
480.16	13610.22
480.34	13429.99
480.52	13909.80
480.70	13537.66
480.88	13699.16
481.06	13760.01
481.24	13928.53
481.41	14380.25
481.59	14080.66
481.77	14382.59
481.95	14310.04
482.13	14506.64
482.31	14295.99
482.49	14789.85
482.67	15063.69
482.85	15126.88
483.03	15145.61
483.21	15145.61
483.39	15059.01
483.57	15234.55
483.74	15295.40
483.92	15761.17
484.10	15550.52
484.28	15939.05
484.46	16205.87
484.64	16362.69
484.82	15871.17
485.00	16299.49
485.18	16444.60
485.35	16442.26
485.53	16255.02
485.71	16257.36
485.89	16498.44
486.07	16468.01
486.25	16549.93
486.43	16952.50
486.61	17156.13
486.78	17195.92
486.96	17184.21
487.14	17596.15
487.32	17558.70
487.50	18197.67
487.68	18012.76
487.85	18382.57
488.03	18417.68
488.21	18689.18
488.39	18773.44
488.57	18443.42
488.75	18792.16
488.92	18768.76
489.10	19318.78
489.28	19295.38
489.46	19721.35
489.64	19597.31
489.81	20046.69
489.99	20130.95
490.17	20128.61
490.35	20353.30
490.53	20311.17
490.70	20428.20
490.88	20341.60
491.06	20570.97
491.24	20568.63
491.41	20437.56
491.59	20938.43
491.77	20762.89
491.95	21216.96
492.13	21348.03
492.30	21408.88
492.48	21589.10
492.66	21982.31
492.84	21820.81
493.01	22061.89
493.19	21865.28
493.37	22019.76
493.54	22256.15
493.72	22637.66
493.90	22623.62
494.08	22740.64
494.25	23473.23
494.43	22860.01
494.61	23417.06
494.79	23428.76
494.96	23342.16
495.14	23445.15
495.32	23740.05
495.49	23639.41
495.67	23709.63
495.85	24063.05
496.02	23939.00
496.20	24449.24
496.38	24184.76
496.55	24503.07
496.73	25177.14
496.91	24851.81
497.09	25287.15
497.26	25088.20
497.44	24786.27
497.62	25193.53
497.79	25390.13
497.97	25254.38
498.14	25303.53
498.32	25516.52
498.50	25507.16
498.67	26059.52
498.85	26089.95
499.03	26321.66
499.20	26089.95
499.38	26237.41
499.56	26338.05
499.73	26476.14
499.91	26354.43
500.08	26714.87
500.26	26279.54
500.44	26691.47
500.61	26272.51
500.79	27007.44
500.97	26731.26
501.14	27030.85
501.32	26827.22
501.49	27262.56
501.67	27197.02
501.84	27075.32
502.02	27466.19
502.20	27716.62
502.37	28020.89
502.55	27838.33
502.72	28030.26
502.90	28177.71
503.07	28041.96
503.25	28587.30
503.43	28198.77
503.60	28098.13
503.78	28037.28
503.95	28102.81
504.13	28694.97
504.30	28584.96
504.48	28243.24
504.65	28936.04
504.83	28917.32
505.01	29221.59
505.18	29261.38
505.36	29415.85
505.53	29528.20
505.71	29827.79
505.88	29837.15
506.06	29156.05
506.23	29406.49
506.41	29731.83
506.58	30162.48
506.76	29764.59
506.93	30204.61
507.11	30309.94
507.28	30213.98
507.46	29668.63
507.63	30068.86
507.81	30157.80
507.98	29713.10
508.16	30632.93
508.33	30534.63
508.50	30756.98
508.68	30684.42
508.85	31047.21
509.03	31087.00
509.20	31082.31
509.38	30969.97
509.55	31040.18
509.73	31431.05
509.90	31557.44
510.08	31124.44
510.25	31206.36
510.42	31690.85
510.60	31290.62
510.77	31758.73
510.95	32250.24
511.12	32098.11
511.30	31992.78
511.47	32519.40
511.64	32528.77
511.82	32348.54
511.99	31838.31
512.17	32411.74
512.34	32044.27
512.51	32264.28
512.69	32519.40
512.86	32411.74
513.04	32987.51
513.21	33010.92
513.38	32540.47
513.56	33296.46
513.73	32896.23
513.90	32694.94
514.08	32556.85
514.25	33207.52
514.43	33294.12
514.60	33574.98
514.77	33223.90
514.95	33502.43
515.12	33572.64
515.29	33560.94
515.47	34057.14
515.64	33897.98
515.81	33977.56
515.99	34242.04
516.16	33809.04
516.33	33518.81
516.51	34040.75
516.68	32854.10
516.85	33373.70
517.03	33514.13
517.20	33830.10
517.37	33926.07
517.54	34092.24
517.72	34267.78
517.89	34050.11
518.06	34024.37
518.24	33883.94
518.41	34036.07
518.58	34443.32
518.75	34668.02
518.93	34438.64
519.10	35042.50
519.27	34923.13
519.45	35262.51
519.62	35204.00
519.79	35531.67
519.96	35157.19
520.14	35679.13
520.31	35274.21
520.48	35524.65
520.65	35648.70
520.83	35901.48
521.00	35864.03
521.17	35833.60
521.34	36016.16
521.52	36091.06
521.69	36105.10
521.86	36378.95
522.03	36524.06
522.20	36194.04
522.38	36383.63
522.55	36589.59
522.72	35969.35
522.89	36336.82
523.07	36538.10
523.24	36355.54
523.41	37090.47
523.58	36732.37
523.75	37177.07
523.92	37263.67
524.10	37542.19
524.27	37474.32
524.44	37684.97
524.61	37317.50
524.78	37385.38
524.96	37516.45
525.13	37776.25
525.30	38059.45
525.47	37865.19
525.64	37612.41
525.81	37380.70
525.98	37727.10
526.16	37792.63
526.33	37041.32
526.50	36996.85
526.67	37340.91
526.84	37371.33
527.01	37486.02
527.18	37570.28
527.36	38157.75
527.53	38244.35
527.70	38382.45
527.87	38405.85
528.04	37752.84
528.21	38260.74
528.38	38754.59
528.55	38504.15
528.72	38770.97
528.89	38857.57
529.07	39210.99
529.24	38501.81
529.41	38646.93
529.58	38684.37
529.75	38525.22
529.92	39271.85
530.09	38990.98
530.26	39494.20
530.43	39491.86
530.60	38920.77
530.77	39070.56
530.94	39484.84
531.11	39503.56
531.28	39770.38
531.46	39594.84
531.63	39697.83
531.80	39679.10
531.97	39868.69
532.14	39613.57
532.31	39517.60
532.48	39388.88
532.65	39346.75
532.82	39744.64
532.99	39974.01
533.16	39587.82
533.33	40201.04
533.50	40009.12
533.67	40388.28
533.84	39775.06
534.01	40158.91
534.18	40086.36
534.35	39969.33
534.52	40229.13
534.69	40376.58
534.86	40591.91
535.03	40259.55
535.20	40360.20
535.37	41137.26
535.54	41064.70
535.71	40659.79
535.88	40884.48
536.05	40659.79
536.22	40559.14
536.38	40575.53
536.55	40683.19
536.72	40587.23
536.89	40247.85
537.06	40610.64
537.23	40840.01
537.40	40685.53
537.57	41006.19
537.74	41067.04
537.91	41558.55
538.08	41357.27
538.25	40910.22
538.42	41273.01
538.59	41394.71
538.75	40807.24
538.92	41074.06
539.09	41478.97
539.26	41553.87
539.43	41588.98
539.60	41366.63
539.77	41542.17
539.94	41331.52
540.11	41067.04
540.28	41766.86
540.44	41764.52
540.61	41553.87
540.78	41287.05
540.95	41434.50
541.12	41748.14
541.29	41785.58
541.46	41392.37
541.62	41972.83
541.79	42281.78
541.96	41743.45
542.13	41883.89
542.30	41727.07
542.47	42033.68
542.63	41853.46
542.80	42497.11
542.97	42937.13
543.14	42759.25
543.31	42539.24
543.48	42440.93
543.64	43367.79
543.81	42983.94
543.98	42960.53
544.15	42967.55
544.32	43030.75
544.48	42843.51
544.65	42637.54
544.82	43096.28
544.99	42759.25
545.16	42796.70
545.32	42799.04
545.49	43501.20
545.66	43398.21
545.83	43578.43
546.00	43709.50
546.16	43182.88
546.33	43030.75
546.50	43042.45
546.67	43360.76
546.83	42981.60
547.00	43313.95
547.17	43323.32
547.34	43349.06
547.50	43117.35
547.67	43732.91
547.84	43290.55
548.00	43449.70
548.17	43973.98
548.34	43618.22
548.51	43903.77
548.67	43831.21
548.84	43599.50
549.01	44240.81
549.18	43648.65
549.34	44023.14
549.51	44418.69
549.68	44194.00
549.84	43997.39
550.01	44296.98
550.18	43880.36
550.34	44245.49
550.51	43690.78
550.68	43641.63
550.84	43847.60
551.01	43852.28
551.18	44179.95
551.34	43913.13
551.51	44645.72
551.68	44247.83
551.84	44619.97
552.01	43962.28
552.18	44432.73
552.34	44325.07
552.51	43985.69
552.68	44231.44
552.84	44619.97
553.01	44828.28
553.18	44126.12
553.34	44542.74
553.51	44320.38
553.67	44250.17
553.84	44753.38
554.01	44844.66
554.17	44823.60
554.34	45151.27
554.51	44921.90
554.67	45219.15
554.84	44772.11
555.00	44589.55
555.17	44942.97
555.33	45081.06
555.50	45043.61
555.67	44594.23
555.83	44783.81
556.00	44942.97
556.16	45361.92
556.33	45139.57
556.50	44615.29
556.66	45392.35
556.83	44685.51
556.99	45036.59
557.16	45127.87
557.32	45205.11
557.49	44940.63
557.65	44891.48
557.82	45132.55
557.98	45647.47
558.15	44884.45
558.32	45041.27
558.48	45340.86
558.65	45200.43
558.81	45282.34
558.98	45052.97
559.14	44760.40
559.31	45083.40
559.47	45048.29
559.64	45514.06
559.80	45521.08
559.97	45319.79
560.13	45074.04
560.30	45347.88
560.46	45488.31
560.63	45265.96
560.79	45783.22
560.96	45595.98
561.12	45289.37
561.29	45897.91
561.45	45113.83
561.61	45076.38
561.78	45801.94
561.94	45294.05
562.11	45329.16
562.27	45460.23
562.44	45406.39
562.60	45808.96
562.77	45694.28
562.93	45380.65
563.10	45825.35
563.26	45202.77
563.42	45867.48
563.59	45392.35
563.75	45530.44
563.92	46246.65
564.08	45867.48
564.24	45895.56
564.41	46059.40
564.57	45591.30
564.74	45406.39
564.90	45490.65
565.07	45961.10
565.23	45579.59
565.39	45399.37
565.56	46059.40
565.72	45481.29
565.88	45638.11
566.05	45705.98
566.21	45869.82
566.38	45572.57
566.54	45834.71
566.70	46129.62
566.87	46546.23
567.03	46007.91
567.19	46270.05
567.36	45563.21
567.52	45701.30
567.68	45921.31
567.85	45614.70
568.01	46052.38
568.17	45462.57
568.34	45986.85
568.50	46148.34
568.66	46024.29
568.83	46335.59
568.99	45787.90
569.15	45925.99
569.32	45567.89
569.48	45322.13
569.64	46043.02
569.81	46071.10
569.97	46005.57
570.13	46106.21
570.30	46120.26
570.46	45778.54
570.62	45457.88
570.78	45603.00
570.95	45710.66
571.11	45968.12
571.27	45823.01
571.43	45759.81
571.60	45722.37
571.76	46080.47
571.92	45710.66
572.09	45961.10
572.25	45874.50
572.41	46251.33
572.57	46525.17
572.74	46312.18
572.90	46195.15
573.06	46295.80
573.22	46167.07
573.38	45673.21
573.55	46108.55
573.71	46653.90
573.87	46181.11
574.03	45963.44
574.20	46036.00
574.36	45888.54
574.52	45907.27
574.68	46033.66
574.84	45745.77
575.01	46380.06
575.17	46134.30
575.33	45785.56
575.49	45820.67
575.65	46389.42
575.82	46401.12
575.98	45923.65
576.14	46068.76
576.30	46337.93
576.46	46061.74
576.62	45792.58
576.79	46169.41
576.95	45652.15
577.11	46066.42
577.27	46246.65
577.43	46335.59
577.59	45993.87
577.75	45858.12
577.92	46017.27
578.08	45858.12
578.24	45862.80
578.40	46340.27
578.56	46340.27
578.72	46190.47
578.88	46342.61
579.04	46403.46
579.21	46267.71
579.37	46405.80
579.53	46263.03
579.69	45750.45
579.85	46068.76
580.01	46438.57
580.17	46106.21
580.33	46520.49
580.49	46150.68
580.65	46541.55
580.82	46178.77
580.98	46260.69
581.14	46115.58
581.30	46389.42
581.46	46471.34
581.62	46686.67
581.78	46096.85
581.94	46553.26
582.10	46412.82
582.26	46286.43
582.42	46504.10
582.58	46401.12
582.74	46195.15
582.90	46199.83
583.06	46848.16
583.22	46171.75
583.38	46656.24
583.54	46237.28
583.70	46157.70
583.86	46660.92
584.02	46010.25
584.18	46358.99
584.34	46134.30
584.50	45996.21
584.66	46602.41
584.82	45895.56
584.98	46590.70
585.14	46361.33
585.30	46178.77
585.46	46349.63
585.62	46073.45
585.78	46106.21
585.94	46148.34
586.10	46071.10
586.26	46080.47
586.42	46518.15
586.58	46693.69
586.74	46534.53
586.90	46108.55
587.06	46078.13
587.22	46775.61
587.38	46052.38
587.54	46417.50
587.70	46452.61
587.86	46419.84
588.02	46171.75
588.18	46021.95
588.34	46436.23
588.49	45736.41
588.65	45570.23
588.81	45668.53
588.97	46157.70
589.13	45914.29
589.29	46176.43
589.45	46340.27
589.61	46127.28
589.77	46389.42
589.93	46515.81
590.08	46433.89
590.24	46480.70
590.40	46323.88
590.56	46782.63
590.72	46447.93
590.88	46398.78
591.04	46340.27
591.20	46625.81
591.35	46777.95
591.51	46887.95
591.67	46651.56
591.83	46342.61
591.99	46361.33
592.15	46483.04
592.31	46211.54
592.46	46354.31
592.62	46323.88
592.78	47098.60
592.94	46731.14
593.10	46370.69
593.26	46726.46
593.41	46508.79
593.57	46625.81
593.73	46560.28
593.89	46670.28
594.05	46211.54
594.20	46450.27
594.36	46717.09
594.52	46532.19
594.68	46288.77
594.84	46429.21
594.99	46923.06
595.15	46464.32
595.31	46459.63
595.47	46382.40
595.62	46742.84
595.78	46614.11
595.94	46670.28
596.10	46576.66
596.25	46930.08
596.41	46913.70
596.57	46333.24
596.73	46735.82
596.88	46674.96
597.04	46366.01
597.20	46227.92
597.36	46438.57
597.51	46529.85
597.67	46808.37
597.83	46632.83
597.99	47065.83
598.14	46216.22
598.30	46520.49
598.46	46300.48
598.61	46674.96
598.77	46295.80
598.93	46803.69
599.09	46707.73
599.24	47133.71
599.40	46913.70
599.56	46457.29
599.71	46426.87
599.87	46560.28
600.03	46731.14
600.18	46827.10
600.34	46417.50
600.50	46574.32
600.65	46681.98
600.81	46536.87
600.97	46630.49
601.12	46976.89
601.28	46595.38
601.44	46415.16
601.59	45787.90
601.75	45933.01
601.91	46621.13
602.06	46363.67
602.22	46677.30
602.37	46216.22
602.53	46206.86
602.69	46485.38
602.84	46342.61
603.00	46525.17
603.16	46583.68
603.31	46534.53
603.47	46426.87
603.62	46569.64
603.78	45944.72
603.94	46740.50
604.09	46485.38
604.25	46274.73
604.40	46443.25
604.56	46789.65
604.71	46686.67
604.87	46335.59
605.03	46270.05
605.18	45965.78
605.34	46277.07
605.49	45911.95
605.65	46424.53
605.80	46419.84
605.96	46293.46
606.12	46089.83
606.27	46696.03
606.43	46281.75
606.58	46071.10
606.74	46110.89
606.89	46504.10
607.05	46143.66
607.20	46316.86
607.36	46415.16
607.51	46340.27
607.67	46110.89
607.82	46134.30
607.98	46265.37
608.13	46199.83
608.29	45834.71
608.44	45909.61
608.60	45830.03
608.75	45900.25
608.91	46089.83
609.06	45951.74
609.22	46335.59
609.37	45741.09
609.53	45991.53
609.68	45982.16
609.84	45923.65
609.99	45495.33
610.15	45282.34
610.30	45453.20
610.46	45607.68
610.61	46052.38
610.76	46000.89
610.92	45975.14
611.07	45813.65
611.23	46181.11
611.38	46026.63
611.54	45841.73
611.69	45441.50
611.84	45558.53
612.00	45654.49
612.15	45593.64
612.31	45750.45
612.46	45528.10
612.62	45546.82
612.77	45603.00
612.92	46167.07
613.08	45237.87
613.23	45741.09
613.39	45549.17
613.54	45155.96
613.69	45656.83
613.85	44961.69
614.00	45380.65
614.15	46134.30
614.31	45855.78
614.46	45799.60
614.62	45911.95
614.77	45062.33
614.92	45483.63
615.08	45092.76
615.23	45303.41
615.38	44755.72
615.54	44893.82
615.69	45235.53
615.84	44645.72
616.00	44786.15
616.15	44594.23
616.30	45289.37
616.46	44615.29
616.61	44797.85
616.76	44959.35
616.92	44589.55
617.07	44493.58
617.22	44416.35
617.37	44769.77
617.53	45172.34
617.68	44884.45
617.83	44720.62
617.99	45282.34
618.14	44870.41
618.29	44692.53
618.45	44610.61
618.60	44486.56
618.75	44825.94
618.90	44964.03
619.06	44596.57
619.21	44924.24
619.36	45029.57
619.51	45064.67
619.67	44694.87
619.82	44858.71
619.97	44816.58
620.12	44280.60
620.28	44308.68
620.43	44381.24
620.58	44608.27
620.73	44112.08
620.89	44540.39
621.04	44376.56
621.19	44346.13
621.34	44179.95
621.49	44142.50
621.65	44285.28
621.80	44584.86
621.95	44191.65
622.10	44156.55
622.25	44163.57
622.41	43697.80
622.56	43887.39
622.71	44194.00
622.86	43737.59
623.01	43992.71
623.16	43885.04
623.32	43863.98
623.47	44091.01
623.62	43482.47
623.77	43779.72
623.92	44163.57
624.07	43320.98
624.23	43583.12
624.38	43765.68
624.53	43552.69
624.68	43856.96
624.83	43512.90
624.98	43550.35
625.13	43414.60
625.29	43744.61
625.44	43409.92
625.59	43086.92
625.74	43072.88
625.89	42859.89
626.04	43124.37
626.19	43173.52
626.34	43533.96
626.49	42843.51
626.65	43395.87
626.80	43152.46
626.95	43185.22
627.10	42810.74
627.25	43107.99
627.40	43000.32
627.55	42607.11
627.70	42567.32
627.85	42909.04
628.00	42972.24
628.15	42698.39
628.30	42515.83
628.45	42637.54
628.60	43037.77
628.76	43243.74
628.91	43075.22
629.06	42827.12
629.21	42576.69
629.36	42576.69
629.51	42363.70
629.66	42436.25
629.81	42492.43
629.96	42183.48
630.11	42354.33
630.26	42700.73
630.41	42682.01
630.56	42869.25
630.71	42628.18
630.86	42188.16
631.01	42209.22
631.16	42209.22
631.31	42080.49
631.46	42045.38
631.61	41820.69
631.76	42422.21
631.91	42223.26
632.06	42188.16
632.21	42506.47
632.36	42829.46
632.51	41799.63
632.66	41717.71
632.81	41535.15
632.96	41670.90
633.10	42071.13
633.25	42169.43
633.40	42000.91
633.55	41965.81
633.70	41947.08
633.85	41834.74
634.00	41949.42
634.15	42164.75
634.30	41502.38
634.45	41923.68
634.60	41745.80
634.75	41783.24
634.90	41944.74
635.05	41769.20
635.19	41572.60
635.34	41900.27
635.49	42005.59
635.64	41968.15
635.79	41230.88
635.94	41488.34
636.09	41666.22
636.24	41383.01
636.39	41336.20
636.53	41551.53
636.68	41368.97
636.83	41139.60
636.98	41682.60
637.13	41317.48
637.28	41113.85
637.43	41593.66
637.57	41640.47
637.72	40950.01
637.87	41123.21
638.02	41326.84
638.17	41270.67
638.32	41055.34
638.46	41333.86
638.61	41186.41
638.76	41111.51
638.91	40959.38
639.06	40669.15
639.20	40931.29
639.35	41071.72
639.50	41109.17
639.65	40711.28
639.80	41078.74
639.94	40996.82
640.09	40818.94
640.24	40589.57
640.39	40584.89
640.54	40500.63
640.68	40807.24
640.83	41207.47
640.98	40435.10
641.13	40456.16
641.27	40357.86
641.42	40905.54
641.57	40535.74
641.72	40739.36
641.86	39920.18
642.01	40091.04
642.16	40364.88
642.31	39969.33
642.45	40390.62
642.60	40318.07
642.75	40161.25
642.90	39812.51
643.04	40477.22
643.19	40112.10
643.34	40088.70
643.48	40250.19
643.63	40191.68
643.78	39665.06
643.93	40084.01
644.07	39995.07
644.22	39634.63
644.37	40074.65
644.51	40093.38
644.66	40215.08
644.81	40067.63
644.95	40107.42
645.10	39723.57
645.25	40224.45
645.39	40442.12
645.54	39510.58
645.69	40240.83
645.83	39966.99
645.98	40144.87
646.13	39592.50
646.27	39580.80
646.42	39800.81
646.57	39407.60
646.71	39119.71
646.86	39629.95
647.00	39772.72
647.15	39786.77
647.30	39449.73
647.44	39494.20
647.59	39321.00
647.74	39826.56
647.88	39241.42
648.03	39433.35
648.17	39800.81
648.32	39335.04
648.47	39349.09
648.61	39159.50
648.76	39105.67
648.90	39229.72
649.05	38962.90
649.20	39007.37
649.34	39187.59
649.49	38864.60
649.63	39381.85
649.78	39117.37
649.92	39213.34
650.07	39077.58
650.21	38429.26
650.36	38981.62
650.51	38969.92
650.65	39456.75
650.80	39562.08
650.94	39358.45
651.09	39309.30
651.23	38780.34
651.38	38651.61
651.52	38981.62
651.67	38895.02
651.81	38565.01
651.96	38672.67
652.10	38387.13
652.25	38522.88
652.39	39070.56
652.54	38787.36
652.68	38735.87
652.83	38609.48
652.97	38918.43
653.12	38539.26
653.26	38204.56
653.41	38412.87
653.55	37982.21
653.70	38043.07
653.84	38110.94
653.99	38625.86
654.13	38480.75
654.27	38073.49
654.42	38033.71
654.56	37928.38
654.71	38087.54
654.85	38120.31
655.00	38450.32
655.14	37729.44
655.29	37809.01
655.43	37848.80
655.57	38403.51
655.72	37546.87
655.86	37633.47
656.01	36950.04
656.15	37289.42
656.30	37228.56
656.44	37404.10
656.58	37670.92
656.73	37553.90
656.87	37968.17
657.01	37270.69
657.16	37776.25
657.30	37413.46
657.45	37205.16
657.59	37322.18
657.73	37329.20
657.88	37645.18
658.02	37902.64
658.16	37642.84
658.31	37816.04
658.45	37483.68
658.60	37333.89
658.74	37507.08
658.88	37455.59
659.03	37069.40
659.17	36823.65
659.31	37188.77
659.46	37038.98
659.60	37570.28
659.74	37270.69
659.89	37055.36
660.03	37024.93
660.17	37104.51
660.32	36893.86
660.46	37476.66
660.60	36596.62
660.74	36547.47
660.89	36945.36
661.03	36119.15
661.17	36259.58
661.32	36210.43
661.46	36503.00
661.60	36575.55
661.74	36072.34
661.89	36315.75
662.03	36439.80
662.17	36559.17
662.31	35899.14
662.46	36194.04
662.60	36425.76
662.74	36114.47
662.88	35772.75
663.03	35543.38
663.17	36098.08
663.31	35674.45
663.45	35721.26
663.60	36046.59
663.74	35796.15
663.88	35384.22
664.02	35519.97
664.17	35522.31
664.31	35716.58
664.45	35484.86
664.59	35236.77
664.73	35725.94
664.88	35342.09
665.02	35005.05
665.16	35173.57
665.30	35321.02
665.44	35152.51
665.59	34815.47
665.73	34726.53
665.87	34895.05
666.01	34904.41
666.15	34773.34
666.29	35075.27
666.44	35051.86
666.58	34405.88
666.72	34583.76
666.86	35124.42
667.00	34794.40
667.14	33900.32
667.28	34309.91
667.43	34560.35
667.57	34529.92
667.71	34178.84
667.85	34466.73
667.99	34281.83
668.13	34258.42
668.27	34153.10
668.41	34387.15
668.56	34064.16
668.70	34408.22
668.84	33989.26
668.98	33752.87
669.12	34202.25
669.26	33654.56
669.40	33579.67
669.54	33221.56
669.68	34059.48
669.82	33357.32
669.96	33338.59
670.10	33280.08
670.25	33200.50
670.39	33242.63
670.53	33090.49
670.67	33024.96
670.81	33350.29
670.95	33352.63
671.09	33062.41
671.23	32889.21
671.37	32952.40
671.51	32652.81
671.65	32802.61
671.79	32818.99
671.93	32737.07
672.07	32385.99
672.21	32725.37
672.35	32521.74
672.49	31938.95
672.63	32240.88
672.77	32388.33
672.91	32290.03
673.05	32257.26
673.19	32086.40
673.33	32142.58
673.47	31854.69
673.61	32203.43
673.75	31470.84
673.89	31374.88
674.03	31168.91
674.17	31693.19
674.31	31639.36
674.45	31639.36
674.59	31529.36
674.73	31697.88
674.87	31480.21
675.01	31096.36
675.15	31136.15
675.29	31236.79
675.43	30916.14
675.56	31037.84
675.70	31124.44
675.84	30522.93
675.98	29926.09
676.12	30450.37
676.26	30314.62
676.40	30263.13
676.54	30506.54
676.68	30476.12
676.82	29996.31
676.96	30307.60
677.10	30256.11
677.23	29928.43
677.37	29912.05
677.51	29893.32
677.65	29640.54
677.79	29362.02
677.93	29525.86
678.07	29467.34
678.21	28870.51
678.34	28905.62
678.48	28659.86
678.62	28493.68
678.76	28514.75
678.90	28629.43
679.04	28379.00
679.18	28407.08
679.31	28442.19
679.45	28313.46
679.59	28130.90
679.73	27749.39
679.87	28170.69
680.00	27618.32
680.14	28184.73
680.28	27782.16
680.42	27875.78
680.56	27859.40
680.70	27754.07
680.83	27913.23
680.97	27466.19
681.11	27693.22
681.25	27138.51
681.39	27019.14
681.52	27559.81
681.66	26920.84
681.80	27307.03
681.94	26827.22
682.07	27143.19
682.21	26962.97
682.35	26515.93
682.49	27080.00
682.62	26508.91
682.76	26319.32
682.90	26188.25
683.04	26251.45
683.17	26239.75
683.31	25891.01
683.45	25954.20
683.59	25993.99
683.72	25790.36
683.86	25610.14
684.00	25937.82
684.13	25483.75
684.27	25453.33
684.41	25792.70
684.55	25443.96
684.68	24704.35
684.82	25350.34
684.96	24912.66
685.09	25111.61
685.23	25139.69
685.37	24542.86
685.50	24971.18
685.64	24379.02
685.78	24500.73
685.91	24322.85
686.05	24568.60
686.19	24056.03
686.32	24067.73
686.46	23814.95
686.60	23828.99
686.73	23557.49
686.87	23283.65
687.01	23325.78
687.14	23421.74
687.28	23089.38
687.42	23290.67
687.55	23438.12
687.69	23463.87
687.82	23042.57
687.96	23466.21
688.10	22773.41
688.23	22787.46
688.37	22284.24
688.50	22473.82
688.64	22806.18
688.78	22993.42
688.91	22317.01
689.05	22567.45
689.18	22574.47
689.32	22068.91
689.46	22061.89
689.59	22312.33
689.73	22572.13
689.86	21975.29
690.00	22101.68
690.13	22068.91
690.27	21710.81
690.41	21593.78
690.54	21165.46
690.68	21233.34
690.81	21769.32
690.95	21561.02
691.08	21397.18
691.22	21298.88
691.35	21528.25
691.49	21128.02
691.62	21036.74
691.76	20711.40
691.89	20863.54
692.03	20269.04
692.16	20748.85
692.30	20535.86
692.43	20465.64
692.57	20290.10
692.70	20215.21
692.84	20318.19
692.97	19885.19
693.11	20395.43
693.24	20121.59
693.38	19805.61
693.51	19681.56
693.65	19836.04
693.78	19894.55
693.92	19433.47
694.05	19625.39
694.19	19452.19
694.32	19131.54
694.45	19056.64
694.59	19166.65
694.72	19063.66
694.86	19054.30
694.99	18782.80
695.13	18862.38
695.26	18878.76
695.39	18672.79
695.53	18588.53
695.66	19096.43
695.80	18899.83
695.93	18387.25
696.07	18527.68
696.20	18368.52
696.33	18160.22
696.47	18019.78
696.60	18148.51
696.73	18019.78
696.87	17877.01
697.00	17853.61
697.14	17554.02
697.27	17591.47
697.40	17589.13
697.54	17563.38
697.67	17729.56
697.80	17511.89
697.94	17181.87
698.07	17179.53
698.21	17006.33
698.34	17289.54
698.47	17060.16
698.61	16706.74
698.74	16671.64
698.87	16753.55
699.01	16453.97
699.14	16439.92
699.27	16608.44
699.40	16477.37
699.54	16397.79
699.67	16519.50
699.80	16191.83
699.94	16123.95
700.07	15988.20
700.20	15754.15
700.34	15992.88
700.47	15941.39
700.60	16039.69
700.73	16369.71
700.87	15941.39
701.00	15658.18
701.13	15590.31
701.26	15604.35
701.40	15651.16
701.53	15021.56
701.66	15363.28
701.79	15208.80
701.93	15166.67
702.06	15152.63
702.19	14986.45
702.32	15091.77
702.46	14759.42
702.59	14906.87
702.72	14782.82
702.85	14796.87
702.99	14771.12
703.12	14532.39
703.25	14628.35
703.38	14410.68
703.51	14176.62
703.65	14225.78
703.78	14553.45
703.91	14143.86
704.04	14136.84
704.17	14178.97
704.31	14101.73
704.44	14195.35
704.57	13965.98
704.70	13980.02
704.83	13736.60
704.96	13750.65
705.10	13884.06
705.23	13600.85
>>>>>End Processed Spectral Data<<<<<
