SpectraSuite Data File
++++++++++++++++++++++++++++++++++++
Date: Fri Oct 25 10:43:30 EDT 2013
User: price-jones
Dark Spectrum Present: No
Reference Spectrum Present: No
Number of Sampled Component Spectra: 1
Spectrometers: USB2+H05261
Integration Time (usec): 100000 (USB2+H05261)
Spectra Averaged: 1 (USB2+H05261)
Boxcar Smoothing: 0 (USB2+H05261)
Correct for Electrical Dark: No (USB2+H05261)
Strobe/Lamp Enabled: No (USB2+H05261)
Correct for Detector Non-linearity: No (USB2+H05261)
Correct for Stray Light: No (USB2+H05261)
Number of Pixels in Processed Spectrum: 2048
>>>>>Begin Processed Spectral Data<<<<<
365.73	152.13
365.92	152.13
366.12	152.13
366.32	72.56
366.52	56.17
366.72	93.62
366.91	16.38
367.11	100.64
367.31	14.04
367.51	23.41
367.70	0.00
367.90	53.83
368.10	49.15
368.30	18.72
368.49	35.11
368.69	35.11
368.89	21.06
369.09	18.72
369.28	58.51
369.48	0.00
369.68	152.13
369.87	105.32
370.07	77.24
370.27	161.50
370.47	156.82
370.66	428.32
370.86	437.68
371.06	433.00
371.25	514.92
371.45	393.21
371.65	458.74
371.84	461.09
372.04	470.45
372.24	437.68
372.44	463.43
372.63	545.34
372.83	486.83
373.03	531.30
373.22	578.11
373.42	592.16
373.62	543.00
373.81	622.58
374.01	554.71
374.21	552.37
374.40	479.81
374.60	589.82
374.79	524.28
374.99	498.53
375.19	589.82
375.38	610.88
375.58	557.05
375.78	564.07
375.97	664.71
376.17	617.90
376.37	610.88
376.56	678.76
376.76	599.18
376.95	589.82
377.15	631.94
377.35	575.77
377.54	697.48
377.74	678.76
377.93	622.58
378.13	685.78
378.33	690.46
378.52	641.31
378.72	692.80
378.91	664.71
379.11	690.46
379.31	711.52
379.50	681.10
379.70	744.29
379.89	720.88
380.09	631.94
380.28	688.12
380.48	692.80
380.68	739.61
380.87	741.95
381.07	720.88
381.26	727.91
381.46	699.82
381.65	748.97
381.85	727.91
382.04	641.31
382.24	748.97
382.43	699.82
382.63	753.65
382.83	704.50
383.02	758.33
383.22	837.91
383.41	748.97
383.61	730.25
383.80	793.44
384.00	746.63
384.19	786.42
384.39	758.33
384.58	795.78
384.78	798.12
384.97	798.12
385.17	786.42
385.36	706.84
385.56	760.67
385.75	760.67
385.95	856.64
386.14	957.28
386.34	765.36
386.53	894.08
386.72	760.67
386.92	891.74
387.11	847.27
387.31	875.36
387.50	842.59
387.70	807.48
387.89	875.36
388.09	959.62
388.28	908.13
388.48	863.66
388.67	929.19
388.86	959.62
389.06	901.11
389.25	929.19
389.45	954.94
389.64	919.83
389.84	1015.79
390.03	992.39
390.22	1081.33
390.42	952.60
390.61	968.98
390.81	1025.15
391.00	992.39
391.19	1081.33
391.39	1067.28
391.58	1006.43
391.78	1025.15
391.97	1128.14
392.16	1025.15
392.36	999.41
392.55	1015.79
392.75	915.15
392.94	926.85
393.13	1004.09
393.33	950.26
393.52	1036.86
393.71	1062.60
393.91	1142.18
394.10	1076.65
394.29	1181.97
394.49	1160.91
394.68	1217.08
394.88	1205.38
395.07	1207.72
395.26	1205.38
395.46	1142.18
395.65	1259.21
395.84	1224.10
396.04	1217.08
396.23	1135.16
396.42	1130.48
396.62	1231.12
396.81	1196.01
397.00	1217.08
397.19	1245.16
397.39	1338.79
397.58	1352.83
397.77	1334.11
397.97	1336.45
398.16	1324.74
398.35	1434.75
398.55	1437.09
398.74	1509.65
398.93	1509.65
399.12	1472.20
399.32	1504.96
399.51	1540.07
399.70	1596.25
399.90	1551.78
400.09	1563.48
400.28	1610.29
400.47	1561.14
400.67	1675.82
400.86	1664.12
401.05	1643.06
401.24	1668.80
401.44	1664.12
401.63	1776.47
401.82	1776.47
402.01	1694.55
402.21	1713.27
402.40	1685.19
402.59	1760.08
402.78	1713.27
402.97	1788.17
403.17	1797.53
403.36	1785.83
403.55	1739.02
403.74	1916.90
403.93	1799.87
404.13	1860.73
404.32	1966.05
404.51	1916.90
404.70	1919.24
404.89	1905.20
405.09	1872.43
405.28	1853.70
405.47	2057.33
405.66	1977.75
405.85	1977.75
406.05	1947.33
406.24	1952.01
406.43	2104.14
406.62	2071.37
406.81	2052.65
407.00	1987.11
407.20	1956.69
407.39	2064.35
407.58	2153.29
407.77	2169.68
407.96	2207.13
408.15	2317.13
408.34	2237.55
408.54	2279.68
408.73	2251.60
408.92	2359.26
409.11	2232.87
409.30	2286.70
409.49	2272.66
409.68	2230.53
409.87	2146.27
410.07	2251.60
410.26	2275.00
410.45	2399.05
410.64	2363.94
410.83	2431.82
411.02	2457.56
411.21	2567.57
411.40	2579.27
411.59	2705.66
411.78	2614.38
411.98	2569.91
412.17	2593.31
412.36	2612.04
412.55	2729.06
412.74	2846.09
412.93	2820.35
413.12	2689.28
413.31	2867.16
413.50	2773.53
413.69	2848.43
413.88	2815.66
414.07	2806.30
414.26	2846.09
414.45	2953.76
414.64	2808.64
414.83	2988.86
415.02	2963.12
415.22	3014.61
415.41	3091.85
415.60	3190.15
415.79	3213.56
415.98	3267.39
416.17	3241.64
416.36	3251.00
416.55	3185.47
416.74	3300.16
416.93	3141.00
417.12	3412.50
417.31	3255.69
417.50	3279.09
417.69	3442.93
417.88	3372.71
418.07	3330.58
418.26	3412.50
418.45	3358.67
418.64	3641.87
418.83	3618.47
419.02	3510.80
419.21	3541.23
419.39	3403.14
419.58	3480.38
419.77	3559.95
419.96	3576.34
420.15	3653.58
420.34	3749.54
420.53	3770.60
420.72	3772.94
420.91	3772.94
421.10	3861.88
421.29	3908.69
421.48	3751.88
421.67	3829.12
421.86	3709.75
422.05	3819.75
422.24	3866.56
422.43	3791.67
422.61	3826.78
422.80	3854.86
422.99	3859.54
423.18	3857.20
423.37	3950.82
423.56	4018.70
423.75	3824.44
423.94	3768.26
424.13	3651.24
424.32	3721.45
424.50	3868.91
424.69	3885.29
424.88	3932.10
425.07	3845.50
425.26	3948.48
425.45	3854.86
425.64	3906.35
425.83	3894.65
426.01	4044.45
426.20	4046.79
426.39	4018.70
426.58	3904.01
426.77	3812.73
426.96	3999.98
427.15	3997.64
427.33	4058.49
427.52	4030.40
427.71	4051.47
427.90	4030.40
428.09	4079.55
428.28	4002.32
428.46	4107.64
428.65	4060.83
428.84	4231.69
429.03	4266.80
429.22	4018.70
429.40	4210.62
429.59	4021.04
429.78	3810.39
429.97	3908.69
430.16	3999.98
430.34	4163.81
430.53	4117.00
430.72	4184.88
430.91	4290.20
431.10	4369.78
431.28	4601.49
431.47	4634.26
431.66	4697.46
431.85	4617.88
432.03	4594.47
432.22	4702.14
432.41	4664.69
432.60	4798.10
432.79	4748.95
432.97	4723.20
433.16	4643.62
433.35	4550.00
433.54	4805.12
433.72	4627.24
433.91	4664.69
434.10	4751.29
434.28	4702.14
434.47	4826.18
434.66	4833.21
434.85	5011.09
435.03	4990.02
435.22	4826.18
435.41	5118.75
435.59	4940.87
435.78	5081.30
435.97	5015.77
436.16	5132.79
436.34	5069.60
436.53	5055.56
436.72	5252.16
436.90	5130.45
437.09	5268.55
437.28	5097.69
437.46	5142.16
437.65	5097.69
437.84	5121.09
438.02	5231.10
438.21	5093.01
438.40	5041.51
438.58	5373.87
438.77	5401.96
438.96	5327.06
439.14	5643.03
439.33	5577.50
439.52	5542.39
439.70	5568.13
439.89	5490.90
440.08	5556.43
440.26	5694.52
440.45	5731.97
440.63	5867.72
440.82	5963.68
441.01	5977.73
441.19	6008.16
441.38	6190.72
441.57	6214.12
441.75	5914.53
441.94	6258.59
442.12	6162.63
442.31	6396.68
442.50	6225.82
442.68	6256.25
442.87	6223.48
443.05	6373.28
443.24	6394.34
443.43	6380.30
443.61	6574.56
443.80	6757.13
443.98	6457.54
444.17	6181.35
444.35	6429.45
444.54	6593.29
444.73	6752.45
444.91	6422.43
445.10	6558.18
445.28	6401.37
445.47	6324.13
445.65	6361.58
445.84	6558.18
446.02	6427.11
446.21	6607.33
446.39	6462.22
446.58	6555.84
446.77	6562.86
446.95	6410.73
447.14	6396.68
447.32	6586.27
447.51	6541.80
447.69	6513.71
447.88	6672.87
448.06	6757.13
448.25	6696.27
448.43	6541.80
448.62	6693.93
448.80	6738.40
448.99	6766.49
449.17	6773.51
449.36	6820.32
449.54	6970.12
449.73	7101.19
449.91	6918.62
450.10	7152.68
450.28	7318.86
450.46	7126.93
450.65	7148.00
450.83	7290.77
451.02	7190.13
451.20	7332.90
451.39	7215.87
451.57	7098.84
451.76	7073.10
451.94	7126.93
452.13	7300.13
452.31	7342.26
452.49	7136.29
452.68	7246.30
452.86	7253.32
453.05	7358.64
453.23	7239.28
453.42	7265.02
453.60	7286.09
453.78	7377.37
453.97	7349.28
454.15	7396.09
454.34	7272.04
454.52	7480.35
454.70	7588.02
454.89	7377.37
455.07	7557.59
455.26	7716.75
455.44	7538.87
455.62	7674.62
455.81	7847.82
455.99	7791.64
456.17	7707.38
456.36	7885.26
456.54	7859.52
456.73	7967.18
456.91	8231.66
457.09	7983.57
457.28	8266.77
457.46	7920.37
457.64	8100.59
457.83	7988.25
458.01	7822.07
458.19	8147.40
458.38	8203.58
458.56	8369.76
458.74	8018.68
458.93	8184.85
459.11	8187.19
459.29	8313.58
459.48	8418.91
459.66	8231.66
459.84	8486.78
460.03	8685.73
460.21	8484.44
460.39	8339.33
460.57	8507.85
460.76	8648.28
460.94	8713.81
461.12	8554.66
461.31	8482.10
461.49	8713.81
461.67	8514.87
461.85	9032.13
462.04	8781.69
462.22	9097.66
462.40	8767.65
462.59	8751.26
462.77	9018.08
462.95	8999.36
463.13	8950.21
463.32	9011.06
463.50	8774.67
463.68	9123.41
463.86	8896.38
464.05	9020.42
464.23	8905.74
464.41	9104.68
464.59	8674.03
464.78	8999.36
464.96	9060.21
465.14	9165.54
465.32	9170.22
465.50	9312.99
465.69	9146.81
465.87	9205.33
466.05	9338.74
466.23	8985.32
466.41	9348.10
466.60	9423.00
466.78	9165.54
466.96	9329.38
467.14	9425.34
467.32	9287.25
467.51	9488.53
467.69	9210.01
467.87	9397.25
468.05	9467.47
468.23	9453.42
468.41	9320.01
468.60	9523.64
468.78	9547.05
468.96	9315.33
469.14	9579.81
469.32	9741.31
469.50	9544.70
469.69	9694.50
469.87	9659.39
470.05	9909.83
470.23	9851.31
470.41	9657.05
470.59	9958.98
470.77	9858.34
470.95	9954.30
471.14	9914.51
471.32	9919.19
471.50	10267.93
471.68	10249.21
471.86	10225.80
472.04	10113.45
472.22	10546.45
472.40	10277.29
472.58	10249.21
472.77	10263.25
472.95	10523.05
473.13	10939.66
473.31	10480.92
473.49	10520.71
473.67	10733.70
473.85	10740.72
474.03	10764.12
474.21	10967.75
474.39	10956.05
474.57	10995.84
474.75	10806.25
474.93	11138.61
475.12	11138.61
475.30	11314.15
475.48	10967.75
475.66	11321.17
475.84	11176.06
476.02	11435.86
476.20	11269.68
476.38	11800.98
476.56	11616.08
476.74	11772.89
476.92	11705.02
477.10	12058.44
477.28	11887.58
477.46	11974.18
477.64	12217.60
477.82	12308.88
478.00	12819.11
478.18	12510.16
478.36	12519.53
478.54	12292.49
478.72	12568.68
478.90	12901.03
479.08	12926.78
479.26	12823.80
479.44	13055.51
479.62	12849.54
479.80	13404.25
479.98	13114.02
480.16	13696.82
480.34	13568.09
480.52	13870.01
480.70	13708.52
480.88	13593.83
481.06	13881.72
481.24	13881.72
481.41	14129.81
481.59	14232.80
481.77	14431.74
481.95	14263.22
482.13	14642.39
482.31	14356.85
482.49	14675.16
482.67	14920.92
482.85	14693.88
483.03	15192.42
483.21	15063.69
483.39	15466.26
483.57	15543.50
483.74	15662.86
483.92	15484.98
484.10	15548.18
484.28	15836.06
484.46	15999.90
484.64	16205.87
484.82	15826.70
485.00	15899.26
485.18	16332.26
485.35	16517.16
485.53	16135.65
485.71	16208.21
485.89	16231.62
486.07	16255.02
486.25	16229.27
486.43	16933.78
486.61	17163.15
486.78	17432.31
486.96	17200.60
487.14	17556.36
487.32	17413.59
487.50	17708.49
487.68	17991.70
487.85	18398.95
488.03	18457.46
488.21	18221.07
488.39	18288.95
488.57	18644.71
488.75	18684.50
488.92	19178.35
489.10	19271.97
489.28	19323.46
489.46	19557.52
489.64	19939.02
489.81	20109.88
489.99	20203.50
490.17	20287.76
490.35	20369.68
490.53	20161.37
490.70	20159.03
490.88	20388.41
491.06	20961.84
491.24	20601.40
491.41	20606.08
491.59	20706.72
491.77	20627.14
491.95	21057.80
492.13	21287.17
492.30	21923.80
492.48	21460.37
492.66	21907.41
492.84	21916.78
493.01	22375.52
493.19	21876.99
493.37	22260.84
493.54	21933.16
493.72	22728.94
493.90	22490.21
494.08	22670.43
494.25	23168.96
494.43	23337.48
494.61	23342.16
494.79	23187.69
494.96	23063.64
495.14	23765.80
495.32	23323.44
495.49	23562.17
495.67	23789.20
495.85	23775.16
496.02	24168.37
496.20	24133.26
496.38	24444.56
496.55	24704.35
496.73	24734.78
496.91	24999.26
497.09	25060.12
497.26	25064.80
497.44	25032.03
497.62	25174.80
497.79	25380.77
497.97	25060.12
498.14	25078.84
498.32	25355.02
498.50	25209.91
498.67	25778.66
498.85	26059.52
499.03	26047.82
499.20	26422.31
499.38	26270.17
499.56	26412.95
499.73	26331.03
499.91	26387.20
500.08	26391.88
500.26	26305.28
500.44	26574.44
500.61	26546.36
500.79	26567.42
500.97	26651.68
501.14	26789.77
501.32	26672.74
501.49	26792.11
501.67	27164.26
501.84	27250.86
502.02	27271.92
502.20	27531.72
502.37	27878.12
502.55	27475.55
502.72	27929.61
502.90	27761.09
503.07	27697.90
503.25	27749.39
503.43	28231.54
503.60	28252.61
503.78	28063.02
503.95	28151.96
504.13	28481.98
504.30	28669.22
504.48	28470.28
504.65	28966.47
504.83	28627.09
505.01	28996.90
505.18	29347.98
505.36	29275.42
505.53	29237.97
505.71	29635.86
505.88	29488.41
506.06	29149.03
506.23	29191.16
506.41	29249.67
506.58	29757.57
506.76	30017.37
506.93	30068.86
507.11	30242.06
507.28	29816.08
507.46	30017.37
507.63	29837.15
507.81	30036.09
507.98	29776.30
508.16	30293.55
508.33	30476.12
508.50	30445.69
508.68	30574.42
508.85	30534.63
509.03	30845.92
509.20	30988.69
509.38	30911.46
509.55	31215.72
509.73	31152.53
509.90	31299.98
510.08	30892.73
510.25	30815.49
510.42	31248.49
510.60	31812.56
510.77	31534.04
510.95	32051.30
511.12	31646.38
511.30	31821.92
511.47	32109.81
511.64	31978.74
511.82	32343.86
511.99	31878.10
512.17	31960.02
512.34	31821.92
512.51	32390.67
512.69	32180.03
512.86	32641.11
513.04	32964.10
513.21	32245.56
513.38	32182.37
513.56	32589.62
513.73	32329.82
513.90	32889.21
514.08	32753.46
514.25	33191.14
514.43	33244.97
514.60	32746.44
514.77	33067.09
514.95	33331.57
515.12	33301.14
515.29	33584.35
515.47	33556.26
515.64	33949.47
515.81	33539.88
515.99	33722.44
516.16	33724.78
516.33	33596.05
516.51	33486.04
516.68	33090.49
516.85	32716.01
517.03	33652.22
517.20	33802.02
517.37	34595.46
517.54	34277.15
517.72	33961.17
517.89	33724.78
518.06	33954.15
518.24	34199.91
518.41	33972.88
518.58	34188.21
518.75	34649.29
518.93	34679.72
519.10	34312.25
519.27	35051.86
519.45	34590.78
519.62	35140.80
519.79	35196.98
519.96	35042.50
520.14	35241.45
520.31	35250.81
520.48	35398.26
520.65	35379.54
520.83	35660.40
521.00	35620.61
521.17	36020.84
521.34	36133.19
521.52	36107.44
521.69	35826.58
521.86	35985.74
522.03	36273.62
522.20	36058.29
522.38	36142.55
522.55	36381.29
522.72	35967.01
522.89	36495.97
523.07	36790.88
523.24	36446.82
523.41	36481.93
523.58	36308.73
523.75	37361.97
523.92	37067.06
524.10	36669.17
524.27	37057.70
524.44	36713.64
524.61	37476.66
524.78	37132.60
524.96	37450.91
525.13	37270.69
525.30	37254.31
525.47	37813.70
525.64	37130.26
525.81	37439.21
525.98	37542.19
526.16	37441.55
526.33	37251.97
526.50	37486.02
526.67	37298.78
526.84	37553.90
527.01	37617.09
527.18	37654.54
527.36	37703.69
527.53	38274.78
527.70	38836.51
527.87	38312.23
528.04	37818.38
528.21	38555.64
528.38	38162.43
528.55	38604.80
528.72	38721.82
528.89	38888.00
529.07	38412.87
529.24	38719.48
529.41	38953.54
529.58	38550.96
529.75	38410.53
529.92	38602.46
530.09	38944.17
530.26	38768.63
530.43	38955.88
530.60	38595.43
530.77	39234.40
530.94	38993.32
531.11	39014.39
531.28	39454.41
531.46	39321.00
531.63	39421.64
531.80	39049.50
531.97	39133.76
532.14	39257.81
532.31	38969.92
532.48	39126.74
532.65	39442.71
532.82	39332.70
532.99	39962.31
533.16	39562.08
533.33	39826.56
533.50	40137.85
533.67	39779.74
533.84	39798.47
534.01	40297.00
534.18	39742.30
534.35	40170.61
534.52	39845.28
534.69	40397.65
534.86	40617.66
535.03	40444.46
535.20	40568.51
535.37	40891.50
535.54	40919.59
535.71	40336.79
535.88	40500.63
536.05	40884.48
536.22	40978.10
536.38	40622.34
536.55	40734.68
536.72	40657.45
536.89	40423.39
537.06	39971.67
537.23	40884.48
537.40	40783.83
537.57	40884.48
537.74	40610.64
537.91	41064.70
538.08	41127.89
538.25	40336.79
538.42	40975.76
538.59	41088.10
538.75	40821.28
538.92	41265.99
539.09	41092.79
539.26	41029.59
539.43	41411.10
539.60	41696.64
539.77	41305.77
539.94	41357.27
540.11	40905.54
540.28	41516.42
540.44	41490.68
540.61	41322.16
540.78	41284.71
540.95	41577.28
541.12	41118.53
541.29	41806.65
541.46	41432.16
541.62	41855.80
541.79	41813.67
541.96	41256.62
542.13	41453.23
542.30	42211.56
542.47	41783.24
542.63	41600.68
542.80	42038.36
542.97	41968.15
543.14	42321.57
543.31	42103.90
543.48	42564.98
543.64	42604.77
543.81	43072.88
543.98	42679.67
544.15	42387.10
544.32	42927.77
544.48	42983.94
544.65	42670.31
544.82	42714.78
544.99	42080.49
545.16	42656.26
545.32	42682.01
545.49	43260.12
545.66	43304.59
545.83	43040.11
546.00	43159.48
546.16	42735.84
546.33	42686.69
546.50	42550.94
546.67	43161.82
546.83	42337.95
547.00	42817.76
547.17	43220.33
547.34	42653.92
547.50	42621.16
547.67	43337.36
547.84	43388.85
548.00	43468.43
548.17	43529.28
548.34	43271.82
548.51	43761.00
548.67	44044.20
548.84	43529.28
549.01	43571.41
549.18	43491.83
549.34	43732.91
549.51	43407.58
549.68	43526.94
549.84	43548.01
550.01	43744.61
550.18	43725.89
550.34	43812.49
550.51	43650.99
550.68	43817.17
550.84	43227.35
551.01	43803.13
551.18	43793.76
551.34	43620.56
551.51	44105.06
551.68	43973.98
551.84	44243.15
552.01	43587.80
552.18	44470.18
552.34	43515.24
552.51	44076.97
552.68	44280.60
552.84	44140.16
553.01	44449.11
553.18	44304.00
553.34	44411.67
553.51	44217.40
553.67	44271.23
553.84	44603.59
554.01	44388.26
554.17	45045.95
554.34	44477.20
554.51	44179.95
554.67	44669.12
554.84	44409.32
555.00	44444.43
555.17	44594.23
555.33	44458.48
555.50	44348.47
555.67	44685.51
555.83	44327.41
556.00	44989.78
556.16	44889.13
556.33	44383.58
556.50	44538.05
556.66	44612.95
556.83	44837.64
556.99	44624.65
557.16	44720.62
557.32	44772.11
557.49	44980.42
557.65	44626.99
557.82	44905.52
557.98	45001.48
558.15	44788.49
558.32	45268.30
558.48	44568.48
558.65	44217.40
558.81	44783.81
558.98	45062.33
559.14	44603.59
559.31	44966.37
559.47	44884.45
559.64	45045.95
559.80	44987.44
559.97	44942.97
560.13	44734.66
560.30	45390.01
560.46	45422.78
560.63	44985.10
560.79	45141.91
560.96	45675.55
561.12	45057.65
561.29	45375.97
561.45	44971.05
561.61	45235.53
561.78	45064.67
561.94	44907.86
562.11	45464.91
562.27	45036.59
562.44	45483.63
562.60	45731.73
562.77	45401.71
562.93	45090.42
563.10	45251.92
563.26	45333.84
563.42	45677.90
563.59	45207.45
563.75	45586.61
563.92	45282.34
564.08	45177.02
564.24	45366.60
564.41	45713.00
564.57	45071.70
564.74	45312.77
564.90	45237.87
565.07	45839.39
565.23	45366.60
565.39	45200.43
565.56	45720.02
565.72	45193.40
565.88	45301.07
566.05	45205.11
566.21	45450.86
566.38	45228.51
566.54	45434.48
566.70	46017.27
566.87	45610.02
567.03	45680.24
567.19	45825.35
567.36	45869.82
567.52	45492.99
567.68	45670.87
567.85	45535.12
568.01	45610.02
568.17	45588.95
568.34	45694.28
568.50	45366.60
568.66	45474.27
568.83	45645.13
568.99	45385.33
569.15	45509.38
569.32	45666.19
569.48	45291.71
569.64	45612.36
569.81	45785.56
569.97	45935.35
570.13	45904.93
570.30	45029.57
570.46	45390.01
570.62	45251.92
570.78	45221.49
570.95	45059.99
571.11	45415.76
571.27	45537.46
571.43	45598.32
571.60	45621.72
571.76	45698.96
571.92	45830.03
572.09	46295.80
572.25	45933.01
572.41	46146.00
572.57	46087.49
572.74	46202.18
572.90	45862.80
573.06	46007.91
573.22	45851.09
573.38	45684.92
573.55	45848.75
573.71	45792.58
573.87	46389.42
574.03	45607.68
574.20	45834.71
574.36	45563.21
574.52	45874.50
574.68	45984.51
574.84	45811.31
575.01	45813.65
575.17	46075.79
575.33	45680.24
575.49	45411.07
575.65	45659.17
575.82	46192.81
575.98	46017.27
576.14	45769.18
576.30	45851.09
576.46	45783.22
576.62	45869.82
576.79	45727.05
576.95	45680.24
577.11	45787.90
577.27	45701.30
577.43	45507.04
577.59	45432.14
577.75	45825.35
577.92	45483.63
578.08	45495.33
578.24	45404.05
578.40	45818.33
578.56	45935.35
578.72	45642.79
578.88	45801.94
579.04	46171.75
579.21	45345.54
579.37	46054.72
579.53	45928.33
579.69	45944.72
579.85	45888.54
580.01	45698.96
580.17	45649.81
580.33	45715.34
580.49	45916.63
580.65	45404.05
580.82	45790.24
580.98	45661.51
581.14	45226.17
581.30	46026.63
581.46	45708.32
581.62	45642.79
581.78	45851.09
581.94	46541.55
582.10	45979.82
582.26	45874.50
582.42	45776.20
582.58	45656.83
582.74	45741.09
582.90	46122.60
583.06	46246.65
583.22	46024.29
583.38	46206.86
583.54	46061.74
583.70	45830.03
583.86	45565.55
584.02	46169.41
584.18	45797.26
584.34	45979.82
584.50	46092.17
584.66	46185.79
584.82	45954.08
584.98	46270.05
585.14	46120.26
585.30	45888.54
585.46	45488.31
585.62	45408.73
585.78	45832.37
585.94	45902.59
586.10	46052.38
586.26	45900.25
586.42	45921.31
586.58	46054.72
586.74	45909.61
586.90	45771.52
587.06	45834.71
587.22	45748.11
587.38	45989.19
587.54	46110.89
587.70	46071.10
587.86	46241.96
588.02	45900.25
588.18	45942.38
588.34	45715.34
588.49	45385.33
588.65	45170.00
588.81	45514.06
588.97	45518.74
589.13	45111.49
589.29	45610.02
589.45	45790.24
589.61	45628.74
589.77	46141.32
589.93	45942.38
590.08	45909.61
590.24	46536.87
590.40	46094.51
590.56	46260.69
590.72	46487.72
590.88	45890.88
591.04	46300.48
591.20	46380.06
591.35	46272.39
591.51	46408.14
591.67	46131.96
591.83	46082.81
591.99	45935.35
592.15	46113.23
592.31	46375.37
592.46	46574.32
592.62	46213.88
592.78	46092.17
592.94	46092.17
593.10	46181.11
593.26	46277.07
593.41	46141.32
593.57	45977.48
593.73	45909.61
593.89	46106.21
594.05	46302.82
594.20	46330.90
594.36	46110.89
594.52	46464.32
594.68	46050.04
594.84	46260.69
594.99	46174.09
595.15	45804.28
595.31	46295.80
595.47	46302.82
595.62	46019.61
595.78	46518.15
595.94	45930.67
596.10	46387.08
596.25	46387.08
596.41	46293.46
596.57	45811.31
596.73	46127.28
596.88	45970.46
597.04	45996.21
597.20	46169.41
597.36	45993.87
597.51	46674.96
597.67	46031.32
597.83	46057.06
597.99	46485.38
598.14	46342.61
598.30	46274.73
598.46	45811.31
598.61	46319.20
598.77	45869.82
598.93	45907.27
599.09	46197.49
599.24	46525.17
599.40	46162.39
599.56	46380.06
599.71	46089.83
599.87	46340.27
600.03	45991.53
600.18	46061.74
600.34	46103.87
600.50	45780.88
600.65	46057.06
600.81	46440.91
600.97	45975.14
601.12	46370.69
601.28	46167.07
601.44	45951.74
601.59	46134.30
601.75	46057.06
601.91	46277.07
602.06	45801.94
602.22	46155.36
602.37	46253.67
602.53	46548.57
602.69	46127.28
602.84	46057.06
603.00	45977.48
603.16	46307.50
603.31	45947.06
603.47	46026.63
603.62	46136.64
603.78	46237.28
603.94	45949.40
604.09	46270.05
604.25	45954.08
604.40	45595.98
604.56	45874.50
604.71	45989.19
604.87	46197.49
605.03	46071.10
605.18	45841.73
605.34	46043.02
605.49	45961.10
605.65	46167.07
605.80	45837.05
605.96	46003.23
606.12	45764.49
606.27	46050.04
606.43	45755.13
606.58	45675.55
606.74	45909.61
606.89	45780.88
607.05	45942.38
607.20	45972.80
607.36	45457.88
607.51	46017.27
607.67	45851.09
607.82	45806.62
607.98	46003.23
608.13	45848.75
608.29	45462.57
608.44	45502.35
608.60	45371.28
608.75	45523.42
608.91	45656.83
609.06	45228.51
609.22	45595.98
609.37	45741.09
609.53	45694.28
609.68	45500.01
609.84	45530.44
609.99	45315.11
610.15	45450.86
610.30	45387.67
610.46	45024.89
610.61	45345.54
610.76	45776.20
610.92	46024.29
611.07	45385.33
611.23	45673.21
611.38	45928.33
611.54	45034.25
611.69	45397.03
611.84	45076.38
612.00	44964.03
612.15	45212.13
612.31	45237.87
612.46	45254.26
612.62	45581.93
612.77	45221.49
612.92	45567.89
613.08	45188.72
613.23	45001.48
613.39	44589.55
613.54	44793.17
613.69	45174.68
613.85	44474.86
614.00	44945.31
614.15	44872.75
614.31	45104.46
614.46	45287.03
614.62	44762.75
614.77	45038.93
614.92	44706.57
615.08	44690.19
615.23	45048.29
615.38	44842.32
615.54	44189.31
615.69	44825.94
615.84	44678.49
616.00	44744.02
616.15	44989.78
616.30	44952.33
616.46	44931.26
616.61	44648.06
616.76	44320.38
616.92	44364.85
617.07	44629.34
617.22	44205.70
617.37	44554.44
617.53	44432.73
617.68	44540.39
617.83	44430.39
617.99	44715.93
618.14	44615.29
618.29	44123.78
618.45	44329.75
618.60	43915.47
618.75	44304.00
618.90	44175.27
619.06	44264.21
619.21	44254.85
619.36	44041.86
619.51	43999.73
619.67	43866.32
619.82	44219.74
619.97	44311.02
620.12	43704.82
620.28	43665.03
620.43	44025.48
620.58	44179.95
620.73	44060.58
620.89	43917.81
621.04	44194.00
621.19	44105.06
621.34	43962.28
621.49	43377.15
621.65	43674.40
621.80	43924.83
621.95	43665.03
622.10	43854.62
622.25	43863.98
622.41	43573.75
622.56	43299.91
622.71	43894.41
622.86	43744.61
623.01	43290.55
623.16	43592.48
623.32	43587.80
623.47	43814.83
623.62	43627.59
623.77	43533.96
623.92	43494.18
624.07	43400.55
624.23	43372.47
624.38	42927.77
624.53	43468.43
624.68	43143.09
624.83	43498.86
624.98	43302.25
625.13	42843.51
625.29	43306.93
625.44	42953.51
625.59	42967.55
625.74	42794.36
625.89	42756.91
626.04	42623.50
626.19	43098.62
626.34	43107.99
626.49	43442.68
626.65	42754.57
626.80	43243.74
626.95	42843.51
627.10	42445.62
627.25	42677.33
627.40	42871.59
627.55	42728.82
627.70	42103.90
627.85	42946.49
628.00	42763.93
628.15	42831.80
628.30	42415.19
628.45	42773.29
628.60	42586.05
628.76	42513.49
628.91	42373.06
629.06	42134.32
629.21	42059.43
629.36	42600.09
629.51	42038.36
629.66	42707.76
629.81	41918.99
629.96	42480.72
630.11	42316.89
630.26	42073.47
630.41	42286.46
630.56	42422.21
630.71	42045.38
630.86	42256.03
631.01	41785.58
631.16	41961.12
631.31	41383.01
631.46	41832.39
631.61	41874.52
631.76	41490.68
631.91	42094.53
632.06	41532.81
632.21	41858.14
632.36	41757.50
632.51	41757.50
632.66	41471.95
632.81	41530.47
632.96	41940.06
633.10	41844.10
633.25	41455.57
633.40	41507.06
633.55	41846.44
633.70	41532.81
633.85	41282.37
634.00	42033.68
634.15	41907.29
634.30	41486.00
634.45	41507.06
634.60	41151.30
634.75	40832.99
634.90	41420.46
635.05	41607.70
635.19	41296.41
635.34	41413.44
635.49	40940.65
635.64	40776.81
635.79	41010.87
635.94	40966.40
636.09	40832.99
636.24	40870.43
636.39	41111.51
636.53	40971.08
636.68	41097.47
636.83	40978.10
636.98	41144.28
637.13	41289.39
637.28	40957.03
637.43	41357.27
637.57	41062.36
637.72	40987.46
637.87	41230.88
638.02	41130.23
638.17	40793.20
638.32	40734.68
638.46	40449.14
638.61	40243.17
638.76	40467.86
638.91	40545.10
639.06	40903.20
639.20	40772.13
639.35	40856.39
639.50	40196.36
639.65	40397.65
639.80	40589.57
639.94	40514.67
640.09	39945.92
640.24	40088.70
640.39	40327.43
640.54	40339.13
640.68	40414.03
640.83	40264.24
640.98	40072.31
641.13	40107.42
641.27	40252.53
641.42	40165.93
641.57	39887.41
641.72	40299.34
641.86	40032.52
642.01	39625.27
642.16	40006.78
642.31	39613.57
642.45	40062.95
642.60	39634.63
642.75	39739.96
642.90	40025.50
643.04	39622.93
643.19	39828.90
643.34	40081.67
643.48	39798.47
643.63	40072.31
643.78	39849.96
643.93	39868.69
644.07	39365.47
644.22	39330.36
644.37	39536.33
644.51	39484.84
644.66	39761.02
644.81	39533.99
644.95	39945.92
645.10	39629.95
645.25	39777.40
645.39	39606.55
645.54	39552.71
645.69	38920.77
645.83	39285.89
645.98	39297.59
646.13	39243.76
646.27	38267.76
646.42	39035.45
646.57	39168.87
646.71	39161.84
646.86	39550.37
647.00	38873.96
647.15	39040.14
647.30	39669.74
647.44	38398.83
647.59	39159.50
647.74	38770.97
647.88	38766.29
648.03	38808.42
648.17	38803.74
648.32	38960.56
648.47	38852.89
648.61	38288.82
648.76	38621.18
648.90	38555.64
649.05	39033.11
649.20	38960.56
649.34	38794.38
649.49	38377.76
649.63	38878.64
649.78	38930.13
649.92	38368.40
650.07	38932.47
650.21	37869.87
650.36	38658.63
650.51	38447.98
650.65	38787.36
650.80	39236.74
650.94	38827.15
651.09	38728.84
651.23	38623.52
651.38	37848.80
651.52	37949.45
651.67	38120.31
651.81	38279.46
651.96	38036.05
652.10	38583.73
652.25	38092.22
652.39	38225.63
652.54	38213.93
652.68	38204.56
652.83	38426.92
652.97	38433.94
653.12	38345.00
653.26	37720.07
653.41	37944.76
653.55	38298.19
653.70	37890.93
653.84	37837.10
653.99	37448.57
654.13	37572.62
654.27	38024.34
654.42	37867.53
654.56	37645.18
654.71	37567.94
654.85	37811.35
655.00	37589.00
655.14	37441.55
655.29	37460.27
655.43	37546.87
655.57	36975.78
655.72	37109.19
655.86	37434.53
656.01	37001.53
656.15	36800.24
656.30	37146.64
656.44	37200.47
656.58	37233.24
656.73	37256.65
656.87	37221.54
657.01	36884.50
657.16	36744.07
657.30	36568.53
657.45	36950.04
657.59	36886.84
657.73	37277.71
657.88	37392.40
658.02	37308.14
658.16	37310.48
658.31	37092.81
658.45	37048.34
658.60	36837.69
658.74	37074.09
658.88	37027.28
659.03	36940.68
659.17	36690.24
659.31	36744.07
659.46	36381.29
659.60	36851.73
659.74	36488.95
659.89	36385.97
660.03	36486.61
660.17	37031.96
660.32	36655.13
660.46	36348.52
660.60	36275.96
660.74	35995.10
660.89	35903.82
661.03	35959.99
661.17	35997.44
661.32	36362.56
661.46	35950.63
661.60	36194.04
661.74	35866.37
661.89	35978.72
662.03	36128.51
662.17	35597.21
662.31	35821.90
662.46	36402.35
662.60	36210.43
662.74	35864.03
662.88	35887.43
663.03	35391.24
663.17	35360.81
663.31	35613.59
663.45	35416.99
663.60	35606.57
663.74	35552.74
663.88	35079.95
664.02	35166.55
664.17	35407.62
664.31	34827.17
664.45	34834.19
664.59	34941.86
664.73	34881.00
664.88	35264.85
665.02	34756.96
665.16	34820.15
665.30	34300.55
665.44	34600.14
665.59	34469.07
665.73	34670.36
665.87	34553.33
666.01	34574.39
666.15	34403.53
666.29	34649.29
666.44	34373.11
666.58	34586.10
666.72	34452.69
666.86	34333.32
667.00	34497.16
667.14	33607.75
667.28	34157.78
667.43	34066.50
667.57	34394.17
667.71	33825.42
667.85	34054.79
667.99	34213.95
668.13	34085.22
668.27	34117.99
668.41	34036.07
668.56	33706.05
668.70	33415.83
668.84	33259.01
668.98	33184.12
669.12	33317.53
669.26	33500.09
669.40	33141.99
669.54	33001.55
669.68	33167.73
669.82	33340.93
669.96	32926.66
670.10	32823.67
670.25	33146.67
670.39	32591.96
670.53	32851.76
670.67	32788.56
670.81	32863.46
670.95	32936.02
671.09	32802.61
671.23	32217.47
671.37	32430.46
671.51	32252.58
671.65	32208.11
671.79	32102.79
671.93	32252.58
672.07	31821.92
672.21	32226.84
672.35	32147.26
672.49	31779.79
672.63	31807.88
672.77	32109.81
672.91	31466.16
673.05	31655.75
673.19	31601.91
673.33	31173.60
673.47	31339.77
673.61	31211.04
673.75	31028.48
673.89	31124.44
674.03	31016.78
674.17	30916.14
674.31	31243.81
674.45	31264.88
674.59	31110.40
674.73	31405.31
674.87	31094.02
675.01	30761.66
675.15	30974.65
675.29	30515.90
675.43	30646.97
675.56	30504.20
675.70	30609.53
675.84	30733.57
675.98	29387.77
676.12	30199.93
676.26	30452.71
676.40	30099.29
676.54	30443.35
676.68	29895.66
676.82	29223.93
676.96	29661.61
677.10	30050.14
677.23	29961.20
677.37	29296.49
677.51	29448.62
677.65	29420.53
677.79	28613.05
677.93	28840.08
678.07	28933.70
678.21	28439.85
678.34	28687.95
678.48	28540.49
678.62	28505.38
678.76	28135.58
678.90	28261.97
679.04	28210.48
679.18	28175.37
679.31	27999.83
679.45	27960.04
679.59	27669.81
679.73	28098.13
679.87	27866.42
680.00	27915.57
680.14	27601.94
680.28	27438.10
680.42	27700.24
680.56	27819.61
680.70	27576.19
680.83	27087.02
680.97	26925.52
681.11	27082.34
681.25	26995.74
681.39	27019.14
681.52	26740.62
681.66	27047.23
681.80	26448.05
681.94	26422.31
682.07	26242.09
682.21	26169.53
682.35	26469.12
682.49	26359.11
682.62	25972.92
682.76	26005.69
682.90	25839.51
683.04	26092.29
683.17	25888.67
683.31	25961.22
683.45	25696.74
683.59	25809.09
683.72	25715.47
683.86	25776.32
684.00	25692.06
684.13	25355.02
684.27	25088.20
684.41	24819.04
684.55	25055.43
684.68	24854.15
684.82	24858.83
684.96	24741.80
685.09	24554.56
685.23	24339.23
685.37	24470.30
685.50	24711.38
685.64	24631.80
685.78	24114.54
685.91	24163.69
686.05	24100.50
686.19	23821.97
686.32	23445.15
686.46	23442.81
686.60	23047.26
686.73	23250.88
686.87	23154.92
687.01	23108.11
687.14	23080.02
687.28	22981.72
687.42	22808.52
687.55	22462.12
687.69	22572.13
687.82	23166.62
687.96	22728.94
688.10	22497.23
688.23	22738.30
688.37	22595.53
688.50	22326.37
688.64	22127.42
688.78	22530.00
688.91	22080.61
689.05	22010.40
689.18	21682.72
689.32	21649.96
689.46	22300.62
689.59	22333.39
689.73	22001.04
689.86	21717.83
690.00	21610.17
690.13	21476.76
690.27	21308.24
690.41	21312.92
690.54	21130.36
690.68	21305.90
690.81	21233.34
690.95	20954.82
691.08	21193.55
691.22	20964.18
691.35	20999.29
691.49	20912.69
691.62	20772.25
691.76	20678.63
691.89	20753.53
692.03	20365.00
692.16	20606.08
692.30	20262.02
692.43	20056.05
692.57	20072.43
692.70	19864.13
692.84	19974.13
692.97	19555.18
693.11	19655.82
693.24	19482.62
693.38	19520.07
693.51	19543.47
693.65	19665.18
693.78	19300.06
693.92	19286.01
694.05	19398.36
694.19	19358.57
694.32	19316.44
694.45	18867.06
694.59	19234.52
694.72	18925.57
694.86	18834.29
694.99	18679.82
695.13	18546.40
695.26	18637.69
695.39	18464.49
695.53	18515.98
695.66	18616.62
695.80	18618.96
695.93	18242.14
696.07	18185.96
696.20	17935.53
696.33	17942.55
696.47	18122.77
696.60	18010.42
696.73	17771.69
696.87	17652.32
697.00	17530.61
697.14	17619.55
697.27	17425.29
697.40	17109.32
697.54	17376.14
697.67	17280.18
697.80	17050.80
697.94	16952.50
698.07	17041.44
698.21	16655.25
698.34	17022.72
698.47	17224.00
698.61	16669.30
698.74	16819.09
698.87	16580.36
699.01	16400.13
699.14	16264.38
699.27	16285.45
699.40	16372.05
699.54	16397.79
699.67	15988.20
699.80	16093.52
699.94	16133.31
700.07	15693.29
700.20	16114.59
700.34	15995.22
700.47	15824.36
700.60	16093.52
700.73	15740.10
700.87	15637.12
701.00	15669.89
701.13	15623.08
701.26	15456.90
701.40	15023.90
701.53	15248.59
701.66	15028.58
701.79	14796.87
701.93	14764.10
702.06	14927.94
702.19	14766.44
702.32	14686.86
702.46	14780.48
702.59	14927.94
702.72	14714.95
702.85	14820.27
702.99	14520.68
703.12	14506.64
703.25	14324.08
703.38	14321.74
703.51	14223.44
703.65	14204.71
703.78	13832.57
703.91	13846.61
704.04	13994.06
704.17	13720.22
704.31	13675.75
704.44	13715.54
704.57	13598.51
704.70	13476.80
704.83	13528.30
704.96	13797.46
705.10	13474.46
705.23	13195.94
>>>>>End Processed Spectral Data<<<<<
