SpectraSuite Data File
++++++++++++++++++++++++++++++++++++
Date: Fri Oct 25 11:34:23 EDT 2013
User: price-jones
Dark Spectrum Present: No
Reference Spectrum Present: No
Number of Sampled Component Spectra: 1
Spectrometers: USB2+H05261
Integration Time (usec): 100000 (USB2+H05261)
Spectra Averaged: 1 (USB2+H05261)
Boxcar Smoothing: 0 (USB2+H05261)
Correct for Electrical Dark: No (USB2+H05261)
Strobe/Lamp Enabled: No (USB2+H05261)
Correct for Detector Non-linearity: No (USB2+H05261)
Correct for Stray Light: No (USB2+H05261)
Number of Pixels in Processed Spectrum: 2048
>>>>>Begin Processed Spectral Data<<<<<
365.73	301.93
365.92	301.93
366.12	301.93
366.32	201.29
366.52	187.24
366.72	156.82
366.91	161.50
367.11	222.35
367.31	145.11
367.51	168.52
367.70	168.52
367.90	224.69
368.10	222.35
368.30	168.52
368.49	175.54
368.69	203.63
368.89	201.29
369.09	229.37
369.28	238.73
369.48	243.42
369.68	229.37
369.87	241.08
370.07	250.44
370.27	264.48
370.47	381.51
370.66	461.09
370.86	500.87
371.06	528.96
371.25	589.82
371.45	559.39
371.65	617.90
371.84	667.05
372.04	496.19
372.24	517.26
372.44	547.69
372.63	620.24
372.83	578.11
373.03	582.79
373.22	582.79
373.42	599.18
373.62	606.20
373.81	575.77
374.01	624.92
374.21	685.78
374.40	610.88
374.60	690.46
374.79	608.54
374.99	641.31
375.19	720.88
375.38	655.35
375.58	620.24
375.78	716.20
375.97	629.60
376.17	645.99
376.37	685.78
376.56	660.03
376.76	681.10
376.95	610.88
377.15	720.88
377.35	662.37
377.54	664.71
377.74	620.24
377.93	660.03
378.13	690.46
378.33	727.91
378.52	702.16
378.72	732.59
378.91	753.65
379.11	723.23
379.31	692.80
379.50	716.20
379.70	784.08
379.89	727.91
380.09	636.63
380.28	739.61
380.48	763.01
380.68	753.65
380.87	697.48
381.07	676.41
381.26	704.50
381.46	690.46
381.65	760.67
381.85	737.27
382.04	676.41
382.24	786.42
382.43	734.93
382.63	779.40
382.83	786.42
383.02	793.44
383.22	791.10
383.41	760.67
383.61	807.48
383.80	882.38
384.00	847.27
384.19	866.00
384.39	858.98
384.58	840.25
384.78	833.23
384.97	779.40
385.17	875.36
385.36	842.59
385.56	924.51
385.75	929.19
385.95	802.80
386.14	868.34
386.34	837.91
386.53	910.47
386.72	854.30
386.92	924.51
387.11	842.59
387.31	936.21
387.50	866.00
387.70	887.06
387.89	894.08
388.09	858.98
388.28	884.72
388.48	901.11
388.67	943.24
388.86	875.36
389.06	875.36
389.25	1022.81
389.45	940.90
389.64	987.71
389.84	1015.79
390.03	954.94
390.22	959.62
390.42	875.36
390.61	957.28
390.81	1034.52
391.00	987.71
391.19	1015.79
391.39	1020.47
391.58	1034.52
391.78	985.37
391.97	1032.18
392.16	943.24
392.36	1006.43
392.55	1029.84
392.75	1022.81
392.94	992.39
393.13	1020.47
393.33	994.73
393.52	1027.50
393.71	1088.35
393.91	1146.86
394.10	1118.78
394.29	1064.94
394.49	1078.99
394.68	1118.78
394.88	1125.80
395.07	1109.41
395.26	1132.82
395.46	1163.25
395.65	1146.86
395.84	1160.91
396.04	1231.12
396.23	1142.18
396.42	1062.60
396.62	1261.55
396.81	1233.46
397.00	1198.35
397.19	1219.42
397.39	1214.74
397.58	1231.12
397.77	1184.31
397.97	1186.65
398.16	1303.68
398.35	1231.12
398.55	1268.57
398.74	1228.78
398.93	1329.42
399.12	1289.64
399.32	1240.48
399.51	1235.80
399.70	1327.08
399.90	1273.25
400.09	1362.19
400.28	1441.77
400.47	1299.00
400.67	1345.81
400.86	1329.42
401.05	1357.51
401.24	1366.87
401.44	1362.19
401.63	1357.51
401.82	1427.73
402.01	1460.49
402.21	1451.13
402.40	1460.49
402.59	1504.96
402.78	1509.65
402.97	1474.54
403.17	1427.73
403.36	1521.35
403.55	1598.59
403.74	1493.26
403.93	1607.95
404.13	1488.58
404.32	1586.88
404.51	1547.09
404.70	1591.56
404.89	1547.09
405.09	1621.99
405.28	1654.76
405.47	1680.50
405.66	1617.31
405.85	1673.48
406.05	1624.33
406.24	1636.03
406.43	1685.19
406.62	1746.04
406.81	1722.63
407.00	1760.08
407.20	1710.93
407.39	1685.19
407.58	1792.85
407.77	1837.32
407.96	1762.42
408.15	1804.55
408.34	1757.74
408.54	1846.68
408.73	1809.23
408.92	1811.57
409.11	1921.58
409.30	1977.75
409.49	1849.02
409.68	1954.35
409.87	1994.14
410.07	2001.16
410.26	1977.75
410.45	1982.43
410.64	1982.43
410.83	2026.90
411.02	2078.40
411.21	2155.63
411.40	2092.44
411.59	2157.97
411.78	2043.29
411.98	2017.54
412.17	2108.82
412.36	2200.10
412.55	2251.60
412.74	2310.11
412.93	2328.83
413.12	2251.60
413.31	2382.67
413.50	2373.30
413.69	2284.36
413.88	2422.45
414.07	2333.51
414.26	2427.14
414.45	2399.05
414.64	2389.69
414.83	2509.05
415.02	2558.21
415.22	2579.27
415.41	2626.08
415.60	2506.71
415.79	2546.50
415.98	2686.94
416.17	2679.91
416.36	2651.83
416.55	2731.41
416.74	2792.26
416.93	2736.09
417.12	2715.02
417.31	2822.69
417.50	2768.85
417.69	2818.00
417.88	2818.00
418.07	2904.60
418.26	2925.67
418.45	2836.73
418.64	3016.95
418.83	2965.46
419.02	2942.05
419.21	2958.44
419.39	2998.23
419.58	3026.31
419.77	2935.03
419.96	3075.46
420.15	2913.97
420.34	2995.89
420.53	2977.16
420.72	3028.65
420.91	3136.32
421.10	3014.61
421.29	3173.77
421.48	3084.83
421.67	3194.83
421.86	3131.64
422.05	3190.15
422.24	3276.75
422.43	3344.63
422.61	3124.62
422.80	3276.75
422.99	3311.86
423.18	3377.39
423.37	3330.58
423.56	3372.71
423.75	3164.40
423.94	3365.69
424.13	3059.08
424.32	3141.00
424.50	3461.65
424.69	3309.52
424.88	3412.50
425.07	3304.84
425.26	3309.52
425.45	3251.00
425.64	3236.96
425.83	3332.92
426.01	3368.03
426.20	3361.01
426.39	3389.10
426.58	3276.75
426.77	3349.31
426.96	3454.63
427.15	3332.92
427.33	3379.73
427.52	3431.23
427.71	3522.51
427.90	3564.64
428.09	3534.21
428.28	3534.21
428.46	3522.51
428.65	3693.37
428.84	3763.58
429.03	3676.98
429.22	3520.17
429.40	3662.94
429.59	3765.92
429.78	3449.95
429.97	3454.63
430.16	3747.20
430.34	3735.50
430.53	3770.60
430.72	3836.14
430.91	3569.32
431.10	3824.44
431.28	3805.71
431.47	3845.50
431.66	3967.21
431.85	3899.33
432.03	4067.85
432.22	4098.28
432.41	3901.67
432.60	3918.06
432.79	3913.38
432.97	3971.89
433.16	4128.70
433.35	4011.68
433.54	3950.82
433.72	3983.59
433.91	3969.55
434.10	4100.62
434.28	4053.81
434.47	4016.36
434.66	4149.77
434.85	4283.18
435.03	4264.46
435.22	4121.68
435.41	4250.41
435.59	4234.03
435.78	4269.14
435.97	4107.64
436.16	4180.20
436.34	4243.39
436.53	4329.99
436.72	4395.53
436.90	4264.46
437.09	4407.23
437.28	4355.74
437.46	4472.76
437.65	4428.29
437.84	4542.98
438.02	4381.48
438.21	4444.68
438.40	4517.23
438.58	4643.62
438.77	4669.37
438.96	4533.62
439.14	4699.80
439.33	4784.06
439.52	4823.84
439.70	4805.12
439.89	4905.76
440.08	4833.21
440.26	4732.56
440.45	4884.70
440.63	4985.34
440.82	4990.02
441.01	4945.55
441.19	4947.89
441.38	5018.11
441.57	5179.61
441.75	5107.05
441.94	5128.11
442.12	5266.21
442.31	5266.21
442.50	5221.74
442.68	5144.50
442.87	5483.88
443.05	5191.31
443.24	5394.93
443.43	5336.42
443.61	5289.61
443.80	5533.03
443.98	5280.25
444.17	5191.31
444.35	5331.74
444.54	5430.04
444.73	5390.25
444.91	5448.77
445.10	5472.17
445.28	5448.77
445.47	5516.64
445.65	5423.02
445.84	5472.17
446.02	5633.67
446.21	5631.33
446.39	5565.79
446.58	5671.12
446.77	5479.19
446.95	5565.79
447.14	5535.37
447.32	5479.19
447.51	5640.69
447.69	5523.66
447.88	5621.97
448.06	5591.54
448.25	5561.11
448.43	5568.13
448.62	5593.88
448.80	5537.71
448.99	5636.01
449.17	5699.20
449.36	5661.76
449.54	5689.84
449.73	5891.13
449.91	5973.05
450.10	5776.44
450.28	6024.54
450.46	5685.16
450.65	5799.85
450.83	5834.96
451.02	5973.05
451.20	5839.64
451.39	5982.41
451.57	5968.37
451.76	5949.64
451.94	5949.64
452.13	6120.50
452.31	6069.01
452.49	5841.98
452.68	6106.46
452.86	6022.20
453.05	6080.71
453.23	6190.72
453.42	6232.85
453.60	6090.07
453.78	6279.66
453.97	6286.68
454.15	6141.57
454.34	6171.99
454.52	6190.72
454.70	6317.11
454.89	6382.64
455.07	6333.49
455.26	6244.55
455.44	6408.39
455.62	6504.35
455.81	6420.09
455.99	6581.59
456.17	6689.25
456.36	6527.75
456.54	6560.52
456.73	6551.16
456.91	6890.54
457.09	6651.80
457.28	6766.49
457.46	6647.12
457.64	6602.65
457.83	6888.20
458.01	6715.00
458.19	6780.53
458.38	6841.39
458.56	6913.94
458.74	6977.14
458.93	6860.11
459.11	7056.72
459.29	7063.74
459.48	6963.09
459.66	7019.27
459.84	7101.19
460.03	7162.04
460.21	7321.20
460.39	7166.72
460.57	7054.37
460.76	7080.12
460.94	7159.70
461.12	7316.51
461.31	7293.11
461.49	7052.03
461.67	7215.87
461.85	7288.43
462.04	7428.86
462.22	7747.17
462.40	7499.08
462.59	7302.47
462.77	7307.15
462.95	7543.55
463.13	7548.23
463.32	7353.96
463.50	7499.08
463.68	7679.30
463.86	7604.40
464.05	7562.27
464.23	7637.17
464.41	7630.15
464.59	7370.35
464.78	7712.07
464.96	7705.04
465.14	7742.49
465.32	7655.89
465.50	7920.37
465.69	7836.11
465.87	8035.06
466.05	7754.19
466.23	7866.54
466.41	7922.71
466.60	8182.51
466.78	7826.75
466.96	7831.43
467.14	7866.54
467.32	8116.98
467.51	8114.64
467.69	7831.43
467.87	8056.12
468.05	7911.01
468.23	8009.31
468.41	7992.93
468.60	7929.74
468.78	8397.84
468.96	8079.53
469.14	8264.43
469.32	8290.18
469.50	8329.97
469.69	8358.05
469.87	8395.50
470.05	8397.84
470.23	8486.78
470.41	8390.82
470.59	8571.04
470.77	8606.15
470.95	8662.32
471.14	8683.39
471.32	8521.89
471.50	8812.12
471.68	8798.07
471.86	8613.17
472.04	8685.73
472.22	9011.06
472.40	8872.97
472.58	8732.54
472.77	8898.72
472.95	8978.30
473.13	9067.24
473.31	8947.87
473.49	9060.21
473.67	8992.34
473.85	9233.41
474.03	9441.72
474.21	9207.67
474.39	9357.46
474.57	9345.76
474.75	9614.92
474.93	9467.47
475.12	9565.77
475.30	9692.16
475.48	9458.10
475.66	9713.22
475.84	9984.73
476.02	9930.89
476.20	9771.74
476.38	10054.94
476.56	10043.24
476.74	10225.80
476.92	10293.68
477.10	10040.90
477.28	10153.24
477.46	10422.41
477.64	10307.72
477.82	10396.66
478.00	10710.29
478.18	10672.84
478.36	10785.19
478.54	10916.26
478.72	10918.60
478.90	11007.54
479.08	11239.25
479.26	11211.17
479.44	11304.79
479.62	11407.77
479.80	11398.41
479.98	11403.09
480.16	11915.67
480.34	11782.26
480.52	11873.54
480.70	11901.62
480.88	11742.47
481.06	12016.31
481.24	11976.52
481.41	12149.72
481.59	12526.55
481.77	12292.49
481.95	12505.48
482.13	12685.70
482.31	12571.02
482.49	12634.21
482.67	13081.25
482.85	12828.48
483.03	13235.73
483.21	13202.96
483.39	13394.89
483.57	13291.90
483.74	13413.61
483.92	13542.34
484.10	13610.22
484.28	13834.91
484.46	13947.25
484.64	14382.59
484.82	14167.26
485.00	14019.81
485.18	14335.78
485.35	14541.75
485.53	14553.45
485.71	14445.79
485.89	14684.52
486.07	14771.12
486.25	14827.29
486.43	14988.79
486.61	15169.01
486.78	15452.22
486.96	15304.76
487.14	15515.41
487.32	15571.58
487.50	15807.98
487.68	15805.64
487.85	15913.30
488.03	16035.01
488.21	16346.30
488.39	16327.58
488.57	16486.73
488.75	16568.65
488.92	16798.02
489.10	16926.75
489.28	17053.14
489.46	17116.34
489.64	17163.15
489.81	17568.06
489.99	17277.83
490.17	17575.08
490.35	17507.21
490.53	17912.12
490.70	18113.41
490.88	18162.56
491.06	18382.57
491.24	18338.10
491.41	18284.26
491.59	18155.54
491.77	18363.84
491.95	18661.09
492.13	18845.99
492.30	19084.73
492.48	18909.19
492.66	19044.94
492.84	19295.38
493.01	19562.20
493.19	19414.74
493.37	19601.99
493.54	19618.37
493.72	20018.60
493.90	19702.63
494.08	20079.46
494.25	20084.14
494.43	20086.48
494.61	20194.14
494.79	20365.00
494.96	20526.50
495.14	20755.87
495.32	20809.70
495.49	20620.12
495.67	21099.93
495.85	20816.72
496.02	21050.78
496.20	21404.20
496.38	21422.92
496.55	21553.99
496.73	21919.12
496.91	21715.49
497.09	22059.55
497.26	22375.52
497.44	21774.00
497.62	22300.62
497.79	22616.60
497.97	22298.28
498.14	22799.16
498.32	22403.61
498.50	22955.97
498.67	22778.09
498.85	23000.44
499.03	23084.70
499.20	23154.92
499.38	23335.14
499.56	23288.33
499.73	23625.37
499.91	23580.90
500.08	23737.71
500.26	23604.30
500.44	23569.19
500.61	23941.34
500.79	23894.53
500.97	24271.36
501.14	24140.29
501.32	24254.97
501.49	24343.91
501.67	24566.26
501.84	24512.43
502.02	24322.85
502.20	24704.35
502.37	24748.82
502.55	24807.34
502.72	24776.91
502.90	24893.94
503.07	24856.49
503.25	25198.21
503.43	24992.24
503.60	24821.38
503.78	25378.43
503.95	25413.54
504.13	25535.24
504.30	25738.87
504.48	25652.27
504.65	25883.98
504.83	26019.74
505.01	25986.97
505.18	26120.38
505.36	26064.21
505.53	26047.82
505.71	26429.33
505.88	26375.50
506.06	26141.44
506.23	26506.57
506.41	26391.88
506.58	26579.12
506.76	26974.67
506.93	26824.88
507.11	26796.79
507.28	27040.21
507.46	27164.26
507.63	27335.12
507.81	27339.80
507.98	27122.13
508.16	27419.38
508.33	27744.71
508.50	27676.83
508.68	27711.94
508.85	28290.06
509.03	27667.47
509.20	28074.73
509.38	28332.18
509.55	28037.28
509.73	28154.30
509.90	28348.57
510.08	28374.31
510.25	28486.66
510.42	28542.83
510.60	28819.02
510.77	28870.51
510.95	28542.83
511.12	28992.22
511.30	29212.23
511.47	28959.45
511.64	28975.83
511.82	29027.32
511.99	29064.77
512.17	29200.52
512.34	29041.37
512.51	29603.10
512.69	29895.66
512.86	29764.59
513.04	29764.59
513.21	29844.17
513.38	30005.67
513.56	30057.16
513.73	29656.93
513.90	30036.09
514.08	30099.29
514.25	30237.38
514.43	30213.98
514.60	30286.53
514.77	30553.35
514.95	30670.38
515.12	30555.69
515.29	30745.28
515.47	30581.44
515.64	31285.94
515.81	30621.23
515.99	31171.25
516.16	31171.25
516.33	31054.23
516.51	31473.18
516.68	31065.93
516.85	31072.95
517.03	31206.36
517.20	31604.25
517.37	31456.80
517.54	31473.18
517.72	31435.74
517.89	31632.34
518.06	31576.17
518.24	31857.03
518.41	31910.86
518.58	32020.87
518.75	31805.54
518.93	31887.46
519.10	31882.78
519.27	32341.52
519.45	32257.26
519.62	32603.66
519.79	32273.65
519.96	32589.62
520.14	32566.21
520.31	32840.06
520.48	32294.71
520.65	32430.46
520.83	33141.99
521.00	33158.37
521.17	33369.02
521.34	32952.40
521.52	33036.66
521.69	33369.02
521.86	33280.08
522.03	33638.18
522.20	33481.36
522.38	33582.01
522.55	33736.48
522.72	33600.73
522.89	34022.03
523.07	34338.00
523.24	33954.15
523.41	33872.23
523.58	33919.04
523.75	34279.49
523.92	34160.12
524.10	34099.26
524.27	34125.01
524.44	34274.80
524.61	34220.97
524.78	34583.76
524.96	34649.29
525.13	34387.15
525.30	35058.88
525.47	34724.19
525.64	34831.85
525.81	34976.97
525.98	35035.48
526.16	34817.81
526.33	34932.50
526.50	34946.54
526.67	35168.89
526.84	35412.31
527.01	35211.02
527.18	35393.58
527.36	35358.47
527.53	35711.89
527.70	35709.55
527.87	35541.03
528.04	35501.25
528.21	35480.18
528.38	35800.83
528.55	36039.57
528.72	35686.15
528.89	35810.20
529.07	35716.58
529.24	35796.15
529.41	35922.54
529.58	36034.89
529.75	36201.07
529.92	36046.59
530.09	36018.50
530.26	36392.99
530.43	36519.38
530.60	35896.80
530.77	36100.42
530.94	36290.01
531.11	36332.14
531.28	36657.47
531.46	36287.67
531.63	36645.77
531.80	36594.28
531.97	36652.79
532.14	36460.87
532.31	36849.39
532.48	36996.85
532.65	37254.31
532.82	36751.09
532.99	37174.73
533.16	36797.90
533.33	37289.42
533.50	37233.24
533.67	37441.55
533.84	36802.58
534.01	37429.85
534.18	37038.98
534.35	38075.84
534.52	37904.98
534.69	37942.42
534.86	37504.74
535.03	37734.12
535.20	37713.05
535.37	37909.66
535.54	38197.54
535.71	37853.48
535.88	38171.80
536.05	38146.05
536.22	38417.55
536.38	38300.53
536.55	38359.04
536.72	38504.15
536.89	38623.52
537.06	37904.98
537.23	38490.11
537.40	38213.93
537.57	38773.31
537.74	38665.65
537.91	39042.48
538.08	38670.33
538.25	38696.08
538.42	38728.84
538.59	38869.28
538.75	38646.93
538.92	39063.54
539.09	38965.24
539.26	38930.13
539.43	38916.09
539.60	39346.75
539.77	39210.99
539.94	39295.25
540.11	39328.02
540.28	39456.75
540.44	39068.22
540.61	38810.76
540.78	38794.38
540.95	39662.72
541.12	39126.74
541.29	39632.29
541.46	39772.72
541.62	39533.99
541.79	39999.76
541.96	38937.15
542.13	39267.17
542.30	39545.69
542.47	39842.94
542.63	39459.09
542.80	39728.25
542.97	40163.59
543.14	40294.66
543.31	40287.64
543.48	39772.72
543.64	41251.94
543.81	40346.15
543.98	40631.70
544.15	40320.41
544.32	40896.18
544.48	40882.14
544.65	40456.16
544.82	41106.83
544.99	40432.75
545.16	40631.70
545.32	40774.47
545.49	40980.44
545.66	41045.97
545.83	40872.78
546.00	40985.12
546.16	41205.13
546.33	41020.23
546.50	40877.46
546.67	41404.08
546.83	40779.15
547.00	40971.08
547.17	40931.29
547.34	41010.87
547.50	41163.00
547.67	41698.98
547.84	41310.46
548.00	40917.25
548.17	41977.51
548.34	41546.85
548.51	41689.62
548.67	41736.43
548.84	41876.86
549.01	41303.43
549.18	41656.85
549.34	41392.37
549.51	42014.96
549.68	41626.43
549.84	41687.28
550.01	42197.52
550.18	41675.58
550.34	42143.69
550.51	41937.72
550.68	42010.28
550.84	41593.66
551.01	42492.43
551.18	41743.45
551.34	41888.57
551.51	42380.08
551.68	42277.10
551.84	42136.66
552.01	42047.72
552.18	42597.75
552.34	41675.58
552.51	42586.05
552.68	42550.94
552.84	42426.89
553.01	42464.34
553.18	42511.15
553.34	42567.32
553.51	42787.33
553.67	42618.81
553.84	42597.75
554.01	42717.12
554.17	42763.93
554.34	42986.28
554.51	42686.69
554.67	42960.53
554.84	43112.67
555.00	43005.00
555.17	42955.85
555.33	43126.71
555.50	43339.70
555.67	42852.87
555.83	43110.33
556.00	42880.95
556.16	43545.67
556.33	43377.15
556.50	43381.83
556.66	43061.18
556.83	42967.55
556.99	43353.74
557.16	43889.73
557.32	43709.50
557.49	43419.28
557.65	43093.94
557.82	43271.82
557.98	43517.58
558.15	43697.80
558.32	43248.42
558.48	43173.52
558.65	43526.94
558.81	43732.91
558.98	43508.22
559.14	43765.68
559.31	43445.02
559.47	43597.16
559.64	43648.65
559.80	43700.14
559.97	43681.42
560.13	43356.08
560.30	43756.32
560.46	43779.72
560.63	43901.43
560.79	44418.69
560.96	43969.30
561.12	43952.92
561.29	43871.00
561.45	44428.05
561.61	43641.63
561.78	44194.00
561.94	44177.61
562.11	44404.64
562.27	44311.02
562.44	44329.75
562.60	44287.62
562.77	44306.34
562.93	44067.61
563.10	44437.41
563.26	43976.33
563.42	44631.68
563.59	44144.84
563.75	44392.94
563.92	44013.77
564.08	44308.68
564.24	44502.95
564.41	44425.71
564.57	44278.25
564.74	44451.45
564.90	44339.11
565.07	44439.75
565.23	44385.92
565.39	44266.55
565.56	44612.95
565.72	44601.25
565.88	44329.75
566.05	44568.48
566.21	44706.57
566.38	44339.11
566.54	44472.52
566.70	44615.29
566.87	44751.04
567.03	44652.74
567.19	44767.43
567.36	45036.59
567.52	44741.68
567.68	44935.95
567.85	44732.32
568.01	44961.69
568.17	44802.53
568.34	44830.62
568.50	44154.21
568.66	44718.28
568.83	44720.62
568.99	44509.97
569.15	44687.85
569.32	44964.03
569.48	44601.25
569.64	45085.74
569.81	44701.89
569.97	45123.19
570.13	45373.63
570.30	44608.27
570.46	44898.50
570.62	44905.52
570.78	45303.41
570.95	45081.06
571.11	45155.96
571.27	44854.03
571.43	44889.13
571.60	44893.82
571.76	44968.71
571.92	44725.30
572.09	45158.30
572.25	44767.43
572.41	44765.09
572.57	45464.91
572.74	45303.41
572.90	45308.09
573.06	45195.74
573.22	45448.52
573.38	45581.93
573.55	45207.45
573.71	45574.91
573.87	45464.91
574.03	45350.22
574.20	45446.18
574.36	45064.67
574.52	45354.90
574.68	45804.28
574.84	45340.86
575.01	45914.29
575.17	45696.62
575.33	45294.05
575.49	45268.30
575.65	45507.04
575.82	45226.17
575.98	45158.30
576.14	45567.89
576.30	45893.22
576.46	45219.15
576.62	45181.70
576.79	45581.93
576.95	45249.58
577.11	45127.87
577.27	45734.07
577.43	45392.35
577.59	45614.70
577.75	45324.47
577.92	44814.24
578.08	45069.36
578.24	45633.42
578.40	45574.91
578.56	45497.67
578.72	45827.69
578.88	45530.44
579.04	45518.74
579.21	45294.05
579.37	45507.04
579.53	45757.47
579.69	45415.76
579.85	45329.16
580.01	45656.83
580.17	45141.91
580.33	45364.26
580.49	45619.38
580.65	45713.00
580.82	45696.62
580.98	45235.53
581.14	45184.04
581.30	45656.83
581.46	45567.89
581.62	45064.67
581.78	45158.30
581.94	45593.64
582.10	45626.40
582.26	45982.16
582.42	44975.73
582.58	45729.39
582.74	46012.59
582.90	45268.30
583.06	45984.51
583.22	45904.93
583.38	45558.53
583.54	45799.60
583.70	45221.49
583.86	45879.18
584.02	45336.18
584.18	46124.94
584.34	45876.84
584.50	45949.40
584.66	45956.42
584.82	45633.42
584.98	46117.92
585.14	46141.32
585.30	45572.57
585.46	45724.71
585.62	45928.33
585.78	45628.74
585.94	45640.45
586.10	45668.53
586.26	45549.17
586.42	45553.85
586.58	45799.60
586.74	46061.74
586.90	45474.27
587.06	45694.28
587.22	45617.04
587.38	45544.48
587.54	46033.66
587.70	45998.55
587.86	45874.50
588.02	46162.39
588.18	45984.51
588.34	46021.95
588.49	45972.80
588.65	45680.24
588.81	45792.58
588.97	45893.22
589.13	45603.00
589.29	45804.28
589.45	46253.67
589.61	46047.70
589.77	46045.36
589.93	45851.09
590.08	46188.13
590.24	46061.74
590.40	46539.21
590.56	46024.29
590.72	46710.07
590.88	46103.87
591.04	45874.50
591.20	46143.66
591.35	46351.97
591.51	46312.18
591.67	46419.84
591.83	46548.57
591.99	46239.62
592.15	45918.97
592.31	45869.82
592.46	46148.34
592.62	46150.68
592.78	46309.84
592.94	46571.98
593.10	46253.67
593.26	46157.70
593.41	46384.74
593.57	46644.54
593.73	45970.46
593.89	46768.58
594.05	46473.68
594.20	46396.44
594.36	46878.59
594.52	46389.42
594.68	46532.19
594.84	46113.23
594.99	46562.62
595.15	46424.53
595.31	46061.74
595.47	46869.23
595.62	46146.00
595.78	46614.11
595.94	46155.36
596.10	46349.63
596.25	46337.93
596.41	46274.73
596.57	46223.24
596.73	46791.99
596.88	46550.91
597.04	46321.54
597.20	46571.98
597.36	46490.06
597.51	46431.55
597.67	46665.60
597.83	46417.50
597.99	46534.53
598.14	46270.05
598.30	46391.76
598.46	46454.95
598.61	46653.90
598.77	46295.80
598.93	46864.55
599.09	46389.42
599.24	47063.49
599.40	46857.52
599.56	46368.35
599.71	46775.61
599.87	47023.70
600.03	46967.53
600.18	46834.12
600.34	46447.93
600.50	46829.44
600.65	46366.01
600.81	46878.59
600.97	47112.64
601.12	46913.70
601.28	46366.01
601.44	46471.34
601.59	46167.07
601.75	46806.03
601.91	46897.31
602.06	46436.23
602.22	46972.21
602.37	46710.07
602.53	46366.01
602.69	46405.80
602.84	46366.01
603.00	46609.43
603.16	46131.96
603.31	46747.52
603.47	46504.10
603.62	46681.98
603.78	46457.29
603.94	46602.41
604.09	47124.35
604.25	46574.32
604.40	46625.81
604.56	46569.64
604.71	46796.67
604.87	46525.17
605.03	46597.73
605.18	46728.80
605.34	46794.33
605.49	46366.01
605.65	46782.63
605.80	46157.70
605.96	46539.21
606.12	46314.52
606.27	46660.92
606.43	46480.70
606.58	46866.89
606.74	46506.44
606.89	46377.72
607.05	46396.44
607.20	46731.14
607.36	46424.53
607.51	46686.67
607.67	46370.69
607.82	46710.07
607.98	46464.32
608.13	46178.77
608.29	46581.34
608.44	46522.83
608.60	46356.65
608.75	46714.75
608.91	46363.67
609.06	46202.18
609.22	46590.70
609.37	46419.84
609.53	46309.84
609.68	46316.86
609.84	46766.24
609.99	46251.33
610.15	46581.34
610.30	46031.32
610.46	46321.54
610.61	46522.83
610.76	46674.96
610.92	45846.41
611.07	46134.30
611.23	46078.13
611.38	45991.53
611.54	46211.54
611.69	46220.90
611.84	46122.60
612.00	46064.08
612.15	45619.38
612.31	46305.16
612.46	45876.84
612.62	46061.74
612.77	46256.01
612.92	46733.48
613.08	46141.32
613.23	46232.60
613.39	46181.11
613.54	45722.37
613.69	46192.81
613.85	46071.10
614.00	45813.65
614.15	46120.26
614.31	45942.38
614.46	45944.72
614.62	45804.28
614.77	46141.32
614.92	45759.81
615.08	46244.30
615.23	46075.79
615.38	46012.59
615.54	46064.08
615.69	46204.52
615.84	45991.53
616.00	46204.52
616.15	46101.53
616.30	46073.45
616.46	45951.74
616.61	46066.42
616.76	45724.71
616.92	45762.15
617.07	45764.49
617.22	45551.51
617.37	45518.74
617.53	45989.19
617.68	45483.63
617.83	45729.39
617.99	46003.23
618.14	45560.87
618.29	45167.66
618.45	45317.45
618.60	45507.04
618.75	45055.31
618.90	45179.36
619.06	45294.05
619.21	45553.85
619.36	45303.41
619.51	45160.64
619.67	45469.59
619.82	45202.77
619.97	45628.74
620.12	44863.39
620.28	45460.23
620.43	45249.58
620.58	45368.94
620.73	45200.43
620.89	45666.19
621.04	45420.44
621.19	45184.04
621.34	45170.00
621.49	45078.72
621.65	45345.54
621.80	45315.11
621.95	45338.52
622.10	45584.27
622.25	45471.93
622.41	45165.32
622.56	44856.37
622.71	45181.70
622.86	45336.18
623.01	45113.83
623.16	44818.92
623.32	44844.66
623.47	45118.51
623.62	44811.90
623.77	44615.29
623.92	45008.50
624.07	44622.31
624.23	44978.07
624.38	44732.32
624.53	44697.21
624.68	44605.93
624.83	45036.59
624.98	44903.18
625.13	44051.22
625.29	44289.96
625.44	44708.91
625.59	44804.88
625.74	44259.53
625.89	44467.84
626.04	44425.71
626.19	44086.33
626.34	44020.80
626.49	44327.41
626.65	44264.21
626.80	44334.43
626.95	43962.28
627.10	44009.09
627.25	44493.58
627.40	44051.22
627.55	43971.64
627.70	44463.16
627.85	44371.88
628.00	44137.82
628.15	43831.21
628.30	44051.22
628.45	43845.26
628.60	43896.75
628.76	43540.99
628.91	43543.33
629.06	43718.87
629.21	43985.69
629.36	43910.79
629.51	43981.01
629.66	43868.66
629.81	43693.12
629.96	43681.42
630.11	43831.21
630.26	43615.88
630.41	43861.64
630.56	43924.83
630.71	43667.37
630.86	43613.54
631.01	43213.31
631.16	43770.36
631.31	43519.92
631.46	43753.97
631.61	43653.33
631.76	44055.90
631.91	43477.79
632.06	44355.49
632.21	43597.16
632.36	44023.14
632.51	43447.36
632.66	43641.63
632.81	43655.67
632.96	43292.89
633.10	43533.96
633.25	42983.94
633.40	43608.86
633.55	43758.66
633.70	43433.32
633.85	42986.28
634.00	42600.09
634.15	42974.58
634.30	43236.72
634.45	43171.18
634.60	43089.26
634.75	43199.27
634.90	43079.90
635.05	43037.77
635.19	43363.11
635.34	43475.45
635.49	42738.18
635.64	42983.94
635.79	43239.06
635.94	42801.38
636.09	43232.04
636.24	42909.04
636.39	43173.52
636.53	43122.03
636.68	41984.53
636.83	42506.47
636.98	42483.06
637.13	42466.68
637.28	42557.96
637.43	42204.54
637.57	42911.38
637.72	42490.09
637.87	42508.81
638.02	42618.81
638.17	42316.89
638.32	42351.99
638.46	42452.64
638.61	42005.59
638.76	42326.25
638.91	42246.67
639.06	42267.73
639.20	42115.60
639.35	42251.35
639.50	42026.66
639.65	42206.88
639.80	42057.09
639.94	42380.08
640.09	42459.66
640.24	42256.03
640.39	41757.50
640.54	41504.72
640.68	41762.18
640.83	42206.88
640.98	42052.41
641.13	41790.27
641.27	42403.49
641.42	42082.83
641.57	42436.25
641.72	41954.10
641.86	41713.03
642.01	41701.32
642.16	41916.65
642.31	41184.07
642.45	41846.44
642.60	41865.16
642.75	41628.77
642.90	41748.14
643.04	41603.02
643.19	41918.99
643.34	41521.10
643.48	41155.98
643.63	41280.03
643.78	41542.17
643.93	42092.19
644.07	41668.56
644.22	41560.89
644.37	41371.31
644.51	41563.23
644.66	41883.89
644.81	41464.93
644.95	41085.76
645.10	41596.00
645.25	41186.41
645.39	40973.42
645.54	41237.90
645.69	40854.05
645.83	40762.77
645.98	40989.80
646.13	40774.47
646.27	40549.78
646.42	41120.87
646.57	41301.09
646.71	40973.42
646.86	41273.01
647.00	41153.64
647.15	41165.34
647.30	40931.29
647.44	40933.63
647.59	41013.21
647.74	40832.99
647.88	41172.36
648.03	41305.77
648.17	40734.68
648.32	40842.35
648.47	41191.09
648.61	40861.07
648.76	40598.93
648.90	40940.65
649.05	40779.15
649.20	41254.28
649.34	40659.79
649.49	40907.88
649.63	41394.71
649.78	40561.48
649.92	40809.58
650.07	40821.28
650.21	40769.79
650.36	41137.26
650.51	41123.21
650.65	40795.54
650.80	40519.35
650.94	40526.38
651.09	40931.29
651.23	40268.92
651.38	39864.00
651.52	40084.01
651.67	40320.41
651.81	40140.19
651.96	40378.92
652.10	40091.04
652.25	39906.13
652.39	40636.38
652.54	40760.43
652.68	40292.32
652.83	40414.03
652.97	40350.84
653.12	39969.33
653.26	40147.21
653.41	39908.47
653.55	40697.24
653.70	40268.92
653.84	39651.02
653.99	40037.20
654.13	40142.53
654.27	39552.71
654.42	40144.87
654.56	39398.24
654.71	40004.44
654.85	39709.53
655.00	40161.25
655.14	39793.79
655.29	40053.59
655.43	39817.19
655.57	39707.19
655.72	39290.57
655.86	39360.79
656.01	39702.51
656.15	39009.71
656.30	39662.72
656.44	39318.66
656.58	39388.88
656.73	39323.34
656.87	39426.32
657.01	39070.56
657.16	39250.78
657.30	39325.68
657.45	39426.32
657.59	39150.14
657.73	39075.24
657.88	39466.11
658.02	39166.52
658.16	39639.31
658.31	39365.47
658.45	39349.09
658.60	38855.23
658.74	38824.81
658.88	39075.24
659.03	38576.71
659.17	38962.90
659.31	38827.15
659.46	38948.85
659.60	39136.10
659.74	38534.58
659.89	38801.40
660.03	38415.21
660.17	38658.63
660.32	38424.57
660.46	38501.81
660.60	38314.57
660.74	38424.57
660.89	38132.01
661.03	38033.71
661.17	38066.47
661.32	37684.97
661.46	38272.44
661.60	38113.28
661.74	37890.93
661.89	37965.83
662.03	37762.20
662.17	37806.67
662.31	37801.99
662.46	37853.48
662.60	38043.07
662.74	37696.67
662.88	37223.88
663.03	36788.54
663.17	37268.35
663.31	37020.25
663.45	37305.80
663.60	37715.39
663.74	37439.21
663.88	37331.54
664.02	37181.75
664.17	37720.07
664.31	37116.22
664.45	36882.16
664.59	36849.39
664.73	37022.59
664.88	37064.72
665.02	36631.72
665.16	36931.31
665.30	36877.48
665.44	36486.61
665.59	36718.32
665.73	36542.78
665.87	35917.86
666.01	36184.68
666.15	36311.07
666.29	36407.03
666.44	36587.25
666.58	36278.30
666.72	36364.90
666.86	36025.53
667.00	36353.20
667.14	35981.06
667.28	35562.10
667.43	35749.34
667.57	35887.43
667.71	36109.78
667.85	35945.95
667.99	35683.81
668.13	35627.63
668.27	35552.74
668.41	35147.82
668.56	35143.14
668.70	35075.27
668.84	35103.35
668.98	35201.66
669.12	35374.86
669.26	35218.04
669.40	35199.32
669.54	35597.21
669.68	35269.53
669.82	34670.36
669.96	34632.91
670.10	34595.46
670.25	34974.63
670.39	34518.22
670.53	34745.25
670.67	34955.90
670.81	34852.92
670.95	34424.60
671.09	34007.98
671.23	34710.14
671.37	34583.76
671.51	34022.03
671.65	34139.05
671.79	33752.87
671.93	34157.78
672.07	34012.66
672.21	33928.41
672.35	33825.42
672.49	33649.88
672.63	33684.99
672.77	33390.08
672.91	33631.16
673.05	33390.08
673.19	33429.87
673.33	33425.19
673.47	33380.72
673.61	32992.19
673.75	32943.04
673.89	32898.57
674.03	32999.21
674.17	32877.51
674.31	32554.51
674.45	32680.90
674.59	32503.02
674.73	32570.90
674.87	32191.73
675.01	32334.50
675.15	32268.97
675.29	32002.14
675.43	32037.25
675.56	32093.43
675.70	31875.76
675.84	32109.81
675.98	31208.70
676.12	31887.46
676.26	31927.25
676.40	31232.11
676.54	31564.46
676.68	31358.50
676.82	31077.63
676.96	31126.78
677.10	31346.79
677.23	30768.68
677.37	30773.36
677.51	30855.28
677.65	31122.10
677.79	30569.74
677.93	30618.89
678.07	30527.61
678.21	30546.33
678.34	30314.62
678.48	30213.98
678.62	29907.37
678.76	30120.35
678.90	29743.53
679.04	29881.62
679.18	30122.69
679.31	29621.82
679.45	29535.22
679.59	29280.10
679.73	29750.55
679.87	29455.64
680.00	29151.37
680.14	29046.05
680.28	29130.31
680.42	29050.73
680.56	28776.89
680.70	28905.62
680.83	28404.74
680.97	28676.24
681.11	28353.25
681.25	28512.41
681.39	28423.47
681.52	28158.99
681.66	27772.80
681.80	27587.89
681.94	27520.02
682.07	27941.32
682.21	27637.05
682.35	27782.16
682.49	27754.07
682.62	27557.47
682.76	27683.86
682.90	27370.22
683.04	27094.04
683.17	27271.92
683.31	27047.23
683.45	26941.91
683.59	26696.15
683.72	26630.62
683.86	26637.64
684.00	26429.33
684.13	26630.62
684.27	25940.16
684.41	26333.37
684.55	26143.78
684.68	25862.92
684.82	25811.43
684.96	26096.97
685.09	25434.60
685.23	25778.66
685.37	25937.82
685.50	25771.64
685.64	25560.99
685.78	25088.20
685.91	25200.55
686.05	24659.88
686.19	24805.00
686.32	25078.84
686.46	24388.38
686.60	24278.38
686.73	24430.51
686.87	24535.84
687.01	24456.26
687.14	24369.66
687.28	24561.58
687.42	24280.72
687.55	24215.18
687.69	23967.09
687.82	23623.03
687.96	23859.42
688.10	23875.80
688.23	24034.96
688.37	23936.66
688.50	23793.89
688.64	23552.81
688.78	23330.46
688.91	23269.61
689.05	23388.97
689.18	23002.78
689.32	22745.33
689.46	22747.67
689.59	22848.31
689.73	22829.59
689.86	23049.60
690.00	22537.02
690.13	22665.75
690.27	22195.30
690.41	22118.06
690.54	22057.21
690.68	22108.70
690.81	22045.51
690.95	22082.95
691.08	21921.46
691.22	21582.08
691.35	21659.32
691.49	21956.57
691.62	21479.10
691.76	21263.77
691.89	21085.89
692.03	20840.13
692.16	21104.61
692.30	20856.51
692.43	20842.47
692.57	20629.48
692.70	20903.32
692.84	20622.46
692.97	20680.97
693.11	20514.80
693.24	20205.84
693.38	20201.16
693.51	20135.63
693.65	19999.88
693.78	20023.28
693.92	19929.66
694.05	19948.39
694.19	19440.49
694.32	19765.82
694.45	19819.66
694.59	19875.83
694.72	19578.58
694.86	19323.46
694.99	19278.99
695.13	19124.52
695.26	18850.67
695.39	19012.17
695.53	18827.27
695.66	19087.07
695.80	18707.90
695.93	18714.92
696.07	18270.22
696.20	18307.67
696.33	18043.19
696.47	18185.96
696.60	18228.09
696.73	18185.96
696.87	18340.44
697.00	18127.45
697.14	17769.35
697.27	17916.80
697.40	17776.37
697.54	17535.29
697.67	17568.06
697.80	17502.53
697.94	17561.04
698.07	17425.29
698.21	17357.41
698.34	17350.39
698.47	17345.71
698.61	17013.35
698.74	16760.58
698.87	16905.69
699.01	16601.42
699.14	16844.84
699.27	16425.88
699.40	16769.94
699.54	16369.71
699.67	16535.88
699.80	16327.58
699.94	16348.64
700.07	16231.62
700.20	16016.29
700.34	16163.74
700.47	15695.63
700.60	16362.69
700.73	15791.59
700.87	15763.51
701.00	15695.63
701.13	15571.58
701.26	15297.74
701.40	15396.04
701.53	15386.68
701.66	15417.11
701.79	15316.47
701.93	14951.34
702.06	14686.86
702.19	14909.21
702.32	14974.75
702.46	14869.42
702.59	14890.49
702.72	15091.77
702.85	15077.73
702.99	14874.10
703.12	14480.89
703.25	14759.42
703.38	14403.66
703.51	14487.92
703.65	14427.06
703.78	13975.34
703.91	13987.04
704.04	14043.21
704.17	13937.89
704.31	13811.50
704.44	13827.88
704.57	13977.68
704.70	13776.39
704.83	13727.24
704.96	13659.37
705.10	13371.48
705.23	13331.69
>>>>>End Processed Spectral Data<<<<<
