SpectraSuite Data File
++++++++++++++++++++++++++++++++++++
Date: Fri Oct 25 10:44:16 EDT 2013
User: price-jones
Dark Spectrum Present: No
Reference Spectrum Present: No
Number of Sampled Component Spectra: 1
Spectrometers: USB2+H05261
Integration Time (usec): 100000 (USB2+H05261)
Spectra Averaged: 1 (USB2+H05261)
Boxcar Smoothing: 0 (USB2+H05261)
Correct for Electrical Dark: No (USB2+H05261)
Strobe/Lamp Enabled: No (USB2+H05261)
Correct for Detector Non-linearity: No (USB2+H05261)
Correct for Stray Light: No (USB2+H05261)
Number of Pixels in Processed Spectrum: 2048
>>>>>Begin Processed Spectral Data<<<<<
365.73	107.66
365.92	107.66
366.12	107.66
366.32	18.72
366.52	4.68
366.72	126.39
366.91	37.45
367.11	23.41
367.31	32.77
367.51	70.22
367.70	0.00
367.90	11.70
368.10	35.11
368.30	0.00
368.49	102.98
368.69	0.00
368.89	28.09
369.09	16.38
369.28	16.38
369.48	70.22
369.68	107.66
369.87	37.45
370.07	79.58
370.27	110.01
370.47	203.63
370.66	308.95
370.86	486.83
371.06	430.66
371.25	456.40
371.45	416.62
371.65	433.00
371.84	435.34
372.04	395.55
372.24	454.06
372.44	500.87
372.63	512.58
372.83	535.98
373.03	500.87
373.22	503.22
373.42	514.92
373.62	505.56
373.81	641.31
374.01	559.39
374.21	561.73
374.40	545.34
374.60	526.62
374.79	564.07
374.99	617.90
375.19	585.13
375.38	564.07
375.58	575.77
375.78	615.56
375.97	601.52
376.17	587.47
376.37	641.31
376.56	610.88
376.76	676.41
376.95	620.24
377.15	603.86
377.35	638.97
377.54	648.33
377.74	594.50
377.93	648.33
378.13	669.39
378.33	631.94
378.52	601.52
378.72	629.60
378.91	589.82
379.11	573.43
379.31	695.14
379.50	671.73
379.70	732.59
379.89	608.54
380.09	648.33
380.28	798.12
380.48	692.80
380.68	678.76
380.87	725.57
381.07	763.01
381.26	748.97
381.46	753.65
381.65	697.48
381.85	770.04
382.04	718.54
382.24	716.20
382.43	676.41
382.63	770.04
382.83	779.40
383.02	751.31
383.22	720.88
383.41	781.74
383.61	741.95
383.80	819.19
384.00	681.10
384.19	800.46
384.39	765.36
384.58	802.80
384.78	793.44
384.97	755.99
385.17	770.04
385.36	770.04
385.56	835.57
385.75	882.38
385.95	880.04
386.14	884.72
386.34	837.91
386.53	866.00
386.72	828.55
386.92	781.74
387.11	917.49
387.31	858.98
387.50	800.46
387.70	798.12
387.89	858.98
388.09	851.96
388.28	821.53
388.48	868.34
388.67	976.00
388.86	1011.11
389.06	894.08
389.25	1001.75
389.45	903.45
389.64	910.47
389.84	1025.15
390.03	964.30
390.22	980.68
390.42	1004.09
390.61	1018.13
390.81	1001.75
391.00	1006.43
391.19	1137.50
391.39	1128.14
391.58	985.37
391.78	1069.62
391.97	1111.75
392.16	1004.09
392.36	1097.71
392.55	1039.20
392.75	1041.54
392.94	1001.75
393.13	1060.26
393.33	1144.52
393.52	1041.54
393.71	1008.77
393.91	1046.22
394.10	1102.39
394.29	1247.51
394.49	1121.12
394.68	1172.61
394.88	1224.10
395.07	1245.16
395.26	1156.22
395.46	1156.22
395.65	1261.55
395.84	1263.89
396.04	1289.64
396.23	1210.06
396.42	1186.65
396.62	1231.12
396.81	1219.42
397.00	1296.66
397.19	1256.87
397.39	1221.76
397.58	1334.11
397.77	1380.92
397.97	1383.26
398.16	1390.28
398.35	1430.07
398.55	1437.09
398.74	1523.69
398.93	1521.35
399.12	1544.75
399.32	1441.77
399.51	1423.05
399.70	1570.50
399.90	1530.71
400.09	1605.61
400.28	1607.95
400.47	1650.08
400.67	1668.80
400.86	1631.35
401.05	1657.10
401.24	1640.72
401.44	1689.87
401.63	1764.76
401.82	1724.97
402.01	1589.22
402.21	1689.87
402.40	1703.91
402.59	1727.32
402.78	1853.70
402.97	1743.70
403.17	1884.13
403.36	1757.74
403.55	1785.83
403.74	1762.42
403.93	1851.36
404.13	1870.09
404.32	1916.90
404.51	1879.45
404.70	1977.75
404.89	1834.98
405.09	2069.03
405.28	1886.47
405.47	1970.73
405.66	1863.07
405.85	2017.54
406.05	1975.41
406.24	1919.24
406.43	1994.14
406.62	2073.71
406.81	2122.87
407.00	2078.40
407.20	1949.67
407.39	2019.88
407.58	2207.13
407.77	2186.06
407.96	2244.57
408.15	2232.87
408.34	2256.28
408.54	2228.19
408.73	2319.47
408.92	2267.98
409.11	2181.38
409.30	2321.81
409.49	2251.60
409.68	2284.36
409.87	2298.41
410.07	2225.85
410.26	2235.21
410.45	2382.67
410.64	2436.50
410.83	2413.09
411.02	2502.03
411.21	2541.82
411.40	2609.70
411.59	2619.06
411.78	2527.78
411.98	2619.06
412.17	2630.76
412.36	2726.72
412.55	2724.38
412.74	2665.87
412.93	2689.28
413.12	2839.07
413.31	2871.84
413.50	2799.28
413.69	3012.27
413.88	2916.31
414.07	2988.86
414.26	2902.26
414.45	2902.26
414.64	2977.16
414.83	3068.44
415.02	3052.06
415.22	3075.46
415.41	3035.67
415.60	3162.06
415.79	3248.66
415.98	3155.04
416.17	3272.07
416.36	3225.26
416.55	3218.24
416.74	3234.62
416.93	3159.72
417.12	3211.22
417.31	3286.11
417.50	3283.77
417.69	3410.16
417.88	3468.67
418.07	3407.82
418.26	3421.86
418.45	3522.51
418.64	3585.70
418.83	3545.91
419.02	3569.32
419.21	3524.85
419.39	3421.86
419.58	3566.98
419.77	3611.45
419.96	3370.37
420.15	3784.65
420.34	3616.13
420.53	3714.43
420.72	3847.84
420.91	3810.39
421.10	3756.56
421.29	3756.56
421.48	3885.29
421.67	3819.75
421.86	3794.01
422.05	3714.43
422.24	3918.06
422.43	3770.60
422.61	3878.27
422.80	3803.37
422.99	3784.65
423.18	3939.12
423.37	4081.89
423.56	3878.27
423.75	3936.78
423.94	3782.31
424.13	3613.79
424.32	3707.41
424.50	3997.64
424.69	4021.04
424.88	3955.51
425.07	3871.25
425.26	3920.40
425.45	3974.23
425.64	3779.97
425.83	4037.42
426.01	4098.28
426.20	3967.21
426.39	3948.48
426.58	4009.34
426.77	3978.91
426.96	4042.11
427.15	4002.32
427.33	3950.82
427.52	4117.00
427.71	4152.11
427.90	4119.34
428.09	4252.75
428.28	4091.26
428.46	4224.67
428.65	4142.75
428.84	4210.62
429.03	4262.12
429.22	4238.71
429.40	4245.73
429.59	4168.49
429.78	3899.33
429.97	4056.15
430.16	3925.08
430.34	4119.34
430.53	4126.36
430.72	4133.39
430.91	4259.78
431.10	4393.19
431.28	4496.17
431.47	4681.07
431.66	4660.01
431.85	4767.67
432.03	4592.13
432.22	4725.54
432.41	4648.30
432.60	4840.23
432.79	4737.24
432.97	4765.33
433.16	4753.63
433.35	4615.54
433.54	4657.67
433.72	4582.77
433.91	4688.09
434.10	4638.94
434.28	4727.88
434.47	4849.59
434.66	4835.55
434.85	4952.57
435.03	4968.96
435.22	5018.11
435.41	4980.66
435.59	5018.11
435.78	5034.49
435.97	5132.79
436.16	5179.61
436.34	4947.89
436.53	5174.92
436.72	5289.61
436.90	5181.95
437.09	5268.55
437.28	5083.64
437.46	5123.43
437.65	5184.29
437.84	5076.62
438.02	5263.86
438.21	5193.65
438.40	5184.29
438.58	5362.17
438.77	5441.75
438.96	5327.06
439.14	5526.00
439.33	5607.92
439.52	5582.18
439.70	5488.56
439.89	5755.38
440.08	5738.99
440.26	5607.92
440.45	5874.74
440.63	5900.49
440.82	5951.98
441.01	5830.27
441.19	6106.46
441.38	5884.11
441.57	6078.37
441.75	6186.04
441.94	6263.27
442.12	6298.38
442.31	6291.36
442.50	6286.68
442.68	6424.77
442.87	6307.74
443.05	6328.81
443.24	6516.05
443.43	6511.37
443.61	6623.72
443.80	6841.39
443.98	6368.60
444.17	6279.66
444.35	6513.71
444.54	6668.19
444.73	6497.33
444.91	6480.94
445.10	6466.90
445.28	6520.73
445.47	6307.74
445.65	6684.57
445.84	6476.26
446.02	6562.86
446.21	6576.91
446.39	6586.27
446.58	6525.41
446.77	6630.74
446.95	6516.05
447.14	6736.06
447.32	6834.36
447.51	6785.21
447.69	6668.19
447.88	6754.79
448.06	6647.12
448.25	6513.71
448.43	6883.52
448.62	6700.95
448.80	6745.42
448.99	6857.77
449.17	6965.43
449.36	6825.00
449.54	6860.11
449.73	7033.31
449.91	7101.19
450.10	7089.48
450.28	7126.93
450.46	7286.09
450.65	7360.98
450.83	7166.72
451.02	7094.16
451.20	7150.34
451.39	7370.35
451.57	7150.34
451.76	7229.91
451.94	7206.51
452.13	7150.34
452.31	7056.72
452.49	6998.20
452.68	7201.83
452.86	7197.15
453.05	7419.50
453.23	7389.07
453.42	7351.62
453.60	7478.01
453.78	7410.14
453.97	7393.75
454.15	7248.64
454.34	7426.52
454.52	7590.36
454.70	7564.61
454.89	7552.91
455.07	7459.29
455.26	7705.04
455.44	7660.57
455.62	7784.62
455.81	7709.72
455.99	7681.64
456.17	7761.22
456.36	7798.66
456.54	7978.89
456.73	8074.85
456.91	8147.40
457.09	8149.75
457.28	8369.76
457.46	8074.85
457.64	8222.30
457.83	8093.57
458.01	7990.59
458.19	8280.82
458.38	8147.40
458.56	8257.41
458.74	8149.75
458.93	8217.62
459.11	8372.10
459.29	8292.52
459.48	8402.52
459.66	8219.96
459.84	8425.93
460.03	8589.77
460.21	8500.83
460.39	8608.49
460.57	8603.81
460.76	8442.31
460.94	8739.56
461.12	8606.15
461.31	8814.46
461.49	8784.03
461.67	8622.53
461.85	8711.47
462.04	8755.94
462.22	8912.76
462.40	8769.99
462.59	8915.10
462.77	8828.50
462.95	8601.47
463.13	8748.92
463.32	8781.69
463.50	9085.96
463.68	9011.06
463.86	9046.17
464.05	8868.29
464.23	8966.59
464.41	8992.34
464.59	8877.65
464.78	9083.62
464.96	9029.79
465.14	9085.96
465.32	9235.75
465.50	9177.24
465.69	9334.06
465.87	9233.41
466.05	9282.56
466.23	9048.51
466.41	9107.02
466.60	9282.56
466.78	9146.81
466.96	9369.16
467.14	9383.21
467.32	9437.04
467.51	9769.40
467.69	9118.73
467.87	9448.74
468.05	9540.02
468.23	9312.99
468.41	9329.38
468.60	9334.06
468.78	9614.92
468.96	9371.50
469.14	9654.71
469.32	9762.37
469.50	9423.00
469.69	9797.48
469.87	9851.31
470.05	9771.74
470.23	9816.21
470.41	9799.82
470.59	9933.23
470.77	9898.13
470.95	9898.13
471.14	10195.37
471.32	9951.96
471.50	10314.74
471.68	10396.66
471.86	10370.91
472.04	10183.67
472.22	10373.25
472.40	10188.35
472.58	10457.51
472.77	10413.04
472.95	10738.38
473.13	10892.85
473.31	10586.24
473.49	10602.63
473.67	10614.33
473.85	10918.60
474.03	11147.97
474.21	10911.58
474.39	11154.99
474.57	10951.37
474.75	11035.63
474.93	11213.51
475.12	11056.69
475.30	11169.04
475.48	11257.98
475.66	11117.54
475.84	11332.87
476.02	11548.20
476.20	11311.81
476.38	11796.30
476.56	11838.43
476.74	11613.74
476.92	11599.70
477.10	12088.87
477.28	12250.36
477.46	12081.85
477.64	12224.62
477.82	12472.71
478.00	12659.96
478.18	12446.97
478.36	12491.44
478.54	12903.37
478.72	12910.40
478.90	12950.18
479.08	13310.63
479.26	13238.07
479.44	13121.04
479.62	13472.12
479.80	13362.12
479.98	13451.06
480.16	13689.79
480.34	13467.44
480.52	13818.52
480.70	13865.33
480.88	13661.71
481.06	13811.50
481.24	13928.53
481.41	14324.08
481.59	14349.82
481.77	14167.26
481.95	14396.64
482.13	14469.19
482.31	14602.60
482.49	14843.68
482.67	14829.63
482.85	15180.71
483.03	15440.51
483.21	15213.48
483.39	15719.04
483.57	15192.42
483.74	15407.75
483.92	15838.41
484.10	15847.77
484.28	15782.23
484.46	16105.23
484.64	16468.01
484.82	16032.67
485.00	16224.59
485.18	16145.02
485.35	16587.38
485.53	16287.79
485.71	16418.86
485.89	16379.07
486.07	16341.62
486.25	16425.88
486.43	16905.69
486.61	17226.34
486.78	17130.38
486.96	17214.64
487.14	17788.07
487.32	17586.79
487.50	17909.78
487.68	18452.78
487.85	18272.56
488.03	18590.88
488.21	18707.90
488.39	18698.54
488.57	18792.16
488.75	18855.36
488.92	18970.04
489.10	19396.02
489.28	19424.11
489.46	19772.85
489.64	19503.68
489.81	20051.37
489.99	20247.97
490.17	20023.28
490.35	20463.30
490.53	20147.33
490.70	20262.02
490.88	20524.16
491.06	20549.90
491.24	20741.83
491.41	20917.37
491.59	20943.11
491.77	20851.83
491.95	21158.44
492.13	21039.08
492.30	21490.80
492.48	21451.01
492.66	22059.55
492.84	21682.72
493.01	22022.10
493.19	22066.57
493.37	22134.45
493.54	22438.72
493.72	22586.17
493.90	22717.24
494.08	22693.83
494.25	23215.77
494.43	23115.13
494.61	23159.60
494.79	23381.95
494.96	23482.59
495.14	23616.01
495.32	23983.47
495.49	23807.93
495.67	23695.58
495.85	24072.41
496.02	24271.36
496.20	24297.10
496.38	24290.08
496.55	24383.70
496.73	25113.95
496.91	24826.06
497.09	25090.54
497.26	25060.12
497.44	25263.74
497.62	25095.22
497.79	25422.90
497.97	25247.36
498.14	25490.77
498.32	25694.40
498.50	25598.44
498.67	26272.51
498.85	25942.50
499.03	26237.41
499.20	25855.90
499.38	26190.59
499.56	26235.06
499.73	26513.59
499.91	26644.66
500.08	26471.46
500.26	26211.66
500.44	26628.27
500.61	26850.63
500.79	26480.82
500.97	26951.27
501.14	27290.65
501.32	26859.99
501.49	27262.56
501.67	27178.30
501.84	27363.20
502.02	27562.15
502.20	27505.98
502.37	27751.73
502.55	27950.68
502.72	28070.04
502.90	28229.20
503.07	28091.11
503.25	28304.10
503.43	27894.50
503.60	27924.93
503.78	27983.44
503.95	28292.40
504.13	28400.06
504.30	28814.34
504.48	28807.31
504.65	29139.67
504.83	28940.72
505.01	29163.08
505.18	29273.08
505.36	29535.22
505.53	29607.78
505.71	29769.27
505.88	29649.91
506.06	29343.30
506.23	29738.85
506.41	29860.55
506.58	29883.96
506.76	29883.96
506.93	29984.60
507.11	29914.39
507.28	29855.87
507.46	29851.19
507.63	30490.16
507.81	30071.20
507.98	30209.29
508.16	30352.07
508.33	30532.29
508.50	30663.36
508.68	31012.10
508.85	30979.33
509.03	30859.96
509.20	31040.18
509.38	30981.67
509.55	31321.05
509.73	31314.03
509.90	31391.26
510.08	31454.46
510.25	31260.20
510.42	31641.70
510.60	31744.69
510.77	31871.07
510.95	31969.38
511.12	32121.51
511.30	32292.37
511.47	32144.92
511.64	32613.02
511.82	32514.72
511.99	32184.71
512.17	32472.59
512.34	32556.85
512.51	32769.84
512.69	32510.04
512.86	32601.32
513.04	33031.98
513.21	32783.88
513.38	32954.74
513.56	32716.01
513.73	32615.37
513.90	33273.06
514.08	32994.53
514.25	33146.67
514.43	33401.79
514.60	33317.53
514.77	33413.49
514.95	33617.11
515.12	33759.89
515.29	33493.07
515.47	33736.48
515.64	34078.20
515.81	34153.10
515.99	33607.75
516.16	34005.64
516.33	33598.39
516.51	33834.78
516.68	33392.42
516.85	33331.57
517.03	33820.74
517.20	33811.38
517.37	34171.82
517.54	34550.99
517.72	34061.82
517.89	33956.49
518.06	34382.47
518.24	34146.08
518.41	34328.64
518.58	34621.20
518.75	34668.02
518.93	35129.10
519.10	34696.10
519.27	35199.32
519.45	34855.26
519.62	35281.24
519.79	35835.94
519.96	35641.68
520.14	35683.81
520.31	35386.56
520.48	35693.17
520.65	35323.36
520.83	35903.82
521.00	36095.74
521.17	36016.16
521.34	36313.41
521.52	36353.20
521.69	36308.73
521.86	36524.06
522.03	36385.97
522.20	36465.55
522.38	36102.76
522.55	36673.85
522.72	36116.81
522.89	36514.70
523.07	36676.19
523.24	36863.44
523.41	36643.43
523.58	36797.90
523.75	37319.84
523.92	37450.91
524.10	37310.48
524.27	37376.01
524.44	37738.80
524.61	37408.78
524.78	37476.66
524.96	38000.94
525.13	37926.04
525.30	38024.34
525.47	38206.90
525.64	37933.06
525.81	37954.13
525.98	37507.08
526.16	37783.27
526.33	37284.73
526.50	37516.45
526.67	37109.19
526.84	37483.68
527.01	37446.23
527.18	37631.13
527.36	37907.32
527.53	38536.92
527.70	38363.72
527.87	38078.18
528.04	38087.54
528.21	38792.04
528.38	38588.41
528.55	38766.29
528.72	38469.04
528.89	39084.61
529.07	39175.89
529.24	39166.52
529.41	39203.97
529.58	38836.51
529.75	38557.99
529.92	39210.99
530.09	39505.90
530.26	39075.24
530.43	39377.17
530.60	39180.57
530.77	39856.98
530.94	39068.22
531.11	39370.15
531.28	39536.33
531.46	39599.52
531.63	39463.77
531.80	39477.82
531.97	39580.80
532.14	39651.02
532.31	39360.79
532.48	39426.32
532.65	39625.27
532.82	39674.42
532.99	39948.26
533.16	39185.25
533.33	39934.22
533.50	40175.30
533.67	40238.49
533.84	40205.72
534.01	39751.66
534.18	40081.67
534.35	40381.26
534.52	40683.19
534.69	40964.06
534.86	40568.51
535.03	40664.47
535.20	40856.39
535.37	40954.69
535.54	40905.54
535.71	40648.08
535.88	40814.26
536.05	40816.60
536.22	40612.98
536.38	40722.98
536.55	40809.58
536.72	40755.75
536.89	40601.27
537.06	40872.78
537.23	41055.34
537.40	41186.41
537.57	41333.86
537.74	41378.33
537.91	41427.48
538.08	41579.62
538.25	40945.33
538.42	41350.24
538.59	41551.53
538.75	41315.14
538.92	41394.71
539.09	41603.02
539.26	41427.48
539.43	41982.19
539.60	41476.63
539.77	41170.02
539.94	41420.46
540.11	41184.07
540.28	41820.69
540.44	41586.64
540.61	41523.44
540.78	41518.76
540.95	41867.50
541.12	41827.71
541.29	41954.10
541.46	41844.10
541.62	41659.20
541.79	42462.00
541.96	41801.97
542.13	42232.63
542.30	42012.62
542.47	42134.32
542.63	41963.46
542.80	42286.46
542.97	42190.50
543.14	42651.58
543.31	42401.14
543.48	42670.31
543.64	43054.15
543.81	43356.08
543.98	43047.13
544.15	42506.47
544.32	42845.85
544.48	43299.91
544.65	42754.57
544.82	43257.78
544.99	42754.57
545.16	43168.84
545.32	42740.52
545.49	43557.37
545.66	43454.39
545.83	43430.98
546.00	43290.55
546.16	43339.70
546.33	43021.39
546.50	43175.86
546.67	43503.54
546.83	43084.58
547.00	43599.50
547.17	42958.19
547.34	43320.98
547.50	43491.83
547.67	43725.89
547.84	43653.33
548.00	43847.60
548.17	43852.28
548.34	43643.97
548.51	43761.00
548.67	44121.44
548.84	43966.96
549.01	43505.88
549.18	43421.62
549.34	43749.29
549.51	44123.78
549.68	44020.80
549.84	43819.51
550.01	44144.84
550.18	43922.49
550.34	43983.35
550.51	43899.09
550.68	44072.29
550.84	43601.84
551.01	44495.92
551.18	44421.03
551.34	44238.47
551.51	44327.41
551.68	44233.78
551.84	44196.34
552.01	44102.71
552.18	44598.91
552.34	44495.92
552.51	44091.01
552.68	44051.22
552.84	44561.46
553.01	44666.78
553.18	44547.42
553.34	44538.05
553.51	44009.09
553.67	44584.86
553.84	44861.05
554.01	44793.17
554.17	44605.93
554.34	44910.20
554.51	44921.90
554.67	45174.68
554.84	44767.43
555.00	45001.48
555.17	44587.21
555.33	44800.19
555.50	44701.89
555.67	44868.07
555.83	44830.62
556.00	44732.32
556.16	45453.20
556.33	44809.56
556.50	44734.66
556.66	45067.02
556.83	44744.02
556.99	45560.87
557.16	45230.85
557.32	45441.50
557.49	45022.54
557.65	44919.56
557.82	45272.98
557.98	44945.31
558.15	45329.16
558.32	45251.92
558.48	45270.64
558.65	45141.91
558.81	45294.05
558.98	44959.35
559.14	45174.68
559.31	45069.36
559.47	45614.70
559.64	45656.83
559.80	45214.47
559.97	45361.92
560.13	45191.06
560.30	45188.72
560.46	45668.53
560.63	45497.67
560.79	45921.31
560.96	45930.67
561.12	45565.55
561.29	45263.62
561.45	45647.47
561.61	45607.68
561.78	45446.18
561.94	45790.24
562.11	45509.38
562.27	45422.78
562.44	45631.08
562.60	45727.05
562.77	45570.23
562.93	45481.29
563.10	45918.97
563.26	45551.51
563.42	45867.48
563.59	45607.68
563.75	45460.23
563.92	45773.86
564.08	45851.09
564.24	45876.84
564.41	45921.31
564.57	45556.19
564.74	45783.22
564.90	45911.95
565.07	45818.33
565.23	46005.57
565.39	45518.74
565.56	45916.63
565.72	45230.85
565.88	45797.26
566.05	45741.09
566.21	45792.58
566.38	45830.03
566.54	45586.61
566.70	46305.16
566.87	46110.89
567.03	46562.62
567.19	46216.22
567.36	46188.13
567.52	45853.44
567.68	45977.48
567.85	46003.23
568.01	46216.22
568.17	45481.29
568.34	46038.34
568.50	45984.51
568.66	45743.43
568.83	45975.14
568.99	45703.64
569.15	45633.42
569.32	46085.15
569.48	45680.24
569.64	46487.72
569.81	46340.27
569.97	46113.23
570.13	45881.52
570.30	45502.35
570.46	45588.95
570.62	45717.68
570.78	45588.95
570.95	45801.94
571.11	46099.19
571.27	45911.95
571.43	45839.39
571.60	45624.06
571.76	45560.87
571.92	46454.95
572.09	45640.45
572.25	46213.88
572.41	46014.93
572.57	46361.33
572.74	46382.40
572.90	46265.37
573.06	46298.14
573.22	45640.45
573.38	46108.55
573.55	46138.98
573.71	46564.96
573.87	46436.23
574.03	45914.29
574.20	46344.95
574.36	46050.04
574.52	45937.69
574.68	45691.94
574.84	46206.86
575.01	45909.61
575.17	46305.16
575.33	45717.68
575.49	45961.10
575.65	46295.80
575.82	46436.23
575.98	45478.95
576.14	46190.47
576.30	46230.26
576.46	45865.14
576.62	45780.88
576.79	46096.85
576.95	46256.01
577.11	46293.46
577.27	46403.46
577.43	46270.05
577.59	46101.53
577.75	46141.32
577.92	45366.60
578.08	46045.36
578.24	46092.17
578.40	46122.60
578.56	46092.17
578.72	46471.34
578.88	46684.33
579.04	46726.46
579.21	46075.79
579.37	45837.05
579.53	46078.13
579.69	46206.86
579.85	46452.61
580.01	46277.07
580.17	46466.66
580.33	46127.28
580.49	46363.67
580.65	46286.43
580.82	46810.71
580.98	46499.42
581.14	46300.48
581.30	46548.57
581.46	46302.82
581.62	45949.40
581.78	46508.79
581.94	46747.52
582.10	45940.04
582.26	46246.65
582.42	46422.19
582.58	46469.00
582.74	46412.82
582.90	46557.94
583.06	46270.05
583.22	46181.11
583.38	46361.33
583.54	46899.65
583.70	46656.24
583.86	46986.25
584.02	46281.75
584.18	46515.81
584.34	46625.81
584.50	46571.98
584.66	46108.55
584.82	46373.03
584.98	46382.40
585.14	46763.90
585.30	46398.78
585.46	46520.49
585.62	46183.45
585.78	46286.43
585.94	46028.98
586.10	46539.21
586.26	46223.24
586.42	46190.47
586.58	46176.43
586.74	46309.84
586.90	46408.14
587.06	46382.40
587.22	46026.63
587.38	46089.83
587.54	46401.12
587.70	46630.49
587.86	46312.18
588.02	46457.29
588.18	46466.66
588.34	45801.94
588.49	45815.99
588.65	45483.63
588.81	45713.00
588.97	45937.69
589.13	45799.60
589.29	45993.87
589.45	46209.20
589.61	45963.44
589.77	46239.62
589.93	46237.28
590.08	46340.27
590.24	46265.37
590.40	46649.22
590.56	46375.37
590.72	46394.10
590.88	46204.52
591.04	46714.75
591.20	46909.02
591.35	46815.40
591.51	47107.96
591.67	46623.47
591.83	46483.04
591.99	46555.60
592.15	46813.05
592.31	46504.10
592.46	46583.68
592.62	46576.66
592.78	46855.18
592.94	46387.08
593.10	46185.79
593.26	46651.56
593.41	46536.87
593.57	45928.33
593.73	46131.96
593.89	46045.36
594.05	46394.10
594.20	46330.90
594.36	46534.53
594.52	46377.72
594.68	46593.04
594.84	46433.89
594.99	46705.39
595.15	46382.40
595.31	46363.67
595.47	46452.61
595.62	46890.29
595.78	46419.84
595.94	47049.45
596.10	46745.18
596.25	46986.25
596.41	46941.78
596.57	46567.30
596.73	46735.82
596.88	46211.54
597.04	46197.49
597.20	46794.33
597.36	46494.74
597.51	46653.90
597.67	46677.30
597.83	46838.80
597.99	46759.22
598.14	46859.87
598.30	46424.53
598.46	46490.06
598.61	46457.29
598.77	46260.69
598.93	46354.31
599.09	46485.38
599.24	46997.96
599.40	46979.23
599.56	46962.85
599.71	46953.49
599.87	46670.28
600.03	46595.38
600.18	46457.29
600.34	46557.94
600.50	46747.52
600.65	46473.68
600.81	46443.25
600.97	46787.31
601.12	46948.81
601.28	46419.84
601.44	46389.42
601.59	46485.38
601.75	46134.30
601.91	46326.22
602.06	46167.07
602.22	46553.26
602.37	46567.30
602.53	46354.31
602.69	46478.36
602.84	45984.51
603.00	46117.92
603.16	46263.03
603.31	46555.60
603.47	46211.54
603.62	46595.38
603.78	46663.26
603.94	46700.71
604.09	46714.75
604.25	46586.02
604.40	46476.02
604.56	46417.50
604.71	46328.56
604.87	46153.02
605.03	46148.34
605.18	46181.11
605.34	46630.49
605.49	46146.00
605.65	46277.07
605.80	46789.65
605.96	46529.85
606.12	46419.84
606.27	46759.22
606.43	46506.44
606.58	46373.03
606.74	46204.52
606.89	46658.58
607.05	46527.51
607.20	46380.06
607.36	45794.92
607.51	46277.07
607.67	46316.86
607.82	46426.87
607.98	46204.52
608.13	45865.14
608.29	46036.00
608.44	45764.49
608.60	45698.96
608.75	45958.76
608.91	45724.71
609.06	45865.14
609.22	46347.29
609.37	45940.04
609.53	46122.60
609.68	45893.22
609.84	45834.71
609.99	46089.83
610.15	45773.86
610.30	45844.07
610.46	45544.48
610.61	45961.10
610.76	45858.12
610.92	45853.44
611.07	45586.61
611.23	45879.18
611.38	46143.66
611.54	45532.78
611.69	45698.96
611.84	45783.22
612.00	45661.51
612.15	45216.81
612.31	46087.49
612.46	45975.14
612.62	45680.24
612.77	45694.28
612.92	45745.77
613.08	45502.35
613.23	45291.71
613.39	45715.34
613.54	45425.12
613.69	45481.29
613.85	45345.54
614.00	45619.38
614.15	45848.75
614.31	45284.68
614.46	46007.91
614.62	45280.00
614.77	45170.00
614.92	45275.32
615.08	45207.45
615.23	45001.48
615.38	45366.60
615.54	45116.17
615.69	44978.07
615.84	44877.43
616.00	45481.29
616.15	44919.56
616.30	45382.99
616.46	44727.64
616.61	44870.41
616.76	44872.75
616.92	44879.77
617.07	45052.97
617.22	44516.99
617.37	44863.39
617.53	45020.20
617.68	45483.63
617.83	45212.13
617.99	45017.86
618.14	44809.56
618.29	44919.56
618.45	44229.10
618.60	44788.49
618.75	44514.65
618.90	44816.58
619.06	44978.07
619.21	44648.06
619.36	44739.34
619.51	44844.66
619.67	44570.82
619.82	45055.31
619.97	44783.81
620.12	44278.25
620.28	44477.20
620.43	44177.61
620.58	44692.53
620.73	44140.16
620.89	44762.75
621.04	44580.18
621.19	44194.00
621.34	44502.95
621.49	44133.14
621.65	44437.41
621.80	44102.71
621.95	43952.92
622.10	44163.57
622.25	43627.59
622.41	44158.89
622.56	44196.34
622.71	44292.30
622.86	44594.23
623.01	44083.99
623.16	43672.06
623.32	43784.40
623.47	44140.16
623.62	44222.08
623.77	43845.26
623.92	44114.42
624.07	43849.94
624.23	43704.82
624.38	43349.06
624.53	43477.79
624.68	43524.60
624.83	43952.92
624.98	43498.86
625.13	43622.90
625.29	43363.11
625.44	43501.20
625.59	43377.15
625.74	42976.92
625.89	42993.30
626.04	43295.23
626.19	43093.94
626.34	42990.96
626.49	43372.47
626.65	43398.21
626.80	43470.77
626.95	43459.07
627.10	43316.29
627.25	43065.86
627.40	42792.01
627.55	42845.85
627.70	42387.10
627.85	42887.98
628.00	42803.72
628.15	42784.99
628.30	42649.24
628.45	42787.33
628.60	42918.40
628.76	43054.15
628.91	42810.74
629.06	42817.76
629.21	42415.19
629.36	42677.33
629.51	42309.86
629.66	42614.13
629.81	42270.08
629.96	42501.79
630.11	42665.63
630.26	42689.03
630.41	42960.53
630.56	42492.43
630.71	42752.23
630.86	42141.35
631.01	42497.11
631.16	42436.25
631.31	42206.88
631.46	42354.33
631.61	42089.85
631.76	42192.84
631.91	42483.06
632.06	42660.94
632.21	42712.44
632.36	42377.74
632.51	42349.65
632.66	42150.71
632.81	41991.55
632.96	41942.40
633.10	41867.50
633.25	41996.23
633.40	42047.72
633.55	42246.67
633.70	41556.21
633.85	41572.60
634.00	41907.29
634.15	41886.23
634.30	42082.83
634.45	42120.28
634.60	42017.30
634.75	41752.82
634.90	41687.28
635.05	41207.47
635.19	41214.49
635.34	41769.20
635.49	41635.79
635.64	41621.75
635.79	41476.63
635.94	41617.07
636.09	41727.07
636.24	41471.95
636.39	41408.76
636.53	41343.22
636.68	41668.56
636.83	41490.68
636.98	41654.51
637.13	41235.56
637.28	41624.09
637.43	42094.53
637.57	41593.66
637.72	41291.73
637.87	41214.49
638.02	41558.55
638.17	41357.27
638.32	40959.38
638.46	41251.94
638.61	41020.23
638.76	41132.57
638.91	41359.61
639.06	41244.92
639.20	41148.96
639.35	41160.66
639.50	41090.44
639.65	40971.08
639.80	41076.40
639.94	41153.64
640.09	40673.83
640.24	40917.25
640.39	40030.18
640.54	40641.06
640.68	40804.90
640.83	40858.73
640.98	40610.64
641.13	40638.72
641.27	40636.38
641.42	40634.04
641.57	40676.17
641.72	39955.29
641.86	40484.25
642.01	40435.10
642.16	40142.53
642.31	40339.13
642.45	40673.83
642.60	40659.79
642.75	40430.41
642.90	40821.28
643.04	40582.55
643.19	40027.84
643.34	40418.71
643.48	39777.40
643.63	40069.97
643.78	39634.63
643.93	40182.32
644.07	39859.32
644.22	40196.36
644.37	39952.94
644.51	40259.55
644.66	40158.91
644.81	40009.12
644.95	40217.43
645.10	39761.02
645.25	40297.00
645.39	40322.75
645.54	39629.95
645.69	39990.39
645.83	39910.82
645.98	39643.99
646.13	40093.38
646.27	40046.57
646.42	39608.89
646.57	39618.25
646.71	39416.96
646.86	39878.05
647.00	39697.83
647.15	39709.53
647.30	39833.58
647.44	39463.77
647.59	39236.74
647.74	39058.86
647.88	39416.96
648.03	39346.75
648.17	39321.00
648.32	39545.69
648.47	39421.64
648.61	38937.15
648.76	39187.59
648.90	39147.80
649.05	39604.20
649.20	39295.25
649.34	39454.41
649.49	39140.78
649.63	38705.44
649.78	39210.99
649.92	39138.44
650.07	39117.37
650.21	38883.32
650.36	38801.40
650.51	38817.78
650.65	39552.71
650.80	39711.87
650.94	39484.84
651.09	38829.49
651.23	38923.11
651.38	39058.86
651.52	38712.46
651.67	38548.62
651.81	38775.66
651.96	38576.71
652.10	38906.73
652.25	38735.87
652.39	38796.72
652.54	39129.08
652.68	38569.69
652.83	38646.93
652.97	38686.71
653.12	38686.71
653.26	38600.12
653.41	38246.69
653.55	37982.21
653.70	38106.26
653.84	38738.21
653.99	38410.53
654.13	38169.46
654.27	38288.82
654.42	37813.70
654.56	37879.23
654.71	38155.41
654.85	38157.75
655.00	37928.38
655.14	37972.85
655.29	37972.85
655.43	37954.13
655.57	37699.01
655.72	37481.34
655.86	37425.17
656.01	37291.76
656.15	37497.72
656.30	37614.75
656.44	37558.58
656.58	37366.65
656.73	37537.51
656.87	37691.99
657.01	37556.24
657.16	38000.94
657.30	37502.40
657.45	37556.24
657.59	37514.11
657.73	37633.47
657.88	37996.26
658.02	37710.71
658.16	37558.58
658.31	37989.24
658.45	37553.90
658.60	37233.24
658.74	37216.86
658.88	37621.77
659.03	37242.60
659.17	36896.20
659.31	37010.89
659.46	36851.73
659.60	37055.36
659.74	37371.33
659.89	36954.72
660.03	36587.25
660.17	36858.76
660.32	36638.75
660.46	36978.12
660.60	37008.55
660.74	36943.02
660.89	36861.10
661.03	36636.41
661.17	36491.29
661.32	36271.28
661.46	36170.64
661.60	36266.60
661.74	36854.08
661.89	36456.18
662.03	36519.38
662.17	36046.59
662.31	36191.70
662.46	36690.24
662.60	36575.55
662.74	36105.10
662.88	36332.14
663.03	35749.34
663.17	35679.13
663.31	35988.08
663.45	35819.56
663.60	35751.68
663.74	35587.85
663.88	35838.28
664.02	35945.95
664.17	35676.79
664.31	35501.25
664.45	35873.39
664.59	35644.02
664.73	35466.14
664.88	35438.05
665.02	35129.10
665.16	35112.72
665.30	35122.08
665.44	35325.71
665.59	35136.12
665.73	34993.35
665.87	34768.66
666.01	35075.27
666.15	35360.81
666.29	35133.78
666.44	34923.13
666.58	34955.90
666.72	34616.52
666.86	34244.38
667.00	34586.10
667.14	34396.51
667.28	34085.22
667.43	34139.05
667.57	34855.26
667.71	34022.03
667.85	34438.64
667.99	34167.14
668.13	34239.70
668.27	34251.40
668.41	34272.46
668.56	33813.72
668.70	34185.86
668.84	33984.58
668.98	33364.34
669.12	33572.64
669.26	33490.73
669.40	33443.91
669.54	33766.91
669.68	33851.17
669.82	33542.22
669.96	33237.95
670.10	33153.69
670.25	33553.92
670.39	33565.62
670.53	33046.02
670.67	32975.81
670.81	33460.30
670.95	33137.30
671.09	32954.74
671.23	33083.47
671.37	32856.44
671.51	32985.17
671.65	32631.75
671.79	32610.68
671.93	32371.95
672.07	32924.32
672.21	32676.22
672.35	32540.47
672.49	32353.23
672.63	32524.08
672.77	32580.26
672.91	32184.71
673.05	32254.92
673.19	32109.81
673.33	32032.57
673.47	31854.69
673.61	31433.39
673.75	31667.45
673.89	31648.72
674.03	31409.99
674.17	31583.19
674.31	31480.21
674.45	31381.90
674.59	31824.26
674.73	31641.70
674.87	31470.84
675.01	31384.24
675.15	30892.73
675.29	31168.91
675.43	30988.69
675.56	31098.70
675.70	30649.32
675.84	30824.86
675.98	29996.31
676.12	30948.90
676.26	30359.09
676.40	30649.32
676.54	30394.20
676.68	30448.03
676.82	30115.67
676.96	30080.56
677.10	30092.27
677.23	29998.65
677.37	29788.00
677.51	29703.74
677.65	29427.56
677.79	29095.20
677.93	29429.90
678.07	29497.77
678.21	28968.81
678.34	29252.02
678.48	28772.21
678.62	28964.13
678.76	28659.86
678.90	28655.18
679.04	28596.67
679.18	28568.58
679.31	28421.13
679.45	28222.18
679.59	28304.10
679.73	28252.61
679.87	27953.02
680.00	27777.48
680.14	27728.33
680.28	28126.22
680.42	27976.42
680.56	27873.44
680.70	27728.33
680.83	27845.35
680.97	27850.03
681.11	27702.58
681.25	27283.62
681.39	27311.71
681.52	27431.08
681.66	27580.87
681.80	27110.43
681.94	27070.64
682.07	27058.93
682.21	26850.63
682.35	26632.96
682.49	26852.97
682.62	26792.11
682.76	26579.12
682.90	26457.42
683.04	26127.40
683.17	26204.64
683.31	25872.28
683.45	26080.59
683.59	26022.08
683.72	25631.21
683.86	25968.24
684.00	25493.12
684.13	25603.12
684.27	25228.63
684.41	25443.96
684.55	25207.57
684.68	25294.17
684.82	25230.98
684.96	24954.79
685.09	25165.44
685.23	24973.52
685.37	24886.92
685.50	24903.30
685.64	24910.32
685.78	24484.34
685.91	24584.99
686.05	24163.69
686.19	24107.52
686.32	23683.88
686.46	23768.14
686.60	23817.29
686.73	23601.96
686.87	23513.02
687.01	23222.80
687.14	23328.12
687.28	23276.63
687.42	23101.09
687.55	23494.30
687.69	23110.45
687.82	23012.15
687.96	22981.72
688.10	23487.28
688.23	22735.96
688.37	22628.30
688.50	22377.86
688.64	22735.96
688.78	22537.02
688.91	22750.01
689.05	22785.12
689.18	22335.73
689.32	22001.04
689.46	22314.67
689.59	22104.02
689.73	22640.00
689.86	22092.32
690.00	22183.60
690.13	21991.67
690.27	21549.31
690.41	21392.50
690.54	21149.08
690.68	21383.13
690.81	21212.28
690.95	21163.12
691.08	21451.01
691.22	21429.94
691.35	21273.13
691.49	21479.10
691.62	21153.76
691.76	21008.65
691.89	20905.66
692.03	20882.26
692.16	20603.74
692.30	20456.28
692.43	20276.06
692.57	20086.48
692.70	20458.62
692.84	20166.06
692.97	19864.13
693.11	20311.17
693.24	20135.63
693.38	19756.46
693.51	19728.38
693.65	20238.61
693.78	19854.76
693.92	19623.05
694.05	19459.21
694.19	19335.17
694.32	19293.04
694.45	19211.12
694.59	19337.51
694.72	18939.62
694.86	19302.40
694.99	18780.46
695.13	19136.22
695.26	19026.21
695.39	18370.86
695.53	18654.07
695.66	18923.23
695.80	18717.26
695.93	18724.29
696.07	18389.59
696.20	18071.28
696.33	18221.07
696.47	18286.61
696.60	18071.28
696.73	17877.01
696.87	18080.64
697.00	18092.34
697.14	18059.57
697.27	17860.63
697.40	17834.88
697.54	17479.12
697.67	17329.33
697.80	17397.20
697.94	17193.58
698.07	17214.64
698.21	17186.55
698.34	17163.15
698.47	16812.07
698.61	16795.68
698.74	16844.84
698.87	16856.54
699.01	16664.61
699.14	16308.85
699.27	16285.45
699.40	16446.94
699.54	16226.93
699.67	16362.69
699.80	16266.72
699.94	16194.17
700.07	16292.47
700.20	16334.60
700.34	16177.78
700.47	16025.65
700.60	16093.52
700.73	16163.74
700.87	15955.43
701.00	15871.17
701.13	15751.81
701.26	15302.42
701.40	15585.63
701.53	15351.57
701.66	15662.86
701.79	15136.24
701.93	15197.10
702.06	15279.02
702.19	14951.34
702.32	14981.77
702.46	14949.00
702.59	15026.24
702.72	14806.23
702.85	14927.94
702.99	14506.64
703.12	14492.60
703.25	14633.03
703.38	14340.46
703.51	14087.68
703.65	14368.55
703.78	14551.11
703.91	14160.24
704.04	14083.00
704.17	14080.66
704.31	14253.86
704.44	13977.68
704.57	13741.29
704.70	13968.32
704.83	14178.97
704.96	13968.32
705.10	13797.46
705.23	13603.19
>>>>>End Processed Spectral Data<<<<<
