SpectraSuite Data File
++++++++++++++++++++++++++++++++++++
Date: Fri Oct 25 10:43:33 EDT 2013
User: price-jones
Dark Spectrum Present: No
Reference Spectrum Present: No
Number of Sampled Component Spectra: 1
Spectrometers: USB2+H05261
Integration Time (usec): 100000 (USB2+H05261)
Spectra Averaged: 1 (USB2+H05261)
Boxcar Smoothing: 0 (USB2+H05261)
Correct for Electrical Dark: No (USB2+H05261)
Strobe/Lamp Enabled: No (USB2+H05261)
Correct for Detector Non-linearity: No (USB2+H05261)
Correct for Stray Light: No (USB2+H05261)
Number of Pixels in Processed Spectrum: 2048
>>>>>Begin Processed Spectral Data<<<<<
365.73	44.47
365.92	44.47
366.12	44.47
366.32	51.49
366.52	9.36
366.72	77.24
366.91	4.68
367.11	51.49
367.31	91.28
367.51	0.00
367.70	25.75
367.90	56.17
368.10	14.04
368.30	65.54
368.49	0.00
368.69	0.00
368.89	28.09
369.09	23.41
369.28	63.19
369.48	4.68
369.68	72.56
369.87	91.28
370.07	7.02
370.27	98.30
370.47	220.01
370.66	437.68
370.86	400.23
371.06	512.58
371.25	517.26
371.45	418.96
371.65	505.56
371.84	407.25
372.04	376.83
372.24	503.22
372.44	486.83
372.63	475.13
372.83	507.90
373.03	503.22
373.22	477.47
373.42	465.77
373.62	521.94
373.81	491.51
374.01	561.73
374.21	608.54
374.40	505.56
374.60	550.03
374.79	622.58
374.99	528.96
375.19	552.37
375.38	578.11
375.58	561.73
375.78	538.32
375.97	603.86
376.17	699.82
376.37	660.03
376.56	648.33
376.76	599.18
376.95	550.03
377.15	622.58
377.35	664.71
377.54	617.90
377.74	695.14
377.93	627.26
378.13	697.48
378.33	650.67
378.52	657.69
378.72	606.20
378.91	671.73
379.11	641.31
379.31	596.84
379.50	624.92
379.70	685.78
379.89	660.03
380.09	664.71
380.28	702.16
380.48	697.48
380.68	753.65
380.87	669.39
381.07	657.69
381.26	685.78
381.46	674.07
381.65	741.95
381.85	734.93
382.04	741.95
382.24	662.37
382.43	716.20
382.63	690.46
382.83	676.41
383.02	681.10
383.22	767.70
383.41	734.93
383.61	800.46
383.80	858.98
384.00	798.12
384.19	842.59
384.39	748.97
384.58	835.57
384.78	856.64
384.97	758.33
385.17	784.08
385.36	795.78
385.56	837.91
385.75	800.46
385.95	884.72
386.14	884.72
386.34	851.96
386.53	863.66
386.72	828.55
386.92	903.45
387.11	903.45
387.31	788.76
387.50	873.02
387.70	863.66
387.89	861.32
388.09	901.11
388.28	936.21
388.48	847.27
388.67	978.34
388.86	999.41
389.06	875.36
389.25	919.83
389.45	999.41
389.64	929.19
389.84	990.05
390.03	1071.97
390.22	1057.92
390.42	985.37
390.61	976.00
390.81	1036.86
391.00	1095.37
391.19	1116.44
391.39	1090.69
391.58	1062.60
391.78	901.11
391.97	1036.86
392.16	1088.35
392.36	992.39
392.55	1020.47
392.75	1050.90
392.94	1053.24
393.13	940.90
393.33	973.66
393.52	999.41
393.71	1095.37
393.91	1067.28
394.10	1114.10
394.29	1116.44
394.49	1238.14
394.68	1270.91
394.88	1170.27
395.07	1259.21
395.26	1256.87
395.46	1240.48
395.65	1235.80
395.84	1177.29
396.04	1291.98
396.23	1198.35
396.42	1102.39
396.62	1100.05
396.81	1219.42
397.00	1224.10
397.19	1252.19
397.39	1228.78
397.58	1376.24
397.77	1352.83
397.97	1364.53
398.16	1399.64
398.35	1523.69
398.55	1427.73
398.74	1490.92
398.93	1458.15
399.12	1563.48
399.32	1458.15
399.51	1448.79
399.70	1638.38
399.90	1521.35
400.09	1563.48
400.28	1678.16
400.47	1584.54
400.67	1619.65
400.86	1689.87
401.05	1696.89
401.24	1678.16
401.44	1687.53
401.63	1631.35
401.82	1734.34
402.01	1680.50
402.21	1774.13
402.40	1645.40
402.59	1795.19
402.78	1713.27
402.97	1760.08
403.17	1736.68
403.36	1771.79
403.55	1886.47
403.74	1912.22
403.93	1961.37
404.13	1930.94
404.32	1802.21
404.51	1893.49
404.70	1884.13
404.89	1959.03
405.09	1961.37
405.28	2005.84
405.47	2001.16
405.66	1996.48
405.85	1926.26
406.05	2047.97
406.24	2001.16
406.43	2108.82
406.62	2094.78
406.81	2167.34
407.00	2101.80
407.20	2099.46
407.39	2134.57
407.58	2174.36
407.77	2228.19
407.96	2242.23
408.15	2277.34
408.34	2275.00
408.54	2242.23
408.73	2249.25
408.92	2361.60
409.11	2359.26
409.30	2338.20
409.49	2389.69
409.68	2277.34
409.87	2230.53
410.07	2370.96
410.26	2422.45
410.45	2396.71
410.64	2396.71
410.83	2445.86
411.02	2656.51
411.21	2590.97
411.40	2555.86
411.59	2576.93
411.78	2668.21
411.98	2579.27
412.17	2614.38
412.36	2525.44
412.55	2700.98
412.74	2885.88
412.93	2649.49
413.12	2771.19
413.31	2963.12
413.50	2904.60
413.69	2963.12
413.88	2951.42
414.07	2932.69
414.26	2916.31
414.45	2899.92
414.64	3028.65
414.83	3035.67
415.02	3101.21
415.22	3155.04
415.41	3150.36
415.60	3180.79
415.79	3187.81
415.98	3311.86
416.17	3220.58
416.36	3194.83
416.55	3302.50
416.74	3307.18
416.93	3145.68
417.12	3262.71
417.31	3351.65
417.50	3342.28
417.69	3335.26
417.88	3485.06
418.07	3389.10
418.26	3391.44
418.45	3571.66
418.64	3604.42
418.83	3597.40
419.02	3646.55
419.21	3653.58
419.39	3581.02
419.58	3487.40
419.77	3599.74
419.96	3693.37
420.15	3693.37
420.34	3878.27
420.53	3712.09
420.72	3847.84
420.91	3833.80
421.10	3801.03
421.29	3847.84
421.48	3847.84
421.67	3829.12
421.86	3817.41
422.05	3824.44
422.24	3749.54
422.43	3892.31
422.61	3805.71
422.80	4107.64
422.99	3969.55
423.18	3859.54
423.37	4028.06
423.56	4018.70
423.75	3913.38
423.94	3868.91
424.13	3688.68
424.32	3873.59
424.50	3936.78
424.69	4016.36
424.88	4093.60
425.07	3929.76
425.26	3971.89
425.45	3911.04
425.64	3857.20
425.83	3985.93
426.01	4166.15
426.20	4086.58
426.39	4117.00
426.58	3939.12
426.77	3941.46
426.96	3957.85
427.15	4037.42
427.33	4252.75
427.52	4060.83
427.71	4189.56
427.90	4238.71
428.09	4255.09
428.28	4131.05
428.46	4067.85
428.65	4346.37
428.84	4210.62
429.03	4219.99
429.22	4117.00
429.40	4049.13
429.59	4014.02
429.78	3976.57
429.97	3967.21
430.16	4021.04
430.34	4124.02
430.53	4077.21
430.72	4236.37
430.91	4149.77
431.10	4229.35
431.28	4587.45
431.47	4755.97
431.66	4669.37
431.85	4486.81
432.03	4608.51
432.22	4770.01
432.41	4617.88
432.60	4870.65
432.79	4840.23
432.97	4823.84
433.16	4800.44
433.35	4748.95
433.54	4713.84
433.72	4585.11
433.91	4692.77
434.10	4688.09
434.28	4765.33
434.47	4945.55
434.66	4884.70
434.85	4784.06
435.03	5107.05
435.22	4983.00
435.41	5055.56
435.59	4945.55
435.78	5083.64
435.97	5266.21
436.16	5146.84
436.34	5123.43
436.53	5111.73
436.72	5350.46
436.90	5200.67
437.09	5130.45
437.28	5256.84
437.46	5486.22
437.65	5249.82
437.84	5352.81
438.02	5231.10
438.21	5217.05
438.40	5203.01
438.58	5352.81
438.77	5401.96
438.96	5432.38
439.14	5753.04
439.33	5816.23
439.52	5593.88
439.70	5806.87
439.89	5542.39
440.08	5743.67
440.26	5898.15
440.45	5731.97
440.63	5830.27
440.82	5856.02
441.01	6003.47
441.19	6052.63
441.38	6134.54
441.57	6113.48
441.75	6251.57
441.94	6408.39
442.12	6349.87
442.31	6260.93
442.50	6443.49
442.68	6328.81
442.87	6382.64
443.05	6375.62
443.24	6413.07
443.43	6480.94
443.61	6539.46
443.80	6682.23
443.98	6516.05
444.17	6277.32
444.35	6691.59
444.54	6700.95
444.73	6520.73
444.91	6644.78
445.10	6532.44
445.28	6555.84
445.47	6455.20
445.65	6361.58
445.84	6548.82
446.02	6700.95
446.21	6581.59
446.39	6586.27
446.58	6525.41
446.77	7016.93
446.95	6565.20
447.14	6904.58
447.32	6848.41
447.51	6672.87
447.69	6698.61
447.88	6715.00
448.06	6829.68
448.25	6808.62
448.43	6764.15
448.62	6810.96
448.80	6614.35
448.99	6899.90
449.17	6942.03
449.36	6925.65
449.54	6899.90
449.73	7260.34
449.91	7070.76
450.10	7197.15
450.28	7431.20
450.46	7283.75
450.65	7260.34
450.83	7267.36
451.02	7185.44
451.20	7241.62
451.39	7316.51
451.57	7325.88
451.76	7119.91
451.94	7143.32
452.13	7452.27
452.31	7131.61
452.49	7229.91
452.68	7309.49
452.86	7122.25
453.05	7159.70
453.23	7199.49
453.42	7393.75
453.60	7307.15
453.78	7683.98
453.97	7353.96
454.15	7365.67
454.34	7302.47
454.52	7611.42
454.70	7662.91
454.89	7517.80
455.07	7545.89
455.26	7602.06
455.44	7676.96
455.62	7618.44
455.81	7906.33
455.99	7763.56
456.17	7826.75
456.36	7969.52
456.54	7955.48
456.73	8168.47
456.91	8018.68
457.09	8074.85
457.28	8166.13
457.46	8107.62
457.64	8201.24
457.83	8105.28
458.01	7875.90
458.19	8468.06
458.38	8196.56
458.56	8241.03
458.74	8374.44
458.93	8203.58
459.11	8498.49
459.29	8489.12
459.48	8491.46
459.66	8322.94
459.84	8500.83
460.03	8496.14
460.21	8496.14
460.39	8730.20
460.57	8500.83
460.76	8748.92
460.94	8795.73
461.12	8655.30
461.31	8800.41
461.49	8622.53
461.67	8690.41
461.85	8840.20
462.04	8840.20
462.22	9516.62
462.40	9107.02
462.59	8737.22
462.77	8999.36
462.95	8971.27
463.13	8971.27
463.32	8938.51
463.50	9142.13
463.68	8959.57
463.86	9036.81
464.05	9125.75
464.23	8844.88
464.41	8896.38
464.59	8912.76
464.78	9144.47
464.96	9130.43
465.14	8997.02
465.32	9214.69
465.50	9341.08
465.69	9469.81
465.87	9207.67
466.05	9191.28
466.23	9193.62
466.41	9322.35
466.60	9317.67
466.78	9008.72
466.96	9245.12
467.14	9289.59
467.32	9605.56
467.51	9348.10
467.69	9312.99
467.87	9528.32
468.05	9694.50
468.23	9687.48
468.41	9645.35
468.60	9612.58
468.78	9645.35
468.96	9675.77
469.14	9680.46
469.32	9895.78
469.50	9518.96
469.69	10001.11
469.87	10031.54
470.05	9921.53
470.23	9820.89
470.41	9902.81
470.59	10050.26
470.77	10033.88
470.95	10043.24
471.14	10139.20
471.32	10193.03
471.50	10480.92
471.68	10188.35
471.86	10356.87
472.04	10436.45
472.22	10476.24
472.40	10359.21
472.58	10387.30
472.77	10637.73
472.95	10654.12
473.13	10885.83
473.31	10637.73
473.49	10480.92
473.67	10686.89
473.85	10668.16
474.03	10890.51
474.21	11169.04
474.39	11260.32
474.57	11136.27
474.75	11026.26
474.93	11302.45
475.12	11199.46
475.30	11316.49
475.48	11400.75
475.66	11157.33
475.84	11318.83
476.02	11456.92
476.20	11403.09
476.38	11714.38
476.56	11889.92
476.74	11557.57
476.92	11784.60
477.10	12051.42
477.28	12074.82
477.46	12187.17
477.64	12205.89
477.82	12528.89
478.00	12711.45
478.18	12566.34
478.36	12774.64
478.54	12791.03
478.72	12760.60
478.90	13046.15
479.08	13167.85
479.26	13350.42
479.44	13238.07
479.62	13202.96
479.80	13486.17
479.98	13514.25
480.16	13678.09
480.34	13647.66
480.52	13825.54
480.70	13727.24
480.88	13502.55
481.06	14036.19
481.24	13996.40
481.41	14228.12
481.59	14469.19
481.77	14485.58
481.95	14494.94
482.13	14733.67
482.31	14602.60
482.49	14977.09
482.67	14778.14
482.85	15103.48
483.03	15311.78
483.21	15281.36
483.39	15592.65
483.57	15445.20
483.74	15843.09
483.92	15499.03
484.10	15377.32
484.28	16046.71
484.46	16137.99
484.64	16283.11
484.82	16224.59
485.00	16051.39
485.18	16374.39
485.35	16566.31
485.53	16264.38
485.71	16212.89
485.89	16376.73
486.07	16313.53
486.25	16697.38
486.43	16776.96
486.61	16922.07
486.78	17493.16
486.96	17392.52
487.14	17701.47
487.32	17495.50
487.50	18232.77
487.68	18288.95
487.85	18698.54
488.03	18530.02
488.21	19014.51
488.39	18553.43
488.57	18813.23
488.75	18768.76
488.92	19087.07
489.10	19440.49
489.28	19335.17
489.46	19747.10
489.64	19784.55
489.81	20126.27
489.99	20507.77
490.17	20294.79
490.35	20243.29
490.53	20442.24
490.70	20301.81
490.88	20496.07
491.06	20926.73
491.24	21036.74
491.41	20697.36
491.59	21018.01
491.77	20994.61
491.95	21139.72
492.13	21544.63
492.30	21628.89
492.48	21759.96
492.66	21982.31
492.84	22183.60
493.01	22162.53
493.19	22078.27
493.37	22438.72
493.54	22469.14
493.72	22597.87
493.90	23168.96
494.08	22630.64
494.25	23087.04
494.43	23311.74
494.61	23644.09
494.79	23758.78
494.96	23419.40
495.14	23604.30
495.32	23810.27
495.49	23784.52
495.67	23864.10
495.85	24070.07
496.02	24292.42
496.20	24594.35
496.38	24229.23
496.55	24737.12
496.73	25146.72
496.91	25142.03
497.09	24931.39
497.26	25336.30
497.44	25287.15
497.62	25071.82
497.79	25460.35
497.97	25366.73
498.14	25738.87
498.32	25572.69
498.50	25837.17
498.67	25979.95
498.85	25963.56
499.03	26696.15
499.20	26281.88
499.38	26630.62
499.56	26387.20
499.73	26483.16
499.91	26625.93
500.08	26707.85
500.26	26562.74
500.44	26815.52
500.61	27002.76
500.79	26810.84
500.97	27037.87
501.14	27248.52
501.32	27721.30
501.49	26904.46
501.67	27505.98
501.84	27513.00
502.02	27700.24
502.20	27894.50
502.37	27686.20
502.55	27922.59
502.72	28369.63
502.90	28135.58
503.07	28032.60
503.25	28287.71
503.43	27761.09
503.60	28545.17
503.78	28458.57
503.95	28507.72
504.13	28802.63
504.30	28879.87
504.48	28924.34
504.65	29118.60
504.83	29432.24
505.01	29376.06
505.18	28987.53
505.36	29446.28
505.53	29053.07
505.71	29675.65
505.88	29895.66
506.06	29472.03
506.23	29673.31
506.41	29872.26
506.58	29699.06
506.76	29977.58
506.93	29989.28
507.11	30052.48
507.28	29998.65
507.46	30174.19
507.63	30206.95
507.81	30277.17
507.98	30118.01
508.16	30764.00
508.33	30169.51
508.50	31047.21
508.68	31157.21
508.85	31672.13
509.03	31239.13
509.20	31110.40
509.38	31243.81
509.55	31290.62
509.73	31344.45
509.90	31543.40
510.08	31440.42
510.25	31438.08
510.42	31304.67
510.60	32091.09
510.77	32070.02
510.95	32191.73
511.12	31917.89
511.30	32290.03
511.47	32280.67
511.64	32500.68
511.82	32325.14
511.99	32601.32
512.17	32353.23
512.34	32154.28
512.51	32659.84
512.69	33261.35
512.86	32629.41
513.04	33020.28
513.21	32959.42
513.38	32893.89
513.56	33303.48
513.73	33046.02
513.90	33034.32
514.08	33422.85
514.25	33333.91
514.43	33088.15
514.60	33743.50
514.77	33305.82
514.95	33785.63
515.12	33638.18
515.29	33748.18
515.47	34220.97
515.64	34036.07
515.81	34136.71
515.99	34181.18
516.16	33874.57
516.33	33692.01
516.51	33872.23
516.68	33226.24
516.85	33310.50
517.03	33762.23
517.20	33996.28
517.37	34309.91
517.54	34700.78
517.72	34302.89
517.89	34209.27
518.06	34277.15
518.24	34211.61
518.41	34352.04
518.58	34504.18
518.75	34918.45
518.93	34965.26
519.10	35171.23
519.27	35211.02
519.45	35208.68
519.62	35620.61
519.79	35562.10
519.96	35442.73
520.14	35538.69
520.31	35377.20
520.48	35601.89
520.65	35592.53
520.83	35749.34
521.00	35901.48
521.17	35892.12
521.34	36074.68
521.52	35910.84
521.69	36058.29
521.86	36334.48
522.03	36467.89
522.20	36388.31
522.38	36423.42
522.55	36865.78
522.72	36718.32
522.89	36261.92
523.07	36966.42
523.24	36926.63
523.41	37020.25
523.58	36652.79
523.75	37624.11
523.92	37296.44
524.10	37289.42
524.27	37532.83
524.44	37317.50
524.61	37539.85
524.78	37462.61
524.96	37535.17
525.13	37785.61
525.30	38162.43
525.47	37991.58
525.64	37488.36
525.81	37825.40
525.98	37427.51
526.16	37581.98
526.33	37174.73
526.50	37546.87
526.67	37450.91
526.84	37469.64
527.01	37418.14
527.18	37944.76
527.36	38061.79
527.53	38068.81
527.70	38220.95
527.87	38213.93
528.04	38663.31
528.21	38717.14
528.38	38305.21
528.55	38799.06
528.72	38799.06
528.89	38876.30
529.07	39035.45
529.24	38632.88
529.41	38955.88
529.58	38464.36
529.75	38937.15
529.92	39428.66
530.09	38780.34
530.26	39225.04
530.43	39423.98
530.60	38962.90
530.77	39374.83
530.94	39674.42
531.11	39608.89
531.28	39742.30
531.46	39466.11
531.63	39665.06
531.80	39604.20
531.97	39611.23
532.14	39660.38
532.31	39332.70
532.48	39035.45
532.65	39358.45
532.82	39615.91
532.99	40072.31
533.16	40023.16
533.33	40547.44
533.50	40474.88
533.67	40397.65
533.84	40023.16
534.01	40252.53
534.18	40023.16
534.35	40222.11
534.52	39950.60
534.69	40561.48
534.86	40521.69
535.03	40306.37
535.20	40975.76
535.37	41116.19
535.54	41179.39
535.71	40919.59
535.88	40507.65
536.05	40676.17
536.22	40762.77
536.38	40914.90
536.55	40966.40
536.72	40884.48
536.89	40570.85
537.06	40612.98
537.23	41118.53
537.40	41261.30
537.57	41397.06
537.74	41556.21
537.91	41607.70
538.08	41104.49
538.25	40898.52
538.42	41027.25
538.59	41888.57
538.75	41371.31
538.92	41544.51
539.09	41205.13
539.26	41486.00
539.43	41551.53
539.60	41347.90
539.77	41530.47
539.94	41713.03
540.11	41394.71
540.28	41769.20
540.44	41689.62
540.61	41523.44
540.78	41404.08
540.95	41464.93
541.12	41787.92
541.29	42117.94
541.46	41996.23
541.62	41937.72
541.79	42485.40
541.96	41551.53
542.13	42059.43
542.30	42380.08
542.47	41794.95
542.63	41734.09
542.80	42595.41
542.97	42260.71
543.14	42120.28
543.31	42321.57
543.48	42988.62
543.64	43239.06
543.81	43353.74
543.98	42572.00
544.15	42564.98
544.32	43021.39
544.48	43180.54
544.65	42862.23
544.82	42941.81
544.99	42459.66
545.16	43000.32
545.32	42932.45
545.49	43480.13
545.66	43459.07
545.83	43222.67
546.00	43753.97
546.16	43316.29
546.33	43295.23
546.50	42801.38
546.67	43433.32
546.83	43068.20
547.00	43278.85
547.17	43028.41
547.34	43225.01
547.50	43562.05
547.67	43648.65
547.84	43592.48
548.00	43526.94
548.17	43854.62
548.34	43676.74
548.51	43756.32
548.67	44083.99
548.84	43973.98
549.01	43770.36
549.18	43480.13
549.34	43798.44
549.51	43892.07
549.68	44095.69
549.84	43683.76
550.01	44083.99
550.18	43725.89
550.34	43770.36
550.51	43976.33
550.68	43950.58
550.84	43746.95
551.01	44474.86
551.18	43751.63
551.34	44198.68
551.51	44411.67
551.68	44676.15
551.84	44505.29
552.01	44229.10
552.18	44156.55
552.34	44032.50
552.51	44385.92
552.68	44100.37
552.84	44385.92
553.01	44449.11
553.18	44243.15
553.34	44177.61
553.51	44554.44
553.67	44280.60
553.84	45078.72
554.01	44996.80
554.17	44821.26
554.34	44481.88
554.51	44547.42
554.67	45027.23
554.84	44722.96
555.00	44350.81
555.17	44666.78
555.33	44821.26
555.50	44678.49
555.67	44942.97
555.83	44619.97
556.00	44975.73
556.16	45230.85
556.33	44797.85
556.50	44905.52
556.66	44722.96
556.83	44755.72
556.99	44992.12
557.16	45029.57
557.32	44612.95
557.49	45106.80
557.65	45069.36
557.82	45205.11
557.98	45015.52
558.15	44802.53
558.32	45586.61
558.48	45029.57
558.65	44619.97
558.81	45062.33
558.98	44720.62
559.14	45050.63
559.31	44641.04
559.47	45188.72
559.64	45280.00
559.80	45158.30
559.97	45364.26
560.13	44861.05
560.30	45418.10
560.46	45455.54
560.63	45076.38
560.79	45764.49
560.96	45687.26
561.12	45584.27
561.29	45382.99
561.45	45226.17
561.61	45495.33
561.78	45329.16
561.94	45375.97
562.11	45619.38
562.27	45361.92
562.44	45485.97
562.60	45263.62
562.77	45764.49
562.93	45528.10
563.10	45518.74
563.26	45675.55
563.42	45844.07
563.59	45549.17
563.75	45544.48
563.92	45776.20
564.08	45574.91
564.24	45834.71
564.41	45811.31
564.57	45698.96
564.74	45698.96
564.90	45633.42
565.07	45773.86
565.23	45511.72
565.39	45909.61
565.56	45841.73
565.72	45399.37
565.88	45544.48
566.05	45670.87
566.21	45511.72
566.38	45705.98
566.54	45647.47
566.70	46038.34
566.87	45684.92
567.03	46007.91
567.19	46270.05
567.36	45954.08
567.52	45862.80
567.68	45560.87
567.85	45530.44
568.01	46092.17
568.17	45366.60
568.34	45886.20
568.50	45893.22
568.66	45586.61
568.83	45738.75
568.99	45888.54
569.15	45937.69
569.32	45893.22
569.48	45762.15
569.64	45956.42
569.81	45656.83
569.97	46103.87
570.13	45818.33
570.30	45940.04
570.46	45254.26
570.62	45280.00
570.78	45563.21
570.95	45808.96
571.11	45970.46
571.27	45846.41
571.43	45553.85
571.60	45991.53
571.76	45478.95
571.92	45638.11
572.09	46087.49
572.25	45895.56
572.41	46195.15
572.57	46227.92
572.74	45937.69
572.90	46461.97
573.06	45862.80
573.22	46391.76
573.38	45844.07
573.55	45776.20
573.71	46099.19
573.87	46412.82
574.03	46094.51
574.20	46157.70
574.36	45750.45
574.52	46120.26
574.68	45612.36
574.84	46080.47
575.01	46141.32
575.17	45778.54
575.33	45748.11
575.49	45471.93
575.65	46108.55
575.82	46218.56
575.98	45406.39
576.14	46267.71
576.30	46040.68
576.46	45970.46
576.62	46113.23
576.79	45832.37
576.95	45937.69
577.11	46199.83
577.27	46227.92
577.43	46302.82
577.59	46078.13
577.75	45670.87
577.92	45539.80
578.08	45483.63
578.24	45392.35
578.40	45940.04
578.56	45736.41
578.72	46176.43
578.88	46337.93
579.04	46174.09
579.21	45462.57
579.37	45818.33
579.53	46197.49
579.69	45900.25
579.85	46017.27
580.01	45839.39
580.17	46218.56
580.33	46590.70
580.49	46433.89
580.65	46038.34
580.82	45858.12
580.98	45958.76
581.14	45659.17
581.30	46398.78
581.46	46426.87
581.62	46588.36
581.78	46057.06
581.94	46197.49
582.10	46328.56
582.26	46155.36
582.42	46494.74
582.58	46494.74
582.74	45839.39
582.90	46085.15
583.06	46445.59
583.22	46225.58
583.38	46225.58
583.54	45996.21
583.70	46391.76
583.86	46260.69
584.02	45879.18
584.18	46349.63
584.34	45895.56
584.50	46227.92
584.66	46244.30
584.82	45680.24
584.98	45736.41
585.14	46375.37
585.30	46108.55
585.46	45968.12
585.62	45993.87
585.78	45972.80
585.94	46356.65
586.10	45652.15
586.26	46115.58
586.42	46401.12
586.58	46138.98
586.74	45897.91
586.90	46211.54
587.06	46014.93
587.22	46110.89
587.38	46433.89
587.54	46174.09
587.70	46487.72
587.86	46342.61
588.02	46078.13
588.18	46157.70
588.34	45621.72
588.49	45415.76
588.65	45434.48
588.81	45579.59
588.97	45532.78
589.13	45949.40
589.29	46017.27
589.45	45902.59
589.61	45923.65
589.77	46080.47
589.93	46445.59
590.08	46190.47
590.24	46141.32
590.40	46312.18
590.56	46298.14
590.72	46122.60
590.88	46213.88
591.04	46415.16
591.20	46373.03
591.35	46829.44
591.51	46714.75
591.67	46227.92
591.83	46178.77
591.99	46094.51
592.15	46370.69
592.31	46202.18
592.46	46366.01
592.62	46703.05
592.78	46337.93
592.94	46326.22
593.10	46642.20
593.26	46401.12
593.41	46321.54
593.57	46248.99
593.73	45965.78
593.89	46536.87
594.05	46279.41
594.20	46501.76
594.36	46302.82
594.52	45954.08
594.68	46014.93
594.84	46040.68
594.99	46146.00
595.15	45890.88
595.31	46791.99
595.47	46366.01
595.62	46642.20
595.78	46298.14
595.94	46387.08
596.10	46288.77
596.25	46253.67
596.41	46351.97
596.57	46394.10
596.73	46696.03
596.88	45808.96
597.04	46349.63
597.20	46342.61
597.36	46064.08
597.51	46586.02
597.67	46141.32
597.83	46417.50
597.99	46721.77
598.14	46424.53
598.30	46361.33
598.46	46600.07
598.61	46183.45
598.77	46078.13
598.93	46511.13
599.09	46628.15
599.24	46358.99
599.40	46717.09
599.56	46616.45
599.71	46576.66
599.87	46667.94
600.03	46590.70
600.18	46054.72
600.34	46543.89
600.50	46316.86
600.65	46593.04
600.81	46061.74
600.97	46529.85
601.12	46445.59
601.28	46604.75
601.44	46138.98
601.59	45759.81
601.75	45904.93
601.91	46483.04
602.06	46164.73
602.22	46368.35
602.37	46391.76
602.53	46501.76
602.69	46642.20
602.84	46300.48
603.00	46059.40
603.16	46480.70
603.31	46260.69
603.47	46356.65
603.62	46256.01
603.78	46480.70
603.94	46305.16
604.09	46251.33
604.25	46246.65
604.40	46244.30
604.56	46073.45
604.71	46127.28
604.87	46302.82
605.03	46197.49
605.18	45970.46
605.34	46457.29
605.49	46391.76
605.65	46408.14
605.80	46078.13
605.96	46469.00
606.12	46354.31
606.27	46277.07
606.43	45656.83
606.58	46096.85
606.74	46185.79
606.89	45703.64
607.05	46155.36
607.20	46403.46
607.36	46384.74
607.51	46195.15
607.67	46302.82
607.82	46071.10
607.98	45881.52
608.13	45890.88
608.29	45696.62
608.44	45872.16
608.60	45656.83
608.75	46071.10
608.91	45869.82
609.06	46017.27
609.22	45961.10
609.37	46071.10
609.53	45930.67
609.68	46176.43
609.84	45963.44
609.99	45399.37
610.15	45581.93
610.30	45404.05
610.46	45696.62
610.61	45682.58
610.76	45691.94
610.92	45713.00
611.07	46031.32
611.23	45727.05
611.38	46115.58
611.54	45617.04
611.69	45694.28
611.84	44891.48
612.00	45345.54
612.15	45422.78
612.31	45755.13
612.46	45181.70
612.62	45764.49
612.77	45261.28
612.92	45488.31
613.08	45464.91
613.23	45408.73
613.39	44889.13
613.54	44912.54
613.69	45167.66
613.85	44889.13
614.00	45254.26
614.15	45050.63
614.31	45090.42
614.46	45846.41
614.62	45382.99
614.77	45162.98
614.92	45041.27
615.08	44793.17
615.23	44453.79
615.38	45127.87
615.54	44832.96
615.69	45048.29
615.84	44912.54
616.00	45043.61
616.15	45151.27
616.30	44664.44
616.46	44973.39
616.61	44570.82
616.76	44472.52
616.92	44053.56
617.07	44659.76
617.22	44641.04
617.37	44587.21
617.53	44430.39
617.68	44577.84
617.83	44596.57
617.99	44594.23
618.14	44961.69
618.29	44596.57
618.45	44563.80
618.60	44165.91
618.75	43966.96
618.90	44378.90
619.06	44296.98
619.21	44140.16
619.36	44360.17
619.51	44161.23
619.67	44053.56
619.82	44355.49
619.97	44484.22
620.12	43636.95
620.28	43742.27
620.43	44596.57
620.58	44128.46
620.73	44285.28
620.89	44442.09
621.04	44378.90
621.19	44350.81
621.34	43562.05
621.49	44130.80
621.65	43992.71
621.80	44610.61
621.95	44060.58
622.10	44320.38
622.25	43948.24
622.41	43936.54
622.56	43861.64
622.71	44168.25
622.86	43952.92
623.01	43714.19
623.16	44105.06
623.32	43517.58
623.47	43681.42
623.62	44011.43
623.77	43688.44
623.92	43861.64
624.07	43770.36
624.23	43775.04
624.38	43316.29
624.53	43487.15
624.68	43789.08
624.83	43519.92
624.98	43620.56
625.13	43012.02
625.29	42976.92
625.44	43021.39
625.59	43086.92
625.74	42960.53
625.89	42759.25
626.04	43005.00
626.19	43342.04
626.34	42862.23
626.49	43040.11
626.65	43304.59
626.80	43000.32
626.95	42677.33
627.10	42782.65
627.25	42806.06
627.40	42700.73
627.55	42848.19
627.70	42101.56
627.85	42394.12
628.00	42731.16
628.15	42590.73
628.30	43182.88
628.45	42789.67
628.60	42806.06
628.76	42892.66
628.91	42721.80
629.06	42497.11
629.21	42635.20
629.36	42487.74
629.51	42284.12
629.66	42436.25
629.81	42351.99
629.96	42230.29
630.11	42300.50
630.26	42574.34
630.41	42431.57
630.56	42230.29
630.71	42356.67
630.86	42370.72
631.01	41975.17
631.16	42260.71
631.31	41860.48
631.46	42050.06
631.61	42227.95
631.76	42293.48
631.91	41965.81
632.06	42139.00
632.21	41844.10
632.36	42160.07
632.51	41717.71
632.66	41916.65
632.81	41425.14
632.96	42068.79
633.10	41844.10
633.25	41890.91
633.40	41715.37
633.55	42000.91
633.70	41347.90
633.85	41256.62
634.00	41961.12
634.15	41851.12
634.30	41179.39
634.45	41478.97
634.60	41621.75
634.75	41645.15
634.90	41759.84
635.05	41600.68
635.19	41317.48
635.34	41975.17
635.49	41354.93
635.64	41572.60
635.79	41294.07
635.94	41104.49
636.09	41116.19
636.24	40886.82
636.39	40795.54
636.53	41359.61
636.68	41188.75
636.83	41324.50
636.98	41394.71
637.13	41364.29
637.28	41474.29
637.43	41343.22
637.57	41024.91
637.72	40971.08
637.87	41125.55
638.02	40704.26
638.17	40905.54
638.32	41127.89
638.46	40856.39
638.61	40584.89
638.76	40711.28
638.91	41226.20
639.06	40774.47
639.20	40797.88
639.35	40605.95
639.50	40428.07
639.65	40748.73
639.80	40741.71
639.94	40659.79
640.09	40477.22
640.24	40500.63
640.39	40568.51
640.54	39798.47
640.68	40430.41
640.83	40130.83
640.98	39948.26
641.13	40285.30
641.27	40875.12
641.42	40062.95
641.57	40318.07
641.72	40355.52
641.86	40079.33
642.01	40048.91
642.16	40339.13
642.31	39901.45
642.45	40636.38
642.60	39945.92
642.75	39908.47
642.90	40027.84
643.04	40130.83
643.19	39936.56
643.34	39927.20
643.48	39805.49
643.63	39814.85
643.78	39409.94
643.93	40091.04
644.07	39716.55
644.22	40039.54
644.37	39992.73
644.51	39697.83
644.66	40053.59
644.81	39641.65
644.95	39974.01
645.10	40130.83
645.25	39477.82
645.39	39573.78
645.54	39253.12
645.69	39517.60
645.83	39723.57
645.98	39236.74
646.13	39131.42
646.27	39643.99
646.42	39564.42
646.57	39323.34
646.71	39054.18
646.86	39655.70
647.00	39456.75
647.15	39393.56
647.30	39264.83
647.44	39339.72
647.59	39339.72
647.74	39028.43
647.88	39136.10
648.03	39140.78
648.17	39122.05
648.32	38925.45
648.47	38726.50
648.61	38632.88
648.76	39192.27
648.90	39145.46
649.05	39283.55
649.20	39063.54
649.34	39213.34
649.49	38288.82
649.63	38983.96
649.78	38855.23
649.92	39103.33
650.07	38733.53
650.21	38920.77
650.36	38735.87
650.51	38644.59
650.65	39515.26
650.80	39147.80
650.94	38794.38
651.09	38880.98
651.23	38464.36
651.38	38852.89
651.52	38146.05
651.67	38164.78
651.81	38330.95
651.96	38375.42
652.10	38405.85
652.25	38363.72
652.39	38738.21
652.54	38761.61
652.68	38279.46
652.83	38426.92
652.97	38675.01
653.12	38169.46
653.26	37933.06
653.41	38110.94
653.55	38422.23
653.70	38071.15
653.84	37853.48
653.99	37687.31
654.13	38059.45
654.27	38029.02
654.42	37907.32
654.56	37951.79
654.71	38230.31
654.85	38005.62
655.00	37801.99
655.14	37556.24
655.29	37762.20
655.43	37645.18
655.57	37102.17
655.72	37387.72
655.86	37301.12
656.01	37258.99
656.15	37083.45
656.30	37258.99
656.44	37406.44
656.58	37301.12
656.73	37507.08
656.87	37745.82
657.01	37240.26
657.16	37097.49
657.30	36510.02
657.45	37249.63
657.59	37097.49
657.73	37427.51
657.88	37347.93
658.02	37469.64
658.16	37120.90
658.31	37029.62
658.45	37535.17
658.60	36889.18
658.74	37710.71
658.88	37237.92
659.03	37076.43
659.17	36835.35
659.31	36858.76
659.46	36711.30
659.60	36947.70
659.74	36760.45
659.89	36538.10
660.03	36158.94
660.17	37001.53
660.32	36828.33
660.46	36842.37
660.60	36390.65
660.74	36495.97
660.89	36395.33
661.03	35892.12
661.17	36638.75
661.32	36282.98
661.46	36311.07
661.60	36189.36
661.74	36215.11
661.89	36187.02
662.03	36247.88
662.17	36243.20
662.31	35899.14
662.46	36547.47
662.60	36285.33
662.74	36287.67
662.88	35721.26
663.03	35784.45
663.17	35676.79
663.31	35274.21
663.45	35873.39
663.60	35739.98
663.74	35466.14
663.88	35318.68
664.02	35704.87
664.17	35789.13
664.31	35236.77
664.45	35105.70
664.59	34899.73
664.73	35262.51
664.88	35557.42
665.02	34693.76
665.16	34852.92
665.30	34820.15
665.44	34572.05
665.59	34377.79
665.73	35154.85
665.87	34286.51
666.01	34768.66
666.15	34848.24
666.29	35049.52
666.44	34595.46
666.58	34405.88
666.72	34515.88
666.86	34129.69
667.00	33977.56
667.14	34146.08
667.28	34394.17
667.43	34286.51
667.57	33996.28
667.71	34050.11
667.85	34078.20
667.99	34181.18
668.13	33975.22
668.27	33893.30
668.41	34052.45
668.56	33869.89
668.70	33844.15
668.84	33567.96
668.98	33748.18
669.12	33687.33
669.26	33429.87
669.40	33390.08
669.54	33308.16
669.68	33209.86
669.82	33041.34
669.96	33167.73
670.10	32994.53
670.25	33022.62
670.39	32964.10
670.53	32898.57
670.67	32652.81
670.81	32683.24
670.95	33266.03
671.09	32627.07
671.23	32701.96
671.37	32437.48
671.51	32566.21
671.65	32549.83
671.79	32095.77
671.93	32018.53
672.07	31992.78
672.21	32325.14
672.35	32201.09
672.49	32025.55
672.63	31892.14
672.77	31796.18
672.91	32018.53
673.05	31714.26
673.19	31592.55
673.33	31346.79
673.47	31835.97
673.61	31534.04
673.75	31356.16
673.89	31391.26
674.03	31105.72
674.17	31459.14
674.31	31023.80
674.45	31234.45
674.59	31360.84
674.73	31070.61
674.87	31180.62
675.01	30946.56
675.15	30852.94
675.29	30792.09
675.43	30616.55
675.56	30902.09
675.70	30705.49
675.84	30756.98
675.98	29247.33
676.12	30412.92
676.26	30609.53
676.40	30242.06
676.54	30487.82
676.68	30103.97
676.82	29240.31
676.96	30078.22
677.10	30096.95
677.23	29776.30
677.37	29659.27
677.51	29993.97
677.65	29259.04
677.79	29109.24
677.93	28959.45
678.07	29088.18
678.21	28519.43
678.34	28774.55
678.48	28465.60
678.62	28528.79
678.76	28371.97
678.90	27871.10
679.04	28456.23
679.18	28343.89
679.31	28166.01
679.45	28240.90
679.59	27985.79
679.73	28524.11
679.87	28046.64
680.00	27742.37
680.14	27880.46
680.28	28037.28
680.42	27461.51
680.56	27723.65
680.70	27260.22
680.83	27484.91
680.97	27218.09
681.11	27250.86
681.25	27077.66
681.39	26911.48
681.52	27049.57
681.66	27040.21
681.80	26841.26
681.94	26752.32
682.07	26911.48
682.21	26595.51
682.35	26572.10
682.49	26501.89
682.62	26314.64
682.76	25940.16
682.90	26225.70
683.04	25680.36
683.17	26066.55
683.31	25710.78
683.45	25872.28
683.59	25717.81
683.72	25596.10
683.86	25404.17
684.00	25439.28
684.13	25195.87
684.27	25135.01
684.41	24872.87
684.55	25230.98
684.68	25149.06
684.82	24971.18
684.96	25017.99
685.09	25156.08
685.23	24645.84
685.37	24783.93
685.50	24655.20
685.64	24437.53
685.78	24486.68
685.91	24156.67
686.05	23995.17
686.19	23669.84
686.32	23573.88
686.46	23665.16
686.60	23119.81
686.73	23316.42
686.87	23311.74
687.01	23197.05
687.14	23070.66
687.28	22773.41
687.42	22682.13
687.55	23063.64
687.69	22829.59
687.82	22899.80
687.96	22562.76
688.10	22864.69
688.23	22843.63
688.37	22466.80
688.50	22820.22
688.64	22541.70
688.78	22319.35
688.91	22174.24
689.05	22129.77
689.18	21668.68
689.32	21553.99
689.46	21937.84
689.59	22436.38
689.73	22092.32
689.86	21797.41
690.00	21523.57
690.13	21399.52
690.27	21191.21
690.41	21212.28
690.54	21106.95
690.68	21570.38
690.81	21495.48
690.95	21132.70
691.08	20952.48
691.22	20875.24
691.35	20849.49
691.49	20772.25
691.62	20648.21
691.76	20783.96
691.89	21034.39
692.03	20585.01
692.16	20470.33
692.30	20264.36
692.43	20332.23
692.57	19878.17
692.70	20084.14
692.84	20229.25
692.97	19887.53
693.11	19585.60
693.24	19751.78
693.38	19541.13
693.51	19866.47
693.65	19693.27
693.78	19515.39
693.92	19295.38
694.05	19482.62
694.19	18925.57
694.32	19316.44
694.45	19283.67
694.59	19070.68
694.72	19066.00
694.86	18845.99
694.99	18410.65
695.13	18712.58
695.26	18892.80
695.39	18682.16
695.53	18558.11
695.66	18480.87
695.80	18527.68
695.93	18284.26
696.07	18298.31
696.20	18302.99
696.33	18333.42
696.47	18090.00
696.60	17877.01
696.73	17661.68
696.87	17628.92
697.00	17797.43
697.14	17617.21
697.27	17216.98
697.40	17446.35
697.54	17434.65
697.67	17198.26
697.80	17280.18
697.94	16737.17
698.07	17322.30
698.21	17064.85
698.34	17036.76
698.47	16994.63
698.61	16737.17
698.74	16769.94
698.87	16783.98
699.01	16432.90
699.14	16596.74
699.27	16322.90
699.40	16442.26
699.54	16140.33
699.67	16238.64
699.80	16168.42
699.94	16037.35
700.07	15929.69
700.20	15913.30
700.34	16002.24
700.47	15796.28
700.60	15967.13
700.73	15819.68
700.87	15730.74
701.00	15578.61
701.13	15417.11
701.26	15555.20
701.40	15307.10
701.53	15419.45
701.66	15185.40
701.79	15157.31
701.93	15096.46
702.06	15145.61
702.19	14810.91
702.32	14644.73
702.46	14661.12
702.59	14775.80
702.72	14733.67
702.85	14747.72
702.99	14721.97
703.12	14267.91
703.25	14342.80
703.38	14469.19
703.51	14466.85
703.65	14274.93
703.78	14167.26
703.91	13933.21
704.04	13998.74
704.17	13851.29
704.31	13937.89
704.44	13926.19
704.57	13748.31
704.70	13535.32
704.83	13661.71
704.96	13729.58
705.10	13483.83
705.23	13336.37
>>>>>End Processed Spectral Data<<<<<
