SpectraSuite Data File
++++++++++++++++++++++++++++++++++++
Date: Fri Oct 25 11:33:08 EDT 2013
User: price-jones
Dark Spectrum Present: No
Reference Spectrum Present: No
Number of Sampled Component Spectra: 1
Spectrometers: USB2+H05261
Integration Time (usec): 100000 (USB2+H05261)
Spectra Averaged: 1 (USB2+H05261)
Boxcar Smoothing: 0 (USB2+H05261)
Correct for Electrical Dark: No (USB2+H05261)
Strobe/Lamp Enabled: No (USB2+H05261)
Correct for Detector Non-linearity: No (USB2+H05261)
Correct for Stray Light: No (USB2+H05261)
Number of Pixels in Processed Spectrum: 2048
>>>>>Begin Processed Spectral Data<<<<<
365.73	285.55
365.92	285.55
366.12	285.55
366.32	236.39
366.52	212.99
366.72	234.05
366.91	154.48
367.11	180.22
367.31	187.24
367.51	154.48
367.70	154.48
367.90	248.10
368.10	135.75
368.30	205.97
368.49	184.90
368.69	182.56
368.89	154.48
369.09	170.86
369.28	189.58
369.48	184.90
369.68	159.16
369.87	210.65
370.07	217.67
370.27	327.68
370.47	341.72
370.66	531.30
370.86	482.15
371.06	557.05
371.25	585.13
371.45	540.66
371.65	592.16
371.84	580.45
372.04	538.32
372.24	592.16
372.44	571.09
372.63	486.83
372.83	624.92
373.03	650.67
373.22	589.82
373.42	564.07
373.62	596.84
373.81	571.09
374.01	631.94
374.21	603.86
374.40	629.60
374.60	697.48
374.79	603.86
374.99	645.99
375.19	624.92
375.38	608.54
375.58	664.71
375.78	702.16
375.97	620.24
376.17	760.67
376.37	638.97
376.56	697.48
376.76	650.67
376.95	582.79
377.15	589.82
377.35	688.12
377.54	634.29
377.74	709.18
377.93	676.41
378.13	624.92
378.33	669.39
378.52	629.60
378.72	692.80
378.91	760.67
379.11	765.36
379.31	699.82
379.50	704.50
379.70	763.01
379.89	737.27
380.09	765.36
380.28	716.20
380.48	770.04
380.68	662.37
380.87	760.67
381.07	739.61
381.26	835.57
381.46	793.44
381.65	805.14
381.85	758.33
382.04	751.31
382.24	807.48
382.43	777.06
382.63	730.25
382.83	786.42
383.02	835.57
383.22	903.45
383.41	746.63
383.61	802.80
383.80	802.80
384.00	915.15
384.19	763.01
384.39	833.23
384.58	877.70
384.78	849.61
384.97	940.90
385.17	856.64
385.36	809.83
385.56	793.44
385.75	999.41
385.95	858.98
386.14	910.47
386.34	798.12
386.53	866.00
386.72	910.47
386.92	903.45
387.11	905.79
387.31	926.85
387.50	837.91
387.70	929.19
387.89	915.15
388.09	917.49
388.28	959.62
388.48	959.62
388.67	1046.22
388.86	929.19
389.06	959.62
389.25	954.94
389.45	987.71
389.64	940.90
389.84	947.92
390.03	983.02
390.22	990.05
390.42	976.00
390.61	961.96
390.81	938.55
391.00	980.68
391.19	1090.69
391.39	985.37
391.58	1069.62
391.78	1048.56
391.97	1041.54
392.16	999.41
392.36	1109.41
392.55	1027.50
392.75	1088.35
392.94	997.07
393.13	1020.47
393.33	1090.69
393.52	1081.33
393.71	1188.99
393.91	1076.65
394.10	1034.52
394.29	1139.84
394.49	1156.22
394.68	1160.91
394.88	1074.31
395.07	1064.94
395.26	1083.67
395.46	1174.95
395.65	1210.06
395.84	1179.63
396.04	1163.25
396.23	1193.67
396.42	1139.84
396.62	1219.42
396.81	1284.95
397.00	1135.16
397.19	1249.85
397.39	1231.12
397.58	1245.16
397.77	1303.68
397.97	1296.66
398.16	1256.87
398.35	1313.04
398.55	1348.15
398.74	1348.15
398.93	1299.00
399.12	1406.66
399.32	1268.57
399.51	1341.13
399.70	1439.43
399.90	1280.27
400.09	1284.95
400.28	1423.05
400.47	1383.26
400.67	1336.45
400.86	1394.96
401.05	1427.73
401.24	1540.07
401.44	1451.13
401.63	1504.96
401.82	1451.13
402.01	1416.02
402.21	1540.07
402.40	1460.49
402.59	1483.90
402.78	1490.92
402.97	1530.71
403.17	1514.33
403.36	1500.28
403.55	1584.54
403.74	1551.78
403.93	1575.18
404.13	1633.69
404.32	1533.05
404.51	1556.46
404.70	1689.87
404.89	1626.67
405.09	1717.95
405.28	1741.36
405.47	1666.46
405.66	1694.55
405.85	1654.76
406.05	1834.98
406.24	1783.49
406.43	1706.25
406.62	1809.23
406.81	1792.85
407.00	1743.70
407.20	1757.74
407.39	1706.25
407.58	1802.21
407.77	1914.56
407.96	1785.83
408.15	1799.87
408.34	1863.07
408.54	1820.94
408.73	1940.30
408.92	1926.26
409.11	2054.99
409.30	2057.33
409.49	1947.33
409.68	1942.64
409.87	1977.75
410.07	2172.02
410.26	2052.65
410.45	2054.99
410.64	2113.50
410.83	2108.82
411.02	2122.87
411.21	2167.34
411.40	2047.97
411.59	2251.60
411.78	2207.13
411.98	2193.08
412.17	2232.87
412.36	2293.72
412.55	2282.02
412.74	2387.35
412.93	2361.60
413.12	2305.43
413.31	2380.32
413.50	2443.52
413.69	2403.73
413.88	2513.74
414.07	2483.31
414.26	2485.65
414.45	2452.88
414.64	2462.24
414.83	2691.62
415.02	2677.57
415.22	2649.49
415.41	2581.61
415.60	2590.97
415.79	2745.45
415.98	2810.98
416.17	2773.53
416.36	2778.22
416.55	2689.28
416.74	2890.56
416.93	2834.39
417.12	2818.00
417.31	2867.16
417.50	2878.86
417.69	3061.42
417.88	3080.14
418.07	2899.92
418.26	2878.86
418.45	2930.35
418.64	3213.56
418.83	3094.19
419.02	2979.50
419.21	3087.17
419.39	3119.93
419.58	2932.69
419.77	3084.83
419.96	3133.98
420.15	3218.24
420.34	3122.27
420.53	3232.28
420.72	3283.77
420.91	3204.19
421.10	3148.02
421.29	3344.63
421.48	3314.20
421.67	3379.73
421.86	3300.16
422.05	3215.90
422.24	3379.73
422.43	3459.31
422.61	3368.03
422.80	3375.05
422.99	3473.36
423.18	3456.97
423.37	3475.70
423.56	3445.27
423.75	3311.86
423.94	3431.23
424.13	3258.03
424.32	3297.81
424.50	3508.46
424.69	3550.59
424.88	3454.63
425.07	3431.23
425.26	3489.74
425.45	3421.86
425.64	3426.54
425.83	3412.50
426.01	3515.48
426.20	3630.17
426.39	3536.55
426.58	3620.81
426.77	3564.64
426.96	3651.24
427.15	3609.11
427.33	3660.60
427.52	3508.46
427.71	3698.05
427.90	3651.24
428.09	3665.28
428.28	3721.45
428.46	3730.81
428.65	3674.64
428.84	3768.26
429.03	3936.78
429.22	3772.94
429.40	3801.03
429.59	3850.18
429.78	3712.09
429.97	3688.68
430.16	3915.72
430.34	3896.99
430.53	3913.38
430.72	4067.85
430.91	3941.46
431.10	3808.05
431.28	3969.55
431.47	4112.32
431.66	4109.98
431.85	3985.93
432.03	4039.76
432.22	4152.11
432.41	4100.62
432.60	4079.55
432.79	4049.13
432.97	4161.47
433.16	4217.65
433.35	4121.68
433.54	4252.75
433.72	4250.41
433.91	4154.45
434.10	4210.62
434.28	4276.16
434.47	4369.78
434.66	4170.83
434.85	4273.82
435.03	4294.88
435.22	4514.89
435.41	4465.74
435.59	4381.48
435.78	4428.29
435.97	4430.63
436.16	4355.74
436.34	4360.42
436.53	4589.79
436.72	4655.33
436.90	4500.85
437.09	4538.30
437.28	4507.87
437.46	4603.83
437.65	4573.41
437.84	4601.49
438.02	4702.14
438.21	4739.58
438.40	4660.01
438.58	4751.29
438.77	4936.19
438.96	4781.71
439.14	4922.15
439.33	4919.81
439.52	4908.10
439.70	4875.34
439.89	5055.56
440.08	5046.20
440.26	5214.71
440.45	4987.68
440.63	5156.20
440.82	5142.16
441.01	5270.89
441.19	5245.14
441.38	5369.19
441.57	5345.78
441.75	5305.99
441.94	5373.87
442.12	5308.34
442.31	5460.47
442.50	5514.30
442.68	5462.81
442.87	5329.40
443.05	5591.54
443.24	5699.20
443.43	5720.27
443.61	5570.48
443.80	5750.70
443.98	5619.63
444.17	5348.12
444.35	5572.82
444.54	5811.55
444.73	5703.89
444.91	5654.73
445.10	5652.39
445.28	5774.10
445.47	5668.78
445.65	5783.46
445.84	5851.34
446.02	5713.25
446.21	5809.21
446.39	5760.06
446.58	5881.77
446.77	5806.87
446.95	5518.98
447.14	5846.66
447.32	5867.72
447.51	5863.04
447.69	5741.33
447.88	5650.05
448.06	5809.21
448.25	5856.02
448.43	5811.55
448.62	5851.34
448.80	5912.19
448.99	5895.81
449.17	5902.83
449.36	5877.09
449.54	5984.75
449.73	6015.18
449.91	6064.33
450.10	6122.84
450.28	6183.70
450.46	6146.25
450.65	6066.67
450.83	6277.32
451.02	5994.11
451.20	6143.91
451.39	6179.01
451.57	6410.73
451.76	6078.37
451.94	6244.55
452.13	6335.83
452.31	6427.11
452.49	6244.55
452.68	6427.11
452.86	6427.11
453.05	6328.81
453.23	6438.81
453.42	6410.73
453.60	6384.98
453.78	6576.91
453.97	6347.53
454.15	6569.88
454.34	6305.40
454.52	6544.14
454.70	6532.44
454.89	6408.39
455.07	6670.53
455.26	6523.07
455.44	6782.87
455.62	6803.94
455.81	6853.09
455.99	6817.98
456.17	6759.47
456.36	6740.74
456.54	6883.52
456.73	6965.43
456.91	7023.95
457.09	7066.08
457.28	7152.68
457.46	6953.73
457.64	7304.81
457.83	7061.40
458.01	7143.32
458.19	7279.07
458.38	7094.16
458.56	7349.28
458.74	7138.63
458.93	7190.13
459.11	7183.10
459.29	7337.58
459.48	7309.49
459.66	7407.80
459.84	7482.69
460.03	7550.57
460.21	7335.24
460.39	7473.33
460.57	7442.90
460.76	7630.15
460.94	7494.40
461.12	7445.24
461.31	7758.88
461.49	7695.68
461.67	7672.28
461.85	7545.89
462.04	7786.96
462.22	8135.70
462.40	8065.49
462.59	7836.11
462.77	7819.73
462.95	7955.48
463.13	7882.92
463.32	7932.08
463.50	8004.63
463.68	8025.70
463.86	8088.89
464.05	7915.69
464.23	8046.76
464.41	7974.21
464.59	7962.50
464.78	8332.31
464.96	7957.82
465.14	7967.18
465.32	8009.31
465.50	8231.66
465.69	8292.52
465.87	8269.11
466.05	8189.53
466.23	8329.97
466.41	8400.18
466.60	8472.74
466.78	8131.02
466.96	8414.23
467.14	8315.92
467.32	8470.40
467.51	8430.61
467.69	8280.82
467.87	8531.25
468.05	8514.87
468.23	8386.14
468.41	8404.86
468.60	8468.06
468.78	8655.30
468.96	8535.93
469.14	8711.47
469.32	8697.43
469.50	8638.92
469.69	8685.73
469.87	8950.21
470.05	8952.55
470.23	8889.35
470.41	8905.74
470.59	8865.95
470.77	8767.65
470.95	8865.95
471.14	9121.07
471.32	8964.25
471.50	9088.30
471.68	9275.54
471.86	9137.45
472.04	9287.25
472.22	9359.80
472.40	9207.67
472.58	9247.46
472.77	9540.02
472.95	9516.62
473.13	9820.89
473.31	9533.00
473.49	9507.26
473.67	9563.43
473.85	9675.77
474.03	9921.53
474.21	9774.08
474.39	9987.07
474.57	9785.78
474.75	10115.80
474.93	9912.17
475.12	10195.37
475.30	9921.53
475.48	10076.01
475.66	10087.71
475.84	10298.36
476.02	10265.59
476.20	10244.52
476.38	10541.77
476.56	10658.80
476.74	10551.14
476.92	10656.46
477.10	10483.26
477.28	10773.49
477.46	10668.16
477.64	10595.61
477.82	11098.82
478.00	11454.58
478.18	11117.54
478.36	11508.41
478.54	11419.47
478.72	11398.41
478.90	11822.05
479.08	11698.00
479.26	11857.15
479.44	11967.16
479.62	12119.29
479.80	12011.63
479.98	12166.10
480.16	12283.13
480.34	11971.84
480.52	12400.16
480.70	12582.72
480.88	12098.23
481.06	12425.90
481.24	12638.89
481.41	12784.01
481.59	12788.69
481.77	12924.44
481.95	12973.59
482.13	13116.36
482.31	13046.15
482.49	13633.62
482.67	13516.59
482.85	13476.80
483.03	13469.78
483.21	13951.93
483.39	14129.81
483.57	14012.79
483.74	13926.19
483.92	14057.26
484.10	14080.66
484.28	14420.04
484.46	14714.95
484.64	14700.90
484.82	14705.59
485.00	14878.79
485.18	15374.98
485.35	15321.15
485.53	15185.40
485.71	15337.53
485.89	15653.50
486.07	15531.80
486.25	15428.81
486.43	15735.42
486.61	16133.31
486.78	15985.86
486.96	15915.64
487.14	16252.68
487.32	16376.73
487.50	16793.34
487.68	16360.34
487.85	16753.55
488.03	17020.38
488.21	17128.04
488.39	17167.83
488.57	17022.72
488.75	17462.74
488.92	17523.59
489.10	17605.51
489.28	17930.84
489.46	18150.85
489.64	17834.88
489.81	18267.88
489.99	18581.51
490.17	18469.17
490.35	18888.12
490.53	18721.95
490.70	18813.23
490.88	18909.19
491.06	18864.72
491.24	19089.41
491.41	19573.90
491.59	19262.61
491.77	19503.68
491.95	19491.98
492.13	19857.10
492.30	19983.49
492.48	19957.75
492.66	20072.43
492.84	20280.74
493.01	20397.77
493.19	20404.79
493.37	20798.00
493.54	20615.44
493.72	20603.74
493.90	21027.37
494.08	21120.99
494.25	21392.50
494.43	21191.21
494.61	21413.56
494.79	21687.40
494.96	21406.54
495.14	21771.66
495.32	22272.54
495.49	21991.67
495.67	21811.45
495.85	22225.73
496.02	22328.71
496.20	22604.89
496.38	22614.26
496.55	22429.35
496.73	23096.41
496.91	22733.62
497.09	22939.59
497.26	22941.93
497.44	23145.56
497.62	23000.44
497.79	23398.34
497.97	23487.28
498.14	24109.86
498.32	23662.82
498.50	24222.20
498.67	23927.30
498.85	24245.61
499.03	24238.59
499.20	24397.74
499.38	24610.73
499.56	24556.90
499.73	24655.20
499.91	24847.13
500.08	24907.98
500.26	24851.81
500.44	25034.37
500.61	25144.38
500.79	24999.26
500.97	25298.85
501.14	25493.12
501.32	25816.11
501.49	25682.70
501.67	25563.33
501.84	26096.97
502.02	25626.53
502.20	26122.72
502.37	26008.03
502.55	26167.19
502.72	26155.49
502.90	26244.43
503.07	26274.85
503.25	26050.16
503.43	26286.56
503.60	26656.36
503.78	26764.03
503.95	26377.84
504.13	26775.73
504.30	26888.07
504.48	26939.57
504.65	27115.11
504.83	27473.21
505.01	27583.21
505.18	27335.12
505.36	27784.50
505.53	27623.00
505.71	27782.16
505.88	27529.38
506.06	27679.18
506.23	28446.87
506.41	28039.62
506.58	28053.66
506.76	28287.71
506.93	28332.18
507.11	28283.03
507.28	28762.84
507.46	28273.67
507.63	28517.09
507.81	28701.99
507.98	28418.78
508.16	28514.75
508.33	29006.26
508.50	29289.46
508.68	29240.31
508.85	29570.33
509.03	29226.27
509.20	29228.61
509.38	29439.26
509.55	29785.66
509.73	29654.59
509.90	29692.04
510.08	29750.55
510.25	29694.38
510.42	29556.28
510.60	30246.74
510.77	30518.25
510.95	30433.99
511.12	30155.46
511.30	30354.41
511.47	30499.52
511.64	30527.61
511.82	30366.11
511.99	30890.39
512.17	30829.54
512.34	30749.96
512.51	31276.58
512.69	31040.18
512.86	31215.72
513.04	31288.28
513.21	31248.49
513.38	31594.89
513.56	31267.22
513.73	31328.07
513.90	31452.12
514.08	31566.81
514.25	32226.84
514.43	31789.16
514.60	31936.61
514.77	31845.33
514.95	32460.89
515.12	31627.66
515.29	31828.95
515.47	32184.71
515.64	32507.70
515.81	32189.39
515.99	32507.70
516.16	32994.53
516.33	32767.50
516.51	32999.21
516.68	32577.92
516.85	33055.39
517.03	32968.79
517.20	33191.14
517.37	32936.02
517.54	33200.50
517.72	33205.18
517.89	33277.74
518.06	33298.80
518.24	33249.65
518.41	33291.78
518.58	33177.09
518.75	33668.61
518.93	33429.87
519.10	33340.93
519.27	34167.14
519.45	33914.36
519.62	34010.32
519.79	34361.40
519.96	34150.76
520.14	34389.49
520.31	34249.06
520.48	34314.59
520.65	34197.57
520.83	34410.56
521.00	34817.81
521.17	34642.27
521.34	35206.34
521.52	35023.78
521.69	34845.90
521.86	35213.36
522.03	35044.84
522.20	34983.99
522.38	35489.54
522.55	35281.24
522.72	35438.05
522.89	35681.47
523.07	35644.02
523.24	35512.95
523.41	35948.29
523.58	35515.29
523.75	35981.06
523.92	35391.24
524.10	35721.26
524.27	35943.61
524.44	35964.67
524.61	36208.09
524.78	36058.29
524.96	36217.45
525.13	36201.07
525.30	36554.49
525.47	36615.34
525.64	36439.80
525.81	36648.11
525.98	37163.03
526.16	36603.64
526.33	36620.02
526.50	36994.51
526.67	36746.41
526.84	37046.00
527.01	36989.83
527.18	37287.07
527.36	37434.53
527.53	37368.99
527.70	37305.80
527.87	37523.47
528.04	37493.04
528.21	37511.77
528.38	37406.44
528.55	37792.63
528.72	37464.96
528.89	37652.20
529.07	37975.19
529.24	37539.85
529.41	38153.07
529.58	37844.12
529.75	37743.48
529.92	38380.10
530.09	37708.37
530.26	38455.00
530.43	38328.61
530.60	37593.68
530.77	38078.18
530.94	38780.34
531.11	38326.27
531.28	38628.20
531.46	38302.87
531.63	38696.08
531.80	38607.14
531.97	39112.69
532.14	38326.27
532.31	38607.14
532.48	38913.75
532.65	39019.07
532.82	38923.11
532.99	38965.24
533.16	38813.10
533.33	39042.48
533.50	39311.64
533.67	38859.91
533.84	38721.82
534.01	39365.47
534.18	39175.89
534.35	39936.56
534.52	39564.42
534.69	39721.23
534.86	39686.12
535.03	39875.71
535.20	40020.82
535.37	39749.32
535.54	39901.45
535.71	39723.57
535.88	39990.39
536.05	40100.40
536.22	40346.15
536.38	40238.49
536.55	39819.53
536.72	40381.26
536.89	39983.37
537.06	40566.16
537.23	40444.46
537.40	40769.79
537.57	40205.72
537.74	40329.77
537.91	40870.43
538.08	40306.37
538.25	40004.44
538.42	40402.33
538.59	40912.56
538.75	40751.07
538.92	40814.26
539.09	41184.07
539.26	41078.74
539.43	40854.05
539.60	41308.11
539.77	40884.48
539.94	41048.32
540.11	41172.36
540.28	41743.45
540.44	41422.80
540.61	40919.59
540.78	41607.70
540.95	41537.49
541.12	41163.00
541.29	41322.16
541.46	41261.30
541.62	41345.56
541.79	41942.40
541.96	40821.28
542.13	41109.17
542.30	41361.95
542.47	41890.91
542.63	42183.48
542.80	41984.53
542.97	42351.99
543.14	42368.38
543.31	42450.30
543.48	41839.42
543.64	42363.70
543.81	42450.30
543.98	42366.04
544.15	42316.89
544.32	42602.43
544.48	42761.59
544.65	42529.87
544.82	42955.85
544.99	42424.55
545.16	42731.16
545.32	42829.46
545.49	43037.77
545.66	43395.87
545.83	42841.17
546.00	43016.71
546.16	42663.28
546.33	43126.71
546.50	42988.62
546.67	43178.20
546.83	42679.67
547.00	42887.98
547.17	43147.78
547.34	43459.07
547.50	43578.43
547.67	43489.49
547.84	43779.72
548.00	43510.56
548.17	43772.70
548.34	43952.92
548.51	43887.39
548.67	43335.02
548.84	43716.53
549.01	43639.29
549.18	43810.15
549.34	44076.97
549.51	43725.89
549.68	44563.80
549.84	44172.93
550.01	44109.74
550.18	43634.61
550.34	43866.32
550.51	44378.90
550.68	44268.89
550.84	44011.43
551.01	44486.56
551.18	44172.93
551.34	44194.00
551.51	43941.22
551.68	44121.44
551.84	44233.78
552.01	44332.09
552.18	44266.55
552.34	44425.71
552.51	44446.77
552.68	44299.32
552.84	44273.57
553.01	44456.14
553.18	44334.43
553.34	44765.09
553.51	44765.09
553.67	44933.60
553.84	44947.65
554.01	44858.71
554.17	45123.19
554.34	45390.01
554.51	44823.60
554.67	45310.43
554.84	45036.59
555.00	44931.26
555.17	44910.20
555.33	44949.99
555.50	44900.84
555.67	45109.14
555.83	45577.25
556.00	45401.71
556.16	45677.90
556.33	45067.02
556.50	45219.15
556.66	45109.14
556.83	45261.28
556.99	45514.06
557.16	45773.86
557.32	45317.45
557.49	45518.74
557.65	45324.47
557.82	45530.44
557.98	45577.25
558.15	45378.31
558.32	45865.14
558.48	45649.81
558.65	45722.37
558.81	45813.65
558.98	45764.49
559.14	45572.57
559.31	45603.00
559.47	45830.03
559.64	45766.84
559.80	46010.25
559.97	45989.19
560.13	45392.35
560.30	45937.69
560.46	45818.33
560.63	46370.69
560.79	46195.15
560.96	46508.79
561.12	46237.28
561.29	46335.59
561.45	46330.90
561.61	45977.48
561.78	45914.29
561.94	46017.27
562.11	46433.89
562.27	46258.35
562.44	45986.85
562.60	46564.96
562.77	46354.31
562.93	46220.90
563.10	46679.64
563.26	46307.50
563.42	46499.42
563.59	46588.36
563.75	46328.56
563.92	46258.35
564.08	46480.70
564.24	46745.18
564.41	46461.97
564.57	46838.80
564.74	46625.81
564.90	46480.70
565.07	46820.08
565.23	46457.29
565.39	46625.81
565.56	46700.71
565.72	46403.46
565.88	46822.42
566.05	46815.40
566.21	46770.93
566.38	46845.82
566.54	46740.50
566.70	46911.36
566.87	46674.96
567.03	46478.36
567.19	47281.16
567.36	46834.12
567.52	46890.29
567.68	46951.15
567.85	46550.91
568.01	46630.49
568.17	46862.21
568.34	46990.94
568.50	46876.25
568.66	46700.71
568.83	46892.63
568.99	46941.78
569.15	47044.77
569.32	46759.22
569.48	46958.17
569.64	47351.38
569.81	47103.28
569.97	47290.52
570.13	47323.29
570.30	46976.89
570.46	47274.14
570.62	46787.31
570.78	47117.32
570.95	47337.33
571.11	46890.29
571.27	46923.06
571.43	46883.27
571.60	47421.59
571.76	46979.23
571.92	47360.74
572.09	47178.18
572.25	47227.33
572.41	47065.83
572.57	47332.65
572.74	47669.69
572.90	47248.39
573.06	47297.55
573.22	47168.82
573.38	47524.58
573.55	47372.44
573.71	47910.77
573.87	47276.48
574.03	47332.65
574.20	47693.10
574.36	47501.17
574.52	47318.61
574.68	47459.04
574.84	47679.05
575.01	47461.38
575.17	47473.09
575.33	47445.00
575.49	47332.65
575.65	47274.14
575.82	47505.85
575.98	47178.18
576.14	47723.52
576.30	47753.95
576.46	47693.10
576.62	47552.66
576.79	47779.70
576.95	47007.32
577.11	47232.01
577.27	47482.45
577.43	47489.47
577.59	47437.98
577.75	47442.66
577.92	47124.35
578.08	47437.98
578.24	47224.99
578.40	47641.60
578.56	47971.62
578.72	47723.52
578.88	47707.14
579.04	47515.22
579.21	47452.02
579.37	47583.09
579.53	47990.34
579.69	47533.94
579.85	47388.83
580.01	47524.58
580.17	47426.28
580.33	47758.63
580.49	47796.08
580.65	47672.03
580.82	47498.83
580.98	47957.58
581.14	47131.37
581.30	47639.26
581.46	47873.32
581.62	47814.80
581.78	47330.31
581.94	48161.20
582.10	47653.31
582.26	47604.16
582.42	47962.26
582.58	47545.64
582.74	47826.51
582.90	47309.25
583.06	47929.49
583.22	47447.34
583.38	47913.11
583.54	47784.38
583.70	47611.18
583.86	48161.20
584.02	48025.45
584.18	48629.31
584.34	47913.11
584.50	48175.25
584.66	47929.49
584.82	47870.98
584.98	48079.28
585.14	48154.18
585.30	47882.68
585.46	47725.86
585.62	47980.98
585.78	47826.51
585.94	47665.01
586.10	47632.24
586.26	47721.18
586.42	47695.44
586.58	47821.83
586.74	47861.61
586.90	47576.07
587.06	48203.33
587.22	48011.41
587.38	47784.38
587.54	47910.77
587.70	48275.89
587.86	47882.68
588.02	47896.72
588.18	48109.71
588.34	47807.78
588.49	47920.13
588.65	47943.53
588.81	48027.79
588.97	48432.71
589.13	48023.11
589.29	47910.77
589.45	48545.05
589.61	48292.27
589.77	48231.42
589.93	48196.31
590.08	48348.45
590.24	48346.11
590.40	48514.62
590.56	48514.62
590.72	48399.94
590.88	48083.97
591.04	48339.08
591.20	48313.34
591.35	48390.58
591.51	48481.86
591.67	48444.41
591.83	48645.69
591.99	48357.81
592.15	48217.38
592.31	47852.25
592.46	47875.66
592.62	48559.09
592.78	48561.44
592.94	48978.05
593.10	48821.23
593.26	48837.62
593.41	48472.49
593.57	48655.06
593.73	48175.25
593.89	48889.11
594.05	48559.09
594.20	48720.59
594.36	48837.62
594.52	48821.23
594.68	48519.31
594.84	48612.93
594.99	48566.12
595.15	48238.44
595.31	48804.85
595.47	48601.22
595.62	48540.37
595.78	48428.02
595.94	48608.25
596.10	48271.21
596.25	48676.12
596.41	48694.85
596.57	48559.09
596.73	48917.20
596.88	48968.69
597.04	48725.27
597.20	48690.16
597.36	48350.79
597.51	48758.04
597.67	48596.54
597.83	48685.48
597.99	48463.13
598.14	48549.73
598.30	48758.04
598.46	48949.96
598.61	49120.82
598.77	48765.06
598.93	48561.44
599.09	48744.00
599.24	49230.83
599.40	48734.63
599.56	49205.08
599.71	49083.37
599.87	49195.72
600.03	48893.79
600.18	48907.83
600.34	48521.65
600.50	48488.88
600.65	48971.03
600.81	49071.67
600.97	48748.68
601.12	48741.66
601.28	48776.76
601.44	48814.21
601.59	48779.10
601.75	48802.51
601.91	48816.55
602.06	48825.92
602.22	48947.62
602.37	48664.42
602.53	48495.90
602.69	48573.14
602.84	48456.11
603.00	48523.99
603.16	48954.64
603.31	49151.25
603.47	48956.99
603.62	48896.13
603.78	48971.03
603.94	49083.37
604.09	48498.24
604.25	48575.48
604.40	48573.14
604.56	48699.53
604.71	49144.23
604.87	48575.48
605.03	48465.47
605.18	48545.05
605.34	48744.00
605.49	48512.28
605.65	49017.84
605.80	48662.08
605.96	48690.16
606.12	48381.21
606.27	48945.28
606.43	48385.89
606.58	48868.05
606.74	48809.53
606.89	48690.16
607.05	48849.32
607.20	49031.88
607.36	48645.69
607.51	48809.53
607.67	48458.45
607.82	48575.48
607.98	48832.94
608.13	48472.49
608.29	48655.06
608.44	48624.63
608.60	48130.78
608.75	48591.86
608.91	48013.75
609.06	48690.16
609.22	48509.94
609.37	48495.90
609.53	48575.48
609.68	48666.76
609.84	48486.54
609.99	48535.69
610.15	48690.16
610.30	48659.74
610.46	48334.40
610.61	48615.27
610.76	48533.35
610.92	48107.37
611.07	48238.44
611.23	48179.93
611.38	48842.30
611.54	48512.28
611.69	48886.77
611.84	48889.11
612.00	48322.70
612.15	48107.37
612.31	48252.48
612.46	47842.89
612.62	48210.35
612.77	48388.24
612.92	48437.39
613.08	48250.14
613.23	48112.05
613.39	48341.42
613.54	48086.31
613.69	48254.82
613.85	47988.00
614.00	48058.22
614.15	48332.06
614.31	48325.04
614.46	48051.20
614.62	48261.85
614.77	48098.01
614.92	48172.91
615.08	48205.67
615.23	48259.51
615.38	48296.95
615.54	48027.79
615.69	47903.74
615.84	48009.07
616.00	48177.59
616.15	48186.95
616.30	48500.58
616.46	47573.73
616.61	47922.47
616.76	48193.97
616.92	47796.08
617.07	47969.28
617.22	47852.25
617.37	47299.89
617.53	47777.36
617.68	48002.05
617.83	47627.56
617.99	47805.44
618.14	48025.45
618.29	47709.48
618.45	47496.49
618.60	47412.23
618.75	47367.76
618.90	47648.63
619.06	47571.39
619.21	47370.10
619.36	47908.43
619.51	47454.36
619.67	47323.29
619.82	47302.23
619.97	47634.58
620.12	47384.15
620.28	47278.82
620.43	47749.27
620.58	47927.15
620.73	47608.84
620.89	47433.30
621.04	47983.32
621.19	47475.43
621.34	47016.68
621.49	47290.52
621.65	47363.08
621.80	47330.31
621.95	46988.60
622.10	47232.01
622.25	47725.86
622.41	47161.79
622.56	46990.94
622.71	47131.37
622.86	47533.94
623.01	47281.16
623.16	47070.51
623.32	47323.29
623.47	47168.82
623.62	46976.89
623.77	47573.73
623.92	47178.18
624.07	47075.19
624.23	47555.00
624.38	47414.57
624.53	46796.67
624.68	47044.77
624.83	46574.32
624.98	46939.44
625.13	46742.84
625.29	47051.79
625.44	46937.10
625.59	46625.81
625.74	47086.90
625.89	46660.92
626.04	46621.13
626.19	46660.92
626.34	46431.55
626.49	46288.77
626.65	46150.68
626.80	46373.03
626.95	46305.16
627.10	46925.40
627.25	46707.73
627.40	46820.08
627.55	46518.15
627.70	46672.62
627.85	46829.44
628.00	46265.37
628.15	46401.12
628.30	45954.08
628.45	45567.89
628.60	45860.46
628.76	46396.44
628.91	46237.28
629.06	45965.78
629.21	46064.08
629.36	46190.47
629.51	46167.07
629.66	46642.20
629.81	46258.35
629.96	46382.40
630.11	46258.35
630.26	45729.39
630.41	46005.57
630.56	45633.42
630.71	46057.06
630.86	45605.34
631.01	45886.20
631.16	45794.92
631.31	45734.07
631.46	45549.17
631.61	45813.65
631.76	46064.08
631.91	45904.93
632.06	46272.39
632.21	46047.70
632.36	46127.28
632.51	45457.88
632.66	45888.54
632.81	45280.00
632.96	45542.14
633.10	45790.24
633.25	45495.33
633.40	45455.54
633.55	45628.74
633.70	45600.66
633.85	45523.42
634.00	44968.71
634.15	45188.72
634.30	45427.46
634.45	45378.31
634.60	45052.97
634.75	45710.66
634.90	45155.96
635.05	45883.86
635.19	45457.88
635.34	45233.19
635.49	45258.94
635.64	45460.23
635.79	45464.91
635.94	45301.07
636.09	45649.81
636.24	45319.79
636.39	45326.81
636.53	45324.47
636.68	45223.83
636.83	44568.48
636.98	44692.53
637.13	44381.24
637.28	44439.75
637.43	44608.27
637.57	44910.20
637.72	44601.25
637.87	44549.76
638.02	44889.13
638.17	44816.58
638.32	44760.40
638.46	44458.48
638.61	44729.98
638.76	44245.49
638.91	44580.18
639.06	44032.50
639.20	44369.54
639.35	44617.63
639.50	44041.86
639.65	44388.26
639.80	44535.71
639.94	44505.29
640.09	44208.04
640.24	44662.10
640.39	44313.36
640.54	43494.18
640.68	44140.16
640.83	44336.77
640.98	44336.77
641.13	43929.51
641.27	44477.20
641.42	44680.83
641.57	44013.77
641.72	44472.52
641.86	43922.49
642.01	43466.09
642.16	43927.17
642.31	43707.16
642.45	44109.74
642.60	43564.39
642.75	43856.96
642.90	44074.63
643.04	43690.78
643.19	43753.97
643.34	43449.70
643.48	43295.23
643.63	43349.06
643.78	43913.13
643.93	43868.66
644.07	43414.60
644.22	43807.81
644.37	43522.26
644.51	43768.02
644.66	43971.64
644.81	43395.87
644.95	43512.90
645.10	43641.63
645.25	43318.64
645.39	43061.18
645.54	43157.14
645.69	43096.28
645.83	43030.75
645.98	43335.02
646.13	43585.46
646.27	43262.46
646.42	43159.48
646.57	43388.85
646.71	43618.22
646.86	43835.89
647.00	43543.33
647.15	43281.19
647.30	42988.62
647.44	42941.81
647.59	42948.83
647.74	43054.15
647.88	43234.38
648.03	43412.26
648.17	43255.44
648.32	42983.94
648.47	43379.49
648.61	43276.51
648.76	43107.99
648.90	42784.99
649.05	43051.81
649.20	42759.25
649.34	42983.94
649.49	43107.99
649.63	42822.44
649.78	42838.83
649.92	43363.11
650.07	43761.00
650.21	42965.21
650.36	43098.62
650.51	43133.73
650.65	43091.60
650.80	42817.76
650.94	42389.44
651.09	43037.77
651.23	42080.49
651.38	41897.93
651.52	42223.26
651.67	42260.71
651.81	42092.19
651.96	42476.04
652.10	42169.43
652.25	42438.59
652.39	42337.95
652.54	42361.36
652.68	41933.04
652.83	42391.78
652.97	42096.88
653.12	42415.19
653.26	42012.62
653.41	42286.46
653.55	42550.94
653.70	42464.34
653.84	42143.69
653.99	42454.98
654.13	41937.72
654.27	41853.46
654.42	42581.37
654.56	41911.97
654.71	42604.77
654.85	42286.46
655.00	42080.49
655.14	41890.91
655.29	42375.40
655.43	42408.17
655.57	41757.50
655.72	41223.86
655.86	41792.61
656.01	41497.70
656.15	41476.63
656.30	41890.91
656.44	41603.02
656.58	41666.22
656.73	41900.27
656.87	41277.69
657.01	41687.28
657.16	41727.07
657.30	41453.23
657.45	41832.39
657.59	41081.08
657.73	41013.21
657.88	41446.21
658.02	41144.28
658.16	41394.71
658.31	41319.82
658.45	41258.96
658.60	41247.26
658.74	40914.90
658.88	41289.39
659.03	40947.67
659.17	40687.87
659.31	41120.87
659.46	40467.86
659.60	41359.61
659.74	40994.48
659.89	40699.58
660.03	40423.39
660.17	40931.29
660.32	40577.87
660.46	40751.07
660.60	40013.80
660.74	40243.17
660.89	40657.45
661.03	40224.45
661.17	40076.99
661.32	40671.49
661.46	40343.81
661.60	39929.54
661.74	39800.81
661.89	40381.26
662.03	39758.68
662.17	39803.15
662.31	39709.53
662.46	39976.35
662.60	40006.78
662.74	39697.83
662.88	39594.84
663.03	39667.40
663.17	39735.27
663.31	39166.52
663.45	39133.76
663.60	39597.18
663.74	39468.45
663.88	39461.43
664.02	39299.94
664.17	39959.97
664.31	39452.07
664.45	38946.51
664.59	39033.11
664.73	39168.87
664.88	38899.70
665.02	38845.87
665.16	38909.07
665.30	38740.55
665.44	39044.82
665.59	38616.50
665.73	38773.31
665.87	38511.17
666.01	38731.18
666.15	38216.27
666.29	38263.08
666.44	38611.82
666.58	38508.83
666.72	38192.86
666.86	37820.72
667.00	38249.03
667.14	37766.88
667.28	37968.17
667.43	37731.78
667.57	38841.19
667.71	38202.22
667.85	38136.69
667.99	38263.08
668.13	37752.84
668.27	37291.76
668.41	37340.91
668.56	37092.81
668.70	37167.71
668.84	37060.04
668.98	37268.35
669.12	37565.60
669.26	36924.29
669.40	37001.53
669.54	37511.77
669.68	37275.37
669.82	36961.74
669.96	36868.12
670.10	36383.63
670.25	36451.50
670.39	36622.36
670.53	37120.90
670.67	36535.76
670.81	36900.89
670.95	36774.50
671.09	36664.49
671.23	36275.96
671.37	36739.39
671.51	36168.30
671.65	36325.11
671.79	36247.88
671.93	36233.83
672.07	36610.66
672.21	35971.69
672.35	35672.10
672.49	36243.20
672.63	35847.64
672.77	35438.05
672.91	35917.86
673.05	35269.53
673.19	35166.55
673.33	35545.72
673.47	35229.74
673.61	35065.91
673.75	34822.49
673.89	34719.51
674.03	34923.13
674.17	34574.39
674.31	34363.75
674.45	34326.30
674.59	34436.30
674.73	34235.02
674.87	34213.95
675.01	34113.31
675.15	33848.83
675.29	34019.69
675.43	33851.17
675.56	34024.37
675.70	33350.29
675.84	33493.07
675.98	32849.42
676.12	33858.19
676.26	33734.14
676.40	33413.49
676.54	32968.79
676.68	33076.45
676.82	32947.72
676.96	33191.14
677.10	33146.67
677.23	33369.02
677.37	32591.96
677.51	32737.07
677.65	32898.57
677.79	32755.80
677.93	32662.18
678.07	32100.45
678.21	31892.14
678.34	32100.45
678.48	31438.08
678.62	31702.56
678.76	31824.26
678.90	31515.31
679.04	31824.26
679.18	31803.20
679.31	31571.49
679.45	31625.32
679.59	31192.32
679.73	31197.00
679.87	30913.80
680.00	31103.38
680.14	31054.23
680.28	30958.27
680.42	30808.47
680.56	30455.05
680.70	30698.47
680.83	30263.13
680.97	30335.68
681.11	30331.00
681.25	30218.66
681.39	29893.32
681.52	29893.32
681.66	29497.77
681.80	29142.01
681.94	28903.28
682.07	29165.42
682.21	29165.42
682.35	28938.38
682.49	28879.87
682.62	29109.24
682.76	29153.71
682.90	29029.66
683.04	28601.35
683.17	28844.76
683.31	28346.23
683.45	28287.71
683.59	28285.37
683.72	28119.20
683.86	28084.09
684.00	28264.31
684.13	28023.23
684.27	27910.89
684.41	27510.66
684.55	27700.24
684.68	27721.30
684.82	27302.35
684.96	27358.52
685.09	27576.19
685.23	27288.31
685.37	27367.88
685.50	27513.00
685.64	27421.72
685.78	26728.92
685.91	26661.04
686.05	26757.00
686.19	26136.76
686.32	26623.59
686.46	26001.01
686.60	25865.26
686.73	26092.29
686.87	26040.80
687.01	26349.75
687.14	25900.37
687.28	25771.64
687.42	25556.31
687.55	25317.57
687.69	25329.28
687.82	25348.00
687.96	25247.36
688.10	25078.84
688.23	25184.16
688.37	25233.32
688.50	24985.22
688.64	25048.41
688.78	24900.96
688.91	25212.25
689.05	24620.10
689.18	24297.10
689.32	24166.03
689.46	23805.59
689.59	24041.98
689.73	24315.83
689.86	24367.32
690.00	23861.76
690.13	24039.64
690.27	23812.61
690.41	23821.97
690.54	23473.23
690.68	23159.60
690.81	23250.88
690.95	23154.92
691.08	23321.10
691.22	22913.84
691.35	23236.84
691.49	23185.35
691.62	23089.38
691.76	22197.64
691.89	22504.25
692.03	22312.33
692.16	21914.44
692.30	22445.74
692.43	22366.16
692.57	21832.52
692.70	21692.08
692.84	21816.13
692.97	21837.20
693.11	21755.28
693.24	21553.99
693.38	21490.80
693.51	21680.38
693.65	21359.73
693.78	21322.28
693.92	21158.44
694.05	20980.56
694.19	20716.08
694.32	21116.31
694.45	21039.08
694.59	21020.35
694.72	21144.40
694.86	20872.90
694.99	20308.83
695.13	20112.22
695.26	20318.19
695.39	20147.33
695.53	20152.01
695.66	20175.42
695.80	19812.63
695.93	19908.60
696.07	19506.02
696.20	19545.81
696.33	19349.21
696.47	19140.90
696.60	19569.22
696.73	19019.19
696.87	19138.56
697.00	19061.32
697.14	19033.24
697.27	18731.31
697.40	18787.48
697.54	18944.30
697.67	18806.20
697.80	18707.90
697.94	18527.68
698.07	18272.56
698.21	18501.93
698.34	18335.76
698.47	18129.79
698.61	17715.51
698.74	17792.75
698.87	17940.21
699.01	17795.09
699.14	17820.84
699.27	17968.29
699.40	17551.68
699.54	17408.90
699.67	17788.07
699.80	17348.05
699.94	17074.21
700.07	17139.74
700.20	17209.96
700.34	16985.27
700.47	17195.92
700.60	17149.11
700.73	16643.55
700.87	16847.18
701.00	16805.05
701.13	16519.50
701.26	16205.87
701.40	16311.19
701.53	16163.74
701.66	16390.77
701.79	16283.11
701.93	15871.17
702.06	15513.07
702.19	15819.68
702.32	15791.59
702.46	16121.61
702.59	15709.68
702.72	15943.73
702.85	15840.75
702.99	15646.48
703.12	15365.62
703.25	15190.08
703.38	15316.47
703.51	15103.48
703.65	15297.74
703.78	14736.01
703.91	14787.50
704.04	14670.48
704.17	14705.59
704.31	14850.70
704.44	14508.98
704.57	14661.12
704.70	14499.62
704.83	14270.25
704.96	14523.02
705.10	14038.53
705.23	14230.46
>>>>>End Processed Spectral Data<<<<<
