SpectraSuite Data File
++++++++++++++++++++++++++++++++++++
Date: Fri Oct 25 10:47:18 EDT 2013
User: price-jones
Dark Spectrum Present: No
Reference Spectrum Present: No
Number of Sampled Component Spectra: 1
Spectrometers: USB2+H05261
Integration Time (usec): 100000 (USB2+H05261)
Spectra Averaged: 1 (USB2+H05261)
Boxcar Smoothing: 0 (USB2+H05261)
Correct for Electrical Dark: No (USB2+H05261)
Strobe/Lamp Enabled: No (USB2+H05261)
Correct for Detector Non-linearity: No (USB2+H05261)
Correct for Stray Light: No (USB2+H05261)
Number of Pixels in Processed Spectrum: 2048
>>>>>Begin Processed Spectral Data<<<<<
365.73	131.07
365.92	131.07
366.12	131.07
366.32	0.00
366.52	44.47
366.72	79.58
366.91	42.13
367.11	4.68
367.31	0.00
367.51	65.54
367.70	18.72
367.90	0.00
368.10	39.79
368.30	21.06
368.49	51.49
368.69	84.26
368.89	126.39
369.09	28.09
369.28	58.51
369.48	110.01
369.68	168.52
369.87	128.73
370.07	77.24
370.27	166.18
370.47	166.18
370.66	372.15
370.86	395.55
371.06	425.98
371.25	435.34
371.45	503.22
371.65	428.32
371.84	397.89
372.04	458.74
372.24	486.83
372.44	454.06
372.63	470.45
372.83	437.68
373.03	517.26
373.22	463.43
373.42	514.92
373.62	526.62
373.81	505.56
374.01	575.77
374.21	557.05
374.40	496.19
374.60	554.71
374.79	531.30
374.99	491.51
375.19	599.18
375.38	592.16
375.58	550.03
375.78	596.84
375.97	573.43
376.17	620.24
376.37	557.05
376.56	608.54
376.76	526.62
376.95	613.22
377.15	617.90
377.35	662.37
377.54	566.41
377.74	608.54
377.93	507.90
378.13	664.71
378.33	653.01
378.52	580.45
378.72	653.01
378.91	695.14
379.11	578.11
379.31	585.13
379.50	603.86
379.70	669.39
379.89	690.46
380.09	552.37
380.28	603.86
380.48	622.58
380.68	538.32
380.87	603.86
381.07	664.71
381.26	720.88
381.46	617.90
381.65	667.05
381.85	636.63
382.04	650.67
382.24	594.50
382.43	629.60
382.63	608.54
382.83	622.58
383.02	709.18
383.22	770.04
383.41	692.80
383.61	641.31
383.80	660.03
384.00	660.03
384.19	648.33
384.39	704.50
384.58	688.12
384.78	674.07
384.97	716.20
385.17	688.12
385.36	727.91
385.56	763.01
385.75	821.53
385.95	802.80
386.14	826.21
386.34	798.12
386.53	798.12
386.72	781.74
386.92	772.38
387.11	823.87
387.31	784.08
387.50	777.06
387.70	781.74
387.89	798.12
388.09	786.42
388.28	727.91
388.48	798.12
388.67	858.98
388.86	795.78
389.06	758.33
389.25	763.01
389.45	917.49
389.64	819.19
389.84	908.13
390.03	863.66
390.22	919.83
390.42	830.89
390.61	947.92
390.81	842.59
391.00	954.94
391.19	940.90
391.39	945.58
391.58	896.43
391.78	978.34
391.97	1022.81
392.16	898.77
392.36	945.58
392.55	1071.97
392.75	926.85
392.94	908.13
393.13	924.51
393.33	929.19
393.52	1034.52
393.71	997.07
393.91	1039.20
394.10	1004.09
394.29	1004.09
394.49	1069.62
394.68	1048.56
394.88	985.37
395.07	1097.71
395.26	1104.73
395.46	1025.15
395.65	1027.50
395.84	1100.05
396.04	1128.14
396.23	1214.74
396.42	964.30
396.62	1125.80
396.81	1076.65
397.00	1055.58
397.19	1137.50
397.39	1167.93
397.58	1254.53
397.77	1191.33
397.97	1163.25
398.16	1121.12
398.35	1224.10
398.55	1224.10
398.74	1273.25
398.93	1355.17
399.12	1198.35
399.32	1235.80
399.51	1240.48
399.70	1259.21
399.90	1172.61
400.09	1228.78
400.28	1329.42
400.47	1317.72
400.67	1376.24
400.86	1327.08
401.05	1404.32
401.24	1425.39
401.44	1378.58
401.63	1387.94
401.82	1345.81
402.01	1397.30
402.21	1401.98
402.40	1409.00
402.59	1469.86
402.78	1376.24
402.97	1530.71
403.17	1565.82
403.36	1547.09
403.55	1474.54
403.74	1530.71
403.93	1579.86
404.13	1654.76
404.32	1568.16
404.51	1495.60
404.70	1563.48
404.89	1626.67
405.09	1631.35
405.28	1636.03
405.47	1589.22
405.66	1619.65
405.85	1699.23
406.05	1692.21
406.24	1832.64
406.43	1689.87
406.62	1774.13
406.81	1729.66
407.00	1778.81
407.20	1776.47
407.39	1671.14
407.58	1816.26
407.77	1799.87
407.96	1771.79
408.15	1886.47
408.34	1769.44
408.54	1935.62
408.73	1949.67
408.92	1952.01
409.11	1942.64
409.30	1879.45
409.49	1980.09
409.68	1902.86
409.87	1909.88
410.07	1952.01
410.26	1811.57
410.45	2080.74
410.64	1968.39
410.83	2132.23
411.02	2101.80
411.21	2118.18
411.40	2146.27
411.59	2305.43
411.78	2125.21
411.98	2134.57
412.17	2153.29
412.36	2251.60
412.55	2134.57
412.74	2244.57
412.93	2279.68
413.12	2354.58
413.31	2422.45
413.50	2370.96
413.69	2265.64
413.88	2438.84
414.07	2506.71
414.26	2415.43
414.45	2459.90
414.64	2480.97
414.83	2537.14
415.02	2600.34
415.22	2616.72
415.41	2663.53
415.60	2630.76
415.79	2768.85
415.98	2686.94
416.17	2619.06
416.36	2848.43
416.55	2597.99
416.74	2722.04
416.93	2775.88
417.12	2759.49
417.31	2750.13
417.50	2818.00
417.69	2930.35
417.88	2902.26
418.07	2979.50
418.26	2874.18
418.45	2995.89
418.64	2967.80
418.83	3070.78
419.02	3056.74
419.21	3014.61
419.39	3194.83
419.58	2974.82
419.77	2993.55
419.96	3026.31
420.15	3148.02
420.34	3133.98
420.53	3119.93
420.72	3194.83
420.91	3166.74
421.10	3276.75
421.29	3281.43
421.48	3117.59
421.67	3351.65
421.86	3279.09
422.05	3234.62
422.24	3084.83
422.43	3234.62
422.61	3328.24
422.80	3213.56
422.99	3332.92
423.18	3426.54
423.37	3330.58
423.56	3276.75
423.75	3302.50
423.94	3251.00
424.13	3272.07
424.32	3241.64
424.50	3400.80
424.69	3424.20
424.88	3442.93
425.07	3316.54
425.26	3269.73
425.45	3396.12
425.64	3349.31
425.83	3435.91
426.01	3398.46
426.20	3419.52
426.39	3337.60
426.58	3428.88
426.77	3433.57
426.96	3468.67
427.15	3480.38
427.33	3499.10
427.52	3506.12
427.71	3562.30
427.90	3510.80
428.09	3585.70
428.28	3688.68
428.46	3618.47
428.65	3555.27
428.84	3770.60
429.03	3698.05
429.22	3592.72
429.40	3749.54
429.59	3674.64
429.78	3494.42
429.97	3487.40
430.16	3726.13
430.34	3648.90
430.53	3669.96
430.72	3672.30
430.91	3709.75
431.10	3829.12
431.28	3880.61
431.47	4056.15
431.66	3880.61
431.85	3791.67
432.03	4011.68
432.22	4156.79
432.41	4025.72
432.60	4039.76
432.79	4058.49
432.97	4011.68
433.16	3999.98
433.35	4053.81
433.54	4107.64
433.72	4053.81
433.91	4152.11
434.10	4035.08
434.28	4046.79
434.47	4149.77
434.66	4327.65
434.85	4147.43
435.03	4269.14
435.22	4175.52
435.41	4355.74
435.59	4301.90
435.78	4334.67
435.97	4418.93
436.16	4383.82
436.34	4365.10
436.53	4320.63
436.72	4622.56
436.90	4461.06
437.09	4521.92
437.28	4440.00
437.46	4554.68
437.65	4372.12
437.84	4615.54
438.02	4360.42
438.21	4465.74
438.40	4601.49
438.58	4725.54
438.77	4655.33
438.96	4648.30
439.14	4669.37
439.33	4716.18
439.52	4697.46
439.70	4891.72
439.89	5004.07
440.08	4992.36
440.26	4947.89
440.45	5008.75
440.63	5067.26
440.82	5078.96
441.01	5069.60
441.19	5111.73
441.38	5233.44
441.57	5200.67
441.75	5289.61
441.94	5301.31
442.12	5392.59
442.31	5327.06
442.50	5331.74
442.68	5364.51
442.87	5329.40
443.05	5320.04
443.24	5516.64
443.43	5406.64
443.61	5636.01
443.80	5617.29
443.98	5453.45
444.17	5308.34
444.35	5467.49
444.54	5626.65
444.73	5535.37
444.91	5458.13
445.10	5570.48
445.28	5694.52
445.47	5596.22
445.65	5673.46
445.84	5558.77
446.02	5703.89
446.21	5453.45
446.39	5753.04
446.58	5692.18
446.77	5795.17
446.95	5511.96
447.14	5825.59
447.32	5792.83
447.51	5600.90
447.69	5654.73
447.88	5755.38
448.06	5708.57
448.25	5767.08
448.43	5589.20
448.62	5781.12
448.80	5783.46
448.99	5738.99
449.17	5872.40
449.36	5767.08
449.54	6064.33
449.73	6097.10
449.91	6167.31
450.10	6026.88
450.28	6003.47
450.46	6125.18
450.65	6078.37
450.83	6108.80
451.02	6120.50
451.20	6113.48
451.39	6162.63
451.57	6061.99
451.76	6043.26
451.94	6296.04
452.13	6141.57
452.31	6319.45
452.49	6291.36
452.68	6242.21
452.86	6272.64
453.05	6422.43
453.23	6246.89
453.42	6167.31
453.60	6298.38
453.78	6263.27
453.97	6286.68
454.15	6298.38
454.34	6328.81
454.52	6462.22
454.70	6520.73
454.89	6539.46
455.07	6579.25
455.26	6623.72
455.44	6719.68
455.62	6523.07
455.81	6686.91
455.99	6581.59
456.17	6614.35
456.36	6590.95
456.54	6722.02
456.73	6810.96
456.91	7082.46
457.09	6871.81
457.28	7040.33
457.46	6937.35
457.64	6916.28
457.83	7040.33
458.01	6825.00
458.19	7082.46
458.38	7185.44
458.56	7293.11
458.74	7007.56
458.93	7110.55
459.11	7098.84
459.29	7094.16
459.48	7274.38
459.66	7206.51
459.84	7337.58
460.03	7536.52
460.21	7211.19
460.39	7389.07
460.57	7435.88
460.76	7531.84
460.94	7616.10
461.12	7403.11
461.31	7449.93
461.49	7398.43
461.67	7358.64
461.85	7482.69
462.04	7513.12
462.22	8074.85
462.40	7585.68
462.59	7534.18
462.77	7735.47
462.95	7880.58
463.13	7824.41
463.32	7658.23
463.50	7791.64
463.68	7688.66
463.86	7737.81
464.05	7651.21
464.23	7618.44
464.41	7950.80
464.59	7714.41
464.78	7899.31
464.96	7672.28
465.14	7953.14
465.32	8030.38
465.50	7852.50
465.69	7999.95
465.87	8011.65
466.05	8107.62
466.23	7981.23
466.41	7981.23
466.60	8128.68
466.78	8046.76
466.96	8079.53
467.14	8030.38
467.32	8180.17
467.51	8236.35
467.69	8084.21
467.87	8168.47
468.05	8318.26
468.23	8287.84
468.41	8388.48
468.60	8191.88
468.78	8496.14
468.96	8241.03
469.14	8381.46
469.32	8496.14
469.50	8149.75
469.69	8472.74
469.87	8559.34
470.05	8596.79
470.23	8667.00
470.41	8500.83
470.59	8830.84
470.77	8547.64
470.95	8641.26
471.14	8664.66
471.32	8741.90
471.50	8868.29
471.68	8889.35
471.86	8835.52
472.04	8982.98
472.22	9195.96
472.40	8830.84
472.58	8992.34
472.77	9053.19
472.95	9132.77
473.13	9430.02
473.31	9202.99
473.49	9163.20
473.67	9202.99
473.85	9350.44
474.03	9687.48
474.21	9778.76
474.39	9530.66
474.57	9778.76
474.75	9558.75
474.93	9659.39
475.12	9722.59
475.30	9643.01
475.48	9907.49
475.66	9872.38
475.84	9949.62
476.02	10017.49
476.20	9867.70
476.38	10092.39
476.56	10527.73
476.74	10384.96
476.92	10183.67
477.10	10396.66
477.28	10494.96
477.46	10415.38
477.64	10614.33
477.82	10736.04
478.00	11040.31
478.18	11063.71
478.36	11066.05
478.54	10995.84
478.72	10979.45
478.90	11267.34
479.08	11515.44
479.26	11623.10
479.44	11337.56
479.62	11548.20
479.80	11587.99
479.98	11782.26
480.16	11728.42
480.34	11845.45
480.52	11906.31
480.70	12023.33
480.88	12123.98
481.06	11880.56
481.24	12081.85
481.41	12236.32
481.59	12524.21
481.77	12739.54
481.95	12643.57
482.13	12676.34
482.31	12732.51
482.49	13085.94
482.67	12999.34
482.85	13078.91
483.03	13305.95
483.21	13362.12
483.39	13439.36
483.57	13607.87
483.74	13748.31
483.92	13947.25
484.10	13551.70
484.28	14097.05
484.46	13935.55
484.64	14148.54
484.82	14298.33
485.00	14466.85
485.18	14445.79
485.35	14693.88
485.53	14614.30
485.71	14256.20
485.89	14927.94
486.07	14972.41
486.25	14934.96
486.43	15044.96
486.61	15344.55
486.78	15421.79
486.96	15283.70
487.14	15770.53
487.32	15812.66
487.50	15800.96
487.68	16006.92
487.85	16226.93
488.03	16322.90
488.21	16400.13
488.39	16243.32
488.57	16779.30
488.75	16500.78
488.92	16931.44
489.10	17268.47
489.28	17029.74
489.46	17341.03
489.64	17451.03
489.81	17554.02
489.99	17951.91
490.17	17816.16
490.35	17816.16
490.53	17980.00
490.70	18141.49
490.88	18279.58
491.06	18169.58
491.24	18382.57
491.41	18389.59
491.59	18663.43
491.77	18714.92
491.95	18834.29
492.13	18848.33
492.30	19192.39
492.48	19323.46
492.66	19758.80
492.84	19117.50
493.01	19599.65
493.19	19173.67
493.37	19974.13
493.54	19971.79
493.72	19859.45
493.90	19932.00
494.08	20395.43
494.25	20617.78
494.43	20444.58
494.61	20702.04
494.79	20776.94
494.96	20549.90
495.14	20849.49
495.32	21177.17
495.49	21326.96
495.67	21280.15
495.85	21294.19
496.02	21535.27
496.20	21614.85
496.38	21305.90
496.55	21830.18
496.73	22328.71
496.91	21745.92
497.09	22232.75
497.26	22352.12
497.44	22197.64
497.62	22607.23
497.79	22448.08
497.97	22373.18
498.14	22869.37
498.32	22752.35
498.50	23096.41
498.67	23363.23
498.85	23211.09
499.03	23400.68
499.20	23353.87
499.38	23005.13
499.56	23796.23
499.73	23674.52
499.91	23747.08
500.08	23983.47
500.26	23515.36
500.44	23836.02
500.61	24027.94
500.79	23833.68
500.97	24126.24
501.14	24285.40
501.32	24460.94
501.49	24285.40
501.67	24276.04
501.84	24339.23
502.02	24627.12
502.20	25179.48
502.37	24847.13
502.55	25310.55
502.72	24985.22
502.90	24858.83
503.07	25055.43
503.25	25088.20
503.43	25202.89
503.60	25654.61
503.78	25694.40
503.95	25525.88
504.13	25968.24
504.30	26082.93
504.48	25593.76
504.65	25879.30
504.83	26424.65
505.01	26331.03
505.18	25982.29
505.36	26665.72
505.53	26040.80
505.71	26579.12
505.88	26668.06
506.06	26314.64
506.23	26665.72
506.41	26265.49
506.58	26450.39
506.76	27056.59
506.93	26794.45
507.11	27194.68
507.28	27094.04
507.46	27218.09
507.63	27431.08
507.81	27044.89
507.98	27346.82
508.16	27414.69
508.33	27386.61
508.50	27637.05
508.68	27843.01
508.85	27704.92
509.03	28091.11
509.20	27835.99
509.38	28332.18
509.55	27964.72
509.73	28367.29
509.90	28158.99
510.08	28212.82
510.25	28053.66
510.42	28540.49
510.60	28535.81
510.77	28819.02
510.95	28936.04
511.12	28720.71
511.30	28753.48
511.47	28896.25
511.64	28900.94
511.82	28931.36
511.99	28982.85
512.17	29399.47
512.34	29551.60
512.51	29481.39
512.69	29923.75
512.86	29455.64
513.04	29677.99
513.21	29717.78
513.38	30209.29
513.56	29982.26
513.73	29968.22
513.90	29979.92
514.08	29640.54
514.25	30272.49
514.43	30125.04
514.60	29883.96
514.77	30345.05
514.95	30312.28
515.12	30766.34
515.29	30394.20
515.47	30602.50
515.64	30778.04
515.81	30691.44
515.99	31077.63
516.16	30541.65
516.33	30897.41
516.51	30635.27
516.68	30724.21
516.85	31082.31
517.03	30869.33
517.20	30869.33
517.37	31009.76
517.54	31346.79
517.72	31440.42
517.89	30946.56
518.06	31049.55
518.24	31597.23
518.41	31426.37
518.58	31632.34
518.75	31784.48
518.93	32020.87
519.10	32030.23
519.27	32037.25
519.45	31917.89
519.62	32325.14
519.79	32259.60
519.96	32484.30
520.14	32573.24
520.31	32163.64
520.48	32580.26
520.65	32517.06
520.83	32751.12
521.00	33139.65
521.17	32737.07
521.34	32582.60
521.52	32790.91
521.69	32858.78
521.86	32737.07
522.03	33174.75
522.20	33266.03
522.38	33493.07
522.55	33614.77
522.72	33247.31
522.89	32938.36
523.07	33626.48
523.24	33298.80
523.41	34010.32
523.58	33589.03
523.75	33944.79
523.92	33905.00
524.10	34115.65
524.27	33865.21
524.44	33965.85
524.61	33942.45
524.78	34209.27
524.96	34209.27
525.13	34534.60
525.30	34724.19
525.47	34424.60
525.64	34457.37
525.81	34670.36
525.98	34878.66
526.16	34651.63
526.33	34483.11
526.50	34677.38
526.67	34712.49
526.84	34258.42
527.01	34532.26
527.18	34995.69
527.36	34923.13
527.53	35164.21
527.70	35559.76
527.87	34998.03
528.04	35049.52
528.21	35218.04
528.38	35136.12
528.55	35531.67
528.72	35222.72
528.89	35592.53
529.07	35335.07
529.24	35641.68
529.41	35758.70
529.58	35674.45
529.75	35606.57
529.92	35838.28
530.09	35440.39
530.26	35983.40
530.43	36032.55
530.60	35885.09
530.77	35620.61
530.94	36313.41
531.11	36121.49
531.28	36250.22
531.46	36362.56
531.63	36495.97
531.80	36219.79
531.97	36294.69
532.14	36039.57
532.31	36306.39
532.48	36479.59
532.65	36526.40
532.82	36236.17
532.99	36715.98
533.16	36268.94
533.33	36739.39
533.50	36875.14
533.67	36854.08
533.84	36851.73
534.01	36863.44
534.18	36699.60
534.35	37085.79
534.52	36725.35
534.69	37038.98
534.86	36935.99
535.03	37261.33
535.20	37750.50
535.37	37441.55
535.54	37757.52
535.71	37436.87
535.88	37607.73
536.05	37230.90
536.22	37130.26
536.38	37832.42
536.55	37731.78
536.72	37483.68
536.89	37823.06
537.06	37223.88
537.23	37923.70
537.40	37605.39
537.57	37823.06
537.74	37942.42
537.91	38155.41
538.08	38195.20
538.25	38031.36
538.42	38431.60
538.59	38368.40
538.75	37694.33
538.92	38164.78
539.09	38349.68
539.26	38305.21
539.43	38071.15
539.60	38829.49
539.77	38710.12
539.94	38745.23
540.11	38487.77
540.28	38483.09
540.44	38815.44
540.61	38691.40
540.78	38260.74
540.95	38656.29
541.12	38675.01
541.29	38518.20
541.46	38740.55
541.62	38719.48
541.79	39000.35
541.96	38555.64
542.13	38710.12
542.30	39016.73
542.47	38955.88
542.63	39309.30
542.80	39147.80
542.97	39583.14
543.14	39744.64
543.31	39576.12
543.48	39667.40
543.64	39814.85
543.81	39672.08
543.98	39751.66
544.15	39433.35
544.32	39349.09
544.48	39643.99
544.65	39964.65
544.82	40144.87
544.99	39346.75
545.16	40172.96
545.32	39651.02
545.49	40315.73
545.66	39903.79
545.83	40067.63
546.00	40484.25
546.16	40175.30
546.33	40299.34
546.50	39517.60
546.67	40224.45
546.83	40112.10
547.00	39981.03
547.17	40053.59
547.34	40547.44
547.50	40507.65
547.67	41090.44
547.84	40158.91
548.00	40542.76
548.17	40491.27
548.34	40561.48
548.51	40641.06
548.67	40486.59
548.84	40924.27
549.01	40931.29
549.18	40840.01
549.34	40797.88
549.51	41116.19
549.68	41078.74
549.84	41148.96
550.01	41109.17
550.18	41050.66
550.34	41015.55
550.51	41111.51
550.68	41155.98
550.84	40561.48
551.01	41233.22
551.18	41003.85
551.34	41008.53
551.51	41284.71
551.68	41013.21
551.84	41478.97
552.01	41495.36
552.18	41357.27
552.34	41326.84
552.51	41701.32
552.68	41600.68
552.84	41532.81
553.01	42267.73
553.18	41069.38
553.34	41308.11
553.51	41708.35
553.67	41256.62
553.84	41783.24
554.01	41949.42
554.17	41720.05
554.34	42047.72
554.51	41790.27
554.67	42293.48
554.84	41942.40
555.00	41900.27
555.17	41832.39
555.33	41523.44
555.50	41991.55
555.67	42157.73
555.83	41883.89
556.00	42321.57
556.16	42504.13
556.33	42450.30
556.50	42440.93
556.66	42314.55
556.83	42071.13
556.99	41930.70
557.16	42539.24
557.32	42506.47
557.49	42190.50
557.65	42246.67
557.82	42466.68
557.98	42333.27
558.15	42410.51
558.32	42497.11
558.48	42651.58
558.65	42822.44
558.81	42494.77
558.98	42529.87
559.14	42494.77
559.31	42342.63
559.47	42321.57
559.64	42829.46
559.80	42494.77
559.97	42770.95
560.13	42574.34
560.30	42464.34
560.46	42887.98
560.63	42557.96
560.79	42691.37
560.96	42792.01
561.12	42480.72
561.29	42969.90
561.45	42951.17
561.61	43117.35
561.78	42979.26
561.94	42897.34
562.11	42937.13
562.27	42593.07
562.44	42766.27
562.60	42920.74
562.77	43105.65
562.93	42934.79
563.10	43019.05
563.26	42780.31
563.42	43131.39
563.59	42808.40
563.75	42866.91
563.92	43129.05
564.08	43370.13
564.24	43072.88
564.41	42883.30
564.57	42651.58
564.74	43201.61
564.90	43363.11
565.07	43529.28
565.23	43585.46
565.39	42829.46
565.56	43669.72
565.72	43129.05
565.88	42831.80
566.05	43075.22
566.21	43246.08
566.38	43140.75
566.54	42866.91
566.70	43234.38
566.87	43414.60
567.03	43168.84
567.19	43613.54
567.36	43374.81
567.52	43583.12
567.68	43421.62
567.85	43335.02
568.01	43065.86
568.17	43175.86
568.34	43189.91
568.50	43065.86
568.66	43311.61
568.83	43428.64
568.99	43515.24
569.15	43646.31
569.32	43365.45
569.48	43517.58
569.64	43330.34
569.81	43599.50
569.97	43201.61
570.13	43349.06
570.30	43330.34
570.46	43384.17
570.62	43351.40
570.78	43328.00
570.95	43676.74
571.11	43543.33
571.27	43786.74
571.43	43470.77
571.60	43433.32
571.76	43466.09
571.92	43653.33
572.09	43683.76
572.25	43569.07
572.41	43571.41
572.57	43674.40
572.74	44100.37
572.90	43636.95
573.06	43501.20
573.22	43770.36
573.38	43515.24
573.55	43695.46
573.71	44107.40
573.87	43721.21
574.03	43653.33
574.20	43863.98
574.36	43459.07
574.52	43552.69
574.68	43498.86
574.84	43920.15
575.01	43964.62
575.17	43873.34
575.33	43524.60
575.49	43646.31
575.65	44149.53
575.82	43838.23
575.98	43601.84
576.14	44135.48
576.30	43845.26
576.46	43683.76
576.62	43519.92
576.79	43718.87
576.95	43601.84
577.11	43363.11
577.27	43732.91
577.43	43964.62
577.59	43941.22
577.75	43852.28
577.92	43395.87
578.08	43494.18
578.24	44025.48
578.40	43796.10
578.56	43983.35
578.72	44076.97
578.88	44360.17
579.04	44327.41
579.21	43599.50
579.37	43899.09
579.53	43531.62
579.69	43585.46
579.85	43716.53
580.01	44369.54
580.17	43894.41
580.33	43959.94
580.49	43863.98
580.65	43908.45
580.82	43688.44
580.98	44282.94
581.14	43782.06
581.30	43906.11
581.46	43906.11
581.62	44165.91
581.78	43969.30
581.94	44123.78
582.10	44023.14
582.26	44095.69
582.42	44126.12
582.58	43529.28
582.74	43856.96
582.90	44027.82
583.06	43988.03
583.22	44091.01
583.38	43854.62
583.54	44140.16
583.70	43686.10
583.86	44058.24
584.02	43152.46
584.18	44130.80
584.34	44217.40
584.50	43660.35
584.66	43468.43
584.82	43803.13
584.98	44158.89
585.14	44353.15
585.30	43971.64
585.46	43772.70
585.62	43868.66
585.78	43812.49
585.94	43669.72
586.10	44093.35
586.26	44034.84
586.42	43604.18
586.58	44081.65
586.74	43981.01
586.90	43821.85
587.06	43880.36
587.22	44041.86
587.38	43758.66
587.54	44259.53
587.70	44109.74
587.86	44636.36
588.02	43812.49
588.18	44126.12
588.34	44002.07
588.49	43639.29
588.65	43723.55
588.81	43768.02
588.97	44285.28
589.13	43580.78
589.29	44320.38
589.45	44395.28
589.61	44088.67
589.77	44502.95
589.93	44114.42
590.08	44273.57
590.24	44194.00
590.40	44502.95
590.56	44296.98
590.72	44123.78
590.88	43768.02
591.04	44149.53
591.20	44470.18
591.35	44844.66
591.51	44835.30
591.67	44385.92
591.83	44336.77
591.99	44521.67
592.15	43896.75
592.31	44727.64
592.46	43885.04
592.62	44128.46
592.78	44327.41
592.94	44268.89
593.10	43901.43
593.26	44666.78
593.41	43988.03
593.57	44219.74
593.73	43889.73
593.89	44147.18
594.05	44605.93
594.20	44341.45
594.36	44692.53
594.52	44313.36
594.68	44533.37
594.84	44264.21
594.99	44650.40
595.15	44308.68
595.31	44411.67
595.47	44699.55
595.62	44243.15
595.78	44451.45
595.94	44449.11
596.10	44594.23
596.25	44680.83
596.41	44549.76
596.57	44189.31
596.73	44863.39
596.88	44549.76
597.04	44371.88
597.20	44311.02
597.36	44231.44
597.51	44659.76
597.67	44720.62
597.83	44734.66
597.99	44900.84
598.14	44694.87
598.30	44528.69
598.46	44072.29
598.61	44687.85
598.77	44495.92
598.93	44348.47
599.09	44378.90
599.24	44315.70
599.40	44727.64
599.56	44140.16
599.71	44484.22
599.87	44549.76
600.03	44727.64
600.18	44369.54
600.34	44540.39
600.50	44781.47
600.65	44399.96
600.81	44788.49
600.97	45123.19
601.12	44809.56
601.28	44711.25
601.44	44465.50
601.59	44545.08
601.75	44177.61
601.91	44760.40
602.06	44514.65
602.22	44491.24
602.37	44409.32
602.53	44519.33
602.69	44484.22
602.84	44336.77
603.00	44186.97
603.16	44425.71
603.31	44278.25
603.47	44516.99
603.62	43833.55
603.78	44519.33
603.94	44512.31
604.09	44788.49
604.25	44584.86
604.40	44556.78
604.56	44603.59
604.71	44074.63
604.87	44182.29
605.03	44275.91
605.18	44032.50
605.34	44765.09
605.49	44053.56
605.65	44645.72
605.80	44446.77
605.96	44388.26
606.12	44872.75
606.27	44889.13
606.43	44432.73
606.58	44818.92
606.74	44624.65
606.89	44362.51
607.05	44130.80
607.20	44128.46
607.36	44163.57
607.51	44210.38
607.67	43927.17
607.82	44540.39
607.98	44378.90
608.13	43988.03
608.29	44348.47
608.44	44009.09
608.60	43590.14
608.75	43957.60
608.91	44329.75
609.06	44147.18
609.22	44605.93
609.37	43995.05
609.53	44346.13
609.68	44369.54
609.84	43819.51
609.99	44371.88
610.15	44367.20
610.30	44182.29
610.46	43976.33
610.61	44074.63
610.76	43775.04
610.92	43826.53
611.07	43859.30
611.23	43962.28
611.38	44048.88
611.54	43590.14
611.69	43814.83
611.84	43594.82
612.00	43943.56
612.15	43709.50
612.31	43653.33
612.46	43594.82
612.62	44013.77
612.77	43461.41
612.92	43976.33
613.08	43786.74
613.23	44030.16
613.39	43669.72
613.54	43152.46
613.69	43372.47
613.85	43533.96
614.00	43524.60
614.15	43861.64
614.31	43679.08
614.46	44212.72
614.62	44083.99
614.77	43718.87
614.92	43468.43
615.08	43545.67
615.23	42892.66
615.38	43533.96
615.54	42976.92
615.69	43522.26
615.84	43056.50
616.00	43405.23
616.15	43847.60
616.30	43590.14
616.46	42972.24
616.61	42499.45
616.76	43264.80
616.92	43143.09
617.07	43164.16
617.22	43117.35
617.37	43044.79
617.53	43360.76
617.68	42941.81
617.83	43353.74
617.99	43243.74
618.14	42981.60
618.29	43077.56
618.45	42993.30
618.60	43246.08
618.75	43447.36
618.90	43253.10
619.06	43091.60
619.21	42703.07
619.36	43187.56
619.51	42965.21
619.67	43077.56
619.82	42719.46
619.97	42960.53
620.12	42852.87
620.28	42527.53
620.43	42518.17
620.58	42646.90
620.73	42553.28
620.89	42609.45
621.04	42981.60
621.19	42707.76
621.34	42480.72
621.49	42651.58
621.65	42534.56
621.80	42836.48
621.95	42693.71
622.10	42197.52
622.25	42241.99
622.41	42239.65
622.56	42312.20
622.71	42604.77
622.86	42504.13
623.01	42363.70
623.16	42143.69
623.32	42480.72
623.47	42462.00
623.62	42342.63
623.77	42234.97
623.92	42157.73
624.07	42054.75
624.23	42143.69
624.38	41638.13
624.53	41785.58
624.68	42230.29
624.83	42064.11
624.98	41984.53
625.13	41621.75
625.29	41996.23
625.44	42241.99
625.59	41956.44
625.74	41874.52
625.89	41448.55
626.04	41113.85
626.19	41532.81
626.34	41792.61
626.49	41720.05
626.65	41659.20
626.80	42050.06
626.95	41965.81
627.10	41425.14
627.25	41155.98
627.40	41315.14
627.55	41027.25
627.70	41315.14
627.85	41170.02
628.00	41380.67
628.15	41818.35
628.30	41378.33
628.45	41715.37
628.60	41305.77
628.76	41528.13
628.91	41581.96
629.06	41205.13
629.21	41003.85
629.36	40861.07
629.51	41041.29
629.66	41205.13
629.81	41118.53
629.96	40823.62
630.11	41055.34
630.26	41001.50
630.41	41331.52
630.56	40964.06
630.71	40900.86
630.86	41141.94
631.01	41027.25
631.16	41195.77
631.31	40900.86
631.46	40758.09
631.61	41118.53
631.76	40832.99
631.91	40751.07
632.06	40507.65
632.21	40928.95
632.36	40847.03
632.51	40643.40
632.66	40673.83
632.81	40280.62
632.96	40573.19
633.10	40147.21
633.25	40975.76
633.40	40369.56
633.55	40634.04
633.70	40472.54
633.85	40100.40
634.00	40465.52
634.15	40608.29
634.30	40781.49
634.45	40662.13
634.60	40313.39
634.75	40367.22
634.90	40158.91
635.05	40362.54
635.19	40264.24
635.34	40247.85
635.49	40278.28
635.64	40428.07
635.79	40011.46
635.94	40587.23
636.09	40250.19
636.24	39683.78
636.39	39395.90
636.53	39739.96
636.68	40151.89
636.83	39948.26
636.98	40334.45
637.13	39807.83
637.28	40027.84
637.43	39981.03
637.57	40109.76
637.72	40130.83
637.87	39765.70
638.02	39721.23
638.17	39622.93
638.32	39536.33
638.46	39309.30
638.61	39463.77
638.76	39342.06
638.91	40058.27
639.06	39426.32
639.20	39412.28
639.35	39704.85
639.50	39494.20
639.65	39035.45
639.80	39943.58
639.94	39484.84
640.09	39693.15
640.24	39311.64
640.39	39313.98
640.54	39321.00
640.68	39051.84
640.83	39030.77
640.98	39077.58
641.13	39255.46
641.27	39531.65
641.42	39313.98
641.57	39496.54
641.72	39358.45
641.86	39290.57
642.01	38946.51
642.16	39229.72
642.31	38513.52
642.45	39271.85
642.60	38866.94
642.75	38869.28
642.90	39000.35
643.04	39262.49
643.19	38548.62
643.34	38785.02
643.48	38789.70
643.63	39091.63
643.78	38438.62
643.93	38747.57
644.07	38621.18
644.22	38499.47
644.37	38803.74
644.51	38457.34
644.66	38789.70
644.81	38499.47
644.95	38962.90
645.10	38649.27
645.25	38916.09
645.39	38778.00
645.54	38384.79
645.69	38941.83
645.83	38323.93
645.98	38396.49
646.13	38625.86
646.27	38644.59
646.42	38359.04
646.57	38497.13
646.71	38689.06
646.86	38321.59
647.00	38249.03
647.15	38698.42
647.30	38780.34
647.44	38417.55
647.59	38494.79
647.74	38220.95
647.88	37949.45
648.03	38319.25
648.17	38426.92
648.32	37830.08
648.47	38256.06
648.61	38010.30
648.76	38036.05
648.90	37951.79
649.05	38085.20
649.20	38019.66
649.34	37736.46
649.49	37675.60
649.63	37972.85
649.78	38132.01
649.92	37687.31
650.07	38464.36
650.21	37912.00
650.36	37558.58
650.51	37518.79
650.65	37984.55
650.80	38347.34
650.94	37659.22
651.09	37942.42
651.23	37443.89
651.38	37507.08
651.52	37598.37
651.67	37968.17
651.81	37689.65
651.96	37399.42
652.10	37722.41
652.25	37357.29
652.39	37228.56
652.54	37399.42
652.68	37256.65
652.83	37858.17
652.97	37560.92
653.12	37748.16
653.26	37095.15
653.41	37673.26
653.55	37357.29
653.70	37216.86
653.84	37050.68
653.99	37361.97
654.13	37699.01
654.27	37198.13
654.42	37326.86
654.56	37193.45
654.71	37062.38
654.85	37111.53
655.00	37099.83
655.14	36617.68
655.29	36680.88
655.43	36655.13
655.57	36760.45
655.72	36650.45
655.86	36531.08
656.01	36507.68
656.15	36830.67
656.30	37029.62
656.44	36964.08
656.58	36999.19
656.73	36732.37
656.87	36678.54
657.01	36746.41
657.16	36102.76
657.30	36322.77
657.45	35936.59
657.59	36517.04
657.73	35990.42
657.88	36430.44
658.02	36191.70
658.16	36329.80
658.31	36545.12
658.45	36631.72
658.60	36079.36
658.74	36481.93
658.88	36123.83
659.03	36016.16
659.17	36210.43
659.31	35690.83
659.46	35810.20
659.60	36053.61
659.74	35718.92
659.89	35498.91
660.03	35775.09
660.17	35414.65
660.32	35950.63
660.46	36205.75
660.60	35971.69
660.74	35754.02
660.89	35756.36
661.03	35599.55
661.17	35159.53
661.32	35304.64
661.46	35414.65
661.60	35122.08
661.74	35079.95
661.89	35367.84
662.03	35524.65
662.17	35213.36
662.31	35178.25
662.46	35262.51
662.60	35171.23
662.74	35065.91
662.88	35255.49
663.03	34899.73
663.17	35002.71
663.31	34827.17
663.45	34974.63
663.60	35166.55
663.74	34632.91
663.88	34155.44
664.02	34424.60
664.17	34892.71
664.31	34415.24
664.45	34457.37
664.59	34340.34
664.73	34700.78
664.88	34323.96
665.02	34106.29
665.16	34195.23
665.30	34284.17
665.44	34361.40
665.59	33799.68
665.73	34003.30
665.87	33830.10
666.01	33888.62
666.15	33750.52
666.29	34092.24
666.44	33900.32
666.58	33858.19
666.72	33979.90
666.86	33565.62
667.00	33935.43
667.14	33766.91
667.28	33216.88
667.43	33057.73
667.57	33139.65
667.71	33212.20
667.85	33457.96
667.99	33481.36
668.13	33130.28
668.27	32973.47
668.41	32947.72
668.56	32835.38
668.70	32907.93
668.84	32872.82
668.98	32814.31
669.12	32879.85
669.26	32795.59
669.40	32643.45
669.54	32760.48
669.68	32964.10
669.82	32734.73
669.96	32598.98
670.10	32156.62
670.25	32598.98
670.39	32797.93
670.53	32458.55
670.67	32526.42
670.81	32236.20
670.95	32301.73
671.09	32362.59
671.23	32552.17
671.37	32268.97
671.51	31873.42
671.65	31878.10
671.79	31683.83
671.93	31775.11
672.07	31924.91
672.21	31665.11
672.35	31814.90
672.49	31679.15
672.63	31484.89
672.77	31267.22
672.91	31637.02
673.05	31234.45
673.19	30841.24
673.33	30923.16
673.47	30675.06
673.61	30831.88
673.75	30773.36
673.89	30314.62
674.03	30628.25
674.17	30848.26
674.31	30391.86
674.45	30216.32
674.59	30806.13
674.73	30469.09
674.87	30637.61
675.01	30756.98
675.15	30436.33
675.29	30696.13
675.43	30445.69
675.56	30375.47
675.70	29799.70
675.84	30066.52
675.98	28769.86
676.12	29460.32
676.26	29687.36
676.40	29530.54
676.54	29670.97
676.68	29392.45
676.82	29120.95
676.96	29418.19
677.10	29139.67
677.23	29057.75
677.37	28922.00
677.51	29230.95
677.65	28861.15
677.79	28751.14
677.93	28458.57
678.07	28648.16
678.21	28173.03
678.34	28311.12
678.48	28414.10
678.62	28325.16
678.76	28023.23
678.90	28009.19
679.04	28144.94
679.18	27950.68
679.31	27585.55
679.45	27742.37
679.59	27756.41
679.73	27550.45
679.87	27330.44
680.00	27290.65
680.14	27318.73
680.28	27190.00
680.42	27349.16
680.56	27215.75
680.70	26838.92
680.83	26834.24
680.97	26740.62
681.11	26604.87
681.25	26785.09
681.39	26684.45
681.52	26593.17
681.66	26586.15
681.80	26452.73
681.94	26036.12
682.07	26253.79
682.21	26202.30
682.35	26424.65
682.49	26403.58
682.62	25982.29
682.76	25544.61
682.90	25570.35
683.04	25720.15
683.17	25647.59
683.31	25717.81
683.45	25450.99
683.59	25214.59
683.72	25245.02
683.86	25256.72
684.00	24952.45
684.13	25062.46
684.27	25144.38
684.41	25139.69
684.55	24716.06
684.68	24603.71
684.82	24584.99
684.96	24517.11
685.09	24163.69
685.23	24362.64
685.37	24283.06
685.50	24224.54
685.64	24161.35
685.78	23817.29
685.91	24013.90
686.05	23590.26
686.19	23557.49
686.32	23737.71
686.46	23711.97
686.60	23438.12
686.73	23548.13
686.87	23255.56
687.01	23372.59
687.14	23185.35
687.28	23220.45
687.42	22780.43
687.55	22801.50
687.69	22710.22
687.82	22747.67
687.96	22590.85
688.10	22696.17
688.23	22642.34
688.37	21977.63
688.50	21874.65
688.64	21874.65
688.78	21884.01
688.91	22363.82
689.05	21853.58
689.18	21631.23
689.32	21621.87
689.46	21678.04
689.59	21991.67
689.73	22061.89
689.86	21633.57
690.00	21502.50
690.13	21614.85
690.27	21364.41
690.41	21151.42
690.54	21064.82
690.68	21095.25
690.81	20968.86
690.95	20549.90
691.08	20718.42
691.22	20840.13
691.35	20971.20
691.49	20898.64
691.62	20699.70
691.76	20376.70
691.89	20624.80
692.03	20390.75
692.16	19978.81
692.30	20205.84
692.43	20032.65
692.57	19805.61
692.70	19742.42
692.84	19964.77
692.97	19744.76
693.11	19571.56
693.24	19250.91
693.38	19555.18
693.51	19145.58
693.65	19255.59
693.78	19314.10
693.92	19136.22
694.05	19037.92
694.19	19037.92
694.32	19080.05
694.45	19098.77
694.59	18696.20
694.72	18857.70
694.86	18527.68
694.99	18597.90
695.13	18480.87
695.26	18185.96
695.39	18075.96
695.53	17930.84
695.66	18284.26
695.80	18410.65
695.93	18008.08
696.07	17825.52
696.20	18178.94
696.33	17797.43
696.47	17717.86
696.60	17521.25
696.73	17554.02
696.87	17841.90
697.00	17572.74
697.14	17521.25
697.27	17406.56
697.40	17301.24
697.54	17177.19
697.67	17231.02
697.80	17111.66
697.94	17039.10
698.07	16917.39
698.21	17106.98
698.34	16835.47
698.47	16985.27
698.61	16393.11
698.74	16339.28
698.87	16489.07
699.01	16276.09
699.14	16276.09
699.27	16084.16
699.40	16236.30
699.54	16233.96
699.67	16238.64
699.80	16020.97
699.94	15616.05
700.07	15658.18
700.20	15712.02
700.34	15719.04
700.47	16030.33
700.60	15709.68
700.73	15735.42
700.87	15445.20
701.00	15360.94
701.13	15147.95
701.26	15197.10
701.40	15283.70
701.53	15150.29
701.66	15433.49
701.79	14881.13
701.93	14738.35
702.06	14525.36
702.19	14808.57
702.32	14693.88
702.46	14717.29
702.59	14747.72
702.72	14780.48
702.85	14398.98
702.99	14431.74
703.12	14391.95
703.25	14251.52
703.38	14298.33
703.51	14197.69
703.65	14188.33
703.78	14026.83
703.91	13975.34
704.04	14003.43
704.17	14012.79
704.31	13605.53
704.44	13659.37
704.57	13612.56
704.70	13270.84
704.83	13439.36
704.96	13523.62
705.10	13542.34
705.23	13685.11
>>>>>End Processed Spectral Data<<<<<
