SpectraSuite Data File
++++++++++++++++++++++++++++++++++++
Date: Fri Oct 25 10:43:34 EDT 2013
User: price-jones
Dark Spectrum Present: No
Reference Spectrum Present: No
Number of Sampled Component Spectra: 1
Spectrometers: USB2+H05261
Integration Time (usec): 100000 (USB2+H05261)
Spectra Averaged: 1 (USB2+H05261)
Boxcar Smoothing: 0 (USB2+H05261)
Correct for Electrical Dark: No (USB2+H05261)
Strobe/Lamp Enabled: No (USB2+H05261)
Correct for Detector Non-linearity: No (USB2+H05261)
Correct for Stray Light: No (USB2+H05261)
Number of Pixels in Processed Spectrum: 2048
>>>>>Begin Processed Spectral Data<<<<<
365.73	147.45
365.92	147.45
366.12	147.45
366.32	0.00
366.52	11.70
366.72	65.54
366.91	0.00
367.11	0.00
367.31	0.00
367.51	74.90
367.70	32.77
367.90	30.43
368.10	0.00
368.30	44.47
368.49	23.41
368.69	28.09
368.89	63.19
369.09	0.00
369.28	44.47
369.48	102.98
369.68	11.70
369.87	91.28
370.07	98.30
370.27	142.77
370.47	163.84
370.66	404.91
370.86	360.44
371.06	440.02
371.25	521.94
371.45	428.32
371.65	463.43
371.84	500.87
372.04	472.79
372.24	547.69
372.44	564.07
372.63	517.26
372.83	468.11
373.03	496.19
373.22	533.64
373.42	566.41
373.62	547.69
373.81	552.37
374.01	545.34
374.21	517.26
374.40	566.41
374.60	587.47
374.79	554.71
374.99	622.58
375.19	535.98
375.38	517.26
375.58	653.01
375.78	582.79
375.97	681.10
376.17	624.92
376.37	624.92
376.56	662.37
376.76	589.82
376.95	655.35
377.15	667.05
377.35	617.90
377.54	650.67
377.74	671.73
377.93	613.22
378.13	617.90
378.33	645.99
378.52	690.46
378.72	627.26
378.91	620.24
379.11	627.26
379.31	699.82
379.50	653.01
379.70	734.93
379.89	688.12
380.09	779.40
380.28	655.35
380.48	681.10
380.68	692.80
380.87	746.63
381.07	676.41
381.26	751.31
381.46	746.63
381.65	793.44
381.85	690.46
382.04	662.37
382.24	720.88
382.43	667.05
382.63	741.95
382.83	699.82
383.02	737.27
383.22	720.88
383.41	697.48
383.61	716.20
383.80	800.46
384.00	676.41
384.19	798.12
384.39	807.48
384.58	767.70
384.78	805.14
384.97	929.19
385.17	784.08
385.36	833.23
385.56	781.74
385.75	837.91
385.95	910.47
386.14	847.27
386.34	847.27
386.53	882.38
386.72	875.36
386.92	866.00
387.11	880.04
387.31	854.30
387.50	805.14
387.70	814.51
387.89	929.19
388.09	896.43
388.28	861.32
388.48	947.92
388.67	997.07
388.86	945.58
389.06	940.90
389.25	990.05
389.45	933.87
389.64	990.05
389.84	999.41
390.03	1004.09
390.22	1013.45
390.42	1015.79
390.61	1004.09
390.81	1039.20
391.00	1036.86
391.19	1081.33
391.39	1086.01
391.58	1053.24
391.78	1020.47
391.97	1069.62
392.16	1046.22
392.36	1050.90
392.55	1263.89
392.75	985.37
392.94	994.73
393.13	950.26
393.33	1018.13
393.52	1004.09
393.71	1097.71
393.91	1100.05
394.10	1081.33
394.29	1170.27
394.49	1214.74
394.68	1238.14
394.88	1165.59
395.07	1240.48
395.26	1172.61
395.46	1207.72
395.65	1245.16
395.84	1247.51
396.04	1210.06
396.23	1240.48
396.42	1205.38
396.62	1233.46
396.81	1177.29
397.00	1273.25
397.19	1275.59
397.39	1270.91
397.58	1430.07
397.77	1397.30
397.97	1467.52
398.16	1394.96
398.35	1401.98
398.55	1469.86
398.74	1441.77
398.93	1570.50
399.12	1507.30
399.32	1455.81
399.51	1575.18
399.70	1490.92
399.90	1530.71
400.09	1741.36
400.28	1589.22
400.47	1631.35
400.67	1673.48
400.86	1685.19
401.05	1734.34
401.24	1760.08
401.44	1713.27
401.63	1788.17
401.82	1717.95
402.01	1643.06
402.21	1748.38
402.40	1710.93
402.59	1792.85
402.78	1790.51
402.97	1753.06
403.17	1813.92
403.36	1764.76
403.55	1834.98
403.74	1860.73
403.93	1900.52
404.13	1933.28
404.32	1989.46
404.51	1928.60
404.70	2029.24
404.89	1942.64
405.09	2069.03
405.28	1856.04
405.47	2012.86
405.66	2064.35
405.85	2024.56
406.05	2054.99
406.24	2083.08
406.43	2076.06
406.62	2064.35
406.81	2195.42
407.00	2024.56
407.20	2059.67
407.39	2059.67
407.58	2181.38
407.77	2303.09
407.96	2200.10
408.15	2265.64
408.34	2291.38
408.54	2345.22
408.73	2347.56
408.92	2380.32
409.11	2417.77
409.30	2377.98
409.49	2310.11
409.68	2267.98
409.87	2267.98
410.07	2354.58
410.26	2490.33
410.45	2452.88
410.64	2443.52
410.83	2605.02
411.02	2487.99
411.21	2761.83
411.40	2616.72
411.59	2705.66
411.78	2553.52
411.98	2689.28
412.17	2689.28
412.36	2684.59
412.55	2689.28
412.74	2785.24
412.93	2717.36
413.12	2745.45
413.31	2913.97
413.50	2967.80
413.69	2928.01
413.88	2946.73
414.07	2967.80
414.26	2913.97
414.45	2857.79
414.64	2958.44
414.83	3112.91
415.02	3021.63
415.22	3173.77
415.41	3290.79
415.60	3185.47
415.79	3243.98
415.98	3323.56
416.17	3372.71
416.36	3229.94
416.55	3229.94
416.74	3232.28
416.93	3225.26
417.12	3281.43
417.31	3529.53
417.50	3361.01
417.69	3588.04
417.88	3574.00
418.07	3543.57
418.26	3489.74
418.45	3592.72
418.64	3515.48
418.83	3630.17
419.02	3623.15
419.21	3674.64
419.39	3611.45
419.58	3646.55
419.77	3625.49
419.96	3714.43
420.15	3815.07
420.34	3714.43
420.53	3861.88
420.72	3768.26
420.91	3880.61
421.10	3878.27
421.29	3939.12
421.48	3915.72
421.67	3843.16
421.86	3822.09
422.05	3789.33
422.24	3833.80
422.43	3838.48
422.61	3882.95
422.80	3974.23
422.99	4133.39
423.18	4107.64
423.37	4044.45
423.56	4081.89
423.75	4109.98
423.94	3943.80
424.13	3735.50
424.32	3892.31
424.50	4018.70
424.69	4014.02
424.88	4191.90
425.07	3913.38
425.26	3925.08
425.45	3983.59
425.64	4070.19
425.83	4025.72
426.01	4032.74
426.20	4058.49
426.39	4067.85
426.58	4065.51
426.77	4060.83
426.96	4074.87
427.15	3911.04
427.33	4044.45
427.52	4166.15
427.71	4318.29
427.90	4180.20
428.09	4292.54
428.28	4234.03
428.46	4257.43
428.65	4304.25
428.84	4273.82
429.03	4337.01
429.22	4311.27
429.40	4163.81
429.59	4187.22
429.78	3922.74
429.97	4007.00
430.16	3967.21
430.34	4180.20
430.53	4266.80
430.72	4322.97
430.91	4203.60
431.10	4299.56
431.28	4631.92
431.47	4734.90
431.66	4671.71
431.85	4620.22
432.03	4819.16
432.22	4737.24
432.41	4737.24
432.60	4910.44
432.79	4788.74
432.97	4891.72
433.16	4851.93
433.35	4699.80
433.54	4805.12
433.72	4894.06
433.91	4730.22
434.10	4699.80
434.28	4844.91
434.47	4758.31
434.66	4968.96
434.85	4868.31
435.03	4959.60
435.22	5085.98
435.41	5291.95
435.59	5254.50
435.78	5256.84
435.97	5305.99
436.16	5219.39
436.34	5308.34
436.53	5364.51
436.72	5380.89
436.90	5078.96
437.09	5043.85
437.28	5291.95
437.46	5184.29
437.65	5184.29
437.84	5226.42
438.02	5259.18
438.21	5362.17
438.40	5378.55
438.58	5481.53
438.77	5554.09
438.96	5540.05
439.14	5687.50
439.33	5645.37
439.52	5776.44
439.70	5797.51
439.89	5781.12
440.08	5767.08
440.26	5762.40
440.45	5783.46
440.63	6057.31
440.82	6054.97
441.01	6253.91
441.19	6024.54
441.38	6293.70
441.57	6160.29
441.75	6193.06
441.94	6366.26
442.12	6452.86
442.31	6523.07
442.50	6434.13
442.68	6232.85
442.87	6307.74
443.05	6509.03
443.24	6544.14
443.43	6431.79
443.61	6513.71
443.80	6815.64
443.98	6502.01
444.17	6104.12
444.35	6569.88
444.54	6689.25
444.73	6677.55
444.91	6473.92
445.10	6771.17
445.28	6534.78
445.47	6539.46
445.65	6548.82
445.84	6607.33
446.02	6717.34
446.21	6551.16
446.39	6642.44
446.58	6705.63
446.77	6979.48
446.95	6665.85
447.14	6902.24
447.32	6871.81
447.51	6719.68
447.69	6719.68
447.88	6733.72
448.06	6679.89
448.25	6885.86
448.43	6846.07
448.62	6801.60
448.80	6757.13
448.99	6932.67
449.17	6918.62
449.36	6963.09
449.54	7054.37
449.73	7351.62
449.91	7164.38
450.10	7365.67
450.28	7164.38
450.46	7538.87
450.65	7377.37
450.83	7265.02
451.02	7414.82
451.20	7449.93
451.39	7431.20
451.57	7414.82
451.76	7314.17
451.94	7311.83
452.13	7379.71
452.31	7396.09
452.49	7225.23
452.68	7318.86
452.86	7410.14
453.05	7325.88
453.23	7478.01
453.42	7543.55
453.60	7428.86
453.78	7695.68
453.97	7365.67
454.15	7475.67
454.34	7770.58
454.52	7709.72
454.70	7485.03
454.89	7454.61
455.07	7698.02
455.26	7709.72
455.44	7941.44
455.62	7850.16
455.81	7985.91
455.99	7885.26
456.17	7695.68
456.36	8023.36
456.54	8088.89
456.73	8105.28
456.91	8037.40
457.09	8351.03
457.28	8299.54
457.46	8119.32
457.64	8329.97
457.83	8231.66
458.01	8248.05
458.19	8381.46
458.38	8362.73
458.56	8320.60
458.74	8276.13
458.93	8311.24
459.11	8400.18
459.29	8542.96
459.48	8528.91
459.66	8444.65
459.84	8468.06
460.03	8636.58
460.21	8430.61
460.39	8629.56
460.57	8578.06
460.76	8732.54
460.94	8952.55
461.12	8718.50
461.31	8636.58
461.49	8741.90
461.67	8837.86
461.85	8982.98
462.04	8613.17
462.22	9195.96
462.40	9109.36
462.59	9179.58
462.77	8849.57
462.95	9235.75
463.13	9001.70
463.32	8971.27
463.50	9170.22
463.68	9195.96
463.86	9149.15
464.05	9050.85
464.23	9092.98
464.41	9207.67
464.59	9090.64
464.78	9479.17
464.96	9277.88
465.14	9111.71
465.32	9413.63
465.50	9219.37
465.69	9448.74
465.87	9331.72
466.05	9488.53
466.23	9228.73
466.41	9228.73
466.60	9518.96
466.78	9362.14
466.96	9364.48
467.14	9537.68
467.32	9533.00
467.51	9570.45
467.69	9139.79
467.87	9706.20
468.05	9678.12
468.23	9355.12
468.41	9535.34
468.60	9554.07
468.78	9696.84
468.96	9610.24
469.14	9877.06
469.32	9958.98
469.50	9795.14
469.69	9844.29
469.87	10242.18
470.05	9895.78
470.23	10019.83
470.41	9867.70
470.59	10003.45
470.77	9977.70
470.95	10157.92
471.14	10164.95
471.32	10125.16
471.50	10576.88
471.68	10579.22
471.86	10553.48
472.04	10698.59
472.22	10738.38
472.40	10375.59
472.58	10560.50
472.77	10471.56
472.95	10626.03
473.13	10918.60
473.31	10537.09
473.49	10719.65
473.67	10888.17
473.85	11005.20
474.03	11208.83
474.21	11126.91
474.39	11279.04
474.57	11279.04
474.75	11410.11
474.93	11431.18
475.12	11316.49
475.30	11686.29
475.48	11253.30
475.66	11658.21
475.84	11419.47
476.02	11482.67
476.20	11157.33
476.38	11705.02
476.56	12037.38
476.74	12138.02
476.92	11922.69
477.10	12133.34
477.28	12315.90
477.46	12173.13
477.64	12351.01
477.82	12587.40
478.00	12959.55
478.18	12695.07
478.36	12709.11
478.54	13034.44
478.72	12856.56
478.90	13167.85
479.08	13142.11
479.26	13235.73
479.44	13277.86
479.62	13242.75
479.80	13495.53
479.98	13556.38
480.16	13666.39
480.34	13804.48
480.52	14143.86
480.70	13956.61
480.88	13919.17
481.06	14097.05
481.24	14115.77
481.41	14321.74
481.59	14530.05
481.77	14640.05
481.95	14621.33
482.13	14855.38
482.31	14424.72
482.49	15037.94
482.67	15131.56
482.85	15108.16
483.03	15421.79
483.21	15407.75
483.39	15611.37
483.57	15660.52
483.74	15417.11
483.92	15803.30
484.10	15796.28
484.28	15800.96
484.46	16414.18
484.64	16814.41
484.82	16145.02
485.00	16180.12
485.18	16503.12
485.35	16503.12
485.53	16451.63
485.71	16114.59
485.89	16601.42
486.07	16531.20
486.25	16608.44
486.43	17041.44
486.61	17057.82
486.78	17247.41
486.96	17460.40
487.14	17942.55
487.32	17776.37
487.50	18162.56
487.68	18352.14
487.85	18487.89
488.03	18478.53
488.21	19002.81
488.39	18654.07
488.57	18773.44
488.75	18743.01
488.92	18998.13
489.10	19573.90
489.28	19702.63
489.46	19709.65
489.64	19772.85
489.81	20233.93
489.99	20582.67
490.17	20395.43
490.35	20566.29
490.53	20512.46
490.70	20453.94
490.88	20861.19
491.06	21174.83
491.24	21167.80
491.41	20739.49
491.59	20952.48
491.77	20975.88
491.95	21195.89
492.13	21495.48
492.30	21876.99
492.48	21949.54
492.66	21923.80
492.84	22106.36
493.01	22436.38
493.19	22300.62
493.37	22490.21
493.54	22757.03
493.72	22841.29
493.90	22728.94
494.08	22771.07
494.25	23215.77
494.43	23349.18
494.61	23295.35
494.79	23812.61
494.96	23683.88
495.14	23435.78
495.32	23850.06
495.49	24032.62
495.67	23976.45
495.85	24446.90
496.02	24643.50
496.20	24482.00
496.38	24641.16
496.55	24694.99
496.73	25209.91
496.91	25062.46
497.09	25242.68
497.26	25223.95
497.44	25638.23
497.62	25553.97
497.79	25773.98
497.97	25645.25
498.14	25462.69
498.32	25778.66
498.50	26239.75
498.67	26342.73
498.85	26405.92
499.03	26408.26
499.20	26448.05
499.38	26588.49
499.56	26522.95
499.73	26740.62
499.91	26948.93
500.08	27082.34
500.26	26602.53
500.44	26911.48
500.61	27075.32
500.79	26508.91
500.97	27161.92
501.14	27356.18
501.32	27206.39
501.49	27126.81
501.67	27143.19
501.84	27501.29
502.02	28191.75
502.20	28212.82
502.37	28231.54
502.55	27929.61
502.72	28166.01
502.90	28542.83
503.07	28243.24
503.25	28512.41
503.43	28374.31
503.60	28383.68
503.78	28219.84
503.95	28388.36
504.13	28655.18
504.30	28954.77
504.48	28849.44
504.65	29282.44
504.83	29184.14
505.01	29062.43
505.18	29289.46
505.36	29551.60
505.53	29326.91
505.71	30316.96
505.88	30160.14
506.06	29565.65
506.23	29848.85
506.41	29811.40
506.58	29865.24
506.76	30132.06
506.93	30375.47
507.11	30321.64
507.28	30293.55
507.46	30263.13
507.63	30211.64
507.81	30771.02
507.98	30408.24
508.16	30600.16
508.33	30731.23
508.50	30902.09
508.68	31133.81
508.85	31395.95
509.03	31377.22
509.20	31321.05
509.38	31620.64
509.55	31758.73
509.73	31615.96
509.90	31786.82
510.08	31714.26
510.25	31597.23
510.42	31859.37
510.60	31908.52
510.77	31913.20
510.95	32163.64
511.12	32067.68
511.30	32325.14
511.47	32292.37
511.64	32737.07
511.82	32811.97
511.99	32292.37
512.17	32596.64
512.34	32409.40
512.51	33088.15
512.69	32818.99
512.86	32547.49
513.04	32950.06
513.21	32664.52
513.38	32849.42
513.56	32910.27
513.73	33034.32
513.90	33448.60
514.08	33151.35
514.25	33603.07
514.43	33266.03
514.60	33783.29
514.77	33432.21
514.95	33792.65
515.12	33832.44
515.29	34000.96
515.47	34164.80
515.64	34625.89
515.81	34195.23
515.99	34206.93
516.16	33736.48
516.33	33567.96
516.51	34064.16
516.68	33516.47
516.85	33137.30
517.03	33778.61
517.20	34251.40
517.37	34483.11
517.54	34981.65
517.72	34333.32
517.89	34518.22
518.06	34015.01
518.24	34464.39
518.41	34410.56
518.58	34511.20
518.75	34745.25
518.93	35082.29
519.10	34962.92
519.27	35379.54
519.45	35239.11
519.62	35409.96
519.79	35962.33
519.96	35503.59
520.14	35646.36
520.31	35395.92
520.48	35297.62
520.65	35751.68
520.83	36196.38
521.00	36112.13
521.17	36172.98
521.34	36409.37
521.52	36613.00
521.69	36430.44
521.86	36301.71
522.03	36783.86
522.20	36304.05
522.38	36875.14
522.55	37074.09
522.72	37170.05
522.89	36723.01
523.07	36687.90
523.24	36744.07
523.41	37216.86
523.58	36851.73
523.75	37713.05
523.92	36851.73
524.10	37645.18
524.27	37589.00
524.44	37214.52
524.61	37453.25
524.78	37944.76
524.96	37425.17
525.13	37598.37
525.30	37729.44
525.47	38075.84
525.64	37825.40
525.81	38014.98
525.98	38096.90
526.16	37530.49
526.33	37563.26
526.50	37460.27
526.67	37493.04
526.84	37626.45
527.01	37570.28
527.18	37771.57
527.36	38249.03
527.53	38218.61
527.70	38628.20
527.87	38614.16
528.04	38548.62
528.21	39019.07
528.38	38986.30
528.55	39115.03
528.72	38602.46
528.89	39442.71
529.07	39030.77
529.24	39299.94
529.41	39103.33
529.58	38831.83
529.75	39037.80
529.92	39150.14
530.09	39278.87
530.26	39384.19
530.43	39716.55
530.60	39328.02
530.77	39959.97
530.94	39643.99
531.11	39419.30
531.28	39690.80
531.46	39730.59
531.63	39922.52
531.80	39777.40
531.97	39868.69
532.14	39688.46
532.31	39730.59
532.48	39756.34
532.65	39536.33
532.82	39814.85
532.99	39639.31
533.16	39866.34
533.33	39922.52
533.50	40460.84
533.67	40187.00
533.84	40615.32
534.01	40332.11
534.18	40037.20
534.35	40699.58
534.52	40318.07
534.69	40451.48
534.86	41067.04
535.03	40582.55
535.20	41017.89
535.37	40919.59
535.54	41689.62
535.71	40790.86
535.88	40914.90
536.05	41085.76
536.22	40891.50
536.38	41354.93
536.55	41380.67
536.72	40903.20
536.89	40531.06
537.06	41123.21
537.23	41076.40
537.40	40947.67
537.57	41469.61
537.74	41310.46
537.91	42401.14
538.08	41443.87
538.25	41174.70
538.42	41511.74
538.59	41736.43
538.75	41703.67
538.92	41551.53
539.09	42014.96
539.26	41883.89
539.43	41813.67
539.60	41619.41
539.77	41755.16
539.94	41443.87
540.11	41422.80
540.28	41750.48
540.44	41343.22
540.61	41839.42
540.78	41507.06
540.95	42064.11
541.12	41467.27
541.29	41668.56
541.46	42415.19
541.62	42394.12
541.79	42260.71
541.96	41792.61
542.13	41853.46
542.30	41998.57
542.47	42532.22
542.63	42094.53
542.80	42820.10
542.97	42794.36
543.14	42960.53
543.31	42724.14
543.48	42768.61
543.64	43157.14
543.81	43105.65
543.98	43201.61
544.15	43246.08
544.32	43138.41
544.48	43117.35
544.65	43452.05
544.82	43384.17
544.99	43026.07
545.16	42808.40
545.32	42878.61
545.49	43669.72
545.66	43821.85
545.83	43442.68
546.00	43592.48
546.16	43468.43
546.33	43510.56
546.50	43157.14
546.67	43473.11
546.83	42988.62
547.00	43250.76
547.17	43129.05
547.34	43562.05
547.50	43688.44
547.67	43772.70
547.84	43606.52
548.00	43777.38
548.17	43739.93
548.34	43936.54
548.51	44479.54
548.67	44201.02
548.84	44121.44
549.01	43863.98
549.18	44053.56
549.34	43751.63
549.51	44126.12
549.68	44376.56
549.84	44378.90
550.01	43995.05
550.18	43578.43
550.34	44215.06
550.51	44301.66
550.68	44355.49
550.84	43578.43
551.01	44650.40
551.18	43620.56
551.34	44257.19
551.51	44266.55
551.68	44790.83
551.84	44839.98
552.01	44296.98
552.18	44320.38
552.34	43863.98
552.51	44601.25
552.68	44381.24
552.84	44825.94
553.01	44463.16
553.18	44259.53
553.34	44509.97
553.51	44516.99
553.67	44781.47
553.84	44854.03
554.01	45024.89
554.17	45371.28
554.34	44877.43
554.51	44744.02
554.67	45205.11
554.84	44786.15
555.00	44327.41
555.17	44868.07
555.33	45052.97
555.50	44945.31
555.67	45495.33
555.83	44889.13
556.00	44982.76
556.16	45022.54
556.33	45155.96
556.50	44746.36
556.66	45184.04
556.83	44425.71
556.99	44957.01
557.16	45195.74
557.32	45359.58
557.49	45432.14
557.65	44849.35
557.82	45137.23
557.98	45263.62
558.15	45195.74
558.32	45565.55
558.48	45090.42
558.65	44928.92
558.81	45104.46
558.98	45174.68
559.14	45401.71
559.31	45116.17
559.47	45324.47
559.64	45546.82
559.80	45207.45
559.97	45565.55
560.13	45237.87
560.30	45556.19
560.46	45265.96
560.63	45956.42
560.79	45755.13
560.96	45507.04
561.12	45600.66
561.29	45319.79
561.45	45890.88
561.61	45631.08
561.78	45492.99
561.94	45301.07
562.11	46031.32
562.27	45055.31
562.44	45305.75
562.60	45689.60
562.77	45771.52
562.93	45642.79
563.10	46089.83
563.26	45544.48
563.42	45935.35
563.59	45844.07
563.75	45382.99
563.92	45502.35
564.08	45642.79
564.24	46061.74
564.41	45752.79
564.57	46082.81
564.74	45593.64
564.90	45703.64
565.07	45649.81
565.23	46218.56
565.39	45598.32
565.56	45567.89
565.72	45546.82
565.88	45663.85
566.05	45818.33
566.21	45879.18
566.38	46064.08
566.54	45387.67
566.70	46087.49
566.87	45879.18
567.03	46054.72
567.19	46256.01
567.36	46202.18
567.52	45794.92
567.68	45989.19
567.85	45972.80
568.01	45942.38
568.17	45872.16
568.34	46052.38
568.50	45827.69
568.66	45654.49
568.83	46202.18
568.99	45729.39
569.15	45895.56
569.32	45933.01
569.48	45942.38
569.64	46330.90
569.81	46113.23
569.97	46019.61
570.13	46337.93
570.30	45907.27
570.46	45750.45
570.62	45808.96
570.78	45652.15
570.95	45801.94
571.11	45874.50
571.27	45670.87
571.43	46452.61
571.60	45907.27
571.76	45869.82
571.92	45886.20
572.09	46518.15
572.25	46466.66
572.41	46157.70
572.57	46307.50
572.74	46735.82
572.90	46068.76
573.06	46052.38
573.22	46202.18
573.38	45951.74
573.55	46300.48
573.71	46698.37
573.87	46735.82
574.03	46445.59
574.20	46363.67
574.36	45993.87
574.52	46234.94
574.68	46312.18
574.84	46445.59
575.01	45989.19
575.17	46213.88
575.33	46019.61
575.49	46153.02
575.65	46115.58
575.82	46000.89
575.98	46185.79
576.14	46539.21
576.30	46223.24
576.46	46415.16
576.62	46124.94
576.79	45799.60
576.95	45928.33
577.11	46106.21
577.27	45972.80
577.43	46246.65
577.59	45769.18
577.75	46106.21
577.92	45713.00
578.08	46085.15
578.24	45361.92
578.40	46007.91
578.56	46138.98
578.72	46637.51
578.88	46227.92
579.04	46457.29
579.21	45911.95
579.37	46279.41
579.53	46206.86
579.69	45940.04
579.85	46038.34
580.01	46564.96
580.17	46323.88
580.33	46307.50
580.49	46380.06
580.65	46354.31
580.82	46373.03
580.98	46457.29
581.14	45975.14
581.30	46199.83
581.46	46419.84
581.62	46653.90
581.78	45687.26
581.94	46876.25
582.10	46532.19
582.26	46536.87
582.42	46356.65
582.58	46248.99
582.74	46396.44
582.90	46740.50
583.06	46244.30
583.22	46478.36
583.38	46380.06
583.54	46604.75
583.70	46328.56
583.86	46373.03
584.02	46522.83
584.18	46351.97
584.34	46314.52
584.50	45963.44
584.66	46092.17
584.82	46726.46
584.98	46248.99
585.14	46618.79
585.30	46330.90
585.46	46618.79
585.62	46220.90
585.78	45954.08
585.94	46043.02
586.10	46323.88
586.26	45689.60
586.42	46880.93
586.58	46494.74
586.74	46291.12
586.90	46160.05
587.06	46398.78
587.22	46494.74
587.38	46429.21
587.54	46057.06
587.70	46579.00
587.86	46131.96
588.02	46197.49
588.18	46616.45
588.34	46012.59
588.49	45827.69
588.65	45546.82
588.81	45897.91
588.97	45940.04
589.13	45684.92
589.29	45942.38
589.45	46036.00
589.61	46185.79
589.77	46443.25
589.93	46499.42
590.08	46117.92
590.24	46506.44
590.40	46288.77
590.56	46890.29
590.72	46223.24
590.88	46349.63
591.04	46712.41
591.20	46791.99
591.35	46808.37
591.51	46646.88
591.67	46515.81
591.83	46279.41
591.99	46363.67
592.15	46197.49
592.31	46761.56
592.46	46377.72
592.62	46370.69
592.78	46756.88
592.94	46667.94
593.10	46218.56
593.26	47077.54
593.41	46752.20
593.57	46387.08
593.73	46223.24
593.89	46614.11
594.05	46408.14
594.20	46396.44
594.36	46309.84
594.52	46366.01
594.68	46483.04
594.84	46447.93
594.99	46162.39
595.15	46188.13
595.31	46777.95
595.47	46742.84
595.62	46323.88
595.78	46579.00
595.94	46747.52
596.10	46717.09
596.25	46883.27
596.41	46396.44
596.57	46595.38
596.73	46494.74
596.88	46433.89
597.04	46476.02
597.20	46562.62
597.36	46316.86
597.51	46623.47
597.67	46588.36
597.83	46153.02
597.99	46969.87
598.14	46581.34
598.30	46588.36
598.46	46265.37
598.61	46649.22
598.77	46424.53
598.93	46511.13
599.09	46632.83
599.24	46822.42
599.40	46681.98
599.56	46803.69
599.71	46656.24
599.87	46380.06
600.03	46419.84
600.18	46206.86
600.34	46330.90
600.50	46487.72
600.65	45984.51
600.81	46387.08
600.97	46457.29
601.12	46361.33
601.28	46564.96
601.44	46508.79
601.59	46258.35
601.75	45900.25
601.91	46401.12
602.06	46401.12
602.22	46202.18
602.37	46396.44
602.53	46241.96
602.69	46705.39
602.84	46583.68
603.00	46471.34
603.16	46071.10
603.31	46227.92
603.47	46934.76
603.62	46590.70
603.78	46728.80
603.94	46469.00
604.09	46782.63
604.25	46309.84
604.40	46206.86
604.56	46021.95
604.71	46356.65
604.87	46653.90
605.03	46082.81
605.18	46237.28
605.34	46274.73
605.49	46237.28
605.65	46890.29
605.80	46141.32
605.96	46340.27
606.12	46227.92
606.27	46476.02
606.43	46148.34
606.58	46368.35
606.74	46557.94
606.89	46136.64
607.05	46450.27
607.20	46340.27
607.36	46265.37
607.51	46373.03
607.67	46131.96
607.82	46150.68
607.98	46258.35
608.13	45918.97
608.29	45907.27
608.44	45769.18
608.60	45652.15
608.75	46017.27
608.91	46234.94
609.06	45722.37
609.22	46295.80
609.37	45790.24
609.53	46351.97
609.68	45748.11
609.84	46010.25
609.99	46059.40
610.15	45577.25
610.30	45350.22
610.46	45542.14
610.61	46096.85
610.76	45848.75
610.92	45928.33
611.07	46216.22
611.23	45897.91
611.38	46424.53
611.54	45890.88
611.69	45745.77
611.84	45375.97
612.00	45401.71
612.15	45556.19
612.31	45738.75
612.46	45549.17
612.62	45792.58
612.77	45830.03
612.92	45771.52
613.08	45361.92
613.23	45443.84
613.39	45092.76
613.54	44631.68
613.69	45483.63
613.85	45111.49
614.00	45324.47
614.15	45549.17
614.31	45610.02
614.46	45670.87
614.62	45287.03
614.77	44987.44
614.92	45078.72
615.08	45130.21
615.23	45022.54
615.38	45113.83
615.54	44825.94
615.69	45013.18
615.84	45132.55
616.00	45074.04
616.15	45069.36
616.30	44807.22
616.46	44549.76
616.61	45024.89
616.76	44701.89
616.92	44442.09
617.07	44800.19
617.22	44921.90
617.37	44430.39
617.53	44715.93
617.68	45088.08
617.83	44718.28
617.99	44671.46
618.14	44671.46
618.29	44348.47
618.45	44414.01
618.60	44474.86
618.75	44346.13
618.90	44311.02
619.06	44147.18
619.21	44329.75
619.36	44685.51
619.51	44194.00
619.67	44360.17
619.82	44521.67
619.97	44488.90
620.12	44112.08
620.28	43768.02
620.43	44081.65
620.58	44463.16
620.73	44119.10
620.89	44107.40
621.04	44793.17
621.19	44486.56
621.34	44243.15
621.49	44006.75
621.65	44135.48
621.80	44498.26
621.95	43917.81
622.10	44362.51
622.25	44233.78
622.41	43856.96
622.56	44360.17
622.71	44074.63
622.86	43625.25
623.01	43901.43
623.16	43854.62
623.32	43922.49
623.47	44016.11
623.62	43669.72
623.77	43550.35
623.92	43840.57
624.07	43552.69
624.23	43601.84
624.38	43414.60
624.53	43700.14
624.68	43536.30
624.83	43594.82
624.98	43484.81
625.13	43402.89
625.29	42988.62
625.44	43173.52
625.59	43269.48
625.74	43288.21
625.89	43152.46
626.04	43178.20
626.19	43199.27
626.34	42927.77
626.49	43676.74
626.65	42944.15
626.80	43515.24
626.95	43037.77
627.10	42663.28
627.25	42822.44
627.40	43089.26
627.55	42728.82
627.70	42749.88
627.85	42880.95
628.00	43054.15
628.15	42955.85
628.30	42869.25
628.45	42862.23
628.60	42394.12
628.76	42586.05
628.91	42550.94
629.06	42494.77
629.21	42586.05
629.36	42522.85
629.51	42183.48
629.66	42775.63
629.81	42328.59
629.96	42113.26
630.11	42246.67
630.26	42466.68
630.41	42464.34
630.56	42864.57
630.71	42438.59
630.86	42113.26
631.01	42398.80
631.16	42124.96
631.31	41745.80
631.46	41862.82
631.61	42188.16
631.76	42040.70
631.91	42185.82
632.06	42220.92
632.21	42117.94
632.36	42401.14
632.51	42281.78
632.66	41986.87
632.81	41612.38
632.96	41713.03
633.10	41977.51
633.25	42431.57
633.40	42101.56
633.55	41481.31
633.70	42155.39
633.85	41654.51
634.00	41909.63
634.15	42204.54
634.30	41926.02
634.45	41715.37
634.60	41991.55
634.75	41432.16
634.90	41544.51
635.05	41965.81
635.19	41708.35
635.34	41682.60
635.49	41343.22
635.64	41490.68
635.79	41642.81
635.94	41090.44
636.09	41378.33
636.24	41118.53
636.39	40875.12
636.53	41289.39
636.68	41230.88
636.83	41413.44
636.98	41336.20
637.13	41310.46
637.28	41291.73
637.43	41834.74
637.57	41322.16
637.72	41235.56
637.87	41528.13
638.02	41481.31
638.17	40985.12
638.32	41254.28
638.46	41041.29
638.61	41085.76
638.76	41347.90
638.91	40783.83
639.06	40818.94
639.20	41036.61
639.35	41022.57
639.50	40325.09
639.65	41064.70
639.80	40355.52
639.94	40790.86
640.09	40720.64
640.24	40404.67
640.39	40093.38
640.54	40371.90
640.68	40285.30
640.83	40322.75
640.98	40570.85
641.13	40643.40
641.27	40982.78
641.42	39995.07
641.57	40278.28
641.72	40268.92
641.86	40093.38
642.01	39978.69
642.16	40168.27
642.31	40271.26
642.45	40170.61
642.60	40032.52
642.75	40076.99
642.90	40264.24
643.04	40168.27
643.19	39943.58
643.34	40058.27
643.48	39718.89
643.63	40112.10
643.78	40055.93
643.93	39950.60
644.07	39819.53
644.22	39871.03
644.37	39807.83
644.51	39845.28
644.66	40055.93
644.81	39758.68
644.95	39955.29
645.10	39552.71
645.25	39962.31
645.39	39714.21
645.54	39915.50
645.69	39379.51
645.83	39709.53
645.98	39274.19
646.13	39604.20
646.27	39978.69
646.42	39070.56
646.57	39150.14
646.71	39541.01
646.86	39374.83
647.00	39337.38
647.15	39103.33
647.30	39023.75
647.44	39297.59
647.59	39150.14
647.74	39285.89
647.88	39115.03
648.03	39213.34
648.17	39218.02
648.32	39220.36
648.47	39091.63
648.61	38768.63
648.76	39318.66
648.90	39173.55
649.05	38789.70
649.20	39150.14
649.34	39054.18
649.49	38543.94
649.63	38684.37
649.78	39246.10
649.92	38920.77
650.07	39325.68
650.21	38752.25
650.36	38876.30
650.51	38782.68
650.65	39243.76
650.80	39466.11
650.94	39115.03
651.09	38398.83
651.23	38237.33
651.38	38494.79
651.52	38363.72
651.67	38258.40
651.81	38653.95
651.96	38770.97
652.10	38574.37
652.25	38714.80
652.39	38899.70
652.54	39225.04
652.68	38352.02
652.83	38316.91
652.97	38375.42
653.12	38452.66
653.26	38059.45
653.41	38242.01
653.55	38349.68
653.70	38581.39
653.84	38160.09
653.99	38387.13
654.13	37827.74
654.27	37986.89
654.42	38251.38
654.56	38155.41
654.71	38190.52
654.85	38005.62
655.00	37879.23
655.14	37706.03
655.29	37546.87
655.43	37696.67
655.57	37247.29
655.72	37237.92
655.86	37453.25
656.01	36931.31
656.15	37120.90
656.30	37099.83
656.44	37212.18
656.58	37844.12
656.73	37141.96
656.87	37338.57
657.01	37429.85
657.16	37312.82
657.30	36746.41
657.45	36514.70
657.59	37205.16
657.73	37490.70
657.88	37471.98
658.02	37329.20
658.16	37799.65
658.31	37401.76
658.45	37603.05
658.60	37015.57
658.74	37275.37
658.88	37387.72
659.03	36851.73
659.17	36898.55
659.31	37050.68
659.46	36760.45
659.60	37230.90
659.74	36727.69
659.89	36643.43
660.03	36816.63
660.17	36643.43
660.32	37200.47
660.46	36760.45
660.60	36346.18
660.74	36840.03
660.89	36570.87
661.03	36500.65
661.17	36194.04
661.32	36477.25
661.46	36416.40
661.60	36559.17
661.74	36217.45
661.89	36128.51
662.03	35985.74
662.17	35945.95
662.31	36526.40
662.46	36158.94
662.60	36142.55
662.74	36030.21
662.88	35849.99
663.03	35653.38
663.17	35620.61
663.31	35309.32
663.45	35765.73
663.60	35716.58
663.74	35424.01
663.88	35426.35
664.02	35524.65
664.17	35697.85
664.31	34969.94
664.45	35456.78
664.59	35056.54
664.73	35274.21
664.88	35459.12
665.02	34967.60
665.16	34953.56
665.30	34986.33
665.44	34536.94
665.59	34698.44
665.73	34852.92
665.87	34550.99
666.01	34525.24
666.15	34866.96
666.29	34841.21
666.44	34740.57
666.58	34763.98
666.72	34520.56
666.86	34494.82
667.00	34520.56
667.14	34560.35
667.28	34307.57
667.43	34127.35
667.57	34642.27
667.71	34080.54
667.85	33933.09
667.99	34356.72
668.13	34253.74
668.27	33916.70
668.41	34239.70
668.56	33542.22
668.70	33958.83
668.84	33317.53
668.98	33350.29
669.12	33724.78
669.26	33635.84
669.40	33172.41
669.54	33631.16
669.68	33500.09
669.82	32994.53
669.96	33268.37
670.10	33259.01
670.25	33357.32
670.39	33418.17
670.53	33022.62
670.67	32952.40
670.81	33132.62
670.95	33069.43
671.09	32678.56
671.23	32458.55
671.37	32617.71
671.51	32437.48
671.65	32268.97
671.79	32275.99
671.93	32034.91
672.07	32615.37
672.21	32144.92
672.35	31974.06
672.49	32364.93
672.63	32336.84
672.77	32259.60
672.91	31997.46
673.05	32119.17
673.19	31417.01
673.33	31615.96
673.47	31896.82
673.61	31573.83
673.75	31374.88
673.89	31426.37
674.03	31363.18
674.17	31716.60
674.31	31094.02
674.45	31452.12
674.59	31295.30
674.73	31531.70
674.87	31166.57
675.01	30993.37
675.15	30976.99
675.29	30609.53
675.43	30890.39
675.56	31028.48
675.70	30677.40
675.84	30691.44
675.98	29621.82
676.12	30148.44
676.26	30525.27
676.40	30331.00
676.54	30726.55
676.68	29979.92
676.82	29607.78
676.96	29898.00
677.10	30181.21
677.23	29715.44
677.37	29560.97
677.51	29420.53
677.65	29355.00
677.79	28982.85
677.93	29081.16
678.07	28875.19
678.21	28395.38
678.34	29132.65
678.48	28790.93
678.62	28261.97
678.76	28753.48
678.90	28166.01
679.04	28481.98
679.18	28287.71
679.31	28163.67
679.45	27988.13
679.59	28203.46
679.73	28245.58
679.87	28173.03
680.00	28123.88
680.14	27852.38
680.28	27824.29
680.42	27410.01
680.56	27501.29
680.70	27840.67
680.83	27702.58
680.97	27246.18
681.11	27325.75
681.25	27147.87
681.39	27002.76
681.52	26977.01
681.66	26960.63
681.80	26841.26
681.94	26639.98
682.07	26684.45
682.21	26499.55
682.35	26340.39
682.49	26471.46
682.62	26214.00
682.76	25937.82
682.90	26171.87
683.04	26059.52
683.17	25883.98
683.31	25516.52
683.45	25970.58
683.59	25390.13
683.72	25453.33
683.86	25659.29
684.00	25970.58
684.13	25507.16
684.27	25359.70
684.41	25303.53
684.55	25111.61
684.68	24964.15
684.82	24594.35
684.96	25017.99
685.09	24903.30
685.23	24547.54
685.37	24615.41
685.50	24477.32
685.64	24657.54
685.78	24622.44
685.91	24269.01
686.05	24278.38
686.19	23761.12
686.32	23686.22
686.46	23410.04
686.60	23534.09
686.73	23154.92
686.87	23019.17
687.01	23236.84
687.14	23129.17
687.28	22574.47
687.42	23218.11
687.55	22991.08
687.69	22834.27
687.82	23051.94
687.96	22871.72
688.10	22747.67
688.23	22700.86
688.37	22672.77
688.50	22569.79
688.64	22604.89
688.78	22434.03
688.91	22045.51
689.05	22345.09
689.18	22087.64
689.32	21544.63
689.46	22085.30
689.59	22068.91
689.73	22204.66
689.86	21809.11
690.00	21638.25
690.13	21764.64
690.27	21862.94
690.41	21331.64
690.54	21441.65
690.68	21500.16
690.81	21214.62
690.95	21186.53
691.08	20947.79
691.22	20943.11
691.35	20903.32
691.49	21006.31
691.62	20912.69
691.76	21001.63
691.89	20606.08
692.03	20744.17
692.16	20432.88
692.30	20116.90
692.43	20219.89
692.57	20011.58
692.70	20156.69
692.84	20023.28
692.97	19506.02
693.11	19761.14
693.24	19538.79
693.38	19583.26
693.51	19810.29
693.65	19393.68
693.78	19496.66
693.92	19515.39
694.05	19295.38
694.19	19185.37
694.32	19176.01
694.45	19503.68
694.59	19019.19
694.72	18869.40
694.86	18640.03
694.99	18890.46
695.13	18609.60
695.26	18473.85
695.39	18511.30
695.53	18647.05
695.66	18789.82
695.80	18471.51
695.93	18408.31
696.07	18090.00
696.20	18087.66
696.33	18225.75
696.47	18094.68
696.60	18071.28
696.73	17818.50
696.87	17783.39
697.00	17593.81
697.14	17266.13
697.27	17507.21
697.40	17219.32
697.54	17490.82
697.67	17287.20
697.80	17408.90
697.94	17050.80
698.07	17184.21
698.21	16968.88
698.34	17221.66
698.47	17027.40
698.61	16669.30
698.74	16982.93
698.87	16786.32
699.01	16280.77
699.14	16435.24
699.27	16238.64
699.40	16641.21
699.54	16250.34
699.67	16233.96
699.80	16020.97
699.94	16004.58
700.07	15985.86
700.20	15901.60
700.34	16032.67
700.47	16252.68
700.60	16020.97
700.73	15815.00
700.87	15669.89
701.00	15726.06
701.13	15531.80
701.26	15386.68
701.40	15499.03
701.53	15283.70
701.66	15211.14
701.79	15101.14
701.93	15075.39
702.06	14911.55
702.19	14899.85
702.32	14815.59
702.46	15014.54
702.59	14878.79
702.72	14974.75
702.85	14803.89
702.99	14815.59
703.12	14576.86
703.25	14363.87
703.38	14420.04
703.51	14338.12
703.65	14340.46
703.78	14188.33
703.91	14202.37
704.04	13848.95
704.17	13970.66
704.31	13973.00
704.44	14068.96
704.57	13884.06
704.70	13561.06
704.83	13813.84
704.96	13661.71
705.10	13645.32
705.23	13366.80
>>>>>End Processed Spectral Data<<<<<
