SpectraSuite Data File
++++++++++++++++++++++++++++++++++++
Date: Fri Oct 25 10:47:06 EDT 2013
User: price-jones
Dark Spectrum Present: No
Reference Spectrum Present: No
Number of Sampled Component Spectra: 1
Spectrometers: USB2+H05261
Integration Time (usec): 100000 (USB2+H05261)
Spectra Averaged: 1 (USB2+H05261)
Boxcar Smoothing: 0 (USB2+H05261)
Correct for Electrical Dark: No (USB2+H05261)
Strobe/Lamp Enabled: No (USB2+H05261)
Correct for Detector Non-linearity: No (USB2+H05261)
Correct for Stray Light: No (USB2+H05261)
Number of Pixels in Processed Spectrum: 2048
>>>>>Begin Processed Spectral Data<<<<<
365.73	121.71
365.92	121.71
366.12	121.71
366.32	102.98
366.52	58.51
366.72	11.70
366.91	0.00
367.11	39.79
367.31	32.77
367.51	49.15
367.70	60.85
367.90	0.00
368.10	14.04
368.30	37.45
368.49	72.56
368.69	70.22
368.89	65.54
369.09	100.64
369.28	23.41
369.48	63.19
369.68	67.88
369.87	74.90
370.07	110.01
370.27	117.03
370.47	276.18
370.66	320.65
370.86	409.59
371.06	416.62
371.25	440.02
371.45	362.78
371.65	423.64
371.84	517.26
372.04	447.04
372.24	510.24
372.44	461.09
372.63	545.34
372.83	535.98
373.03	475.13
373.22	454.06
373.42	561.73
373.62	489.17
373.81	568.75
374.01	521.94
374.21	486.83
374.40	566.41
374.60	638.97
374.79	526.62
374.99	468.11
375.19	568.75
375.38	528.96
375.58	613.22
375.78	624.92
375.97	596.84
376.17	554.71
376.37	545.34
376.56	496.19
376.76	608.54
376.95	580.45
377.15	702.16
377.35	641.31
377.54	671.73
377.74	603.86
377.93	589.82
378.13	610.88
378.33	613.22
378.52	695.14
378.72	657.69
378.91	669.39
379.11	667.05
379.31	596.84
379.50	535.98
379.70	709.18
379.89	653.01
380.09	636.63
380.28	610.88
380.48	697.48
380.68	709.18
380.87	662.37
381.07	641.31
381.26	695.14
381.46	631.94
381.65	624.92
381.85	727.91
382.04	667.05
382.24	706.84
382.43	648.33
382.63	725.57
382.83	748.97
383.02	791.10
383.22	781.74
383.41	725.57
383.61	748.97
383.80	767.70
384.00	706.84
384.19	725.57
384.39	695.14
384.58	716.20
384.78	741.95
384.97	685.78
385.17	692.80
385.36	767.70
385.56	833.23
385.75	676.41
385.95	741.95
386.14	788.76
386.34	713.86
386.53	748.97
386.72	748.97
386.92	819.19
387.11	854.30
387.31	805.14
387.50	779.40
387.70	877.70
387.89	866.00
388.09	744.29
388.28	849.61
388.48	800.46
388.67	887.06
388.86	758.33
389.06	875.36
389.25	905.79
389.45	903.45
389.64	999.41
389.84	922.17
390.03	875.36
390.22	912.81
390.42	952.60
390.61	847.27
390.81	922.17
391.00	889.40
391.19	870.68
391.39	947.92
391.58	1036.86
391.78	1046.22
391.97	945.58
392.16	994.73
392.36	990.05
392.55	896.43
392.75	957.28
392.94	961.96
393.13	983.02
393.33	931.53
393.52	887.06
393.71	973.66
393.91	1128.14
394.10	1071.97
394.29	1020.47
394.49	1060.26
394.68	1067.28
394.88	1207.72
395.07	1095.37
395.26	1095.37
395.46	1139.84
395.65	1256.87
395.84	1146.86
396.04	1179.63
396.23	1151.54
396.42	1090.69
396.62	1174.95
396.81	1123.46
397.00	1170.27
397.19	1102.39
397.39	1116.44
397.58	1205.38
397.77	1266.23
397.97	1188.99
398.16	1310.70
398.35	1254.53
398.55	1348.15
398.74	1287.29
398.93	1423.05
399.12	1331.76
399.32	1270.91
399.51	1306.02
399.70	1348.15
399.90	1284.95
400.09	1425.39
400.28	1451.13
400.47	1320.06
400.67	1434.75
400.86	1420.71
401.05	1460.49
401.24	1474.54
401.44	1526.03
401.63	1533.05
401.82	1610.29
402.01	1502.62
402.21	1483.90
402.40	1537.73
402.59	1591.56
402.78	1544.75
402.97	1451.13
403.17	1586.88
403.36	1530.71
403.55	1619.65
403.74	1706.25
403.93	1774.13
404.13	1626.67
404.32	1664.12
404.51	1659.44
404.70	1607.95
404.89	1694.55
405.09	1720.29
405.28	1680.50
405.47	1650.08
405.66	1673.48
405.85	1790.51
406.05	1736.68
406.24	1746.04
406.43	1820.94
406.62	1839.66
406.81	1834.98
407.00	1694.55
407.20	1720.29
407.39	1858.39
407.58	1853.70
407.77	1987.11
407.96	1982.43
408.15	1994.14
408.34	2001.16
408.54	2057.33
408.73	2024.56
408.92	1994.14
409.11	2059.67
409.30	2001.16
409.49	2005.84
409.68	2090.10
409.87	2024.56
410.07	2078.40
410.26	1984.77
410.45	2120.53
410.64	2111.16
410.83	2176.70
411.02	2272.66
411.21	2197.76
411.40	2289.04
411.59	2370.96
411.78	2275.00
411.98	2380.32
412.17	2303.09
412.36	2431.82
412.55	2394.37
412.74	2434.16
412.93	2363.94
413.12	2497.35
413.31	2429.48
413.50	2396.71
413.69	2385.01
413.88	2588.63
414.07	2640.12
414.26	2576.93
414.45	2586.29
414.64	2654.17
414.83	2743.11
415.02	2637.78
415.22	2836.73
415.41	2911.63
415.60	2832.05
415.79	2775.88
415.98	2918.65
416.17	2815.66
416.36	2808.64
416.55	2857.79
416.74	3014.61
416.93	2864.82
417.12	2736.09
417.31	2981.84
417.50	2857.79
417.69	3040.36
417.88	2970.14
418.07	3038.02
418.26	3138.66
418.45	3049.72
418.64	3225.26
418.83	3155.04
419.02	3126.96
419.21	3309.52
419.39	3248.66
419.58	3126.96
419.77	3101.21
419.96	3103.55
420.15	3267.39
420.34	3330.58
420.53	3375.05
420.72	3391.44
420.91	3321.22
421.10	3302.50
421.29	3482.72
421.48	3316.54
421.67	3365.69
421.86	3440.59
422.05	3463.99
422.24	3454.63
422.43	3433.57
422.61	3386.76
422.80	3531.87
422.99	3562.30
423.18	3524.85
423.37	3648.90
423.56	3452.29
423.75	3466.33
423.94	3346.97
424.13	3180.79
424.32	3389.10
424.50	3393.78
424.69	3494.42
424.88	3646.55
425.07	3447.61
425.26	3501.44
425.45	3445.27
425.64	3520.17
425.83	3482.72
426.01	3478.04
426.20	3527.19
426.39	3665.28
426.58	3632.51
426.77	3506.12
426.96	3648.90
427.15	3592.72
427.33	3765.92
427.52	3700.39
427.71	3747.20
427.90	3667.62
428.09	3641.87
428.28	3735.50
428.46	3857.20
428.65	3798.69
428.84	3826.78
429.03	3948.48
429.22	3665.28
429.40	3693.37
429.59	3775.28
429.78	3630.17
429.97	3522.51
430.16	3737.84
430.34	3794.01
430.53	3815.07
430.72	3908.69
430.91	4002.32
431.10	4025.72
431.28	4131.05
431.47	4049.13
431.66	4292.54
431.85	4058.49
432.03	4236.37
432.22	4109.98
432.41	4131.05
432.60	4217.65
432.79	4217.65
432.97	4341.69
433.16	4138.07
433.35	4259.78
433.54	4311.27
433.72	4297.22
433.91	4285.52
434.10	4376.80
434.28	4219.99
434.47	4386.16
434.66	4514.89
434.85	4447.02
435.03	4402.55
435.22	4407.23
435.41	4552.34
435.59	4608.51
435.78	4449.36
435.97	4650.64
436.16	4484.47
436.34	4589.79
436.53	4578.09
436.72	4655.33
436.90	4535.96
437.09	4660.01
437.28	4454.04
437.46	4638.94
437.65	4599.15
437.84	4622.56
438.02	4716.18
438.21	4774.69
438.40	4669.37
438.58	4856.61
438.77	4819.16
438.96	4821.50
439.14	5060.24
439.33	4938.53
439.52	5078.96
439.70	5104.71
439.89	5153.86
440.08	5254.50
440.26	5137.48
440.45	5177.26
440.63	5343.44
440.82	5301.31
441.01	5287.27
441.19	5350.46
441.38	5406.64
441.57	5399.62
441.75	5343.44
441.94	5528.35
442.12	5423.02
442.31	5720.27
442.50	5650.05
442.68	5706.23
442.87	5596.22
443.05	5781.12
443.24	5757.72
443.43	5694.52
443.61	5762.40
443.80	5951.98
443.98	5687.50
444.17	5628.99
444.35	5762.40
444.54	5790.49
444.73	5951.98
444.91	5905.17
445.10	5699.20
445.28	5797.51
445.47	5774.10
445.65	5783.46
445.84	5734.31
446.02	5921.56
446.21	5851.34
446.39	5844.32
446.58	5966.03
446.77	6008.16
446.95	5841.98
447.14	5921.56
447.32	6099.44
447.51	6076.03
447.69	6171.99
447.88	6059.65
448.06	6029.22
448.25	6087.73
448.43	6050.28
448.62	6008.16
448.80	6132.20
448.99	6078.37
449.17	6150.93
449.36	6045.60
449.54	6321.79
449.73	6326.47
449.91	6321.79
450.10	6373.28
450.28	6377.96
450.46	6555.84
450.65	6452.86
450.83	6700.95
451.02	6338.17
451.20	6506.69
451.39	6548.82
451.57	6445.84
451.76	6347.53
451.94	6342.85
452.13	6494.99
452.31	6509.03
452.49	6384.98
452.68	6499.67
452.86	6602.65
453.05	6576.91
453.23	6490.31
453.42	6455.20
453.60	6633.08
453.78	6658.82
453.97	6525.41
454.15	6600.31
454.34	6651.80
454.52	6855.43
454.70	6642.44
454.89	6817.98
455.07	6855.43
455.26	6972.46
455.44	6991.18
455.62	7042.67
455.81	7070.76
455.99	6988.84
456.17	6932.67
456.36	7019.27
456.54	7138.63
456.73	7428.86
456.91	7297.79
457.09	7164.38
457.28	7250.98
457.46	7178.42
457.64	7276.73
457.83	7218.21
458.01	7302.47
458.19	7396.09
458.38	7269.70
458.56	7419.50
458.74	7391.41
458.93	7377.37
459.11	7536.52
459.29	7712.07
459.48	7590.36
459.66	7506.10
459.84	7365.67
460.03	7726.11
460.21	7597.38
460.39	7669.94
460.57	7658.23
460.76	7662.91
460.94	7810.37
461.12	7784.62
461.31	7775.26
461.49	7695.68
461.67	7805.69
461.85	8035.06
462.04	7777.60
462.22	8332.31
462.40	8198.90
462.59	7918.03
462.77	7911.01
462.95	8128.68
463.13	8159.11
463.32	8011.65
463.50	8128.68
463.68	8098.25
463.86	8060.80
464.05	8013.99
464.23	8018.68
464.41	8203.58
464.59	7896.97
464.78	8203.58
464.96	8250.39
465.14	8229.32
465.32	8575.72
465.50	8369.76
465.69	8198.90
465.87	8365.07
466.05	8327.63
466.23	8194.22
466.41	8322.94
466.60	8414.23
466.78	8446.99
466.96	8301.88
467.14	8336.99
467.32	8580.40
467.51	8493.80
467.69	8521.89
467.87	8306.56
468.05	8578.06
468.23	8472.74
468.41	8538.27
468.60	8699.77
468.78	8772.33
468.96	8596.79
469.14	8741.90
469.32	9048.51
469.50	8641.26
469.69	8903.40
469.87	8999.36
470.05	8931.48
470.23	8947.87
470.41	8762.97
470.59	9081.28
470.77	8931.48
470.95	9001.70
471.14	9200.65
471.32	8823.82
471.50	9329.38
471.68	9212.35
471.86	9324.69
472.04	9132.77
472.22	9551.73
472.40	9385.55
472.58	9479.17
472.77	9614.92
472.95	9385.55
473.13	9769.40
473.31	9298.95
473.49	9469.81
473.67	9591.52
473.85	9722.59
474.03	9991.75
474.21	9844.29
474.39	10008.13
474.57	10024.51
474.75	9970.68
474.93	10024.51
475.12	9996.43
475.30	10099.41
475.48	9973.02
475.66	10085.37
475.84	10286.65
476.02	10209.42
476.20	10607.31
476.38	10633.05
476.56	10778.17
476.74	10457.51
476.92	10614.33
477.10	10721.99
477.28	10944.34
477.46	10757.10
477.64	11080.10
477.82	11283.72
478.00	11328.19
478.18	11346.92
478.36	11536.50
478.54	11477.99
478.72	11508.41
478.90	11454.58
479.08	11962.48
479.26	12042.06
479.44	12210.57
479.62	11964.82
479.80	12070.14
479.98	12042.06
480.16	12578.04
480.34	12343.99
480.52	12407.18
480.70	12292.49
480.88	12358.03
481.06	12674.00
481.24	12620.17
481.41	12812.09
481.59	13004.02
481.77	12945.50
481.95	13088.28
482.13	13380.84
482.31	13298.92
482.49	13502.55
482.67	13413.61
482.85	13429.99
483.03	13654.69
483.21	14068.96
483.39	13860.65
483.57	13853.63
483.74	14090.02
483.92	14471.53
484.10	14216.41
484.28	14214.07
484.46	14668.14
484.64	14817.93
484.82	14551.11
485.00	14991.13
485.18	15033.26
485.35	15129.22
485.53	15115.18
485.71	14963.04
485.89	15391.36
486.07	15232.21
486.25	15597.33
486.43	15599.67
486.61	15749.46
486.78	15967.13
486.96	15833.72
487.14	16149.70
487.32	16095.86
487.50	16355.66
487.68	16650.57
487.85	16748.87
488.03	16681.00
488.21	17172.51
488.39	17095.27
488.57	17331.67
488.75	17518.91
488.92	17481.46
489.10	17633.60
489.28	17516.57
489.46	17942.55
489.64	17816.16
489.81	18366.18
489.99	18171.92
490.17	18317.03
490.35	18583.85
490.53	18544.06
490.70	18810.89
490.88	18787.48
491.06	19197.07
491.24	18721.95
491.41	18780.46
491.59	19082.39
491.77	19119.84
491.95	19571.56
492.13	19515.39
492.30	19934.34
492.48	19728.38
492.66	19840.72
492.84	19845.40
493.01	20233.93
493.19	20327.55
493.37	20688.00
493.54	20479.69
493.72	20531.18
493.90	20734.81
494.08	20893.96
494.25	21348.03
494.43	21050.78
494.61	21427.60
494.79	21268.45
494.96	21549.31
495.14	21404.20
495.32	21837.20
495.49	21656.98
495.67	21994.01
495.85	21968.27
496.02	22111.04
496.20	22459.78
496.38	22691.49
496.55	22450.42
496.73	23218.11
496.91	22555.74
497.09	23197.05
497.26	22827.24
497.44	22972.36
497.62	22789.80
497.79	23365.57
497.97	23300.03
498.14	23314.08
498.32	23531.75
498.50	23651.11
498.67	23765.80
498.85	23840.70
499.03	24341.57
499.20	24154.33
499.38	24130.92
499.56	24369.66
499.73	24507.75
499.91	24334.55
500.08	24753.51
500.26	24826.06
500.44	25095.22
500.61	24638.82
500.79	24491.37
500.97	24837.76
501.14	25032.03
501.32	25046.07
501.49	24900.96
501.67	25439.28
501.84	25483.75
502.02	25436.94
502.20	25633.55
502.37	25851.22
502.55	25717.81
502.72	25647.59
502.90	25771.64
503.07	26094.63
503.25	26223.36
503.43	26003.35
503.60	26258.47
503.78	26324.01
503.95	26008.03
504.13	26518.27
504.30	26408.26
504.48	26284.22
504.65	26647.00
504.83	26988.72
505.01	26986.38
505.18	26766.37
505.36	27016.80
505.53	27033.19
505.71	27372.57
505.88	27292.99
506.06	27124.47
506.23	27580.87
506.41	27400.65
506.58	27410.01
506.76	27674.49
506.93	27744.71
507.11	27496.61
507.28	27929.61
507.46	27995.15
507.63	27613.64
507.81	28217.50
507.98	28196.43
508.16	28280.69
508.33	28357.93
508.50	28252.61
508.68	28540.49
508.85	28816.68
509.03	28386.02
509.20	28746.46
509.38	28954.77
509.55	29003.92
509.73	29076.48
509.90	28704.33
510.08	29017.96
510.25	28833.06
510.42	29336.27
510.60	29500.11
510.77	29252.02
510.95	30118.01
511.12	29125.63
511.30	29647.57
511.47	29752.89
511.64	30139.08
511.82	30300.58
511.99	29951.84
512.17	30199.93
512.34	30129.72
512.51	30298.23
512.69	30529.95
512.86	30822.51
513.04	30359.09
513.21	30848.26
513.38	30712.51
513.56	31009.76
513.73	30298.23
513.90	31009.76
514.08	30738.26
514.25	30909.11
514.43	30881.03
514.60	31370.20
514.77	31101.04
514.95	31405.31
515.12	31297.64
515.29	31257.85
515.47	31931.93
515.64	31522.34
515.81	31307.01
515.99	31377.22
516.16	31365.52
516.33	31768.09
516.51	31810.22
516.68	31620.64
516.85	31452.12
517.03	31580.85
517.20	32264.28
517.37	31751.71
517.54	32350.88
517.72	32369.61
517.89	32025.55
518.06	31997.46
518.24	32224.50
518.41	32191.73
518.58	32109.81
518.75	32606.00
518.93	32568.55
519.10	32842.40
519.27	32980.49
519.45	32900.91
519.62	33015.60
519.79	32840.06
519.96	33504.77
520.14	33102.20
520.31	32844.74
520.48	33848.83
520.65	33263.69
520.83	33834.78
521.00	33684.99
521.17	33483.70
521.34	33806.70
521.52	33752.87
521.69	33626.48
521.86	33603.07
522.03	33853.51
522.20	34227.99
522.38	34604.82
522.55	34520.56
522.72	34382.47
522.89	33827.76
523.07	34639.93
523.24	34085.22
523.41	34328.64
523.58	34136.71
523.75	34864.62
523.92	34169.48
524.10	34883.34
524.27	34920.79
524.44	35321.02
524.61	34705.46
524.78	35353.79
524.96	35218.04
525.13	35318.68
525.30	35849.99
525.47	35840.62
525.64	35484.86
525.81	35639.34
525.98	35264.85
526.16	35075.27
526.33	35253.15
526.50	35573.80
526.67	35037.82
526.84	35768.07
527.01	35534.01
527.18	35510.61
527.36	35894.46
527.53	35962.33
527.70	36151.91
527.87	36397.67
528.04	36245.54
528.21	36362.56
528.38	35899.14
528.55	36435.12
528.72	36734.71
528.89	36257.24
529.07	36622.36
529.24	36025.53
529.41	36414.05
529.58	36297.03
529.75	36341.50
529.92	36556.83
530.09	36900.89
530.26	36701.94
530.43	36711.30
530.60	36837.69
530.77	37312.82
530.94	37043.66
531.11	37186.43
531.28	37156.00
531.46	37207.50
531.63	37380.70
531.80	37221.54
531.97	37289.42
532.14	37251.97
532.31	37518.79
532.48	37336.23
532.65	37427.51
532.82	37488.36
532.99	37919.02
533.16	37076.43
533.33	37577.30
533.50	37399.42
533.67	37661.56
533.84	37640.50
534.01	38244.35
534.18	37893.27
534.35	38026.68
534.52	38183.50
534.69	38148.39
534.86	38213.93
535.03	37736.46
535.20	38408.19
535.37	38415.21
535.54	38639.90
535.71	38401.17
535.88	38572.03
536.05	38679.69
536.22	38953.54
536.38	38326.27
536.55	38700.76
536.72	38930.13
536.89	38658.63
537.06	38796.72
537.23	38925.45
537.40	38817.78
537.57	38644.59
537.74	38869.28
537.91	38960.56
538.08	39220.36
538.25	38892.68
538.42	38508.83
538.59	39105.67
538.75	39285.89
538.92	39304.62
539.09	39339.72
539.26	39091.63
539.43	39159.50
539.60	39241.42
539.77	39213.34
539.94	39309.30
540.11	39243.76
540.28	39716.55
540.44	39634.63
540.61	39587.82
540.78	39533.99
540.95	39543.35
541.12	39618.25
541.29	39391.22
541.46	39627.61
541.62	39536.33
541.79	39793.79
541.96	39435.69
542.13	39842.94
542.30	39885.07
542.47	39878.05
542.63	39725.91
542.80	39974.01
542.97	40701.92
543.14	40678.51
543.31	40538.08
543.48	40102.74
543.64	40711.28
543.81	40446.80
543.98	40800.22
544.15	40610.64
544.32	40889.16
544.48	41263.64
544.65	40706.60
544.82	40818.94
544.99	40531.06
545.16	40783.83
545.32	40587.23
545.49	40931.29
545.66	41130.23
545.83	41022.57
546.00	41270.67
546.16	41113.85
546.33	40842.35
546.50	40526.38
546.67	40982.78
546.83	41092.79
547.00	40807.24
547.17	41139.60
547.34	40999.16
547.50	41441.53
547.67	41397.06
547.84	41020.23
548.00	41488.34
548.17	41476.63
548.34	41514.08
548.51	42019.64
548.67	41586.64
548.84	41698.98
549.01	41635.79
549.18	41031.93
549.34	41759.84
549.51	41965.81
549.68	41993.89
549.84	41474.29
550.01	41984.53
550.18	41691.96
550.34	41979.85
550.51	41738.77
550.68	42337.95
550.84	41406.42
551.01	42494.77
551.18	42057.09
551.34	42246.67
551.51	42017.30
551.68	42436.25
551.84	41858.14
552.01	41986.87
552.18	42181.13
552.34	42202.20
552.51	42440.93
552.68	42328.59
552.84	42494.77
553.01	42754.57
553.18	42059.43
553.34	42504.13
553.51	42061.77
553.67	42742.86
553.84	43040.11
554.01	42167.09
554.17	42897.34
554.34	43040.11
554.51	42749.88
554.67	42880.95
554.84	42602.43
555.00	42384.76
555.17	42742.86
555.33	42614.13
555.50	42979.26
555.67	42925.42
555.83	43136.07
556.00	42674.99
556.16	43267.14
556.33	42988.62
556.50	42934.79
556.66	42850.53
556.83	42843.51
556.99	43246.08
557.16	43430.98
557.32	43484.81
557.49	42997.98
557.65	42960.53
557.82	43140.75
557.98	43112.67
558.15	42756.91
558.32	42892.66
558.48	43180.54
558.65	43409.92
558.81	43105.65
558.98	43166.50
559.14	43220.33
559.31	43313.95
559.47	43601.84
559.64	43505.88
559.80	43941.22
559.97	43372.47
560.13	43721.21
560.30	43438.00
560.46	43370.13
560.63	43606.52
560.79	43695.46
560.96	43924.83
561.12	43786.74
561.29	43077.56
561.45	43648.65
561.61	43426.30
561.78	43594.82
561.94	43306.93
562.11	43578.43
562.27	43789.08
562.44	43601.84
562.60	43707.16
562.77	43901.43
562.93	43538.65
563.10	44053.56
563.26	43613.54
563.42	43625.25
563.59	44020.80
563.75	44161.23
563.92	43697.80
564.08	43995.05
564.24	43796.10
564.41	43807.81
564.57	44186.97
564.74	44025.48
564.90	44149.53
565.07	44186.97
565.23	43835.89
565.39	43828.87
565.56	43880.36
565.72	44147.18
565.88	43978.67
566.05	44142.50
566.21	43871.00
566.38	43957.60
566.54	44123.78
566.70	44472.52
566.87	44374.22
567.03	44355.49
567.19	44561.46
567.36	44402.30
567.52	44306.34
567.68	44058.24
567.85	43667.37
568.01	43913.13
568.17	43753.97
568.34	44467.84
568.50	43803.13
568.66	44432.73
568.83	44254.85
568.99	44259.53
569.15	44016.11
569.32	43721.21
569.48	43882.70
569.64	44673.81
569.81	44495.92
569.97	44240.81
570.13	44212.72
570.30	44067.61
570.46	43866.32
570.62	44212.72
570.78	44030.16
570.95	44034.84
571.11	44404.64
571.27	43845.26
571.43	44231.44
571.60	44563.80
571.76	44406.98
571.92	44182.29
572.09	44472.52
572.25	43990.37
572.41	44280.60
572.57	44179.95
572.74	44671.46
572.90	45036.59
573.06	44299.32
573.22	44793.17
573.38	44320.38
573.55	44093.35
573.71	44362.51
573.87	44112.08
574.03	43922.49
574.20	44381.24
574.36	44329.75
574.52	44765.09
574.68	44521.67
574.84	44673.81
575.01	44619.97
575.17	44257.19
575.33	43966.96
575.49	44587.21
575.65	44910.20
575.82	44879.77
575.98	44315.70
576.14	44828.28
576.30	44699.55
576.46	44535.71
576.62	44137.82
576.79	44357.83
576.95	43845.26
577.11	44514.65
577.27	44451.45
577.43	45125.53
577.59	44729.98
577.75	44484.22
577.92	44568.48
578.08	44549.76
578.24	44151.87
578.40	44397.62
578.56	44486.56
578.72	44198.68
578.88	44399.96
579.04	44818.92
579.21	44641.04
579.37	44376.56
579.53	44662.10
579.69	44123.78
579.85	44631.68
580.01	44278.25
580.17	44624.65
580.33	44580.18
580.49	44685.51
580.65	44636.36
580.82	44573.16
580.98	44718.28
581.14	44346.13
581.30	45001.48
581.46	44540.39
581.62	44615.29
581.78	44364.85
581.94	45209.79
582.10	44825.94
582.26	44655.08
582.42	44636.36
582.58	44357.83
582.74	44406.98
582.90	44603.59
583.06	44739.34
583.22	44924.24
583.38	44849.35
583.54	44521.67
583.70	44758.06
583.86	44533.37
584.02	44531.03
584.18	44851.69
584.34	44671.46
584.50	44208.04
584.66	44765.09
584.82	44442.09
584.98	44629.34
585.14	44718.28
585.30	44502.95
585.46	44301.66
585.62	44079.31
585.78	44484.22
585.94	44116.76
586.10	44594.23
586.26	44495.92
586.42	44662.10
586.58	44872.75
586.74	44767.43
586.90	44367.20
587.06	44612.95
587.22	44942.97
587.38	44325.07
587.54	44624.65
587.70	45247.24
587.86	44919.56
588.02	45162.98
588.18	45043.61
588.34	44978.07
588.49	44446.77
588.65	44381.24
588.81	43901.43
588.97	44414.01
589.13	44524.01
589.29	44814.24
589.45	44949.99
589.61	44715.93
589.77	45123.19
589.93	44893.82
590.08	44945.31
590.24	45184.04
590.40	45141.91
590.56	45125.53
590.72	44945.31
590.88	44903.18
591.04	44795.51
591.20	45200.43
591.35	45109.14
591.51	45092.76
591.67	44725.30
591.83	45062.33
591.99	44835.30
592.15	44910.20
592.31	44699.55
592.46	45251.92
592.62	45134.89
592.78	44832.96
592.94	45350.22
593.10	44861.05
593.26	45179.36
593.41	45272.98
593.57	45134.89
593.73	44636.36
593.89	44608.27
594.05	44542.74
594.20	44999.14
594.36	45272.98
594.52	44942.97
594.68	44900.84
594.84	45067.02
594.99	45413.41
595.15	44959.35
595.31	45265.96
595.47	44942.97
595.62	45272.98
595.78	44968.71
595.94	45729.39
596.10	45340.86
596.25	45516.40
596.41	45160.64
596.57	45130.21
596.73	45525.76
596.88	44856.37
597.04	44996.80
597.20	44961.69
597.36	45177.02
597.51	45151.27
597.67	45003.82
597.83	45251.92
597.99	45375.97
598.14	45137.23
598.30	44648.06
598.46	44987.44
598.61	45198.09
598.77	44671.46
598.93	44835.30
599.09	45099.78
599.24	45483.63
599.40	45471.93
599.56	45308.09
599.71	45478.95
599.87	45982.16
600.03	45113.83
600.18	44638.70
600.34	45221.49
600.50	45001.48
600.65	45244.90
600.81	45549.17
600.97	45326.81
601.12	45677.90
601.28	45151.27
601.44	44975.73
601.59	45181.70
601.75	44816.58
601.91	45003.82
602.06	45272.98
602.22	45296.39
602.37	45422.78
602.53	45081.06
602.69	45689.60
602.84	44947.65
603.00	44790.83
603.16	45076.38
603.31	45418.10
603.47	45081.06
603.62	44795.51
603.78	44961.69
603.94	44999.14
604.09	45446.18
604.25	45261.28
604.40	45495.33
604.56	44910.20
604.71	44617.63
604.87	44823.60
605.03	44680.83
605.18	45324.47
605.34	44809.56
605.49	44603.59
605.65	45287.03
605.80	45059.99
605.96	44790.83
606.12	44989.78
606.27	45188.72
606.43	44858.71
606.58	44940.63
606.74	44919.56
606.89	45045.95
607.05	44832.96
607.20	45268.30
607.36	44966.37
607.51	45256.60
607.67	44945.31
607.82	44737.00
607.98	45062.33
608.13	44926.58
608.29	44161.23
608.44	44470.18
608.60	44861.05
608.75	44271.23
608.91	44563.80
609.06	44552.10
609.22	44891.48
609.37	44839.98
609.53	44584.86
609.68	44938.29
609.84	44655.08
609.99	44701.89
610.15	44790.83
610.30	44425.71
610.46	44584.86
610.61	44655.08
610.76	44699.55
610.92	44521.67
611.07	44336.77
611.23	44467.84
611.38	44865.73
611.54	44355.49
611.69	44425.71
611.84	44545.08
612.00	44339.11
612.15	44074.63
612.31	44589.55
612.46	44186.97
612.62	44404.64
612.77	44334.43
612.92	44538.05
613.08	44514.65
613.23	44320.38
613.39	44240.81
613.54	43992.71
613.69	44055.90
613.85	44154.21
614.00	44575.50
614.15	44772.11
614.31	44322.72
614.46	44575.50
614.62	44589.55
614.77	43871.00
614.92	44058.24
615.08	44294.64
615.23	43959.94
615.38	44095.69
615.54	43903.77
615.69	43849.94
615.84	43622.90
616.00	43999.73
616.15	43592.48
616.30	43962.28
616.46	43749.29
616.61	43445.02
616.76	43533.96
616.92	43475.45
617.07	43746.95
617.22	43194.59
617.37	43414.60
617.53	43894.41
617.68	43966.96
617.83	43903.77
617.99	43920.15
618.14	43735.25
618.29	43236.72
618.45	43550.35
618.60	43297.57
618.75	43763.34
618.90	43660.35
619.06	43861.64
619.21	43749.29
619.36	43412.26
619.51	42824.78
619.67	43332.68
619.82	43590.14
619.97	43786.74
620.12	43180.54
620.28	42719.46
620.43	42834.14
620.58	43435.66
620.73	42953.51
620.89	43220.33
621.04	43632.27
621.19	42834.14
621.34	43213.31
621.49	42817.76
621.65	42962.87
621.80	43208.63
621.95	43168.84
622.10	43058.84
622.25	42745.20
622.41	43014.37
622.56	42763.93
622.71	43007.34
622.86	43110.33
623.01	43168.84
623.16	42707.76
623.32	42719.46
623.47	42995.64
623.62	43192.25
623.77	42485.40
623.92	42586.05
624.07	42918.40
624.23	42452.64
624.38	42707.76
624.53	42728.82
624.68	42754.57
624.83	42878.61
624.98	42454.98
625.13	42277.10
625.29	43203.95
625.44	42593.07
625.59	42450.30
625.74	42293.48
625.89	42218.58
626.04	42099.22
626.19	42061.77
626.34	42518.17
626.49	42471.36
626.65	42286.46
626.80	42333.27
626.95	41785.58
627.10	42197.52
627.25	41584.30
627.40	42050.06
627.55	41738.77
627.70	41659.20
627.85	41680.26
628.00	41691.96
628.15	41715.37
628.30	42223.26
628.45	42073.47
628.60	41759.84
628.76	42129.64
628.91	42167.09
629.06	42075.81
629.21	41757.50
629.36	41684.94
629.51	41509.40
629.66	41397.06
629.81	41167.68
629.96	41593.66
630.11	41790.27
630.26	41951.76
630.41	42101.56
630.56	41633.45
630.71	41614.72
630.86	41565.57
631.01	41514.08
631.16	41488.34
631.31	41647.49
631.46	41160.66
631.61	41509.40
631.76	41282.37
631.91	41390.03
632.06	41460.25
632.21	41038.95
632.36	41565.57
632.51	41153.64
632.66	41635.79
632.81	40926.61
632.96	41294.07
633.10	40725.32
633.25	41015.55
633.40	41050.66
633.55	41235.56
633.70	40987.46
633.85	41282.37
634.00	41137.26
634.15	40706.60
634.30	40945.33
634.45	40856.39
634.60	40706.60
634.75	40940.65
634.90	40598.93
635.05	40814.26
635.19	40823.62
635.34	41163.00
635.49	41090.44
635.64	40292.32
635.79	40222.11
635.94	40463.18
636.09	40521.69
636.24	40477.22
636.39	40603.61
636.53	40187.00
636.68	39765.70
636.83	40037.20
636.98	40304.02
637.13	40086.36
637.28	40018.48
637.43	40765.11
637.57	40395.31
637.72	40547.44
637.87	40519.35
638.02	40538.08
638.17	40336.79
638.32	39845.28
638.46	40236.15
638.61	40374.24
638.76	39826.56
638.91	39913.16
639.06	39964.65
639.20	40072.31
639.35	40615.32
639.50	39707.19
639.65	40053.59
639.80	39697.83
639.94	39819.53
640.09	39716.55
640.24	39849.96
640.39	40219.77
640.54	39583.14
640.68	39941.24
640.83	39615.91
640.98	39943.58
641.13	39789.11
641.27	39819.53
641.42	39548.03
641.57	39772.72
641.72	39966.99
641.86	39288.23
642.01	39648.68
642.16	39227.38
642.31	39096.31
642.45	39119.71
642.60	39477.82
642.75	39611.23
642.90	39557.39
643.04	39349.09
643.19	39433.35
643.34	39555.05
643.48	39543.35
643.63	39541.01
643.78	39241.42
643.93	38628.20
644.07	38990.98
644.22	38852.89
644.37	38948.85
644.51	38852.89
644.66	39285.89
644.81	39007.37
644.95	39306.96
645.10	39332.70
645.25	39278.87
645.39	39236.74
645.54	39250.78
645.69	39047.16
645.83	38841.19
645.98	38630.54
646.13	38766.29
646.27	38911.41
646.42	38639.90
646.57	38951.20
646.71	38742.89
646.86	38768.63
647.00	38930.13
647.15	38667.99
647.30	39100.99
647.44	38864.60
647.59	38658.63
647.74	38529.90
647.88	38497.13
648.03	38550.96
648.17	38417.55
648.32	38337.98
648.47	38192.86
648.61	38148.39
648.76	38845.87
648.90	38677.35
649.05	38485.43
649.20	38616.50
649.34	38590.75
649.49	38408.19
649.63	38059.45
649.78	38644.59
649.92	38206.90
650.07	38567.35
650.21	37986.89
650.36	38178.82
650.51	38394.15
650.65	38412.87
650.80	38653.95
650.94	38565.01
651.09	38508.83
651.23	38284.14
651.38	38174.14
651.52	38195.20
651.67	37916.68
651.81	38677.35
651.96	37977.53
652.10	37516.45
652.25	38281.80
652.39	38038.39
652.54	37570.28
652.68	37944.76
652.83	38124.99
652.97	38284.14
653.12	37919.02
653.26	38059.45
653.41	37872.21
653.55	37383.04
653.70	37933.06
653.84	37567.94
653.99	37340.91
654.13	37820.72
654.27	37420.48
654.42	37858.17
654.56	38003.28
654.71	38192.86
654.85	37551.56
655.00	37570.28
655.14	37411.12
655.29	37216.86
655.43	36863.44
655.57	36872.80
655.72	36830.67
655.86	37289.42
656.01	37003.87
656.15	36765.14
656.30	37078.77
656.44	37062.38
656.58	36854.08
656.73	36629.38
656.87	36903.23
657.01	36957.06
657.16	36797.90
657.30	36390.65
657.45	36617.68
657.59	36858.76
657.73	36488.95
657.88	36758.11
658.02	36788.54
658.16	36982.80
658.31	36830.67
658.45	37118.56
658.60	36760.45
658.74	36818.97
658.88	36528.74
659.03	36130.85
659.17	36168.30
659.31	36182.34
659.46	35885.09
659.60	36236.17
659.74	36304.05
659.89	36336.82
660.03	36058.29
660.17	36493.63
660.32	36374.27
660.46	36549.81
660.60	36414.05
660.74	35845.30
660.89	36423.42
661.03	35704.87
661.17	35646.36
661.32	36051.27
661.46	35943.61
661.60	35548.06
661.74	35498.91
661.89	35959.99
662.03	35693.17
662.17	35639.34
662.31	35264.85
662.46	35639.34
662.60	35421.67
662.74	35398.26
662.88	35709.55
663.03	35592.53
663.17	35187.61
663.31	34801.43
663.45	34920.79
663.60	35466.14
663.74	34998.03
663.88	35000.37
664.02	34632.91
664.17	34792.06
664.31	34960.58
664.45	34422.26
664.59	34693.76
664.73	34981.65
664.88	34918.45
665.02	34485.45
665.16	34265.44
665.30	34609.50
665.44	34113.31
665.59	34024.37
665.73	33872.23
665.87	33954.15
666.01	34349.70
666.15	34223.31
666.29	34199.91
666.44	33944.79
666.58	33762.23
666.72	34061.82
666.86	34366.09
667.00	33773.93
667.14	33907.34
667.28	33787.97
667.43	33708.40
667.57	33668.61
667.71	33628.82
667.85	34188.21
667.99	33670.95
668.13	33703.71
668.27	33614.77
668.41	33432.21
668.56	33298.80
668.70	33546.90
668.84	33626.48
668.98	32982.83
669.12	32840.06
669.26	33053.05
669.40	32954.74
669.54	33193.48
669.68	32891.55
669.82	33462.64
669.96	32491.32
670.10	32657.49
670.25	33076.45
670.39	32811.97
670.53	32797.93
670.67	32474.93
670.81	32294.71
670.95	32664.52
671.09	32566.21
671.23	32905.59
671.37	32552.17
671.51	32540.47
671.65	31770.43
671.79	31749.37
671.93	32142.58
672.07	32243.22
672.21	32264.28
672.35	31842.99
672.49	31798.52
672.63	31725.96
672.77	31576.17
672.91	31864.05
673.05	31545.74
673.19	31360.84
673.33	31079.97
673.47	31407.65
673.61	30803.79
673.75	31019.12
673.89	31157.21
674.03	30686.76
674.17	31225.09
674.31	30771.02
674.45	31166.57
674.59	30941.88
674.73	31012.10
674.87	30838.90
675.01	30766.34
675.15	30738.26
675.29	30759.32
675.43	30724.21
675.56	31002.74
675.70	30274.83
675.84	30080.56
675.98	29270.74
676.12	29708.42
676.26	29692.04
676.40	29724.80
676.54	30253.76
676.68	29771.61
676.82	29221.59
676.96	29497.77
677.10	29350.32
677.23	29156.05
677.37	29439.26
677.51	29764.59
677.65	29039.03
677.79	28968.81
677.93	29083.50
678.07	28910.30
678.21	28837.74
678.34	28648.16
678.48	28744.12
678.62	28355.59
678.76	28683.27
678.90	28100.47
679.04	28254.95
679.18	28465.60
679.31	27908.55
679.45	27960.04
679.59	27826.63
679.73	27339.80
679.87	27817.27
680.00	27571.51
680.14	27438.10
680.28	27501.29
680.42	27461.51
680.56	27463.85
680.70	27147.87
680.83	26958.29
680.97	26897.44
681.11	26841.26
681.25	26780.41
681.39	26904.46
681.52	26766.37
681.66	26948.93
681.80	26551.04
681.94	26654.02
682.07	26625.93
682.21	26539.33
682.35	25956.54
682.49	26223.36
682.62	26274.85
682.76	25846.54
682.90	25771.64
683.04	25720.15
683.17	25893.35
683.31	25556.31
683.45	25694.40
683.59	25720.15
683.72	25287.15
683.86	25509.50
684.00	24870.53
684.13	25338.64
684.27	25305.87
684.41	24933.73
684.55	24816.70
684.68	24847.13
684.82	24915.00
684.96	24938.41
685.09	24451.58
685.23	24418.81
685.37	24460.94
685.50	24521.79
685.64	24304.12
685.78	24470.30
685.91	24276.04
686.05	23821.97
686.19	23726.01
686.32	23896.87
686.46	23634.73
686.60	23796.23
686.73	23597.28
686.87	23183.01
687.01	23527.06
687.14	23054.28
687.28	22981.72
687.42	23084.70
687.55	22965.34
687.69	22918.53
687.82	22738.30
687.96	23061.30
688.10	22565.10
688.23	22537.02
688.37	22731.28
688.50	22125.08
688.64	22134.45
688.78	22239.77
688.91	22146.15
689.05	22309.99
689.18	21827.84
689.32	21717.83
689.46	21816.13
689.59	22164.87
689.73	22101.68
689.86	21577.40
690.00	21614.85
690.13	21659.32
690.27	21252.06
690.41	21668.68
690.54	21132.70
690.68	21118.65
690.81	20840.13
690.95	20889.28
691.08	20690.34
691.22	20809.70
691.35	20933.75
691.49	21088.23
691.62	20861.19
691.76	20992.26
691.89	20430.54
692.03	20301.81
692.16	20465.64
692.30	20084.14
692.43	20114.56
692.57	19742.42
692.70	20004.56
692.84	20105.20
692.97	19857.10
693.11	19627.73
693.24	19854.76
693.38	19772.85
693.51	19599.65
693.65	19412.40
693.78	19520.07
693.92	19288.35
694.05	19218.14
694.19	19042.60
694.32	19278.99
694.45	19140.90
694.59	19208.78
694.72	18745.35
694.86	18731.31
694.99	18815.57
695.13	18892.80
695.26	18490.23
695.39	18082.98
695.53	18607.26
695.66	18429.38
695.80	18293.63
695.93	18167.24
696.07	18284.26
696.20	17722.54
696.33	17970.63
696.47	18200.01
696.60	18043.19
696.73	17851.27
696.87	17666.36
697.00	17741.26
697.14	17839.56
697.27	17741.26
697.40	17605.51
697.54	17495.50
697.67	17181.87
697.80	17619.55
697.94	17380.82
698.07	16872.92
698.21	17062.51
698.34	17048.46
698.47	17057.82
698.61	16706.74
698.74	16489.07
698.87	16638.87
699.01	16779.30
699.14	16643.55
699.27	16278.43
699.40	16350.98
699.54	16051.39
699.67	15981.18
699.80	16049.05
699.94	16086.50
700.07	16123.95
700.20	15716.70
700.34	15721.38
700.47	15922.66
700.60	15836.06
700.73	15892.24
700.87	15679.25
701.00	15454.56
701.13	15405.41
701.26	15353.91
701.40	15208.80
701.53	15304.76
701.66	15353.91
701.79	15421.79
701.93	14970.07
702.06	14626.01
702.19	14895.17
702.32	14803.89
702.46	14658.78
702.59	14750.06
702.72	14693.88
702.85	14616.65
702.99	14810.91
703.12	14808.57
703.25	14700.90
703.38	14593.24
703.51	13956.61
703.65	14143.86
703.78	14106.41
703.91	14319.40
704.04	13933.21
704.17	14057.26
704.31	13870.01
704.44	13731.92
704.57	13619.58
704.70	13596.17
704.83	13699.16
704.96	13575.11
705.10	13781.07
705.23	13591.49
>>>>>End Processed Spectral Data<<<<<
