SpectraSuite Data File
++++++++++++++++++++++++++++++++++++
Date: Fri Oct 25 10:44:05 EDT 2013
User: price-jones
Dark Spectrum Present: No
Reference Spectrum Present: No
Number of Sampled Component Spectra: 1
Spectrometers: USB2+H05261
Integration Time (usec): 100000 (USB2+H05261)
Spectra Averaged: 1 (USB2+H05261)
Boxcar Smoothing: 0 (USB2+H05261)
Correct for Electrical Dark: No (USB2+H05261)
Strobe/Lamp Enabled: No (USB2+H05261)
Correct for Detector Non-linearity: No (USB2+H05261)
Correct for Stray Light: No (USB2+H05261)
Number of Pixels in Processed Spectrum: 2048
>>>>>Begin Processed Spectral Data<<<<<
365.73	142.77
365.92	142.77
366.12	142.77
366.32	18.72
366.52	37.45
366.72	44.47
366.91	0.00
367.11	63.19
367.31	28.09
367.51	4.68
367.70	23.41
367.90	42.13
368.10	2.34
368.30	0.00
368.49	37.45
368.69	32.77
368.89	0.00
369.09	0.00
369.28	9.36
369.48	32.77
369.68	37.45
369.87	32.77
370.07	46.81
370.27	114.69
370.47	147.45
370.66	360.44
370.86	456.40
371.06	430.66
371.25	484.49
371.45	404.91
371.65	470.45
371.84	449.38
372.04	475.13
372.24	543.00
372.44	505.56
372.63	550.03
372.83	519.60
373.03	505.56
373.22	493.85
373.42	587.47
373.62	543.00
373.81	617.90
374.01	582.79
374.21	550.03
374.40	571.09
374.60	557.05
374.79	531.30
374.99	582.79
375.19	601.52
375.38	615.56
375.58	622.58
375.78	650.67
375.97	695.14
376.17	692.80
376.37	636.63
376.56	636.63
376.76	613.22
376.95	624.92
377.15	638.97
377.35	683.44
377.54	732.59
377.74	711.52
377.93	645.99
378.13	699.82
378.33	601.52
378.52	624.92
378.72	678.76
378.91	685.78
379.11	653.01
379.31	739.61
379.50	645.99
379.70	676.41
379.89	739.61
380.09	702.16
380.28	613.22
380.48	744.29
380.68	695.14
380.87	777.06
381.07	667.05
381.26	751.31
381.46	716.20
381.65	643.65
381.85	683.44
382.04	704.50
382.24	681.10
382.43	725.57
382.63	706.84
382.83	753.65
383.02	812.17
383.22	709.18
383.41	676.41
383.61	671.73
383.80	851.96
384.00	812.17
384.19	791.10
384.39	777.06
384.58	781.74
384.78	751.31
384.97	816.85
385.17	837.91
385.36	812.17
385.56	751.31
385.75	753.65
385.95	849.61
386.14	896.43
386.34	844.93
386.53	861.32
386.72	933.87
386.92	910.47
387.11	882.38
387.31	870.68
387.50	851.96
387.70	901.11
387.89	884.72
388.09	880.04
388.28	973.66
388.48	894.08
388.67	1025.15
388.86	983.02
389.06	912.81
389.25	987.71
389.45	997.07
389.64	1025.15
389.84	1008.77
390.03	992.39
390.22	1018.13
390.42	1128.14
390.61	1041.54
390.81	1055.58
391.00	1104.73
391.19	1071.97
391.39	1104.73
391.58	1102.39
391.78	1121.12
391.97	1118.78
392.16	1095.37
392.36	1062.60
392.55	1032.18
392.75	1046.22
392.94	933.87
393.13	990.05
393.33	980.68
393.52	992.39
393.71	1100.05
393.91	1149.20
394.10	1074.31
394.29	1191.33
394.49	1188.99
394.68	1256.87
394.88	1179.63
395.07	1291.98
395.26	1256.87
395.46	1191.33
395.65	1366.87
395.84	1212.40
396.04	1263.89
396.23	1210.06
396.42	1191.33
396.62	1121.12
396.81	1207.72
397.00	1191.33
397.19	1238.14
397.39	1352.83
397.58	1373.89
397.77	1380.92
397.97	1383.26
398.16	1427.73
398.35	1526.03
398.55	1502.62
398.74	1535.39
398.93	1563.48
399.12	1504.96
399.32	1526.03
399.51	1507.30
399.70	1699.23
399.90	1652.42
400.09	1671.14
400.28	1675.82
400.47	1605.61
400.67	1701.57
400.86	1778.81
401.05	1610.29
401.24	1724.97
401.44	1706.25
401.63	1820.94
401.82	1764.76
402.01	1753.06
402.21	1708.59
402.40	1799.87
402.59	1739.02
402.78	1837.32
402.97	1767.10
403.17	1879.45
403.36	1851.36
403.55	1902.86
403.74	1912.22
403.93	1844.34
404.13	1909.88
404.32	1914.56
404.51	1998.82
404.70	2017.54
404.89	2057.33
405.09	2064.35
405.28	1998.82
405.47	2005.84
405.66	2066.69
405.85	2045.63
406.05	2092.44
406.24	2008.18
406.43	2104.14
406.62	2188.40
406.81	2150.95
407.00	2160.31
407.20	2073.71
407.39	2134.57
407.58	2223.51
407.77	2310.11
407.96	2265.64
408.15	2319.47
408.34	2244.57
408.54	2347.56
408.73	2354.58
408.92	2310.11
409.11	2352.24
409.30	2415.43
409.49	2354.58
409.68	2375.64
409.87	2417.77
410.07	2417.77
410.26	2441.18
410.45	2427.14
410.64	2506.71
410.83	2502.03
411.02	2572.25
411.21	2635.44
411.40	2686.94
411.59	2670.55
411.78	2682.25
411.98	2722.04
412.17	2679.91
412.36	2752.47
412.55	2700.98
412.74	2754.81
412.93	2839.07
413.12	2911.63
413.31	2984.18
413.50	2918.65
413.69	3014.61
413.88	2906.95
414.07	2794.60
414.26	2960.78
414.45	2995.89
414.64	3009.93
414.83	3101.21
415.02	3117.59
415.22	3094.19
415.41	3339.94
415.60	3300.16
415.79	3330.58
415.98	3452.29
416.17	3199.51
416.36	3496.76
416.55	3361.01
416.74	3386.76
416.93	3311.86
417.12	3332.92
417.31	3421.86
417.50	3407.82
417.69	3578.68
417.88	3578.68
418.07	3674.64
418.26	3559.95
418.45	3389.10
418.64	3726.13
418.83	3648.90
419.02	3517.83
419.21	3796.35
419.39	3595.06
419.58	3585.70
419.77	3632.51
419.96	3861.88
420.15	3702.73
420.34	3786.99
420.53	3826.78
420.72	4009.34
420.91	3908.69
421.10	3899.33
421.29	3927.42
421.48	3822.09
421.67	3915.72
421.86	3899.33
422.05	3953.16
422.24	3868.91
422.43	4007.00
422.61	3885.29
422.80	3978.91
422.99	3957.85
423.18	3995.29
423.37	4112.32
423.56	4201.26
423.75	4011.68
423.94	4037.42
424.13	3798.69
424.32	3826.78
424.50	4159.13
424.69	4140.41
424.88	4072.53
425.07	3995.29
425.26	4109.98
425.45	3974.23
425.64	4077.21
425.83	4002.32
426.01	4168.49
426.20	4236.37
426.39	4156.79
426.58	4035.08
426.77	3866.56
426.96	4138.07
427.15	4081.89
427.33	4182.54
427.52	4301.90
427.71	4229.35
427.90	4381.48
428.09	4311.27
428.28	4187.22
428.46	4304.25
428.65	4299.56
428.84	4493.83
429.03	4304.25
429.22	4266.80
429.40	4369.78
429.59	4208.28
429.78	4170.83
429.97	4035.08
430.16	4028.06
430.34	4145.09
430.53	4374.46
430.72	4264.46
430.91	4313.61
431.10	4442.34
431.28	4655.33
431.47	4786.40
431.66	4770.01
431.85	4770.01
432.03	4812.14
432.22	4835.55
432.41	4903.42
432.60	4758.31
432.79	4807.46
432.97	4868.31
433.16	4875.34
433.35	4730.22
433.54	4819.16
433.72	4730.22
433.91	4781.71
434.10	4823.84
434.28	5039.17
434.47	4915.12
434.66	5018.11
434.85	5224.08
435.03	5160.88
435.22	5069.60
435.41	5032.15
435.59	5153.86
435.78	5378.55
435.97	5334.08
436.16	5184.29
436.34	5207.69
436.53	5341.10
436.72	5575.16
436.90	5181.95
437.09	5219.39
437.28	5163.22
437.46	5231.10
437.65	5378.55
437.84	5420.68
438.02	5235.78
438.21	5310.68
438.40	5191.31
438.58	5549.41
438.77	5631.33
438.96	5610.26
439.14	5771.76
439.33	5699.20
439.52	5750.70
439.70	5760.06
439.89	5874.74
440.08	5970.71
440.26	5884.11
440.45	6015.18
440.63	6061.99
440.82	6019.86
441.01	6157.95
441.19	5996.45
441.38	6291.36
441.57	6445.84
441.75	6235.19
441.94	6504.35
442.12	6319.45
442.31	6656.48
442.50	6588.61
442.68	6413.07
442.87	6569.88
443.05	6560.52
443.24	6782.87
443.43	6583.93
443.61	6581.59
443.80	6747.76
443.98	6487.96
444.17	6415.41
444.35	6780.53
444.54	6778.19
444.73	6775.85
444.91	6649.46
445.10	6658.82
445.28	6668.19
445.47	6670.53
445.65	6408.39
445.84	6607.33
446.02	6813.30
446.21	6707.98
446.39	6726.70
446.58	6848.41
446.77	6899.90
446.95	6803.94
447.14	6939.69
447.32	6939.69
447.51	6904.58
447.69	6773.51
447.88	6881.18
448.06	6848.41
448.25	6817.98
448.43	6897.56
448.62	6743.08
448.80	6998.20
448.99	6979.48
449.17	7012.24
449.36	7005.22
449.54	7098.84
449.73	7328.22
449.91	7332.90
450.10	7529.50
450.28	7501.42
450.46	7468.65
450.65	7482.69
450.83	7454.61
451.02	7258.00
451.20	7503.76
451.39	7597.38
451.57	7349.28
451.76	7337.58
451.94	7630.15
452.13	7543.55
452.31	7232.26
452.49	7349.28
452.68	7414.82
452.86	7627.81
453.05	7672.28
453.23	7449.93
453.42	7520.14
453.60	7487.37
453.78	7693.34
453.97	7562.27
454.15	7609.08
454.34	7536.52
454.52	7749.51
454.70	7789.30
454.89	7798.66
455.07	7922.71
455.26	7791.64
455.44	8121.66
455.62	7793.98
455.81	7967.18
455.99	7988.25
456.17	8056.12
456.36	8135.70
456.54	8341.67
456.73	8116.98
456.91	8217.62
457.09	8173.15
457.28	8519.55
457.46	8484.44
457.64	8549.98
457.83	8365.07
458.01	8327.63
458.19	8503.17
458.38	8201.24
458.56	8535.93
458.74	8650.62
458.93	8510.19
459.11	8641.26
459.29	8454.02
459.48	8348.69
459.66	8547.64
459.84	8671.68
460.03	8732.54
460.21	8592.11
460.39	8835.52
460.57	8741.90
460.76	8830.84
460.94	8868.29
461.12	8919.78
461.31	8875.31
461.49	8929.14
461.67	8718.50
461.85	9282.56
462.04	9170.22
462.22	9682.80
462.40	9121.07
462.59	9111.71
462.77	9071.92
462.95	9170.22
463.13	9210.01
463.32	9256.82
463.50	9104.68
463.68	9071.92
463.86	9312.99
464.05	9078.94
464.23	9249.80
464.41	9359.80
464.59	9200.65
464.78	9479.17
464.96	9331.72
465.14	9130.43
465.32	9462.79
465.50	9675.77
465.69	9596.20
465.87	9423.00
466.05	9371.50
466.23	9423.00
466.41	9291.93
466.60	9788.12
466.78	9270.86
466.96	9558.75
467.14	9593.86
467.32	9685.14
467.51	9741.31
467.69	9310.65
467.87	9680.46
468.05	9867.70
468.23	9652.37
468.41	9760.03
468.60	9757.69
468.78	10064.30
468.96	9776.42
469.14	9912.17
469.32	10108.77
469.50	9858.34
469.69	9954.30
469.87	10106.43
470.05	10076.01
470.23	10136.86
470.41	9989.41
470.59	10335.81
470.77	9930.89
470.95	10265.59
471.14	10466.88
471.32	10244.52
471.50	10452.83
471.68	10518.37
471.86	10483.26
472.04	10785.19
472.22	10853.06
472.40	10471.56
472.58	10647.10
472.77	10649.44
472.95	10567.52
473.13	11234.57
473.31	10813.28
473.49	10970.09
473.67	10857.75
473.85	11009.88
474.03	11545.86
474.21	11206.48
474.39	11180.74
474.57	11351.60
474.75	11290.74
474.93	11646.51
475.12	11379.68
475.30	11424.15
475.48	11637.14
475.66	11602.04
475.84	11634.80
476.02	12093.55
476.20	11740.13
476.38	11831.41
476.56	12112.27
476.74	12142.70
476.92	12138.02
477.10	12037.38
477.28	12379.09
477.46	12477.40
477.64	12603.78
477.82	12587.40
478.00	13139.77
478.18	12774.64
478.36	12725.49
478.54	12882.31
478.72	13125.72
478.90	13437.02
479.08	13252.11
479.26	13188.92
479.44	13671.07
479.62	13650.00
479.80	13652.34
479.98	13743.63
480.16	14223.44
480.34	13862.99
480.52	14139.18
480.70	14218.75
480.88	13891.08
481.06	14413.02
481.24	14478.55
481.41	14609.62
481.59	14862.40
481.77	14724.31
481.95	14834.32
482.13	14977.09
482.31	14801.55
482.49	15234.55
482.67	15272.00
482.85	15311.78
483.03	15728.40
483.21	15627.76
483.39	15917.98
483.57	15850.11
483.74	16126.29
483.92	15733.08
484.10	15939.05
484.28	16477.37
484.46	16329.92
484.64	16706.74
484.82	16332.26
485.00	16716.11
485.18	16901.01
485.35	16919.73
485.53	16580.36
485.71	16554.61
485.89	16671.64
486.07	16699.72
486.25	17020.38
486.43	17214.64
486.61	17521.25
486.78	17579.76
486.96	17755.30
487.14	17956.59
487.32	18127.45
487.50	18405.97
487.68	18525.34
487.85	18909.19
488.03	18864.72
488.21	18843.65
488.39	19260.27
488.57	19049.62
488.75	18977.06
488.92	19517.73
489.10	19803.27
489.28	20023.28
489.46	20343.94
489.64	19985.83
489.81	20779.28
489.99	20620.12
490.17	20390.75
490.35	20954.82
490.53	20786.30
490.70	21170.15
490.88	21076.52
491.06	21362.07
491.24	21289.51
491.41	21603.14
491.59	21528.25
491.77	21312.92
491.95	21514.20
492.13	21631.23
492.30	22253.81
492.48	22228.07
492.66	22466.80
492.84	22384.88
493.01	22843.63
493.19	23103.43
493.37	22937.25
493.54	22838.95
493.72	23213.43
493.90	22892.78
494.08	23276.63
494.25	23730.69
494.43	23871.12
494.61	23796.23
494.79	24088.79
494.96	24137.94
495.14	24030.28
495.32	24325.19
495.49	24372.00
495.67	24372.00
495.85	24812.02
496.02	24856.49
496.20	25003.94
496.38	25127.99
496.55	25291.83
496.73	25900.37
496.91	25673.34
497.09	25572.69
497.26	25764.62
497.44	25717.81
497.62	25509.50
497.79	25912.07
497.97	25820.79
498.14	26061.87
498.32	26225.70
498.50	26293.58
498.67	26607.21
498.85	27065.96
499.03	27002.76
499.20	27058.93
499.38	26993.40
499.56	27152.55
499.73	27288.31
499.91	27241.50
500.08	27475.55
500.26	27005.10
500.44	26890.41
500.61	27147.87
500.79	27255.54
500.97	27360.86
501.14	27623.00
501.32	27789.18
501.49	27931.95
501.67	27665.13
501.84	28205.80
502.02	28088.77
502.20	28215.16
502.37	28577.94
502.55	28685.61
502.72	28437.51
502.90	28835.40
503.07	28652.84
503.25	28891.57
503.43	28364.95
503.60	28811.99
503.78	28613.05
503.95	28807.31
504.13	29263.72
504.30	29228.61
504.48	29221.59
504.65	29668.63
504.83	29853.53
505.01	29841.83
505.18	29802.04
505.36	30096.95
505.53	30314.62
505.71	30677.40
505.88	30665.70
506.06	30232.70
506.23	30462.07
506.41	30663.36
506.58	30707.83
506.76	30799.11
506.93	30974.65
507.11	30759.32
507.28	30426.96
507.46	30663.36
507.63	30600.16
507.81	31054.23
507.98	30764.00
508.16	31384.24
508.33	31321.05
508.50	31295.30
508.68	31763.41
508.85	31974.06
509.03	31723.62
509.20	31796.18
509.38	32086.40
509.55	31941.29
509.73	31777.45
509.90	32343.86
510.08	31938.95
510.25	32151.94
510.42	32334.50
510.60	32573.24
510.77	32657.49
510.95	32872.82
511.12	32708.99
511.30	33146.67
511.47	33177.09
511.64	33120.92
511.82	33113.90
511.99	32938.36
512.17	33034.32
512.34	32711.33
512.51	33263.69
512.69	33369.02
512.86	33090.49
513.04	33970.54
513.21	33715.42
513.38	33331.57
513.56	33757.55
513.73	33425.19
513.90	33589.03
514.08	33605.41
514.25	33479.02
514.43	33816.06
514.60	33762.23
514.77	33989.26
514.95	34541.63
515.12	34391.83
515.29	34204.59
515.47	34953.56
515.64	35058.88
515.81	34384.81
515.99	34583.76
516.16	34431.62
516.33	34239.70
516.51	33944.79
516.68	33802.02
516.85	34061.82
517.03	34253.74
517.20	34525.24
517.37	34923.13
517.54	35117.40
517.72	34789.72
517.89	34941.86
518.06	35449.75
518.24	34836.53
518.41	35187.61
518.58	35393.58
518.75	34995.69
518.93	35693.17
519.10	35541.03
519.27	35608.91
519.45	35431.03
519.62	36095.74
519.79	35962.33
519.96	35931.90
520.14	36161.28
520.31	36259.58
520.48	36095.74
520.65	36198.73
520.83	36713.64
521.00	36727.69
521.17	37076.43
521.34	36568.53
521.52	37326.86
521.69	36739.39
521.86	37095.15
522.03	37219.20
522.20	37525.81
522.38	37188.77
522.55	37156.00
522.72	37357.29
522.89	37172.39
523.07	37649.86
523.24	37684.97
523.41	37874.55
523.58	37879.23
523.75	38377.76
523.92	38455.00
524.10	38014.98
524.27	38307.55
524.44	38164.78
524.61	37860.51
524.78	38438.62
524.96	38178.82
525.13	38780.34
525.30	38555.64
525.47	38689.06
525.64	38401.17
525.81	38469.04
525.98	38298.19
526.16	38110.94
526.33	38181.16
526.50	38368.40
526.67	37904.98
526.84	38190.52
527.01	38361.38
527.18	38873.96
527.36	38728.84
527.53	39000.35
527.70	39061.20
527.87	39367.81
528.04	38859.91
528.21	39405.26
528.38	39278.87
528.55	39564.42
528.72	40229.13
528.89	39917.84
529.07	39674.42
529.24	39559.73
529.41	40002.10
529.58	39412.28
529.75	39484.84
529.92	39976.35
530.09	39885.07
530.26	39887.41
530.43	40165.93
530.60	39952.94
530.77	40306.37
530.94	40484.25
531.11	39971.67
531.28	40718.30
531.46	40526.38
531.63	40273.60
531.80	40318.07
531.97	39948.26
532.14	39969.33
532.31	40208.06
532.48	40215.08
532.65	40201.04
532.82	40582.55
532.99	40519.35
533.16	40334.45
533.33	40942.99
533.50	41130.23
533.67	40767.45
533.84	40526.38
534.01	40964.06
534.18	40800.22
534.35	41219.17
534.52	40996.82
534.69	41617.07
534.86	41460.25
535.03	41385.35
535.20	41947.08
535.37	42328.59
535.54	41918.99
535.71	41436.84
535.88	41738.77
536.05	41425.14
536.22	41853.46
536.38	41333.86
536.55	41380.67
536.72	41727.07
536.89	41163.00
537.06	41481.31
537.23	42029.00
537.40	41446.21
537.57	42185.82
537.74	41972.83
537.91	42459.66
538.08	42153.05
538.25	41808.99
538.42	41827.71
538.59	42419.87
538.75	42014.96
538.92	42010.28
539.09	42246.67
539.26	42227.95
539.43	42415.19
539.60	42342.63
539.77	41951.76
539.94	42464.34
540.11	41827.71
540.28	41874.52
540.44	42405.83
540.61	42754.57
540.78	42279.44
540.95	42171.77
541.12	42520.51
541.29	42969.90
541.46	42653.92
541.62	42433.91
541.79	42653.92
541.96	42595.41
542.13	42749.88
542.30	42181.13
542.47	42892.66
542.63	42768.61
542.80	42979.26
542.97	43929.51
543.14	43098.62
543.31	42934.79
543.48	43196.93
543.64	43730.57
543.81	43782.06
543.98	43363.11
544.15	43290.55
544.32	43641.63
544.48	44144.84
544.65	43840.57
544.82	43681.42
544.99	43868.66
545.16	43763.34
545.32	43454.39
545.49	44156.55
545.66	44329.75
545.83	43667.37
546.00	44222.08
546.16	44130.80
546.33	43908.45
546.50	43948.24
546.67	43962.28
546.83	43714.19
547.00	43669.72
547.17	43957.60
547.34	43672.06
547.50	43723.55
547.67	44294.64
547.84	43833.55
548.00	44399.96
548.17	44729.98
548.34	44236.12
548.51	44814.24
548.67	44512.31
548.84	44626.99
549.01	44364.85
549.18	44676.15
549.34	44484.22
549.51	44453.79
549.68	44362.51
549.84	44973.39
550.01	44739.34
550.18	44559.12
550.34	44533.37
550.51	44928.92
550.68	44687.85
550.84	44498.26
551.01	44992.12
551.18	44893.82
551.34	44706.57
551.51	45272.98
551.68	45317.45
551.84	45036.59
552.01	45022.54
552.18	44957.01
552.34	44587.21
552.51	44968.71
552.68	45186.38
552.84	45008.50
553.01	45357.24
553.18	45109.14
553.34	45146.59
553.51	45167.66
553.67	45366.60
553.84	45652.15
554.01	45247.24
554.17	45331.50
554.34	45846.41
554.51	45794.92
554.67	45670.87
554.84	45607.68
555.00	45326.81
555.17	45382.99
555.33	45532.78
555.50	45247.24
555.67	45301.07
555.83	45331.50
556.00	45979.82
556.16	45663.85
556.33	45621.72
556.50	45741.09
556.66	45478.95
556.83	45567.89
556.99	45797.26
557.16	45757.47
557.32	45970.46
557.49	45780.88
557.65	45921.31
557.82	45808.96
557.98	46028.98
558.15	45886.20
558.32	45841.73
558.48	45909.61
558.65	45666.19
558.81	45497.67
558.98	45823.01
559.14	45947.06
559.31	45801.94
559.47	46394.10
559.64	46328.56
559.80	45925.99
559.97	46127.28
560.13	45844.07
560.30	46010.25
560.46	45923.65
560.63	46073.45
560.79	46300.48
560.96	46071.10
561.12	46405.80
561.29	45855.78
561.45	46476.02
561.61	45893.22
561.78	46206.86
561.94	45918.97
562.11	45940.04
562.27	45904.93
562.44	46520.49
562.60	46548.57
562.77	46251.33
562.93	46597.73
563.10	46649.22
563.26	45911.95
563.42	46623.47
563.59	45853.44
563.75	46340.27
563.92	46419.84
564.08	46777.95
564.24	46607.09
564.41	46525.17
564.57	46440.91
564.74	46279.41
564.90	46162.39
565.07	46639.86
565.23	46057.06
565.39	46021.95
565.56	46237.28
565.72	46153.02
565.88	46305.16
566.05	45977.48
566.21	46195.15
566.38	46464.32
566.54	46178.77
566.70	46539.21
566.87	46674.96
567.03	46658.58
567.19	46934.76
567.36	46777.95
567.52	46604.75
567.68	46735.82
567.85	46490.06
568.01	46609.43
568.17	46506.44
568.34	46611.77
568.50	46747.52
568.66	46227.92
568.83	46869.23
568.99	46419.84
569.15	46445.59
569.32	46494.74
569.48	46340.27
569.64	46579.00
569.81	46717.09
569.97	46644.54
570.13	46822.42
570.30	46211.54
570.46	46227.92
570.62	45794.92
570.78	46609.43
570.95	46075.79
571.11	46951.15
571.27	46291.12
571.43	46347.29
571.60	46471.34
571.76	47175.84
571.92	46412.82
572.09	46560.28
572.25	46696.03
572.41	46342.61
572.57	46630.49
572.74	46742.84
572.90	46768.58
573.06	46410.48
573.22	46845.82
573.38	47016.68
573.55	46422.19
573.71	46969.87
573.87	47150.09
574.03	46681.98
574.20	46405.80
574.36	46822.42
574.52	46667.94
574.68	46913.70
574.84	46880.93
575.01	46749.86
575.17	46637.51
575.33	46206.86
575.49	46321.54
575.65	46934.76
575.82	46717.09
575.98	46307.50
576.14	47278.82
576.30	46962.85
576.46	46897.31
576.62	46461.97
576.79	46784.97
576.95	46527.51
577.11	46607.09
577.27	47016.68
577.43	46398.78
577.59	46801.35
577.75	46782.63
577.92	46625.81
578.08	46391.76
578.24	46576.66
578.40	46333.24
578.56	46143.66
578.72	46745.18
578.88	46918.38
579.04	47463.72
579.21	46546.23
579.37	46918.38
579.53	46817.74
579.69	46838.80
579.85	46766.24
580.01	46960.51
580.17	47026.04
580.33	46838.80
580.49	47049.45
580.65	46916.04
580.82	47028.38
580.98	46827.10
581.14	46838.80
581.30	47370.10
581.46	46873.91
581.62	46827.10
581.78	46710.07
581.94	47077.54
582.10	47208.61
582.26	47023.70
582.42	47089.24
582.58	46990.94
582.74	47037.75
582.90	46852.84
583.06	47004.98
583.22	46836.46
583.38	47281.16
583.54	47124.35
583.70	47262.44
583.86	46969.87
584.02	46660.92
584.18	47016.68
584.34	46976.89
584.50	46733.48
584.66	46813.05
584.82	46553.26
584.98	47215.63
585.14	46990.94
585.30	46588.36
585.46	46976.89
585.62	46658.58
585.78	46848.16
585.94	46557.94
586.10	46564.96
586.26	46721.77
586.42	47044.77
586.58	46733.48
586.74	46777.95
586.90	47379.46
587.06	46691.35
587.22	47061.15
587.38	46506.44
587.54	47107.96
587.70	46960.51
587.86	46756.88
588.02	47070.51
588.18	47075.19
588.34	46693.69
588.49	46190.47
588.65	45963.44
588.81	46155.36
588.97	46340.27
589.13	46232.60
589.29	46490.06
589.45	46808.37
589.61	46689.01
589.77	46834.12
589.93	46644.54
590.08	46887.95
590.24	46995.62
590.40	47070.51
590.56	47309.25
590.72	47089.24
590.88	46787.31
591.04	46946.47
591.20	47437.98
591.35	47131.37
591.51	47517.56
591.67	47185.20
591.83	47007.32
591.99	46946.47
592.15	46450.27
592.31	47379.46
592.46	47316.27
592.62	46829.44
592.78	47236.69
592.94	47180.52
593.10	46845.82
593.26	46883.27
593.41	47220.31
593.57	47143.07
593.73	46941.78
593.89	46787.31
594.05	47122.01
594.20	47042.43
594.36	47241.37
594.52	46948.81
594.68	47203.92
594.84	46415.16
594.99	47573.73
595.15	47079.88
595.31	47044.77
595.47	47044.77
595.62	47098.60
595.78	47248.39
595.94	47168.82
596.10	47040.09
596.25	47332.65
596.41	46850.50
596.57	46848.16
596.73	47224.99
596.88	46831.78
597.04	47131.37
597.20	47210.95
597.36	46911.36
597.51	47522.24
597.67	47019.02
597.83	47145.41
597.99	47203.92
598.14	47110.30
598.30	46979.23
598.46	46913.70
598.61	47047.11
598.77	46754.54
598.93	46958.17
599.09	46897.31
599.24	47466.06
599.40	47248.39
599.56	46721.77
599.71	46892.63
599.87	47028.38
600.03	47278.82
600.18	47365.42
600.34	47262.44
600.50	46958.17
600.65	47117.32
600.81	46906.68
600.97	47400.53
601.12	47110.30
601.28	47213.29
601.44	47096.26
601.59	46543.89
601.75	46810.71
601.91	47014.34
602.06	46852.84
602.22	46820.08
602.37	46885.61
602.53	46691.35
602.69	47330.31
602.84	46791.99
603.00	47079.88
603.16	46960.51
603.31	46745.18
603.47	46946.47
603.62	46848.16
603.78	47334.99
603.94	47089.24
604.09	47510.53
604.25	46787.31
604.40	46876.25
604.56	46724.11
604.71	47129.03
604.87	46859.87
605.03	46653.90
605.18	46576.66
605.34	46911.36
605.49	46178.77
605.65	46686.67
605.80	46937.10
605.96	46614.11
606.12	47189.88
606.27	47232.01
606.43	46899.65
606.58	47126.69
606.74	46452.61
606.89	46543.89
607.05	46911.36
607.20	46820.08
607.36	46632.83
607.51	46782.63
607.67	46579.00
607.82	46777.95
607.98	46775.61
608.13	46382.40
608.29	46483.04
608.44	46391.76
608.60	46284.09
608.75	46703.05
608.91	46557.94
609.06	46852.84
609.22	46679.64
609.37	46822.42
609.53	46714.75
609.68	46665.60
609.84	46279.41
609.99	46068.76
610.15	46672.62
610.30	46213.88
610.46	45811.31
610.61	46073.45
610.76	46478.36
610.92	46646.88
611.07	46609.43
611.23	46040.68
611.38	45954.08
611.54	46412.82
611.69	46344.95
611.84	45764.49
612.00	45638.11
612.15	45642.79
612.31	46286.43
612.46	45862.80
612.62	46019.61
612.77	46471.34
612.92	46756.88
613.08	46096.85
613.23	46237.28
613.39	46094.51
613.54	45780.88
613.69	45855.78
613.85	45858.12
614.00	45986.85
614.15	45825.35
614.31	46066.42
614.46	46387.08
614.62	46071.10
614.77	46307.50
614.92	45958.76
615.08	46106.21
615.23	45361.92
615.38	45670.87
615.54	45380.65
615.69	45048.29
615.84	45794.92
616.00	45689.60
616.15	45244.90
616.30	45249.58
616.46	45436.82
616.61	45390.01
616.76	45394.69
616.92	44898.50
617.07	45045.95
617.22	45296.39
617.37	45106.80
617.53	45345.54
617.68	45598.32
617.83	45617.04
617.99	45722.37
618.14	45289.37
618.29	45188.72
618.45	45200.43
618.60	45003.82
618.75	45146.59
618.90	45006.16
619.06	45216.81
619.21	45146.59
619.36	45603.00
619.51	45221.49
619.67	45045.95
619.82	45378.31
619.97	45319.79
620.12	45184.04
620.28	44718.28
620.43	45001.48
620.58	44802.53
620.73	45165.32
620.89	45041.27
621.04	44699.55
621.19	45251.92
621.34	44818.92
621.49	44928.92
621.65	44851.69
621.80	45013.18
621.95	44350.81
622.10	44945.31
622.25	44435.07
622.41	44500.61
622.56	44175.27
622.71	44802.53
622.86	44659.76
623.01	44641.04
623.16	44266.55
623.32	44388.26
623.47	44582.52
623.62	44053.56
623.77	44615.29
623.92	44245.49
624.07	44168.25
624.23	44135.48
624.38	43852.28
624.53	44062.93
624.68	43878.02
624.83	44046.54
624.98	44226.76
625.13	43557.37
625.29	43849.94
625.44	43821.85
625.59	43662.69
625.74	43674.40
625.89	43871.00
626.04	43634.61
626.19	43920.15
626.34	43440.34
626.49	43842.92
626.65	43880.36
626.80	43796.10
626.95	43770.36
627.10	43688.44
627.25	43599.50
627.40	43115.01
627.55	43435.66
627.70	42981.60
627.85	43196.93
628.00	42892.66
628.15	43482.47
628.30	43510.56
628.45	43428.64
628.60	43365.45
628.76	43234.38
628.91	43124.37
629.06	43260.12
629.21	43349.06
629.36	43086.92
629.51	43107.99
629.66	42700.73
629.81	42780.31
629.96	42742.86
630.11	43313.95
630.26	43136.07
630.41	43398.21
630.56	42731.16
630.71	42686.69
630.86	42618.81
631.01	43056.50
631.16	42740.52
631.31	43047.13
631.46	42497.11
631.61	42525.19
631.76	42904.36
631.91	42674.99
632.06	43002.66
632.21	42583.71
632.36	42958.19
632.51	42621.16
632.66	42593.07
632.81	42314.55
632.96	42227.95
633.10	42504.13
633.25	42616.47
633.40	42796.70
633.55	42588.39
633.70	42464.34
633.85	42679.67
634.00	42417.53
634.15	42181.13
634.30	42639.88
634.45	42246.67
634.60	41942.40
634.75	41886.23
634.90	41902.61
635.05	42202.20
635.19	41968.15
635.34	42328.59
635.49	42019.64
635.64	42115.60
635.79	42057.09
635.94	41645.15
636.09	41823.03
636.24	41869.84
636.39	41968.15
636.53	42066.45
636.68	41710.69
636.83	41832.39
636.98	41900.27
637.13	41984.53
637.28	41989.21
637.43	41741.11
637.57	42075.81
637.72	41738.77
637.87	41865.16
638.02	42050.06
638.17	41577.28
638.32	41790.27
638.46	41661.54
638.61	41511.74
638.76	41455.57
638.91	41322.16
639.06	41787.92
639.20	41584.30
639.35	41816.01
639.50	41755.16
639.65	41713.03
639.80	41144.28
639.94	41134.92
640.09	41516.42
640.24	40825.96
640.39	41048.32
640.54	40910.22
640.68	41057.68
640.83	41153.64
640.98	41144.28
641.13	40741.71
641.27	41247.26
641.42	40685.53
641.57	40697.24
641.72	41097.47
641.86	40914.90
642.01	40507.65
642.16	40776.81
642.31	40591.91
642.45	40753.41
642.60	40453.82
642.75	40559.14
642.90	40512.33
643.04	40484.25
643.19	40453.82
643.34	40699.58
643.48	40062.95
643.63	40430.41
643.78	40226.79
643.93	40299.34
644.07	40390.62
644.22	40638.72
644.37	40437.44
644.51	40463.18
644.66	40809.58
644.81	40509.99
644.95	40861.07
645.10	40095.72
645.25	40320.41
645.39	40385.94
645.54	40144.87
645.69	40421.05
645.83	40144.87
645.98	40109.76
646.13	40051.25
646.27	40081.67
646.42	40179.98
646.57	39807.83
646.71	39613.57
646.86	39775.06
647.00	40130.83
647.15	40280.62
647.30	39765.70
647.44	39835.92
647.59	39793.79
647.74	39618.25
647.88	39697.83
648.03	40079.33
648.17	39730.59
648.32	39646.33
648.47	39477.82
648.61	39447.39
648.76	39887.41
648.90	39288.23
649.05	39587.82
649.20	39859.32
649.34	40016.14
649.49	39218.02
649.63	39196.95
649.78	39517.60
649.92	39438.03
650.07	39318.66
650.21	39585.48
650.36	39697.83
650.51	39152.48
650.65	39950.60
650.80	39854.64
650.94	39765.70
651.09	39812.51
651.23	39232.06
651.38	39475.48
651.52	39103.33
651.67	39159.50
651.81	39000.35
651.96	39208.65
652.10	39257.81
652.25	38824.81
652.39	38916.09
652.54	38747.57
652.68	38927.79
652.83	38749.91
652.97	38981.62
653.12	39122.05
653.26	38855.23
653.41	38443.30
653.55	38726.50
653.70	38693.74
653.84	38780.34
653.99	38511.17
654.13	38298.19
654.27	38740.55
654.42	38398.83
654.56	38689.06
654.71	38553.30
654.85	38700.76
655.00	38473.73
655.14	38417.55
655.29	38309.89
655.43	38377.76
655.57	37893.27
655.72	37921.36
655.86	37916.68
656.01	37605.39
656.15	37715.39
656.30	37937.74
656.44	38078.18
656.58	37687.31
656.73	37670.92
656.87	37832.42
657.01	37919.02
657.16	37933.06
657.30	37729.44
657.45	37799.65
657.59	37617.09
657.73	37570.28
657.88	38167.12
658.02	38031.36
658.16	38143.71
658.31	37956.47
658.45	37888.59
658.60	37724.75
658.74	37979.87
658.88	37848.80
659.03	37717.73
659.17	37642.84
659.31	37291.76
659.46	37434.53
659.60	37567.94
659.74	37401.76
659.89	37490.70
660.03	37310.48
660.17	37385.38
660.32	37038.98
660.46	36999.19
660.60	37078.77
660.74	37125.58
660.89	36933.65
661.03	36568.53
661.17	36641.09
661.32	36720.66
661.46	36961.74
661.60	36570.87
661.74	36659.81
661.89	37097.49
662.03	36931.31
662.17	36514.70
662.31	36737.05
662.46	36582.57
662.60	36849.39
662.74	36704.28
662.88	36109.78
663.03	35786.79
663.17	35929.56
663.31	36397.67
663.45	36219.79
663.60	36156.60
663.74	36074.68
663.88	35992.76
664.02	35487.20
664.17	36374.27
664.31	35796.15
664.45	35857.01
664.59	35800.83
664.73	36025.53
664.88	35971.69
665.02	35489.54
665.16	35672.10
665.30	35384.22
665.44	35498.91
665.59	35288.26
665.73	34939.52
665.87	35311.66
666.01	35152.51
666.15	35269.53
666.29	35185.27
666.44	34902.07
666.58	35082.29
666.72	35267.19
666.86	34735.89
667.00	34972.28
667.14	34574.39
667.28	34663.33
667.43	34361.40
667.57	34803.77
667.71	34616.52
667.85	35035.48
667.99	34794.40
668.13	34792.06
668.27	34579.07
668.41	34623.54
668.56	34045.43
668.70	34504.18
668.84	33722.44
668.98	33724.78
669.12	33666.27
669.26	34176.50
669.40	33830.10
669.54	33600.73
669.68	33729.46
669.82	33642.86
669.96	33202.84
670.10	33841.81
670.25	33537.54
670.39	33450.94
670.53	33598.39
670.67	33673.29
670.81	33839.47
670.95	33291.78
671.09	33275.40
671.23	33053.05
671.37	33069.43
671.51	33191.14
671.65	32992.19
671.79	32900.91
671.93	32800.27
672.07	33191.14
672.21	32421.10
672.35	32629.41
672.49	32615.37
672.63	32636.43
672.77	32699.62
672.91	32755.80
673.05	32863.46
673.19	32355.57
673.33	32552.17
673.47	32170.66
673.61	32224.50
673.75	31814.90
673.89	31770.43
674.03	31711.92
674.17	32041.93
674.31	31604.25
674.45	31707.24
674.59	31938.95
674.73	32025.55
674.87	31690.85
675.01	31433.39
675.15	31243.81
675.29	31475.52
675.43	31365.52
675.56	31424.03
675.70	31311.69
675.84	31257.85
675.98	30141.42
676.12	31079.97
676.26	30693.79
676.40	30574.42
676.54	30831.88
676.68	30707.83
676.82	30333.34
676.96	30696.13
677.10	30281.85
677.23	30047.80
677.37	29951.84
677.51	29947.15
677.65	29661.61
677.79	29401.81
677.93	29537.56
678.07	29329.25
678.21	29429.90
678.34	29221.59
678.48	29039.03
678.62	28863.49
678.76	28790.93
678.90	28912.64
679.04	28680.92
679.18	29153.71
679.31	28596.67
679.45	28638.80
679.59	28350.91
679.73	28432.83
679.87	28306.44
680.00	28053.66
680.14	28334.53
680.28	28395.38
680.42	28254.95
680.56	28266.65
680.70	28013.87
680.83	28056.00
680.97	27431.08
681.11	27159.58
681.25	27620.66
681.39	27737.69
681.52	27721.30
681.66	27232.13
681.80	27391.29
681.94	27143.19
682.07	27063.61
682.21	27257.88
682.35	27192.34
682.49	26663.38
682.62	26948.93
682.76	26651.68
682.90	26349.75
683.04	26630.62
683.17	26008.03
683.31	26218.68
683.45	25876.96
683.59	26277.19
683.72	26160.17
683.86	26113.36
684.00	26036.12
684.13	25930.80
684.27	25593.76
684.41	26073.57
684.55	25371.41
684.68	25387.79
684.82	25722.49
684.96	25481.41
685.09	25546.95
685.23	25137.35
685.37	24793.29
685.50	25205.23
685.64	24669.25
685.78	24334.55
685.91	24624.78
686.05	24702.01
686.19	24416.47
686.32	24023.26
686.46	23927.30
686.60	23665.16
686.73	23573.88
686.87	23281.31
687.01	23351.52
687.14	23302.37
687.28	23468.55
687.42	23491.96
687.55	23370.25
687.69	23220.45
687.82	23253.22
687.96	22995.76
688.10	23438.12
688.23	22787.46
688.37	22867.03
688.50	22955.97
688.64	22934.91
688.78	22525.32
688.91	22445.74
689.05	22855.33
689.18	22567.45
689.32	22216.36
689.46	22064.23
689.59	22300.62
689.73	22366.16
689.86	22181.26
690.00	22216.36
690.13	22134.45
690.27	22132.11
690.41	21986.99
690.54	21640.59
690.68	21366.75
690.81	21514.20
690.95	21563.36
691.08	21563.36
691.22	21511.86
691.35	21465.05
691.49	21366.75
691.62	21039.08
691.76	21130.36
691.89	21256.75
692.03	20758.21
692.16	20868.22
692.30	20563.95
692.43	20535.86
692.57	20475.01
692.70	20308.83
692.84	20269.04
692.97	20222.23
693.11	20067.75
693.24	20100.52
693.38	19838.38
693.51	20044.35
693.65	20177.76
693.78	19522.41
693.92	19672.20
694.05	19852.42
694.19	19807.95
694.32	19234.52
694.45	19389.00
694.59	19239.20
694.72	19084.73
694.86	19082.39
694.99	18867.06
695.13	18789.82
695.26	18794.50
695.39	18913.87
695.53	19016.85
695.66	18874.08
695.80	19129.20
695.93	18724.29
696.07	18654.07
696.20	18375.55
696.33	18256.18
696.47	18197.67
696.60	17947.23
696.73	18141.49
696.87	17935.53
697.00	18223.41
697.14	17858.29
697.27	18146.17
697.40	17535.29
697.54	17671.04
697.67	17649.98
697.80	17975.31
697.94	17661.68
698.07	16985.27
698.21	17067.19
698.34	17317.62
698.47	17338.69
698.61	17076.55
698.74	16809.73
698.87	17003.99
699.01	16358.00
699.14	16573.33
699.27	16716.11
699.40	16521.84
699.54	16561.63
699.67	16273.74
699.80	16416.52
699.94	16346.30
700.07	16154.38
700.20	16116.93
700.34	16332.26
700.47	16189.49
700.60	16248.00
700.73	16236.30
700.87	15995.22
701.00	15719.04
701.13	15616.05
701.26	15630.10
701.40	15557.54
701.53	15550.52
701.66	15344.55
701.79	15276.68
701.93	15447.54
702.06	15274.34
702.19	14998.15
702.32	15332.85
702.46	14885.81
702.59	15098.80
702.72	15075.39
702.85	14909.21
702.99	15005.17
703.12	14820.27
703.25	14516.00
703.38	14684.52
703.51	14272.59
703.65	14497.28
703.78	14572.18
703.91	14373.23
704.04	14342.80
704.17	14274.93
704.31	13991.72
704.44	14087.68
704.57	14244.50
704.70	13888.74
704.83	13968.32
704.96	13865.33
705.10	13893.42
705.23	13696.82
>>>>>End Processed Spectral Data<<<<<
