SpectraSuite Data File
++++++++++++++++++++++++++++++++++++
Date: Fri Oct 25 10:43:31 EDT 2013
User: price-jones
Dark Spectrum Present: No
Reference Spectrum Present: No
Number of Sampled Component Spectra: 1
Spectrometers: USB2+H05261
Integration Time (usec): 100000 (USB2+H05261)
Spectra Averaged: 1 (USB2+H05261)
Boxcar Smoothing: 0 (USB2+H05261)
Correct for Electrical Dark: No (USB2+H05261)
Strobe/Lamp Enabled: No (USB2+H05261)
Correct for Detector Non-linearity: No (USB2+H05261)
Correct for Stray Light: No (USB2+H05261)
Number of Pixels in Processed Spectrum: 2048
>>>>>Begin Processed Spectral Data<<<<<
365.73	133.41
365.92	133.41
366.12	133.41
366.32	51.49
366.52	77.24
366.72	63.19
366.91	46.81
367.11	32.77
367.31	18.72
367.51	23.41
367.70	39.79
367.90	100.64
368.10	0.00
368.30	30.43
368.49	0.00
368.69	0.00
368.89	16.38
369.09	4.68
369.28	110.01
369.48	88.94
369.68	114.69
369.87	74.90
370.07	58.51
370.27	131.07
370.47	159.16
370.66	337.04
370.86	320.65
371.06	425.98
371.25	510.24
371.45	437.68
371.65	475.13
371.84	454.06
372.04	451.72
372.24	322.99
372.44	451.72
372.63	514.92
372.83	447.04
373.03	489.17
373.22	437.68
373.42	477.47
373.62	587.47
373.81	496.19
374.01	472.79
374.21	610.88
374.40	507.90
374.60	568.75
374.79	547.69
374.99	535.98
375.19	503.22
375.38	594.50
375.58	578.11
375.78	557.05
375.97	573.43
376.17	580.45
376.37	594.50
376.56	643.65
376.76	559.39
376.95	601.52
377.15	601.52
377.35	566.41
377.54	622.58
377.74	545.34
377.93	620.24
378.13	564.07
378.33	660.03
378.52	699.82
378.72	634.29
378.91	664.71
379.11	664.71
379.31	669.39
379.50	695.14
379.70	669.39
379.89	720.88
380.09	730.25
380.28	657.69
380.48	753.65
380.68	690.46
380.87	697.48
381.07	772.38
381.26	772.38
381.46	720.88
381.65	674.07
381.85	606.20
382.04	690.46
382.24	744.29
382.43	760.67
382.63	711.52
382.83	655.35
383.02	758.33
383.22	784.08
383.41	660.03
383.61	699.82
383.80	755.99
384.00	772.38
384.19	702.16
384.39	816.85
384.58	821.53
384.78	765.36
384.97	767.70
385.17	786.42
385.36	777.06
385.56	800.46
385.75	807.48
385.95	814.51
386.14	873.02
386.34	847.27
386.53	770.04
386.72	816.85
386.92	858.98
387.11	891.74
387.31	770.04
387.50	809.83
387.70	863.66
387.89	835.57
388.09	912.81
388.28	926.85
388.48	926.85
388.67	964.30
388.86	1048.56
389.06	903.45
389.25	1034.52
389.45	968.98
389.64	889.40
389.84	1029.84
390.03	1064.94
390.22	954.94
390.42	901.11
390.61	997.07
390.81	931.53
391.00	1013.45
391.19	1111.75
391.39	1076.65
391.58	1083.67
391.78	987.71
391.97	1015.79
392.16	1001.75
392.36	1074.31
392.55	1055.58
392.75	987.71
392.94	976.00
393.13	959.62
393.33	1020.47
393.52	1004.09
393.71	1144.52
393.91	1170.27
394.10	1121.12
394.29	1179.63
394.49	1172.61
394.68	1069.62
394.88	1294.32
395.07	1249.85
395.26	1240.48
395.46	1214.74
395.65	1214.74
395.84	1247.51
396.04	1299.00
396.23	1179.63
396.42	1135.16
396.62	1210.06
396.81	1146.86
397.00	1167.93
397.19	1291.98
397.39	1277.93
397.58	1411.34
397.77	1373.89
397.97	1437.09
398.16	1425.39
398.35	1467.52
398.55	1406.66
398.74	1411.34
398.93	1495.60
399.12	1577.52
399.32	1507.30
399.51	1533.05
399.70	1516.67
399.90	1472.20
400.09	1516.67
400.28	1586.88
400.47	1558.80
400.67	1584.54
400.86	1598.59
401.05	1650.08
401.24	1645.40
401.44	1675.82
401.63	1703.91
401.82	1575.18
402.01	1629.01
402.21	1664.12
402.40	1722.63
402.59	1727.32
402.78	1720.29
402.97	1732.00
403.17	1736.68
403.36	1741.36
403.55	1806.89
403.74	1853.70
403.93	1834.98
404.13	1923.92
404.32	1788.17
404.51	1727.32
404.70	1769.44
404.89	1898.17
405.09	1877.11
405.28	1881.79
405.47	1898.17
405.66	1982.43
405.85	1944.99
406.05	2026.90
406.24	1987.11
406.43	2087.76
406.62	2050.31
406.81	2150.95
407.00	2062.01
407.20	2050.31
407.39	1998.82
407.58	2146.27
407.77	2115.84
407.96	2260.96
408.15	2235.21
408.34	2221.17
408.54	2282.02
408.73	2216.49
408.92	2239.89
409.11	2256.28
409.30	2260.96
409.49	2284.36
409.68	2377.98
409.87	2232.87
410.07	2289.04
410.26	2354.58
410.45	2333.51
410.64	2335.85
410.83	2361.60
411.02	2551.18
411.21	2586.29
411.40	2551.18
411.59	2703.32
411.78	2558.21
411.98	2602.68
412.17	2619.06
412.36	2621.40
412.55	2661.19
412.74	2668.21
412.93	2696.30
413.12	2595.65
413.31	2850.77
413.50	2878.86
413.69	2839.07
413.88	2855.45
414.07	2768.85
414.26	2822.69
414.45	2832.05
414.64	2860.13
414.83	3082.49
415.02	3019.29
415.22	3075.46
415.41	2991.20
415.60	3098.87
415.79	3180.79
415.98	3295.47
416.17	3213.56
416.36	3171.43
416.55	3215.90
416.74	3239.30
416.93	3243.98
417.12	3241.64
417.31	3335.26
417.50	3286.11
417.69	3487.40
417.88	3396.12
418.07	3393.78
418.26	3501.44
418.45	3517.83
418.64	3574.00
418.83	3485.06
419.02	3616.13
419.21	3524.85
419.39	3503.78
419.58	3513.14
419.77	3653.58
419.96	3641.87
420.15	3529.53
420.34	3613.79
420.53	3639.53
420.72	3873.59
420.91	3779.97
421.10	3765.92
421.29	3831.46
421.48	3688.68
421.67	3831.46
421.86	3786.99
422.05	3721.45
422.24	3761.24
422.43	3784.65
422.61	3772.94
422.80	3939.12
422.99	3840.82
423.18	3927.42
423.37	3957.85
423.56	3950.82
423.75	3784.65
423.94	3911.04
424.13	3716.77
424.32	3779.97
424.50	3934.44
424.69	3854.86
424.88	4016.36
425.07	3829.12
425.26	3974.23
425.45	3824.44
425.64	3932.10
425.83	3808.05
426.01	4079.55
426.20	3920.40
426.39	4046.79
426.58	3817.41
426.77	3850.18
426.96	3913.38
427.15	3922.74
427.33	3922.74
427.52	4035.08
427.71	4063.17
427.90	4056.15
428.09	4175.52
428.28	4039.76
428.46	4126.36
428.65	4140.41
428.84	4203.60
429.03	4229.35
429.22	4063.17
429.40	4037.42
429.59	4147.43
429.78	3887.63
429.97	3805.71
430.16	4119.34
430.34	4030.40
430.53	4287.86
430.72	4285.52
430.91	4245.73
431.10	4215.30
431.28	4514.89
431.47	4554.68
431.66	4601.49
431.85	4383.82
432.03	4486.81
432.22	4561.70
432.41	4505.53
432.60	4655.33
432.79	4631.92
432.97	4772.35
433.16	4706.82
433.35	4538.30
433.54	4437.66
433.72	4667.03
433.91	4610.86
434.10	4706.82
434.28	4709.16
434.47	4800.44
434.66	4877.68
434.85	4739.58
435.03	4938.53
435.22	4966.62
435.41	4968.96
435.59	4915.12
435.78	5055.56
435.97	5118.75
436.16	5135.14
436.34	5008.75
436.53	5151.52
436.72	5128.11
436.90	5116.41
437.09	5177.26
437.28	4997.04
437.46	5081.30
437.65	5193.65
437.84	5191.31
438.02	5207.69
438.21	5020.45
438.40	5036.83
438.58	5289.61
438.77	5420.68
438.96	5614.95
439.14	5570.48
439.33	5563.45
439.52	5495.58
439.70	5591.54
439.89	5626.65
440.08	5631.33
440.26	5596.22
440.45	5645.37
440.63	5804.53
440.82	5956.66
441.01	5675.80
441.19	5767.08
441.38	5982.41
441.57	6129.86
441.75	6010.50
441.94	6169.65
442.12	6286.68
442.31	6338.17
442.50	6284.34
442.68	6162.63
442.87	6136.88
443.05	6324.13
443.24	6377.96
443.43	6394.34
443.61	6272.64
443.80	6539.46
443.98	6333.49
444.17	6127.52
444.35	6448.18
444.54	6509.03
444.73	6609.67
444.91	6441.15
445.10	6328.81
445.28	6211.78
445.47	6394.34
445.65	6455.20
445.84	6604.99
446.02	6544.14
446.21	6452.86
446.39	6637.76
446.58	6588.61
446.77	6537.12
446.95	6373.28
447.14	6747.76
447.32	6738.40
447.51	6579.25
447.69	6544.14
447.88	6736.06
448.06	6532.44
448.25	6656.48
448.43	6614.35
448.62	6600.31
448.80	6654.14
448.99	6583.93
449.17	6686.91
449.36	6754.79
449.54	6885.86
449.73	6986.50
449.91	7194.81
450.10	7138.63
450.28	7103.53
450.46	7148.00
450.65	7314.17
450.83	7250.98
451.02	7070.76
451.20	7171.40
451.39	7054.37
451.57	7101.19
451.76	6970.12
451.94	7094.16
452.13	7243.96
452.31	7335.24
452.49	7000.54
452.68	7220.55
452.86	7173.74
453.05	7105.87
453.23	7309.49
453.42	7258.00
453.60	7241.62
453.78	7368.01
453.97	7283.75
454.15	7412.48
454.34	7328.22
454.52	7618.44
454.70	7489.71
454.89	7363.33
455.07	7520.14
455.26	7412.48
455.44	7728.45
455.62	7564.61
455.81	7524.82
455.99	7768.24
456.17	7655.89
456.36	7756.54
456.54	7992.93
456.73	7817.39
456.91	7929.74
457.09	7997.61
457.28	8208.26
457.46	7899.31
457.64	8170.81
457.83	8135.70
458.01	7836.11
458.19	8051.44
458.38	7859.52
458.56	8212.94
458.74	8217.62
458.93	8231.66
459.11	8156.77
459.29	8159.11
459.48	8149.75
459.66	8276.13
459.84	8381.46
460.03	8587.43
460.21	8521.89
460.39	8512.53
460.57	8475.08
460.76	8552.32
460.94	8519.55
461.12	8573.38
461.31	8716.16
461.49	8837.86
461.67	8603.81
461.85	8840.20
462.04	8683.39
462.22	9212.35
462.40	8784.03
462.59	8826.16
462.77	8671.68
462.95	8856.59
463.13	8791.05
463.32	8858.93
463.50	8786.37
463.68	8973.61
463.86	9025.11
464.05	8699.77
464.23	8821.48
464.41	9165.54
464.59	8786.37
464.78	8933.82
464.96	8856.59
465.14	8980.64
465.32	9202.99
465.50	9408.95
465.69	9137.45
465.87	9078.94
466.05	9071.92
466.23	9184.26
466.41	9050.85
466.60	9327.03
466.78	9029.79
466.96	9371.50
467.14	9165.54
467.32	9334.06
467.51	9277.88
467.69	9029.79
467.87	9336.40
468.05	9296.61
468.23	9219.37
468.41	9130.43
468.60	9472.15
468.78	9619.60
468.96	9521.30
469.14	9530.66
469.32	9900.47
469.50	9586.83
469.69	9530.66
469.87	9624.28
470.05	9818.55
470.23	9575.13
470.41	9633.64
470.59	9839.61
470.77	9809.19
470.95	10157.92
471.14	10043.24
471.32	9865.36
471.50	10129.84
471.68	10148.56
471.86	10097.07
472.04	10253.89
472.22	10616.67
472.40	10211.76
472.58	10256.23
472.77	10274.95
472.95	10335.81
473.13	10780.51
473.31	10452.83
473.49	10452.83
473.67	10434.11
473.85	10448.15
474.03	10876.47
474.21	10883.49
474.39	11009.88
474.57	10815.62
474.75	11152.65
474.93	11070.73
475.12	11091.80
475.30	10991.16
475.48	10923.28
475.66	11110.52
475.84	11014.56
476.02	11332.87
476.20	11267.34
476.38	11602.04
476.56	11709.70
476.74	11447.56
476.92	11578.63
477.10	11705.02
477.28	11833.75
477.46	12135.68
477.64	12191.85
477.82	12128.66
478.00	12580.38
478.18	12386.12
478.36	12446.97
478.54	12585.06
478.72	12744.22
478.90	12830.82
479.08	12793.37
479.26	13074.23
479.44	12872.95
479.62	13001.68
479.80	13261.48
479.98	13226.37
480.16	13554.04
480.34	13528.30
480.52	13635.96
480.70	13635.96
480.88	13270.84
481.06	13788.10
481.24	13914.48
481.41	14288.97
481.59	14169.60
481.77	14265.57
481.95	14483.24
482.13	14429.40
482.31	14377.91
482.49	14602.60
482.67	14661.12
482.85	14923.26
483.03	14984.11
483.21	14993.47
483.39	15351.57
483.57	15192.42
483.74	15452.22
483.92	15426.47
484.10	15234.55
484.28	15733.08
484.46	15854.79
484.64	15922.66
484.82	15971.82
485.00	16046.71
485.18	16198.85
485.35	16264.38
485.53	16112.25
485.71	16219.91
485.89	16421.20
486.07	16259.70
486.25	16507.80
486.43	16814.41
486.61	16898.67
486.78	17207.62
486.96	17083.57
487.14	17685.09
487.32	17329.33
487.50	17781.05
487.68	17877.01
487.85	18192.98
488.03	18291.29
488.21	18300.65
488.39	18305.33
488.57	18581.51
488.75	18534.70
488.92	18808.54
489.10	19110.47
489.28	19283.67
489.46	19637.09
489.64	19204.10
489.81	20053.71
489.99	20133.29
490.17	20140.31
490.35	20528.84
490.53	19955.41
490.70	20163.72
490.88	20177.76
491.06	20624.80
491.24	20404.79
491.41	20680.97
491.59	20786.30
491.77	20510.11
491.95	20589.69
492.13	21348.03
492.30	21259.09
492.48	21240.36
492.66	21235.68
492.84	21647.61
493.01	21869.97
493.19	21685.06
493.37	22429.35
493.54	22104.02
493.72	22183.60
493.90	22651.70
494.08	22508.93
494.25	22850.65
494.43	23002.78
494.61	23019.17
494.79	23295.35
494.96	22941.93
495.14	23316.42
495.32	23374.93
495.49	23412.38
495.67	23758.78
495.85	23576.22
496.02	23761.12
496.20	24414.13
496.38	24098.16
496.55	24212.84
496.73	24732.44
496.91	24650.52
497.09	24631.80
497.26	24779.25
497.44	24900.96
497.62	25015.65
497.79	25207.57
497.97	24636.48
498.14	25130.33
498.32	25560.99
498.50	25621.84
498.67	25649.93
498.85	25759.94
499.03	26022.08
499.20	26122.72
499.38	25940.16
499.56	26387.20
499.73	26043.14
499.91	26288.90
500.08	26431.67
500.26	25996.33
500.44	26185.91
500.61	26314.64
500.79	26417.63
500.97	26452.73
501.14	27105.74
501.32	27000.42
501.49	27047.23
501.67	26909.14
501.84	27264.90
502.02	27276.60
502.20	27012.12
502.37	27669.81
502.55	27487.25
502.72	27580.87
502.90	27438.10
503.07	27800.88
503.25	27997.49
503.43	27901.53
503.60	27920.25
503.78	27597.26
503.95	27704.92
504.13	28077.07
504.30	28821.36
504.48	28355.59
504.65	28549.85
504.83	28528.79
505.01	28718.37
505.18	28755.82
505.36	29333.93
505.53	29605.44
505.71	29387.77
505.88	29453.30
506.06	29212.23
506.23	29336.27
506.41	29062.43
506.58	29755.23
506.76	29500.11
506.93	29867.58
507.11	29839.49
507.28	29710.76
507.46	29689.70
507.63	29734.17
507.81	29589.05
507.98	29738.85
508.16	29610.12
508.33	30546.33
508.50	30431.65
508.68	30263.13
508.85	30543.99
509.03	30731.23
509.20	30815.49
509.38	30778.04
509.55	30984.01
509.73	31054.23
509.90	31094.02
510.08	30939.54
510.25	31241.47
510.42	31421.69
510.60	31342.11
510.77	31627.66
510.95	31681.49
511.12	31515.31
511.30	31789.16
511.47	31948.31
511.64	32222.16
511.82	32261.94
511.99	31864.05
512.17	32222.16
512.34	31978.74
512.51	32053.64
512.69	32701.96
512.86	31793.84
513.04	32538.13
513.21	32694.94
513.38	32339.18
513.56	32404.72
513.73	32383.65
513.90	32442.17
514.08	33167.73
514.25	33071.77
514.43	32634.09
514.60	32907.93
514.77	32858.78
514.95	33221.56
515.12	32914.95
515.29	32973.47
515.47	33736.48
515.64	33886.28
515.81	33198.16
515.99	33996.28
516.16	33418.17
516.33	33364.34
516.51	33874.57
516.68	33003.89
516.85	32835.38
517.03	33474.34
517.20	33472.00
517.37	33905.00
517.54	34295.87
517.72	34031.39
517.89	33591.37
518.06	33539.88
518.24	33450.94
518.41	33965.85
518.58	34258.42
518.75	34078.20
518.93	34761.64
519.10	34529.92
519.27	34866.96
519.45	34693.76
519.62	35330.39
519.79	34796.74
519.96	34911.43
520.14	35269.53
520.31	35124.42
520.48	35395.92
520.65	35185.27
520.83	35288.26
521.00	35503.59
521.17	35487.20
521.34	35861.69
521.52	36013.82
521.69	35449.75
521.86	36116.81
522.03	35988.08
522.20	35831.26
522.38	35992.76
522.55	35997.44
522.72	35964.67
522.89	36074.68
523.07	36463.21
523.24	36336.82
523.41	36870.46
523.58	36737.05
523.75	37130.26
523.92	36891.52
524.10	37034.30
524.27	36753.43
524.44	36898.55
524.61	37221.54
524.78	37275.37
524.96	37141.96
525.13	37104.51
525.30	37347.93
525.47	37516.45
525.64	37113.87
525.81	37312.82
525.98	37500.06
526.16	37439.21
526.33	37057.70
526.50	36961.74
526.67	37109.19
526.84	37062.38
527.01	37141.96
527.18	37078.77
527.36	37467.30
527.53	37771.57
527.70	38328.61
527.87	37762.20
528.04	37909.66
528.21	38094.56
528.38	38361.38
528.55	38375.42
528.72	38534.58
528.89	38506.49
529.07	38328.61
529.24	38218.61
529.41	38649.27
529.58	38298.19
529.75	38562.67
529.92	38998.01
530.09	38958.22
530.26	38689.06
530.43	38892.68
530.60	38583.73
530.77	38939.49
530.94	39480.16
531.11	38724.16
531.28	38995.67
531.46	38852.89
531.63	39115.03
531.80	39257.81
531.97	39089.29
532.14	39063.54
532.31	38946.51
532.48	39098.65
532.65	39580.80
532.82	39040.14
532.99	39405.26
533.16	39257.81
533.33	39405.26
533.50	39639.31
533.67	39302.28
533.84	39456.75
534.01	39578.46
534.18	39929.54
534.35	40240.83
534.52	40011.46
534.69	39990.39
534.86	40385.94
535.03	40315.73
535.20	40343.81
535.37	40215.08
535.54	40907.88
535.71	40088.70
535.88	40215.08
536.05	40079.33
536.22	40306.37
536.38	40811.92
536.55	40423.39
536.72	40591.91
536.89	40091.04
537.06	40320.41
537.23	41031.93
537.40	40971.08
537.57	40720.64
537.74	40416.37
537.91	41132.57
538.08	40999.16
538.25	40870.43
538.42	40671.49
538.59	40772.13
538.75	40683.19
538.92	40870.43
539.09	40903.20
539.26	41258.96
539.43	40992.14
539.60	41478.97
539.77	41158.32
539.94	40858.73
540.11	41001.50
540.28	41439.18
540.44	40975.76
540.61	41186.41
540.78	41296.41
540.95	41207.47
541.12	41163.00
541.29	41413.44
541.46	41577.28
541.62	41600.68
541.79	41787.92
541.96	41397.06
542.13	41663.88
542.30	41373.65
542.47	41701.32
542.63	41532.81
542.80	42284.12
542.97	42211.56
543.14	42466.68
543.31	42265.39
543.48	42419.87
543.64	42511.15
543.81	42829.46
543.98	42810.74
544.15	42403.49
544.32	42536.90
544.48	42174.11
544.65	42476.04
544.82	42682.01
544.99	42141.35
545.16	42726.48
545.32	42586.05
545.49	42389.44
545.66	42813.08
545.83	42555.62
546.00	43489.49
546.16	42642.22
546.33	42410.51
546.50	42787.33
546.67	42883.30
546.83	42354.33
547.00	43075.22
547.17	42927.77
547.34	42967.55
547.50	42625.84
547.67	43316.29
547.84	42939.47
548.00	43220.33
548.17	43433.32
548.34	43388.85
548.51	43828.87
548.67	43578.43
548.84	43641.63
549.01	43566.73
549.18	43042.45
549.34	43438.00
549.51	43328.00
549.68	43777.38
549.84	43763.34
550.01	43653.33
550.18	43648.65
550.34	43629.93
550.51	43501.20
550.68	43758.66
550.84	43538.65
551.01	43880.36
551.18	43377.15
551.34	43922.49
551.51	44013.77
551.68	43910.79
551.84	43871.00
552.01	43697.80
552.18	43763.34
552.34	43737.59
552.51	44098.03
552.68	43768.02
552.84	43959.94
553.01	44151.87
553.18	44191.65
553.34	44041.86
553.51	43999.73
553.67	43938.88
553.84	44823.60
554.01	44477.20
554.17	44376.56
554.34	44467.84
554.51	44222.08
554.67	44554.44
554.84	44486.56
555.00	44105.06
555.17	44311.02
555.33	44650.40
555.50	44488.90
555.67	44313.36
555.83	44226.76
556.00	44486.56
556.16	44832.96
556.33	44233.78
556.50	44516.99
556.66	44378.90
556.83	44229.10
556.99	44229.10
557.16	44421.03
557.32	44809.56
557.49	44933.60
557.65	44741.68
557.82	44409.32
557.98	44456.14
558.15	44673.81
558.32	44942.97
558.48	44657.42
558.65	44465.50
558.81	44519.33
558.98	44470.18
559.14	45024.89
559.31	44622.31
559.47	44526.35
559.64	45003.82
559.80	44964.03
559.97	44816.58
560.13	44769.77
560.30	45092.76
560.46	45448.52
560.63	44931.26
560.79	44868.07
560.96	45549.17
561.12	45113.83
561.29	44811.90
561.45	45272.98
561.61	44856.37
561.78	44924.24
561.94	44758.06
562.11	45287.03
562.27	44882.11
562.44	45303.41
562.60	45390.01
562.77	45071.70
562.93	45052.97
563.10	45584.27
563.26	45497.67
563.42	44884.45
563.59	45067.02
563.75	45120.85
563.92	45418.10
564.08	45354.90
564.24	45535.12
564.41	45446.18
564.57	45137.23
564.74	45483.63
564.90	44959.35
565.07	45251.92
565.23	45413.41
565.39	45235.53
565.56	44945.31
565.72	44938.29
565.88	45418.10
566.05	45378.31
566.21	45397.03
566.38	45298.73
566.54	45209.79
566.70	45638.11
566.87	45345.54
567.03	45586.61
567.19	45897.91
567.36	45544.48
567.52	45825.35
567.68	45481.29
567.85	45146.59
568.01	45588.95
568.17	45244.90
568.34	45490.65
568.50	45516.40
568.66	45581.93
568.83	45418.10
568.99	44968.71
569.15	45471.93
569.32	45392.35
569.48	45331.50
569.64	45713.00
569.81	45727.05
569.97	45373.63
570.13	45567.89
570.30	45223.83
570.46	45553.85
570.62	45429.80
570.78	44720.62
570.95	45305.75
571.11	45221.49
571.27	45221.49
571.43	45287.03
571.60	45528.10
571.76	45560.87
571.92	45457.88
572.09	45759.81
572.25	45815.99
572.41	45509.38
572.57	45806.62
572.74	46251.33
572.90	45872.16
573.06	45698.96
573.22	45858.12
573.38	45537.46
573.55	45418.10
573.71	45858.12
573.87	45893.22
574.03	45497.67
574.20	45713.00
574.36	45504.70
574.52	45619.38
574.68	45663.85
574.84	45621.72
575.01	45663.85
575.17	45977.48
575.33	45815.99
575.49	45743.43
575.65	45656.83
575.82	45727.05
575.98	45588.95
576.14	45911.95
576.30	45911.95
576.46	45773.86
576.62	45631.08
576.79	45640.45
576.95	45591.30
577.11	45764.49
577.27	45682.58
577.43	45617.04
577.59	45577.25
577.75	45876.84
577.92	44949.99
578.08	45324.47
578.24	45373.63
578.40	45701.30
578.56	45787.90
578.72	45443.84
578.88	45813.65
579.04	46213.88
579.21	45694.28
579.37	45626.40
579.53	45537.46
579.69	45439.16
579.85	45544.48
580.01	45680.24
580.17	45167.66
580.33	45621.72
580.49	45914.29
580.65	45511.72
580.82	45551.51
580.98	45729.39
581.14	45146.59
581.30	45823.01
581.46	45553.85
581.62	46036.00
581.78	45666.19
581.94	46089.83
582.10	46026.63
582.26	45827.69
582.42	45673.21
582.58	45925.99
582.74	45684.92
582.90	45790.24
583.06	46218.56
583.22	45731.73
583.38	45951.74
583.54	46337.93
583.70	45790.24
583.86	45427.46
584.02	45668.53
584.18	45968.12
584.34	45584.27
584.50	45666.19
584.66	45930.67
584.82	45186.38
584.98	45897.91
585.14	45965.78
585.30	45610.02
585.46	45799.60
585.62	45614.70
585.78	45720.02
585.94	45521.08
586.10	45488.31
586.26	45338.52
586.42	46045.36
586.58	46110.89
586.74	46258.35
586.90	45390.01
587.06	45694.28
587.22	45954.08
587.38	45544.48
587.54	45694.28
587.70	46057.06
587.86	45633.42
588.02	45731.73
588.18	46185.79
588.34	45385.33
588.49	45745.77
588.65	45469.59
588.81	45254.26
588.97	45317.45
589.13	45275.32
589.29	45532.78
589.45	45170.00
589.61	45289.37
589.77	46047.70
589.93	45968.12
590.08	45469.59
590.24	45993.87
590.40	45694.28
590.56	46019.61
590.72	45724.71
590.88	45787.90
591.04	45724.71
591.20	46068.76
591.35	46333.24
591.51	46642.20
591.67	46075.79
591.83	45731.73
591.99	45595.98
592.15	46010.25
592.31	46071.10
592.46	45975.14
592.62	45680.24
592.78	46232.60
592.94	45514.06
593.10	46206.86
593.26	46206.86
593.41	46054.72
593.57	45970.46
593.73	45633.42
593.89	45778.54
594.05	45638.11
594.20	45624.06
594.36	46141.32
594.52	45713.00
594.68	46150.68
594.84	45579.59
594.99	45907.27
595.15	45834.71
595.31	45954.08
595.47	45925.99
595.62	45968.12
595.78	46087.49
595.94	46138.98
596.10	45682.58
596.25	46349.63
596.41	45860.46
596.57	45954.08
596.73	45888.54
596.88	45659.17
597.04	45713.00
597.20	46232.60
597.36	45993.87
597.51	45893.22
597.67	45914.29
597.83	46019.61
597.99	46429.21
598.14	46284.09
598.30	46087.49
598.46	46089.83
598.61	46021.95
598.77	45949.40
598.93	45860.46
599.09	46204.52
599.24	46602.41
599.40	46204.52
599.56	46127.28
599.71	46323.88
599.87	46616.45
600.03	46003.23
600.18	45862.80
600.34	45935.35
600.50	45904.93
600.65	45647.47
600.81	46288.77
600.97	45904.93
601.12	46548.57
601.28	45633.42
601.44	45481.29
601.59	45921.31
601.75	45661.51
601.91	46028.98
602.06	45977.48
602.22	46059.40
602.37	46398.78
602.53	45930.67
602.69	46148.34
602.84	45968.12
603.00	45799.60
603.16	46314.52
603.31	46120.26
603.47	46206.86
603.62	45757.47
603.78	46232.60
603.94	46071.10
604.09	46148.34
604.25	46176.43
604.40	45918.97
604.56	46033.66
604.71	46326.22
604.87	45907.27
605.03	46183.45
605.18	45769.18
605.34	46024.29
605.49	45460.23
605.65	45886.20
605.80	45441.50
605.96	45654.49
606.12	46181.11
606.27	46134.30
606.43	45797.26
606.58	45645.13
606.74	45696.62
606.89	45883.86
607.05	45764.49
607.20	46237.28
607.36	45893.22
607.51	45778.54
607.67	45736.41
607.82	45624.06
607.98	45776.20
608.13	45553.85
608.29	45823.01
608.44	45148.93
608.60	44961.69
608.75	45460.23
608.91	45687.26
609.06	45607.68
609.22	45614.70
609.37	45492.99
609.53	45399.37
609.68	45535.12
609.84	45382.99
609.99	45270.64
610.15	45282.34
610.30	45097.44
610.46	45270.64
610.61	45055.31
610.76	45485.97
610.92	45476.61
611.07	45116.17
611.23	45256.60
611.38	45181.70
611.54	45574.91
611.69	45162.98
611.84	45127.87
612.00	44657.42
612.15	45380.65
612.31	45691.94
612.46	45062.33
612.62	45565.55
612.77	45062.33
612.92	44919.56
613.08	45139.57
613.23	45064.67
613.39	44531.03
613.54	44729.98
613.69	44903.18
613.85	44800.19
614.00	45195.74
614.15	44463.16
614.31	44638.70
614.46	45195.74
614.62	44533.37
614.77	44982.76
614.92	44912.54
615.08	44229.10
615.23	44790.83
615.38	44596.57
615.54	44041.86
615.69	44456.14
615.84	44786.15
616.00	44683.17
616.15	44697.21
616.30	44545.08
616.46	44781.47
616.61	44573.16
616.76	44311.02
616.92	44027.82
617.07	44526.35
617.22	44442.09
617.37	44292.30
617.53	44421.03
617.68	44753.38
617.83	44636.36
617.99	44306.34
618.14	44231.44
618.29	44369.54
618.45	43863.98
618.60	44163.57
618.75	43959.94
618.90	44196.34
619.06	44046.54
619.21	43716.53
619.36	44020.80
619.51	44098.03
619.67	44032.50
619.82	43892.07
619.97	43737.59
620.12	43913.13
620.28	43686.10
620.43	44399.96
620.58	43990.37
620.73	43903.77
620.89	43672.06
621.04	43969.30
621.19	44224.42
621.34	43672.06
621.49	43859.30
621.65	43594.82
621.80	44194.00
621.95	43688.44
622.10	44154.21
622.25	43578.43
622.41	43292.89
622.56	43295.23
622.71	43793.76
622.86	43391.19
623.01	43564.39
623.16	43620.56
623.32	43276.51
623.47	43330.34
623.62	43262.46
623.77	42960.53
623.92	43269.48
624.07	43309.27
624.23	43131.39
624.38	43002.66
624.53	42934.79
624.68	42953.51
624.83	43178.20
624.98	43119.69
625.13	42607.11
625.29	42981.60
625.44	42745.20
625.59	43058.84
625.74	42983.94
625.89	42808.40
626.04	42939.47
626.19	42752.23
626.34	42831.80
626.49	43061.18
626.65	42962.87
626.80	42588.39
626.95	42850.53
627.10	42361.36
627.25	42726.48
627.40	42295.82
627.55	42227.95
627.70	42293.48
627.85	42548.60
628.00	42249.01
628.15	43026.07
628.30	42469.02
628.45	42574.34
628.60	42464.34
628.76	42564.98
628.91	42426.89
629.06	42176.45
629.21	42183.48
629.36	42019.64
629.51	42066.45
629.66	42618.81
629.81	41881.55
629.96	42094.53
630.11	42382.42
630.26	42209.22
630.41	42611.79
630.56	42246.67
630.71	41787.92
630.86	42017.30
631.01	41748.14
631.16	42057.09
631.31	41773.88
631.46	41509.40
631.61	41490.68
631.76	41731.75
631.91	41982.19
632.06	42036.02
632.21	42328.59
632.36	41963.46
632.51	41317.48
632.66	41680.26
632.81	40931.29
632.96	41724.73
633.10	41631.11
633.25	41596.00
633.40	41673.24
633.55	41261.30
633.70	41029.59
633.85	41305.77
634.00	41626.43
634.15	41078.74
634.30	41502.38
634.45	41352.58
634.60	41198.11
634.75	41467.27
634.90	41296.41
635.05	41359.61
635.19	41099.81
635.34	41399.40
635.49	41368.97
635.64	40889.16
635.79	41060.02
635.94	41141.94
636.09	41001.50
636.24	41041.29
636.39	40708.94
636.53	41074.06
636.68	40847.03
636.83	40772.13
636.98	40811.92
637.13	40573.19
637.28	41188.75
637.43	41429.82
637.57	41034.27
637.72	41177.04
637.87	40463.18
638.02	40903.20
638.17	40741.71
638.32	40732.34
638.46	40547.44
638.61	40732.34
638.76	40282.96
638.91	40481.91
639.06	40460.84
639.20	40353.18
639.35	40694.89
639.50	40596.59
639.65	40299.34
639.80	40254.87
639.94	40484.25
640.09	40357.86
640.24	40233.81
640.39	40130.83
640.54	39906.13
640.68	39681.44
640.83	40116.78
640.98	40055.93
641.13	40091.04
641.27	40301.68
641.42	39824.22
641.57	39976.35
641.72	39842.94
641.86	39819.53
642.01	39700.17
642.16	39660.38
642.31	39672.08
642.45	40128.48
642.60	39653.36
642.75	39580.80
642.90	39859.32
643.04	40273.60
643.19	40137.85
643.34	39793.79
643.48	39672.08
643.63	39606.55
643.78	39335.04
643.93	39742.30
644.07	39608.89
644.22	39419.30
644.37	39178.23
644.51	39253.12
644.66	39700.17
644.81	39054.18
644.95	39810.17
645.10	39264.83
645.25	39674.42
645.39	39332.70
645.54	39257.81
645.69	39061.20
645.83	38920.77
645.98	39063.54
646.13	39129.08
646.27	39360.79
646.42	38810.76
646.57	39093.97
646.71	38993.32
646.86	39253.12
647.00	39241.42
647.15	38820.13
647.30	39007.37
647.44	38902.04
647.59	39051.84
647.74	38543.94
647.88	38494.79
648.03	38981.62
648.17	38960.56
648.32	38424.57
648.47	38628.20
648.61	38045.41
648.76	38918.43
648.90	38693.74
649.05	38639.90
649.20	39180.57
649.34	38916.09
649.49	38089.88
649.63	38284.14
649.78	38644.59
649.92	38639.90
650.07	38557.99
650.21	38082.86
650.36	38675.01
650.51	38712.46
650.65	38651.61
650.80	38983.96
650.94	38574.37
651.09	38337.98
651.23	37942.42
651.38	38258.40
651.52	38298.19
651.67	38171.80
651.81	37860.51
651.96	38160.09
652.10	38443.30
652.25	38501.81
652.39	38279.46
652.54	38768.63
652.68	37926.04
652.83	38508.83
652.97	38419.89
653.12	38663.31
653.26	38045.41
653.41	37696.67
653.55	38005.62
653.70	38260.74
653.84	37820.72
653.99	37406.44
654.13	37598.37
654.27	38141.37
654.42	37539.85
654.56	37539.85
654.71	37989.24
654.85	37450.91
655.00	37888.59
655.14	37125.58
655.29	37481.34
655.43	37605.39
655.57	37071.75
655.72	36943.02
655.86	37357.29
656.01	36673.85
656.15	36741.73
656.30	37266.01
656.44	37200.47
656.58	37392.40
656.73	37319.84
656.87	36945.36
657.01	36837.69
657.16	36952.38
657.30	36816.63
657.45	36587.25
657.59	36732.37
657.73	36982.80
657.88	37214.52
658.02	37195.79
658.16	36870.46
658.31	37001.53
658.45	37076.43
658.60	36491.29
658.74	37097.49
658.88	37312.82
659.03	36730.03
659.17	36641.09
659.31	36411.71
659.46	36470.23
659.60	36362.56
659.74	36500.65
659.89	36503.00
660.03	36636.41
660.17	36474.91
660.32	36428.10
660.46	36369.58
660.60	36053.61
660.74	36170.64
660.89	35885.09
661.03	35901.48
661.17	36275.96
661.32	35971.69
661.46	35723.60
661.60	35426.35
661.74	35868.71
661.89	35997.44
662.03	36371.92
662.17	35864.03
662.31	36362.56
662.46	36325.11
662.60	36109.78
662.74	35662.74
662.88	35751.68
663.03	35377.20
663.17	35812.54
663.31	35065.91
663.45	35323.36
663.60	35384.22
663.74	35065.91
663.88	35012.07
664.02	35101.01
664.17	35248.47
664.31	35257.83
664.45	35051.86
664.59	35201.66
664.73	34958.24
664.88	34969.94
665.02	34553.33
665.16	34656.31
665.30	34787.38
665.44	34415.24
665.59	34438.64
665.73	34546.31
665.87	34125.01
666.01	34295.87
666.15	34291.19
666.29	34338.00
666.44	34567.37
666.58	34597.80
666.72	34302.89
666.86	34408.22
667.00	34279.49
667.14	33722.44
667.28	34073.52
667.43	34022.03
667.57	33963.51
667.71	34103.95
667.85	34169.48
667.99	33848.83
668.13	33736.48
668.27	33813.72
668.41	33682.65
668.56	33394.76
668.70	33429.87
668.84	33078.79
668.98	32966.45
669.12	33305.82
669.26	33392.42
669.40	33078.79
669.54	33315.19
669.68	32943.04
669.82	32357.91
669.96	33060.07
670.10	32594.30
670.25	33017.94
670.39	33146.67
670.53	32631.75
670.67	32795.59
670.81	32395.35
670.95	32720.69
671.09	32336.84
671.23	32243.22
671.37	32484.30
671.51	32488.98
671.65	32285.35
671.79	32304.07
671.93	32037.25
672.07	31988.10
672.21	31679.15
672.35	31744.69
672.49	31639.36
672.63	31938.95
672.77	31395.95
672.91	31527.02
673.05	31772.77
673.19	31618.30
673.33	31283.60
673.47	31197.00
673.61	31494.25
673.75	31098.70
673.89	31206.36
674.03	31608.93
674.17	30962.95
674.31	31061.25
674.45	31096.36
674.59	31302.32
674.73	31157.21
674.87	31136.15
675.01	30707.83
675.15	30700.81
675.29	30410.58
675.43	30628.25
675.56	30635.27
675.70	30293.55
675.84	30536.97
675.98	29427.56
676.12	30464.41
676.26	30433.99
676.40	29844.17
676.54	30068.86
676.68	29481.39
676.82	29647.57
676.96	29738.85
677.10	29937.79
677.23	29282.44
677.37	29605.44
677.51	29216.91
677.65	29357.34
677.79	28870.51
677.93	28919.66
678.07	28659.86
678.21	28591.98
678.34	28496.02
678.48	28444.53
678.62	28257.29
678.76	28121.54
678.90	28336.87
679.04	27988.13
679.18	28470.28
679.31	27845.35
679.45	28044.30
679.59	27920.25
679.73	27796.20
679.87	27611.30
680.00	27608.96
680.14	27615.98
680.28	27681.52
680.42	27618.32
680.56	27608.96
680.70	27033.19
680.83	27365.54
680.97	26988.72
681.11	27154.90
681.25	27154.90
681.39	26733.60
681.52	27030.85
681.66	26902.12
681.80	26785.09
681.94	26242.09
682.07	26228.04
682.21	26342.73
682.35	26536.99
682.49	26199.96
682.62	25862.92
682.76	25886.32
682.90	25425.24
683.04	25841.85
683.17	25785.68
683.31	25495.46
683.45	25362.04
683.59	25682.70
683.72	25242.68
683.86	25308.21
684.00	25326.94
684.13	25439.28
684.27	24971.18
684.41	25081.18
684.55	24577.97
684.68	24362.64
684.82	24828.40
684.96	24545.20
685.09	24442.21
685.23	24760.53
685.37	24315.83
685.50	24355.61
685.64	24430.51
685.78	24196.46
685.91	24027.94
686.05	23623.03
686.19	23754.10
686.32	23606.64
686.46	23723.67
686.60	23288.33
686.73	23119.81
686.87	23185.35
687.01	23180.67
687.14	22955.97
687.28	23012.15
687.42	22761.71
687.55	22745.33
687.69	23154.92
687.82	22597.87
687.96	23061.30
688.10	22457.44
688.23	22169.55
688.37	22773.41
688.50	22281.90
688.64	22099.34
688.78	21982.31
688.91	21907.41
689.05	22045.51
689.18	22052.53
689.32	21745.92
689.46	22008.06
689.59	22078.27
689.73	22066.57
689.86	21511.86
690.00	21537.61
690.13	21561.02
690.27	21467.39
690.41	21394.84
690.54	20809.70
690.68	21240.36
690.81	21092.91
690.95	21245.04
691.08	20809.70
691.22	21060.14
691.35	20975.88
691.49	20933.75
691.62	20472.67
691.76	20807.36
691.89	20800.34
692.03	20524.16
692.16	20224.57
692.30	20444.58
692.43	20152.01
692.57	19992.86
692.70	19782.21
692.84	19737.74
692.97	19515.39
693.11	19531.77
693.24	19496.66
693.38	19487.30
693.51	19658.16
693.65	19501.34
693.78	19262.61
693.92	19208.78
694.05	19426.45
694.19	19473.26
694.32	19028.56
694.45	19021.53
694.59	19171.33
694.72	18745.35
694.86	18867.06
694.99	18750.03
695.13	18705.56
695.26	18366.18
695.39	18256.18
695.53	18572.15
695.66	18291.29
695.80	18310.01
695.93	18031.49
696.07	18045.53
696.20	18176.60
696.33	18139.15
696.47	18150.85
696.60	17827.86
696.73	17891.06
696.87	17563.38
697.00	17497.84
697.14	17275.49
697.27	17268.47
697.40	17123.36
697.54	17121.02
697.67	17394.86
697.80	17207.62
697.94	17046.12
698.07	17209.96
698.21	16959.52
698.34	17422.95
698.47	16989.95
698.61	16341.62
698.74	16627.17
698.87	16559.29
699.01	16603.76
699.14	15999.90
699.27	16154.38
699.40	16252.68
699.54	16311.19
699.67	16020.97
699.80	15946.07
699.94	15983.52
700.07	15978.84
700.20	16231.62
700.34	15880.53
700.47	15932.03
700.60	15765.85
700.73	15728.40
700.87	15920.32
701.00	15295.40
701.13	15597.33
701.26	15243.91
701.40	15332.85
701.53	15403.07
701.66	15208.80
701.79	14965.39
701.93	14810.91
702.06	15068.37
702.19	14998.15
702.32	14649.41
702.46	14899.85
702.59	14855.38
702.72	14743.03
702.85	14628.35
702.99	14551.11
703.12	14263.22
703.25	14185.99
703.38	14246.84
703.51	14389.61
703.65	14331.10
703.78	13994.06
703.91	14022.15
704.04	13980.02
704.17	13671.07
704.31	13968.32
704.44	13600.85
704.57	13575.11
704.70	13596.17
704.83	13488.51
704.96	13455.74
705.10	13668.73
705.23	13504.89
>>>>>End Processed Spectral Data<<<<<
