SpectraSuite Data File
++++++++++++++++++++++++++++++++++++
Date: Fri Oct 25 11:33:25 EDT 2013
User: price-jones
Dark Spectrum Present: No
Reference Spectrum Present: No
Number of Sampled Component Spectra: 1
Spectrometers: USB2+H05261
Integration Time (usec): 100000 (USB2+H05261)
Spectra Averaged: 1 (USB2+H05261)
Boxcar Smoothing: 0 (USB2+H05261)
Correct for Electrical Dark: No (USB2+H05261)
Strobe/Lamp Enabled: No (USB2+H05261)
Correct for Detector Non-linearity: No (USB2+H05261)
Correct for Stray Light: No (USB2+H05261)
Number of Pixels in Processed Spectrum: 2048
>>>>>Begin Processed Spectral Data<<<<<
365.73	292.57
365.92	292.57
366.12	292.57
366.32	229.37
366.52	161.50
366.72	236.39
366.91	163.84
367.11	189.58
367.31	88.94
367.51	175.54
367.70	201.29
367.90	208.31
368.10	182.56
368.30	170.86
368.49	236.39
368.69	238.73
368.89	259.80
369.09	215.33
369.28	203.63
369.48	107.66
369.68	135.75
369.87	210.65
370.07	175.54
370.27	297.25
370.47	358.10
370.66	397.89
370.86	521.94
371.06	585.13
371.25	578.11
371.45	636.63
371.65	587.47
371.84	498.53
372.04	512.58
372.24	510.24
372.44	531.30
372.63	596.84
372.83	575.77
373.03	655.35
373.22	608.54
373.42	594.50
373.62	580.45
373.81	592.16
374.01	664.71
374.21	627.26
374.40	645.99
374.60	638.97
374.79	683.44
374.99	587.47
375.19	645.99
375.38	676.41
375.58	674.07
375.78	653.01
375.97	622.58
376.17	720.88
376.37	596.84
376.56	685.78
376.76	631.94
376.95	627.26
377.15	706.84
377.35	681.10
377.54	662.37
377.74	662.37
377.93	622.58
378.13	690.46
378.33	763.01
378.52	706.84
378.72	760.67
378.91	767.70
379.11	674.07
379.31	711.52
379.50	678.76
379.70	840.25
379.89	798.12
380.09	748.97
380.28	631.94
380.48	753.65
380.68	774.72
380.87	765.36
381.07	739.61
381.26	765.36
381.46	772.38
381.65	779.40
381.85	753.65
382.04	767.70
382.24	777.06
382.43	711.52
382.63	807.48
382.83	791.10
383.02	830.89
383.22	786.42
383.41	812.17
383.61	781.74
383.80	798.12
384.00	732.59
384.19	837.91
384.39	802.80
384.58	816.85
384.78	877.70
384.97	842.59
385.17	807.48
385.36	795.78
385.56	866.00
385.75	819.19
385.95	889.40
386.14	870.68
386.34	896.43
386.53	816.85
386.72	844.93
386.92	854.30
387.11	880.04
387.31	898.77
387.50	896.43
387.70	929.19
387.89	908.13
388.09	964.30
388.28	915.15
388.48	905.79
388.67	976.00
388.86	866.00
389.06	912.81
389.25	957.28
389.45	1013.45
389.64	985.37
389.84	954.94
390.03	947.92
390.22	905.79
390.42	968.98
390.61	968.98
390.81	898.77
391.00	1020.47
391.19	947.92
391.39	1041.54
391.58	1048.56
391.78	973.66
391.97	1083.67
392.16	1081.33
392.36	1050.90
392.55	990.05
392.75	1048.56
392.94	1088.35
393.13	1041.54
393.33	1055.58
393.52	1036.86
393.71	1062.60
393.91	1128.14
394.10	1146.86
394.29	1149.20
394.49	1104.73
394.68	1046.22
394.88	1177.29
395.07	1078.99
395.26	1242.82
395.46	1153.88
395.65	1186.65
395.84	1212.40
396.04	1135.16
396.23	1214.74
396.42	1167.93
396.62	1266.23
396.81	1198.35
397.00	1156.22
397.19	1252.19
397.39	1301.34
397.58	1280.27
397.77	1261.55
397.97	1170.27
398.16	1327.08
398.35	1348.15
398.55	1226.44
398.74	1306.02
398.93	1345.81
399.12	1336.45
399.32	1205.38
399.51	1404.32
399.70	1327.08
399.90	1320.06
400.09	1362.19
400.28	1301.34
400.47	1448.79
400.67	1376.24
400.86	1444.11
401.05	1406.66
401.24	1453.47
401.44	1474.54
401.63	1472.20
401.82	1441.77
402.01	1441.77
402.21	1526.03
402.40	1500.28
402.59	1509.65
402.78	1495.60
402.97	1565.82
403.17	1540.07
403.36	1579.86
403.55	1472.20
403.74	1631.35
403.93	1640.72
404.13	1694.55
404.32	1610.29
404.51	1598.59
404.70	1671.14
404.89	1682.85
405.09	1727.32
405.28	1624.33
405.47	1724.97
405.66	1788.17
405.85	1687.53
406.05	1619.65
406.24	1792.85
406.43	1713.27
406.62	1825.62
406.81	1827.96
407.00	1764.76
407.20	1715.61
407.39	1757.74
407.58	1792.85
407.77	1935.62
407.96	1916.90
408.15	1998.82
408.34	1926.26
408.54	1877.11
408.73	1909.88
408.92	1895.83
409.11	2043.29
409.30	1923.92
409.49	1912.22
409.68	2001.16
409.87	2033.93
410.07	2019.88
410.26	2059.67
410.45	2045.63
410.64	2108.82
410.83	2139.25
411.02	2153.29
411.21	2167.34
411.40	2150.95
411.59	2118.18
411.78	2172.02
411.98	2129.89
412.17	2415.43
412.36	2242.23
412.55	2331.17
412.74	2352.24
412.93	2223.51
413.12	2370.96
413.31	2502.03
413.50	2483.31
413.69	2389.69
413.88	2469.27
414.07	2497.35
414.26	2478.63
414.45	2530.12
414.64	2605.02
414.83	2640.12
415.02	2670.55
415.22	2562.89
415.41	2626.08
415.60	2719.70
415.79	2738.43
415.98	2708.00
416.17	2731.41
416.36	2743.11
416.55	2672.89
416.74	2768.85
416.93	2766.51
417.12	2789.92
417.31	2920.99
417.50	2906.95
417.69	2885.88
417.88	3035.67
418.07	2960.78
418.26	3023.97
418.45	3012.27
418.64	3075.46
418.83	3009.93
419.02	3145.68
419.21	3152.70
419.39	3131.64
419.58	3129.30
419.77	3108.23
419.96	3255.69
420.15	3185.47
420.34	3152.70
420.53	3155.04
420.72	3143.34
420.91	3353.99
421.10	3279.09
421.29	3382.07
421.48	3232.28
421.67	3431.23
421.86	3445.27
422.05	3323.56
422.24	3295.47
422.43	3267.39
422.61	3304.84
422.80	3265.05
422.99	3372.71
423.18	3349.31
423.37	3466.33
423.56	3445.27
423.75	3391.44
423.94	3255.69
424.13	3094.19
424.32	3178.45
424.50	3403.14
424.69	3449.95
424.88	3529.53
425.07	3496.76
425.26	3349.31
425.45	3407.82
425.64	3393.78
425.83	3361.01
426.01	3482.72
426.20	3466.33
426.39	3485.06
426.58	3543.57
426.77	3576.34
426.96	3592.72
427.15	3569.32
427.33	3534.21
427.52	3590.38
427.71	3763.58
427.90	3632.51
428.09	3520.17
428.28	3749.54
428.46	3637.19
428.65	3662.94
428.84	3843.16
429.03	3911.04
429.22	3728.47
429.40	3840.82
429.59	3744.86
429.78	3768.26
429.97	3723.79
430.16	3737.84
430.34	3880.61
430.53	3882.95
430.72	3974.23
430.91	3918.06
431.10	3812.73
431.28	3974.23
431.47	4002.32
431.66	4018.70
431.85	3904.01
432.03	4098.28
432.22	4086.58
432.41	4175.52
432.60	4023.38
432.79	4117.00
432.97	3964.87
433.16	4117.00
433.35	4109.98
433.54	4138.07
433.72	4198.92
433.91	4264.46
434.10	4308.93
434.28	4182.54
434.47	4152.11
434.66	4308.93
434.85	4264.46
435.03	4180.20
435.22	4278.50
435.41	4477.44
435.59	4538.30
435.78	4498.51
435.97	4444.68
436.16	4320.63
436.34	4311.27
436.53	4503.19
436.72	4643.62
436.90	4414.25
437.09	4447.02
437.28	4388.50
437.46	4660.01
437.65	4660.01
437.84	4784.06
438.02	4564.04
438.21	4645.96
438.40	4631.92
438.58	4819.16
438.77	4880.02
438.96	4737.24
439.14	4851.93
439.33	4835.55
439.52	4924.49
439.70	4819.16
439.89	4968.96
440.08	4945.55
440.26	5018.11
440.45	5069.60
440.63	5081.30
440.82	5270.89
441.01	5221.74
441.19	5394.93
441.38	5327.06
441.57	5408.98
441.75	5434.72
441.94	5479.19
442.12	5472.17
442.31	5411.32
442.50	5387.91
442.68	5301.31
442.87	5621.97
443.05	5444.09
443.24	5589.20
443.43	5589.20
443.61	5678.14
443.80	5856.02
443.98	5504.94
444.17	5518.98
444.35	5600.90
444.54	5497.92
444.73	5781.12
444.91	5776.44
445.10	5607.92
445.28	5612.60
445.47	5680.48
445.65	5561.11
445.84	5682.82
446.02	5750.70
446.21	5830.27
446.39	5844.32
446.58	5877.09
446.77	5785.80
446.95	5727.29
447.14	5837.30
447.32	5825.59
447.51	5776.44
447.69	5734.31
447.88	5788.14
448.06	5825.59
448.25	5844.32
448.43	5689.84
448.62	5849.00
448.80	5839.64
448.99	5856.02
449.17	5968.37
449.36	5963.68
449.54	6127.52
449.73	6169.65
449.91	6150.93
450.10	6057.31
450.28	6029.22
450.46	6260.93
450.65	6122.84
450.83	6197.74
451.02	6195.40
451.20	6232.85
451.39	6211.78
451.57	6190.72
451.76	6113.48
451.94	6513.71
452.13	6427.11
452.31	6326.47
452.49	6132.20
452.68	6162.63
452.86	6345.19
453.05	6565.20
453.23	6403.71
453.42	6466.90
453.60	6370.94
453.78	6436.47
453.97	6581.59
454.15	6579.25
454.34	6284.34
454.52	6604.99
454.70	6544.14
454.89	6562.86
455.07	6670.53
455.26	6668.19
455.44	6700.95
455.62	6642.44
455.81	6757.13
455.99	6787.55
456.17	6813.30
456.36	6773.51
456.54	6740.74
456.73	6991.18
456.91	7152.68
457.09	7005.22
457.28	7194.81
457.46	7007.56
457.64	7087.14
457.83	6993.52
458.01	7056.72
458.19	7358.64
458.38	7148.00
458.56	7295.45
458.74	7190.13
458.93	6995.86
459.11	7187.79
459.29	7213.53
459.48	7342.26
459.66	7229.91
459.84	7339.92
460.03	7433.54
460.21	7295.45
460.39	7297.79
460.57	7435.88
460.76	7520.14
460.94	7527.16
461.12	7445.24
461.31	7712.07
461.49	7447.58
461.67	7562.27
461.85	7850.16
462.04	7445.24
462.22	8152.09
462.40	7974.21
462.59	7742.49
462.77	7695.68
462.95	7777.60
463.13	7770.58
463.32	7798.66
463.50	8107.62
463.68	7808.03
463.86	7894.63
464.05	7803.35
464.23	7829.09
464.41	8042.08
464.59	7901.65
464.78	7964.84
464.96	8105.28
465.14	8002.29
465.32	8124.00
465.50	8133.36
465.69	8203.58
465.87	8070.17
466.05	8044.42
466.23	8138.04
466.41	8285.50
466.60	8332.31
466.78	8180.17
466.96	8409.54
467.14	8231.66
467.32	8327.63
467.51	8411.89
467.69	8245.71
467.87	8404.86
468.05	8606.15
468.23	8423.59
468.41	8425.93
468.60	8425.93
468.78	8559.34
468.96	8301.88
469.14	8491.46
469.32	8547.64
469.50	8372.10
469.69	8711.47
469.87	8758.28
470.05	8748.92
470.23	8887.01
470.41	8795.73
470.59	8870.63
470.77	8901.06
470.95	8861.27
471.14	8968.93
471.32	8580.40
471.50	9097.66
471.68	9011.06
471.86	9001.70
472.04	9212.35
472.22	9420.66
472.40	9057.87
472.58	9174.90
472.77	9327.03
472.95	9502.58
473.13	9731.95
473.31	9303.63
473.49	9341.08
473.67	9488.53
473.85	9687.48
474.03	9806.84
474.21	9678.12
474.39	9753.01
474.57	9795.14
474.75	10127.50
474.93	10171.97
475.12	9987.07
475.30	10162.61
475.48	10200.05
475.66	10286.65
475.84	10314.74
476.02	10377.94
476.20	10319.42
476.38	10408.36
476.56	10719.65
476.74	10654.12
476.92	10658.80
477.10	10633.05
477.28	10869.45
477.46	10527.73
477.64	10946.69
477.82	10857.75
478.00	11477.99
478.18	11152.65
478.36	11220.53
478.54	11414.79
478.72	11379.68
478.90	11276.70
479.08	11679.27
479.26	11681.61
479.44	11932.05
479.62	11901.62
479.80	11908.65
479.98	12049.08
480.16	12210.57
480.34	12170.79
480.52	12425.90
480.70	12376.75
480.88	12327.60
481.06	12346.33
481.24	12355.69
481.41	12664.64
481.59	12886.99
481.77	12819.11
481.95	12886.99
482.13	13060.19
482.31	13104.66
482.49	13509.57
482.67	13142.11
482.85	13537.66
483.03	13685.11
483.21	13584.47
483.39	13788.10
483.57	13743.63
483.74	13975.34
483.92	14148.54
484.10	13928.53
484.28	14396.64
484.46	14595.58
484.64	14902.19
484.82	14387.27
485.00	14733.67
485.18	15389.02
485.35	15131.56
485.53	15192.42
485.71	15295.40
485.89	15712.02
486.07	15356.25
486.25	15667.55
486.43	15557.54
486.61	15892.24
486.78	15756.49
486.96	15988.20
487.14	16016.29
487.32	16503.12
487.50	16276.09
487.68	16479.71
487.85	16685.68
488.03	16608.44
488.21	16828.45
488.39	17156.13
488.57	17240.39
488.75	17357.41
488.92	17493.16
489.10	17495.50
489.28	17774.03
489.46	17989.36
489.64	17902.76
489.81	18324.05
489.99	18452.78
490.17	18342.78
490.35	18471.51
490.53	18441.08
490.70	18981.74
490.88	18614.28
491.06	18668.11
491.24	19068.34
491.41	18972.38
491.59	19267.29
491.77	19407.72
491.95	19672.20
492.13	19873.49
492.30	19709.65
492.48	19910.94
492.66	20032.65
492.84	20095.84
493.01	20180.10
493.19	20194.14
493.37	20393.09
493.54	20362.66
493.72	20655.23
493.90	21006.31
494.08	21048.44
494.25	21125.68
494.43	21074.18
494.61	21343.35
494.79	21390.16
494.96	21216.96
495.14	21509.52
495.32	21561.02
495.49	22015.08
495.67	21881.67
495.85	22267.86
496.02	22520.63
496.20	22214.02
496.38	22431.69
496.55	22682.13
496.73	23388.97
496.91	22707.88
497.09	23035.55
497.26	23054.28
497.44	23206.41
497.62	23143.22
497.79	23810.27
497.97	23421.74
498.14	23999.85
498.32	24009.22
498.50	23819.63
498.67	24013.90
498.85	24212.84
499.03	24257.31
499.20	24217.52
499.38	24446.90
499.56	24545.20
499.73	24521.79
499.91	24589.67
500.08	24687.97
500.26	24638.82
500.44	24971.18
500.61	25081.18
500.79	24826.06
500.97	24882.24
501.14	25509.50
501.32	25671.00
501.49	25434.60
501.67	25830.15
501.84	25902.71
502.02	25970.58
502.20	25886.32
502.37	25916.75
502.55	25951.86
502.72	26003.35
502.90	25942.50
503.07	26277.19
503.25	26298.26
503.43	26328.69
503.60	26497.20
503.78	26370.82
503.95	26373.16
504.13	26331.03
504.30	27154.90
504.48	26588.49
504.65	27028.51
504.83	27463.85
505.01	27344.48
505.18	27454.48
505.36	27484.91
505.53	27508.32
505.71	27393.63
505.88	27850.03
506.06	27318.73
506.23	27992.81
506.41	27496.61
506.58	27946.00
506.76	28091.11
506.93	28325.16
507.11	28332.18
507.28	28371.97
507.46	28161.33
507.63	28479.64
507.81	28416.44
507.98	28254.95
508.16	28610.71
508.33	28849.44
508.50	28580.28
508.68	28882.21
508.85	29317.55
509.03	29062.43
509.20	29287.12
509.38	29780.98
509.55	29177.12
509.73	29582.03
509.90	29635.86
510.08	29820.77
510.25	29834.81
510.42	29851.19
510.60	29848.85
510.77	29827.79
510.95	30387.18
511.12	30213.98
511.30	29879.28
511.47	30525.27
511.64	30239.72
511.82	30656.34
511.99	30581.44
512.17	30525.27
512.34	30642.29
512.51	31075.29
512.69	30808.47
512.86	31070.61
513.04	30866.98
513.21	31124.44
513.38	31302.32
513.56	31611.28
513.73	31180.62
513.90	31840.65
514.08	31314.03
514.25	31536.38
514.43	31756.39
514.60	32327.48
514.77	31814.90
514.95	31920.23
515.12	31889.80
515.29	31765.75
515.47	32077.04
515.64	32439.82
515.81	31819.58
515.99	31945.97
516.16	32570.90
516.33	32456.21
516.51	32645.79
516.68	32334.50
516.85	32706.65
517.03	32814.31
517.20	32954.74
517.37	32706.65
517.54	32954.74
517.72	32790.91
517.89	33277.74
518.06	33235.61
518.24	33226.24
518.41	33137.30
518.58	33427.53
518.75	33221.56
518.93	33333.91
519.10	33310.50
519.27	33544.56
519.45	33963.51
519.62	33961.17
519.79	33497.75
519.96	33659.24
520.14	34110.97
520.31	34117.99
520.48	34192.89
520.65	34242.04
520.83	34394.17
521.00	34609.50
521.17	34213.95
521.34	34157.78
521.52	34827.17
521.69	34691.42
521.86	35009.73
522.03	35321.02
522.20	35199.32
522.38	35442.73
522.55	35260.17
522.72	35257.83
522.89	34817.81
523.07	35597.21
523.24	35468.48
523.41	35587.85
523.58	35620.61
523.75	35775.09
523.92	35590.19
524.10	35882.75
524.27	35725.94
524.44	35807.86
524.61	36011.48
524.78	36109.78
524.96	35676.79
525.13	36601.30
525.30	36280.64
525.47	36804.92
525.64	36147.23
525.81	36378.95
525.98	36746.41
526.16	36292.35
526.33	36329.80
526.50	36715.98
526.67	36772.16
526.84	36641.09
527.01	36680.88
527.18	37083.45
527.36	37170.05
527.53	37120.90
527.70	37207.50
527.87	37273.03
528.04	37275.37
528.21	37804.33
528.38	37546.87
528.55	37518.79
528.72	37216.86
528.89	37284.73
529.07	37256.65
529.24	37158.34
529.41	38050.09
529.58	37621.77
529.75	37516.45
529.92	37912.00
530.09	37715.39
530.26	37778.59
530.43	38220.95
530.60	37406.44
530.77	37596.03
530.94	38057.11
531.11	38473.73
531.28	38132.01
531.46	38206.90
531.63	38321.59
531.80	38031.36
531.97	38469.04
532.14	38300.53
532.31	38635.22
532.48	38642.24
532.65	38993.32
532.82	38700.76
532.99	38869.28
533.16	38761.61
533.33	39030.77
533.50	39323.34
533.67	39014.39
533.84	38572.03
534.01	39033.11
534.18	39218.02
534.35	39524.63
534.52	39035.45
534.69	39875.71
534.86	39494.20
535.03	39175.89
535.20	39714.21
535.37	39988.05
535.54	39854.64
535.71	39557.39
535.88	39793.79
536.05	40004.44
536.22	39896.77
536.38	40154.23
536.55	39856.98
536.72	39906.13
536.89	39723.57
537.06	39847.62
537.23	40329.77
537.40	40243.17
537.57	39903.79
537.74	40189.34
537.91	39966.99
538.08	40304.02
538.25	40245.51
538.42	40163.59
538.59	40713.62
538.75	40374.24
538.92	40727.66
539.09	40610.64
539.26	40790.86
539.43	40563.82
539.60	40872.78
539.77	40828.30
539.94	41038.95
540.11	40861.07
540.28	40879.80
540.44	40893.84
540.61	41088.10
540.78	41022.57
540.95	41223.86
541.12	40779.15
541.29	40865.75
541.46	41532.81
541.62	41322.16
541.79	41188.75
541.96	41322.16
542.13	41317.48
542.30	41134.92
542.47	41886.23
542.63	41387.69
542.80	41521.10
542.97	41914.31
543.14	42220.92
543.31	42101.56
543.48	41881.55
543.64	42054.75
543.81	42265.39
543.98	42281.78
544.15	42139.00
544.32	42464.34
544.48	42600.09
544.65	42576.69
544.82	42660.94
544.99	42431.57
545.16	42520.51
545.32	42281.78
545.49	42323.91
545.66	43000.32
545.83	42845.85
546.00	43037.77
546.16	42763.93
546.33	42698.39
546.50	42572.00
546.67	43117.35
546.83	42686.69
547.00	42953.51
547.17	43089.26
547.34	43098.62
547.50	43012.02
547.67	43313.95
547.84	43356.08
548.00	43426.30
548.17	43299.91
548.34	43065.86
548.51	44067.61
548.67	43311.61
548.84	43655.67
549.01	43278.85
549.18	43480.13
549.34	44011.43
549.51	43758.66
549.68	43819.51
549.84	43697.80
550.01	44229.10
550.18	43721.21
550.34	43990.37
550.51	44137.82
550.68	44098.03
550.84	43615.88
551.01	44161.23
551.18	43901.43
551.34	43821.85
551.51	44053.56
551.68	43791.42
551.84	44100.37
552.01	43793.76
552.18	44128.46
552.34	44065.27
552.51	44364.85
552.68	44208.04
552.84	43922.49
553.01	44729.98
553.18	44311.02
553.34	44357.83
553.51	44561.46
553.67	44596.57
553.84	44629.34
554.01	44722.96
554.17	44615.29
554.34	44334.43
554.51	44481.88
554.67	45076.38
554.84	44996.80
555.00	44797.85
555.17	44502.95
555.33	45120.85
555.50	44531.03
555.67	45064.67
555.83	44863.39
556.00	45003.82
556.16	45579.59
556.33	45329.16
556.50	45041.27
556.66	45310.43
556.83	44814.24
556.99	45446.18
557.16	45312.77
557.32	45434.48
557.49	45542.14
557.65	44807.22
557.82	45565.55
557.98	45289.37
558.15	45401.71
558.32	45380.65
558.48	45177.02
558.65	45317.45
558.81	45401.71
558.98	45235.53
559.14	45574.91
559.31	45888.54
559.47	45668.53
559.64	45336.18
559.80	45776.20
559.97	45553.85
560.13	45343.20
560.30	45750.45
560.46	45844.07
560.63	46033.66
560.79	45612.36
560.96	46237.28
561.12	45881.52
561.29	45823.01
561.45	46330.90
561.61	45638.11
561.78	45783.22
561.94	45916.63
562.11	46005.57
562.27	46024.29
562.44	45799.60
562.60	46274.73
562.77	45923.65
562.93	46307.50
563.10	46555.60
563.26	46155.36
563.42	46298.14
563.59	46096.85
563.75	45970.46
563.92	46370.69
564.08	46213.88
564.24	46368.35
564.41	46178.77
564.57	46232.60
564.74	46571.98
564.90	46036.00
565.07	46569.64
565.23	46396.44
565.39	46305.16
565.56	46478.36
565.72	46202.18
565.88	46876.25
566.05	46288.77
566.21	46183.45
566.38	46412.82
566.54	46452.61
566.70	46218.56
566.87	46267.71
567.03	46096.85
567.19	47171.16
567.36	46548.57
567.52	46438.57
567.68	46787.31
567.85	47114.98
568.01	46904.34
568.17	46712.41
568.34	47044.77
568.50	46770.93
568.66	46436.23
568.83	46885.61
568.99	46483.04
569.15	47302.23
569.32	46590.70
569.48	46892.63
569.64	47070.51
569.81	46969.87
569.97	46777.95
570.13	47129.03
570.30	46513.47
570.46	47063.49
570.62	46979.23
570.78	46838.80
570.95	47295.21
571.11	47164.14
571.27	46344.95
571.43	47028.38
571.60	47012.00
571.76	46892.63
571.92	46916.04
572.09	46789.65
572.25	47140.73
572.41	46880.93
572.57	47028.38
572.74	47737.57
572.90	47161.79
573.06	47260.10
573.22	47395.85
573.38	47416.91
573.55	47215.63
573.71	47533.94
573.87	46878.59
574.03	47407.55
574.20	47501.17
574.36	47288.18
574.52	47327.97
574.68	47028.38
574.84	47288.18
575.01	47168.82
575.17	47002.64
575.33	47285.84
575.49	47129.03
575.65	47260.10
575.82	47391.17
575.98	46831.78
576.14	47185.20
576.30	47461.38
576.46	47351.38
576.62	47072.85
576.79	47239.03
576.95	47049.45
577.11	47061.15
577.27	47124.35
577.43	47161.79
577.59	47299.89
577.75	47522.24
577.92	46916.04
578.08	47543.30
578.24	47395.85
578.40	47337.33
578.56	47295.21
578.72	47196.90
578.88	47519.90
579.04	47248.39
579.21	47236.69
579.37	47253.08
579.53	47494.15
579.69	47665.01
579.85	47075.19
580.01	47547.98
580.17	47419.25
580.33	47594.79
580.49	47000.30
580.65	47519.90
580.82	47309.25
580.98	47166.48
581.14	47009.66
581.30	47620.54
581.46	47054.13
581.62	47337.33
581.78	47309.25
581.94	47662.67
582.10	47150.09
582.26	48179.93
582.42	47543.30
582.58	47538.62
582.74	47669.69
582.90	47346.70
583.06	47831.19
583.22	46866.89
583.38	47299.89
583.54	47583.09
583.70	47885.02
583.86	47398.19
584.02	47515.22
584.18	47737.57
584.34	47643.94
584.50	47688.42
584.66	47192.22
584.82	47887.36
584.98	47915.45
585.14	47819.49
585.30	47332.65
585.46	47662.67
585.62	47309.25
585.78	47831.19
585.94	47112.64
586.10	47798.42
586.26	47580.75
586.42	47681.39
586.58	47931.83
586.74	47711.82
586.90	47381.80
587.06	47646.29
587.22	47756.29
587.38	47594.79
587.54	47503.51
587.70	47709.48
587.86	47704.80
588.02	47583.09
588.18	47590.11
588.34	47564.37
588.49	47569.05
588.65	47463.72
588.81	47688.42
588.97	47913.11
589.13	47573.73
589.29	47866.30
589.45	47824.17
589.61	47971.62
589.77	47924.81
589.93	47758.63
590.08	48446.75
590.24	48067.58
590.40	48147.16
590.56	48074.60
590.72	48481.86
590.88	47814.80
591.04	47908.43
591.20	48196.31
591.35	48210.35
591.51	48589.52
591.67	48451.43
591.83	48846.98
591.99	47948.21
592.15	47856.93
592.31	47831.19
592.46	48325.04
592.62	48147.16
592.78	48170.57
592.94	48444.41
593.10	48357.81
593.26	48311.00
593.41	48329.72
593.57	48402.28
593.73	48718.25
593.89	48474.84
594.05	48605.91
594.20	48505.26
594.36	48704.21
594.52	48458.45
594.68	48334.40
594.84	48318.02
594.99	48538.03
595.15	48329.72
595.31	48521.65
595.47	48811.87
595.62	48313.34
595.78	48086.31
595.94	48680.80
596.10	48184.61
596.25	48559.09
596.41	48467.81
596.57	48261.85
596.73	48582.50
596.88	48502.92
597.04	48460.79
597.20	48538.03
597.36	48591.86
597.51	48406.96
597.67	48306.32
597.83	48079.28
597.99	48439.73
598.14	48287.59
598.30	48477.18
598.46	48488.88
598.61	48570.80
598.77	48025.45
598.93	48582.50
599.09	48404.62
599.24	48814.21
599.40	48594.20
599.56	48563.78
599.71	48765.06
599.87	49132.53
600.03	48587.18
600.18	48495.90
600.34	48624.63
600.50	48348.45
600.65	48254.82
600.81	48421.00
600.97	48545.05
601.12	48516.96
601.28	48718.25
601.44	48711.23
601.59	48748.68
601.75	48549.73
601.91	48926.56
602.06	48383.55
602.22	48516.96
602.37	48067.58
602.53	48570.80
602.69	48582.50
602.84	48222.06
603.00	48418.66
603.16	48399.94
603.31	48329.72
603.47	48788.47
603.62	48442.07
603.78	48736.98
603.94	48676.12
604.09	48830.60
604.25	48804.85
604.40	48367.17
604.56	48219.72
604.71	48821.23
604.87	48205.67
605.03	48196.31
605.18	48474.84
605.34	48641.01
605.49	48184.61
605.65	48758.04
605.80	48767.40
605.96	48348.45
606.12	48208.01
606.27	48570.80
606.43	48315.68
606.58	48788.47
606.74	48505.26
606.89	48601.22
607.05	48680.80
607.20	48463.13
607.36	48428.02
607.51	48240.78
607.67	48488.88
607.82	48102.69
607.98	48526.33
608.13	48215.04
608.29	48025.45
608.44	48231.42
608.60	48500.58
608.75	48552.07
608.91	48535.69
609.06	47999.71
609.22	48472.49
609.37	48102.69
609.53	48811.87
609.68	48458.45
609.84	48308.66
609.99	48547.39
610.15	48069.92
610.30	48816.55
610.46	47952.90
610.61	48633.99
610.76	48219.72
610.92	47901.40
611.07	47913.11
611.23	48032.47
611.38	48404.62
611.54	48163.54
611.69	48507.60
611.84	48247.80
612.00	48102.69
612.15	48013.75
612.31	48257.17
612.46	47821.83
612.62	47929.49
612.77	47353.72
612.92	48025.45
613.08	47821.83
613.23	47938.85
613.39	47760.97
613.54	47791.40
613.69	47798.42
613.85	47870.98
614.00	47978.64
614.15	48072.26
614.31	47660.33
614.46	48100.35
614.62	47585.43
614.77	47550.32
614.92	48062.90
615.08	47718.84
615.23	47892.04
615.38	48154.18
615.54	47449.68
615.69	47456.70
615.84	47545.64
616.00	47714.16
616.15	47852.25
616.30	47992.68
616.46	47903.74
616.61	48002.05
616.76	48168.22
616.92	47613.52
617.07	47758.63
617.22	47613.52
617.37	47122.01
617.53	47812.46
617.68	47477.77
617.83	47643.94
617.99	48088.65
618.14	47938.85
618.29	47449.68
618.45	47407.55
618.60	47056.47
618.75	46731.14
618.90	47498.83
619.06	47374.78
619.21	47344.36
619.36	47735.23
619.51	47248.39
619.67	46967.53
619.82	47461.38
619.97	47428.62
620.12	47339.68
620.28	47180.52
620.43	47276.48
620.58	47161.79
620.73	46899.65
620.89	47419.25
621.04	47400.53
621.19	47075.19
621.34	46930.08
621.49	47290.52
621.65	46951.15
621.80	47196.90
621.95	46967.53
622.10	46864.55
622.25	47058.81
622.41	46979.23
622.56	46883.27
622.71	46958.17
622.86	46829.44
623.01	46883.27
623.16	47098.60
623.32	46567.30
623.47	47023.70
623.62	46852.84
623.77	47044.77
623.92	46848.16
624.07	46909.02
624.23	46775.61
624.38	47295.21
624.53	46866.89
624.68	46529.85
624.83	46593.04
624.98	46719.43
625.13	46398.78
625.29	46387.08
625.44	46777.95
625.59	47068.17
625.74	46693.69
625.89	46066.42
626.04	46370.69
626.19	46604.75
626.34	46176.43
626.49	46216.22
626.65	46089.83
626.80	46827.10
626.95	45724.71
627.10	46181.11
627.25	46447.93
627.40	46225.58
627.55	46167.07
627.70	46295.80
627.85	46323.88
628.00	46588.36
628.15	46408.14
628.30	45624.06
628.45	45382.99
628.60	45209.79
628.76	45914.29
628.91	45851.09
629.06	45607.68
629.21	45769.18
629.36	46036.00
629.51	45591.30
629.66	46073.45
629.81	45928.33
629.96	45738.75
630.11	45825.35
630.26	45717.68
630.41	45848.75
630.56	45375.97
630.71	45284.68
630.86	45581.93
631.01	45165.32
631.16	45492.99
631.31	45588.95
631.46	45804.28
631.61	45890.88
631.76	45663.85
631.91	45427.46
632.06	45893.22
632.21	45413.41
632.36	46000.89
632.51	44992.12
632.66	45535.12
632.81	45432.14
632.96	45586.61
633.10	45581.93
633.25	45153.62
633.40	45418.10
633.55	45544.48
633.70	45439.16
633.85	45230.85
634.00	44821.26
634.15	45165.32
634.30	45111.49
634.45	45174.68
634.60	45067.02
634.75	44662.10
634.90	44964.03
635.05	44875.09
635.19	45069.36
635.34	44687.85
635.49	45177.02
635.64	45069.36
635.79	45095.10
635.94	44720.62
636.09	45010.84
636.24	44912.54
636.39	44765.09
636.53	44678.49
636.68	44437.41
636.83	44240.81
636.98	44439.75
637.13	44357.83
637.28	44381.24
637.43	44449.11
637.57	44641.04
637.72	44531.03
637.87	44247.83
638.02	44919.56
638.17	44194.00
638.32	44439.75
638.46	44109.74
638.61	44186.97
638.76	44170.59
638.91	44495.92
639.06	44006.75
639.20	43927.17
639.35	44217.40
639.50	43892.07
639.65	44341.45
639.80	44203.36
639.94	44266.55
640.09	44486.56
640.24	44311.02
640.39	44210.38
640.54	43824.19
640.68	43817.17
640.83	44430.39
640.98	43945.90
641.13	43688.44
641.27	44006.75
641.42	43976.33
641.57	44126.12
641.72	44208.04
641.86	43643.97
642.01	43728.23
642.16	43489.49
642.31	43688.44
642.45	44278.25
642.60	43515.24
642.75	43952.92
642.90	43838.23
643.04	43548.01
643.19	43185.22
643.34	43512.90
643.48	42930.11
643.63	43295.23
643.78	43529.28
643.93	43707.16
644.07	43674.40
644.22	43800.79
644.37	43260.12
644.51	43658.01
644.66	43845.26
644.81	43491.83
644.95	43342.04
645.10	43072.88
645.25	42920.74
645.39	43271.82
645.54	42916.06
645.69	42939.47
645.83	42773.29
645.98	42897.34
646.13	43271.82
646.27	42497.11
646.42	42979.26
646.57	42848.19
646.71	42951.17
646.86	43391.19
647.00	43267.14
647.15	42958.19
647.30	43182.88
647.44	42480.72
647.59	43077.56
647.74	42717.12
647.88	43103.31
648.03	43620.56
648.17	43304.59
648.32	42822.44
648.47	43229.69
648.61	42834.14
648.76	42618.81
648.90	42344.97
649.05	42895.00
649.20	42859.89
649.34	42766.27
649.49	42923.08
649.63	42787.33
649.78	42363.70
649.92	42838.83
650.07	43037.77
650.21	42960.53
650.36	42820.10
650.51	42419.87
650.65	42923.08
650.80	42478.38
650.94	42770.95
651.09	42593.07
651.23	42267.73
651.38	41689.62
651.52	41783.24
651.67	42405.83
651.81	42164.75
651.96	42096.88
652.10	42129.64
652.25	41986.87
652.39	42195.18
652.54	41909.63
652.68	42019.64
652.83	41897.93
652.97	42014.96
653.12	41757.50
653.26	41680.26
653.41	41839.42
653.55	42181.13
653.70	42073.47
653.84	41766.86
653.99	42557.96
654.13	42120.28
654.27	41439.18
654.42	41935.38
654.56	41635.79
654.71	42113.26
654.85	41837.08
655.00	41923.68
655.14	41832.39
655.29	42064.11
655.43	41808.99
655.57	41949.42
655.72	41387.69
655.86	41617.07
656.01	41462.59
656.15	41551.53
656.30	41333.86
656.44	41397.06
656.58	41411.10
656.73	41422.80
656.87	41170.02
657.01	40945.33
657.16	41560.89
657.30	41418.12
657.45	41368.97
657.59	40914.90
657.73	41118.53
657.88	41102.15
658.02	41486.00
658.16	41242.58
658.31	41268.33
658.45	40928.95
658.60	40882.14
658.74	40708.94
658.88	40992.14
659.03	40903.20
659.17	40732.34
659.31	40233.81
659.46	40751.07
659.60	40788.52
659.74	40519.35
659.89	39964.65
660.03	40163.59
660.17	40147.21
660.32	39852.30
660.46	39885.07
660.60	39835.92
660.74	40149.55
660.89	40236.15
661.03	39995.07
661.17	39629.95
661.32	39803.15
661.46	39456.75
661.60	40133.17
661.74	40369.56
661.89	39817.19
662.03	39791.45
662.17	39693.15
662.31	39889.75
662.46	39604.20
662.60	39840.60
662.74	39639.31
662.88	39489.52
663.03	39000.35
663.17	39381.85
663.31	38998.01
663.45	38864.60
663.60	39482.50
663.74	39339.72
663.88	39234.40
664.02	39030.77
664.17	39433.35
664.31	39171.21
664.45	38916.09
664.59	38782.68
664.73	38677.35
664.88	39220.36
665.02	38003.28
665.16	38780.34
665.30	38459.68
665.44	38679.69
665.59	38061.79
665.73	38139.03
665.87	38010.30
666.01	38401.17
666.15	38440.96
666.29	38422.23
666.44	38459.68
666.58	38256.06
666.72	38265.42
666.86	37888.59
667.00	37935.40
667.14	38202.22
667.28	37919.02
667.43	37703.69
667.57	38213.93
667.71	37968.17
667.85	38127.33
667.99	37914.34
668.13	37256.65
668.27	37420.48
668.41	37296.44
668.56	37296.44
668.70	37219.20
668.84	36676.19
668.98	36879.82
669.12	37008.55
669.26	37165.37
669.40	37092.81
669.54	37060.04
669.68	36989.83
669.82	36458.52
669.96	36706.62
670.10	36194.04
670.25	36865.78
670.39	35791.47
670.53	36402.35
670.67	36437.46
670.81	37139.62
670.95	36062.97
671.09	36065.31
671.23	36332.14
671.37	36034.89
671.51	36318.09
671.65	35611.25
671.79	35721.26
671.93	35941.27
672.07	35793.81
672.21	35592.53
672.35	35419.33
672.49	35608.91
672.63	35363.15
672.77	35016.75
672.91	35318.68
673.05	34824.83
673.19	35131.44
673.33	35026.12
673.47	34768.66
673.61	35222.72
673.75	34443.32
673.89	34740.57
674.03	34843.56
674.17	34450.35
674.31	34398.85
674.45	34499.50
674.59	34581.42
674.73	34417.58
674.87	34089.90
675.01	34005.64
675.15	33809.04
675.29	33642.86
675.43	33750.52
675.56	33734.14
675.70	33748.18
675.84	33539.88
675.98	32397.70
676.12	33706.05
676.26	33574.98
676.40	32943.04
676.54	33104.54
676.68	33015.60
676.82	32776.86
676.96	33055.39
677.10	32589.62
677.23	32486.64
677.37	32596.64
677.51	32367.27
677.65	32446.85
677.79	32053.64
677.93	31833.63
678.07	32011.51
678.21	32215.13
678.34	31943.63
678.48	31391.26
678.62	31517.65
678.76	31683.83
678.90	31515.31
679.04	31449.78
679.18	31594.89
679.31	31105.72
679.45	31047.21
679.59	31260.20
679.73	30916.14
679.87	30742.94
680.00	30473.78
680.14	31182.96
680.28	30684.42
680.42	30235.04
680.56	30110.99
680.70	30260.79
680.83	29991.62
680.97	30153.12
681.11	30092.27
681.25	30024.39
681.39	29624.16
681.52	29607.78
681.66	29624.16
681.80	28711.35
681.94	29233.29
682.07	29048.39
682.21	29343.30
682.35	29099.88
682.49	28816.68
682.62	29139.67
682.76	28936.04
682.90	29139.67
683.04	28898.59
683.17	28563.90
683.31	28201.11
683.45	28161.33
683.59	28079.41
683.72	28119.20
683.86	28158.99
684.00	27873.44
684.13	27880.46
684.27	27573.85
684.41	27559.81
684.55	27765.78
684.68	27529.38
684.82	26881.05
684.96	27365.54
685.09	27143.19
685.23	27285.97
685.37	27133.83
685.50	27110.43
685.64	27072.98
685.78	26698.49
685.91	26696.15
686.05	26419.97
686.19	25900.37
686.32	26052.50
686.46	26050.16
686.60	25773.98
686.73	25958.88
686.87	25874.62
687.01	25937.82
687.14	25748.23
687.28	25827.81
687.42	25745.89
687.55	25205.23
687.69	25617.16
687.82	25125.65
687.96	24858.83
688.10	25097.56
688.23	25111.61
688.37	24922.02
688.50	25083.52
688.64	24879.89
688.78	24861.17
688.91	24732.44
689.05	23962.40
689.18	23929.64
689.32	24034.96
689.46	23735.37
689.59	23728.35
689.73	24091.13
689.86	23922.62
690.00	24074.75
690.13	23599.62
690.27	23225.14
690.41	23616.01
690.54	23435.78
690.68	23407.70
690.81	22937.25
690.95	23185.35
691.08	22801.50
691.22	22747.67
691.35	22611.92
691.49	22941.93
691.62	23054.28
691.76	22256.15
691.89	22331.05
692.03	22118.06
692.16	21984.65
692.30	21816.13
692.43	22167.21
692.57	21933.16
692.70	21788.05
692.84	21451.01
692.97	21497.82
693.11	21678.04
693.24	21219.30
693.38	21467.39
693.51	20915.03
693.65	21106.95
693.78	20800.34
693.92	20931.41
694.05	21053.12
694.19	21099.93
694.32	21151.42
694.45	20884.60
694.59	20517.14
694.72	20650.55
694.86	20247.97
694.99	20175.42
695.13	19990.52
695.26	19946.05
695.39	19936.68
695.53	20070.09
695.66	19896.89
695.80	19508.37
695.93	19697.95
696.07	19213.46
696.20	19197.07
696.33	19061.32
696.47	19290.70
696.60	19143.24
696.73	19257.93
696.87	19138.56
697.00	19115.16
697.14	18757.05
697.27	18897.49
697.40	18679.82
697.54	18394.27
697.67	18450.44
697.80	18801.52
697.94	18420.02
698.07	18136.81
698.21	18286.61
698.34	18132.13
698.47	18022.12
698.61	17649.98
698.74	17804.46
698.87	18223.41
699.01	17596.15
699.14	17547.00
699.27	17823.18
699.40	17476.78
699.54	17605.51
699.67	17039.10
699.80	17177.19
699.94	16926.75
700.07	17158.47
700.20	17151.45
700.34	16795.68
700.47	16664.61
700.60	16823.77
700.73	16795.68
700.87	16634.19
701.00	16379.07
701.13	16393.11
701.26	16145.02
701.40	16269.06
701.53	16152.04
701.66	16182.46
701.79	16348.64
701.93	15887.56
702.06	15515.41
702.19	15772.87
702.32	15693.29
702.46	15992.88
702.59	15749.46
702.72	15658.18
702.85	15419.45
702.99	15454.56
703.12	15573.92
703.25	15108.16
703.38	15023.90
703.51	15112.84
703.65	14927.94
703.78	14707.93
703.91	14803.89
704.04	14808.57
704.17	14640.05
704.31	14567.49
704.44	14558.13
704.57	14485.58
704.70	14757.08
704.83	14375.57
704.96	14185.99
705.10	14043.21
705.23	13965.98
>>>>>End Processed Spectral Data<<<<<
