SpectraSuite Data File
++++++++++++++++++++++++++++++++++++
Date: Fri Oct 25 11:33:55 EDT 2013
User: price-jones
Dark Spectrum Present: No
Reference Spectrum Present: No
Number of Sampled Component Spectra: 1
Spectrometers: USB2+H05261
Integration Time (usec): 100000 (USB2+H05261)
Spectra Averaged: 1 (USB2+H05261)
Boxcar Smoothing: 0 (USB2+H05261)
Correct for Electrical Dark: No (USB2+H05261)
Strobe/Lamp Enabled: No (USB2+H05261)
Correct for Detector Non-linearity: No (USB2+H05261)
Correct for Stray Light: No (USB2+H05261)
Number of Pixels in Processed Spectrum: 2048
>>>>>Begin Processed Spectral Data<<<<<
365.73	238.73
365.92	238.73
366.12	238.73
366.32	191.92
366.52	159.16
366.72	173.20
366.91	236.39
367.11	201.29
367.31	180.22
367.51	147.45
367.70	135.75
367.90	191.92
368.10	173.20
368.30	117.03
368.49	156.82
368.69	205.97
368.89	210.65
369.09	177.88
369.28	236.39
369.48	210.65
369.68	217.67
369.87	234.05
370.07	224.69
370.27	306.61
370.47	325.33
370.66	440.02
370.86	482.15
371.06	552.37
371.25	557.05
371.45	554.71
371.65	510.24
371.84	510.24
372.04	517.26
372.24	582.79
372.44	561.73
372.63	573.43
372.83	699.82
373.03	573.43
373.22	510.24
373.42	629.60
373.62	624.92
373.81	660.03
374.01	624.92
374.21	648.33
374.40	573.43
374.60	734.93
374.79	669.39
374.99	671.73
375.19	678.76
375.38	678.76
375.58	702.16
375.78	645.99
375.97	702.16
376.17	734.93
376.37	587.47
376.56	596.84
376.76	657.69
376.95	629.60
377.15	629.60
377.35	664.71
377.54	683.44
377.74	765.36
377.93	725.57
378.13	688.12
378.33	727.91
378.52	697.48
378.72	716.20
378.91	730.25
379.11	763.01
379.31	671.73
379.50	779.40
379.70	723.23
379.89	723.23
380.09	723.23
380.28	697.48
380.48	709.18
380.68	676.41
380.87	690.46
381.07	667.05
381.26	821.53
381.46	746.63
381.65	777.06
381.85	711.52
382.04	807.48
382.24	744.29
382.43	828.55
382.63	748.97
382.83	816.85
383.02	781.74
383.22	739.61
383.41	774.72
383.61	795.78
383.80	868.34
384.00	800.46
384.19	793.44
384.39	795.78
384.58	819.19
384.78	779.40
384.97	781.74
385.17	849.61
385.36	833.23
385.56	866.00
385.75	802.80
385.95	882.38
386.14	866.00
386.34	833.23
386.53	849.61
386.72	812.17
386.92	947.92
387.11	917.49
387.31	915.15
387.50	840.25
387.70	880.04
387.89	905.79
388.09	919.83
388.28	985.37
388.48	856.64
388.67	891.74
388.86	910.47
389.06	950.26
389.25	992.39
389.45	976.00
389.64	887.06
389.84	929.19
390.03	971.32
390.22	898.77
390.42	945.58
390.61	961.96
390.81	964.30
391.00	985.37
391.19	1064.94
391.39	983.02
391.58	1013.45
391.78	992.39
391.97	966.64
392.16	1027.50
392.36	1090.69
392.55	1025.15
392.75	1060.26
392.94	1027.50
393.13	1100.05
393.33	1064.94
393.52	1004.09
393.71	1086.01
393.91	1046.22
394.10	1055.58
394.29	1128.14
394.49	1078.99
394.68	1132.82
394.88	1132.82
395.07	1069.62
395.26	1109.41
395.46	1135.16
395.65	1102.39
395.84	1170.27
396.04	1228.78
396.23	1266.23
396.42	1196.01
396.62	1254.53
396.81	1191.33
397.00	1179.63
397.19	1261.55
397.39	1263.89
397.58	1273.25
397.77	1188.99
397.97	1256.87
398.16	1268.57
398.35	1256.87
398.55	1235.80
398.74	1200.69
398.93	1338.79
399.12	1282.61
399.32	1254.53
399.51	1233.46
399.70	1275.59
399.90	1315.38
400.09	1327.08
400.28	1392.62
400.47	1409.00
400.67	1451.13
400.86	1390.28
401.05	1516.67
401.24	1451.13
401.44	1458.15
401.63	1371.55
401.82	1373.89
402.01	1416.02
402.21	1394.96
402.40	1533.05
402.59	1474.54
402.78	1437.09
402.97	1551.78
403.17	1458.15
403.36	1568.16
403.55	1565.82
403.74	1605.61
403.93	1530.71
404.13	1533.05
404.32	1600.93
404.51	1551.78
404.70	1521.35
404.89	1603.27
405.09	1701.57
405.28	1650.08
405.47	1631.35
405.66	1682.85
405.85	1764.76
406.05	1626.67
406.24	1706.25
406.43	1783.49
406.62	1785.83
406.81	1781.15
407.00	1818.60
407.20	1694.55
407.39	1795.19
407.58	1839.66
407.77	1842.00
407.96	1893.49
408.15	1734.34
408.34	1724.97
408.54	1832.64
408.73	1935.62
408.92	1937.96
409.11	2029.24
409.30	2080.74
409.49	1980.09
409.68	1980.09
409.87	1923.92
410.07	2033.93
410.26	2052.65
410.45	2033.93
410.64	2057.33
410.83	2069.03
411.02	2031.58
411.21	2150.95
411.40	2127.55
411.59	2298.41
411.78	2183.72
411.98	2232.87
412.17	2214.15
412.36	2284.36
412.55	2282.02
412.74	2354.58
412.93	2375.64
413.12	2270.32
413.31	2520.76
413.50	2399.05
413.69	2389.69
413.88	2525.44
414.07	2368.62
414.26	2429.48
414.45	2539.48
414.64	2516.08
414.83	2717.36
415.02	2581.61
415.22	2555.86
415.41	2626.08
415.60	2560.55
415.79	2724.38
415.98	2698.64
416.17	2715.02
416.36	2708.00
416.55	2757.15
416.74	2834.39
416.93	2778.22
417.12	2785.24
417.31	2902.26
417.50	2888.22
417.69	2846.09
417.88	2890.56
418.07	3021.63
418.26	2960.78
418.45	2963.12
418.64	3005.25
418.83	3035.67
419.02	2958.44
419.21	3056.74
419.39	3049.72
419.58	3075.46
419.77	2878.86
419.96	3112.91
420.15	3087.17
420.34	3129.30
420.53	3220.58
420.72	3145.68
420.91	3133.98
421.10	3155.04
421.29	3267.39
421.48	3225.26
421.67	3304.84
421.86	3265.05
422.05	3162.06
422.24	3337.60
422.43	3332.92
422.61	3262.71
422.80	3321.22
422.99	3391.44
423.18	3386.76
423.37	3482.72
423.56	3368.03
423.75	3342.28
423.94	3323.56
424.13	3279.09
424.32	3316.54
424.50	3356.33
424.69	3566.98
424.88	3403.14
425.07	3337.60
425.26	3290.79
425.45	3419.52
425.64	3370.37
425.83	3384.41
426.01	3618.47
426.20	3566.98
426.39	3377.39
426.58	3489.74
426.77	3583.36
426.96	3604.42
427.15	3375.05
427.33	3485.06
427.52	3473.36
427.71	3611.45
427.90	3595.06
428.09	3522.51
428.28	3571.66
428.46	3702.73
428.65	3709.75
428.84	3742.52
429.03	3765.92
429.22	3637.19
429.40	3693.37
429.59	3721.45
429.78	3508.46
429.97	3702.73
430.16	3768.26
430.34	3815.07
430.53	3791.67
430.72	3772.94
430.91	3899.33
431.10	3815.07
431.28	3882.95
431.47	4009.34
431.66	3922.74
431.85	3899.33
432.03	3941.46
432.22	4002.32
432.41	4086.58
432.60	3932.10
432.79	4056.15
432.97	3885.29
433.16	4028.06
433.35	4112.32
433.54	4196.58
433.72	4145.09
433.91	4177.86
434.10	4100.62
434.28	4166.15
434.47	4318.29
434.66	4154.45
434.85	4311.27
435.03	4269.14
435.22	4109.98
435.41	4198.92
435.59	4290.20
435.78	4337.01
435.97	4355.74
436.16	4397.87
436.34	4376.80
436.53	4493.83
436.72	4526.60
436.90	4271.48
437.09	4418.93
437.28	4376.80
437.46	4507.87
437.65	4404.89
437.84	4681.07
438.02	4526.60
438.21	4589.79
438.40	4503.19
438.58	4814.48
438.77	4723.20
438.96	4596.81
439.14	4837.89
439.33	4861.29
439.52	4896.40
439.70	4873.00
439.89	4954.91
440.08	4915.12
440.26	4877.68
440.45	4882.36
440.63	4973.64
440.82	5046.20
441.01	4978.32
441.19	5114.07
441.38	5259.18
441.57	5116.41
441.75	5184.29
441.94	5341.10
442.12	5467.49
442.31	5359.83
442.50	5423.02
442.68	5217.05
442.87	5376.21
443.05	5376.21
443.24	5572.82
443.43	5502.60
443.61	5437.06
443.80	5743.67
443.98	5366.85
444.17	5348.12
444.35	5544.73
444.54	5640.69
444.73	5743.67
444.91	5701.54
445.10	5547.07
445.28	5502.60
445.47	5495.58
445.65	5528.35
445.84	5661.76
446.02	5753.04
446.21	5533.03
446.39	5802.19
446.58	5715.59
446.77	5846.66
446.95	5509.62
447.14	5666.44
447.32	5731.97
447.51	5568.13
447.69	5802.19
447.88	5696.86
448.06	5633.67
448.25	5727.29
448.43	5785.80
448.62	5783.46
448.80	5671.12
448.99	5790.49
449.17	5844.32
449.36	5802.19
449.54	5844.32
449.73	5912.19
449.91	5923.90
450.10	5963.68
450.28	5940.28
450.46	6097.10
450.65	5907.51
450.83	6026.88
451.02	6029.22
451.20	6064.33
451.39	6111.14
451.57	6113.48
451.76	6059.65
451.94	6139.23
452.13	6190.72
452.31	6242.21
452.49	6164.97
452.68	6342.85
452.86	6040.92
453.05	6232.85
453.23	6389.66
453.42	6204.76
453.60	6272.64
453.78	6429.45
453.97	6193.06
454.15	6469.24
454.34	6324.13
454.52	6490.31
454.70	6441.15
454.89	6457.54
455.07	6548.82
455.26	6602.65
455.44	6525.41
455.62	6684.57
455.81	6441.15
455.99	6715.00
456.17	6654.14
456.36	6586.27
456.54	6733.72
456.73	6951.39
456.91	7096.50
457.09	6932.67
457.28	6864.79
457.46	6927.99
457.64	6951.39
457.83	7066.08
458.01	6792.23
458.19	7080.12
458.38	6920.96
458.56	7061.40
458.74	6981.82
458.93	7173.74
459.11	7138.63
459.29	7070.76
459.48	7180.76
459.66	7119.91
459.84	7199.49
460.03	7286.09
460.21	7335.24
460.39	7559.93
460.57	7234.60
460.76	7342.26
460.94	7475.67
461.12	7470.99
461.31	7321.20
461.49	7492.05
461.67	7426.52
461.85	7573.97
462.04	7545.89
462.22	7939.10
462.40	7749.51
462.59	7691.00
462.77	7653.55
462.95	7761.22
463.13	7796.32
463.32	7693.34
463.50	7808.03
463.68	7779.94
463.86	8016.33
464.05	7669.94
464.23	7751.85
464.41	7875.90
464.59	7672.28
464.78	7971.86
464.96	8011.65
465.14	7784.62
465.32	8044.42
465.50	8091.23
465.69	8056.12
465.87	8035.06
466.05	8112.30
466.23	7903.99
466.41	8042.08
466.60	8262.09
466.78	8093.57
466.96	8072.51
467.14	8152.09
467.32	8119.32
467.51	8491.46
467.69	8098.25
467.87	8404.86
468.05	8294.86
468.23	8304.22
468.41	8084.21
468.60	8372.10
468.78	8397.84
468.96	8425.93
469.14	8376.78
469.32	8573.38
469.50	8449.33
469.69	8545.30
469.87	8727.86
470.05	8615.51
470.23	8491.46
470.41	8720.84
470.59	8865.95
470.77	8674.03
470.95	8678.71
471.14	9111.71
471.32	8699.77
471.50	8762.97
471.68	8945.53
471.86	8894.04
472.04	8865.95
472.22	9043.83
472.40	8985.32
472.58	8968.93
472.77	9254.48
472.95	9277.88
473.13	9650.03
473.31	9404.27
473.49	9380.87
473.67	9132.77
473.85	9408.95
474.03	9530.66
474.21	9638.33
474.39	9710.88
474.57	9591.52
474.75	9982.38
474.93	9781.10
475.12	9827.91
475.30	9860.68
475.48	9879.40
475.66	10132.18
475.84	9914.51
476.02	10307.72
476.20	10286.65
476.38	10289.00
476.56	10483.26
476.74	10408.36
476.92	10483.26
477.10	10368.57
477.28	10541.77
477.46	10689.23
477.64	10710.29
477.82	10951.37
478.00	11314.15
478.18	10979.45
478.36	11016.90
478.54	10869.45
478.72	11332.87
478.90	11206.48
479.08	11393.73
479.26	11323.51
479.44	11522.46
479.62	11513.10
479.80	11742.47
479.98	11735.45
480.16	12159.08
480.34	11826.73
480.52	12133.34
480.70	12198.87
480.88	12016.31
481.06	12472.71
481.24	12358.03
481.41	12493.78
481.59	12776.98
481.77	12744.22
481.95	12798.05
482.13	12999.34
482.31	12629.53
482.49	13209.98
482.67	13254.45
482.85	13312.97
483.03	13394.89
483.21	13460.42
483.39	13818.52
483.57	13764.69
483.74	13848.95
483.92	13654.69
484.10	13872.36
484.28	14335.78
484.46	14513.66
484.64	14593.24
484.82	14333.44
485.00	14331.10
485.18	15040.28
485.35	15037.94
485.53	14883.47
485.71	15087.09
485.89	15279.02
486.07	15302.42
486.25	15005.17
486.43	15171.35
486.61	15520.09
486.78	15683.93
486.96	15819.68
487.14	15932.03
487.32	16032.67
487.50	15880.53
487.68	16379.07
487.85	16376.73
488.03	16973.56
488.21	16858.88
488.39	16905.69
488.57	16929.09
488.75	16959.52
488.92	17123.36
489.10	17364.43
489.28	17294.22
489.46	17568.06
489.64	17694.45
489.81	17888.71
489.99	18047.87
490.17	18251.50
490.35	18204.69
490.53	18319.37
490.70	18485.55
490.88	18312.35
491.06	18876.42
491.24	18569.81
491.41	18806.20
491.59	19267.29
491.77	19197.07
491.95	19180.69
492.13	19381.98
492.30	19304.74
492.48	19697.95
492.66	19709.65
492.84	19777.53
493.01	19754.12
493.19	19960.09
493.37	20236.27
493.54	20025.62
493.72	20264.36
493.90	20276.06
494.08	20519.48
494.25	20800.34
494.43	20889.28
494.61	21022.69
494.79	20814.38
494.96	21081.21
495.14	21170.15
495.32	21429.94
495.49	21710.81
495.67	21750.60
495.85	21577.40
496.02	21928.48
496.20	22075.93
496.38	22225.73
496.55	21919.12
496.73	22843.63
496.91	22302.96
497.09	22417.65
497.26	22443.40
497.44	22366.16
497.62	22799.16
497.79	23274.29
497.97	22738.30
498.14	23241.52
498.32	23379.61
498.50	23466.21
498.67	23723.67
498.85	23461.53
499.03	23758.78
499.20	23976.45
499.38	23873.46
499.56	24100.50
499.73	24098.16
499.91	24161.35
500.08	24657.54
500.26	24362.64
500.44	24428.17
500.61	24545.20
500.79	24566.26
500.97	24397.74
501.14	24968.84
501.32	24844.79
501.49	25149.06
501.67	24900.96
501.84	25366.73
502.02	25310.55
502.20	25394.81
502.37	25481.41
502.55	25551.63
502.72	25685.04
502.90	25483.75
503.07	25685.04
503.25	26022.08
503.43	26017.40
503.60	26113.36
503.78	25944.84
503.95	26302.94
504.13	26410.60
504.30	26590.83
504.48	26448.05
504.65	26623.59
504.83	26738.28
505.01	26955.95
505.18	26658.70
505.36	27227.45
505.53	26728.92
505.71	27475.55
505.88	27426.40
506.06	27075.32
506.23	27421.72
506.41	27192.34
506.58	27644.07
506.76	27395.97
506.93	27896.85
507.11	27814.93
507.28	27880.46
507.46	27929.61
507.63	27861.74
507.81	28053.66
507.98	27976.42
508.16	28449.21
508.33	28451.55
508.50	28189.41
508.68	28606.03
508.85	28877.53
509.03	28666.88
509.20	28772.21
509.38	28868.17
509.55	29137.33
509.73	28889.23
509.90	29163.08
510.08	28795.61
510.25	28900.94
510.42	29607.78
510.60	29713.10
510.77	29755.23
510.95	29912.05
511.12	29406.49
511.30	29553.94
511.47	29685.01
511.64	29624.16
511.82	30169.51
511.99	29989.28
512.17	29928.43
512.34	30183.55
512.51	30356.75
512.69	30539.31
512.86	30300.58
513.04	30747.62
513.21	30408.24
513.38	30691.44
513.56	31026.14
513.73	30768.68
513.90	30920.82
514.08	30735.92
514.25	31578.51
514.43	31292.96
514.60	31494.25
514.77	31356.16
514.95	31503.61
515.12	31599.57
515.29	31800.86
515.47	31573.83
515.64	31786.82
515.81	31489.57
515.99	31564.46
516.16	31648.72
516.33	31857.03
516.51	32098.11
516.68	32067.68
516.85	32055.98
517.03	32060.66
517.20	32336.84
517.37	32498.34
517.54	32353.23
517.72	32786.22
517.89	33074.11
518.06	32568.55
518.24	32772.18
518.41	32982.83
518.58	32758.14
518.75	32903.25
518.93	33233.27
519.10	33141.99
519.27	33280.08
519.45	33287.10
519.62	33214.54
519.79	32938.36
519.96	33324.55
520.14	33666.27
520.31	33687.33
520.48	33809.04
520.65	34003.30
520.83	34160.12
521.00	34232.68
521.17	33591.37
521.34	34017.35
521.52	34017.35
521.69	34031.39
521.86	34370.77
522.03	34904.41
522.20	34569.71
522.38	34895.05
522.55	34621.20
522.72	34967.60
522.89	34501.84
523.07	34759.30
523.24	34478.43
523.41	34778.02
523.58	34539.29
523.75	35494.22
523.92	35047.18
524.10	35496.56
524.27	35278.89
524.44	35407.62
524.61	35143.14
524.78	35356.13
524.96	35644.02
525.13	35215.70
525.30	35892.12
525.47	35896.80
525.64	35721.26
525.81	35910.84
525.98	36163.62
526.16	35892.12
526.33	35894.46
526.50	36259.58
526.67	36147.23
526.84	36002.12
527.01	36009.14
527.18	36268.94
527.36	36126.17
527.53	36191.70
527.70	36779.18
527.87	36481.93
528.04	36734.71
528.21	36856.42
528.38	36800.24
528.55	37270.69
528.72	37029.62
528.89	36840.03
529.07	36568.53
529.24	36723.01
529.41	37191.11
529.58	37345.59
529.75	37310.48
529.92	37127.92
530.09	37081.11
530.26	37268.35
530.43	37404.10
530.60	36868.12
530.77	37797.31
530.94	37476.66
531.11	37202.82
531.28	37724.75
531.46	37799.65
531.63	37469.64
531.80	37713.05
531.97	37528.15
532.14	38000.94
532.31	37979.87
532.48	38218.61
532.65	38553.30
532.82	38279.46
532.99	38153.07
533.16	37902.64
533.33	38115.62
533.50	38447.98
533.67	38532.24
533.84	38487.77
534.01	38478.41
534.18	38682.03
534.35	39185.25
534.52	38873.96
534.69	39098.65
534.86	39292.91
535.03	38820.13
535.20	39206.31
535.37	39311.64
535.54	39229.72
535.71	39227.38
535.88	38768.63
536.05	39271.85
536.22	39077.58
536.38	39517.60
536.55	39342.06
536.72	39611.23
536.89	39110.35
537.06	39875.71
537.23	39232.06
537.40	39253.12
537.57	39700.17
537.74	39042.48
537.91	39697.83
538.08	39931.88
538.25	39856.98
538.42	39545.69
538.59	40231.47
538.75	39732.93
538.92	40069.97
539.09	40137.85
539.26	40079.33
539.43	39814.85
539.60	40360.20
539.77	40086.36
539.94	40346.15
540.11	40297.00
540.28	40533.40
540.44	40350.84
540.61	40341.47
540.78	40531.06
540.95	40519.35
541.12	40411.69
541.29	40456.16
541.46	40891.50
541.62	40378.92
541.79	40676.17
541.96	40547.44
542.13	40067.63
542.30	40648.08
542.47	40739.36
542.63	40772.13
542.80	41008.53
542.97	41113.85
543.14	41825.37
543.31	41305.77
543.48	41226.20
543.64	41652.17
543.81	41329.18
543.98	41478.97
544.15	41467.27
544.32	41406.42
544.48	41605.36
544.65	41682.60
544.82	41790.27
544.99	41509.40
545.16	41839.42
545.32	41790.27
545.49	42197.52
545.66	42117.94
545.83	42190.50
546.00	42667.97
546.16	42171.77
546.33	42220.92
546.50	41942.40
546.67	42302.84
546.83	41640.47
547.00	41872.18
547.17	42045.38
547.34	41921.34
547.50	42281.78
547.67	42960.53
547.84	42597.75
548.00	42878.61
548.17	42534.56
548.34	42792.01
548.51	42841.17
548.67	43232.04
548.84	43283.53
549.01	42660.94
549.18	42440.93
549.34	43007.34
549.51	43309.27
549.68	42944.15
549.84	42848.19
550.01	43180.54
550.18	42651.58
550.34	43328.00
550.51	43323.32
550.68	43164.16
550.84	42623.50
551.01	43540.99
551.18	43351.40
551.34	43292.89
551.51	43683.76
551.68	43629.93
551.84	43316.29
552.01	43295.23
552.18	43084.58
552.34	43466.09
552.51	44018.46
552.68	43084.58
552.84	43365.45
553.01	43721.21
553.18	43749.29
553.34	43531.62
553.51	43438.00
553.67	43735.25
553.84	44069.95
554.01	43871.00
554.17	43931.86
554.34	44016.11
554.51	43730.57
554.67	44123.78
554.84	44034.84
555.00	44137.82
555.17	44252.51
555.33	44334.43
555.50	44114.42
555.67	44540.39
555.83	44465.50
556.00	44376.56
556.16	44479.54
556.33	44491.24
556.50	44449.11
556.66	44669.12
556.83	44231.44
556.99	44568.48
557.16	44556.78
557.32	45106.80
557.49	44589.55
557.65	44945.31
557.82	44346.13
557.98	44608.27
558.15	44968.71
558.32	44601.25
558.48	44463.16
558.65	45137.23
558.81	44774.45
558.98	45001.48
559.14	44870.41
559.31	44832.96
559.47	44797.85
559.64	45041.27
559.80	44648.06
559.97	44935.95
560.13	44821.26
560.30	45153.62
560.46	45167.66
560.63	45113.83
560.79	44788.49
560.96	45464.91
561.12	45399.37
561.29	44919.56
561.45	45191.06
561.61	45076.38
561.78	45207.45
561.94	44933.60
562.11	45404.05
562.27	45289.37
562.44	45242.56
562.60	45368.94
562.77	45603.00
562.93	45202.77
563.10	45401.71
563.26	45375.97
563.42	45846.41
563.59	45214.47
563.75	44994.46
563.92	45333.84
564.08	45120.85
564.24	45867.48
564.41	45294.05
564.57	45911.95
564.74	45893.22
564.90	45663.85
565.07	45893.22
565.23	45453.20
565.39	45907.27
565.56	46167.07
565.72	45111.49
565.88	45591.30
566.05	45532.78
566.21	45954.08
566.38	45762.15
566.54	45497.67
566.70	45956.42
566.87	45991.53
567.03	45315.11
567.19	45942.38
567.36	45507.04
567.52	45839.39
567.68	46127.28
567.85	45916.63
568.01	46028.98
568.17	45937.69
568.34	46054.72
568.50	46188.13
568.66	45610.02
568.83	46141.32
568.99	46188.13
569.15	46274.73
569.32	46124.94
569.48	45851.09
569.64	46190.47
569.81	45839.39
569.97	46454.95
570.13	46277.07
570.30	45792.58
570.46	46052.38
570.62	46494.74
570.78	46115.58
570.95	46237.28
571.11	46480.70
571.27	46082.81
571.43	45975.14
571.60	46284.09
571.76	46045.36
571.92	46061.74
572.09	46326.22
572.25	45956.42
572.41	46389.42
572.57	46251.33
572.74	46782.63
572.90	45970.46
573.06	46253.67
573.22	46138.98
573.38	46471.34
573.55	46241.96
573.71	46906.68
573.87	46305.16
574.03	46583.68
574.20	46838.80
574.36	46665.60
574.52	46766.24
574.68	46333.24
574.84	46602.41
575.01	46607.09
575.17	46637.51
575.33	46246.65
575.49	46146.00
575.65	46571.98
575.82	46700.71
575.98	46326.22
576.14	46801.35
576.30	46918.38
576.46	46796.67
576.62	46256.01
576.79	46560.28
576.95	46014.93
577.11	46267.71
577.27	46333.24
577.43	46740.50
577.59	46635.17
577.75	46728.80
577.92	45886.20
578.08	46534.53
578.24	46593.04
578.40	46649.22
578.56	46433.89
578.72	46586.02
578.88	46567.30
579.04	46836.46
579.21	46761.56
579.37	46672.62
579.53	46677.30
579.69	46787.31
579.85	46429.21
580.01	46548.57
580.17	46726.46
580.33	47334.99
580.49	46897.31
580.65	46635.17
580.82	46560.28
580.98	46953.49
581.14	46473.68
581.30	46827.10
581.46	46628.15
581.62	46843.48
581.78	46323.88
581.94	46920.72
582.10	47042.43
582.26	46813.05
582.42	46808.37
582.58	46567.30
582.74	46731.14
582.90	46546.23
583.06	47089.24
583.22	46653.90
583.38	46639.86
583.54	47007.32
583.70	46717.09
583.86	46689.01
584.02	47119.66
584.18	47133.71
584.34	47131.37
584.50	46939.44
584.66	47079.88
584.82	47000.30
584.98	47042.43
585.14	47281.16
585.30	46581.34
585.46	47316.27
585.62	46894.97
585.78	47033.07
585.94	46600.07
586.10	46677.30
586.26	46794.33
586.42	46791.99
586.58	46831.78
586.74	46787.31
586.90	46710.07
587.06	46852.84
587.22	46791.99
587.38	46944.12
587.54	47224.99
587.70	47370.10
587.86	47058.81
588.02	47054.13
588.18	46796.67
588.34	46616.45
588.49	46763.90
588.65	46738.16
588.81	47304.57
588.97	47004.98
589.13	47147.75
589.29	46972.21
589.45	47304.57
589.61	46866.89
589.77	47412.23
589.93	46960.51
590.08	47409.89
590.24	47606.50
590.40	47611.18
590.56	47356.06
590.72	47334.99
590.88	47093.92
591.04	47187.54
591.20	47442.66
591.35	47585.43
591.51	48055.88
591.67	47395.85
591.83	47597.13
591.99	47629.90
592.15	47517.56
592.31	46976.89
592.46	47012.00
592.62	47304.57
592.78	47384.15
592.94	47313.93
593.10	47594.79
593.26	47449.68
593.41	47732.89
593.57	47704.80
593.73	47452.02
593.89	47880.34
594.05	47653.31
594.20	47428.62
594.36	47992.68
594.52	47414.57
594.68	47784.38
594.84	47517.56
594.99	47679.05
595.15	47849.91
595.31	47662.67
595.47	47915.45
595.62	47400.53
595.78	47267.12
595.94	47318.61
596.10	47494.15
596.25	47770.33
596.41	48144.82
596.57	47693.10
596.73	47859.27
596.88	48027.79
597.04	48257.17
597.20	48189.29
597.36	47384.15
597.51	48149.50
597.67	47646.29
597.83	47447.34
597.99	47625.22
598.14	47620.54
598.30	47693.10
598.46	47601.82
598.61	47882.68
598.77	48041.84
598.93	47870.98
599.09	47775.02
599.24	48381.21
599.40	47978.64
599.56	47995.03
599.71	48236.10
599.87	48266.53
600.03	48289.93
600.18	48098.01
600.34	47887.36
600.50	48013.75
600.65	47681.39
600.81	47772.67
600.97	48303.98
601.12	47924.81
601.28	47950.56
601.44	47838.21
601.59	47887.36
601.75	47875.66
601.91	48121.41
602.06	47583.09
602.22	47868.64
602.37	47756.29
602.53	47648.63
602.69	47863.96
602.84	47665.01
603.00	47842.89
603.16	47468.40
603.31	47562.03
603.47	48238.44
603.62	48076.94
603.78	47980.98
603.94	47966.94
604.09	48044.18
604.25	47786.72
604.40	47578.41
604.56	47976.30
604.71	48074.60
604.87	47973.96
605.03	47653.31
605.18	48058.22
605.34	48175.25
605.49	47955.24
605.65	48315.68
605.80	47679.05
605.96	47870.98
606.12	47346.70
606.27	47353.72
606.43	47819.49
606.58	48027.79
606.74	47564.37
606.89	47533.94
607.05	48280.57
607.20	48114.39
607.36	47672.03
607.51	47894.38
607.67	47641.60
607.82	47054.13
607.98	47868.64
608.13	47892.04
608.29	47681.39
608.44	47791.40
608.60	47498.83
608.75	47676.71
608.91	47784.38
609.06	47416.91
609.22	47437.98
609.37	47267.12
609.53	47817.14
609.68	47735.23
609.84	47599.47
609.99	47522.24
610.15	47381.80
610.30	47859.27
610.46	47517.56
610.61	47562.03
610.76	47901.40
610.92	47271.80
611.07	47571.39
611.23	47126.69
611.38	47023.70
611.54	47496.49
611.69	47402.87
611.84	47550.32
612.00	47292.86
612.15	47370.10
612.31	47760.97
612.46	46927.74
612.62	46855.18
612.77	47358.40
612.92	47653.31
613.08	47461.38
613.23	47255.42
613.39	47262.44
613.54	47077.54
613.69	47084.56
613.85	47334.99
614.00	47178.18
614.15	47447.34
614.31	46972.21
614.46	46927.74
614.62	47042.43
614.77	47557.35
614.92	47416.91
615.08	47325.63
615.23	47466.06
615.38	46916.04
615.54	46894.97
615.69	46909.02
615.84	47166.48
616.00	47290.52
616.15	46869.23
616.30	47035.41
616.46	46815.40
616.61	47063.49
616.76	47262.44
616.92	46766.24
617.07	46995.62
617.22	46890.29
617.37	46473.68
617.53	46836.46
617.68	46958.17
617.83	46611.77
617.99	47159.45
618.14	47145.41
618.29	46759.22
618.45	46424.53
618.60	46707.73
618.75	46337.93
618.90	46295.80
619.06	46703.05
619.21	46567.30
619.36	46656.24
619.51	46115.58
619.67	46607.09
619.82	46756.88
619.97	46997.96
620.12	46845.82
620.28	46267.71
620.43	47061.15
620.58	46885.61
620.73	46822.42
620.89	46993.28
621.04	46766.24
621.19	46438.57
621.34	46560.28
621.49	46361.33
621.65	46431.55
621.80	46506.44
621.95	46340.27
622.10	46384.74
622.25	46181.11
622.41	45996.21
622.56	46195.15
622.71	46571.98
622.86	46202.18
623.01	46724.11
623.16	46033.66
623.32	45991.53
623.47	46183.45
623.62	46246.65
623.77	45972.80
623.92	46127.28
624.07	46028.98
624.23	46356.65
624.38	46141.32
624.53	46169.41
624.68	45975.14
624.83	45663.85
624.98	45614.70
625.13	45659.17
625.29	45687.26
625.44	45474.27
625.59	45752.79
625.74	45617.04
625.89	45642.79
626.04	45413.41
626.19	45621.72
626.34	45605.34
626.49	45581.93
626.65	45205.11
626.80	45691.94
626.95	45132.55
627.10	44856.37
627.25	45862.80
627.40	45663.85
627.55	45628.74
627.70	45677.90
627.85	45698.96
628.00	45593.64
628.15	45741.09
628.30	45031.91
628.45	44835.30
628.60	45280.00
628.76	44942.97
628.91	45427.46
629.06	45062.33
629.21	44589.55
629.36	45233.19
629.51	44868.07
629.66	45832.37
629.81	45336.18
629.96	45024.89
630.11	45050.63
630.26	44683.17
630.41	44928.92
630.56	44779.13
630.71	44994.46
630.86	45155.96
631.01	44289.96
631.16	45111.49
631.31	44919.56
631.46	44971.05
631.61	45090.42
631.76	45137.23
631.91	44961.69
632.06	45083.40
632.21	45095.10
632.36	44584.86
632.51	44783.81
632.66	44772.11
632.81	44615.29
632.96	44308.68
633.10	44460.82
633.25	44526.35
633.40	44416.35
633.55	44861.05
633.70	44598.91
633.85	44566.14
634.00	44313.36
634.15	44266.55
634.30	44250.17
634.45	44524.01
634.60	44369.54
634.75	44685.51
634.90	44210.38
635.05	44435.07
635.19	44397.62
635.34	44460.82
635.49	44664.44
635.64	44025.48
635.79	44573.16
635.94	44364.85
636.09	44369.54
636.24	43903.77
636.39	44137.82
636.53	43814.83
636.68	44107.40
636.83	43742.27
636.98	43538.65
637.13	43718.87
637.28	43585.46
637.43	43564.39
637.57	44402.30
637.72	43400.55
637.87	43686.10
638.02	43833.55
638.17	43625.25
638.32	43892.07
638.46	42600.09
638.61	43447.36
638.76	43501.20
638.91	43377.15
639.06	43576.09
639.20	43278.85
639.35	43208.63
639.50	43075.22
639.65	43775.04
639.80	43653.33
639.94	43683.76
640.09	43569.07
640.24	43217.99
640.39	43381.83
640.54	43337.36
640.68	43206.29
640.83	43328.00
640.98	43377.15
641.13	42632.86
641.27	43356.08
641.42	43232.04
641.57	43267.14
641.72	43234.38
641.86	42960.53
642.01	42829.46
642.16	42848.19
642.31	42841.17
642.45	42829.46
642.60	42824.78
642.75	43105.65
642.90	43049.47
643.04	42330.93
643.19	42731.16
643.34	43213.31
643.48	42731.16
643.63	42712.44
643.78	43030.75
643.93	43056.50
644.07	42850.53
644.22	42700.73
644.37	43264.80
644.51	42838.83
644.66	42714.78
644.81	42724.14
644.95	42646.90
645.10	42836.48
645.25	42380.08
645.39	42462.00
645.54	42335.61
645.69	42380.08
645.83	42351.99
645.98	42462.00
646.13	42384.76
646.27	42794.36
646.42	42363.70
646.57	42209.22
646.71	42543.92
646.86	42454.98
647.00	42405.83
647.15	42548.60
647.30	42852.87
647.44	42185.82
647.59	42080.49
647.74	42195.18
647.88	42326.25
648.03	42307.52
648.17	42466.68
648.32	42270.08
648.47	42342.63
648.61	42321.57
648.76	42110.92
648.90	41944.74
649.05	41958.78
649.20	42040.70
649.34	42071.13
649.49	41888.57
649.63	41724.73
649.78	41820.69
649.92	42024.32
650.07	42071.13
650.21	41764.52
650.36	42157.73
650.51	41811.33
650.65	41935.38
650.80	42061.77
650.94	41860.48
651.09	41684.94
651.23	41207.47
651.38	41633.45
651.52	41378.33
651.67	41743.45
651.81	41752.82
651.96	41064.70
652.10	40980.44
652.25	41579.62
652.39	41322.16
652.54	41839.42
652.68	41113.85
652.83	41258.96
652.97	41375.99
653.12	41041.29
653.26	41361.95
653.41	41221.52
653.55	41155.98
653.70	41476.63
653.84	41600.68
653.99	40802.56
654.13	41427.48
654.27	41317.48
654.42	41132.57
654.56	40648.08
654.71	41591.32
654.85	41303.43
655.00	41160.66
655.14	41202.79
655.29	41642.81
655.43	41193.43
655.57	41120.87
655.72	40655.11
655.86	40992.14
656.01	40591.91
656.15	40737.02
656.30	40350.84
656.44	41148.96
656.58	40381.26
656.73	40699.58
656.87	39915.50
657.01	40643.40
657.16	40591.91
657.30	40498.29
657.45	40179.98
657.59	39941.24
657.73	40196.36
657.88	40259.55
658.02	40491.27
658.16	40753.41
658.31	40294.66
658.45	40659.79
658.60	40191.68
658.74	40308.71
658.88	39983.37
659.03	40023.16
659.17	39686.12
659.31	39906.13
659.46	39669.74
659.60	40133.17
659.74	39744.64
659.89	39578.46
660.03	39253.12
660.17	39580.80
660.32	39915.50
660.46	39395.90
660.60	39269.51
660.74	39559.73
660.89	39428.66
661.03	39281.21
661.17	39091.63
661.32	39302.28
661.46	39473.13
661.60	39136.10
661.74	39381.85
661.89	39384.19
662.03	39475.48
662.17	38930.13
662.31	38885.66
662.46	39360.79
662.60	38880.98
662.74	38703.10
662.88	38679.69
663.03	38380.10
663.17	38188.18
663.31	38422.23
663.45	38361.38
663.60	38693.74
663.74	38497.13
663.88	38759.27
664.02	38546.28
664.17	38646.93
664.31	38483.09
664.45	38394.15
664.59	38298.19
664.73	38164.78
664.88	38059.45
665.02	38162.43
665.16	37933.06
665.30	38059.45
665.44	37923.70
665.59	37570.28
665.73	37560.92
665.87	37460.27
666.01	37694.33
666.15	37869.87
666.29	37181.75
666.44	37656.88
666.58	37525.81
666.72	37294.10
666.86	37455.59
667.00	37368.99
667.14	36945.36
667.28	37488.36
667.43	37097.49
667.57	37331.54
667.71	37207.50
667.85	37354.95
667.99	37345.59
668.13	36638.75
668.27	36648.11
668.41	36847.05
668.56	36161.28
668.70	36510.02
668.84	36409.37
668.98	36577.89
669.12	36498.31
669.26	36500.65
669.40	36580.23
669.54	36655.13
669.68	36313.41
669.82	36570.87
669.96	35587.85
670.10	35374.86
670.25	35777.43
670.39	35847.64
670.53	35971.69
670.67	36149.57
670.81	35747.00
670.95	35817.22
671.09	35718.92
671.23	35117.40
671.37	35438.05
671.51	35358.47
671.65	35159.53
671.79	35175.91
671.93	35571.46
672.07	35398.26
672.21	35098.67
672.35	35182.93
672.49	35014.41
672.63	34771.00
672.77	34469.07
672.91	34560.35
673.05	34983.99
673.19	34548.65
673.33	34417.58
673.47	33998.62
673.61	34167.14
673.75	34279.49
673.89	34057.14
674.03	34043.09
674.17	33619.46
674.31	33418.17
674.45	33750.52
674.59	33457.96
674.73	33677.97
674.87	33193.48
675.01	33532.86
675.15	33418.17
675.29	33226.24
675.43	33256.67
675.56	33116.24
675.70	33322.21
675.84	32931.34
675.98	31859.37
676.12	32631.75
676.26	32793.25
676.40	32526.42
676.54	32306.41
676.68	32283.01
676.82	31908.52
676.96	32404.72
677.10	32311.10
677.23	32409.40
677.37	31992.78
677.51	31735.32
677.65	31840.65
677.79	31548.08
677.93	31711.92
678.07	31679.15
678.21	31276.58
678.34	31239.13
678.48	31035.50
678.62	30986.35
678.76	30974.65
678.90	31042.53
679.04	31047.21
679.18	31274.24
679.31	30457.39
679.45	30508.88
679.59	30431.65
679.73	30424.62
679.87	30029.07
680.00	30197.59
680.14	30356.75
680.28	29851.19
680.42	30223.34
680.56	29500.11
680.70	29483.73
680.83	29525.86
680.97	29584.37
681.11	29296.49
681.25	29249.67
681.39	29095.20
681.52	29123.29
681.66	28922.00
681.80	28760.50
681.94	28425.81
682.07	28355.59
682.21	28512.41
682.35	28348.57
682.49	28414.10
682.62	28397.72
682.76	28301.76
682.90	28283.03
683.04	28243.24
683.17	27997.49
683.31	27936.63
683.45	27517.68
683.59	27489.59
683.72	27608.96
683.86	27531.72
684.00	27138.51
684.13	27115.11
684.27	27199.37
684.41	26808.50
684.55	27374.91
684.68	27150.21
684.82	26394.22
684.96	26796.79
685.09	26855.31
685.23	26616.57
685.37	26707.85
685.50	26717.22
685.64	26618.91
685.78	26059.52
685.91	26321.66
686.05	26040.80
686.19	25376.09
686.32	25666.31
686.46	25123.31
686.60	25312.89
686.73	25530.56
686.87	25160.76
687.01	25235.66
687.14	25539.93
687.28	24886.92
687.42	25132.67
687.55	24844.79
687.69	24994.58
687.82	24767.55
687.96	24491.37
688.10	24669.25
688.23	24622.44
688.37	24617.75
688.50	24709.04
688.64	24432.85
688.78	24460.94
688.91	23866.44
689.05	24142.63
689.18	23714.31
689.32	23433.44
689.46	23718.99
689.59	23496.64
689.73	23669.84
689.86	23637.07
690.00	23468.55
690.13	23421.74
690.27	23255.56
690.41	23264.92
690.54	23082.36
690.68	23058.96
690.81	22984.06
690.95	22682.13
691.08	22504.25
691.22	22412.97
691.35	22342.75
691.49	22841.29
691.62	22068.91
691.76	21872.31
691.89	22136.79
692.03	21614.85
692.16	21596.12
692.30	22012.74
692.43	21867.63
692.57	21336.32
692.70	21418.24
692.84	21364.41
692.97	21001.63
693.11	20893.96
693.24	20634.16
693.38	21053.12
693.51	21041.42
693.65	20989.92
693.78	20688.00
693.92	20556.93
694.05	20547.56
694.19	20203.50
694.32	20245.63
694.45	20659.91
694.59	20538.20
694.72	20362.66
694.86	19683.91
694.99	19742.42
695.13	19819.66
695.26	19775.19
695.39	19557.52
695.53	19435.81
695.66	19243.88
695.80	19524.75
695.93	19414.74
696.07	19412.40
696.20	18944.30
696.33	18838.97
696.47	18862.38
696.60	18740.67
696.73	18712.58
696.87	18923.23
697.00	18904.51
697.14	18633.00
697.27	18471.51
697.40	18136.81
697.54	18511.30
697.67	18438.74
697.80	18562.79
697.94	18005.74
698.07	17991.70
698.21	17914.46
698.34	18129.79
698.47	17612.53
698.61	17172.51
698.74	17518.91
698.87	17628.92
699.01	17057.82
699.14	17657.00
699.27	17266.13
699.40	17071.87
699.54	16968.88
699.67	17011.01
699.80	16755.90
699.94	16535.88
700.07	16980.59
700.20	16776.96
700.34	16748.87
700.47	16718.45
700.60	16631.85
700.73	16582.70
700.87	16418.86
701.00	15950.75
701.13	16184.80
701.26	15950.75
701.40	16173.10
701.53	15910.96
701.66	15922.66
701.79	15433.49
701.93	15557.54
702.06	15393.70
702.19	15590.31
702.32	15527.11
702.46	15438.17
702.59	15496.69
702.72	15433.49
702.85	15358.60
702.99	15094.11
703.12	15405.41
703.25	14642.39
703.38	14834.32
703.51	14796.87
703.65	14904.53
703.78	14487.92
703.91	14415.36
704.04	14377.91
704.17	14363.87
704.31	14354.51
704.44	14303.01
704.57	14200.03
704.70	14169.60
704.83	14012.79
704.96	14061.94
705.10	14148.54
705.23	13783.41
>>>>>End Processed Spectral Data<<<<<
