SpectraSuite Data File
++++++++++++++++++++++++++++++++++++
Date: Fri Oct 25 10:47:13 EDT 2013
User: price-jones
Dark Spectrum Present: No
Reference Spectrum Present: No
Number of Sampled Component Spectra: 1
Spectrometers: USB2+H05261
Integration Time (usec): 100000 (USB2+H05261)
Spectra Averaged: 1 (USB2+H05261)
Boxcar Smoothing: 0 (USB2+H05261)
Correct for Electrical Dark: No (USB2+H05261)
Strobe/Lamp Enabled: No (USB2+H05261)
Correct for Detector Non-linearity: No (USB2+H05261)
Correct for Stray Light: No (USB2+H05261)
Number of Pixels in Processed Spectrum: 2048
>>>>>Begin Processed Spectral Data<<<<<
365.73	100.64
365.92	100.64
366.12	100.64
366.32	91.28
366.52	100.64
366.72	11.70
366.91	46.81
367.11	67.88
367.31	30.43
367.51	91.28
367.70	72.56
367.90	112.35
368.10	4.68
368.30	18.72
368.49	0.00
368.69	51.49
368.89	65.54
369.09	46.81
369.28	159.16
369.48	51.49
369.68	147.45
369.87	79.58
370.07	117.03
370.27	110.01
370.47	173.20
370.66	334.70
370.86	442.36
371.06	489.17
371.25	421.30
371.45	500.87
371.65	463.43
371.84	447.04
372.04	414.27
372.24	472.79
372.44	477.47
372.63	454.06
372.83	568.75
373.03	470.45
373.22	461.09
373.42	470.45
373.62	472.79
373.81	559.39
374.01	568.75
374.21	465.77
374.40	564.07
374.60	554.71
374.79	517.26
374.99	535.98
375.19	568.75
375.38	524.28
375.58	521.94
375.78	566.41
375.97	568.75
376.17	557.05
376.37	554.71
376.56	613.22
376.76	582.79
376.95	606.20
377.15	641.31
377.35	564.07
377.54	627.26
377.74	538.32
377.93	660.03
378.13	613.22
378.33	674.07
378.52	580.45
378.72	617.90
378.91	575.77
379.11	585.13
379.31	627.26
379.50	531.30
379.70	617.90
379.89	594.50
380.09	599.18
380.28	550.03
380.48	613.22
380.68	620.24
380.87	608.54
381.07	690.46
381.26	645.99
381.46	657.69
381.65	720.88
381.85	641.31
382.04	671.73
382.24	699.82
382.43	674.07
382.63	734.93
382.83	690.46
383.02	657.69
383.22	753.65
383.41	650.67
383.61	746.63
383.80	709.18
384.00	692.80
384.19	713.86
384.39	688.12
384.58	720.88
384.78	777.06
384.97	741.95
385.17	676.41
385.36	683.44
385.56	765.36
385.75	727.91
385.95	779.40
386.14	816.85
386.34	748.97
386.53	784.08
386.72	755.99
386.92	821.53
387.11	828.55
387.31	795.78
387.50	784.08
387.70	765.36
387.89	802.80
388.09	866.00
388.28	830.89
388.48	795.78
388.67	837.91
388.86	877.70
389.06	863.66
389.25	887.06
389.45	912.81
389.64	777.06
389.84	910.47
390.03	858.98
390.22	866.00
390.42	926.85
390.61	901.11
390.81	987.71
391.00	940.90
391.19	884.72
391.39	966.64
391.58	950.26
391.78	952.60
391.97	966.64
392.16	898.77
392.36	952.60
392.55	924.51
392.75	1015.79
392.94	877.70
393.13	1018.13
393.33	889.40
393.52	943.24
393.71	1062.60
393.91	1083.67
394.10	954.94
394.29	999.41
394.49	1029.84
394.68	1088.35
394.88	1125.80
395.07	1121.12
395.26	1083.67
395.46	1114.10
395.65	1039.20
395.84	1055.58
396.04	1050.90
396.23	1032.18
396.42	1093.03
396.62	1121.12
396.81	1174.95
397.00	1088.35
397.19	1015.79
397.39	1121.12
397.58	1149.20
397.77	1186.65
397.97	1266.23
398.16	1280.27
398.35	1266.23
398.55	1233.46
398.74	1291.98
398.93	1270.91
399.12	1256.87
399.32	1282.61
399.51	1291.98
399.70	1247.51
399.90	1329.42
400.09	1336.45
400.28	1334.11
400.47	1401.98
400.67	1397.30
400.86	1406.66
401.05	1399.64
401.24	1263.89
401.44	1448.79
401.63	1413.68
401.82	1528.37
402.01	1404.32
402.21	1495.60
402.40	1446.45
402.59	1493.26
402.78	1486.24
402.97	1486.24
403.17	1446.45
403.36	1526.03
403.55	1596.25
403.74	1579.86
403.93	1607.95
404.13	1554.12
404.32	1706.25
404.51	1500.28
404.70	1743.70
404.89	1696.89
405.09	1734.34
405.28	1657.10
405.47	1640.72
405.66	1661.78
405.85	1638.38
406.05	1739.02
406.24	1746.04
406.43	1827.96
406.62	1809.23
406.81	1886.47
407.00	1748.38
407.20	1703.91
407.39	1778.81
407.58	1795.19
407.77	1785.83
407.96	1909.88
408.15	1895.83
408.34	1860.73
408.54	1930.94
408.73	1898.17
408.92	1973.07
409.11	1980.09
409.30	1874.77
409.49	1994.14
409.68	1933.28
409.87	1886.47
410.07	2026.90
410.26	2141.59
410.45	2066.69
410.64	2101.80
410.83	2099.46
411.02	2104.14
411.21	2085.42
411.40	2165.00
411.59	2176.70
411.78	2111.16
411.98	2193.08
412.17	2216.49
412.36	2132.23
412.55	2200.10
412.74	2349.90
412.93	2377.98
413.12	2326.49
413.31	2441.18
413.50	2319.47
413.69	2331.17
413.88	2382.67
414.07	2532.46
414.26	2588.63
414.45	2569.91
414.64	2546.50
414.83	2544.16
415.02	2530.12
415.22	2637.78
415.41	2691.62
415.60	2588.63
415.79	2700.98
415.98	2745.45
416.17	2724.38
416.36	2740.77
416.55	2803.96
416.74	2890.56
416.93	2698.64
417.12	2853.11
417.31	2881.20
417.50	2892.90
417.69	2911.63
417.88	3009.93
418.07	2883.54
418.26	3045.04
418.45	3000.57
418.64	3110.57
418.83	3194.83
419.02	2944.39
419.21	3059.08
419.39	3091.85
419.58	3066.10
419.77	3038.02
419.96	3089.51
420.15	3129.30
420.34	3215.90
420.53	3204.19
420.72	3220.58
420.91	3117.59
421.10	3260.37
421.29	3267.39
421.48	3141.00
421.67	3353.99
421.86	3269.73
422.05	3410.16
422.24	3295.47
422.43	3304.84
422.61	3375.05
422.80	3421.86
422.99	3302.50
423.18	3361.01
423.37	3447.61
423.56	3300.16
423.75	3407.82
423.94	3377.39
424.13	3295.47
424.32	3328.24
424.50	3531.87
424.69	3489.74
424.88	3534.21
425.07	3316.54
425.26	3428.88
425.45	3534.21
425.64	3412.50
425.83	3391.44
426.01	3545.91
426.20	3454.63
426.39	3393.78
426.58	3471.01
426.77	3503.78
426.96	3400.80
427.15	3478.04
427.33	3679.32
427.52	3681.66
427.71	3688.68
427.90	3618.47
428.09	3733.15
428.28	3651.24
428.46	3653.58
428.65	3639.53
428.84	3721.45
429.03	3754.22
429.22	3669.96
429.40	3620.81
429.59	3712.09
429.78	3461.65
429.97	3517.83
430.16	3606.77
430.34	3751.88
430.53	3803.37
430.72	3716.77
430.91	3705.07
431.10	3871.25
431.28	3981.25
431.47	3852.52
431.66	4056.15
431.85	3981.25
432.03	4044.45
432.22	4086.58
432.41	3875.93
432.60	3978.91
432.79	3976.57
432.97	4049.13
433.16	4259.78
433.35	3997.64
433.54	4117.00
433.72	4241.05
433.91	4166.15
434.10	4306.59
434.28	4131.05
434.47	4182.54
434.66	4283.18
434.85	4353.40
435.03	4400.21
435.22	4276.16
435.41	4489.15
435.59	4475.10
435.78	4454.04
435.97	4428.29
436.16	4355.74
436.34	4500.85
436.53	4500.85
436.72	4550.00
436.90	4449.36
437.09	4447.02
437.28	4294.88
437.46	4601.49
437.65	4594.47
437.84	4533.62
438.02	4524.26
438.21	4554.68
438.40	4535.96
438.58	4784.06
438.77	4648.30
438.96	4727.88
439.14	4938.53
439.33	5008.75
439.52	4983.00
439.70	4821.50
439.89	4887.04
440.08	4954.91
440.26	4891.72
440.45	4978.32
440.63	5123.43
440.82	5177.26
441.01	5235.78
441.19	5158.54
441.38	5341.10
441.57	5282.59
441.75	5334.08
441.94	5423.02
442.12	5252.16
442.31	5568.13
442.50	5497.92
442.68	5455.79
442.87	5327.06
443.05	5462.81
443.24	5762.40
443.43	5547.07
443.61	5701.54
443.80	5806.87
443.98	5540.05
444.17	5310.68
444.35	5521.32
444.54	5685.16
444.73	5827.93
444.91	5724.95
445.10	5654.73
445.28	5729.63
445.47	5511.96
445.65	5760.06
445.84	5713.25
446.02	5762.40
446.21	5790.49
446.39	5685.16
446.58	5748.36
446.77	5797.51
446.95	5774.10
447.14	5841.98
447.32	5741.33
447.51	5783.46
447.69	5856.02
447.88	5776.44
448.06	5860.70
448.25	5785.80
448.43	5757.72
448.62	5802.19
448.80	5806.87
448.99	5849.00
449.17	5930.92
449.36	5783.46
449.54	5949.64
449.73	6164.97
449.91	6256.25
450.10	6083.05
450.28	6148.59
450.46	6186.04
450.65	6155.61
450.83	6223.48
451.02	6176.67
451.20	6377.96
451.39	6324.13
451.57	6143.91
451.76	6150.93
451.94	6235.19
452.13	6310.08
452.31	6300.72
452.49	6176.67
452.68	6469.24
452.86	6270.30
453.05	6253.91
453.23	6490.31
453.42	6200.08
453.60	6256.25
453.78	6586.27
453.97	6478.60
454.15	6427.11
454.34	6534.78
454.52	6558.18
454.70	6612.01
454.89	6794.58
455.07	6729.04
455.26	6628.40
455.44	6707.98
455.62	6841.39
455.81	6871.81
455.99	6890.54
456.17	6899.90
456.36	6707.98
456.54	6942.03
456.73	6986.50
456.91	7047.35
457.09	7159.70
457.28	7152.68
457.46	7131.61
457.64	7145.66
457.83	7059.06
458.01	7068.42
458.19	7155.02
458.38	7096.50
458.56	7316.51
458.74	7293.11
458.93	7059.06
459.11	7293.11
459.29	7220.55
459.48	7375.03
459.66	7206.51
459.84	7246.30
460.03	7515.46
460.21	7559.93
460.39	7489.71
460.57	7363.33
460.76	7239.28
460.94	7616.10
461.12	7405.46
461.31	7403.11
461.49	7531.84
461.67	7632.49
461.85	7693.34
462.04	7674.62
462.22	8021.02
462.40	7691.00
462.59	7793.98
462.77	7536.52
462.95	7744.83
463.13	7709.72
463.32	7662.91
463.50	7857.18
463.68	7604.40
463.86	7808.03
464.05	7756.54
464.23	8021.02
464.41	7950.80
464.59	7864.20
464.78	8154.43
464.96	8039.74
465.14	8018.68
465.32	8119.32
465.50	8100.59
465.69	8084.21
465.87	8163.79
466.05	8184.85
466.23	8053.78
466.41	7960.16
466.60	8311.24
466.78	8074.85
466.96	8238.69
467.14	8367.42
467.32	8299.54
467.51	8212.94
467.69	8093.57
467.87	8367.42
468.05	8388.48
468.23	8372.10
468.41	8161.45
468.60	8528.91
468.78	8435.29
468.96	8388.48
469.14	8580.40
469.32	8620.19
469.50	8278.47
469.69	8695.09
469.87	8674.03
470.05	8674.03
470.23	8734.88
470.41	8669.34
470.59	8594.45
470.77	8779.35
470.95	8894.04
471.14	8898.72
471.32	8692.75
471.50	9062.55
471.68	8952.55
471.86	8912.76
472.04	9137.45
472.22	9458.10
472.40	8950.21
472.58	9013.40
472.77	9214.69
472.95	9153.84
473.13	9694.50
473.31	9329.38
473.49	9282.56
473.67	9355.12
473.85	9268.52
474.03	9554.07
474.21	9605.56
474.39	9839.61
474.57	9898.13
474.75	9874.72
474.93	9818.55
475.12	9750.67
475.30	9963.66
475.48	9823.23
475.66	10153.24
475.84	10059.62
476.02	9856.00
476.20	10230.48
476.38	10324.10
476.56	10597.95
476.74	10436.45
476.92	10509.01
477.10	10427.09
477.28	10600.29
477.46	10562.84
477.64	10949.03
477.82	10832.00
478.00	11066.05
478.18	11044.99
478.36	11005.20
478.54	11204.14
478.72	11187.76
478.90	11314.15
479.08	11566.93
479.26	11569.27
479.44	11485.01
479.62	11573.95
479.80	11810.34
479.98	11892.26
480.16	12053.76
480.34	11819.71
480.52	12184.83
480.70	12079.50
480.88	11838.43
481.06	12182.49
481.24	12208.23
481.41	12638.89
481.59	12800.39
481.77	12800.39
481.95	12751.24
482.13	12910.40
482.31	12959.55
482.49	13259.13
482.67	13200.62
482.85	13177.22
483.03	13617.24
483.21	13584.47
483.39	13547.02
483.57	13525.96
483.74	13738.94
483.92	13958.96
484.10	13741.29
484.28	13994.06
484.46	14284.29
484.64	14780.48
484.82	14326.42
485.00	14544.09
485.18	14757.08
485.35	14815.59
485.53	14647.07
485.71	14794.53
485.89	15108.16
486.07	14918.57
486.25	15126.88
486.43	15449.88
486.61	15236.89
486.78	15777.55
486.96	15651.16
487.14	15815.00
487.32	15763.51
487.50	15910.96
487.68	16411.84
487.85	16355.66
488.03	16280.77
488.21	16542.91
488.39	16606.10
488.57	16809.73
488.75	17034.42
488.92	17305.92
489.10	17378.48
489.28	16903.35
489.46	17219.32
489.64	17701.47
489.81	17982.34
489.99	17907.44
490.17	17811.48
490.35	18237.45
490.53	18178.94
490.70	18214.05
490.88	18232.77
491.06	18420.02
491.24	18452.78
491.41	18553.43
491.59	18532.36
491.77	18714.92
491.95	19047.28
492.13	19550.49
492.30	19405.38
492.48	19314.10
492.66	19435.81
492.84	19597.31
493.01	19613.69
493.19	19688.59
493.37	20240.95
493.54	20011.58
493.72	20140.31
493.90	20166.06
494.08	20613.10
494.25	20484.37
494.43	20713.74
494.61	21205.25
494.79	20945.45
494.96	20699.70
495.14	21081.21
495.32	21191.21
495.49	21102.27
495.67	21586.76
495.85	21788.05
496.02	21556.33
496.20	21584.42
496.38	22174.24
496.55	22085.30
496.73	22675.11
496.91	22340.41
497.09	22380.20
497.26	22237.43
497.44	22548.72
497.62	22544.04
497.79	22852.99
497.97	22609.58
498.14	22998.10
498.32	22944.27
498.50	23159.60
498.67	23400.68
498.85	23173.64
499.03	23718.99
499.20	23962.40
499.38	23541.11
499.56	23742.39
499.73	24140.29
499.91	24034.96
500.08	24049.00
500.26	23833.68
500.44	24280.72
500.61	24435.19
500.79	23843.04
500.97	24374.34
501.14	24643.50
501.32	24718.40
501.49	24835.42
501.67	24732.44
501.84	24849.47
502.02	24491.37
502.20	25348.00
502.37	25149.06
502.55	25003.94
502.72	25109.27
502.90	25631.21
503.07	25099.90
503.25	25710.78
503.43	25621.84
503.60	25675.68
503.78	25596.10
503.95	25776.32
504.13	26061.87
504.30	26153.15
504.48	25940.16
504.65	26223.36
504.83	26600.19
505.01	26569.76
505.18	25986.97
505.36	26195.28
505.53	26352.09
505.71	26693.81
505.88	26941.91
506.06	26637.64
506.23	26745.30
506.41	26878.71
506.58	27227.45
506.76	27131.49
506.93	27094.04
507.11	27040.21
507.28	27264.90
507.46	27585.55
507.63	27454.48
507.81	27730.67
507.98	27002.76
508.16	27337.46
508.33	27655.77
508.50	27697.90
508.68	27882.80
508.85	28524.11
509.03	28004.51
509.20	28194.09
509.38	28285.37
509.55	28725.39
509.73	28877.53
509.90	28772.21
510.08	28505.38
510.25	28638.80
510.42	28762.84
510.60	28692.63
510.77	29315.21
510.95	29113.92
511.12	29116.26
511.30	28879.87
511.47	29205.20
511.64	29593.73
511.82	29699.06
511.99	29266.06
512.17	29717.78
512.34	29441.60
512.51	30075.88
512.69	30000.99
512.86	29514.16
513.04	29958.86
513.21	29642.88
513.38	29633.52
513.56	30370.79
513.73	29895.66
513.90	30321.64
514.08	30359.09
514.25	30436.33
514.43	30485.48
514.60	30384.83
514.77	30455.05
514.95	30869.33
515.12	30920.82
515.29	30883.37
515.47	31227.43
515.64	31105.72
515.81	31220.41
515.99	31079.97
516.16	30782.73
516.33	31447.44
516.51	31274.24
516.68	31033.16
516.85	31241.47
517.03	31192.32
517.20	31587.87
517.37	31529.36
517.54	31388.92
517.72	31618.30
517.89	31463.82
518.06	31604.25
518.24	31569.15
518.41	31543.40
518.58	31847.67
518.75	31606.59
518.93	31927.25
519.10	32245.56
519.27	32268.97
519.45	32498.34
519.62	32734.73
519.79	32512.38
519.96	32793.25
520.14	32676.22
520.31	32809.63
520.48	32446.85
520.65	32823.67
520.83	33202.84
521.00	33081.13
521.17	32737.07
521.34	33113.90
521.52	33493.07
521.69	33420.51
521.86	33610.09
522.03	33284.76
522.20	33654.56
522.38	34007.98
522.55	33584.35
522.72	33474.34
522.89	34012.66
523.07	33816.06
523.24	34061.82
523.41	33738.82
523.58	33675.63
523.75	34403.53
523.92	34415.24
524.10	34373.11
524.27	34075.86
524.44	34450.35
524.61	34316.93
524.78	34277.15
524.96	34644.61
525.13	34733.55
525.30	35002.71
525.47	34803.77
525.64	34668.02
525.81	34906.75
525.98	34450.35
526.16	34457.37
526.33	34808.45
526.50	34902.07
526.67	34775.68
526.84	34527.58
527.01	34876.32
527.18	35365.49
527.36	34946.54
527.53	35196.98
527.70	35470.82
527.87	35618.27
528.04	35246.13
528.21	35391.24
528.38	35798.49
528.55	35690.83
528.72	36004.46
528.89	35456.78
529.07	35676.79
529.24	35800.83
529.41	36100.42
529.58	35835.94
529.75	35997.44
529.92	36224.47
530.09	36013.82
530.26	36194.04
530.43	36437.46
530.60	36297.03
530.77	36030.21
530.94	36297.03
531.11	36325.11
531.28	36580.23
531.46	36620.02
531.63	36708.96
531.80	36416.40
531.97	36645.77
532.14	36931.31
532.31	36334.48
532.48	36662.15
532.65	37102.17
532.82	36507.68
532.99	37046.00
533.16	36552.15
533.33	37219.20
533.50	37195.79
533.67	37336.23
533.84	36847.05
534.01	37411.12
534.18	37125.58
534.35	37675.60
534.52	37083.45
534.69	37411.12
534.86	37326.86
535.03	37305.80
535.20	37593.68
535.37	37855.82
535.54	38176.48
535.71	37893.27
535.88	37851.14
536.05	37584.32
536.22	37975.19
536.38	37881.57
536.55	37879.23
536.72	37942.42
536.89	38092.22
537.06	38089.88
537.23	37816.04
537.40	38195.20
537.57	38162.43
537.74	38361.38
537.91	38480.75
538.08	38595.43
538.25	37979.87
538.42	38352.02
538.59	38693.74
538.75	37900.29
538.92	38403.51
539.09	38263.08
539.26	38878.64
539.43	38733.53
539.60	38485.43
539.77	38426.92
539.94	38455.00
540.11	38499.47
540.28	38799.06
540.44	38614.16
540.61	38728.84
540.78	38597.77
540.95	39068.22
541.12	39255.46
541.29	38913.75
541.46	38885.66
541.62	39210.99
541.79	39402.92
541.96	38878.64
542.13	39000.35
542.30	39248.44
542.47	39524.63
542.63	39557.39
542.80	39398.24
542.97	40301.68
543.14	40240.83
543.31	39828.90
543.48	39931.88
543.64	40020.82
543.81	40236.15
543.98	40048.91
544.15	39901.45
544.32	39992.73
544.48	40318.07
544.65	40367.22
544.82	40652.76
544.99	39997.41
545.16	40423.39
545.32	39999.76
545.49	40584.89
545.66	40624.68
545.83	40603.61
546.00	40704.26
546.16	40364.88
546.33	40238.49
546.50	40222.11
546.67	40666.81
546.83	40301.68
547.00	40320.41
547.17	40357.86
547.34	40699.58
547.50	40575.53
547.67	40898.52
547.84	40638.72
548.00	40882.14
548.17	40594.25
548.34	40847.03
548.51	41340.88
548.67	40893.84
548.84	41048.32
549.01	40842.35
549.18	41415.78
549.34	41170.02
549.51	40830.65
549.68	41509.40
549.84	41113.85
550.01	41294.07
550.18	41163.00
550.34	41324.50
550.51	41102.15
550.68	41062.36
550.84	40650.42
551.01	41294.07
551.18	41441.53
551.34	41537.49
551.51	41776.22
551.68	41703.67
551.84	42017.30
552.01	41574.94
552.18	41851.12
552.34	41418.12
552.51	41696.64
552.68	41553.87
552.84	42234.97
553.01	41963.46
553.18	41879.21
553.34	41631.11
553.51	41605.36
553.67	41617.07
553.84	42124.96
554.01	42361.36
554.17	42263.05
554.34	42218.58
554.51	42410.51
554.67	42047.72
554.84	42096.88
555.00	41848.78
555.17	41757.50
555.33	42373.06
555.50	42169.43
555.67	42312.20
555.83	42431.57
556.00	42309.86
556.16	42630.52
556.33	42869.25
556.50	42525.19
556.66	42330.93
556.83	42007.94
556.99	42424.55
557.16	42895.00
557.32	42939.47
557.49	42335.61
557.65	42312.20
557.82	42155.39
557.98	42637.54
558.15	42527.53
558.32	42775.63
558.48	42866.91
558.65	42525.19
558.81	42792.01
558.98	42607.11
559.14	42873.93
559.31	42822.44
559.47	42967.55
559.64	42827.12
559.80	42824.78
559.97	43152.46
560.13	42567.32
560.30	42834.14
560.46	43147.78
560.63	42665.63
560.79	43152.46
560.96	43107.99
561.12	42813.08
561.29	42735.84
561.45	43208.63
561.61	43077.56
561.78	43227.35
561.94	42848.19
562.11	42958.19
562.27	43498.86
562.44	42927.77
562.60	43206.29
562.77	43632.27
562.93	42836.48
563.10	43461.41
563.26	43054.15
563.42	43386.51
563.59	43573.75
563.75	43587.80
563.92	43578.43
564.08	43648.65
564.24	43545.67
564.41	43653.33
564.57	43227.35
564.74	43515.24
564.90	43409.92
565.07	43386.51
565.23	43379.49
565.39	43192.25
565.56	43260.12
565.72	43367.79
565.88	43309.27
566.05	43789.08
566.21	43154.80
566.38	43929.51
566.54	43548.01
566.70	43562.05
566.87	44046.54
567.03	44030.16
567.19	44250.17
567.36	43356.08
567.52	43365.45
567.68	43735.25
567.85	43395.87
568.01	43746.95
568.17	43672.06
568.34	43997.39
568.50	43749.29
568.66	43372.47
568.83	43789.08
568.99	43608.86
569.15	43276.51
569.32	43248.42
569.48	43636.95
569.64	43463.75
569.81	43742.27
569.97	43608.86
570.13	43955.26
570.30	43639.29
570.46	44076.97
570.62	43480.13
570.78	43276.51
570.95	43435.66
571.11	43475.45
571.27	43786.74
571.43	43789.08
571.60	43803.13
571.76	43505.88
571.92	44119.10
572.09	43922.49
572.25	43952.92
572.41	43847.60
572.57	43716.53
572.74	43899.09
572.90	44119.10
573.06	43744.61
573.22	44133.14
573.38	43739.93
573.55	43667.37
573.71	43655.67
573.87	43894.41
574.03	43957.60
574.20	43772.70
574.36	43257.78
574.52	44083.99
574.68	44184.63
574.84	44100.37
575.01	44378.90
575.17	44072.29
575.33	44280.60
575.49	44168.25
575.65	44259.53
575.82	44041.86
575.98	44493.58
576.14	44456.14
576.30	43969.30
576.46	43988.03
576.62	44109.74
576.79	43922.49
576.95	43962.28
577.11	44069.95
577.27	43901.43
577.43	44552.10
577.59	43861.64
577.75	44444.43
577.92	43594.82
578.08	44186.97
578.24	43349.06
578.40	44144.84
578.56	44364.85
578.72	43585.46
578.88	44615.29
579.04	44151.87
579.21	43920.15
579.37	44341.45
579.53	44030.16
579.69	43997.39
579.85	44142.50
580.01	44048.88
580.17	44154.21
580.33	44456.14
580.49	44463.16
580.65	43859.30
580.82	44060.58
580.98	44226.76
581.14	44032.50
581.30	44561.46
581.46	44142.50
581.62	44105.06
581.78	44116.76
581.94	44184.63
582.10	44315.70
582.26	44428.05
582.42	44273.57
582.58	44229.10
582.74	43728.23
582.90	43945.90
583.06	44430.39
583.22	44399.96
583.38	44098.03
583.54	44198.68
583.70	44238.47
583.86	44336.77
584.02	43901.43
584.18	44217.40
584.34	43852.28
584.50	44605.93
584.66	43805.47
584.82	44421.03
584.98	44573.16
585.14	44552.10
585.30	44102.71
585.46	44203.36
585.62	43910.79
585.78	44404.64
585.94	44402.30
586.10	44112.08
586.26	43817.17
586.42	44425.71
586.58	44414.01
586.74	44327.41
586.90	44615.29
587.06	43842.92
587.22	44460.82
587.38	44289.96
587.54	44568.48
587.70	44362.51
587.86	44404.64
588.02	44460.82
588.18	44311.02
588.34	44432.73
588.49	43903.77
588.65	44156.55
588.81	44266.55
588.97	43959.94
589.13	44144.84
589.29	44416.35
589.45	44051.22
589.61	44449.11
589.77	44882.11
589.93	44362.51
590.08	44385.92
590.24	44542.74
590.40	44371.88
590.56	44870.41
590.72	44542.74
590.88	44378.90
591.04	44343.79
591.20	44882.11
591.35	44449.11
591.51	44971.05
591.67	44795.51
591.83	44664.44
591.99	44123.78
592.15	44280.60
592.31	44446.77
592.46	44479.54
592.62	44463.16
592.78	44549.76
592.94	44797.85
593.10	44608.27
593.26	44701.89
593.41	44432.73
593.57	44509.97
593.73	44460.82
593.89	44563.80
594.05	44336.77
594.20	44561.46
594.36	44793.17
594.52	44524.01
594.68	44975.73
594.84	44577.84
594.99	44856.37
595.15	44336.77
595.31	44727.64
595.47	44615.29
595.62	44577.84
595.78	44790.83
595.94	44425.71
596.10	44615.29
596.25	44959.35
596.41	44795.51
596.57	44491.24
596.73	44931.26
596.88	44531.03
597.04	44348.47
597.20	44924.24
597.36	44828.28
597.51	44498.26
597.67	44821.26
597.83	44814.24
597.99	44734.66
598.14	44737.00
598.30	44268.89
598.46	44456.14
598.61	44699.55
598.77	44481.88
598.93	44868.07
599.09	44402.30
599.24	45008.50
599.40	44816.58
599.56	44893.82
599.71	44744.02
599.87	44996.80
600.03	44828.28
600.18	44643.38
600.34	44589.55
600.50	44528.69
600.65	44882.11
600.81	45095.10
600.97	45322.13
601.12	45006.16
601.28	45111.49
601.44	44690.19
601.59	44732.32
601.75	44669.12
601.91	44685.51
602.06	44706.57
602.22	44905.52
602.37	44236.12
602.53	44409.32
602.69	45067.02
602.84	44825.94
603.00	44336.77
603.16	44751.04
603.31	44502.95
603.47	44683.17
603.62	44872.75
603.78	44928.92
603.94	44982.76
604.09	44900.84
604.25	44765.09
604.40	44708.91
604.56	44584.86
604.71	44928.92
604.87	44402.30
605.03	44659.76
605.18	44711.25
605.34	44781.47
605.49	44378.90
605.65	44531.03
605.80	44474.86
605.96	44949.99
606.12	44559.12
606.27	44825.94
606.43	44421.03
606.58	45013.18
606.74	44481.88
606.89	44734.66
607.05	44509.97
607.20	44779.13
607.36	44678.49
607.51	45038.93
607.67	44566.14
607.82	44704.23
607.98	44311.02
608.13	44729.98
608.29	44322.72
608.44	44109.74
608.60	43412.26
608.75	44266.55
608.91	44671.46
609.06	44154.21
609.22	44882.11
609.37	44411.67
609.53	44203.36
609.68	44072.29
609.84	44102.71
609.99	44662.10
610.15	44325.07
610.30	44081.65
610.46	44016.11
610.61	44299.32
610.76	44395.28
610.92	44226.76
611.07	44130.80
611.23	44128.46
611.38	44226.76
611.54	43725.89
611.69	44491.24
611.84	43639.29
612.00	43681.42
612.15	43672.06
612.31	44177.61
612.46	44268.89
612.62	44460.82
612.77	44165.91
612.92	43814.83
613.08	43826.53
613.23	44053.56
613.39	43880.36
613.54	43585.46
613.69	43770.36
613.85	43849.94
614.00	44250.17
614.15	44100.37
614.31	44126.12
614.46	44069.95
614.62	43840.57
614.77	43669.72
614.92	43531.62
615.08	43519.92
615.23	43625.25
615.38	43765.68
615.54	43243.74
615.69	43744.61
615.84	43297.57
616.00	43503.54
616.15	43672.06
616.30	43463.75
616.46	43475.45
616.61	43566.73
616.76	43358.42
616.92	43552.69
617.07	43262.46
617.22	43278.85
617.37	43386.51
617.53	43604.18
617.68	42988.62
617.83	43012.02
617.99	43761.00
618.14	43381.83
618.29	43330.34
618.45	43438.00
618.60	43086.92
618.75	43337.36
618.90	43295.23
619.06	43267.14
619.21	43409.92
619.36	42988.62
619.51	43264.80
619.67	43405.23
619.82	43466.09
619.97	43105.65
620.12	43023.73
620.28	42794.36
620.43	43168.84
620.58	43096.28
620.73	43302.25
620.89	42735.84
621.04	43217.99
621.19	43253.10
621.34	42710.10
621.49	42749.88
621.65	42583.71
621.80	43012.02
621.95	42337.95
622.10	42906.70
622.25	42330.93
622.41	42782.65
622.56	42218.58
622.71	42501.79
622.86	42426.89
623.01	42487.74
623.16	42789.67
623.32	42515.83
623.47	42396.46
623.62	42312.20
623.77	42043.04
623.92	42572.00
624.07	42148.37
624.23	42319.23
624.38	42059.43
624.53	42103.90
624.68	42307.52
624.83	42361.36
624.98	42106.24
625.13	41837.08
625.29	42469.02
625.44	42370.72
625.59	42234.97
625.74	41553.87
625.89	41991.55
626.04	41706.01
626.19	42181.13
626.34	42094.53
626.49	42110.92
626.65	41596.00
626.80	41890.91
626.95	42131.98
627.10	41591.32
627.25	41706.01
627.40	41567.91
627.55	41394.71
627.70	41251.94
627.85	41071.72
628.00	41256.62
628.15	41865.16
628.30	41745.80
628.45	41886.23
628.60	42094.53
628.76	41603.02
628.91	41352.58
629.06	41677.92
629.21	41216.83
629.36	41158.32
629.51	41212.15
629.66	41242.58
629.81	41200.45
629.96	41092.79
630.11	41570.25
630.26	41675.58
630.41	41663.88
630.56	41373.65
630.71	41624.09
630.86	41476.63
631.01	41277.69
631.16	40912.56
631.31	41095.13
631.46	40624.68
631.61	41043.63
631.76	41174.70
631.91	41013.21
632.06	40863.41
632.21	41106.83
632.36	41296.41
632.51	40964.06
632.66	40989.80
632.81	40652.76
632.96	40662.13
633.10	40648.08
633.25	40961.72
633.40	40587.23
633.55	41060.02
633.70	40718.30
633.85	40509.99
634.00	40942.99
634.15	41067.04
634.30	40634.04
634.45	40765.11
634.60	40495.95
634.75	40435.10
634.90	40442.12
635.05	40222.11
635.19	40577.87
635.34	40947.67
635.49	40547.44
635.64	39842.94
635.79	39917.84
635.94	39988.05
636.09	40114.44
636.24	40163.59
636.39	39969.33
636.53	39880.39
636.68	39805.49
636.83	40114.44
636.98	40013.80
637.13	40006.78
637.28	40074.65
637.43	40561.48
637.57	40275.94
637.72	39775.06
637.87	40301.68
638.02	40088.70
638.17	39906.13
638.32	39725.91
638.46	39728.25
638.61	39854.64
638.76	39306.96
638.91	39473.13
639.06	39651.02
639.20	39683.78
639.35	39964.65
639.50	39679.10
639.65	39704.85
639.80	40151.89
639.94	39154.82
640.09	39643.99
640.24	39395.90
640.39	39220.36
640.54	39866.34
640.68	39248.44
640.83	39594.84
640.98	39548.03
641.13	39236.74
641.27	39782.09
641.42	39208.65
641.57	39501.22
641.72	39283.55
641.86	39632.29
642.01	38862.26
642.16	38899.70
642.31	38864.60
642.45	39597.18
642.60	38651.61
642.75	39154.82
642.90	39147.80
643.04	39086.95
643.19	38754.59
643.34	39391.22
643.48	38932.47
643.63	39143.12
643.78	38644.59
643.93	39185.25
644.07	38618.84
644.22	38773.31
644.37	38384.79
644.51	38770.97
644.66	38731.18
644.81	38906.73
644.95	38981.62
645.10	38916.09
645.25	38581.39
645.39	38696.08
645.54	39386.54
645.69	38958.22
645.83	38536.92
645.98	38656.29
646.13	38930.13
646.27	38965.24
646.42	38745.23
646.57	38852.89
646.71	38555.64
646.86	38859.91
647.00	38604.80
647.15	38857.57
647.30	38623.52
647.44	38649.27
647.59	38550.96
647.74	37872.21
647.88	37965.83
648.03	38288.82
648.17	38520.54
648.32	38005.62
648.47	38110.94
648.61	38272.44
648.76	38518.20
648.90	38391.81
649.05	38270.10
649.20	37900.29
649.34	38485.43
649.49	38242.01
649.63	38014.98
649.78	37937.74
649.92	38031.36
650.07	38029.02
650.21	38162.43
650.36	37890.93
650.51	37532.83
650.65	37935.40
650.80	38398.83
650.94	38426.92
651.09	37865.19
651.23	37912.00
651.38	37904.98
651.52	37909.66
651.67	37631.13
651.81	38019.66
651.96	37354.95
652.10	37572.62
652.25	37565.60
652.39	37598.37
652.54	37628.79
652.68	37523.47
652.83	37649.86
652.97	37801.99
653.12	37865.19
653.26	37092.81
653.41	37631.13
653.55	37579.64
653.70	37242.60
653.84	37385.38
653.99	37699.01
654.13	37551.56
654.27	37675.60
654.42	37373.67
654.56	37228.56
654.71	37755.18
654.85	37258.99
655.00	37123.24
655.14	36861.10
655.29	37050.68
655.43	36933.65
655.57	36793.22
655.72	36830.67
655.86	36825.99
656.01	37095.15
656.15	36933.65
656.30	36818.97
656.44	36634.06
656.58	36608.32
656.73	36559.17
656.87	36758.11
657.01	36730.03
657.16	36392.99
657.30	36474.91
657.45	36472.57
657.59	36257.24
657.73	36177.66
657.88	36737.05
658.02	36163.62
658.16	36526.40
658.31	36713.64
658.45	36453.84
658.60	36657.47
658.74	36297.03
658.88	36374.27
659.03	36378.95
659.17	35903.82
659.31	36313.41
659.46	36013.82
659.60	36231.49
659.74	36383.63
659.89	35756.36
660.03	36107.44
660.17	36154.26
660.32	35983.40
660.46	36271.28
660.60	35988.08
660.74	36219.79
660.89	35747.00
661.03	35477.84
661.17	35723.60
661.32	34962.92
661.46	35377.20
661.60	35147.82
661.74	35555.08
661.89	35519.97
662.03	35644.02
662.17	35571.46
662.31	35302.30
662.46	35784.45
662.60	35571.46
662.74	35541.03
662.88	35180.59
663.03	35402.94
663.17	35342.09
663.31	34866.96
663.45	34782.70
663.60	35091.65
663.74	34274.80
663.88	34391.83
664.02	34710.14
664.17	34696.10
664.31	34382.47
664.45	34590.78
664.59	34721.85
664.73	34782.70
664.88	34424.60
665.02	34249.06
665.16	34370.77
665.30	34539.29
665.44	34424.60
665.59	33848.83
665.73	34199.91
665.87	33654.56
666.01	34115.65
666.15	33930.75
666.29	34092.24
666.44	34017.35
666.58	33919.04
666.72	33832.44
666.86	33628.82
667.00	33778.61
667.14	33869.89
667.28	33528.17
667.43	33448.60
667.57	33338.59
667.71	33420.51
667.85	33446.26
667.99	33460.30
668.13	33371.36
668.27	33259.01
668.41	33476.68
668.56	32980.49
668.70	33207.52
668.84	33062.41
668.98	33041.34
669.12	32924.32
669.26	33069.43
669.40	32531.11
669.54	33109.22
669.68	33099.86
669.82	32755.80
669.96	32533.45
670.10	32446.85
670.25	33017.94
670.39	32830.69
670.53	32034.91
670.67	31945.97
670.81	32547.49
670.95	32540.47
671.09	32147.26
671.23	32552.17
671.37	32486.64
671.51	32388.33
671.65	32177.68
671.79	31686.17
671.93	31728.30
672.07	31824.26
672.21	32081.72
672.35	31597.23
672.49	31835.97
672.63	31704.90
672.77	31388.92
672.91	31517.65
673.05	31262.54
673.19	31147.85
673.33	31236.79
673.47	30995.71
673.61	31115.08
673.75	30948.90
673.89	30946.56
674.03	30771.02
674.17	30410.58
674.31	31096.36
674.45	30595.48
674.59	30682.08
674.73	30801.45
674.87	30352.07
675.01	30628.25
675.15	30543.99
675.29	30398.88
675.43	30361.43
675.56	30462.07
675.70	30188.23
675.84	30010.35
675.98	29134.99
676.12	29942.47
676.26	29685.01
676.40	29708.42
676.54	29689.70
676.68	29603.10
676.82	28793.27
676.96	29560.97
677.10	29022.64
677.23	29436.92
677.37	28931.36
677.51	29151.37
677.65	29359.68
677.79	28374.31
677.93	28975.83
678.07	28507.72
678.21	28751.14
678.34	28388.36
678.48	28596.67
678.62	28369.63
678.76	28217.50
678.90	28411.76
679.04	28243.24
679.18	27955.36
679.31	27620.66
679.45	28023.23
679.59	27297.67
679.73	27190.00
679.87	27695.56
680.00	27861.74
680.14	27030.85
680.28	27147.87
680.42	27449.80
680.56	27278.94
680.70	27267.24
680.83	26792.11
680.97	26813.18
681.11	26771.05
681.25	26843.60
681.39	26654.02
681.52	26501.89
681.66	26396.56
681.80	26443.37
681.94	26312.30
682.07	26539.33
682.21	26441.03
682.35	26054.84
682.49	26141.44
682.62	26288.90
682.76	26302.94
682.90	25816.11
683.04	25982.29
683.17	25778.66
683.31	25724.83
683.45	25930.80
683.59	25458.01
683.72	25238.00
683.86	24809.68
684.00	24931.39
684.13	24910.32
684.27	25729.51
684.41	24922.02
684.55	24767.55
684.68	24748.82
684.82	24645.84
684.96	25144.38
685.09	24278.38
685.23	24329.87
685.37	24276.04
685.50	24584.99
685.64	24304.12
685.78	24053.69
685.91	23840.70
686.05	24156.67
686.19	23613.66
686.32	23538.77
686.46	23513.02
686.60	23309.40
686.73	23704.95
686.87	23716.65
687.01	23187.69
687.14	23360.89
687.28	23077.68
687.42	23105.77
687.55	22806.18
687.69	22864.69
687.82	22555.74
687.96	22717.24
688.10	22658.73
688.23	22834.27
688.37	22436.38
688.50	22286.58
688.64	22113.38
688.78	21766.98
688.91	22209.34
689.05	21933.16
689.18	21965.93
689.32	21624.21
689.46	21921.46
689.59	21621.87
689.73	21898.05
689.86	21771.66
690.00	21837.20
690.13	21720.17
690.27	21432.29
690.41	21221.64
690.54	21469.73
690.68	21291.85
690.81	21102.27
690.95	20563.95
691.08	20798.00
691.22	20896.30
691.35	20744.17
691.49	20779.28
691.62	20765.23
691.76	20720.76
691.89	20416.49
692.03	20542.88
692.16	20119.24
692.30	19943.70
692.43	19981.15
692.57	20018.60
692.70	19868.81
692.84	19789.23
692.97	19899.23
693.11	19601.99
693.24	19632.41
693.38	19473.26
693.51	19346.87
693.65	19389.00
693.78	19517.73
693.92	19515.39
694.05	19356.23
694.19	18956.00
694.32	18948.98
694.45	18871.74
694.59	18876.42
694.72	18892.80
694.86	18515.98
694.99	18630.66
695.13	19016.85
695.26	18527.68
695.39	18263.20
695.53	18094.68
695.66	18616.62
695.80	18178.94
695.93	18134.47
696.07	17972.97
696.20	18033.83
696.33	18087.66
696.47	17942.55
696.60	17788.07
696.73	17745.94
696.87	17528.27
697.00	17441.67
697.14	17823.18
697.27	17561.04
697.40	17558.70
697.54	17266.13
697.67	17324.65
697.80	17261.45
697.94	16896.33
698.07	16961.86
698.21	16837.81
698.34	17186.55
698.47	16769.94
698.61	16737.17
698.74	16425.88
698.87	16596.74
699.01	16496.10
699.14	16414.18
699.27	16283.11
699.40	16248.00
699.54	16084.16
699.67	15941.39
699.80	15861.81
699.94	16032.67
700.07	16067.78
700.20	15669.89
700.34	16006.92
700.47	15871.17
700.60	15859.47
700.73	15536.48
700.87	15871.17
701.00	15492.01
701.13	15403.07
701.26	15309.44
701.40	15260.29
701.53	15007.52
701.66	14937.30
701.79	15349.23
701.93	14913.89
702.06	14544.09
702.19	14813.25
702.32	14775.80
702.46	14705.59
702.59	14555.79
702.72	14675.16
702.85	14455.15
702.99	14572.18
703.12	14459.83
703.25	14604.94
703.38	14513.66
703.51	14181.31
703.65	14216.41
703.78	14272.59
703.91	14115.77
704.04	14052.58
704.17	13975.34
704.31	14087.68
704.44	13518.93
704.57	13783.41
704.70	13317.65
704.83	13481.49
704.96	13540.00
705.10	13877.04
705.23	13951.93
>>>>>End Processed Spectral Data<<<<<
