SpectraSuite Data File
++++++++++++++++++++++++++++++++++++
Date: Fri Oct 25 10:44:36 EDT 2013
User: price-jones
Dark Spectrum Present: No
Reference Spectrum Present: No
Number of Sampled Component Spectra: 1
Spectrometers: USB2+H05261
Integration Time (usec): 100000 (USB2+H05261)
Spectra Averaged: 1 (USB2+H05261)
Boxcar Smoothing: 0 (USB2+H05261)
Correct for Electrical Dark: No (USB2+H05261)
Strobe/Lamp Enabled: No (USB2+H05261)
Correct for Detector Non-linearity: No (USB2+H05261)
Correct for Stray Light: No (USB2+H05261)
Number of Pixels in Processed Spectrum: 2048
>>>>>Begin Processed Spectral Data<<<<<
365.73	102.98
365.92	102.98
366.12	102.98
366.32	49.15
366.52	35.11
366.72	23.41
366.91	2.34
367.11	23.41
367.31	25.75
367.51	70.22
367.70	11.70
367.90	124.05
368.10	4.68
368.30	21.06
368.49	44.47
368.69	93.62
368.89	14.04
369.09	60.85
369.28	119.37
369.48	107.66
369.68	88.94
369.87	53.83
370.07	46.81
370.27	138.09
370.47	201.29
370.66	351.08
370.86	376.83
371.06	395.55
371.25	428.32
371.45	465.77
371.65	437.68
371.84	404.91
372.04	475.13
372.24	477.47
372.44	341.72
372.63	418.96
372.83	463.43
373.03	379.17
373.22	456.40
373.42	559.39
373.62	496.19
373.81	526.62
374.01	470.45
374.21	547.69
374.40	561.73
374.60	540.66
374.79	561.73
374.99	521.94
375.19	517.26
375.38	510.24
375.58	580.45
375.78	512.58
375.97	629.60
376.17	671.73
376.37	594.50
376.56	617.90
376.76	589.82
376.95	528.96
377.15	571.09
377.35	538.32
377.54	613.22
377.74	620.24
377.93	589.82
378.13	653.01
378.33	594.50
378.52	547.69
378.72	638.97
378.91	613.22
379.11	573.43
379.31	655.35
379.50	573.43
379.70	603.86
379.89	704.50
380.09	638.97
380.28	641.31
380.48	683.44
380.68	636.63
380.87	608.54
381.07	685.78
381.26	650.67
381.46	629.60
381.65	636.63
381.85	617.90
382.04	674.07
382.24	681.10
382.43	697.48
382.63	664.71
382.83	732.59
383.02	657.69
383.22	748.97
383.41	678.76
383.61	676.41
383.80	751.31
384.00	737.27
384.19	744.29
384.39	767.70
384.58	727.91
384.78	732.59
384.97	765.36
385.17	760.67
385.36	662.37
385.56	720.88
385.75	741.95
385.95	709.18
386.14	685.78
386.34	798.12
386.53	720.88
386.72	702.16
386.92	777.06
387.11	734.93
387.31	800.46
387.50	802.80
387.70	816.85
387.89	851.96
388.09	835.57
388.28	781.74
388.48	844.93
388.67	880.04
388.86	826.21
389.06	854.30
389.25	847.27
389.45	894.08
389.64	840.25
389.84	943.24
390.03	901.11
390.22	929.19
390.42	908.13
390.61	908.13
390.81	873.02
391.00	954.94
391.19	1004.09
391.39	1071.97
391.58	931.53
391.78	985.37
391.97	985.37
392.16	933.87
392.36	931.53
392.55	959.62
392.75	983.02
392.94	889.40
393.13	1020.47
393.33	957.28
393.52	1036.86
393.71	1008.77
393.91	983.02
394.10	1004.09
394.29	1029.84
394.49	1046.22
394.68	1167.93
394.88	1050.90
395.07	1118.78
395.26	1121.12
395.46	1153.88
395.65	1151.54
395.84	1081.33
396.04	1238.14
396.23	1088.35
396.42	1055.58
396.62	1128.14
396.81	1116.44
397.00	1249.85
397.19	1149.20
397.39	1226.44
397.58	1191.33
397.77	1158.57
397.97	1240.48
398.16	1263.89
398.35	1275.59
398.55	1270.91
398.74	1324.74
398.93	1355.17
399.12	1291.98
399.32	1301.34
399.51	1350.49
399.70	1430.07
399.90	1352.83
400.09	1423.05
400.28	1427.73
400.47	1362.19
400.67	1521.35
400.86	1460.49
401.05	1472.20
401.24	1523.69
401.44	1453.47
401.63	1514.33
401.82	1476.88
402.01	1500.28
402.21	1589.22
402.40	1507.30
402.59	1582.20
402.78	1586.88
402.97	1479.22
403.17	1614.97
403.36	1598.59
403.55	1654.76
403.74	1647.74
403.93	1561.14
404.13	1645.40
404.32	1607.95
404.51	1605.61
404.70	1757.74
404.89	1584.54
405.09	1692.21
405.28	1659.44
405.47	1741.36
405.66	1781.15
405.85	1825.62
406.05	1781.15
406.24	1755.40
406.43	1877.11
406.62	1839.66
406.81	1863.07
407.00	1877.11
407.20	1905.20
407.39	1961.37
407.58	2003.50
407.77	1907.54
407.96	1933.28
408.15	1975.41
408.34	1914.56
408.54	2031.58
408.73	1991.80
408.92	2026.90
409.11	2165.00
409.30	2038.61
409.49	2026.90
409.68	2160.31
409.87	2073.71
410.07	2139.25
410.26	2120.53
410.45	2127.55
410.64	2127.55
410.83	2228.19
411.02	2289.04
411.21	2284.36
411.40	2366.28
411.59	2326.49
411.78	2277.34
411.98	2345.22
412.17	2340.54
412.36	2359.26
412.55	2480.97
412.74	2537.14
412.93	2478.63
413.12	2305.43
413.31	2593.31
413.50	2544.16
413.69	2576.93
413.88	2630.76
414.07	2637.78
414.26	2633.10
414.45	2682.25
414.64	2670.55
414.83	2778.22
415.02	2832.05
415.22	2782.90
415.41	2747.79
415.60	2829.71
415.79	2806.30
415.98	2944.39
416.17	2864.82
416.36	2766.51
416.55	2857.79
416.74	2850.77
416.93	2939.71
417.12	2932.69
417.31	2951.42
417.50	2951.42
417.69	3007.59
417.88	3087.17
418.07	3042.70
418.26	3145.68
418.45	3124.62
418.64	3288.45
418.83	3162.06
419.02	3098.87
419.21	3339.94
419.39	3274.41
419.58	3260.37
419.77	3117.59
419.96	3164.40
420.15	3335.26
420.34	3396.12
420.53	3332.92
420.72	3454.63
420.91	3419.52
421.10	3403.14
421.29	3478.04
421.48	3454.63
421.67	3559.95
421.86	3503.78
422.05	3501.44
422.24	3342.28
422.43	3506.12
422.61	3482.72
422.80	3569.32
422.99	3588.04
423.18	3543.57
423.37	3611.45
423.56	3630.17
423.75	3566.98
423.94	3492.08
424.13	3433.57
424.32	3398.46
424.50	3625.49
424.69	3728.47
424.88	3613.79
425.07	3461.65
425.26	3459.31
425.45	3459.31
425.64	3531.87
425.83	3435.91
426.01	3808.05
426.20	3630.17
426.39	3557.61
426.58	3620.81
426.77	3548.25
426.96	3651.24
427.15	3581.02
427.33	3623.15
427.52	3681.66
427.71	3803.37
427.90	3864.22
428.09	3873.59
428.28	3845.50
428.46	3611.45
428.65	3794.01
428.84	3880.61
429.03	3927.42
429.22	3761.24
429.40	3829.12
429.59	3810.39
429.78	3599.74
429.97	3684.00
430.16	3733.15
430.34	3768.26
430.53	3798.69
430.72	3908.69
430.91	4053.81
431.10	4098.28
431.28	4152.11
431.47	4084.23
431.66	4231.69
431.85	4056.15
432.03	4175.52
432.22	4259.78
432.41	4128.70
432.60	4128.70
432.79	4327.65
432.97	4315.95
433.16	4379.14
433.35	4301.90
433.54	4131.05
433.72	4306.59
433.91	4341.69
434.10	4367.44
434.28	4285.52
434.47	4519.57
434.66	4407.23
434.85	4568.73
435.03	4409.57
435.22	4489.15
435.41	4688.09
435.59	4573.41
435.78	4507.87
435.97	4599.15
436.16	4524.26
436.34	4610.86
436.53	4648.30
436.72	4812.14
436.90	4498.51
437.09	4767.67
437.28	4606.17
437.46	4739.58
437.65	4732.56
437.84	4669.37
438.02	4784.06
438.21	4828.53
438.40	4533.62
438.58	4828.53
438.77	4959.60
438.96	4894.06
439.14	5111.73
439.33	5039.17
439.52	5025.13
439.70	5149.18
439.89	5118.75
440.08	5039.17
440.26	5305.99
440.45	5217.05
440.63	5270.89
440.82	5371.53
441.01	5385.57
441.19	5380.89
441.38	5544.73
441.57	5476.85
441.75	5661.76
441.94	5778.78
442.12	5612.60
442.31	5591.54
442.50	5678.14
442.68	5652.39
442.87	5785.80
443.05	5760.06
443.24	5856.02
443.43	5797.51
443.61	6038.58
443.80	5930.92
443.98	5818.57
444.17	5614.95
444.35	5996.45
444.54	5809.21
444.73	5956.66
444.91	5830.27
445.10	5841.98
445.28	5956.66
445.47	5757.72
445.65	5713.25
445.84	5806.87
446.02	6108.80
446.21	5966.03
446.39	5942.62
446.58	6181.35
446.77	5928.58
446.95	5863.04
447.14	6054.97
447.32	6139.23
447.51	5928.58
447.69	6038.58
447.88	6019.86
448.06	5968.37
448.25	6038.58
448.43	5982.41
448.62	6237.53
448.80	6069.01
448.99	6038.58
449.17	6298.38
449.36	6251.57
449.54	6265.61
449.73	6567.54
449.91	6298.38
450.10	6324.13
450.28	6427.11
450.46	6450.52
450.65	6712.66
450.83	6516.05
451.02	6534.78
451.20	6497.33
451.39	6534.78
451.57	6586.27
451.76	6401.37
451.94	6635.42
452.13	6696.27
452.31	6576.91
452.49	6359.24
452.68	6466.90
452.86	6590.95
453.05	6682.23
453.23	6609.67
453.42	6492.65
453.60	6675.21
453.78	6801.60
453.97	6705.63
454.15	6656.48
454.34	6691.59
454.52	6707.98
454.70	6841.39
454.89	6963.09
455.07	6883.52
455.26	6918.62
455.44	7070.76
455.62	6827.34
455.81	7056.72
455.99	7140.97
456.17	7129.27
456.36	7014.59
456.54	7307.15
456.73	7274.38
456.91	7339.92
457.09	7290.77
457.28	7627.81
457.46	7143.32
457.64	7279.07
457.83	7529.50
458.01	7171.40
458.19	7737.81
458.38	7431.20
458.56	7370.35
458.74	7510.78
458.93	7487.37
459.11	7583.34
459.29	7557.59
459.48	7606.74
459.66	7588.02
459.84	7616.10
460.03	7838.45
460.21	7836.11
460.39	7576.31
460.57	7616.10
460.76	7747.17
460.94	7925.05
461.12	7953.14
461.31	7801.01
461.49	7918.03
461.67	7836.11
461.85	8021.02
462.04	7768.24
462.22	7990.59
462.40	8128.68
462.59	8116.98
462.77	8030.38
462.95	8006.97
463.13	7992.93
463.32	8060.80
463.50	8077.19
463.68	8109.96
463.86	8194.22
464.05	7988.25
464.23	8086.55
464.41	8180.17
464.59	8203.58
464.78	8472.74
464.96	8262.09
465.14	8217.62
465.32	8439.97
465.50	8409.54
465.69	8308.90
465.87	8414.23
466.05	8318.26
466.23	8320.60
466.41	8428.27
466.60	8617.85
466.78	8341.67
466.96	8360.39
467.14	8435.29
467.32	8716.16
467.51	8395.50
467.69	8402.52
467.87	8571.04
468.05	8624.87
468.23	8486.78
468.41	8613.17
468.60	8762.97
468.78	8762.97
468.96	8919.78
469.14	8905.74
469.32	8990.00
469.50	8641.26
469.69	9029.79
469.87	9025.11
470.05	8870.63
470.23	9029.79
470.41	8957.23
470.59	9174.90
470.77	9001.70
470.95	8917.44
471.14	9036.81
471.32	8997.02
471.50	9329.38
471.68	9341.08
471.86	9383.21
472.04	9408.95
472.22	9734.29
472.40	9493.21
472.58	9458.10
472.77	9614.92
472.95	9598.54
473.13	9968.34
473.31	9570.45
473.49	9666.41
473.67	9785.78
473.85	9778.76
474.03	10083.03
474.21	10352.19
474.39	9980.04
474.57	10204.74
474.75	10225.80
474.93	10188.35
475.12	10113.45
475.30	10375.59
475.48	10202.40
475.66	10132.18
475.84	10434.11
476.02	10296.02
476.20	10656.46
476.38	10675.18
476.56	10794.55
476.74	10729.02
476.92	10633.05
477.10	10932.64
477.28	11145.63
477.46	10998.18
477.64	11066.05
477.82	11138.61
478.00	11461.60
478.18	11400.75
478.36	11580.97
478.54	11726.08
478.72	11470.97
478.90	11698.00
479.08	12180.15
479.26	12074.82
479.44	12123.98
479.62	12222.28
479.80	12292.49
479.98	12233.98
480.16	12638.89
480.34	12351.01
480.52	12578.04
480.70	12692.73
480.88	12468.03
481.06	12512.50
481.24	12578.04
481.41	12989.97
481.59	13247.43
481.77	13209.98
481.95	13160.83
482.13	13582.13
482.31	13504.89
482.49	13806.82
482.67	13837.25
482.85	13727.24
483.03	13696.82
483.21	13965.98
483.39	14441.11
483.57	14171.94
483.74	14284.29
483.92	14366.21
484.10	14188.33
484.28	14387.27
484.46	14728.99
484.64	15222.84
484.82	14668.14
485.00	14787.50
485.18	15264.97
485.35	15328.17
485.53	15075.39
485.71	15030.92
485.89	15365.62
486.07	15435.83
486.25	15466.26
486.43	15761.17
486.61	15599.67
486.78	16109.91
486.96	16149.70
487.14	16224.59
487.32	16308.85
487.50	16592.06
487.68	16613.12
487.85	16898.67
488.03	17041.44
488.21	17399.54
488.39	17179.53
488.57	17240.39
488.75	17525.93
488.92	17956.59
489.10	17867.65
489.28	17811.48
489.46	18171.92
489.64	18059.57
489.81	18750.03
489.99	18714.92
490.17	19030.90
490.35	18735.99
490.53	18735.99
490.70	18838.97
490.88	19026.21
491.06	18948.98
491.24	18925.57
491.41	19234.52
491.59	19077.71
491.77	19208.78
491.95	19740.08
492.13	19960.09
492.30	19971.79
492.48	20077.12
492.66	20266.70
492.84	20187.12
493.01	20547.56
493.19	19946.05
493.37	20606.08
493.54	20510.11
493.72	20641.18
493.90	21099.93
494.08	20964.18
494.25	21329.30
494.43	21329.30
494.61	21326.96
494.79	21462.71
494.96	21521.23
495.14	21678.04
495.32	21694.43
495.49	21972.95
495.67	21912.10
495.85	22342.75
496.02	22487.87
496.20	22485.53
496.38	22618.94
496.55	22735.96
496.73	23197.05
496.91	22530.00
497.09	22834.27
497.26	23108.11
497.44	23538.77
497.62	22995.76
497.79	23592.60
497.97	23398.34
498.14	23740.05
498.32	23915.59
498.50	23477.91
498.67	24086.45
498.85	24201.14
499.03	24102.84
499.20	24292.42
499.38	24697.33
499.56	24437.53
499.73	24730.10
499.91	24535.84
500.08	24797.98
500.26	24334.55
500.44	24589.67
500.61	24837.76
500.79	24994.58
500.97	25195.87
501.14	25015.65
501.32	25029.69
501.49	25242.68
501.67	25631.21
501.84	25708.44
502.02	25223.95
502.20	25954.20
502.37	26019.74
502.55	26316.98
502.72	26118.04
502.90	26071.23
503.07	26073.57
503.25	26426.99
503.43	26099.31
503.60	26544.02
503.78	25914.41
503.95	26647.00
504.13	26747.64
504.30	26787.43
504.48	27122.13
504.65	26862.33
504.83	27314.05
505.01	27171.28
505.18	27096.38
505.36	27798.54
505.53	27438.10
505.71	27777.48
505.88	27463.85
506.06	27351.50
506.23	27541.08
506.41	27847.69
506.58	27463.85
506.76	27768.12
506.93	28098.13
507.11	27812.59
507.28	28151.96
507.46	28254.95
507.63	27892.16
507.81	28472.62
507.98	28093.45
508.16	28673.90
508.33	28458.57
508.50	28816.68
508.68	28730.08
508.85	29057.75
509.03	28861.15
509.20	29017.96
509.38	29261.38
509.55	29268.40
509.73	29308.19
509.90	29261.38
510.08	29177.12
510.25	29560.97
510.42	29621.82
510.60	29771.61
510.77	29640.54
510.95	29654.59
511.12	29867.58
511.30	29729.48
511.47	29984.60
511.64	29968.22
511.82	30331.00
511.99	30323.98
512.17	30167.16
512.34	30218.66
512.51	30057.16
512.69	30892.73
512.86	30438.67
513.04	30808.47
513.21	30906.77
513.38	30347.39
513.56	30801.45
513.73	30529.95
513.90	31051.89
514.08	31189.98
514.25	30960.61
514.43	31487.23
514.60	31412.33
514.77	31449.78
514.95	31796.18
515.12	31489.57
515.29	31105.72
515.47	31838.31
515.64	31929.59
515.81	31608.93
515.99	31611.28
516.16	32077.04
516.33	31613.62
516.51	32006.83
516.68	31632.34
516.85	31447.44
517.03	32334.50
517.20	32233.86
517.37	32467.91
517.54	32451.53
517.72	32027.89
517.89	32102.79
518.06	31981.08
518.24	32423.44
518.41	32299.39
518.58	32552.17
518.75	32814.31
518.93	32570.90
519.10	33127.94
519.27	32816.65
519.45	32725.37
519.62	33041.34
519.79	33427.53
519.96	33591.37
520.14	33666.27
520.31	33024.96
520.48	33591.37
520.65	33308.16
520.83	33851.17
521.00	33497.75
521.17	33710.74
521.34	34029.05
521.52	33790.31
521.69	33975.22
521.86	34462.05
522.03	34345.02
522.20	34270.12
522.38	34806.11
522.55	34595.46
522.72	34499.50
522.89	34246.72
523.07	34642.27
523.24	34293.53
523.41	34562.69
523.58	34677.38
523.75	35009.73
523.92	34974.63
524.10	34993.35
524.27	34923.13
524.44	35257.83
524.61	35005.05
524.78	35257.83
524.96	35592.53
525.13	35468.48
525.30	35796.15
525.47	35386.56
525.64	35637.00
525.81	35463.80
525.98	35840.62
526.16	35578.48
526.33	35597.21
526.50	35662.74
526.67	35440.39
526.84	35920.20
527.01	35562.10
527.18	35934.24
527.36	35842.96
527.53	36048.93
527.70	36390.65
527.87	36336.82
528.04	36339.16
528.21	36362.56
528.38	36079.36
528.55	36397.67
528.72	36381.29
528.89	36538.10
529.07	36500.65
529.24	36748.75
529.41	36868.12
529.58	36353.20
529.75	36484.27
529.92	37401.76
530.09	36783.86
530.26	36872.80
530.43	37132.60
530.60	36891.52
530.77	36973.44
530.94	37425.17
531.11	37312.82
531.28	37471.98
531.46	37322.18
531.63	37163.03
531.80	37450.91
531.97	37266.01
532.14	37331.54
532.31	37230.90
532.48	37525.81
532.65	37619.43
532.82	37944.76
532.99	37752.84
533.16	37631.13
533.33	38047.75
533.50	38132.01
533.67	38239.67
533.84	37841.78
534.01	37500.06
534.18	38014.98
534.35	38408.19
534.52	38108.60
534.69	38480.75
534.86	38256.06
535.03	38366.06
535.20	38520.54
535.37	38616.50
535.54	38752.25
535.71	38309.89
535.88	38689.06
536.05	38122.65
536.22	39140.78
536.38	38848.21
536.55	38225.63
536.72	38595.43
536.89	38396.49
537.06	38621.18
537.23	39089.29
537.40	38724.16
537.57	39002.69
537.74	39051.84
537.91	39328.02
538.08	39051.84
538.25	39056.52
538.42	39098.65
538.59	39442.71
538.75	39161.84
538.92	39159.50
539.09	39648.68
539.26	39019.07
539.43	39386.54
539.60	38927.79
539.77	39363.13
539.94	39604.20
540.11	39636.97
540.28	39646.33
540.44	39491.86
540.61	39583.14
540.78	39416.96
540.95	39412.28
541.12	39653.36
541.29	39379.51
541.46	39910.82
541.62	39763.36
541.79	39618.25
541.96	39737.62
542.13	40144.87
542.30	39913.16
542.47	40055.93
542.63	40076.99
542.80	40079.33
542.97	40765.11
543.14	40533.40
543.31	40086.36
543.48	40692.55
543.64	41191.09
543.81	40811.92
543.98	40734.68
544.15	40638.72
544.32	40870.43
544.48	41174.70
544.65	41003.85
544.82	41120.87
544.99	40816.60
545.16	41053.00
545.32	41542.17
545.49	41596.00
545.66	41371.31
545.83	41184.07
546.00	41069.38
546.16	40980.44
546.33	40959.38
546.50	41635.79
546.67	41254.28
546.83	40797.88
547.00	41251.94
547.17	41434.50
547.34	41666.22
547.50	41394.71
547.67	41588.98
547.84	41471.95
548.00	41303.43
548.17	41675.58
548.34	41663.88
548.51	41839.42
548.67	41748.14
548.84	41668.56
549.01	41628.77
549.18	41752.82
549.34	41869.84
549.51	41834.74
549.68	41895.59
549.84	42078.15
550.01	42216.24
550.18	41656.85
550.34	42326.25
550.51	42099.22
550.68	42036.02
550.84	41757.50
551.01	42632.86
551.18	42377.74
551.34	42227.95
551.51	42305.18
551.68	42157.73
551.84	42426.89
552.01	42274.76
552.18	42319.23
552.34	41921.34
552.51	42373.06
552.68	41867.50
552.84	42550.94
553.01	42710.10
553.18	42518.17
553.34	42408.17
553.51	42370.72
553.67	42316.89
553.84	42663.28
554.01	42658.60
554.17	42759.25
554.34	42763.93
554.51	42433.91
554.67	43278.85
554.84	42733.50
555.00	42710.10
555.17	42799.04
555.33	43248.42
555.50	42871.59
555.67	43077.56
555.83	42862.23
556.00	43068.20
556.16	43075.22
556.33	42777.97
556.50	43126.71
556.66	43171.18
556.83	42625.84
556.99	43082.24
557.16	43700.14
557.32	43447.36
557.49	43335.02
557.65	43540.99
557.82	43035.43
557.98	43571.41
558.15	43302.25
558.32	43351.40
558.48	43222.67
558.65	42899.68
558.81	43363.11
558.98	43253.10
559.14	43100.97
559.31	43370.13
559.47	43597.16
559.64	43646.31
559.80	43583.12
559.97	43529.28
560.13	43105.65
560.30	43438.00
560.46	43414.60
560.63	43695.46
560.79	43522.26
560.96	43955.26
561.12	44058.24
561.29	44095.69
561.45	43646.31
561.61	43594.82
561.78	43721.21
561.94	43573.75
562.11	43461.41
562.27	43625.25
562.44	43552.69
562.60	43452.05
562.77	44105.06
562.93	44074.63
563.10	43852.28
563.26	43824.19
563.42	43510.56
563.59	43711.84
563.75	43798.44
563.92	44062.93
564.08	43950.58
564.24	43955.26
564.41	43952.92
564.57	44065.27
564.74	43686.10
564.90	43856.96
565.07	44168.25
565.23	43894.41
565.39	44004.41
565.56	43997.39
565.72	44060.58
565.88	44194.00
566.05	43695.46
566.21	43817.17
566.38	43473.11
566.54	43819.51
566.70	44465.50
566.87	44547.42
567.03	44135.48
567.19	44486.56
567.36	44470.18
567.52	44123.78
567.68	44261.87
567.85	44268.89
568.01	44116.76
568.17	44055.90
568.34	44425.71
568.50	43990.37
568.66	43950.58
568.83	43929.51
568.99	43639.29
569.15	44130.80
569.32	44519.33
569.48	43849.94
569.64	44825.94
569.81	44236.12
569.97	44311.02
570.13	44540.39
570.30	44004.41
570.46	44072.29
570.62	43697.80
570.78	43971.64
570.95	44126.12
571.11	43969.30
571.27	44402.30
571.43	44678.49
571.60	44339.11
571.76	43845.26
571.92	44081.65
572.09	44102.71
572.25	44538.05
572.41	43938.88
572.57	44395.28
572.74	44638.70
572.90	44591.89
573.06	44374.22
573.22	44437.41
573.38	44250.17
573.55	44292.30
573.71	44444.43
573.87	44399.96
574.03	44261.87
574.20	44629.34
574.36	44186.97
574.52	44360.17
574.68	44301.66
574.84	44594.23
575.01	44289.96
575.17	44626.99
575.33	44074.63
575.49	44266.55
575.65	44320.38
575.82	44446.77
575.98	44645.72
576.14	44451.45
576.30	44765.09
576.46	44449.11
576.62	44163.57
576.79	44669.12
576.95	44135.48
577.11	44421.03
577.27	44212.72
577.43	44416.35
577.59	44732.32
577.75	44060.58
577.92	44046.54
578.08	44147.18
578.24	43973.98
578.40	44587.21
578.56	44294.64
578.72	44470.18
578.88	44619.97
579.04	44512.31
579.21	44601.25
579.37	44975.73
579.53	44346.13
579.69	44425.71
579.85	44196.34
580.01	44624.65
580.17	44568.48
580.33	44617.63
580.49	44697.21
580.65	44718.28
580.82	44690.19
580.98	44648.06
581.14	44437.41
581.30	44397.62
581.46	44570.82
581.62	44701.89
581.78	44643.38
581.94	44994.46
582.10	44437.41
582.26	44575.50
582.42	44891.48
582.58	44402.30
582.74	44165.91
582.90	44528.69
583.06	44617.63
583.22	44594.23
583.38	44800.19
583.54	45305.75
583.70	44626.99
583.86	44699.55
584.02	44715.93
584.18	44968.71
584.34	44779.13
584.50	44467.84
584.66	44673.81
584.82	44584.86
584.98	45074.04
585.14	44903.18
585.30	44575.50
585.46	44252.51
585.62	44453.79
585.78	44849.35
585.94	43931.86
586.10	44477.20
586.26	44119.10
586.42	44507.63
586.58	44942.97
586.74	44685.51
586.90	44713.59
587.06	44626.99
587.22	45048.29
587.38	44156.55
587.54	44622.31
587.70	45059.99
587.86	44348.47
588.02	44652.74
588.18	45111.49
588.34	44804.88
588.49	44683.17
588.65	44168.25
588.81	44282.94
588.97	44823.60
589.13	44594.23
589.29	44669.12
589.45	44643.38
589.61	44573.16
589.77	44891.48
589.93	44921.90
590.08	44987.44
590.24	44783.81
590.40	45202.77
590.56	45649.81
590.72	44924.24
590.88	45111.49
591.04	44889.13
591.20	45340.86
591.35	45102.12
591.51	45282.34
591.67	44837.64
591.83	44985.10
591.99	44968.71
592.15	44917.22
592.31	45008.50
592.46	44659.76
592.62	44994.46
592.78	44655.08
592.94	45373.63
593.10	44512.31
593.26	44626.99
593.41	45429.80
593.57	44912.54
593.73	45256.60
593.89	45202.77
594.05	44921.90
594.20	44746.36
594.36	45116.17
594.52	45155.96
594.68	45141.91
594.84	44416.35
594.99	45312.77
595.15	44917.22
595.31	44975.73
595.47	44664.44
595.62	45088.08
595.78	45059.99
595.94	45155.96
596.10	45162.98
596.25	45006.16
596.41	45312.77
596.57	45113.83
596.73	45181.70
596.88	44673.81
597.04	45359.58
597.20	45024.89
597.36	45017.86
597.51	45322.13
597.67	45235.53
597.83	45270.64
597.99	45261.28
598.14	45296.39
598.30	44919.56
598.46	45045.95
598.61	45186.38
598.77	44952.33
598.93	44891.48
599.09	45270.64
599.24	45413.41
599.40	45406.39
599.56	45045.95
599.71	45123.19
599.87	45052.97
600.03	45488.31
600.18	44910.20
600.34	45249.58
600.50	45074.04
600.65	45099.78
600.81	45097.44
600.97	45258.94
601.12	45581.93
601.28	44978.07
601.44	44533.37
601.59	45275.32
601.75	45055.31
601.91	44910.20
602.06	45132.55
602.22	45048.29
602.37	45001.48
602.53	45455.54
602.69	45249.58
602.84	44795.51
603.00	44739.34
603.16	44842.32
603.31	45113.83
603.47	45027.23
603.62	44917.22
603.78	44854.03
603.94	45333.84
604.09	45406.39
604.25	45399.37
604.40	44704.23
604.56	45291.71
604.71	45282.34
604.87	45015.52
605.03	44694.87
605.18	44762.75
605.34	44957.01
605.49	44645.72
605.65	45141.91
605.80	44959.35
605.96	45130.21
606.12	45057.65
606.27	45116.17
606.43	45141.91
606.58	45277.66
606.74	45013.18
606.89	44992.12
607.05	44821.26
607.20	45055.31
607.36	44425.71
607.51	44720.62
607.67	44385.92
607.82	44737.00
607.98	44704.23
608.13	44622.31
608.29	44549.76
608.44	44170.59
608.60	44378.90
608.75	44624.65
608.91	44491.24
609.06	44432.73
609.22	44622.31
609.37	44126.12
609.53	44884.45
609.68	44442.09
609.84	44364.85
609.99	44149.53
610.15	44411.67
610.30	44348.47
610.46	44577.84
610.61	44388.26
610.76	44198.68
610.92	44294.64
611.07	44486.56
611.23	44610.61
611.38	44643.38
611.54	44399.96
611.69	44053.56
611.84	44484.22
612.00	44732.32
612.15	44296.98
612.31	44172.93
612.46	44161.23
612.62	44596.57
612.77	44446.77
612.92	44591.89
613.08	44531.03
613.23	44179.95
613.39	44367.20
613.54	43714.19
613.69	44147.18
613.85	44201.02
614.00	44095.69
614.15	44524.01
614.31	44107.40
614.46	44657.42
614.62	43952.92
614.77	44002.07
614.92	43899.09
615.08	43384.17
615.23	43629.93
615.38	44034.84
615.54	43189.91
615.69	43758.66
615.84	43878.02
616.00	44271.23
616.15	43997.39
616.30	43770.36
616.46	43934.20
616.61	43737.59
616.76	43770.36
616.92	43126.71
617.07	43428.64
617.22	43419.28
617.37	43374.81
617.53	43564.39
617.68	43491.83
617.83	43632.27
617.99	43587.80
618.14	43297.57
618.29	43615.88
618.45	43192.25
618.60	43353.74
618.75	43402.89
618.90	43662.69
619.06	43360.76
619.21	43545.67
619.36	43414.60
619.51	43234.38
619.67	43236.72
619.82	43014.37
619.97	43445.02
620.12	43412.26
620.28	43100.97
620.43	42665.63
620.58	42981.60
620.73	43290.55
620.89	43192.25
621.04	43374.81
621.19	43093.94
621.34	43112.67
621.49	43225.01
621.65	43098.62
621.80	42883.30
621.95	42693.71
622.10	42696.05
622.25	42618.81
622.41	42382.42
622.56	42817.76
622.71	42862.23
622.86	42670.31
623.01	42546.26
623.16	42782.65
623.32	42387.10
623.47	42515.83
623.62	42752.23
623.77	42120.28
623.92	42632.86
624.07	42108.58
624.23	42520.51
624.38	42246.67
624.53	42572.00
624.68	42164.75
624.83	42590.73
624.98	42756.91
625.13	42064.11
625.29	42225.60
625.44	42330.93
625.59	42078.15
625.74	41706.01
625.89	41806.65
626.04	41867.50
626.19	42188.16
626.34	41563.23
626.49	41928.36
626.65	42249.01
626.80	42424.55
626.95	41773.88
627.10	41785.58
627.25	42068.79
627.40	41778.56
627.55	41907.29
627.70	41486.00
627.85	41682.60
628.00	41734.09
628.15	41682.60
628.30	41820.69
628.45	42075.81
628.60	41745.80
628.76	42155.39
628.91	41902.61
629.06	41551.53
629.21	41614.72
629.36	41528.13
629.51	41099.81
629.66	41085.76
629.81	41233.22
629.96	40788.52
630.11	41670.90
630.26	41265.99
630.41	41972.83
630.56	41347.90
630.71	41729.41
630.86	41429.82
631.01	40807.24
631.16	41291.73
631.31	41282.37
631.46	40928.95
631.61	40919.59
631.76	41193.43
631.91	40910.22
632.06	41617.07
632.21	41556.21
632.36	41319.82
632.51	41181.73
632.66	41155.98
632.81	40397.65
632.96	40886.82
633.10	40760.43
633.25	40591.91
633.40	41163.00
633.55	40928.95
633.70	40905.54
633.85	40603.61
634.00	40685.53
634.15	40968.74
634.30	40854.05
634.45	40727.66
634.60	40573.19
634.75	41003.85
634.90	40650.42
635.05	40273.60
635.19	40179.98
635.34	40662.13
635.49	40119.12
635.64	40318.07
635.79	39903.79
635.94	40414.03
636.09	40467.86
636.24	40250.19
636.39	40135.51
636.53	40079.33
636.68	40240.83
636.83	40191.68
636.98	40067.63
637.13	40182.32
637.28	40313.39
637.43	40500.63
637.57	40533.40
637.72	39833.58
637.87	40041.88
638.02	39941.24
638.17	40395.31
638.32	40315.73
638.46	39810.17
638.61	39997.41
638.76	39667.40
638.91	40212.74
639.06	39938.90
639.20	39585.48
639.35	40016.14
639.50	39971.67
639.65	40109.76
639.80	40161.25
639.94	39791.45
640.09	40051.25
640.24	39978.69
640.39	39058.86
640.54	39449.73
640.68	40133.17
640.83	39522.29
640.98	39159.50
641.13	39342.06
641.27	39768.04
641.42	39660.38
641.57	39761.02
641.72	39100.99
641.86	39136.10
642.01	39012.05
642.16	38944.17
642.31	39040.14
642.45	39461.43
642.60	39152.48
642.75	38983.96
642.90	39115.03
643.04	38913.75
643.19	39241.42
643.34	39030.77
643.48	38642.24
643.63	38857.57
643.78	38450.32
643.93	38560.33
644.07	38785.02
644.22	38920.77
644.37	38625.86
644.51	38670.33
644.66	39194.61
644.81	38918.43
644.95	39063.54
645.10	39126.74
645.25	39615.91
645.39	38962.90
645.54	38700.76
645.69	38417.55
645.83	38759.27
645.98	39023.75
646.13	38749.91
646.27	38794.38
646.42	38862.26
646.57	38693.74
646.71	38555.64
646.86	38763.95
647.00	39033.11
647.15	38841.19
647.30	38398.83
647.44	38557.99
647.59	38337.98
647.74	38597.77
647.88	38625.86
648.03	38447.98
648.17	38560.33
648.32	37851.14
648.47	38485.43
648.61	38117.96
648.76	38204.56
648.90	38136.69
649.05	38209.25
649.20	38565.01
649.34	38438.62
649.49	38047.75
649.63	37816.04
649.78	38174.14
649.92	38117.96
650.07	38202.22
650.21	38066.47
650.36	37984.55
650.51	38017.32
650.65	38431.60
650.80	38550.96
650.94	37986.89
651.09	38333.29
651.23	38010.30
651.38	37961.15
651.52	37439.21
651.67	37933.06
651.81	37544.53
651.96	37855.82
652.10	37677.94
652.25	37427.51
652.39	37844.12
652.54	37914.34
652.68	37764.54
652.83	37598.37
652.97	37745.82
653.12	37486.02
653.26	37120.90
653.41	37209.84
653.55	37294.10
653.70	36964.08
653.84	37715.39
653.99	37408.78
654.13	37235.58
654.27	37244.94
654.42	37041.32
654.56	37083.45
654.71	37134.94
654.85	37270.69
655.00	37581.98
655.14	36919.61
655.29	36823.65
655.43	36816.63
655.57	36734.71
655.72	36514.70
655.86	36357.88
656.01	36495.97
656.15	36940.68
656.30	36725.35
656.44	36751.09
656.58	36392.99
656.73	36554.49
656.87	36376.61
657.01	36802.58
657.16	36767.48
657.30	36730.03
657.45	36287.67
657.59	36561.51
657.73	35997.44
657.88	36685.56
658.02	37031.96
658.16	36332.14
658.31	36978.12
658.45	36828.33
658.60	36158.94
658.74	36325.11
658.88	36591.94
659.03	36456.18
659.17	36301.71
659.31	36217.45
659.46	36123.83
659.60	35901.48
659.74	36355.54
659.89	36072.34
660.03	35819.56
660.17	36074.68
660.32	35927.22
660.46	36290.01
660.60	35878.07
660.74	36079.36
660.89	36105.10
661.03	35686.15
661.17	35637.00
661.32	35290.60
661.46	35674.45
661.60	35796.15
661.74	35901.48
661.89	35648.70
662.03	35470.82
662.17	35157.19
662.31	35325.71
662.46	35447.41
662.60	35613.59
662.74	35306.98
662.88	35211.02
663.03	34745.25
663.17	35068.25
663.31	34796.74
663.45	34939.52
663.60	35129.10
663.74	34710.14
663.88	34852.92
664.02	34679.72
664.17	34925.47
664.31	34237.36
664.45	34763.98
664.59	34843.56
664.73	34625.89
664.88	34576.73
665.02	34501.84
665.16	34139.05
665.30	34515.88
665.44	34497.16
665.59	34239.70
665.73	34101.61
665.87	34204.59
666.01	34412.90
666.15	34071.18
666.29	34321.62
666.44	33858.19
666.58	33947.13
666.72	33684.99
666.86	33970.54
667.00	33897.98
667.14	33579.67
667.28	33612.43
667.43	33523.49
667.57	33872.23
667.71	33170.07
667.85	33340.93
667.99	33205.18
668.13	33357.32
668.27	33345.61
668.41	33736.48
668.56	33144.33
668.70	33486.04
668.84	33132.62
668.98	32868.14
669.12	32982.83
669.26	32924.32
669.40	32243.22
669.54	32708.99
669.68	32755.80
669.82	32505.36
669.96	32797.93
670.10	32355.57
670.25	32701.96
670.39	32474.93
670.53	32348.54
670.67	32095.77
670.81	32320.46
670.95	32320.46
671.09	32240.88
671.23	31983.42
671.37	32694.94
671.51	31917.89
671.65	31875.76
671.79	31576.17
671.93	31929.59
672.07	31871.07
672.21	32226.84
672.35	31800.86
672.49	31749.37
672.63	31346.79
672.77	31508.29
672.91	31660.43
673.05	31578.51
673.19	31096.36
673.33	31005.08
673.47	31232.11
673.61	30855.28
673.75	30845.92
673.89	30567.40
674.03	30815.49
674.17	30780.39
674.31	30775.70
674.45	30787.41
674.59	30815.49
674.73	30604.84
674.87	30976.99
675.01	30190.57
675.15	30623.57
675.29	30555.69
675.43	30457.39
675.56	30204.61
675.70	29984.60
675.84	29958.86
675.98	29017.96
676.12	29844.17
676.26	29724.80
676.40	29397.13
676.54	29890.98
676.68	29809.06
676.82	29310.53
676.96	29481.39
677.10	29226.27
677.23	29486.07
677.37	29273.08
677.51	29268.40
677.65	29013.28
677.79	28460.91
677.93	28538.15
678.07	28851.78
678.21	28526.45
678.34	28322.82
678.48	28336.87
678.62	28311.12
678.76	27852.38
678.90	27957.70
679.04	27908.55
679.18	28135.58
679.31	27765.78
679.45	27520.02
679.59	27517.68
679.73	27239.15
679.87	27384.27
680.00	27288.31
680.14	27524.70
680.28	27480.23
680.42	26923.18
680.56	27393.63
680.70	27080.00
680.83	27211.07
680.97	27330.44
681.11	26951.27
681.25	26888.07
681.39	26515.93
681.52	26881.05
681.66	26522.95
681.80	26597.85
681.94	26623.59
682.07	26724.24
682.21	26436.35
682.35	26195.28
682.49	25933.14
682.62	26305.28
682.76	25926.11
682.90	26008.03
683.04	25858.24
683.17	25589.08
683.31	24959.47
683.45	25467.37
683.59	25219.27
683.72	25003.94
683.86	25158.42
684.00	24893.94
684.13	24898.62
684.27	24891.60
684.41	24936.07
684.55	24589.67
684.68	24528.81
684.82	24713.72
684.96	24753.51
685.09	24472.64
685.23	24336.89
685.37	24203.48
685.50	24191.78
685.64	24304.12
685.78	23831.33
685.91	23700.26
686.05	23838.36
686.19	23714.31
686.32	23576.22
686.46	23173.64
686.60	23482.59
686.73	23152.58
686.87	23131.51
687.01	23021.51
687.14	23037.89
687.28	22843.63
687.42	22827.24
687.55	23037.89
687.69	22970.02
687.82	22820.22
687.96	22773.41
688.10	22611.92
688.23	22614.26
688.37	21979.97
688.50	22314.67
688.64	22106.36
688.78	22167.21
688.91	21972.95
689.05	22188.28
689.18	22015.08
689.32	21619.53
689.46	21841.88
689.59	21865.28
689.73	21937.84
689.86	21696.77
690.00	21666.34
690.13	21331.64
690.27	21329.30
690.41	21303.56
690.54	20929.07
690.68	20830.77
690.81	20924.39
690.95	20915.03
691.08	20638.84
691.22	20554.58
691.35	20922.05
691.49	20549.90
691.62	20774.60
691.76	20596.71
691.89	20334.57
692.03	20245.63
692.16	20210.53
692.30	19901.58
692.43	19829.02
692.57	19822.00
692.70	20114.56
692.84	20009.24
692.97	19515.39
693.11	19791.57
693.24	19419.42
693.38	18876.42
693.51	19445.17
693.65	19538.79
693.78	19417.08
693.92	19365.59
694.05	19255.59
694.19	19295.38
694.32	19211.12
694.45	19030.90
694.59	18778.12
694.72	18534.70
694.86	18558.11
694.99	18696.20
695.13	18497.25
695.26	18490.23
695.39	18183.62
695.53	18321.71
695.66	18410.65
695.80	18106.38
695.93	18539.38
696.07	17998.72
696.20	17961.27
696.33	17886.37
696.47	17984.68
696.60	17628.92
696.73	17575.08
696.87	17462.74
697.00	17657.00
697.14	17376.14
697.27	17273.15
697.40	17273.15
697.54	17404.22
697.67	17111.66
697.80	17013.35
697.94	17013.35
698.07	16905.69
698.21	16776.96
698.34	16699.72
698.47	16465.67
698.61	16353.32
698.74	16264.38
698.87	16388.43
699.01	15969.48
699.14	16039.69
699.27	16262.04
699.40	16116.93
699.54	15796.28
699.67	15786.91
699.80	16145.02
699.94	15819.68
700.07	15700.31
700.20	15648.82
700.34	15730.74
700.47	15611.37
700.60	15667.55
700.73	15894.58
700.87	15597.33
701.00	15435.83
701.13	15419.45
701.26	15056.67
701.40	15126.88
701.53	15236.89
701.66	15213.48
701.79	15264.97
701.93	14829.63
702.06	14967.73
702.19	14726.65
702.32	14724.31
702.46	14457.49
702.59	14628.35
702.72	14607.28
702.85	14408.34
702.99	14260.88
703.12	14544.09
703.25	14202.37
703.38	14167.26
703.51	13954.27
703.65	14075.98
703.78	14136.84
703.91	14221.10
704.04	13785.76
704.17	13844.27
704.31	13970.66
704.44	13500.21
704.57	13579.79
704.70	13420.63
704.83	13540.00
704.96	13802.14
705.10	13500.21
705.23	13296.58
>>>>>End Processed Spectral Data<<<<<
