SpectraSuite Data File
++++++++++++++++++++++++++++++++++++
Date: Fri Oct 25 10:47:15 EDT 2013
User: price-jones
Dark Spectrum Present: No
Reference Spectrum Present: No
Number of Sampled Component Spectra: 1
Spectrometers: USB2+H05261
Integration Time (usec): 100000 (USB2+H05261)
Spectra Averaged: 1 (USB2+H05261)
Boxcar Smoothing: 0 (USB2+H05261)
Correct for Electrical Dark: No (USB2+H05261)
Strobe/Lamp Enabled: No (USB2+H05261)
Correct for Detector Non-linearity: No (USB2+H05261)
Correct for Stray Light: No (USB2+H05261)
Number of Pixels in Processed Spectrum: 2048
>>>>>Begin Processed Spectral Data<<<<<
365.73	117.03
365.92	117.03
366.12	117.03
366.32	44.47
366.52	35.11
366.72	37.45
366.91	4.68
367.11	65.54
367.31	74.90
367.51	84.26
367.70	60.85
367.90	91.28
368.10	49.15
368.30	60.85
368.49	53.83
368.69	28.09
368.89	51.49
369.09	51.49
369.28	133.41
369.48	91.28
369.68	58.51
369.87	142.77
370.07	128.73
370.27	107.66
370.47	224.69
370.66	306.61
370.86	330.02
371.06	341.72
371.25	484.49
371.45	437.68
371.65	461.09
371.84	423.64
372.04	472.79
372.24	493.85
372.44	477.47
372.63	521.94
372.83	559.39
373.03	528.96
373.22	510.24
373.42	447.04
373.62	566.41
373.81	493.85
374.01	545.34
374.21	550.03
374.40	531.30
374.60	561.73
374.79	547.69
374.99	503.22
375.19	491.51
375.38	552.37
375.58	507.90
375.78	655.35
375.97	559.39
376.17	629.60
376.37	603.86
376.56	524.28
376.76	606.20
376.95	594.50
377.15	664.71
377.35	608.54
377.54	528.96
377.74	554.71
377.93	557.05
378.13	517.26
378.33	674.07
378.52	491.51
378.72	561.73
378.91	624.92
379.11	617.90
379.31	638.97
379.50	599.18
379.70	608.54
379.89	676.41
380.09	624.92
380.28	671.73
380.48	573.43
380.68	613.22
380.87	613.22
381.07	613.22
381.26	653.01
381.46	676.41
381.65	631.94
381.85	669.39
382.04	734.93
382.24	608.54
382.43	709.18
382.63	650.67
382.83	662.37
383.02	657.69
383.22	704.50
383.41	683.44
383.61	711.52
383.80	704.50
384.00	753.65
384.19	781.74
384.39	688.12
384.58	716.20
384.78	739.61
384.97	758.33
385.17	760.67
385.36	699.82
385.56	660.03
385.75	660.03
385.95	760.67
386.14	844.93
386.34	725.57
386.53	732.59
386.72	758.33
386.92	760.67
387.11	866.00
387.31	805.14
387.50	809.83
387.70	858.98
387.89	870.68
388.09	821.53
388.28	805.14
388.48	765.36
388.67	877.70
388.86	861.32
389.06	851.96
389.25	835.57
389.45	870.68
389.64	866.00
389.84	863.66
390.03	851.96
390.22	938.55
390.42	856.64
390.61	875.36
390.81	877.70
391.00	837.91
391.19	912.81
391.39	889.40
391.58	908.13
391.78	903.45
391.97	1011.11
392.16	903.45
392.36	1069.62
392.55	912.81
392.75	952.60
392.94	973.66
393.13	994.73
393.33	898.77
393.52	961.96
393.71	924.51
393.91	992.39
394.10	983.02
394.29	931.53
394.49	940.90
394.68	1093.03
394.88	1025.15
395.07	1008.77
395.26	997.07
395.46	1020.47
395.65	1135.16
395.84	1090.69
396.04	1128.14
396.23	1128.14
396.42	1006.43
396.62	1095.37
396.81	1135.16
397.00	1086.01
397.19	1146.86
397.39	1149.20
397.58	1142.18
397.77	1191.33
397.97	1153.88
398.16	1207.72
398.35	1282.61
398.55	1188.99
398.74	1266.23
398.93	1306.02
399.12	1242.82
399.32	1296.66
399.51	1341.13
399.70	1301.34
399.90	1254.53
400.09	1284.95
400.28	1228.78
400.47	1315.38
400.67	1345.81
400.86	1399.64
401.05	1378.58
401.24	1409.00
401.44	1441.77
401.63	1451.13
401.82	1490.92
402.01	1446.45
402.21	1355.17
402.40	1420.71
402.59	1474.54
402.78	1530.71
402.97	1418.36
403.17	1540.07
403.36	1526.03
403.55	1551.78
403.74	1509.65
403.93	1511.99
404.13	1495.60
404.32	1589.22
404.51	1636.03
404.70	1652.42
404.89	1612.63
405.09	1659.44
405.28	1701.57
405.47	1621.99
405.66	1636.03
405.85	1624.33
406.05	1659.44
406.24	1732.00
406.43	1717.95
406.62	1849.02
406.81	1823.28
407.00	1732.00
407.20	1727.32
407.39	1753.06
407.58	1961.37
407.77	1778.81
407.96	1874.77
408.15	1919.24
408.34	1806.89
408.54	1806.89
408.73	1881.79
408.92	1898.17
409.11	1916.90
409.30	1926.26
409.49	1830.30
409.68	1991.80
409.87	1994.14
410.07	1963.71
410.26	1996.48
410.45	2125.21
410.64	2080.74
410.83	2113.50
411.02	2097.12
411.21	2101.80
411.40	2139.25
411.59	2239.89
411.78	2097.12
411.98	2307.77
412.17	2310.11
412.36	2214.15
412.55	2289.04
412.74	2267.98
412.93	2275.00
413.12	2230.53
413.31	2457.56
413.50	2347.56
413.69	2415.43
413.88	2485.65
414.07	2455.22
414.26	2375.64
414.45	2569.91
414.64	2509.05
414.83	2600.34
415.02	2551.18
415.22	2736.09
415.41	2654.17
415.60	2616.72
415.79	2663.53
415.98	2773.53
416.17	2663.53
416.36	2698.64
416.55	2747.79
416.74	2787.58
416.93	2675.23
417.12	2890.56
417.31	2815.66
417.50	2820.35
417.69	2885.88
417.88	2951.42
418.07	2942.05
418.26	2902.26
418.45	2923.33
418.64	3075.46
418.83	3073.12
419.02	2960.78
419.21	3082.49
419.39	3068.44
419.58	3063.76
419.77	3073.12
419.96	3117.59
420.15	3185.47
420.34	3143.34
420.53	3180.79
420.72	3321.22
420.91	3178.45
421.10	3087.17
421.29	3290.79
421.48	3225.26
421.67	3290.79
421.86	3276.75
422.05	3265.05
422.24	3281.43
422.43	3286.11
422.61	3283.77
422.80	3445.27
422.99	3318.88
423.18	3372.71
423.37	3414.84
423.56	3384.41
423.75	3424.20
423.94	3382.07
424.13	3056.74
424.32	3314.20
424.50	3487.40
424.69	3456.97
424.88	3419.52
425.07	3344.63
425.26	3356.33
425.45	3386.76
425.64	3433.57
425.83	3487.40
426.01	3606.77
426.20	3478.04
426.39	3454.63
426.58	3466.33
426.77	3536.55
426.96	3534.21
427.15	3543.57
427.33	3545.91
427.52	3449.95
427.71	3602.08
427.90	3574.00
428.09	3609.11
428.28	3646.55
428.46	3735.50
428.65	3562.30
428.84	3625.49
429.03	3688.68
429.22	3520.17
429.40	3679.32
429.59	3515.48
429.78	3527.19
429.97	3463.99
430.16	3688.68
430.34	3632.51
430.53	3758.90
430.72	3852.52
430.91	3798.69
431.10	3791.67
431.28	3817.41
431.47	3840.82
431.66	3995.29
431.85	3894.65
432.03	3887.63
432.22	4091.26
432.41	4184.88
432.60	4128.70
432.79	4014.02
432.97	3983.59
433.16	4109.98
433.35	4009.34
433.54	4070.19
433.72	4121.68
433.91	4046.79
434.10	4248.07
434.28	4126.36
434.47	4198.92
434.66	4266.80
434.85	4308.93
435.03	4262.12
435.22	4166.15
435.41	4432.97
435.59	4407.23
435.78	4393.19
435.97	4454.04
436.16	4479.79
436.34	4407.23
436.53	4461.06
436.72	4477.44
436.90	4524.26
437.09	4496.17
437.28	4367.44
437.46	4465.74
437.65	4444.68
437.84	4573.41
438.02	4367.44
438.21	4430.63
438.40	4545.32
438.58	4519.57
438.77	4690.43
438.96	4631.92
439.14	4741.93
439.33	4709.16
439.52	4826.18
439.70	4875.34
439.89	4849.59
440.08	4971.30
440.26	4903.42
440.45	5022.79
440.63	5090.67
440.82	5107.05
441.01	5280.25
441.19	5226.42
441.38	5317.70
441.57	5139.82
441.75	5256.84
441.94	5289.61
442.12	5341.10
442.31	5416.00
442.50	5324.72
442.68	5184.29
442.87	5451.11
443.05	5533.03
443.24	5481.53
443.43	5486.22
443.61	5572.82
443.80	5682.82
443.98	5369.19
444.17	5401.96
444.35	5671.12
444.54	5526.00
444.73	5462.81
444.91	5518.98
445.10	5455.79
445.28	5717.93
445.47	5413.66
445.65	5526.00
445.84	5701.54
446.02	5675.80
446.21	5729.63
446.39	5631.33
446.58	5715.59
446.77	5748.36
446.95	5687.50
447.14	5619.63
447.32	5687.50
447.51	5659.42
447.69	5738.99
447.88	5785.80
448.06	5792.83
448.25	5785.80
448.43	5678.14
448.62	5909.85
448.80	5692.18
448.99	5743.67
449.17	5921.56
449.36	5921.56
449.54	5926.24
449.73	6064.33
449.91	6171.99
450.10	6083.05
450.28	6324.13
450.46	6171.99
450.65	6113.48
450.83	6125.18
451.02	6101.78
451.20	6160.29
451.39	6249.23
451.57	6054.97
451.76	6157.95
451.94	6204.76
452.13	6303.06
452.31	6354.55
452.49	6118.16
452.68	6319.45
452.86	6146.25
453.05	6394.34
453.23	6300.72
453.42	6176.67
453.60	6370.94
453.78	6455.20
453.97	6291.36
454.15	6417.75
454.34	6349.87
454.52	6436.47
454.70	6448.18
454.89	6609.67
455.07	6586.27
455.26	6623.72
455.44	6612.01
455.62	6595.63
455.81	6602.65
455.99	6640.10
456.17	6832.02
456.36	6724.36
456.54	6902.24
456.73	6932.67
456.91	6871.81
457.09	7084.80
457.28	7012.24
457.46	6953.73
457.64	6913.94
457.83	7002.88
458.01	6925.65
458.19	7040.33
458.38	6895.22
458.56	7274.38
458.74	7070.76
458.93	7140.97
459.11	7028.63
459.29	7190.13
459.48	7143.32
459.66	7187.79
459.84	7344.60
460.03	7351.62
460.21	7365.67
460.39	7169.06
460.57	7454.61
460.76	7522.48
460.94	7363.33
461.12	7473.33
461.31	7412.48
461.49	7456.95
461.67	7506.10
461.85	7592.70
462.04	7517.80
462.22	7941.44
462.40	7744.83
462.59	7836.11
462.77	7810.37
462.95	7541.21
463.13	7751.85
463.32	7669.94
463.50	7927.39
463.68	7892.29
463.86	7763.56
464.05	7779.94
464.23	7831.43
464.41	7831.43
464.59	7756.54
464.78	8042.08
464.96	7918.03
465.14	7634.83
465.32	8037.40
465.50	8037.40
465.69	8121.66
465.87	8004.63
466.05	7988.25
466.23	8074.85
466.41	8030.38
466.60	8215.28
466.78	8002.29
466.96	7929.74
467.14	8084.21
467.32	8173.15
467.51	8367.42
467.69	7988.25
467.87	8334.65
468.05	8245.71
468.23	8262.09
468.41	8177.83
468.60	8432.95
468.78	8313.58
468.96	8231.66
469.14	8468.06
469.32	8610.83
469.50	8381.46
469.69	8465.72
469.87	8627.21
470.05	8624.87
470.23	8772.33
470.41	8442.31
470.59	8667.00
470.77	8706.79
470.95	8578.06
471.14	8884.67
471.32	8781.69
471.50	8919.78
471.68	8945.53
471.86	8938.51
472.04	8933.82
472.22	9139.79
472.40	9123.41
472.58	9071.92
472.77	9149.15
472.95	9228.73
473.13	9479.17
473.31	9317.67
473.49	9186.60
473.67	9465.13
473.85	9289.59
474.03	9451.08
474.21	9572.79
474.39	9715.56
474.57	9699.18
474.75	9687.48
474.93	9710.88
475.12	9841.95
475.30	9907.49
475.48	9734.29
475.66	9877.06
475.84	9853.66
476.02	10188.35
476.20	10012.81
476.38	10216.44
476.56	10403.68
476.74	10469.22
476.92	10239.84
477.10	10441.13
477.28	10710.29
477.46	10494.96
477.64	10731.36
477.82	10705.61
478.00	10988.82
478.18	10729.02
478.36	11035.63
478.54	10986.47
478.72	11218.19
478.90	11295.43
479.08	11412.45
479.26	11449.90
479.44	11618.42
479.62	11616.08
479.80	11620.76
479.98	11669.91
480.16	12053.76
480.34	11903.96
480.52	11957.80
480.70	11988.22
480.88	11948.43
481.06	12236.32
481.24	11974.18
481.41	12285.47
481.59	12507.82
481.77	12882.31
481.95	12629.53
482.13	12826.14
482.31	12854.22
482.49	13020.40
482.67	13135.09
482.85	13224.03
483.03	13418.29
483.21	13404.25
483.39	13411.27
483.57	13472.12
483.74	13432.33
483.92	13977.68
484.10	13706.18
484.28	14125.13
484.46	14291.31
484.64	14588.56
484.82	14200.03
485.00	14436.42
485.18	14338.12
485.35	14757.08
485.53	14609.62
485.71	14693.88
485.89	14733.67
486.07	14787.50
486.25	14740.69
486.43	15218.16
486.61	15363.28
486.78	15349.23
486.96	15396.04
487.14	15559.88
487.32	15754.15
487.50	15943.73
487.68	16264.38
487.85	16322.90
488.03	16358.00
488.21	16468.01
488.39	16510.14
488.57	16781.64
488.75	16786.32
488.92	16854.20
489.10	17090.59
489.28	17170.17
489.46	17317.62
489.64	17397.20
489.81	17729.56
489.99	17600.83
490.17	18022.12
490.35	17750.62
490.53	17984.68
490.70	18218.73
490.88	17940.21
491.06	18471.51
491.24	18476.19
491.41	18246.82
491.59	18455.12
491.77	18508.96
491.95	18876.42
492.13	19239.20
492.30	19332.82
492.48	19302.40
492.66	19295.38
492.84	19281.33
493.01	19756.46
493.19	19557.52
493.37	20016.26
493.54	19946.05
493.72	20056.05
493.90	20470.33
494.08	20107.54
494.25	20643.52
494.43	20346.28
494.61	20531.18
494.79	21069.50
494.96	20807.36
495.14	20678.63
495.32	21219.30
495.49	21153.76
495.67	21284.83
495.85	21298.88
496.02	21467.39
496.20	21699.11
496.38	21811.45
496.55	21972.95
496.73	22237.43
496.91	22281.90
497.09	22263.18
497.26	22216.36
497.44	22408.29
497.62	22595.53
497.79	22764.05
497.97	22588.51
498.14	22731.28
498.32	22764.05
498.50	22609.58
498.67	22890.44
498.85	23264.92
499.03	23173.64
499.20	23255.56
499.38	23700.26
499.56	23611.32
499.73	23578.56
499.91	23733.03
500.08	23690.90
500.26	23496.64
500.44	23976.45
500.61	24168.37
500.79	24049.00
500.97	23992.83
501.14	24484.34
501.32	24355.61
501.49	24657.54
501.67	24751.17
501.84	24746.48
502.02	24395.40
502.20	25125.65
502.37	25149.06
502.55	24929.05
502.72	24954.79
502.90	25476.73
503.07	25233.32
503.25	24903.30
503.43	25137.35
503.60	25685.04
503.78	25420.56
503.95	25802.07
504.13	25701.42
504.30	25893.35
504.48	25933.14
504.65	25914.41
504.83	26225.70
505.01	26260.81
505.18	25963.56
505.36	26548.70
505.53	26141.44
505.71	26611.89
505.88	26925.52
506.06	26494.86
506.23	26644.66
506.41	26607.21
506.58	26632.96
506.76	26771.05
506.93	27005.10
507.11	26740.62
507.28	27119.79
507.46	26965.31
507.63	27503.64
507.81	27545.76
507.98	27246.18
508.16	27594.92
508.33	27442.78
508.50	27503.64
508.68	27655.77
508.85	28329.84
509.03	27847.69
509.20	28137.92
509.38	28421.13
509.55	28374.31
509.73	28587.30
509.90	28334.53
510.08	28266.65
510.25	28133.24
510.42	28559.22
510.60	28996.90
510.77	28552.20
510.95	29291.80
511.12	28900.94
511.30	29048.39
511.47	28842.42
511.64	28947.75
511.82	29226.27
511.99	28912.64
512.17	29411.17
512.34	29467.34
512.51	29493.09
512.69	29682.67
512.86	30022.05
513.04	29860.55
513.21	29898.00
513.38	30054.82
513.56	29795.02
513.73	29717.78
513.90	29968.22
514.08	30190.57
514.25	30010.35
514.43	30548.67
514.60	30305.26
514.77	30122.69
514.95	30780.39
515.12	30588.46
515.29	30742.94
515.47	30913.80
515.64	31143.17
515.81	30555.69
515.99	30558.03
516.16	30801.45
516.33	30834.22
516.51	30986.35
516.68	30726.55
516.85	31042.53
517.03	31171.25
517.20	31384.24
517.37	31150.19
517.54	31299.98
517.72	31433.39
517.89	31496.59
518.06	31388.92
518.24	31854.69
518.41	31454.46
518.58	32041.93
518.75	31651.06
518.93	31906.18
519.10	32219.81
519.27	32107.47
519.45	32336.84
519.62	32371.95
519.79	32243.22
519.96	31835.97
520.14	32758.14
520.31	32261.94
520.48	32865.80
520.65	32744.09
520.83	32837.72
521.00	33104.54
521.17	32706.65
521.34	32919.63
521.52	33223.90
521.69	33193.48
521.86	32840.06
522.03	33378.38
522.20	33081.13
522.38	33244.97
522.55	33848.83
522.72	33404.13
522.89	33734.14
523.07	33607.75
523.24	33469.66
523.41	33773.93
523.58	33654.56
523.75	34012.66
523.92	33649.88
524.10	34553.33
524.27	33888.62
524.44	34235.02
524.61	34462.05
524.78	34436.30
524.96	34174.16
525.13	34862.28
525.30	34890.37
525.47	34749.93
525.64	34960.58
525.81	34649.29
525.98	34604.82
526.16	34394.17
526.33	34572.05
526.50	34969.94
526.67	34895.05
526.84	34696.10
527.01	34771.00
527.18	35082.29
527.36	35414.65
527.53	35398.26
527.70	35323.36
527.87	35503.59
528.04	35351.45
528.21	35456.78
528.38	35721.26
528.55	35665.08
528.72	35859.35
528.89	35761.05
529.07	35608.91
529.24	35662.74
529.41	36367.24
529.58	35917.86
529.75	35646.36
529.92	35742.32
530.09	35847.64
530.26	36114.47
530.43	36416.40
530.60	35416.99
530.77	35786.79
530.94	36587.25
531.11	36395.33
531.28	36706.62
531.46	36821.31
531.63	36554.49
531.80	36664.49
531.97	36442.14
532.14	36760.45
532.31	36474.91
532.48	36872.80
532.65	36404.69
532.82	36435.12
532.99	36971.10
533.16	36559.17
533.33	36615.34
533.50	36975.78
533.67	37186.43
533.84	37050.68
534.01	36767.48
534.18	37067.06
534.35	37581.98
534.52	37336.23
534.69	37401.76
534.86	37481.34
535.03	37254.31
535.20	37516.45
535.37	37577.30
535.54	37677.94
535.71	37804.33
535.88	37460.27
536.05	37851.14
536.22	37560.92
536.38	38092.22
536.55	37984.55
536.72	37942.42
536.89	37502.40
537.06	37617.09
537.23	38127.33
537.40	37977.53
537.57	38061.79
537.74	37827.74
537.91	38607.14
538.08	38398.83
538.25	38237.33
538.42	38209.25
538.59	38337.98
538.75	38181.16
538.92	38899.70
539.09	38689.06
539.26	38396.49
539.43	38569.69
539.60	38300.53
539.77	38752.25
539.94	38962.90
540.11	38440.96
540.28	38614.16
540.44	38621.18
540.61	38909.07
540.78	38871.62
540.95	38487.77
541.12	38450.32
541.29	38686.71
541.46	38747.57
541.62	39023.75
541.79	39131.42
541.96	38848.21
542.13	38733.53
542.30	39215.68
542.47	39433.35
542.63	39335.04
542.80	39402.92
542.97	39297.59
543.14	39784.43
543.31	39653.36
543.48	39566.76
543.64	39861.66
543.81	39793.79
543.98	40456.16
544.15	39871.03
544.32	40187.00
544.48	40334.45
544.65	39782.09
544.82	40105.08
544.99	39873.37
545.16	40126.14
545.32	39529.31
545.49	40142.53
545.66	39959.97
545.83	40250.19
546.00	40545.10
546.16	39608.89
546.33	39894.43
546.50	39871.03
546.67	39882.73
546.83	39714.21
547.00	40285.30
547.17	40748.73
547.34	40247.85
547.50	40996.82
547.67	40542.76
547.84	40666.81
548.00	40924.27
548.17	40870.43
548.34	40935.97
548.51	41001.50
548.67	40919.59
548.84	40931.29
549.01	41221.52
549.18	41244.92
549.34	40790.86
549.51	41174.70
549.68	41029.59
549.84	41104.49
550.01	41308.11
550.18	41247.26
550.34	40985.12
550.51	41078.74
550.68	41085.76
550.84	41132.57
551.01	41092.79
551.18	40982.78
551.34	40893.84
551.51	41371.31
551.68	41464.93
551.84	41720.05
552.01	41392.37
552.18	41125.55
552.34	41120.87
552.51	42033.68
552.68	41532.81
552.84	41806.65
553.01	42010.28
553.18	41841.76
553.34	41588.98
553.51	41518.76
553.67	41876.86
553.84	42267.73
554.01	41918.99
554.17	42101.56
554.34	42227.95
554.51	42066.45
554.67	42000.91
554.84	42087.51
555.00	42096.88
555.17	42174.11
555.33	42485.40
555.50	42199.86
555.67	42344.97
555.83	42419.87
556.00	42115.60
556.16	42691.37
556.33	42916.06
556.50	42438.59
556.66	42466.68
556.83	42103.90
556.99	42347.31
557.16	42288.80
557.32	42583.71
557.49	42525.19
557.65	42274.76
557.82	42143.69
557.98	42295.82
558.15	42504.13
558.32	42887.98
558.48	42838.83
558.65	42553.28
558.81	42557.96
558.98	42417.53
559.14	42483.06
559.31	42443.27
559.47	42464.34
559.64	43084.58
559.80	43072.88
559.97	42302.84
560.13	42244.33
560.30	42454.98
560.46	42663.28
560.63	43023.73
560.79	43203.95
560.96	42988.62
561.12	42581.37
561.29	42801.38
561.45	42946.49
561.61	43133.73
561.78	42616.47
561.94	42674.99
562.11	43100.97
562.27	42885.64
562.44	42960.53
562.60	43517.58
562.77	43007.34
562.93	43014.37
563.10	42927.77
563.26	43089.26
563.42	43524.60
563.59	43096.28
563.75	42958.19
563.92	43065.86
564.08	43342.04
564.24	43203.95
564.41	43260.12
564.57	42895.00
564.74	43082.24
564.90	43328.00
565.07	43576.09
565.23	43669.72
565.39	43077.56
565.56	43543.33
565.72	43571.41
565.88	43372.47
566.05	43372.47
566.21	43320.98
566.38	43133.73
566.54	43477.79
566.70	43597.16
566.87	43484.81
567.03	43459.07
567.19	43751.63
567.36	43878.02
567.52	43222.67
567.68	43388.85
567.85	43150.12
568.01	43810.15
568.17	43480.13
568.34	43356.08
568.50	43416.94
568.66	43562.05
568.83	43676.74
568.99	43456.73
569.15	43393.53
569.32	44091.01
569.48	43313.95
569.64	43566.73
569.81	43650.99
569.97	43765.68
570.13	43459.07
570.30	43342.04
570.46	43152.46
570.62	43206.29
570.78	43393.53
570.95	43360.76
571.11	43833.55
571.27	43306.93
571.43	43765.68
571.60	43863.98
571.76	43681.42
571.92	43562.05
572.09	43768.02
572.25	43571.41
572.41	44013.77
572.57	43882.70
572.74	43983.35
572.90	43590.14
573.06	43709.50
573.22	44025.48
573.38	43505.88
573.55	43679.08
573.71	44006.75
573.87	43461.41
574.03	43543.33
574.20	43896.75
574.36	43674.40
574.52	43950.58
574.68	43812.49
574.84	44182.29
575.01	43821.85
575.17	43730.57
575.33	43826.53
575.49	43697.80
575.65	44502.95
575.82	43957.60
575.98	43709.50
576.14	44397.62
576.30	43842.92
576.46	44093.35
576.62	43438.00
576.79	43728.23
576.95	43491.83
577.11	43887.39
577.27	43580.78
577.43	44088.67
577.59	43896.75
577.75	43817.17
577.92	43707.16
578.08	43592.48
578.24	43749.29
578.40	43753.97
578.56	43873.34
578.72	43777.38
578.88	44177.61
579.04	44041.86
579.21	43896.75
579.37	43854.62
579.53	43840.57
579.69	44093.35
579.85	43936.54
580.01	43981.01
580.17	43983.35
580.33	43971.64
580.49	43978.67
580.65	44170.59
580.82	44189.31
580.98	43903.77
581.14	43962.28
581.30	43538.65
581.46	43941.22
581.62	44095.69
581.78	43875.68
581.94	44741.68
582.10	43901.43
582.26	44065.27
582.42	44088.67
582.58	43903.77
582.74	43601.84
582.90	43959.94
583.06	44238.47
583.22	43835.89
583.38	44439.75
583.54	44376.56
583.70	43938.88
583.86	43896.75
584.02	43517.58
584.18	43803.13
584.34	44233.78
584.50	44236.12
584.66	44069.95
584.82	43995.05
584.98	44495.92
585.14	44430.39
585.30	43845.26
585.46	43988.03
585.62	44051.22
585.78	44093.35
585.94	44025.48
586.10	44069.95
586.26	43374.81
586.42	44339.11
586.58	43887.39
586.74	44039.52
586.90	44116.76
587.06	44053.56
587.22	43988.03
587.38	44231.44
587.54	44673.81
587.70	44509.97
587.86	44315.70
588.02	44186.97
588.18	44250.17
588.34	44156.55
588.49	43973.98
588.65	43924.83
588.81	43971.64
588.97	43962.28
589.13	44229.10
589.29	44058.24
589.45	44626.99
589.61	44549.76
589.77	44844.66
589.93	44643.38
590.08	44603.59
590.24	44435.07
590.40	44287.62
590.56	44460.82
590.72	44332.09
590.88	44128.46
591.04	43700.14
591.20	44715.93
591.35	44711.25
591.51	44278.25
591.67	44336.77
591.83	44439.75
591.99	44208.04
592.15	43903.77
592.31	44406.98
592.46	44472.52
592.62	44498.26
592.78	44311.02
592.94	44556.78
593.10	44762.75
593.26	44744.02
593.41	44336.77
593.57	44531.03
593.73	44442.09
593.89	44423.37
594.05	44067.61
594.20	44371.88
594.36	44556.78
594.52	44589.55
594.68	44521.67
594.84	44465.50
594.99	44837.64
595.15	44509.97
595.31	44788.49
595.47	44418.69
595.62	44718.28
595.78	44769.77
595.94	44769.77
596.10	44680.83
596.25	44591.89
596.41	44739.34
596.57	44266.55
596.73	44414.01
596.88	44093.35
597.04	44680.83
597.20	44470.18
597.36	44641.04
597.51	44748.70
597.67	44751.04
597.83	45083.40
597.99	44980.42
598.14	45139.57
598.30	44414.01
598.46	44910.20
598.61	44814.24
598.77	44266.55
598.93	44624.65
599.09	44383.58
599.24	44940.63
599.40	45289.37
599.56	44987.44
599.71	44322.72
599.87	44818.92
600.03	44744.02
600.18	44280.60
600.34	44570.82
600.50	44577.84
600.65	44416.35
600.81	45022.54
600.97	45223.83
601.12	44727.64
601.28	44772.11
601.44	44725.30
601.59	44641.04
601.75	44341.45
601.91	44570.82
602.06	44568.48
602.22	44645.72
602.37	44800.19
602.53	44910.20
602.69	44877.43
602.84	44603.59
603.00	44549.76
603.16	44837.64
603.31	44378.90
603.47	44280.60
603.62	44360.17
603.78	44708.91
603.94	44725.30
604.09	45120.85
604.25	44559.12
604.40	44554.44
604.56	44360.17
604.71	44376.56
604.87	44641.04
605.03	44669.12
605.18	44519.33
605.34	44547.42
605.49	44481.88
605.65	44514.65
605.80	44430.39
605.96	44306.34
606.12	44755.72
606.27	44722.96
606.43	44919.56
606.58	44409.32
606.74	44231.44
606.89	44549.76
607.05	44343.79
607.20	44526.35
607.36	44348.47
607.51	44648.06
607.67	44402.30
607.82	44495.92
607.98	44226.76
608.13	44301.66
608.29	44360.17
608.44	43917.81
608.60	43894.41
608.75	43934.20
608.91	44334.43
609.06	44069.95
609.22	44582.52
609.37	44095.69
609.53	44175.27
609.68	44126.12
609.84	44069.95
609.99	44055.90
610.15	43969.30
610.30	43952.92
610.46	43971.64
610.61	44083.99
610.76	44315.70
610.92	43945.90
611.07	43648.65
611.23	44156.55
611.38	44009.09
611.54	43709.50
611.69	44002.07
611.84	43814.83
612.00	43679.08
612.15	43494.18
612.31	43978.67
612.46	43826.53
612.62	44020.80
612.77	43807.81
612.92	44245.49
613.08	44128.46
613.23	43728.23
613.39	44018.46
613.54	43555.03
613.69	43627.59
613.85	43704.82
614.00	43906.11
614.15	44149.53
614.31	44165.91
614.46	43981.01
614.62	43784.40
614.77	43842.92
614.92	43658.01
615.08	43683.76
615.23	43758.66
615.38	43449.70
615.54	43274.16
615.69	43508.22
615.84	43215.65
616.00	43253.10
616.15	43367.79
616.30	43709.50
616.46	43281.19
616.61	43016.71
616.76	43779.72
616.92	42377.74
617.07	43110.33
617.22	43232.04
617.37	42946.49
617.53	43227.35
617.68	43346.72
617.83	43248.42
617.99	43400.55
618.14	43370.13
618.29	42979.26
618.45	42967.55
618.60	43337.36
618.75	42576.69
618.90	43262.46
619.06	43365.45
619.21	43260.12
619.36	43325.66
619.51	42834.14
619.67	42958.19
619.82	43098.62
619.97	43040.11
620.12	42866.91
620.28	42253.69
620.43	42660.94
620.58	42609.45
620.73	42789.67
620.89	43047.13
621.04	42972.24
621.19	42836.48
621.34	42834.14
621.49	42447.96
621.65	42536.90
621.80	42855.21
621.95	41893.25
622.10	42873.93
622.25	42459.66
622.41	42234.97
622.56	41820.69
622.71	42843.51
622.86	42527.53
623.01	42457.32
623.16	42590.73
623.32	42447.96
623.47	42555.62
623.62	42295.82
623.77	42417.53
623.92	42199.86
624.07	42195.18
624.23	42110.92
624.38	41804.31
624.53	41916.65
624.68	42478.38
624.83	41949.42
624.98	41717.71
625.13	42092.19
625.29	42192.84
625.44	42033.68
625.59	42057.09
625.74	41808.99
625.89	41483.66
626.04	41071.72
626.19	41696.64
626.34	41984.53
626.49	41745.80
626.65	42101.56
626.80	42291.14
626.95	41804.31
627.10	41783.24
627.25	41696.64
627.40	41659.20
627.55	41214.49
627.70	41329.18
627.85	41532.81
628.00	41727.07
628.15	41804.31
628.30	41500.04
628.45	41893.25
628.60	41806.65
628.76	41603.02
628.91	41654.51
629.06	41205.13
629.21	41404.08
629.36	41308.11
629.51	41095.13
629.66	41123.21
629.81	41074.06
629.96	41221.52
630.11	41317.48
630.26	41118.53
630.41	41240.24
630.56	40989.80
630.71	41017.89
630.86	41170.02
631.01	40989.80
631.16	41127.89
631.31	41118.53
631.46	40627.02
631.61	40655.11
631.76	40961.72
631.91	40926.61
632.06	40968.74
632.21	40950.01
632.36	41092.79
632.51	40973.42
632.66	41186.41
632.81	40664.47
632.96	40879.80
633.10	40563.82
633.25	40495.95
633.40	40404.67
633.55	40971.08
633.70	40931.29
633.85	40589.57
634.00	40566.16
634.15	40891.50
634.30	40687.87
634.45	40669.15
634.60	40582.55
634.75	40151.89
634.90	40863.41
635.05	40392.97
635.19	40074.65
635.34	40484.25
635.49	40318.07
635.64	40385.94
635.79	39915.50
635.94	39824.22
636.09	40140.19
636.24	40039.54
636.39	39363.13
636.53	39798.47
636.68	39676.76
636.83	39934.22
636.98	39828.90
637.13	39803.15
637.28	40074.65
637.43	40116.78
637.57	40194.02
637.72	39807.83
637.87	40051.25
638.02	40287.64
638.17	39770.38
638.32	39992.73
638.46	39683.78
638.61	39498.88
638.76	39459.09
638.91	39842.94
639.06	39693.15
639.20	39756.34
639.35	39941.24
639.50	39655.70
639.65	39709.53
639.80	39597.18
639.94	39508.24
640.09	39480.16
640.24	39386.54
640.39	39316.32
640.54	39189.93
640.68	39255.46
640.83	39028.43
640.98	39447.39
641.13	39370.15
641.27	39363.13
641.42	39208.65
641.57	39679.10
641.72	39524.63
641.86	39143.12
642.01	39171.21
642.16	38988.64
642.31	38698.42
642.45	39253.12
642.60	38604.80
642.75	38932.47
642.90	39037.80
643.04	39199.29
643.19	38735.87
643.34	39435.69
643.48	39103.33
643.63	38890.34
643.78	38955.88
643.93	38904.38
644.07	38061.79
644.22	38976.94
644.37	38230.31
644.51	38183.50
644.66	38410.53
644.81	38953.54
644.95	39040.14
645.10	38859.91
645.25	38785.02
645.39	38848.21
645.54	38998.01
645.69	38403.51
645.83	38574.37
645.98	38604.80
646.13	38733.53
646.27	38958.22
646.42	38455.00
646.57	38045.41
646.71	38670.33
646.86	38925.45
647.00	38412.87
647.15	38667.99
647.30	38752.25
647.44	38799.06
647.59	38113.28
647.74	38176.48
647.88	38253.72
648.03	38101.58
648.17	38162.43
648.32	38010.30
648.47	38117.96
648.61	37827.74
648.76	38345.00
648.90	38330.95
649.05	38518.20
649.20	37968.17
649.34	38227.97
649.49	38103.92
649.63	38029.02
649.78	37755.18
649.92	37809.01
650.07	38375.42
650.21	37914.34
650.36	37689.65
650.51	38010.30
650.65	38099.24
650.80	38391.81
650.94	38129.67
651.09	37968.17
651.23	37996.26
651.38	37507.08
651.52	37684.97
651.67	37687.31
651.81	37675.60
651.96	37511.77
652.10	37567.94
652.25	37897.95
652.39	37652.20
652.54	37207.50
652.68	37970.51
652.83	37404.10
652.97	37954.13
653.12	37132.60
653.26	37228.56
653.41	37715.39
653.55	37530.49
653.70	37219.20
653.84	37535.17
653.99	37340.91
654.13	37439.21
654.27	37668.58
654.42	37469.64
654.56	37280.05
654.71	37441.55
654.85	37198.13
655.00	37046.00
655.14	37404.10
655.29	36833.01
655.43	37017.91
655.57	36643.43
655.72	36301.71
655.86	36957.06
656.01	36821.31
656.15	36718.32
656.30	36910.25
656.44	36877.48
656.58	36954.72
656.73	36390.65
656.87	36823.65
657.01	36072.34
657.16	36329.80
657.30	36308.73
657.45	36570.87
657.59	36416.40
657.73	36486.61
657.88	36453.84
658.02	36114.47
658.16	36290.01
658.31	36460.87
658.45	36357.88
658.60	36683.22
658.74	36711.30
658.88	36196.38
659.03	35967.01
659.17	36191.70
659.31	35889.77
659.46	36109.78
659.60	35812.54
659.74	36114.47
659.89	35882.75
660.03	35728.28
660.17	35950.63
660.32	35910.84
660.46	36144.89
660.60	36055.95
660.74	36168.30
660.89	35672.10
661.03	35351.45
661.17	35641.68
661.32	35147.82
661.46	35440.39
661.60	35332.73
661.74	35402.94
661.89	35672.10
662.03	35405.28
662.17	35498.91
662.31	35187.61
662.46	34951.22
662.60	35515.29
662.74	35000.37
662.88	35281.24
663.03	35012.07
663.17	34899.73
663.31	34986.33
663.45	34944.20
663.60	34888.03
663.74	34539.29
663.88	34822.49
664.02	34721.85
664.17	34810.79
664.31	34204.59
664.45	34843.56
664.59	34595.46
664.73	34345.02
664.88	34555.67
665.02	34288.85
665.16	34558.01
665.30	34101.61
665.44	34110.97
665.59	33958.83
665.73	33909.68
665.87	33977.56
666.01	34019.69
666.15	33804.36
666.29	33841.81
666.44	34174.16
666.58	33916.70
666.72	33715.42
666.86	33766.91
667.00	33818.40
667.14	33928.41
667.28	33139.65
667.43	33214.54
667.57	33750.52
667.71	33701.37
667.85	33261.35
667.99	33270.72
668.13	33394.76
668.27	33305.82
668.41	33268.37
668.56	33064.75
668.70	33130.28
668.84	32865.80
668.98	32540.47
669.12	32725.37
669.26	33163.05
669.40	32648.13
669.54	32465.57
669.68	33008.58
669.82	32760.48
669.96	32964.10
670.10	32687.92
670.25	32830.69
670.39	32664.52
670.53	32797.93
670.67	32622.39
670.81	32561.53
670.95	32488.98
671.09	31988.10
671.23	32409.40
671.37	31974.06
671.51	31721.28
671.65	32063.00
671.79	31838.31
671.93	31648.72
672.07	31606.59
672.21	31838.31
672.35	31239.13
672.49	31700.22
672.63	31754.05
672.77	31288.28
672.91	31365.52
673.05	31285.94
673.19	31325.73
673.33	31065.93
673.47	30871.67
673.61	30775.70
673.75	30876.35
673.89	30649.32
674.03	30618.89
674.17	30520.59
674.31	30696.13
674.45	30551.01
674.59	30672.72
674.73	30918.48
674.87	30572.08
675.01	30457.39
675.15	30513.56
675.29	30813.15
675.43	30298.23
675.56	30675.06
675.70	30127.38
675.84	30024.39
675.98	28999.24
676.12	29802.04
676.26	29446.28
676.40	29600.76
676.54	29369.04
676.68	29563.31
676.82	29261.38
676.96	29640.54
677.10	28816.68
677.23	29289.46
677.37	29284.78
677.51	28924.34
677.65	28788.59
677.79	28402.40
677.93	28662.20
678.07	28432.83
678.21	28261.97
678.34	28549.85
678.48	28257.29
678.62	28486.66
678.76	28147.28
678.90	28266.65
679.04	28219.84
679.18	28072.39
679.31	27821.95
679.45	27529.38
679.59	27496.61
679.73	27222.77
679.87	27599.60
680.00	27426.40
680.14	27412.35
680.28	27321.07
680.42	27295.33
680.56	27304.69
680.70	26934.88
680.83	26920.84
680.97	26710.19
681.11	27068.30
681.25	26520.61
681.39	26679.77
681.52	26806.16
681.66	26295.92
681.80	26464.44
681.94	26349.75
682.07	26263.15
682.21	26073.57
682.35	26178.89
682.49	25956.54
682.62	25851.22
682.76	26064.21
682.90	25830.15
683.04	25766.96
683.17	25394.81
683.31	25369.07
683.45	25703.76
683.59	25436.94
683.72	25006.28
683.86	25165.44
684.00	25172.46
684.13	24961.81
684.27	25163.10
684.41	25174.80
684.55	24891.60
684.68	24397.74
684.82	24411.79
684.96	24601.37
685.09	24507.75
685.23	24360.30
685.37	24524.13
685.50	24177.73
685.64	24479.66
685.78	24381.36
685.91	24011.56
686.05	23688.56
686.19	23477.91
686.32	23880.49
686.46	23410.04
686.60	23332.80
686.73	23351.52
686.87	22974.70
687.01	23564.51
687.14	23159.60
687.28	23239.18
687.42	22918.53
687.55	22909.16
687.69	22719.58
687.82	22719.58
687.96	22764.05
688.10	22628.30
688.23	22361.48
688.37	22382.54
688.50	21998.70
688.64	22384.88
688.78	22317.01
688.91	21923.80
689.05	21862.94
689.18	22129.77
689.32	21549.31
689.46	21975.29
689.59	21799.75
689.73	21905.07
689.86	21804.43
690.00	21436.97
690.13	21458.03
690.27	21441.65
690.41	21242.70
690.54	21200.57
690.68	21003.97
690.81	21301.22
690.95	20798.00
691.08	20709.06
691.22	20545.22
691.35	20641.18
691.49	20788.64
691.62	21025.03
691.76	20606.08
691.89	20570.97
692.03	20285.42
692.16	20042.01
692.30	20126.27
692.43	20112.22
692.57	20091.16
692.70	20049.03
692.84	19953.07
692.97	19857.10
693.11	19353.89
693.24	19543.47
693.38	19475.60
693.51	19475.60
693.65	19295.38
693.78	19077.71
693.92	19346.87
694.05	19264.95
694.19	19204.10
694.32	18934.93
694.45	19061.32
694.59	19054.30
694.72	18679.82
694.86	18740.67
694.99	18614.28
695.13	18497.25
695.26	18448.10
695.39	17972.97
695.53	18288.95
695.66	18038.51
695.80	18195.32
695.93	17865.31
696.07	17827.86
696.20	17841.90
696.33	18216.39
696.47	17703.81
696.60	17720.20
696.73	17610.19
696.87	17474.44
697.00	17439.33
697.14	17638.28
697.27	17144.42
697.40	17345.71
697.54	17193.58
697.67	17275.49
697.80	17001.65
697.94	17235.70
698.07	16879.94
698.21	16931.44
698.34	17020.38
698.47	16924.41
698.61	16428.22
698.74	16444.60
698.87	16468.01
699.01	16238.64
699.14	16269.06
699.27	16219.91
699.40	16416.52
699.54	15843.09
699.67	16173.10
699.80	15964.79
699.94	15688.61
700.07	15969.48
700.20	15651.16
700.34	15475.62
700.47	15660.52
700.60	15508.39
700.73	16065.44
700.87	15482.64
701.00	15398.38
701.13	15389.02
701.26	15328.17
701.40	15454.56
701.53	15080.07
701.66	15108.16
701.79	14796.87
701.93	14848.36
702.06	14602.60
702.19	14930.28
702.32	14843.68
702.46	14457.49
702.59	14604.94
702.72	14588.56
702.85	14471.53
702.99	14513.66
703.12	14801.55
703.25	14464.51
703.38	14340.46
703.51	14068.96
703.65	14136.84
703.78	14225.78
703.91	13722.56
704.04	13809.16
704.17	13731.92
704.31	13809.16
704.44	13565.74
704.57	13575.11
704.70	13525.96
704.83	13455.74
704.96	13561.06
705.10	13554.04
705.23	13635.96
>>>>>End Processed Spectral Data<<<<<
