SpectraSuite Data File
++++++++++++++++++++++++++++++++++++
Date: Fri Oct 25 10:47:48 EDT 2013
User: price-jones
Dark Spectrum Present: No
Reference Spectrum Present: No
Number of Sampled Component Spectra: 1
Spectrometers: USB2+H05261
Integration Time (usec): 100000 (USB2+H05261)
Spectra Averaged: 1 (USB2+H05261)
Boxcar Smoothing: 0 (USB2+H05261)
Correct for Electrical Dark: No (USB2+H05261)
Strobe/Lamp Enabled: No (USB2+H05261)
Correct for Detector Non-linearity: No (USB2+H05261)
Correct for Stray Light: No (USB2+H05261)
Number of Pixels in Processed Spectrum: 2048
>>>>>Begin Processed Spectral Data<<<<<
365.73	102.98
365.92	102.98
366.12	102.98
366.32	42.13
366.52	37.45
366.72	114.69
366.91	0.00
367.11	58.51
367.31	0.00
367.51	56.17
367.70	0.00
367.90	0.00
368.10	44.47
368.30	145.11
368.49	60.85
368.69	65.54
368.89	102.98
369.09	65.54
369.28	23.41
369.48	74.90
369.68	98.30
369.87	86.60
370.07	86.60
370.27	166.18
370.47	187.24
370.66	369.80
370.86	430.66
371.06	299.59
371.25	444.70
371.45	468.11
371.65	500.87
371.84	348.74
372.04	444.70
372.24	428.32
372.44	449.38
372.63	416.62
372.83	447.04
373.03	512.58
373.22	421.30
373.42	498.53
373.62	561.73
373.81	482.15
374.01	507.90
374.21	582.79
374.40	514.92
374.60	507.90
374.79	512.58
374.99	561.73
375.19	521.94
375.38	643.65
375.58	571.09
375.78	620.24
375.97	566.41
376.17	655.35
376.37	599.18
376.56	620.24
376.76	587.47
376.95	624.92
377.15	620.24
377.35	622.58
377.54	526.62
377.74	561.73
377.93	620.24
378.13	624.92
378.33	596.84
378.52	636.63
378.72	606.20
378.91	613.22
379.11	578.11
379.31	587.47
379.50	557.05
379.70	667.05
379.89	578.11
380.09	720.88
380.28	634.29
380.48	648.33
380.68	662.37
380.87	660.03
381.07	688.12
381.26	683.44
381.46	582.79
381.65	657.69
381.85	638.97
382.04	685.78
382.24	676.41
382.43	702.16
382.63	739.61
382.83	695.14
383.02	683.44
383.22	753.65
383.41	653.01
383.61	723.23
383.80	751.31
384.00	716.20
384.19	755.99
384.39	716.20
384.58	793.44
384.78	748.97
384.97	727.91
385.17	819.19
385.36	777.06
385.56	844.93
385.75	767.70
385.95	793.44
386.14	847.27
386.34	753.65
386.53	718.54
386.72	779.40
386.92	826.21
387.11	854.30
387.31	699.82
387.50	784.08
387.70	842.59
387.89	840.25
388.09	873.02
388.28	774.72
388.48	868.34
388.67	873.02
388.86	866.00
389.06	828.55
389.25	905.79
389.45	800.46
389.64	903.45
389.84	873.02
390.03	894.08
390.22	931.53
390.42	912.81
390.61	985.37
390.81	898.77
391.00	966.64
391.19	1076.65
391.39	908.13
391.58	966.64
391.78	1015.79
391.97	933.87
392.16	957.28
392.36	1029.84
392.55	997.07
392.75	957.28
392.94	945.58
393.13	964.30
393.33	1050.90
393.52	905.79
393.71	1095.37
393.91	1083.67
394.10	1027.50
394.29	1074.31
394.49	1029.84
394.68	1167.93
394.88	1046.22
395.07	1179.63
395.26	1121.12
395.46	1125.80
395.65	1125.80
395.84	1128.14
396.04	1228.78
396.23	1083.67
396.42	1071.97
396.62	1153.88
396.81	1107.07
397.00	1139.84
397.19	1097.71
397.39	1200.69
397.58	1238.14
397.77	1196.01
397.97	1242.82
398.16	1329.42
398.35	1280.27
398.55	1259.21
398.74	1282.61
398.93	1270.91
399.12	1343.47
399.32	1291.98
399.51	1383.26
399.70	1392.62
399.90	1345.81
400.09	1441.77
400.28	1455.81
400.47	1406.66
400.67	1509.65
400.86	1446.45
401.05	1547.09
401.24	1563.48
401.44	1516.67
401.63	1416.02
401.82	1504.96
402.01	1451.13
402.21	1561.14
402.40	1554.12
402.59	1540.07
402.78	1540.07
402.97	1495.60
403.17	1633.69
403.36	1551.78
403.55	1678.16
403.74	1619.65
403.93	1645.40
404.13	1671.14
404.32	1631.35
404.51	1603.27
404.70	1643.06
404.89	1710.93
405.09	1699.23
405.28	1799.87
405.47	1893.49
405.66	1750.72
405.85	1736.68
406.05	1624.33
406.24	1781.15
406.43	1802.21
406.62	1774.13
406.81	1867.75
407.00	1851.36
407.20	1912.22
407.39	1830.30
407.58	1930.94
407.77	1961.37
407.96	1891.15
408.15	2012.86
408.34	1900.52
408.54	1865.41
408.73	2010.52
408.92	2024.56
409.11	2104.14
409.30	2186.06
409.49	2038.61
409.68	2097.12
409.87	1989.46
410.07	2162.66
410.26	2172.02
410.45	2132.23
410.64	2214.15
410.83	2211.81
411.02	2155.63
411.21	2279.68
411.40	2293.72
411.59	2326.49
411.78	2202.44
411.98	2370.96
412.17	2317.13
412.36	2413.09
412.55	2366.28
412.74	2483.31
412.93	2403.73
413.12	2408.41
413.31	2658.85
413.50	2511.39
413.69	2555.86
413.88	2717.36
414.07	2579.27
414.26	2581.61
414.45	2539.48
414.64	2700.98
414.83	2703.32
415.02	2740.77
415.22	2654.17
415.41	2881.20
415.60	2808.64
415.79	2897.58
415.98	2881.20
416.17	2949.08
416.36	2883.54
416.55	2827.37
416.74	2897.58
416.93	2939.71
417.12	2920.99
417.31	2918.65
417.50	2991.20
417.69	3073.12
417.88	2998.23
418.07	3000.57
418.26	3075.46
418.45	3178.45
418.64	3110.57
418.83	3206.53
419.02	3243.98
419.21	3215.90
419.39	3110.57
419.58	3194.83
419.77	3094.19
419.96	3190.15
420.15	3276.75
420.34	3281.43
420.53	3260.37
420.72	3456.97
420.91	3407.82
421.10	3417.18
421.29	3400.80
421.48	3442.93
421.67	3630.17
421.86	3459.31
422.05	3473.36
422.24	3534.21
422.43	3323.56
422.61	3510.80
422.80	3513.14
422.99	3499.10
423.18	3494.42
423.37	3606.77
423.56	3447.61
423.75	3456.97
423.94	3534.21
424.13	3365.69
424.32	3412.50
424.50	3564.64
424.69	3625.49
424.88	3609.11
425.07	3543.57
425.26	3571.66
425.45	3524.85
425.64	3499.10
425.83	3597.40
426.01	3737.84
426.20	3534.21
426.39	3611.45
426.58	3669.96
426.77	3463.99
426.96	3566.98
427.15	3597.40
427.33	3660.60
427.52	3679.32
427.71	3646.55
427.90	3618.47
428.09	3651.24
428.28	3758.90
428.46	3831.46
428.65	3735.50
428.84	3822.09
429.03	3794.01
429.22	3721.45
429.40	3833.80
429.59	3796.35
429.78	3698.05
429.97	3604.42
430.16	3885.29
430.34	3824.44
430.53	3946.14
430.72	4014.02
430.91	3850.18
431.10	3878.27
431.28	4018.70
431.47	3899.33
431.66	4138.07
431.85	4053.81
432.03	4257.43
432.22	4229.35
432.41	4077.21
432.60	4320.63
432.79	4177.86
432.97	4325.31
433.16	4210.62
433.35	4086.58
433.54	4133.39
433.72	4007.00
433.91	4262.12
434.10	4402.55
434.28	4355.74
434.47	4416.59
434.66	4376.80
434.85	4376.80
435.03	4542.98
435.22	4397.87
435.41	4643.62
435.59	4484.47
435.78	4566.39
435.97	4683.41
436.16	4519.57
436.34	4531.28
436.53	4547.66
436.72	4744.27
436.90	4690.43
437.09	4596.81
437.28	4732.56
437.46	4760.65
437.65	4620.22
437.84	4557.02
438.02	4770.01
438.21	4720.86
438.40	4702.14
438.58	4837.89
438.77	4959.60
438.96	4961.94
439.14	5135.14
439.33	5011.09
439.52	5191.31
439.70	5184.29
439.89	5081.30
440.08	5013.43
440.26	5132.79
440.45	5142.16
440.63	5270.89
440.82	5392.59
441.01	5376.21
441.19	5399.62
441.38	5467.49
441.57	5563.45
441.75	5610.26
441.94	5727.29
442.12	5680.48
442.31	5638.35
442.50	5497.92
442.68	5650.05
442.87	5589.20
443.05	5734.31
443.24	5797.51
443.43	5888.79
443.61	5769.42
443.80	5811.55
443.98	5839.64
444.17	5614.95
444.35	5919.21
444.54	5799.85
444.73	5767.08
444.91	5738.99
445.10	5729.63
445.28	5863.04
445.47	5959.00
445.65	5874.74
445.84	5888.79
446.02	5799.85
446.21	5916.87
446.39	5870.06
446.58	6211.78
446.77	5832.62
446.95	5755.38
447.14	6010.50
447.32	6061.99
447.51	5989.43
447.69	5881.77
447.88	6036.24
448.06	6012.84
448.25	6033.90
448.43	6005.81
448.62	5926.24
448.80	6061.99
448.99	6118.16
449.17	5989.43
449.36	6122.84
449.54	6356.90
449.73	6375.62
449.91	6232.85
450.10	6296.04
450.28	6331.15
450.46	6363.92
450.65	6354.55
450.83	6239.87
451.02	6296.04
451.20	6502.01
451.39	6614.35
451.57	6338.17
451.76	6459.88
451.94	6368.60
452.13	6600.31
452.31	6443.49
452.49	6516.05
452.68	6665.85
452.86	6572.22
453.05	6602.65
453.23	6668.19
453.42	6595.63
453.60	6525.41
453.78	6707.98
453.97	6661.16
454.15	6614.35
454.34	6729.04
454.52	6923.30
454.70	6724.36
454.89	6691.59
455.07	6822.66
455.26	6958.41
455.44	6796.92
455.62	6927.99
455.81	6902.24
455.99	6949.05
456.17	7042.67
456.36	7045.01
456.54	7286.09
456.73	7265.02
456.91	7470.99
457.09	7164.38
457.28	7309.49
457.46	7227.57
457.64	7459.29
457.83	7375.03
458.01	7148.00
458.19	7599.72
458.38	7384.39
458.56	7463.97
458.74	7541.21
458.93	7506.10
459.11	7281.41
459.29	7510.78
459.48	7442.90
459.66	7470.99
459.84	7602.06
460.03	7625.47
460.21	7662.91
460.39	7559.93
460.57	7634.83
460.76	7681.64
460.94	7744.83
461.12	7674.62
461.31	7908.67
461.49	7789.30
461.67	7803.35
461.85	8039.74
462.04	7929.74
462.22	8400.18
462.40	8077.19
462.59	7967.18
462.77	7854.84
462.95	8147.40
463.13	7967.18
463.32	7971.86
463.50	8105.28
463.68	8238.69
463.86	7990.59
464.05	7913.35
464.23	8187.19
464.41	8269.11
464.59	8152.09
464.78	8386.14
464.96	8236.35
465.14	8140.38
465.32	8322.94
465.50	8554.66
465.69	8355.71
465.87	8386.14
466.05	8479.76
466.23	8411.89
466.41	8329.97
466.60	8559.34
466.78	8166.13
466.96	8353.37
467.14	8489.12
467.32	8519.55
467.51	8652.96
467.69	8552.32
467.87	8631.90
468.05	8760.63
468.23	8451.67
468.41	8479.76
468.60	8533.59
468.78	8823.82
468.96	8603.81
469.14	8622.53
469.32	8861.27
469.50	8393.16
469.69	8774.67
469.87	8858.93
470.05	8774.67
470.23	8992.34
470.41	9018.08
470.59	9011.06
470.77	8971.27
470.95	9008.72
471.14	9296.61
471.32	9006.38
471.50	9408.95
471.68	9352.78
471.86	9336.40
472.04	9380.87
472.22	9488.53
472.40	9369.16
472.58	9432.36
472.77	9495.55
472.95	9586.83
473.13	9657.05
473.31	9708.54
473.49	9598.54
473.67	9582.15
473.85	9844.29
474.03	10040.90
474.21	9991.75
474.39	9937.91
474.57	10043.24
474.75	9987.07
474.93	10384.96
475.12	10366.23
475.30	10120.48
475.48	10441.13
475.66	10073.67
475.84	10253.89
476.02	10501.98
476.20	10413.04
476.38	10789.87
476.56	10766.46
476.74	10635.39
476.92	10782.85
477.10	10848.38
477.28	11136.27
477.46	11002.86
477.64	11012.22
477.82	11133.93
478.00	11456.92
478.18	11241.59
478.36	11267.34
478.54	11796.30
478.72	11552.88
478.90	11871.20
479.08	11936.73
479.26	12140.36
479.44	12147.38
479.62	11791.62
479.80	12222.28
479.98	12065.46
480.16	12484.42
480.34	12416.54
480.52	12678.68
480.70	12556.97
480.88	12594.42
481.06	12674.00
481.24	12624.85
481.41	12994.65
481.59	12973.59
481.77	13247.43
481.95	12994.65
482.13	13317.65
482.31	13212.32
482.49	13757.67
482.67	13689.79
482.85	13703.84
483.03	13809.16
483.21	14094.71
483.39	13921.51
483.57	14047.90
483.74	14232.80
483.92	14171.94
484.10	13923.85
484.28	14499.62
484.46	14546.43
484.64	15026.24
484.82	14780.48
485.00	14775.80
485.18	15105.82
485.35	15075.39
485.53	15138.58
485.71	15192.42
485.89	15337.53
486.07	15307.10
486.25	15541.16
486.43	15538.82
486.61	15676.91
486.78	15868.83
486.96	16180.12
487.14	16130.97
487.32	16222.25
487.50	16575.67
487.68	16643.55
487.85	16732.49
488.03	17006.33
488.21	17289.54
488.39	16805.05
488.57	16987.61
488.75	17390.18
488.92	17996.38
489.10	17923.82
489.28	17982.34
489.46	17823.18
489.64	17745.94
489.81	18548.75
489.99	18562.79
490.17	18675.13
490.35	18625.98
490.53	18778.12
490.70	18827.27
490.88	18986.43
491.06	19056.64
491.24	19035.58
491.41	19138.56
491.59	19550.49
491.77	19220.48
491.95	19573.90
492.13	19627.73
492.30	19950.73
492.48	20102.86
492.66	19894.55
492.84	20175.42
493.01	20411.81
493.19	20196.48
493.37	20659.91
493.54	20638.84
493.72	20666.93
493.90	20800.34
494.08	21200.57
494.25	21556.33
494.43	21228.66
494.61	21448.67
494.79	21764.64
494.96	21605.49
495.14	21619.53
495.32	22099.34
495.49	21841.88
495.67	21783.37
495.85	22141.47
496.02	22431.69
496.20	22347.44
496.38	22705.54
496.55	22452.76
496.73	23082.36
496.91	22616.60
497.09	22960.66
497.26	23625.37
497.44	23108.11
497.62	23274.29
497.79	23400.68
497.97	23529.41
498.14	23534.09
498.32	23653.45
498.50	23796.23
498.67	24072.41
498.85	23847.72
499.03	24381.36
499.20	24271.36
499.38	24037.30
499.56	24732.44
499.73	24599.03
499.91	24458.60
500.08	24467.96
500.26	24383.70
500.44	24847.13
500.61	24844.79
500.79	24905.64
500.97	24751.17
501.14	25467.37
501.32	25408.86
501.49	25514.18
501.67	25247.36
501.84	25476.73
502.02	25509.50
502.20	25762.28
502.37	25809.09
502.55	25806.75
502.72	26132.08
502.90	26101.65
503.07	25919.09
503.25	26066.55
503.43	25874.62
503.60	26120.38
503.78	26033.78
503.95	26438.69
504.13	26354.43
504.30	26345.07
504.48	26658.70
504.65	26904.46
504.83	26742.96
505.01	27070.64
505.18	27014.46
505.36	27241.50
505.53	27033.19
505.71	27498.95
505.88	27571.51
506.06	27578.53
506.23	27335.12
506.41	27419.38
506.58	27974.08
506.76	27835.99
506.93	27697.90
507.11	27828.97
507.28	27990.47
507.46	27838.33
507.63	28048.98
507.81	28151.96
507.98	27910.89
508.16	28481.98
508.33	28507.72
508.50	28341.55
508.68	28676.24
508.85	28964.13
509.03	28744.12
509.20	29027.32
509.38	29174.78
509.55	29156.05
509.73	29345.64
509.90	29287.12
510.08	29043.71
510.25	29123.29
510.42	29542.24
510.60	29457.98
510.77	29455.64
510.95	29841.83
511.12	29762.25
511.30	29907.37
511.47	30110.99
511.64	30593.14
511.82	30338.02
511.99	29942.47
512.17	30118.01
512.34	30169.51
512.51	30265.47
512.69	30375.47
512.86	30656.34
513.04	30742.94
513.21	30658.68
513.38	30810.81
513.56	30878.69
513.73	30749.96
513.90	30813.15
514.08	30642.29
514.25	31339.77
514.43	31007.42
514.60	31292.96
514.77	31063.59
514.95	31351.48
515.12	31585.53
515.29	31791.50
515.47	31725.96
515.64	31833.63
515.81	31292.96
515.99	31529.36
516.16	31721.28
516.33	31737.66
516.51	31892.14
516.68	32023.21
516.85	31576.17
517.03	32114.49
517.20	31922.57
517.37	32095.77
517.54	32257.26
517.72	32173.00
517.89	32093.43
518.06	32105.13
518.24	32407.06
518.41	32086.40
518.58	32554.51
518.75	32664.52
518.93	33057.73
519.10	33017.94
519.27	33200.50
519.45	32732.39
519.62	32896.23
519.79	33003.89
519.96	33373.70
520.14	33380.72
520.31	33273.06
520.48	33692.01
520.65	33675.63
520.83	33874.57
521.00	33876.91
521.17	33759.89
521.34	33769.25
521.52	33825.42
521.69	34110.97
521.86	34230.33
522.03	34206.93
522.20	34309.91
522.38	34258.42
522.55	34302.89
522.72	34120.33
522.89	34087.56
523.07	34614.18
523.24	34471.41
523.41	34742.91
523.58	34864.62
523.75	34890.37
523.92	35075.27
524.10	34941.86
524.27	35292.94
524.44	35166.55
524.61	35014.41
524.78	35519.97
524.96	35281.24
525.13	35667.42
525.30	35557.42
525.47	35328.05
525.64	35468.48
525.81	35608.91
525.98	35512.95
526.16	35571.46
526.33	35428.69
526.50	35517.63
526.67	35566.78
526.84	35566.78
527.01	35683.81
527.18	35625.29
527.36	36044.25
527.53	36222.13
527.70	36226.81
527.87	36353.20
528.04	35964.67
528.21	36119.15
528.38	36315.75
528.55	36233.83
528.72	36168.30
528.89	36540.44
529.07	36634.06
529.24	36528.74
529.41	36748.75
529.58	36538.10
529.75	36315.75
529.92	36863.44
530.09	36931.31
530.26	36886.84
530.43	36980.46
530.60	37113.87
530.77	36781.52
530.94	37310.48
531.11	36952.38
531.28	37277.71
531.46	37097.49
531.63	37853.48
531.80	37263.67
531.97	37434.53
532.14	37710.71
532.31	37141.96
532.48	37654.54
532.65	37762.20
532.82	37556.24
532.99	37916.68
533.16	37837.10
533.33	37682.62
533.50	37727.10
533.67	37766.88
533.84	37872.21
534.01	38036.05
534.18	37769.22
534.35	38082.86
534.52	37848.80
534.69	38080.52
534.86	38387.13
535.03	38157.75
535.20	38417.55
535.37	38333.29
535.54	38939.49
535.71	38047.75
535.88	38656.29
536.05	38410.53
536.22	38817.78
536.38	38426.92
536.55	38370.74
536.72	38979.28
536.89	38281.80
537.06	38394.15
537.23	38927.79
537.40	39110.35
537.57	38817.78
537.74	39108.01
537.91	39103.33
538.08	38642.24
538.25	38754.59
538.42	38859.91
538.59	39700.17
538.75	38873.96
538.92	39180.57
539.09	39264.83
539.26	39040.14
539.43	39164.18
539.60	39323.34
539.77	39042.48
539.94	39421.64
540.11	39285.89
540.28	39227.38
540.44	39594.84
540.61	39552.71
540.78	39653.36
540.95	39669.74
541.12	39508.24
541.29	39491.86
541.46	39669.74
541.62	40210.40
541.79	39992.73
541.96	39728.25
542.13	39772.72
542.30	39957.63
542.47	40254.87
542.63	39765.70
542.80	40240.83
542.97	40201.04
543.14	41010.87
543.31	40484.25
543.48	40718.30
543.64	41111.51
543.81	40680.85
543.98	40467.86
544.15	40034.86
544.32	40802.56
544.48	41055.34
544.65	40875.12
544.82	40467.86
544.99	40463.18
545.16	40938.31
545.32	40868.09
545.49	41125.55
545.66	41361.95
545.83	41113.85
546.00	41221.52
546.16	41172.36
546.33	40790.86
546.50	41165.34
546.67	41155.98
546.83	40861.07
547.00	41188.75
547.17	41170.02
547.34	41516.42
547.50	41226.20
547.67	42291.14
547.84	40900.86
548.00	41741.11
548.17	41612.38
548.34	41518.76
548.51	41846.44
548.67	41886.23
548.84	41930.70
549.01	41446.21
549.18	41956.44
549.34	41970.49
549.51	41958.78
549.68	41771.54
549.84	41940.06
550.01	41930.70
550.18	42326.25
550.34	41837.08
550.51	42263.05
550.68	41804.31
550.84	41900.27
551.01	42131.98
551.18	42602.43
551.34	41975.17
551.51	42024.32
551.68	42071.13
551.84	42607.11
552.01	42314.55
552.18	42478.38
552.34	42078.15
552.51	42890.32
552.68	42447.96
552.84	42520.51
553.01	42862.23
553.18	42190.50
553.34	42560.30
553.51	42291.14
553.67	42253.69
553.84	42836.48
554.01	42880.95
554.17	43026.07
554.34	42953.51
554.51	42607.11
554.67	42782.65
554.84	42850.53
555.00	42944.15
555.17	42532.22
555.33	43072.88
555.50	42600.09
555.67	42796.70
555.83	42892.66
556.00	43269.48
556.16	43217.99
556.33	42850.53
556.50	43023.73
556.66	43419.28
556.83	42754.57
556.99	43288.21
557.16	43044.79
557.32	43351.40
557.49	43260.12
557.65	43246.08
557.82	43161.82
557.98	43306.93
558.15	42913.72
558.32	43384.17
558.48	43512.90
558.65	42822.44
558.81	43395.87
558.98	43552.69
559.14	43416.94
559.31	43533.96
559.47	43620.56
559.64	43611.20
559.80	43838.23
559.97	43903.77
560.13	43510.56
560.30	43456.73
560.46	43253.10
560.63	43814.83
560.79	43948.24
560.96	44549.76
561.12	43540.99
561.29	44095.69
561.45	43625.25
561.61	43751.63
561.78	43580.78
561.94	43351.40
562.11	43821.85
562.27	43775.04
562.44	43910.79
562.60	43587.80
562.77	43634.61
562.93	44044.20
563.10	44177.61
563.26	43679.08
563.42	44149.53
563.59	43512.90
563.75	44133.14
563.92	44430.39
564.08	44083.99
564.24	43985.69
564.41	44112.08
564.57	43840.57
564.74	44062.93
564.90	44364.85
565.07	43999.73
565.23	43896.75
565.39	43517.58
565.56	44636.36
565.72	43945.90
565.88	44673.81
566.05	44098.03
566.21	43772.70
566.38	43924.83
566.54	44243.15
566.70	44722.96
566.87	43988.03
567.03	43992.71
567.19	44374.22
567.36	44198.68
567.52	43995.05
567.68	44739.34
567.85	44229.10
568.01	44617.63
568.17	44596.57
568.34	44704.23
568.50	44458.48
568.66	43742.27
568.83	44495.92
568.99	43730.57
569.15	44268.89
569.32	44076.97
569.48	44278.25
569.64	44664.44
569.81	44589.55
569.97	44137.82
570.13	44280.60
570.30	44409.32
570.46	44528.69
570.62	44116.76
570.78	44252.51
570.95	44432.73
571.11	44793.17
571.27	44275.91
571.43	44329.75
571.60	44271.23
571.76	44388.26
571.92	44383.58
572.09	44336.77
572.25	44755.72
572.41	44219.74
572.57	44432.73
572.74	45331.50
572.90	44378.90
573.06	44821.26
573.22	44912.54
573.38	44783.81
573.55	44245.49
573.71	44545.08
573.87	44458.48
574.03	44360.17
574.20	44582.52
574.36	44538.05
574.52	44861.05
574.68	44467.84
574.84	44931.26
575.01	44608.27
575.17	44758.06
575.33	44561.46
575.49	44528.69
575.65	44746.36
575.82	44708.91
575.98	44514.65
576.14	44769.77
576.30	44832.96
576.46	44531.03
576.62	44402.30
576.79	44589.55
576.95	44577.84
577.11	44673.81
577.27	44474.86
577.43	45132.55
577.59	44830.62
577.75	44271.23
577.92	44416.35
578.08	44318.04
578.24	44318.04
578.40	44456.14
578.56	44678.49
578.72	44687.85
578.88	44715.93
579.04	45116.17
579.21	44624.65
579.37	44526.35
579.53	44566.14
579.69	44479.54
579.85	44659.76
580.01	44722.96
580.17	44453.79
580.33	45191.06
580.49	45151.27
580.65	44961.69
580.82	44737.00
580.98	44952.33
581.14	44591.89
581.30	44975.73
581.46	45067.02
581.62	45064.67
581.78	44538.05
581.94	45017.86
582.10	44580.18
582.26	45038.93
582.42	44547.42
582.58	45544.48
582.74	44591.89
582.90	45120.85
583.06	44676.15
583.22	44411.67
583.38	44896.16
583.54	44727.64
583.70	44509.97
583.86	45024.89
584.02	44308.68
584.18	44900.84
584.34	44839.98
584.50	45184.04
584.66	44802.53
584.82	44442.09
584.98	44989.78
585.14	44748.70
585.30	44339.11
585.46	44718.28
585.62	44797.85
585.78	44795.51
585.94	44603.59
586.10	44669.12
586.26	44772.11
586.42	44893.82
586.58	45071.70
586.74	44896.16
586.90	44900.84
587.06	44589.55
587.22	44744.02
587.38	44453.79
587.54	45095.10
587.70	45020.20
587.86	45123.19
588.02	45104.46
588.18	45134.89
588.34	44800.19
588.49	44634.02
588.65	44549.76
588.81	44535.71
588.97	45041.27
589.13	44938.29
589.29	44402.30
589.45	44905.52
589.61	44790.83
589.77	45195.74
589.93	45425.12
590.08	45303.41
590.24	44945.31
590.40	45177.02
590.56	45483.63
590.72	45102.12
590.88	45263.62
591.04	44910.20
591.20	45507.04
591.35	45162.98
591.51	45294.05
591.67	45237.87
591.83	44912.54
591.99	45125.53
592.15	45081.06
592.31	45380.65
592.46	44814.24
592.62	45003.82
592.78	45254.26
592.94	45628.74
593.10	44861.05
593.26	45247.24
593.41	44980.42
593.57	45095.10
593.73	45258.94
593.89	44725.30
594.05	45418.10
594.20	45001.48
594.36	45151.27
594.52	45172.34
594.68	45244.90
594.84	45076.38
594.99	45350.22
595.15	45223.83
595.31	44971.05
595.47	45184.04
595.62	45434.48
595.78	45141.91
595.94	45261.28
596.10	45294.05
596.25	45509.38
596.41	45261.28
596.57	44919.56
596.73	45404.05
596.88	44957.01
597.04	45312.77
597.20	45551.51
597.36	45214.47
597.51	45474.27
597.67	45457.88
597.83	45556.19
597.99	45425.12
598.14	45219.15
598.30	45081.06
598.46	45153.62
598.61	45038.93
598.77	45106.80
598.93	45345.54
599.09	45076.38
599.24	45397.03
599.40	45294.05
599.56	45275.32
599.71	45312.77
599.87	45853.44
600.03	45160.64
600.18	45268.30
600.34	45188.72
600.50	45261.28
600.65	45069.36
600.81	45008.50
600.97	46019.61
601.12	45411.07
601.28	45537.46
601.44	45441.50
601.59	45228.51
601.75	45382.99
601.91	45588.95
602.06	44839.98
602.22	45127.87
602.37	45436.82
602.53	45186.38
602.69	45584.27
602.84	45457.88
603.00	45682.58
603.16	44954.67
603.31	45263.62
603.47	44734.66
603.62	44800.19
603.78	45221.49
603.94	45502.35
604.09	45408.73
604.25	45322.13
604.40	45329.16
604.56	45408.73
604.71	45184.04
604.87	45031.91
605.03	45429.80
605.18	45083.40
605.34	45544.48
605.49	44538.05
605.65	45153.62
605.80	45113.83
605.96	45235.53
606.12	45137.23
606.27	45244.90
606.43	45088.08
606.58	44980.42
606.74	45497.67
606.89	44842.32
607.05	45153.62
607.20	45111.49
607.36	44940.63
607.51	45429.80
607.67	44797.85
607.82	45221.49
607.98	45158.30
608.13	44837.64
608.29	44322.72
608.44	44385.92
608.60	44545.08
608.75	44690.19
608.91	44732.32
609.06	44966.37
609.22	45123.19
609.37	44451.45
609.53	44631.68
609.68	44626.99
609.84	44624.65
609.99	44854.03
610.15	44858.71
610.30	44329.75
610.46	44760.40
610.61	44779.13
610.76	44629.34
610.92	44463.16
611.07	44601.25
611.23	44339.11
611.38	44589.55
611.54	44914.88
611.69	44449.11
611.84	44142.50
612.00	44596.57
612.15	44465.50
612.31	44945.31
612.46	44758.06
612.62	44748.70
612.77	44828.28
612.92	44500.61
613.08	44041.86
613.23	44755.72
613.39	44435.07
613.54	44023.14
613.69	44664.44
613.85	44069.95
614.00	44753.38
614.15	44624.65
614.31	44509.97
614.46	44608.27
614.62	44360.17
614.77	44245.49
614.92	44137.82
615.08	44128.46
615.23	44280.60
615.38	43945.90
615.54	43796.10
615.69	44334.43
615.84	43999.73
616.00	43948.24
616.15	43941.22
616.30	44091.01
616.46	43938.88
616.61	44076.97
616.76	44189.31
616.92	43952.92
617.07	43442.68
617.22	43812.49
617.37	43969.30
617.53	43966.96
617.68	43842.92
617.83	44009.09
617.99	44151.87
618.14	43908.45
618.29	44081.65
618.45	43470.77
618.60	44046.54
618.75	43636.95
618.90	43447.36
619.06	43812.49
619.21	43695.46
619.36	44257.19
619.51	43653.33
619.67	43604.18
619.82	43777.38
619.97	43627.59
620.12	43325.66
620.28	43295.23
620.43	43566.73
620.58	43934.20
620.73	43433.32
620.89	43150.12
621.04	43594.82
621.19	43220.33
621.34	43456.73
621.49	43262.46
621.65	43192.25
621.80	43227.35
621.95	42913.72
622.10	43285.87
622.25	43210.97
622.41	42909.04
622.56	42543.92
622.71	43386.51
622.86	42939.47
623.01	43126.71
623.16	43227.35
623.32	42803.72
623.47	43311.61
623.62	43112.67
623.77	42749.88
623.92	42988.62
624.07	42824.78
624.23	42546.26
624.38	42885.64
624.53	42717.12
624.68	42632.86
624.83	42696.05
624.98	42691.37
625.13	42642.22
625.29	42829.46
625.44	42775.63
625.59	42220.92
625.74	42312.20
625.89	42213.90
626.04	42328.59
626.19	42398.80
626.34	42525.19
626.49	42412.85
626.65	42754.57
626.80	42710.10
626.95	42595.41
627.10	42464.34
627.25	42139.00
627.40	42031.34
627.55	41762.18
627.70	41614.72
627.85	41961.12
628.00	41926.02
628.15	42366.04
628.30	41918.99
628.45	42087.51
628.60	41897.93
628.76	42508.81
628.91	42108.58
629.06	42054.75
629.21	41675.58
629.36	41673.24
629.51	41174.70
629.66	41366.63
629.81	41755.16
629.96	41954.10
630.11	41443.87
630.26	41619.41
630.41	41848.78
630.56	41420.46
630.71	41364.29
630.86	41539.83
631.01	41043.63
631.16	41439.18
631.31	41141.94
631.46	40912.56
631.61	41237.90
631.76	41490.68
631.91	41289.39
632.06	41574.94
632.21	41390.03
632.36	41783.24
632.51	41312.80
632.66	41584.30
632.81	41649.83
632.96	40774.47
633.10	41228.54
633.25	41106.83
633.40	41165.34
633.55	41329.18
633.70	41397.06
633.85	41237.90
634.00	40818.94
634.15	40994.48
634.30	40905.54
634.45	41125.55
634.60	41036.61
634.75	41392.37
634.90	41228.54
635.05	40809.58
635.19	41076.40
635.34	41354.93
635.49	41273.01
635.64	40879.80
635.79	40692.55
635.94	40395.31
636.09	40921.93
636.24	40631.70
636.39	40313.39
636.53	40559.14
636.68	40512.33
636.83	40329.77
636.98	40552.12
637.13	40194.02
637.28	40172.96
637.43	40505.31
637.57	40734.68
637.72	40451.48
637.87	40437.44
638.02	40851.71
638.17	40453.82
638.32	40486.59
638.46	40224.45
638.61	40060.61
638.76	39786.77
638.91	40383.60
639.06	40484.25
639.20	40465.52
639.35	40282.96
639.50	40158.91
639.65	40493.61
639.80	40144.87
639.94	40069.97
640.09	39875.71
640.24	39913.16
640.39	39807.83
640.54	39889.75
640.68	39922.52
640.83	39950.60
640.98	40154.23
641.13	39463.77
641.27	40140.19
641.42	39566.76
641.57	40004.44
641.72	39533.99
641.86	39484.84
642.01	39821.87
642.16	39164.18
642.31	39707.19
642.45	39508.24
642.60	39082.27
642.75	39276.53
642.90	39475.48
643.04	40065.29
643.19	39536.33
643.34	39388.88
643.48	39124.40
643.63	39754.00
643.78	39512.92
643.93	39213.34
644.07	38932.47
644.22	39262.49
644.37	38768.63
644.51	38895.02
644.66	39164.18
644.81	39381.85
644.95	39463.77
645.10	39468.45
645.25	39136.10
645.39	39419.30
645.54	39349.09
645.69	39079.92
645.83	39210.99
645.98	38820.13
646.13	39026.09
646.27	39421.64
646.42	38892.68
646.57	39131.42
646.71	39084.61
646.86	38859.91
647.00	39398.24
647.15	38998.01
647.30	38834.17
647.44	38904.38
647.59	38785.02
647.74	38553.30
647.88	38883.32
648.03	38590.75
648.17	38611.82
648.32	38925.45
648.47	38684.37
648.61	38780.34
648.76	38918.43
648.90	39040.14
649.05	38747.57
649.20	38483.09
649.34	38515.86
649.49	38469.04
649.63	38501.81
649.78	38471.39
649.92	38611.82
650.07	39089.29
650.21	37860.51
650.36	38265.42
650.51	38337.98
650.65	38838.85
650.80	38960.56
650.94	38192.86
651.09	38590.75
651.23	38476.07
651.38	38298.19
651.52	38401.17
651.67	38246.69
651.81	38415.21
651.96	38384.79
652.10	38103.92
652.25	37853.48
652.39	37640.50
652.54	38029.02
652.68	37546.87
652.83	37717.73
652.97	38352.02
653.12	38059.45
653.26	38061.79
653.41	38019.66
653.55	37759.86
653.70	37455.59
653.84	37811.35
653.99	38298.19
654.13	38000.94
654.27	37787.95
654.42	37862.85
654.56	37605.39
654.71	37834.76
654.85	37483.68
655.00	37661.56
655.14	37298.78
655.29	37273.03
655.43	36966.42
655.57	36802.58
655.72	37181.75
655.86	37017.91
656.01	36957.06
656.15	37336.23
656.30	36952.38
656.44	37209.84
656.58	37085.79
656.73	36767.48
656.87	37078.77
657.01	37060.04
657.16	37177.07
657.30	36666.83
657.45	36706.62
657.59	36842.37
657.73	36538.10
657.88	36926.63
658.02	36524.06
658.16	36505.34
658.31	37057.70
658.45	36795.56
658.60	36568.53
658.74	36814.29
658.88	37027.28
659.03	36430.44
659.17	36430.44
659.31	36472.57
659.46	36037.23
659.60	36119.15
659.74	36268.94
659.89	36219.79
660.03	36282.98
660.17	36275.96
660.32	36093.40
660.46	36528.74
660.60	36615.34
660.74	36479.59
660.89	36294.69
661.03	35754.02
661.17	35941.27
661.32	35660.40
661.46	35620.61
661.60	35381.88
661.74	35477.84
661.89	35697.85
662.03	35959.99
662.17	35899.14
662.31	35433.37
662.46	35901.48
662.60	35768.07
662.74	35576.14
662.88	35585.50
663.03	35548.06
663.17	35412.31
663.31	34944.20
663.45	35550.40
663.60	35178.25
663.74	34637.59
663.88	35182.93
664.02	35091.65
664.17	35381.88
664.31	34841.21
664.45	35117.40
664.59	35445.07
664.73	34429.28
664.88	35091.65
665.02	34302.89
665.16	34483.11
665.30	34806.11
665.44	34469.07
665.59	34462.05
665.73	34307.57
665.87	34515.88
666.01	34316.93
666.15	34204.59
666.29	33972.88
666.44	34904.41
666.58	34370.77
666.72	34232.68
666.86	34316.93
667.00	34508.86
667.14	34183.52
667.28	33715.42
667.43	33673.29
667.57	33874.57
667.71	33453.28
667.85	33591.37
667.99	33472.00
668.13	33230.93
668.27	33762.23
668.41	33619.46
668.56	33226.24
668.70	33441.57
668.84	33369.02
668.98	33589.03
669.12	33401.79
669.26	33046.02
669.40	33317.53
669.54	32938.36
669.68	33326.89
669.82	33219.22
669.96	32830.69
670.10	32914.95
670.25	32716.01
670.39	32879.85
670.53	32973.47
670.67	32538.13
670.81	32823.67
670.95	32795.59
671.09	32968.79
671.23	32531.11
671.37	33013.26
671.51	32629.41
671.65	32217.47
671.79	32259.60
671.93	32257.26
672.07	32313.44
672.21	32278.33
672.35	31704.90
672.49	31676.81
672.63	31906.18
672.77	31562.12
672.91	31704.90
673.05	31527.02
673.19	31812.56
673.33	31637.02
673.47	31421.69
673.61	31185.30
673.75	31232.11
673.89	31220.41
674.03	31168.91
674.17	31358.50
674.31	31019.12
674.45	30918.48
674.59	30962.95
674.73	31194.66
674.87	31012.10
675.01	30642.29
675.15	31014.44
675.29	30745.28
675.43	30813.15
675.56	30529.95
675.70	30305.26
675.84	30323.98
675.98	29488.41
676.12	29795.02
676.26	30176.53
676.40	30155.46
676.54	30466.75
676.68	29652.25
676.82	29385.43
676.96	29692.04
677.10	29319.89
677.23	29350.32
677.37	29624.16
677.51	29350.32
677.65	29223.93
677.79	28952.43
677.93	29057.75
678.07	28905.62
678.21	28591.98
678.34	29095.20
678.48	28577.94
678.62	28566.24
678.76	28149.62
678.90	28390.70
679.04	28437.51
679.18	28332.18
679.31	28147.28
679.45	27723.65
679.59	27793.86
679.73	28023.23
679.87	27618.32
680.00	28077.07
680.14	27709.60
680.28	27779.82
680.42	27775.14
680.56	27641.73
680.70	27304.69
680.83	27269.58
680.97	26906.80
681.11	26831.90
681.25	26845.94
681.39	26920.84
681.52	27112.77
681.66	26546.36
681.80	26749.98
681.94	26696.15
682.07	26532.31
682.21	26555.72
682.35	25834.83
682.49	26506.57
682.62	26422.31
682.76	25919.09
682.90	26176.55
683.04	26148.46
683.17	25912.07
683.31	26115.70
683.45	25659.29
683.59	25668.66
683.72	25724.83
683.86	25296.51
684.00	25338.64
684.13	25539.93
684.27	25226.29
684.41	24985.22
684.55	24694.99
684.68	24922.02
684.82	25015.65
684.96	24664.57
685.09	24783.93
685.23	24634.14
685.37	24329.87
685.50	24893.94
685.64	24643.50
685.78	24245.61
685.91	24278.38
686.05	23892.19
686.19	24020.92
686.32	23978.79
686.46	23934.32
686.60	23379.61
686.73	23386.63
686.87	23506.00
687.01	23934.32
687.14	23377.27
687.28	23222.80
687.42	23166.62
687.55	22752.35
687.69	23051.94
687.82	22902.14
687.96	22972.36
688.10	22504.25
688.23	22625.96
688.37	22728.94
688.50	22558.08
688.64	22345.09
688.78	21998.70
688.91	22410.63
689.05	22354.46
689.18	22190.62
689.32	21523.57
689.46	21781.03
689.59	21886.35
689.73	22139.13
689.86	21928.48
690.00	21528.25
690.13	21846.56
690.27	21680.38
690.41	21441.65
690.54	21240.36
690.68	21137.38
690.81	20996.95
690.95	21081.21
691.08	20968.86
691.22	21036.74
691.35	21048.44
691.49	21088.23
691.62	20854.17
691.76	21041.42
691.89	20900.98
692.03	20421.17
692.16	20498.41
692.30	20318.19
692.43	20430.54
692.57	20084.14
692.70	20023.28
692.84	20065.41
692.97	19957.75
693.11	19555.18
693.24	19573.90
693.38	19634.75
693.51	19695.61
693.65	19632.41
693.78	20034.99
693.92	19494.32
694.05	19363.25
694.19	19129.20
694.32	19365.59
694.45	19342.19
694.59	19005.15
694.72	19091.75
694.86	18813.23
694.99	18691.52
695.13	18944.30
695.26	18457.46
695.39	17998.72
695.53	18373.21
695.66	18637.69
695.80	18478.53
695.93	18047.87
696.07	18092.34
696.20	17884.03
696.33	18284.26
696.47	18281.92
696.60	18026.81
696.73	17884.03
696.87	17881.69
697.00	17788.07
697.14	17640.62
697.27	17790.41
697.40	17565.72
697.54	17242.73
697.67	17172.51
697.80	17146.76
697.94	17055.48
698.07	17116.34
698.21	17092.93
698.34	17158.47
698.47	17153.79
698.61	16528.86
698.74	16460.99
698.87	16723.13
699.01	16423.54
699.14	16514.82
699.27	16037.35
699.40	16482.05
699.54	16142.67
699.67	16121.61
699.80	16233.96
699.94	16128.63
700.07	16280.77
700.20	15667.55
700.34	15803.30
700.47	15899.26
700.60	15709.68
700.73	15676.91
700.87	15356.25
701.00	15566.90
701.13	15515.41
701.26	15721.38
701.40	15269.66
701.53	15318.81
701.66	15264.97
701.79	15318.81
701.93	15000.49
702.06	14993.47
702.19	14906.87
702.32	15080.07
702.46	14696.22
702.59	14532.39
702.72	14663.46
702.85	14504.30
702.99	14462.17
703.12	14817.93
703.25	14766.44
703.38	14586.22
703.51	14225.78
703.65	14359.19
703.78	14001.08
703.91	14068.96
704.04	14162.58
704.17	14139.18
704.31	13584.47
704.44	13657.03
704.57	13617.24
704.70	13502.55
704.83	13825.54
704.96	13621.92
705.10	13848.95
705.23	13743.63
>>>>>End Processed Spectral Data<<<<<
