SpectraSuite Data File
++++++++++++++++++++++++++++++++++++
Date: Fri Oct 25 11:33:14 EDT 2013
User: price-jones
Dark Spectrum Present: No
Reference Spectrum Present: No
Number of Sampled Component Spectra: 1
Spectrometers: USB2+H05261
Integration Time (usec): 100000 (USB2+H05261)
Spectra Averaged: 1 (USB2+H05261)
Boxcar Smoothing: 0 (USB2+H05261)
Correct for Electrical Dark: No (USB2+H05261)
Strobe/Lamp Enabled: No (USB2+H05261)
Correct for Detector Non-linearity: No (USB2+H05261)
Correct for Stray Light: No (USB2+H05261)
Number of Pixels in Processed Spectrum: 2048
>>>>>Begin Processed Spectral Data<<<<<
365.73	250.44
365.92	250.44
366.12	250.44
366.32	187.24
366.52	205.97
366.72	194.26
366.91	175.54
367.11	161.50
367.31	154.48
367.51	161.50
367.70	184.90
367.90	152.13
368.10	126.39
368.30	159.16
368.49	187.24
368.69	180.22
368.89	184.90
369.09	184.90
369.28	173.20
369.48	217.67
369.68	224.69
369.87	156.82
370.07	191.92
370.27	248.10
370.47	325.33
370.66	475.13
370.86	479.81
371.06	482.15
371.25	512.58
371.45	503.22
371.65	594.50
371.84	491.51
372.04	486.83
372.24	526.62
372.44	629.60
372.63	568.75
372.83	610.88
373.03	608.54
373.22	599.18
373.42	580.45
373.62	655.35
373.81	667.05
374.01	667.05
374.21	664.71
374.40	610.88
374.60	631.94
374.79	690.46
374.99	669.39
375.19	643.65
375.38	695.14
375.58	631.94
375.78	688.12
375.97	716.20
376.17	634.29
376.37	634.29
376.56	674.07
376.76	617.90
376.95	685.78
377.15	685.78
377.35	739.61
377.54	685.78
377.74	648.33
377.93	676.41
378.13	648.33
378.33	692.80
378.52	645.99
378.72	734.93
378.91	786.42
379.11	699.82
379.31	669.39
379.50	723.23
379.70	767.70
379.89	809.83
380.09	727.91
380.28	758.33
380.48	753.65
380.68	725.57
380.87	727.91
381.07	727.91
381.26	786.42
381.46	685.78
381.65	746.63
381.85	730.25
382.04	763.01
382.24	753.65
382.43	760.67
382.63	781.74
382.83	873.02
383.02	826.21
383.22	781.74
383.41	809.83
383.61	828.55
383.80	873.02
384.00	849.61
384.19	816.85
384.39	819.19
384.58	791.10
384.78	777.06
384.97	793.44
385.17	854.30
385.36	798.12
385.56	805.14
385.75	877.70
385.95	833.23
386.14	866.00
386.34	837.91
386.53	877.70
386.72	894.08
386.92	891.74
387.11	922.17
387.31	922.17
387.50	884.72
387.70	926.85
387.89	943.24
388.09	894.08
388.28	870.68
388.48	877.70
388.67	926.85
388.86	978.34
389.06	954.94
389.25	908.13
389.45	915.15
389.64	929.19
389.84	1006.43
390.03	954.94
390.22	983.02
390.42	912.81
390.61	954.94
390.81	999.41
391.00	950.26
391.19	992.39
391.39	1001.75
391.58	1032.18
391.78	1034.52
391.97	1032.18
392.16	929.19
392.36	994.73
392.55	938.55
392.75	1043.88
392.94	1015.79
393.13	1086.01
393.33	1088.35
393.52	1137.50
393.71	1043.88
393.91	1057.92
394.10	1086.01
394.29	1090.69
394.49	1029.84
394.68	1111.75
394.88	1104.73
395.07	1076.65
395.26	1167.93
395.46	1163.25
395.65	1207.72
395.84	1200.69
396.04	1128.14
396.23	1240.48
396.42	1210.06
396.62	1240.48
396.81	1200.69
397.00	1247.51
397.19	1299.00
397.39	1334.11
397.58	1266.23
397.77	1235.80
397.97	1287.29
398.16	1221.76
398.35	1357.51
398.55	1207.72
398.74	1287.29
398.93	1373.89
399.12	1369.21
399.32	1306.02
399.51	1357.51
399.70	1439.43
399.90	1341.13
400.09	1392.62
400.28	1341.13
400.47	1380.92
400.67	1334.11
400.86	1406.66
401.05	1387.94
401.24	1406.66
401.44	1373.89
401.63	1493.26
401.82	1425.39
402.01	1366.87
402.21	1533.05
402.40	1542.41
402.59	1535.39
402.78	1495.60
402.97	1441.77
403.17	1469.86
403.36	1603.27
403.55	1486.24
403.74	1554.12
403.93	1617.31
404.13	1715.61
404.32	1577.52
404.51	1593.90
404.70	1605.61
404.89	1514.33
405.09	1771.79
405.28	1678.16
405.47	1568.16
405.66	1638.38
405.85	1776.47
406.05	1776.47
406.24	1727.32
406.43	1696.89
406.62	1764.76
406.81	1870.09
407.00	1755.40
407.20	1781.15
407.39	1872.43
407.58	1811.57
407.77	1858.39
407.96	1912.22
408.15	1893.49
408.34	1872.43
408.54	2005.84
408.73	1933.28
408.92	1853.70
409.11	1984.77
409.30	1984.77
409.49	1984.77
409.68	2019.88
409.87	2005.84
410.07	2118.18
410.26	2111.16
410.45	2024.56
410.64	2052.65
410.83	2003.50
411.02	2207.13
411.21	2253.94
411.40	2118.18
411.59	2249.25
411.78	2232.87
411.98	2017.54
412.17	2230.53
412.36	2239.89
412.55	2193.08
412.74	2361.60
412.93	2392.03
413.12	2361.60
413.31	2413.09
413.50	2361.60
413.69	2471.61
413.88	2441.18
414.07	2569.91
414.26	2499.69
414.45	2546.50
414.64	2544.16
414.83	2609.70
415.02	2544.16
415.22	2644.81
415.41	2670.55
415.60	2637.78
415.79	2675.23
415.98	2820.35
416.17	2745.45
416.36	2764.17
416.55	2827.37
416.74	2853.11
416.93	2773.53
417.12	2789.92
417.31	2874.18
417.50	2855.45
417.69	2949.08
417.88	2984.18
418.07	2993.55
418.26	2874.18
418.45	2918.65
418.64	3098.87
418.83	2984.18
419.02	3066.10
419.21	2995.89
419.39	2998.23
419.58	3030.99
419.77	3157.38
419.96	3183.13
420.15	3197.17
420.34	3246.32
420.53	3122.27
420.72	3185.47
420.91	3339.94
421.10	3255.69
421.29	3293.13
421.48	3279.09
421.67	3239.30
421.86	3456.97
422.05	3262.71
422.24	3435.91
422.43	3393.78
422.61	3414.84
422.80	3318.88
422.99	3557.61
423.18	3508.46
423.37	3456.97
423.56	3421.86
423.75	3506.12
423.94	3379.73
424.13	3204.19
424.32	3365.69
424.50	3503.78
424.69	3581.02
424.88	3426.54
425.07	3382.07
425.26	3478.04
425.45	3419.52
425.64	3503.78
425.83	3557.61
426.01	3531.87
426.20	3665.28
426.39	3564.64
426.58	3517.83
426.77	3637.19
426.96	3597.40
427.15	3520.17
427.33	3599.74
427.52	3625.49
427.71	3592.72
427.90	3655.92
428.09	3714.43
428.28	3630.17
428.46	3763.58
428.65	3669.96
428.84	3716.77
429.03	3712.09
429.22	3798.69
429.40	3700.39
429.59	3857.20
429.78	3791.67
429.97	3595.06
430.16	3831.46
430.34	3871.25
430.53	3908.69
430.72	3899.33
430.91	3850.18
431.10	3822.09
431.28	3997.64
431.47	4056.15
431.66	3953.16
431.85	3934.44
432.03	4156.79
432.22	4159.13
432.41	3985.93
432.60	4035.08
432.79	4088.92
432.97	4212.96
433.16	4124.02
433.35	4177.86
433.54	4102.96
433.72	4194.24
433.91	4266.80
434.10	4163.81
434.28	4271.48
434.47	4346.37
434.66	4358.08
434.85	4294.88
435.03	4407.23
435.22	4418.93
435.41	4409.57
435.59	4262.12
435.78	4468.08
435.97	4325.31
436.16	4411.91
436.34	4360.42
436.53	4517.23
436.72	4514.89
436.90	4475.10
437.09	4475.10
437.28	4524.26
437.46	4540.64
437.65	4545.32
437.84	4545.32
438.02	4634.26
438.21	4641.28
438.40	4629.58
438.58	4793.42
438.77	4910.44
438.96	4851.93
439.14	4908.10
439.33	5008.75
439.52	5011.09
439.70	4894.06
439.89	5008.75
440.08	5125.77
440.26	5039.17
440.45	5036.83
440.63	5139.82
440.82	5125.77
441.01	5170.24
441.19	5294.29
441.38	5235.78
441.57	5336.42
441.75	5427.70
441.94	5338.76
442.12	5476.85
442.31	5432.38
442.50	5493.24
442.68	5458.13
442.87	5537.71
443.05	5664.10
443.24	5631.33
443.43	5750.70
443.61	5593.88
443.80	5792.83
443.98	5437.06
444.17	5455.79
444.35	5664.10
444.54	5668.78
444.73	5551.75
444.91	5547.07
445.10	5884.11
445.28	5734.31
445.47	5675.80
445.65	5694.52
445.84	5781.12
446.02	5767.08
446.21	5795.17
446.39	5703.89
446.58	5727.29
446.77	5785.80
446.95	5778.78
447.14	5692.18
447.32	5806.87
447.51	5563.45
447.69	5640.69
447.88	5954.32
448.06	5975.39
448.25	5895.81
448.43	5851.34
448.62	5933.26
448.80	5940.28
448.99	5949.64
449.17	5982.41
449.36	5954.32
449.54	6052.63
449.73	6087.73
449.91	6284.34
450.10	6160.29
450.28	6289.02
450.46	6120.50
450.65	6176.67
450.83	6061.99
451.02	6193.06
451.20	6216.46
451.39	6064.33
451.57	6225.82
451.76	6216.46
451.94	6317.11
452.13	6317.11
452.31	6356.90
452.49	6029.22
452.68	6209.44
452.86	6387.32
453.05	6345.19
453.23	6555.84
453.42	6436.47
453.60	6380.30
453.78	6382.64
453.97	6417.75
454.15	6441.15
454.34	6525.41
454.52	6619.04
454.70	6572.22
454.89	6583.93
455.07	6768.83
455.26	6616.69
455.44	6960.75
455.62	6619.04
455.81	6839.05
455.99	6778.19
456.17	6932.67
456.36	6815.64
456.54	6927.99
456.73	6935.01
456.91	7150.34
457.09	6995.86
457.28	7021.61
457.46	6895.22
457.64	7180.76
457.83	7178.42
458.01	7119.91
458.19	7229.91
458.38	7016.93
458.56	7470.99
458.74	7344.60
458.93	7185.44
459.11	7236.94
459.29	7255.66
459.48	7208.85
459.66	7232.26
459.84	7410.14
460.03	7564.61
460.21	7501.42
460.39	7386.73
460.57	7562.27
460.76	7623.12
460.94	7602.06
461.12	7536.52
461.31	7564.61
461.49	7700.36
461.67	7548.23
461.85	7948.46
462.04	7695.68
462.22	8365.07
462.40	7985.91
462.59	7719.09
462.77	7845.48
462.95	7875.90
463.13	7751.85
463.32	7847.82
463.50	8088.89
463.68	7969.52
463.86	8058.46
464.05	7751.85
464.23	7913.35
464.41	8063.15
464.59	8121.66
464.78	8224.64
464.96	7894.63
465.14	8044.42
465.32	8077.19
465.50	8180.17
465.69	8166.13
465.87	8030.38
466.05	8170.81
466.23	8135.70
466.41	8454.02
466.60	8395.50
466.78	8119.32
466.96	8318.26
467.14	8416.57
467.32	8170.81
467.51	8505.51
467.69	8065.49
467.87	8418.91
468.05	8615.51
468.23	8435.29
468.41	8468.06
468.60	8505.51
468.78	8669.34
468.96	8531.25
469.14	8779.35
469.32	8798.07
469.50	8573.38
469.69	8620.19
469.87	8695.09
470.05	8704.45
470.23	8954.89
470.41	8926.80
470.59	9055.53
470.77	8875.31
470.95	8884.67
471.14	9221.71
471.32	8833.18
471.50	9013.40
471.68	9036.81
471.86	9439.38
472.04	9198.31
472.22	9511.94
472.40	9210.01
472.58	9376.19
472.77	9394.91
472.95	9352.78
473.13	9804.50
473.31	9486.19
473.49	9657.05
473.67	9544.70
473.85	9745.99
474.03	9504.92
474.21	9792.80
474.39	9760.03
474.57	9830.25
474.75	9900.47
474.93	9980.04
475.12	9968.34
475.30	10160.27
475.48	9788.12
475.66	10083.03
475.84	10218.78
476.02	10300.70
476.20	10221.12
476.38	10560.50
476.56	10649.44
476.74	10628.37
476.92	10403.68
477.10	10520.71
477.28	10729.02
477.46	10967.75
477.64	10787.53
477.82	11073.07
478.00	11410.11
478.18	11075.42
478.36	11229.89
478.54	11524.80
478.72	11480.33
478.90	11438.20
479.08	11737.79
479.26	11620.76
479.44	11531.82
479.62	11765.87
479.80	11702.68
479.98	12018.65
480.16	12566.34
480.34	12070.14
480.52	11978.86
480.70	12432.93
480.88	12411.86
481.06	12545.27
481.24	12638.89
481.41	12666.98
481.59	13071.89
481.77	12987.63
481.95	12863.58
482.13	13018.06
482.31	13202.96
482.49	13481.49
482.67	13408.93
482.85	13619.58
483.03	13551.70
483.21	13694.47
483.39	13909.80
483.57	13640.64
483.74	14075.98
483.92	14239.82
484.10	14129.81
484.28	14579.20
484.46	14623.67
484.64	14630.69
484.82	14338.12
485.00	14806.23
485.18	15173.69
485.35	15190.08
485.53	15159.65
485.71	15075.39
485.89	15658.18
486.07	15332.85
486.25	15702.65
486.43	15599.67
486.61	15613.71
486.78	15917.98
486.96	16163.74
487.14	16320.56
487.32	16353.32
487.50	16395.45
487.68	16655.25
487.85	16650.57
488.03	17041.44
488.21	17270.81
488.39	16994.63
488.57	17158.47
488.75	17268.47
488.92	17341.03
489.10	17921.48
489.28	17706.15
489.46	17898.08
489.64	18160.22
489.81	18319.37
489.99	18284.26
490.17	18139.15
490.35	18625.98
490.53	18906.85
490.70	18747.69
490.88	18848.33
491.06	19190.05
491.24	18944.30
491.41	19206.44
491.59	19398.36
491.77	19126.86
491.95	19566.88
492.13	19697.95
492.30	19777.53
492.48	19964.77
492.66	20042.01
492.84	19955.41
493.01	20435.22
493.19	20273.72
493.37	20709.06
493.54	20678.63
493.72	20676.29
493.90	20800.34
494.08	20966.52
494.25	21139.72
494.43	21308.24
494.61	21544.63
494.79	21373.77
494.96	21102.27
495.14	21743.58
495.32	21865.28
495.49	21926.14
495.67	22010.40
495.85	22307.65
496.02	22405.95
496.20	22476.16
496.38	22651.70
496.55	22443.40
496.73	23297.69
496.91	22693.83
497.09	23115.13
497.26	23227.48
497.44	23316.42
497.62	23520.04
497.79	23676.86
497.97	23262.58
498.14	24006.87
498.32	23871.12
498.50	24130.92
498.67	24261.99
498.85	23955.38
499.03	24393.06
499.20	24280.72
499.38	24327.53
499.56	24725.42
499.73	24372.00
499.91	24746.48
500.08	25003.94
500.26	24638.82
500.44	25308.21
500.61	25050.75
500.79	25032.03
500.97	25266.08
501.14	25422.90
501.32	25516.52
501.49	25394.81
501.67	25954.20
501.84	26052.50
502.02	25989.31
502.20	25841.85
502.37	25907.39
502.55	26188.25
502.72	25893.35
502.90	26501.89
503.07	26216.34
503.25	26176.55
503.43	26328.69
503.60	26808.50
503.78	26363.79
503.95	26349.75
504.13	26962.97
504.30	27040.21
504.48	26710.19
504.65	26869.35
504.83	27243.84
505.01	27669.81
505.18	27566.83
505.36	27494.27
505.53	27480.23
505.71	27601.94
505.88	27651.09
506.06	27328.10
506.23	27878.12
506.41	27718.96
506.58	28065.36
506.76	27538.74
506.93	28201.11
507.11	28011.53
507.28	28418.78
507.46	28109.83
507.63	28481.98
507.81	28821.36
507.98	28474.96
508.16	28753.48
508.33	29078.82
508.50	29008.60
508.68	28907.96
508.85	29380.74
509.03	28699.65
509.20	29369.04
509.38	29567.99
509.55	29832.47
509.73	29556.28
509.90	29488.41
510.08	29771.61
510.25	29736.51
510.42	29961.20
510.60	30038.44
510.77	30277.17
510.95	30543.99
511.12	30361.43
511.30	30277.17
511.47	30506.54
511.64	30859.96
511.82	30499.52
511.99	30766.34
512.17	30939.54
512.34	30817.83
512.51	30913.80
512.69	31068.27
512.86	31187.64
513.04	31660.43
513.21	31400.63
513.38	31328.07
513.56	31489.57
513.73	31321.05
513.90	31367.86
514.08	31161.89
514.25	31498.93
514.43	31913.20
514.60	31622.98
514.77	31840.65
514.95	32222.16
515.12	32121.51
515.29	31943.63
515.47	31817.24
515.64	32395.35
515.81	32055.98
515.99	32655.15
516.16	32683.24
516.33	32355.57
516.51	32800.27
516.68	32526.42
516.85	32634.09
517.03	33214.54
517.20	33001.55
517.37	32765.16
517.54	33228.59
517.72	33439.23
517.89	33263.69
518.06	33544.56
518.24	33207.52
518.41	33074.11
518.58	33542.22
518.75	33472.00
518.93	33930.75
519.10	33727.12
519.27	33551.58
519.45	33785.63
519.62	34155.44
519.79	34164.80
519.96	34092.24
520.14	33970.54
520.31	33858.19
520.48	34019.69
520.65	34267.78
520.83	34600.14
521.00	35077.61
521.17	34600.14
521.34	34616.52
521.52	34913.77
521.69	34890.37
521.86	34780.36
522.03	34766.32
522.20	35119.74
522.38	35342.09
522.55	35171.23
522.72	35374.86
522.89	35360.81
523.07	35751.68
523.24	35201.66
523.41	36140.21
523.58	35866.37
523.75	35833.60
523.92	35817.22
524.10	35866.37
524.27	35971.69
524.44	35889.77
524.61	36046.59
524.78	36154.26
524.96	36608.32
525.13	36830.67
525.30	35983.40
525.47	36488.95
525.64	36421.08
525.81	36753.43
525.98	36563.85
526.16	36755.77
526.33	36697.26
526.50	36804.92
526.67	36563.85
526.84	37076.43
527.01	37053.02
527.18	36973.44
527.36	37205.16
527.53	37373.67
527.70	37706.03
527.87	37633.47
528.04	37205.16
528.21	37411.12
528.38	37771.57
528.55	38101.58
528.72	37500.06
528.89	37827.74
529.07	37446.23
529.24	37209.84
529.41	38206.90
529.58	37605.39
529.75	38080.52
529.92	37858.17
530.09	38080.52
530.26	37961.15
530.43	37862.85
530.60	37584.32
530.77	38054.77
530.94	38061.79
531.11	37926.04
531.28	38019.66
531.46	38464.36
531.63	38492.45
531.80	38253.72
531.97	38836.51
532.14	38515.86
532.31	38672.67
532.48	38796.72
532.65	39384.19
532.82	39089.29
532.99	38988.64
533.16	38667.99
533.33	39089.29
533.50	39501.22
533.67	39058.86
533.84	39166.52
534.01	39253.12
534.18	39159.50
534.35	39349.09
534.52	39461.43
534.69	39283.55
534.86	39370.15
535.03	39798.47
535.20	39625.27
535.37	39529.31
535.54	39461.43
535.71	39945.92
535.88	39896.77
536.05	40163.59
536.22	40100.40
536.38	39838.26
536.55	39782.09
536.72	40032.52
536.89	39772.72
537.06	40458.50
537.23	40594.25
537.40	39974.01
537.57	40175.30
537.74	40282.96
537.91	40627.02
538.08	40495.95
538.25	40252.53
538.42	40718.30
538.59	40837.67
538.75	40896.18
538.92	41060.02
539.09	41289.39
539.26	40964.06
539.43	40907.88
539.60	41022.57
539.77	40973.42
539.94	41483.66
540.11	41184.07
540.28	41448.55
540.44	41322.16
540.61	41331.52
540.78	40769.79
540.95	41588.98
541.12	41392.37
541.29	41404.08
541.46	41497.70
541.62	40933.63
541.79	41546.85
541.96	41244.92
542.13	41521.10
542.30	41645.15
542.47	41794.95
542.63	41633.45
542.80	41731.75
542.97	42197.52
543.14	42387.10
543.31	42387.10
543.48	41853.46
543.64	42398.80
543.81	42555.62
543.98	41958.78
544.15	42436.25
544.32	42443.27
544.48	42859.89
544.65	42623.50
544.82	42712.44
544.99	42281.78
545.16	42656.26
545.32	42529.87
545.49	43037.77
545.66	43253.10
545.83	42981.60
546.00	43131.39
546.16	43037.77
546.33	42717.12
546.50	42492.43
546.67	42953.51
546.83	42682.01
547.00	42583.71
547.17	42677.33
547.34	42738.18
547.50	43416.94
547.67	43505.88
547.84	43227.35
548.00	43274.16
548.17	43508.22
548.34	43990.37
548.51	43716.53
548.67	43496.52
548.84	43524.60
549.01	43845.26
549.18	43468.43
549.34	43386.51
549.51	43304.59
549.68	44243.15
549.84	43501.20
550.01	43833.55
550.18	43660.35
550.34	43927.17
550.51	43852.28
550.68	44151.87
550.84	43852.28
551.01	44142.50
551.18	44128.46
551.34	44112.08
551.51	44210.38
551.68	44032.50
551.84	43807.81
552.01	44182.29
552.18	44493.58
552.34	43920.15
552.51	44285.28
552.68	44020.80
552.84	44332.09
553.01	44289.96
553.18	44392.94
553.34	44912.54
553.51	44329.75
553.67	45045.95
553.84	44596.57
554.01	44959.35
554.17	44472.52
554.34	45139.57
554.51	44760.40
554.67	45050.63
554.84	45343.20
555.00	44795.51
555.17	44486.56
555.33	45230.85
555.50	44505.29
555.67	45081.06
555.83	45340.86
556.00	45216.81
556.16	45720.02
556.33	45581.93
556.50	45024.89
556.66	45406.39
556.83	45120.85
556.99	45949.40
557.16	45282.34
557.32	45633.42
557.49	45214.47
557.65	45235.53
557.82	45003.82
557.98	45696.62
558.15	45808.96
558.32	45813.65
558.48	45460.23
558.65	45521.08
558.81	45720.02
558.98	45647.47
559.14	45280.00
559.31	45478.95
559.47	45769.18
559.64	45584.27
559.80	46050.04
559.97	45722.37
560.13	45476.61
560.30	45469.59
560.46	45918.97
560.63	46478.36
560.79	46157.70
560.96	46157.70
561.12	46033.66
561.29	45935.35
561.45	46258.35
561.61	46000.89
561.78	46192.81
561.94	46096.85
562.11	46003.23
562.27	46246.65
562.44	46014.93
562.60	46466.66
562.77	46113.23
562.93	45900.25
563.10	46515.81
563.26	46225.58
563.42	46845.82
563.59	45853.44
563.75	46108.55
563.92	46452.61
564.08	46066.42
564.24	46571.98
564.41	46155.36
564.57	45972.80
564.74	46646.88
564.90	46520.49
565.07	46508.79
565.23	46445.59
565.39	46471.34
565.56	46684.33
565.72	46539.21
565.88	46494.74
566.05	46263.03
566.21	46358.99
566.38	46522.83
566.54	46822.42
566.70	46518.15
566.87	46590.70
567.03	46480.70
567.19	46787.31
567.36	46398.78
567.52	46721.77
567.68	46801.35
567.85	46976.89
568.01	46784.97
568.17	46775.61
568.34	47019.02
568.50	46941.78
568.66	46658.58
568.83	46827.10
568.99	47009.66
569.15	47016.68
569.32	46855.18
569.48	46871.57
569.64	47234.35
569.81	46885.61
569.97	46892.63
570.13	46876.25
570.30	46948.81
570.46	47281.16
570.62	47157.11
570.78	47189.88
570.95	47042.43
571.11	47309.25
571.27	46911.36
571.43	47107.96
571.60	46981.57
571.76	46894.97
571.92	47051.79
572.09	47173.50
572.25	47124.35
572.41	46756.88
572.57	46986.25
572.74	47845.23
572.90	46909.02
573.06	47253.08
573.22	47414.57
573.38	47388.83
573.55	47402.87
573.71	47547.98
573.87	47316.27
574.03	47056.47
574.20	47311.59
574.36	47388.83
574.52	47304.57
574.68	47250.74
574.84	47320.95
575.01	47358.40
575.17	47569.05
575.33	47400.53
575.49	47203.92
575.65	47533.94
575.82	47730.54
575.98	47213.29
576.14	47798.42
576.30	47674.37
576.46	47491.81
576.62	47236.69
576.79	47056.47
576.95	46946.47
577.11	47498.83
577.27	47356.06
577.43	47353.72
577.59	47103.28
577.75	47395.85
577.92	47339.68
578.08	47255.42
578.24	47463.72
578.40	47730.54
578.56	47576.07
578.72	47452.02
578.88	47260.10
579.04	47555.00
579.21	47620.54
579.37	47583.09
579.53	47899.06
579.69	47304.57
579.85	47498.83
580.01	47498.83
580.17	47145.41
580.33	47725.86
580.49	47585.43
580.65	47709.48
580.82	47676.71
580.98	47241.37
581.14	47297.55
581.30	47473.09
581.46	47395.85
581.62	47264.78
581.78	47086.90
581.94	47484.79
582.10	47292.86
582.26	47875.66
582.42	47449.68
582.58	47592.45
582.74	48046.52
582.90	47812.46
583.06	47716.50
583.22	47531.60
583.38	47234.35
583.54	47885.02
583.70	47868.64
583.86	47562.03
584.02	47728.20
584.18	47920.13
584.34	47796.08
584.50	47831.19
584.66	47995.03
584.82	47772.67
584.98	47739.91
585.14	47859.27
585.30	47421.59
585.46	47868.64
585.62	47870.98
585.78	47402.87
585.94	47215.63
586.10	47812.46
586.26	47445.00
586.42	47859.27
586.58	47929.49
586.74	47463.72
586.90	47505.85
587.06	47662.67
587.22	47826.51
587.38	47494.15
587.54	47812.46
587.70	48044.18
587.86	47882.68
588.02	47435.64
588.18	47779.70
588.34	47625.22
588.49	47875.66
588.65	47856.93
588.81	47622.88
588.97	47913.11
589.13	47903.74
589.29	47772.67
589.45	48322.70
589.61	48105.03
589.77	47927.15
589.93	47702.46
590.08	48292.27
590.24	48563.78
590.40	48318.02
590.56	48624.63
590.72	47669.69
590.88	48105.03
591.04	48179.93
591.20	48161.20
591.35	48311.00
591.51	48699.53
591.67	48289.93
591.83	48196.31
591.99	48385.89
592.15	48032.47
592.31	47648.63
592.46	47950.56
592.62	48280.57
592.78	48294.61
592.94	48481.86
593.10	48184.61
593.26	48851.66
593.41	48472.49
593.57	48584.84
593.73	48596.54
593.89	48432.71
594.05	48685.48
594.20	48591.86
594.36	48631.65
594.52	48491.22
594.68	48296.95
594.84	48081.63
594.99	48594.20
595.15	48423.34
595.31	48898.47
595.47	48474.84
595.62	48439.73
595.78	48182.27
595.94	48882.09
596.10	48369.51
596.25	48587.18
596.41	48369.51
596.57	48191.63
596.73	48898.47
596.88	48203.33
597.04	48910.17
597.20	48648.03
597.36	48512.28
597.51	48575.48
597.67	48435.05
597.83	48388.24
597.99	48488.88
598.14	48521.65
598.30	48818.89
598.46	48376.53
598.61	48961.67
598.77	48861.02
598.93	48598.88
599.09	48322.70
599.24	48727.61
599.40	48523.99
599.56	48533.35
599.71	48793.15
599.87	49214.44
600.03	48788.47
600.18	48914.86
600.34	48538.03
600.50	48697.19
600.65	48889.11
600.81	49184.02
600.97	48875.07
601.12	48905.49
601.28	48650.38
601.44	48446.75
601.59	48774.42
601.75	48605.91
601.91	48893.79
602.06	48435.05
602.22	48734.63
602.37	48987.41
602.53	48615.27
602.69	48776.76
602.84	48371.85
603.00	48802.51
603.16	48523.99
603.31	48912.52
603.47	48917.20
603.62	48982.73
603.78	48624.63
603.94	49017.84
604.09	48570.80
604.25	48823.58
604.40	48463.13
604.56	48718.25
604.71	48605.91
604.87	48582.50
605.03	48528.67
605.18	48589.52
605.34	49027.20
605.49	48175.25
605.65	48687.82
605.80	48425.68
605.96	48430.36
606.12	48355.47
606.27	48699.53
606.43	48495.90
606.58	48526.33
606.74	48519.31
606.89	48825.92
607.05	48406.96
607.20	48514.62
607.36	48165.88
607.51	48893.79
607.67	48325.04
607.82	48416.32
607.98	48360.15
608.13	48587.18
608.29	48268.87
608.44	48722.93
608.60	48395.26
608.75	48594.20
608.91	48378.87
609.06	48343.77
609.22	48729.95
609.37	48318.02
609.53	48837.62
609.68	48491.22
609.84	48418.66
609.99	48243.12
610.15	48755.70
610.30	48392.92
610.46	48500.58
610.61	48311.00
610.76	48168.22
610.92	48086.31
611.07	48318.02
611.23	47983.32
611.38	48287.59
611.54	48083.97
611.69	48219.72
611.84	48488.88
612.00	48563.78
612.15	47646.29
612.31	47950.56
612.46	47767.99
612.62	48081.63
612.77	48285.25
612.92	48325.04
613.08	48247.80
613.23	48212.70
613.39	48105.03
613.54	48004.39
613.69	48311.00
613.85	47955.24
614.00	48046.52
614.15	48523.99
614.31	47988.00
614.46	48090.99
614.62	47927.15
614.77	48184.61
614.92	47571.39
615.08	47775.02
615.23	48100.35
615.38	47613.52
615.54	47770.33
615.69	48170.57
615.84	47803.10
616.00	47803.10
616.15	47999.71
616.30	47840.55
616.46	47487.13
616.61	48135.46
616.76	47618.20
616.92	47723.52
617.07	48011.41
617.22	47564.37
617.37	47636.92
617.53	47714.16
617.68	47334.99
617.83	47889.70
617.99	47913.11
618.14	47714.16
618.29	47564.37
618.45	47189.88
618.60	47512.88
618.75	46962.85
618.90	47292.86
619.06	47489.47
619.21	47583.09
619.36	47880.34
619.51	47107.96
619.67	47213.29
619.82	47349.04
619.97	47538.62
620.12	47077.54
620.28	46808.37
620.43	47739.91
620.58	47414.57
620.73	47648.63
620.89	47009.66
621.04	47236.69
621.19	47606.50
621.34	47325.63
621.49	46983.91
621.65	47260.10
621.80	47533.94
621.95	47351.38
622.10	47468.40
622.25	47089.24
622.41	47122.01
622.56	47093.92
622.71	47105.62
622.86	47372.44
623.01	47475.43
623.16	47349.04
623.32	46712.41
623.47	47065.83
623.62	47215.63
623.77	46962.85
623.92	46932.42
624.07	47129.03
624.23	47274.14
624.38	46810.71
624.53	46789.65
624.68	46649.22
624.83	46866.89
624.98	46941.78
625.13	46724.11
625.29	46602.41
625.44	46904.34
625.59	46494.74
625.74	46625.81
625.89	46717.09
626.04	46464.32
626.19	46969.87
626.34	46614.11
626.49	46237.28
626.65	46380.06
626.80	46108.55
626.95	46162.39
627.10	46099.19
627.25	46674.96
627.40	46277.07
627.55	46447.93
627.70	46478.36
627.85	46426.87
628.00	46539.21
628.15	46050.04
628.30	45696.62
628.45	46115.58
628.60	45661.51
628.76	45687.26
628.91	46225.58
629.06	45984.51
629.21	45773.86
629.36	45605.34
629.51	45670.87
629.66	46508.79
629.81	46363.67
629.96	46082.81
630.11	46012.59
630.26	45776.20
630.41	46117.92
630.56	45572.57
630.71	45771.52
630.86	45776.20
631.01	45249.58
631.16	45371.28
631.31	45907.27
631.46	45535.12
631.61	45659.17
631.76	46073.45
631.91	46052.38
632.06	45766.84
632.21	45556.19
632.36	45698.96
632.51	45443.84
632.66	45598.32
632.81	45598.32
632.96	45521.08
633.10	45439.16
633.25	45481.29
633.40	45422.78
633.55	45787.90
633.70	45265.96
633.85	45385.33
634.00	45198.09
634.15	45092.76
634.30	45212.13
634.45	45691.94
634.60	45130.21
634.75	45322.13
634.90	44839.98
635.05	45031.91
635.19	45078.72
635.34	45497.67
635.49	44999.14
635.64	45038.93
635.79	45455.54
635.94	45202.77
636.09	45024.89
636.24	44870.41
636.39	45162.98
636.53	44790.83
636.68	44662.10
636.83	44601.25
636.98	44491.24
637.13	44470.18
637.28	45048.29
637.43	44802.53
637.57	44648.06
637.72	44252.51
637.87	44634.02
638.02	45043.61
638.17	44795.51
638.32	44208.04
638.46	44414.01
638.61	44783.81
638.76	44390.60
638.91	44442.09
639.06	44626.99
639.20	44329.75
639.35	44549.76
639.50	43810.15
639.65	44683.17
639.80	44535.71
639.94	43978.67
640.09	44435.07
640.24	44594.23
640.39	43892.07
640.54	44212.72
640.68	43894.41
640.83	44645.72
640.98	44217.40
641.13	43990.37
641.27	44732.32
641.42	43929.51
641.57	43903.77
641.72	44264.21
641.86	44030.16
642.01	44147.18
642.16	43756.32
642.31	43578.43
642.45	44224.42
642.60	43555.03
642.75	43669.72
642.90	43522.26
643.04	43768.02
643.19	43955.26
643.34	43697.80
643.48	43381.83
643.63	43533.96
643.78	43548.01
643.93	43828.87
644.07	43887.39
644.22	43899.09
644.37	43606.52
644.51	43564.39
644.66	43409.92
644.81	43519.92
644.95	43540.99
645.10	43452.05
645.25	43058.84
645.39	43264.80
645.54	43311.61
645.69	43112.67
645.83	43243.74
645.98	42529.87
646.13	42747.54
646.27	42843.51
646.42	43058.84
646.57	43063.52
646.71	43339.70
646.86	43175.86
647.00	43494.18
647.15	43363.11
647.30	43241.40
647.44	43360.76
647.59	43140.75
647.74	42946.49
647.88	42419.87
648.03	43274.16
648.17	43580.78
648.32	43257.78
648.47	43358.42
648.61	43033.09
648.76	43227.35
648.90	42555.62
649.05	43007.34
649.20	42705.41
649.34	42693.71
649.49	42770.95
649.63	42827.12
649.78	42670.31
649.92	43089.26
650.07	43147.78
650.21	42920.74
650.36	43016.71
650.51	42738.18
650.65	42820.10
650.80	42696.05
650.94	42773.29
651.09	42625.84
651.23	42249.01
651.38	42321.57
651.52	42101.56
651.67	42567.32
651.81	42684.35
651.96	42260.71
652.10	42225.60
652.25	42220.92
652.39	42157.73
652.54	42644.56
652.68	42307.52
652.83	42047.72
652.97	42433.91
653.12	42574.34
653.26	42078.15
653.41	41904.95
653.55	42323.91
653.70	42078.15
653.84	42153.05
653.99	42141.35
654.13	42398.80
654.27	42167.09
654.42	42024.32
654.56	42230.29
654.71	42038.36
654.85	41638.13
655.00	42134.32
655.14	42040.70
655.29	42108.58
655.43	42185.82
655.57	41652.17
655.72	41556.21
655.86	41654.51
656.01	41326.84
656.15	41642.81
656.30	41488.34
656.44	42017.30
656.58	41455.57
656.73	41390.03
656.87	41198.11
657.01	41338.54
657.16	41198.11
657.30	41443.87
657.45	41570.25
657.59	41214.49
657.73	41558.55
657.88	41048.32
658.02	41408.76
658.16	41567.91
658.31	41481.31
658.45	41841.76
658.60	40957.03
658.74	41303.43
658.88	40978.10
659.03	41055.34
659.17	40975.76
659.31	40779.15
659.46	40524.04
659.60	40959.38
659.74	40907.88
659.89	40275.94
660.03	40271.26
660.17	40643.40
660.32	40512.33
660.46	40390.62
660.60	40376.58
660.74	40278.28
660.89	40706.60
661.03	40315.73
661.17	40161.25
661.32	40257.21
661.46	40114.44
661.60	40254.87
661.74	40268.92
661.89	39894.43
662.03	40453.82
662.17	39758.68
662.31	40032.52
662.46	39849.96
662.60	39693.15
662.74	39405.26
662.88	39658.04
663.03	39227.38
663.17	39391.22
663.31	39175.89
663.45	39353.77
663.60	39594.84
663.74	39796.13
663.88	39271.85
664.02	39194.61
664.17	39445.05
664.31	38983.96
664.45	39175.89
664.59	39171.21
664.73	38988.64
664.88	38834.17
665.02	39168.87
665.16	38911.41
665.30	38787.36
665.44	38796.72
665.59	38457.34
665.73	38597.77
665.87	37766.88
666.01	38572.03
666.15	38789.70
666.29	38682.03
666.44	38473.73
666.58	38616.50
666.72	37797.31
666.86	37993.92
667.00	38052.43
667.14	38014.98
667.28	37944.76
667.43	37806.67
667.57	37977.53
667.71	37951.79
667.85	38117.96
667.99	37593.68
668.13	37689.65
668.27	37170.05
668.41	37734.12
668.56	37289.42
668.70	37237.92
668.84	36919.61
668.98	37368.99
669.12	37170.05
669.26	37071.75
669.40	37057.70
669.54	37228.56
669.68	36959.40
669.82	37392.40
669.96	36973.44
670.10	36533.42
670.25	36715.98
670.39	36605.98
670.53	36952.38
670.67	36861.10
670.81	37188.77
670.95	36425.76
671.09	36170.64
671.23	36121.49
671.37	36601.30
671.51	36006.80
671.65	36156.60
671.79	35798.49
671.93	36198.73
672.07	36374.27
672.21	36023.19
672.35	35122.08
672.49	35644.02
672.63	35482.52
672.77	35316.34
672.91	35852.33
673.05	35335.07
673.19	35096.33
673.33	35454.44
673.47	34951.22
673.61	35009.73
673.75	34623.54
673.89	34548.65
674.03	34838.87
674.17	34490.13
674.31	34244.38
674.45	34389.49
674.59	34099.26
674.73	34340.34
674.87	34080.54
675.01	33984.58
675.15	33727.12
675.29	33530.51
675.43	33935.43
675.56	33956.49
675.70	33895.64
675.84	33610.09
675.98	32662.18
676.12	33261.35
676.26	33457.96
676.40	33310.50
676.54	33088.15
676.68	33273.06
676.82	32210.45
676.96	33212.20
677.10	33326.89
677.23	32734.73
677.37	32889.21
677.51	32460.89
677.65	32357.91
677.79	32133.21
677.93	32383.65
678.07	32423.44
678.21	32121.51
678.34	31857.03
678.48	31878.10
678.62	31758.73
678.76	31831.29
678.90	31999.80
679.04	31754.05
679.18	31550.42
679.31	31281.26
679.45	31311.69
679.59	31035.50
679.73	31094.02
679.87	30588.46
680.00	30689.10
680.14	30876.35
680.28	30574.42
680.42	30485.48
680.56	30508.88
680.70	30064.18
680.83	30419.94
680.97	29516.50
681.11	30169.51
681.25	29752.89
681.39	29900.34
681.52	29551.60
681.66	29329.25
681.80	29308.19
681.94	29247.33
682.07	29123.29
682.21	29488.41
682.35	29097.54
682.49	28704.33
682.62	29067.11
682.76	29362.02
682.90	28978.17
683.04	28329.84
683.17	28844.76
683.31	28547.51
683.45	28226.86
683.59	27941.32
683.72	28072.39
683.86	28477.30
684.00	28158.99
684.13	27763.43
684.27	27613.64
684.41	27321.07
684.55	27346.82
684.68	27346.82
684.82	27016.80
684.96	27014.46
685.09	27620.66
685.23	27023.83
685.37	27784.50
685.50	27318.73
685.64	27358.52
685.78	27101.06
685.91	26817.86
686.05	26277.19
686.19	26038.46
686.32	26103.99
686.46	25898.03
686.60	25970.58
686.73	26103.99
686.87	26113.36
687.01	26113.36
687.14	26005.69
687.28	25450.99
687.42	25565.67
687.55	25511.84
687.69	25331.62
687.82	24837.76
687.96	25570.35
688.10	25268.42
688.23	25179.48
688.37	25242.68
688.50	25465.03
688.64	25032.03
688.78	24746.48
688.91	24587.33
689.05	24592.01
689.18	24135.60
689.32	24034.96
689.46	23899.21
689.59	24276.04
689.73	24360.30
689.86	24549.88
690.00	23903.89
690.13	23887.51
690.27	23398.34
690.41	23597.28
690.54	23498.98
690.68	23721.33
690.81	23384.29
690.95	23016.83
691.08	23000.44
691.22	22607.23
691.35	22834.27
691.49	23044.91
691.62	22897.46
691.76	22328.71
691.89	22588.51
692.03	22171.89
692.16	21984.65
692.30	22120.40
692.43	21972.95
692.57	21696.77
692.70	21879.33
692.84	21902.73
692.97	21551.65
693.11	21752.94
693.24	21568.04
693.38	21092.91
693.51	20971.20
693.65	21184.19
693.78	21013.33
693.92	20842.47
694.05	21064.82
694.19	20790.98
694.32	20765.23
694.45	21022.69
694.59	20695.02
694.72	20863.54
694.86	20695.02
694.99	20322.87
695.13	20168.40
695.26	19992.86
695.39	19770.51
695.53	20002.22
695.66	19943.70
695.80	19772.85
695.93	19576.24
696.07	20032.65
696.20	19290.70
696.33	19321.12
696.47	18876.42
696.60	19396.02
696.73	19215.80
696.87	19407.72
697.00	19171.33
697.14	19014.51
697.27	18845.99
697.40	18787.48
697.54	18920.89
697.67	18867.06
697.80	18796.84
697.94	18576.83
698.07	18347.46
698.21	18338.10
698.34	18314.69
698.47	18104.04
698.61	17832.54
698.74	17668.70
698.87	17851.27
699.01	17666.36
699.14	17757.64
699.27	17605.51
699.40	17537.63
699.54	17483.80
699.67	17355.07
699.80	17736.58
699.94	17125.70
700.07	17252.09
700.20	17270.81
700.34	16800.37
700.47	16893.99
700.60	16875.26
700.73	16814.41
700.87	16585.04
701.00	16484.39
701.13	16168.42
701.26	16313.53
701.40	16507.80
701.53	16236.30
701.66	16329.92
701.79	16044.37
701.93	15836.06
702.06	15707.34
702.19	15646.48
702.32	15810.32
702.46	15967.13
702.59	15962.45
702.72	15707.34
702.85	15817.34
702.99	15653.50
703.12	15609.03
703.25	15377.32
703.38	15122.20
703.51	15028.58
703.65	14869.42
703.78	14963.04
703.91	14897.51
704.04	14661.12
704.17	14579.20
704.31	14902.19
704.44	14602.60
704.57	14434.08
704.70	14647.07
704.83	14501.96
704.96	14445.79
705.10	14134.50
705.23	14015.13
>>>>>End Processed Spectral Data<<<<<
