SpectraSuite Data File
++++++++++++++++++++++++++++++++++++
Date: Fri Oct 25 11:33:40 EDT 2013
User: price-jones
Dark Spectrum Present: No
Reference Spectrum Present: No
Number of Sampled Component Spectra: 1
Spectrometers: USB2+H05261
Integration Time (usec): 100000 (USB2+H05261)
Spectra Averaged: 1 (USB2+H05261)
Boxcar Smoothing: 0 (USB2+H05261)
Correct for Electrical Dark: No (USB2+H05261)
Strobe/Lamp Enabled: No (USB2+H05261)
Correct for Detector Non-linearity: No (USB2+H05261)
Correct for Stray Light: No (USB2+H05261)
Number of Pixels in Processed Spectrum: 2048
>>>>>Begin Processed Spectral Data<<<<<
365.73	252.78
365.92	252.78
366.12	252.78
366.32	187.24
366.52	198.95
366.72	248.10
366.91	152.13
367.11	117.03
367.31	198.95
367.51	168.52
367.70	203.63
367.90	154.48
368.10	252.78
368.30	142.77
368.49	177.88
368.69	203.63
368.89	140.43
369.09	234.05
369.28	194.26
369.48	241.08
369.68	191.92
369.87	234.05
370.07	243.42
370.27	243.42
370.47	362.78
370.66	397.89
370.86	554.71
371.06	538.32
371.25	554.71
371.45	573.43
371.65	638.97
371.84	524.28
372.04	550.03
372.24	524.28
372.44	599.18
372.63	559.39
372.83	596.84
373.03	653.01
373.22	545.34
373.42	538.32
373.62	603.86
373.81	594.50
374.01	631.94
374.21	627.26
374.40	620.24
374.60	704.50
374.79	617.90
374.99	594.50
375.19	657.69
375.38	704.50
375.58	585.13
375.78	699.82
375.97	690.46
376.17	723.23
376.37	678.76
376.56	697.48
376.76	596.84
376.95	650.67
377.15	774.72
377.35	730.25
377.54	751.31
377.74	685.78
377.93	674.07
378.13	706.84
378.33	669.39
378.52	748.97
378.72	720.88
378.91	653.01
379.11	746.63
379.31	674.07
379.50	692.80
379.70	777.06
379.89	711.52
380.09	748.97
380.28	685.78
380.48	648.33
380.68	777.06
380.87	657.69
381.07	732.59
381.26	716.20
381.46	727.91
381.65	667.05
381.85	781.74
382.04	791.10
382.24	765.36
382.43	791.10
382.63	814.51
382.83	791.10
383.02	814.51
383.22	737.27
383.41	786.42
383.61	779.40
383.80	805.14
384.00	791.10
384.19	798.12
384.39	851.96
384.58	732.59
384.78	905.79
384.97	870.68
385.17	924.51
385.36	868.34
385.56	889.40
385.75	826.21
385.95	877.70
386.14	861.32
386.34	873.02
386.53	926.85
386.72	870.68
386.92	905.79
387.11	940.90
387.31	854.30
387.50	840.25
387.70	847.27
387.89	926.85
388.09	912.81
388.28	844.93
388.48	875.36
388.67	954.94
388.86	954.94
389.06	1008.77
389.25	980.68
389.45	912.81
389.64	1022.81
389.84	1025.15
390.03	985.37
390.22	910.47
390.42	905.79
390.61	1011.11
390.81	938.55
391.00	915.15
391.19	971.32
391.39	968.98
391.58	1011.11
391.78	957.28
391.97	1006.43
392.16	912.81
392.36	1029.84
392.55	1109.41
392.75	1022.81
392.94	954.94
393.13	1090.69
393.33	1132.82
393.52	1064.94
393.71	1121.12
393.91	1111.75
394.10	1043.88
394.29	1116.44
394.49	1074.31
394.68	1074.31
394.88	1100.05
395.07	1177.29
395.26	1174.95
395.46	1151.54
395.65	1095.37
395.84	1205.38
396.04	1238.14
396.23	1282.61
396.42	1224.10
396.62	1212.40
396.81	1277.93
397.00	1254.53
397.19	1263.89
397.39	1329.42
397.58	1310.70
397.77	1280.27
397.97	1137.50
398.16	1291.98
398.35	1376.24
398.55	1256.87
398.74	1291.98
398.93	1308.36
399.12	1266.23
399.32	1313.04
399.51	1277.93
399.70	1364.53
399.90	1364.53
400.09	1385.60
400.28	1392.62
400.47	1404.32
400.67	1376.24
400.86	1411.34
401.05	1313.04
401.24	1446.45
401.44	1481.56
401.63	1469.86
401.82	1528.37
402.01	1455.81
402.21	1446.45
402.40	1460.49
402.59	1376.24
402.78	1448.79
402.97	1509.65
403.17	1540.07
403.36	1495.60
403.55	1544.75
403.74	1584.54
403.93	1703.91
404.13	1591.56
404.32	1582.20
404.51	1565.82
404.70	1647.74
404.89	1603.27
405.09	1600.93
405.28	1650.08
405.47	1708.59
405.66	1696.89
405.85	1701.57
406.05	1724.97
406.24	1736.68
406.43	1650.08
406.62	1762.42
406.81	1753.06
407.00	1734.34
407.20	1748.38
407.39	1764.76
407.58	1830.30
407.77	1813.92
407.96	1900.52
408.15	1907.54
408.34	1863.07
408.54	1944.99
408.73	1865.41
408.92	2073.71
409.11	1959.03
409.30	2022.22
409.49	1926.26
409.68	1942.64
409.87	2090.10
410.07	2101.80
410.26	2008.18
410.45	2066.69
410.64	2059.67
410.83	2069.03
411.02	1984.77
411.21	2244.57
411.40	2141.59
411.59	2183.72
411.78	2136.91
411.98	2188.40
412.17	2129.89
412.36	2204.78
412.55	2256.28
412.74	2211.81
412.93	2495.01
413.12	2340.54
413.31	2317.13
413.50	2389.69
413.69	2424.80
413.88	2523.10
414.07	2590.97
414.26	2469.27
414.45	2551.18
414.64	2520.76
414.83	2651.83
415.02	2614.38
415.22	2560.55
415.41	2551.18
415.60	2773.53
415.79	2689.28
415.98	2789.92
416.17	2733.75
416.36	2801.62
416.55	2801.62
416.74	2834.39
416.93	2850.77
417.12	2871.84
417.31	2876.52
417.50	2942.05
417.69	3063.76
417.88	2988.86
418.07	2923.33
418.26	2946.73
418.45	2972.48
418.64	3124.62
418.83	3066.10
419.02	3155.04
419.21	3110.57
419.39	3145.68
419.58	3103.55
419.77	3136.32
419.96	3133.98
420.15	3246.32
420.34	3211.22
420.53	3208.87
420.72	3332.92
420.91	3215.90
421.10	3211.22
421.29	3361.01
421.48	3222.92
421.67	3283.77
421.86	3251.00
422.05	3286.11
422.24	3316.54
422.43	3309.52
422.61	3267.39
422.80	3391.44
422.99	3288.45
423.18	3447.61
423.37	3349.31
423.56	3382.07
423.75	3473.36
423.94	3384.41
424.13	3229.94
424.32	3389.10
424.50	3365.69
424.69	3550.59
424.88	3641.87
425.07	3344.63
425.26	3318.88
425.45	3529.53
425.64	3361.01
425.83	3555.27
426.01	3517.83
426.20	3487.40
426.39	3487.40
426.58	3463.99
426.77	3471.01
426.96	3543.57
427.15	3440.59
427.33	3571.66
427.52	3709.75
427.71	3686.34
427.90	3618.47
428.09	3700.39
428.28	3742.52
428.46	3810.39
428.65	3686.34
428.84	3866.56
429.03	3871.25
429.22	3700.39
429.40	3805.71
429.59	3709.75
429.78	3723.79
429.97	3646.55
430.16	3786.99
430.34	3749.54
430.53	3882.95
430.72	3950.82
430.91	3866.56
431.10	3929.76
431.28	3868.91
431.47	4025.72
431.66	4039.76
431.85	3873.59
432.03	4009.34
432.22	4198.92
432.41	4154.45
432.60	4107.64
432.79	4154.45
432.97	4198.92
433.16	4189.56
433.35	4119.34
433.54	4236.37
433.72	4304.25
433.91	4182.54
434.10	4187.22
434.28	4292.54
434.47	4322.97
434.66	4252.75
434.85	4119.34
435.03	4402.55
435.22	4264.46
435.41	4449.36
435.59	4149.77
435.78	4208.28
435.97	4486.81
436.16	4449.36
436.34	4390.84
436.53	4428.29
436.72	4496.17
436.90	4444.68
437.09	4561.70
437.28	4461.06
437.46	4388.50
437.65	4512.55
437.84	4706.82
438.02	4603.83
438.21	4706.82
438.40	4540.64
438.58	4924.49
438.77	4800.44
438.96	4800.44
439.14	4905.76
439.33	4770.01
439.52	4980.66
439.70	4940.87
439.89	5041.51
440.08	4997.04
440.26	5036.83
440.45	4997.04
440.63	5083.64
440.82	5116.41
441.01	5205.35
441.19	5275.57
441.38	5322.38
441.57	5125.77
441.75	5294.29
441.94	5380.89
442.12	5308.34
442.31	5425.36
442.50	5432.38
442.68	5453.45
442.87	5383.23
443.05	5474.51
443.24	5621.97
443.43	5518.98
443.61	5469.83
443.80	5909.85
443.98	5448.77
444.17	5336.42
444.35	5596.22
444.54	5762.40
444.73	5535.37
444.91	5600.90
445.10	5781.12
445.28	5659.42
445.47	5928.58
445.65	5584.52
445.84	5811.55
446.02	5771.76
446.21	5645.37
446.39	5476.85
446.58	5813.89
446.77	5760.06
446.95	5701.54
447.14	5849.00
447.32	5874.74
447.51	5900.49
447.69	5867.72
447.88	5720.27
448.06	5804.53
448.25	5809.21
448.43	5881.77
448.62	5806.87
448.80	5771.76
448.99	5849.00
449.17	5905.17
449.36	5893.47
449.54	5968.37
449.73	6115.82
449.91	6324.13
450.10	6045.60
450.28	5926.24
450.46	6239.87
450.65	6080.71
450.83	6207.10
451.02	6186.04
451.20	6305.40
451.39	6162.63
451.57	6174.33
451.76	6118.16
451.94	6221.14
452.13	6258.59
452.31	6338.17
452.49	6190.72
452.68	6237.53
452.86	6317.11
453.05	6392.00
453.23	6361.58
453.42	6415.41
453.60	6445.84
453.78	6518.39
453.97	6427.11
454.15	6415.41
454.34	6436.47
454.52	6569.88
454.70	6574.56
454.89	6567.54
455.07	6523.07
455.26	6417.75
455.44	6698.61
455.62	6572.22
455.81	6581.59
455.99	6719.68
456.17	6710.32
456.36	6848.41
456.54	6862.45
456.73	6913.94
456.91	6995.86
457.09	7035.65
457.28	7105.87
457.46	6864.79
457.64	7091.82
457.83	7049.69
458.01	7089.48
458.19	7143.32
458.38	7030.97
458.56	7386.73
458.74	7269.70
458.93	7227.57
459.11	7220.55
459.29	7274.38
459.48	7108.21
459.66	7454.61
459.84	7445.24
460.03	7428.86
460.21	7412.48
460.39	7316.51
460.57	7260.34
460.76	7543.55
460.94	7496.74
461.12	7707.38
461.31	7765.90
461.49	7585.68
461.67	7606.74
461.85	7665.25
462.04	7541.21
462.22	8175.49
462.40	7857.18
462.59	7709.72
462.77	7653.55
462.95	7805.69
463.13	7770.58
463.32	7953.14
463.50	8025.70
463.68	7819.73
463.86	8095.91
464.05	7913.35
464.23	8056.12
464.41	8018.68
464.59	7836.11
464.78	8121.66
464.96	8166.13
465.14	8044.42
465.32	7978.89
465.50	8236.35
465.69	8329.97
465.87	8063.15
466.05	8100.59
466.23	8198.90
466.41	8201.24
466.60	8332.31
466.78	8028.04
466.96	8149.75
467.14	8297.20
467.32	8121.66
467.51	8313.58
467.69	8222.30
467.87	8407.20
468.05	8304.22
468.23	8236.35
468.41	8374.44
468.60	8547.64
468.78	8678.71
468.96	8425.93
469.14	8629.56
469.32	8699.77
469.50	8484.44
469.69	8760.63
469.87	8828.50
470.05	8739.56
470.23	8727.86
470.41	8943.19
470.59	8678.71
470.77	8872.97
470.95	8849.57
471.14	8828.50
471.32	8753.60
471.50	9062.55
471.68	9123.41
471.86	9092.98
472.04	9172.56
472.22	9430.02
472.40	9231.07
472.58	9219.37
472.77	9420.66
472.95	9184.26
473.13	9804.50
473.31	9659.39
473.49	9561.09
473.67	9334.06
473.85	9717.90
474.03	9837.27
474.21	9823.23
474.39	9898.13
474.57	9970.68
474.75	9820.89
474.93	9921.53
475.12	10087.71
475.30	10176.65
475.48	10113.45
475.66	10108.77
475.84	10200.05
476.02	9984.73
476.20	10265.59
476.38	10324.10
476.56	10867.11
476.74	10689.23
476.92	10698.59
477.10	10462.19
477.28	10747.74
477.46	10609.65
477.64	10899.87
477.82	10970.09
478.00	11140.95
478.18	11204.14
478.36	11119.89
478.54	11470.97
478.72	11302.45
478.90	11522.46
479.08	11761.19
479.26	11651.19
479.44	11918.01
479.62	11861.84
479.80	12102.91
479.98	12065.46
480.16	12400.16
480.34	12241.00
480.52	12414.20
480.70	12257.39
480.88	12280.79
481.06	12662.30
481.24	12465.69
481.41	12767.62
481.59	12671.66
481.77	12828.48
481.95	12938.48
482.13	13338.71
482.31	13043.81
482.49	13252.11
482.67	13310.63
482.85	13621.92
483.03	13741.29
483.21	13586.81
483.39	14052.58
483.57	13785.76
483.74	14099.39
483.92	14050.24
484.10	13973.00
484.28	14237.48
484.46	14731.33
484.64	14738.35
484.82	14317.06
485.00	14530.05
485.18	15105.82
485.35	15009.86
485.53	15094.11
485.71	15484.98
485.89	15625.42
486.07	15410.09
486.25	15501.37
486.43	15686.27
486.61	15768.19
486.78	15929.69
486.96	15892.24
487.14	16222.25
487.32	16339.28
487.50	16453.97
487.68	16383.75
487.85	16643.55
488.03	17069.53
488.21	16954.84
488.39	16917.39
488.57	17167.83
488.75	17263.79
488.92	17401.88
489.10	17645.30
489.28	17577.42
489.46	17818.50
489.64	17797.43
489.81	18520.66
489.99	17987.02
490.17	18171.92
490.35	18546.40
490.53	18630.66
490.70	18630.66
490.88	18625.98
491.06	18768.76
491.24	19000.47
491.41	18958.34
491.59	19314.10
491.77	19058.98
491.95	19445.17
492.13	19531.77
492.30	19634.75
492.48	20152.01
492.66	20053.71
492.84	20063.07
493.01	20269.04
493.19	20215.21
493.37	20411.81
493.54	20552.24
493.72	20858.85
493.90	20482.03
494.08	20868.22
494.25	20879.92
494.43	21179.51
494.61	21518.89
494.79	21312.92
494.96	21348.03
495.14	21645.27
495.32	22057.21
495.49	21788.05
495.67	22019.76
495.85	22153.17
496.02	22352.12
496.20	22431.69
496.38	22265.52
496.55	22656.39
496.73	23122.15
496.91	22721.92
497.09	22953.63
497.26	23028.53
497.44	23269.61
497.62	23077.68
497.79	23522.38
497.97	23332.80
498.14	23690.90
498.32	23592.60
498.50	23693.24
498.67	23821.97
498.85	23819.63
499.03	24070.07
499.20	24247.95
499.38	24133.26
499.56	24704.35
499.73	24577.97
499.91	24489.03
500.08	25036.71
500.26	24893.94
500.44	24800.32
500.61	24870.53
500.79	24882.24
500.97	25050.75
501.14	25029.69
501.32	25556.31
501.49	25233.32
501.67	25392.47
501.84	25607.80
502.02	25949.52
502.20	25752.91
502.37	25921.43
502.55	25781.00
502.72	25823.13
502.90	26026.76
503.07	26256.13
503.25	25907.39
503.43	26274.85
503.60	26331.03
503.78	26551.04
503.95	26485.50
504.13	27000.42
504.30	27075.32
504.48	26850.63
504.65	26881.05
504.83	26906.80
505.01	26796.79
505.18	27225.11
505.36	27274.26
505.53	27405.33
505.71	27651.09
505.88	27400.65
506.06	27084.68
506.23	27772.80
506.41	27246.18
506.58	27765.78
506.76	27714.28
506.93	28002.17
507.11	28025.57
507.28	28037.28
507.46	28299.42
507.63	28451.55
507.81	28498.36
507.98	28198.77
508.16	28697.31
508.33	28587.30
508.50	28950.09
508.68	29050.73
508.85	29069.45
509.03	29055.41
509.20	29333.93
509.38	29605.44
509.55	29275.42
509.73	29443.94
509.90	29593.73
510.08	29434.58
510.25	29729.48
510.42	29865.24
510.60	29958.86
510.77	30129.72
510.95	30403.56
511.12	29804.38
511.30	30054.82
511.47	29776.30
511.64	30284.19
511.82	30679.74
511.99	30354.41
512.17	30843.58
512.34	30579.10
512.51	31117.42
512.69	31108.06
512.86	30988.69
513.04	30958.27
513.21	31178.28
513.38	31292.96
513.56	31136.15
513.73	31218.07
513.90	31667.45
514.08	31402.97
514.25	31559.78
514.43	31459.14
514.60	32034.91
514.77	31747.03
514.95	31744.69
515.12	31639.36
515.29	32016.19
515.47	32198.75
515.64	32039.59
515.81	32219.81
515.99	32390.67
516.16	32655.15
516.33	32828.35
516.51	32603.66
516.68	32851.76
516.85	32348.54
517.03	32797.93
517.20	32634.09
517.37	32795.59
517.54	33198.16
517.72	33193.48
517.89	32989.85
518.06	33081.13
518.24	33413.49
518.41	33319.87
518.58	33244.97
518.75	33235.61
518.93	33118.58
519.10	33237.95
519.27	33429.87
519.45	33764.57
519.62	33879.25
519.79	33549.24
519.96	33638.18
520.14	34031.39
520.31	34120.33
520.48	34026.71
520.65	34508.86
520.83	34396.51
521.00	34281.83
521.17	34389.49
521.34	34656.31
521.52	34539.29
521.69	34656.31
521.86	34852.92
522.03	34991.01
522.20	35115.06
522.38	35082.29
522.55	35321.02
522.72	35056.54
522.89	34881.00
523.07	35246.13
523.24	35445.07
523.41	35508.27
523.58	35386.56
523.75	35716.58
523.92	35353.79
524.10	35459.12
524.27	35665.08
524.44	36037.23
524.61	35814.88
524.78	35964.67
524.96	36187.02
525.13	36250.22
525.30	36318.09
525.47	36229.15
525.64	36048.93
525.81	36591.94
525.98	36313.41
526.16	36292.35
526.33	36151.91
526.50	36620.02
526.67	36701.94
526.84	36723.01
527.01	36891.52
527.18	36423.42
527.36	37350.27
527.53	37036.64
527.70	37146.64
527.87	37354.95
528.04	36774.50
528.21	37563.26
528.38	37158.34
528.55	37195.79
528.72	37193.45
528.89	37713.05
529.07	37392.40
529.24	37574.96
529.41	37586.66
529.58	37574.96
529.75	37366.65
529.92	37207.50
530.09	37762.20
530.26	37570.28
530.43	38096.90
530.60	37481.34
530.77	37600.71
530.94	38171.80
531.11	38426.92
531.28	38326.27
531.46	38377.76
531.63	37851.14
531.80	38195.20
531.97	38719.48
532.14	38321.59
532.31	38583.73
532.48	38658.63
532.65	38906.73
532.82	38359.04
532.99	38373.08
533.16	38319.25
533.33	38560.33
533.50	38876.30
533.67	38569.69
533.84	38827.15
534.01	38948.85
534.18	39131.42
534.35	39274.19
534.52	38703.10
534.69	39229.72
534.86	39288.23
535.03	39105.67
535.20	39218.02
535.37	39541.01
535.54	39742.30
535.71	39442.71
535.88	39903.79
536.05	39618.25
536.22	39634.63
536.38	39772.72
536.55	39990.39
536.72	39873.37
536.89	40453.82
537.06	40060.61
537.23	40465.52
537.40	39955.29
537.57	39871.03
537.74	39920.18
537.91	40259.55
538.08	40472.54
538.25	40102.74
538.42	40144.87
538.59	40505.31
538.75	40294.66
538.92	40563.82
539.09	40472.54
539.26	40638.72
539.43	40687.87
539.60	40781.49
539.77	40559.14
539.94	40715.96
540.11	40844.69
540.28	40935.97
540.44	40730.00
540.61	40854.05
540.78	41294.07
540.95	41027.25
541.12	41172.36
541.29	40968.74
541.46	40945.33
541.62	41319.82
541.79	41406.42
541.96	40844.69
542.13	40917.25
542.30	41064.70
542.47	41298.75
542.63	41521.10
542.80	41743.45
542.97	41984.53
543.14	41895.59
543.31	41907.29
543.48	41607.70
543.64	42405.83
543.81	42305.18
543.98	41930.70
544.15	42197.52
544.32	42316.89
544.48	42506.47
544.65	41780.90
544.82	42361.36
544.99	42010.28
545.16	42000.91
545.32	42389.44
545.49	42359.02
545.66	43180.54
545.83	42682.01
546.00	42548.60
546.16	42756.91
546.33	42707.76
546.50	42656.26
546.67	43072.88
546.83	42190.50
547.00	42618.81
547.17	42607.11
547.34	43068.20
547.50	43351.40
547.67	43412.26
547.84	42653.92
548.00	43295.23
548.17	43384.17
548.34	43501.20
548.51	43438.00
548.67	43622.90
548.84	43866.32
549.01	43330.34
549.18	43119.69
549.34	43318.64
549.51	43374.81
549.68	44013.77
549.84	43215.65
550.01	43821.85
550.18	43222.67
550.34	43302.25
550.51	43838.23
550.68	43643.97
550.84	43686.10
551.01	43814.83
551.18	43807.81
551.34	43658.01
551.51	44414.01
551.68	43917.81
551.84	44135.48
552.01	44168.25
552.18	44353.15
552.34	44076.97
552.51	44568.48
552.68	44044.20
552.84	44280.60
553.01	44519.33
553.18	44013.77
553.34	44194.00
553.51	44226.76
553.67	44568.48
553.84	44257.19
554.01	44851.69
554.17	44463.16
554.34	44889.13
554.51	44582.52
554.67	44959.35
554.84	44793.17
555.00	44744.02
555.17	44493.58
555.33	44938.29
555.50	44753.38
555.67	45029.57
555.83	44587.21
556.00	44949.99
556.16	44851.69
556.33	45008.50
556.50	44875.09
556.66	44706.57
556.83	44641.04
556.99	45223.83
557.16	45062.33
557.32	44924.24
557.49	45617.04
557.65	45291.71
557.82	45177.02
557.98	45010.84
558.15	45329.16
558.32	45434.48
558.48	45041.27
558.65	45312.77
558.81	45298.73
558.98	45298.73
559.14	45593.64
559.31	45113.83
559.47	45291.71
559.64	45586.61
559.80	45617.04
559.97	45963.44
560.13	45067.02
560.30	45619.38
560.46	45790.24
560.63	45961.10
560.79	45705.98
560.96	45956.42
561.12	46188.13
561.29	46005.57
561.45	46028.98
561.61	45897.91
561.78	45928.33
561.94	45701.30
562.11	45989.19
562.27	45860.46
562.44	46096.85
562.60	46319.20
562.77	46131.96
562.93	45977.48
563.10	46567.30
563.26	45546.82
563.42	46658.58
563.59	46202.18
563.75	45930.67
563.92	46136.64
564.08	46183.45
564.24	46295.80
564.41	46073.45
564.57	46270.05
564.74	46136.64
564.90	46398.78
565.07	46216.22
565.23	46202.18
565.39	46387.08
565.56	46366.01
565.72	46103.87
565.88	46415.16
566.05	46298.14
566.21	46239.62
566.38	46302.82
566.54	46906.68
566.70	46267.71
566.87	46436.23
567.03	46342.61
567.19	46569.64
567.36	46291.12
567.52	46469.00
567.68	46590.70
567.85	46876.25
568.01	46696.03
568.17	46525.17
568.34	46340.27
568.50	46560.28
568.66	46347.29
568.83	46824.76
568.99	46799.01
569.15	46602.41
569.32	46710.07
569.48	46841.14
569.64	46969.87
569.81	46548.57
569.97	47089.24
570.13	46857.52
570.30	46754.54
570.46	46728.80
570.62	47063.49
570.78	46646.88
570.95	46850.50
571.11	46707.73
571.27	46665.60
571.43	46887.95
571.60	47037.75
571.76	47044.77
571.92	46529.85
572.09	46969.87
572.25	46691.35
572.41	47014.34
572.57	46735.82
572.74	46937.10
572.90	46941.78
573.06	46944.12
573.22	46574.32
573.38	46696.03
573.55	46766.24
573.71	47250.74
573.87	46607.09
574.03	46983.91
574.20	46997.96
574.36	47285.84
574.52	47405.21
574.68	47035.41
574.84	47136.05
575.01	47124.35
575.17	47072.85
575.33	47047.11
575.49	46773.27
575.65	47147.75
575.82	47056.47
575.98	46787.31
576.14	47585.43
576.30	47271.80
576.46	47117.32
576.62	47107.96
576.79	47330.31
576.95	46862.21
577.11	47138.39
577.27	47033.07
577.43	47068.17
577.59	47346.70
577.75	47028.38
577.92	46515.81
578.08	47220.31
578.24	46981.57
578.40	46958.17
578.56	47452.02
578.72	47122.01
578.88	47084.56
579.04	47313.93
579.21	47042.43
579.37	47297.55
579.53	47466.06
579.69	47089.24
579.85	47044.77
580.01	47318.61
580.17	47203.92
580.33	47667.35
580.49	47475.43
580.65	47009.66
580.82	47185.20
580.98	47028.38
581.14	46944.12
581.30	47283.50
581.46	47285.84
581.62	46934.76
581.78	47187.54
581.94	47363.08
582.10	46944.12
582.26	47592.45
582.42	47559.69
582.58	47168.82
582.74	47615.86
582.90	47405.21
583.06	47660.33
583.22	46897.31
583.38	47679.05
583.54	47765.65
583.70	47793.74
583.86	47533.94
584.02	47409.89
584.18	47452.02
584.34	47473.09
584.50	47805.44
584.66	47477.77
584.82	47358.40
584.98	47512.88
585.14	47803.10
585.30	47505.85
585.46	47569.05
585.62	47398.19
585.78	47739.91
585.94	47320.95
586.10	47552.66
586.26	47634.58
586.42	47384.15
586.58	47693.10
586.74	47550.32
586.90	47166.48
587.06	47559.69
587.22	47585.43
587.38	47309.25
587.54	47489.47
587.70	47845.23
587.86	47533.94
588.02	47292.86
588.18	48074.60
588.34	47494.15
588.49	47496.49
588.65	47571.39
588.81	47475.43
588.97	47311.59
589.13	47475.43
589.29	47606.50
589.45	48123.75
589.61	47545.64
589.77	47746.93
589.93	47552.66
590.08	47791.40
590.24	48081.63
590.40	47856.93
590.56	48346.11
590.72	48048.86
590.88	48123.75
591.04	47437.98
591.20	48119.07
591.35	47901.40
591.51	48170.57
591.67	48018.43
591.83	48151.84
591.99	48009.07
592.15	47732.89
592.31	47849.91
592.46	48025.45
592.62	48051.20
592.78	48140.14
592.94	48428.02
593.10	48051.20
593.26	48402.28
593.41	48205.67
593.57	48315.68
593.73	47798.42
593.89	48100.35
594.05	48254.82
594.20	48065.24
594.36	48680.80
594.52	48271.21
594.68	48348.45
594.84	48018.43
594.99	48563.78
595.15	48140.14
595.31	48257.17
595.47	48006.73
595.62	48158.86
595.78	48268.87
595.94	48114.39
596.10	48140.14
596.25	48783.79
596.41	48573.14
596.57	47665.01
596.73	48289.93
596.88	48423.34
597.04	48334.40
597.20	48437.39
597.36	47973.96
597.51	48444.41
597.67	48282.91
597.83	48130.78
597.99	48334.40
598.14	48189.29
598.30	48217.38
598.46	48240.78
598.61	48676.12
598.77	48442.07
598.93	48275.89
599.09	48451.43
599.24	48783.79
599.40	48523.99
599.56	48275.89
599.71	48694.85
599.87	49247.21
600.03	48687.82
600.18	48685.48
600.34	48573.14
600.50	48470.15
600.65	48573.14
600.81	48472.49
600.97	48540.37
601.12	48713.57
601.28	48222.06
601.44	48495.90
601.59	48631.65
601.75	48683.14
601.91	48350.79
602.06	48638.67
602.22	48442.07
602.37	48156.52
602.53	48481.86
602.69	48289.93
602.84	48252.48
603.00	48741.66
603.16	48523.99
603.31	48591.86
603.47	48601.22
603.62	48374.19
603.78	48549.73
603.94	48313.34
604.09	48327.38
604.25	48353.13
604.40	48479.52
604.56	48144.82
604.71	48435.05
604.87	48320.36
605.03	48004.39
605.18	47608.84
605.34	48116.73
605.49	48339.08
605.65	48161.20
605.80	48032.47
605.96	48060.56
606.12	48062.90
606.27	48308.66
606.43	47805.44
606.58	48348.45
606.74	48584.84
606.89	48329.72
607.05	48421.00
607.20	48428.02
607.36	48430.36
607.51	48109.71
607.67	48179.93
607.82	48135.46
607.98	48067.58
608.13	48062.90
608.29	48336.74
608.44	48114.39
608.60	48217.38
608.75	48149.50
608.91	48149.50
609.06	47894.38
609.22	47999.71
609.37	47735.23
609.53	48449.09
609.68	48577.82
609.84	48144.82
609.99	47997.37
610.15	48437.39
610.30	48114.39
610.46	47707.14
610.61	48149.50
610.76	48158.86
610.92	47662.67
611.07	48170.57
611.23	47323.29
611.38	47922.47
611.54	48072.26
611.69	48002.05
611.84	48051.20
612.00	47676.71
612.15	47714.16
612.31	48458.45
612.46	47709.48
612.62	48060.56
612.77	48006.73
612.92	48205.67
613.08	48177.59
613.23	48151.84
613.39	48020.77
613.54	47639.26
613.69	48500.58
613.85	47665.01
614.00	47508.19
614.15	47952.90
614.31	47536.28
614.46	47674.37
614.62	47526.92
614.77	47753.95
614.92	47545.64
615.08	47805.44
615.23	47767.99
615.38	47657.99
615.54	47887.36
615.69	47782.04
615.84	47978.64
616.00	47627.56
616.15	47861.61
616.30	48320.36
616.46	47571.39
616.61	47789.06
616.76	47835.87
616.92	47313.93
617.07	47498.83
617.22	47409.89
617.37	46862.21
617.53	47632.24
617.68	47400.53
617.83	47367.76
617.99	47636.92
618.14	47803.10
618.29	47487.13
618.45	47166.48
618.60	47173.50
618.75	46986.25
618.90	47386.49
619.06	47351.38
619.21	47704.80
619.36	47320.95
619.51	47248.39
619.67	47077.54
619.82	47194.56
619.97	47412.23
620.12	47276.48
620.28	47456.70
620.43	47407.55
620.58	47189.88
620.73	46974.55
620.89	47456.70
621.04	47398.19
621.19	47014.34
621.34	47255.42
621.49	47009.66
621.65	47131.37
621.80	47030.72
621.95	47159.45
622.10	46897.31
622.25	46866.89
622.41	46251.33
622.56	46859.87
622.71	47114.98
622.86	46803.69
623.01	46965.19
623.16	46810.71
623.32	47068.17
623.47	46422.19
623.62	46532.19
623.77	46808.37
623.92	46621.13
624.07	46490.06
624.23	46319.20
624.38	46529.85
624.53	46373.03
624.68	46843.48
624.83	46122.60
624.98	46550.91
625.13	46197.49
625.29	46307.50
625.44	46335.59
625.59	46066.42
625.74	46375.37
625.89	45698.96
626.04	46059.40
626.19	46382.40
626.34	46117.92
626.49	45771.52
626.65	46124.94
626.80	45794.92
626.95	46248.99
627.10	45914.29
627.25	45965.78
627.40	45897.91
627.55	45881.52
627.70	46291.12
627.85	46377.72
628.00	46117.92
628.15	45474.27
628.30	45652.15
628.45	45539.80
628.60	45495.33
628.76	45815.99
628.91	45727.05
629.06	45839.39
629.21	45464.91
629.36	45485.97
629.51	45925.99
629.66	46080.47
629.81	45500.01
629.96	45404.05
630.11	45708.32
630.26	45729.39
630.41	45631.08
630.56	45514.06
630.71	45698.96
630.86	45312.77
631.01	45233.19
631.16	45043.61
631.31	45174.68
631.46	45083.40
631.61	45647.47
631.76	45507.04
631.91	45109.14
632.06	45670.87
632.21	45406.39
632.36	45586.61
632.51	44889.13
632.66	45340.86
632.81	45074.04
632.96	45111.49
633.10	45006.16
633.25	44875.09
633.40	45205.11
633.55	45097.44
633.70	45200.43
633.85	45200.43
634.00	44868.07
634.15	44713.59
634.30	44837.64
634.45	45099.78
634.60	44645.72
634.75	44720.62
634.90	44854.03
635.05	44729.98
635.19	44643.38
635.34	44825.94
635.49	44971.05
635.64	44715.93
635.79	44992.12
635.94	44739.34
636.09	45371.28
636.24	44535.71
636.39	44655.08
636.53	44945.31
636.68	44629.34
636.83	44261.87
636.98	44465.50
637.13	44299.32
637.28	44177.61
637.43	44514.65
637.57	44603.59
637.72	43779.72
637.87	44243.15
638.02	44416.35
638.17	44135.48
638.32	44383.58
638.46	43761.00
638.61	43753.97
638.76	44182.29
638.91	44051.22
639.06	44002.07
639.20	43463.75
639.35	43847.60
639.50	43868.66
639.65	44315.70
639.80	44226.76
639.94	44327.41
640.09	43941.22
640.24	43955.26
640.39	43964.62
640.54	43707.16
640.68	43966.96
640.83	43971.64
640.98	43957.60
641.13	43807.81
641.27	44179.95
641.42	43821.85
641.57	43632.27
641.72	43885.04
641.86	43707.16
642.01	43505.88
642.16	43952.92
642.31	43227.35
642.45	43725.89
642.60	43302.25
642.75	43084.58
642.90	43826.53
643.04	43433.32
643.19	43222.67
643.34	43543.33
643.48	43054.15
643.63	43185.22
643.78	43365.45
643.93	43468.43
644.07	43086.92
644.22	43285.87
644.37	42953.51
644.51	43292.89
644.66	42983.94
644.81	43243.74
644.95	43122.03
645.10	43398.21
645.25	43189.91
645.39	42731.16
645.54	42930.11
645.69	42635.20
645.83	43157.14
645.98	42649.24
646.13	42602.43
646.27	42918.40
646.42	42433.91
646.57	42756.91
646.71	43168.84
646.86	43119.69
647.00	42918.40
647.15	42899.68
647.30	43005.00
647.44	42747.54
647.59	42417.53
647.74	42670.31
647.88	42686.69
648.03	43100.97
648.17	42918.40
648.32	42834.14
648.47	42799.04
648.61	42618.81
648.76	42511.15
648.90	42403.49
649.05	42412.85
649.20	42747.54
649.34	42230.29
649.49	42232.63
649.63	42703.07
649.78	42581.37
649.92	42469.02
650.07	42656.26
650.21	42674.99
650.36	42471.36
650.51	42476.04
650.65	42799.04
650.80	42394.12
650.94	42513.49
651.09	42351.99
651.23	41670.90
651.38	41841.76
651.52	41511.74
651.67	42176.45
651.81	41923.68
651.96	41696.64
652.10	41720.05
652.25	42129.64
652.39	41574.94
652.54	41734.09
652.68	41670.90
652.83	41715.37
652.97	42047.72
653.12	41830.05
653.26	41764.52
653.41	42033.68
653.55	41743.45
653.70	41713.03
653.84	42031.34
653.99	42469.02
654.13	41876.86
654.27	41303.43
654.42	41816.01
654.56	41478.97
654.71	41727.07
654.85	41872.18
655.00	41598.34
655.14	41710.69
655.29	41818.35
655.43	41619.41
655.57	41013.21
655.72	41345.56
655.86	41216.83
656.01	41350.24
656.15	41081.08
656.30	41265.99
656.44	41401.74
656.58	41017.89
656.73	40994.48
656.87	40975.76
657.01	41020.23
657.16	41111.51
657.30	41212.15
657.45	41085.76
657.59	41090.44
657.73	40741.71
657.88	40982.78
658.02	41553.87
658.16	41338.54
658.31	41104.49
658.45	40671.49
658.60	40854.05
658.74	40858.73
658.88	41001.50
659.03	40870.43
659.17	40737.02
659.31	40722.98
659.46	40477.22
659.60	40844.69
659.74	40418.71
659.89	40484.25
660.03	40158.91
660.17	40575.53
660.32	40187.00
660.46	39962.31
660.60	39948.26
660.74	40198.70
660.89	39950.60
661.03	39985.71
661.17	39908.47
661.32	40158.91
661.46	39868.69
661.60	39962.31
661.74	39330.36
661.89	39555.05
662.03	39707.19
662.17	39543.35
662.31	39566.76
662.46	39583.14
662.60	39096.31
662.74	38927.79
662.88	38639.90
663.03	38665.65
663.17	38796.72
663.31	39182.91
663.45	39136.10
663.60	39416.96
663.74	39126.74
663.88	38785.02
664.02	39005.03
664.17	39206.31
664.31	38569.69
664.45	39098.65
664.59	38808.42
664.73	38593.09
664.88	38831.83
665.02	38644.59
665.16	38459.68
665.30	38356.70
665.44	38822.47
665.59	38361.38
665.73	38103.92
665.87	37853.48
666.01	38464.36
666.15	38345.00
666.29	38520.54
666.44	38359.04
666.58	38328.61
666.72	37933.06
666.86	37687.31
667.00	37801.99
667.14	37727.10
667.28	37624.11
667.43	37528.15
667.57	37780.93
667.71	37670.92
667.85	37558.58
667.99	37301.12
668.13	37612.41
668.27	37055.36
668.41	36910.25
668.56	36833.01
668.70	37221.54
668.84	36746.41
668.98	36676.19
669.12	37001.53
669.26	37076.43
669.40	36842.37
669.54	36725.35
669.68	36900.89
669.82	37020.25
669.96	36341.50
670.10	35957.65
670.25	36016.16
670.39	36315.75
670.53	36699.60
670.67	36322.77
670.81	36793.22
670.95	36109.78
671.09	35800.83
671.23	35952.97
671.37	36257.24
671.51	35824.24
671.65	35826.58
671.79	35548.06
671.93	35803.17
672.07	35459.12
672.21	35573.80
672.35	35775.09
672.49	35599.55
672.63	35391.24
672.77	34930.16
672.91	35323.36
673.05	35178.25
673.19	34967.60
673.33	34845.90
673.47	34927.81
673.61	34850.58
673.75	34614.18
673.89	34440.98
674.03	34373.11
674.17	34169.48
674.31	34352.04
674.45	34052.45
674.59	34160.12
674.73	33986.92
674.87	34092.24
675.01	33860.53
675.15	33619.46
675.29	33450.94
675.43	33551.58
675.56	33591.37
675.70	33537.54
675.84	33298.80
675.98	32720.69
676.12	33064.75
676.26	33546.90
676.40	32823.67
676.54	33036.66
676.68	32914.95
676.82	32369.61
676.96	32877.51
677.10	32606.00
677.23	32446.85
677.37	32411.74
677.51	32477.27
677.65	32336.84
677.79	31945.97
677.93	32130.87
678.07	31878.10
678.21	31821.92
678.34	31875.76
678.48	31512.97
678.62	31688.51
678.76	31344.45
678.90	31068.27
679.04	31349.14
679.18	31566.81
679.31	30979.33
679.45	31012.10
679.59	30993.37
679.73	30838.90
679.87	30518.25
680.00	30675.06
680.14	30370.79
680.28	30726.55
680.42	30462.07
680.56	30494.84
680.70	30237.38
680.83	30209.29
680.97	30146.10
681.11	29928.43
681.25	29472.03
681.39	29123.29
681.52	29804.38
681.66	29308.19
681.80	28725.39
681.94	28786.25
682.07	28800.29
682.21	28767.52
682.35	28739.44
682.49	28912.64
682.62	28760.50
682.76	28865.83
682.90	28570.92
683.04	28606.03
683.17	28774.55
683.31	27953.02
683.45	28095.79
683.59	28088.77
683.72	27866.42
683.86	28034.94
684.00	27527.04
684.13	27623.00
684.27	27632.36
684.41	27180.64
684.55	27267.24
684.68	27414.69
684.82	27482.57
684.96	26754.66
685.09	27229.79
685.23	27480.23
685.37	27267.24
685.50	26848.29
685.64	26969.99
685.78	26438.69
685.91	26314.64
686.05	26171.87
686.19	25823.13
686.32	25752.91
686.46	25998.67
686.60	25783.34
686.73	26008.03
686.87	25825.47
687.01	25858.24
687.14	25792.70
687.28	25610.14
687.42	25462.69
687.55	25312.89
687.69	25125.65
687.82	24865.85
687.96	24957.13
688.10	25060.12
688.23	25160.76
688.37	25146.72
688.50	25053.09
688.64	24793.29
688.78	24444.56
688.91	24184.76
689.05	24294.76
689.18	23976.45
689.32	23681.54
689.46	23700.26
689.59	23873.46
689.73	24320.51
689.86	24243.27
690.00	23679.20
690.13	24292.42
690.27	23360.89
690.41	23442.81
690.54	23208.75
690.68	22991.08
690.81	23197.05
690.95	23213.43
691.08	22658.73
691.22	22504.25
691.35	22754.69
691.49	22628.30
691.62	22845.97
691.76	22441.06
691.89	22024.44
692.03	22029.12
692.16	22082.95
692.30	21876.99
692.43	21755.28
692.57	21668.68
692.70	21958.91
692.84	21479.10
692.97	21575.06
693.11	21458.03
693.24	21238.02
693.38	21149.08
693.51	21151.42
693.65	21390.16
693.78	20695.02
693.92	20908.01
694.05	20697.36
694.19	20540.54
694.32	20833.11
694.45	20999.29
694.59	20547.56
694.72	20779.28
694.86	20444.58
694.99	20067.75
695.13	20060.73
695.26	20009.24
695.39	19585.60
695.53	19899.23
695.66	19866.47
695.80	19639.44
695.93	19445.17
696.07	19531.77
696.20	19185.37
696.33	19129.20
696.47	19154.94
696.60	19227.50
696.73	19314.10
696.87	18897.49
697.00	19051.96
697.14	18764.07
697.27	18635.35
697.40	18764.07
697.54	18408.31
697.67	18265.54
697.80	18469.17
697.94	18317.03
698.07	18197.67
698.21	17954.25
698.34	18108.72
698.47	17914.46
698.61	17731.90
698.74	17715.51
698.87	17451.03
699.01	17778.71
699.14	17561.04
699.27	17841.90
699.40	17345.71
699.54	17282.52
699.67	17301.24
699.80	17228.68
699.94	17156.13
700.07	17095.27
700.20	16861.22
700.34	16758.24
700.47	16730.15
700.60	16971.22
700.73	16793.34
700.87	16535.88
701.00	16545.25
701.13	16484.39
701.26	16175.44
701.40	16402.47
701.53	16081.82
701.66	16114.59
701.79	15927.35
701.93	15648.82
702.06	15571.58
702.19	15527.11
702.32	15658.18
702.46	15747.12
702.59	15644.14
702.72	15499.03
702.85	15660.52
702.99	15557.54
703.12	15302.42
703.25	14974.75
703.38	15344.55
703.51	14953.68
703.65	14771.12
703.78	14698.56
703.91	14572.18
704.04	14649.41
704.17	14595.58
704.31	14553.45
704.44	14361.53
704.57	14317.06
704.70	14310.04
704.83	14211.73
704.96	14134.50
705.10	14064.28
705.23	13860.65
>>>>>End Processed Spectral Data<<<<<
