SpectraSuite Data File
++++++++++++++++++++++++++++++++++++
Date: Fri Oct 25 10:43:47 EDT 2013
User: price-jones
Dark Spectrum Present: No
Reference Spectrum Present: No
Number of Sampled Component Spectra: 1
Spectrometers: USB2+H05261
Integration Time (usec): 100000 (USB2+H05261)
Spectra Averaged: 1 (USB2+H05261)
Boxcar Smoothing: 0 (USB2+H05261)
Correct for Electrical Dark: No (USB2+H05261)
Strobe/Lamp Enabled: No (USB2+H05261)
Correct for Detector Non-linearity: No (USB2+H05261)
Correct for Stray Light: No (USB2+H05261)
Number of Pixels in Processed Spectrum: 2048
>>>>>Begin Processed Spectral Data<<<<<
365.73	131.07
365.92	131.07
366.12	131.07
366.32	0.00
366.52	18.72
366.72	74.90
366.91	0.00
367.11	23.41
367.31	32.77
367.51	0.00
367.70	18.72
367.90	21.06
368.10	23.41
368.30	0.00
368.49	0.00
368.69	11.70
368.89	98.30
369.09	51.49
369.28	35.11
369.48	102.98
369.68	72.56
369.87	93.62
370.07	72.56
370.27	88.94
370.47	222.35
370.66	383.85
370.86	435.34
371.06	447.04
371.25	498.53
371.45	374.49
371.65	489.17
371.84	477.47
372.04	435.34
372.24	505.56
372.44	402.57
372.63	524.28
372.83	543.00
373.03	519.60
373.22	500.87
373.42	526.62
373.62	463.43
373.81	533.64
374.01	528.96
374.21	575.77
374.40	561.73
374.60	620.24
374.79	437.68
374.99	524.28
375.19	519.60
375.38	601.52
375.58	617.90
375.78	664.71
375.97	641.31
376.17	641.31
376.37	582.79
376.56	634.29
376.76	578.11
376.95	496.19
377.15	634.29
377.35	638.97
377.54	676.41
377.74	655.35
377.93	648.33
378.13	615.56
378.33	596.84
378.52	655.35
378.72	622.58
378.91	711.52
379.11	655.35
379.31	643.65
379.50	653.01
379.70	697.48
379.89	699.82
380.09	629.60
380.28	596.84
380.48	660.03
380.68	723.23
380.87	660.03
381.07	697.48
381.26	671.73
381.46	657.69
381.65	648.33
381.85	681.10
382.04	653.01
382.24	758.33
382.43	805.14
382.63	678.76
382.83	683.44
383.02	697.48
383.22	702.16
383.41	709.18
383.61	725.57
383.80	755.99
384.00	767.70
384.19	767.70
384.39	791.10
384.58	774.72
384.78	856.64
384.97	814.51
385.17	751.31
385.36	770.04
385.56	809.83
385.75	669.39
385.95	826.21
386.14	858.98
386.34	844.93
386.53	877.70
386.72	866.00
386.92	805.14
387.11	814.51
387.31	903.45
387.50	826.21
387.70	844.93
387.89	833.23
388.09	938.55
388.28	863.66
388.48	917.49
388.67	875.36
388.86	891.74
389.06	999.41
389.25	978.34
389.45	1013.45
389.64	1015.79
389.84	985.37
390.03	994.73
390.22	976.00
390.42	999.41
390.61	990.05
390.81	1060.26
391.00	971.32
391.19	1111.75
391.39	1123.46
391.58	1071.97
391.78	1043.88
391.97	1107.07
392.16	947.92
392.36	1083.67
392.55	1064.94
392.75	961.96
392.94	915.15
393.13	1093.03
393.33	1032.18
393.52	1074.31
393.71	1057.92
393.91	1055.58
394.10	1116.44
394.29	1137.50
394.49	1177.29
394.68	1170.27
394.88	1273.25
395.07	1163.25
395.26	1198.35
395.46	1191.33
395.65	1263.89
395.84	1233.46
396.04	1294.32
396.23	1291.98
396.42	1226.44
396.62	1142.18
396.81	1132.82
397.00	1289.64
397.19	1214.74
397.39	1338.79
397.58	1261.55
397.77	1284.95
397.97	1383.26
398.16	1364.53
398.35	1425.39
398.55	1425.39
398.74	1568.16
398.93	1483.90
399.12	1509.65
399.32	1502.62
399.51	1490.92
399.70	1537.73
399.90	1533.05
400.09	1575.18
400.28	1633.69
400.47	1682.85
400.67	1605.61
400.86	1577.52
401.05	1666.46
401.24	1556.46
401.44	1729.66
401.63	1652.42
401.82	1732.00
402.01	1633.69
402.21	1771.79
402.40	1727.32
402.59	1661.78
402.78	1614.97
402.97	1802.21
403.17	1795.19
403.36	1781.15
403.55	1743.70
403.74	1860.73
403.93	1823.28
404.13	1970.73
404.32	1851.36
404.51	1804.55
404.70	1802.21
404.89	1795.19
405.09	1989.46
405.28	1970.73
405.47	1984.77
405.66	1919.24
405.85	2015.20
406.05	1980.09
406.24	1975.41
406.43	1884.13
406.62	2064.35
406.81	2111.16
407.00	1984.77
407.20	2050.31
407.39	2083.08
407.58	2122.87
407.77	2179.04
407.96	2181.38
408.15	2211.81
408.34	2232.87
408.54	2193.08
408.73	2352.24
408.92	2359.26
409.11	2321.81
409.30	2282.02
409.49	2228.19
409.68	2214.15
409.87	2307.77
410.07	2298.41
410.26	2363.94
410.45	2525.44
410.64	2511.39
410.83	2417.77
411.02	2403.73
411.21	2518.42
411.40	2572.25
411.59	2544.16
411.78	2497.35
411.98	2567.57
412.17	2663.53
412.36	2588.63
412.55	2712.68
412.74	2670.55
412.93	2626.08
413.12	2773.53
413.31	2806.30
413.50	2726.72
413.69	2909.29
413.88	2937.37
414.07	2794.60
414.26	2869.50
414.45	2937.37
414.64	2913.97
414.83	3014.61
415.02	2995.89
415.22	2967.80
415.41	3131.64
415.60	3047.38
415.79	3197.17
415.98	3297.81
416.17	3269.73
416.36	3283.77
416.55	3283.77
416.74	3229.94
416.93	3255.69
417.12	3321.22
417.31	3300.16
417.50	3403.14
417.69	3316.54
417.88	3389.10
418.07	3274.41
418.26	3454.63
418.45	3463.99
418.64	3698.05
418.83	3574.00
419.02	3426.54
419.21	3583.36
419.39	3503.78
419.58	3557.61
419.77	3508.46
419.96	3623.15
420.15	3744.86
420.34	3585.70
420.53	3637.19
420.72	3899.33
420.91	3826.78
421.10	3812.73
421.29	3786.99
421.48	3693.37
421.67	3805.71
421.86	3885.29
422.05	3709.75
422.24	3768.26
422.43	3880.61
422.61	3644.21
422.80	3742.52
422.99	3889.97
423.18	4021.04
423.37	4025.72
423.56	3882.95
423.75	3981.25
423.94	3866.56
424.13	3552.93
424.32	3770.60
424.50	4037.42
424.69	3887.63
424.88	4056.15
425.07	3985.93
425.26	3721.45
425.45	3805.71
425.64	3913.38
425.83	3840.82
426.01	3974.23
426.20	3939.12
426.39	4007.00
426.58	3964.87
426.77	3906.35
426.96	4025.72
427.15	3918.06
427.33	4074.87
427.52	3988.27
427.71	4058.49
427.90	4114.66
428.09	4023.38
428.28	4201.26
428.46	4009.34
428.65	4135.73
428.84	4147.43
429.03	4271.48
429.22	4166.15
429.40	4196.58
429.59	4131.05
429.78	3939.12
429.97	3927.42
430.16	3969.55
430.34	3997.64
430.53	4093.60
430.72	4107.64
430.91	4145.09
431.10	4269.14
431.28	4505.53
431.47	4617.88
431.66	4655.33
431.85	4580.43
432.03	4592.13
432.22	4498.51
432.41	4542.98
432.60	4652.98
432.79	4528.94
432.97	4826.18
433.16	4718.52
433.35	4620.22
433.54	4622.56
433.72	4683.41
433.91	4627.24
434.10	4809.80
434.28	4695.11
434.47	4734.90
434.66	4901.08
434.85	4765.33
435.03	4966.62
435.22	4880.02
435.41	5057.90
435.59	4994.70
435.78	5123.43
435.97	5139.82
436.16	5029.81
436.34	4973.64
436.53	5238.12
436.72	5256.84
436.90	5006.41
437.09	5226.42
437.28	4999.38
437.46	4938.53
437.65	4999.38
437.84	5172.58
438.02	5149.18
438.21	5118.75
438.40	5132.79
438.58	5416.00
438.77	5284.93
438.96	5486.22
439.14	5399.62
439.33	5589.20
439.52	5598.56
439.70	5696.86
439.89	5731.97
440.08	5650.05
440.26	5678.14
440.45	5717.93
440.63	5874.74
440.82	5959.00
441.01	5858.36
441.19	5870.06
441.38	6012.84
441.57	5888.79
441.75	6174.33
441.94	6197.74
442.12	6296.04
442.31	6162.63
442.50	6403.71
442.68	6061.99
442.87	6345.19
443.05	6235.19
443.24	6296.04
443.43	6462.22
443.61	6436.47
443.80	6626.06
443.98	6223.48
444.17	6136.88
444.35	6415.41
444.54	6530.09
444.73	6518.39
444.91	6338.17
445.10	6511.37
445.28	6511.37
445.47	6415.41
445.65	6410.73
445.84	6518.39
446.02	6602.65
446.21	6480.94
446.39	6296.04
446.58	6590.95
446.77	6668.19
446.95	6548.82
447.14	6623.72
447.32	6595.63
447.51	6539.46
447.69	6637.76
447.88	6700.95
448.06	6787.55
448.25	6684.57
448.43	6754.79
448.62	6635.42
448.80	6705.63
448.99	6911.60
449.17	6789.89
449.36	6778.19
449.54	6888.20
449.73	6911.60
449.91	7157.36
450.10	7047.35
450.28	7140.97
450.46	6998.20
450.65	7037.99
450.83	7082.46
451.02	7075.44
451.20	7084.80
451.39	7201.83
451.57	7103.53
451.76	7061.40
451.94	7171.40
452.13	7122.25
452.31	7185.44
452.49	7176.08
452.68	7045.01
452.86	7265.02
453.05	7323.54
453.23	7389.07
453.42	7307.15
453.60	7157.36
453.78	7393.75
453.97	7431.20
454.15	7286.09
454.34	7449.93
454.52	7328.22
454.70	7433.54
454.89	7494.40
455.07	7536.52
455.26	7536.52
455.44	7658.23
455.62	7602.06
455.81	7824.41
455.99	7691.00
456.17	7702.70
456.36	7943.78
456.54	7810.37
456.73	7941.44
456.91	7999.95
457.09	7967.18
457.28	8060.80
457.46	7889.95
457.64	8093.57
457.83	8145.06
458.01	7992.93
458.19	8224.64
458.38	8161.45
458.56	8355.71
458.74	8175.49
458.93	8266.77
459.11	8131.02
459.29	8231.66
459.48	8248.05
459.66	8203.58
459.84	8294.86
460.03	8486.78
460.21	8407.20
460.39	8524.23
460.57	8458.70
460.76	8606.15
460.94	8676.37
461.12	8634.24
461.31	8592.11
461.49	8664.66
461.67	8617.85
461.85	8865.95
462.04	8734.88
462.22	8947.87
462.40	9013.40
462.59	8898.72
462.77	8992.34
462.95	8856.59
463.13	8795.73
463.32	8926.80
463.50	8945.53
463.68	9092.98
463.86	9011.06
464.05	8786.37
464.23	8926.80
464.41	8917.44
464.59	8645.94
464.78	9146.81
464.96	8999.36
465.14	8865.95
465.32	9191.28
465.50	9390.23
465.69	9254.48
465.87	9254.48
466.05	9252.14
466.23	9142.13
466.41	8954.89
466.60	9483.85
466.78	9125.75
466.96	9076.60
467.14	9362.14
467.32	9263.84
467.51	9352.78
467.69	9027.45
467.87	9338.74
468.05	9439.38
468.23	9284.91
468.41	9331.72
468.60	9310.65
468.78	9619.60
468.96	9584.49
469.14	9633.64
469.32	9633.64
469.50	9586.83
469.69	9584.49
469.87	9736.63
470.05	9694.50
470.23	9774.08
470.41	9680.46
470.59	9928.55
470.77	9647.69
470.95	10036.22
471.14	9874.72
471.32	9963.66
471.50	10340.49
471.68	10083.03
471.86	10183.67
472.04	10146.22
472.22	10497.30
472.40	10321.76
472.58	10263.25
472.77	10410.70
472.95	10466.88
473.13	10759.44
473.31	10478.58
473.49	10389.64
473.67	10487.94
473.85	10747.74
474.03	10881.15
474.21	11030.94
474.39	10904.56
474.57	10799.23
474.75	10934.98
474.93	11077.76
475.12	11059.03
475.30	11236.91
475.48	11206.48
475.66	11335.21
475.84	11204.14
476.02	11309.47
476.20	11428.84
476.38	11808.00
476.56	11910.99
476.74	11866.52
476.92	11705.02
477.10	11709.70
477.28	11693.32
477.46	12013.97
477.64	12145.04
477.82	12196.53
478.00	12643.57
478.18	12170.79
478.36	12526.55
478.54	12617.83
478.72	12564.00
478.90	12828.48
479.08	13057.85
479.26	12947.84
479.44	13151.47
479.62	13114.02
479.80	13315.31
479.98	13448.72
480.16	13713.20
480.34	13628.94
480.52	13626.60
480.70	13493.19
480.88	13521.27
481.06	13834.91
481.24	13895.76
481.41	14120.45
481.59	14555.79
481.77	14188.33
481.95	14281.95
482.13	14499.62
482.31	14618.99
482.49	14640.05
482.67	14443.45
482.85	14949.00
483.03	14934.96
483.21	15166.67
483.39	15056.67
483.57	15337.53
483.74	15311.78
483.92	15438.17
484.10	15480.30
484.28	15627.76
484.46	16027.99
484.64	16065.44
484.82	16063.10
485.00	16046.71
485.18	16285.45
485.35	16248.00
485.53	15997.56
485.71	16123.95
485.89	16376.73
486.07	16468.01
486.25	16514.82
486.43	16678.66
486.61	16718.45
486.78	17067.19
486.96	17324.65
487.14	17362.09
487.32	17607.85
487.50	17832.54
487.68	17841.90
487.85	18328.74
488.03	18443.42
488.21	18881.10
488.39	18548.75
488.57	18590.88
488.75	19000.47
488.92	18885.78
489.10	19077.71
489.28	19297.72
489.46	19419.42
489.64	19456.87
489.81	19768.16
489.99	19747.10
490.17	19953.07
490.35	20336.91
490.53	20240.95
490.70	20458.62
490.88	20189.46
491.06	20570.97
491.24	20570.97
491.41	20629.48
491.59	20783.96
491.77	20765.23
491.95	21109.29
492.13	21167.80
492.30	21387.82
492.48	21724.85
492.66	21425.26
492.84	21759.96
493.01	21752.94
493.19	22022.10
493.37	22019.76
493.54	22176.58
493.72	22148.49
493.90	22480.85
494.08	22801.50
494.25	22871.72
494.43	22909.16
494.61	23470.89
494.79	23412.38
494.96	23257.90
495.14	23487.28
495.32	23580.90
495.49	23555.15
495.67	23576.22
495.85	23857.08
496.02	23901.55
496.20	24496.05
496.38	24140.29
496.55	24292.42
496.73	24982.88
496.91	24835.42
497.09	24849.47
497.26	25174.80
497.44	24706.70
497.62	24919.68
497.79	25083.52
497.97	25261.40
498.14	25441.62
498.32	25605.46
498.50	25088.20
498.67	25963.56
498.85	25921.43
499.03	26277.19
499.20	26419.97
499.38	26078.25
499.56	26265.49
499.73	26305.28
499.91	26602.53
500.08	26450.39
500.26	26342.73
500.44	26361.45
500.61	26338.05
500.79	26377.84
500.97	26471.46
501.14	27012.12
501.32	26459.76
501.49	27037.87
501.67	26827.22
501.84	27143.19
502.02	27386.61
502.20	27498.95
502.37	27768.12
502.55	27913.23
502.72	27761.09
502.90	27601.94
503.07	27775.14
503.25	28039.62
503.43	27871.10
503.60	28315.80
503.78	27847.69
503.95	27899.19
504.13	28353.25
504.30	28882.21
504.48	28437.51
504.65	28755.82
504.83	28807.31
505.01	29312.87
505.18	28882.21
505.36	29352.66
505.53	29425.22
505.71	29579.69
505.88	29427.56
506.06	29074.13
506.23	29912.05
506.41	29558.63
506.58	29523.52
506.76	29661.61
506.93	29968.22
507.11	29596.07
507.28	30218.66
507.46	29579.69
507.63	29776.30
507.81	30047.80
507.98	30101.63
508.16	30089.93
508.33	30693.79
508.50	30658.68
508.68	30656.34
508.85	30780.39
509.03	30672.72
509.20	30883.37
509.38	30855.28
509.55	31159.55
509.73	31370.20
509.90	31395.95
510.08	31489.57
510.25	31180.62
510.42	31351.48
510.60	31763.41
510.77	31747.03
510.95	32023.21
511.12	31606.59
511.30	32116.83
511.47	31894.48
511.64	32348.54
511.82	32046.62
511.99	32119.17
512.17	32540.47
512.34	32086.40
512.51	32603.66
512.69	32400.04
512.86	32355.57
513.04	32669.20
513.21	32781.54
513.38	32772.18
513.56	32547.49
513.73	32311.10
513.90	32760.48
514.08	32711.33
514.25	33191.14
514.43	32931.34
514.60	32921.98
514.77	33488.38
514.95	33523.49
515.12	33287.10
515.29	33450.94
515.47	34115.65
515.64	33528.17
515.81	33874.57
515.99	33390.08
516.16	33479.02
516.33	33582.01
516.51	33780.95
516.68	33383.06
516.85	33163.05
517.03	33577.33
517.20	33483.70
517.37	34178.84
517.54	34443.32
517.72	34038.41
517.89	33635.84
518.06	34024.37
518.24	33930.75
518.41	34113.31
518.58	34436.30
518.75	34422.26
518.93	34696.10
519.10	34527.58
519.27	34892.71
519.45	35023.78
519.62	35302.30
519.79	35206.34
519.96	35267.19
520.14	35416.99
520.31	35101.01
520.48	35089.31
520.65	35070.59
520.83	35424.01
521.00	35674.45
521.17	35487.20
521.34	35948.29
521.52	35826.58
521.69	36009.14
521.86	36275.96
522.03	35744.66
522.20	36275.96
522.38	36172.98
522.55	36189.36
522.72	36203.41
522.89	36479.59
523.07	36540.44
523.24	36348.52
523.41	36994.51
523.58	36671.51
523.75	37256.65
523.92	37015.57
524.10	37015.57
524.27	37153.66
524.44	37549.21
524.61	37254.31
524.78	37549.21
524.96	37191.11
525.13	37537.51
525.30	37287.07
525.47	37691.99
525.64	37179.41
525.81	37436.87
525.98	37544.53
526.16	37378.36
526.33	37181.75
526.50	37558.58
526.67	36723.01
526.84	37242.60
527.01	37661.56
527.18	37855.82
527.36	37649.86
527.53	38106.26
527.70	38284.14
527.87	38197.54
528.04	38309.89
528.21	37860.51
528.38	38029.02
528.55	38710.12
528.72	38396.49
528.89	38684.37
529.07	38859.91
529.24	38574.37
529.41	38794.38
529.58	38642.24
529.75	38265.42
529.92	39210.99
530.09	39108.01
530.26	38925.45
530.43	39026.09
530.60	38611.82
530.77	38843.53
530.94	39194.61
531.11	39040.14
531.28	39278.87
531.46	39402.92
531.63	39487.18
531.80	39374.83
531.97	39103.33
532.14	39861.66
532.31	39328.02
532.48	39318.66
532.65	39428.66
532.82	39096.31
532.99	39428.66
533.16	39480.16
533.33	39501.22
533.50	40126.14
533.67	39885.07
533.84	39468.45
534.01	39936.56
534.18	39875.71
534.35	40713.62
534.52	40020.82
534.69	40182.32
534.86	40371.90
535.03	40275.94
535.20	40776.81
535.37	40652.76
535.54	40636.38
535.71	40495.95
535.88	40622.34
536.05	40767.45
536.22	40636.38
536.38	40542.76
536.55	40502.97
536.72	40671.49
536.89	40570.85
537.06	40795.54
537.23	40629.36
537.40	40994.48
537.57	41268.33
537.74	41034.27
537.91	41474.29
538.08	41338.54
538.25	40631.70
538.42	41118.53
538.59	41144.28
538.75	40627.02
538.92	41134.92
539.09	41745.80
539.26	41390.03
539.43	41514.08
539.60	41074.06
539.77	40856.39
539.94	41172.36
540.11	40905.54
540.28	41518.76
540.44	41509.40
540.61	41673.24
540.78	41193.43
540.95	41177.04
541.12	41448.55
541.29	41654.51
541.46	41799.63
541.62	41827.71
541.79	41993.89
541.96	41151.30
542.13	41659.20
542.30	41577.28
542.47	42087.51
542.63	41911.97
542.80	41963.46
542.97	42412.85
543.14	42569.66
543.31	42642.22
543.48	42590.73
543.64	43217.99
543.81	42410.51
543.98	42377.74
544.15	42670.31
544.32	42864.57
544.48	43377.15
544.65	42761.59
544.82	42618.81
544.99	42836.48
545.16	42862.23
545.32	42754.57
545.49	42979.26
545.66	43232.04
545.83	43519.92
546.00	43250.76
546.16	43157.14
546.33	43253.10
546.50	42789.67
546.67	43325.66
546.83	42941.81
547.00	43173.52
547.17	43042.45
547.34	42965.21
547.50	42838.83
547.67	43393.53
547.84	43419.28
548.00	43225.01
548.17	43533.96
548.34	43421.62
548.51	43737.59
548.67	44011.43
548.84	43753.97
549.01	43412.26
549.18	43255.44
549.34	43388.85
549.51	43950.58
549.68	43950.58
549.84	43697.80
550.01	43716.53
550.18	43627.59
550.34	43676.74
550.51	44016.11
550.68	43367.79
550.84	43335.02
551.01	43742.27
551.18	43931.86
551.34	44128.46
551.51	44250.17
551.68	44086.33
551.84	43807.81
552.01	44095.69
552.18	44112.08
552.34	44348.47
552.51	44194.00
552.68	44238.47
552.84	44172.93
553.01	44690.19
553.18	44058.24
553.34	44706.57
553.51	44311.02
553.67	44399.96
553.84	44322.72
554.01	44900.84
554.17	44828.28
554.34	44444.43
554.51	44919.56
554.67	44741.68
554.84	44753.38
555.00	44610.61
555.17	44320.38
555.33	44694.87
555.50	44687.85
555.67	44444.43
555.83	44535.71
556.00	44559.12
556.16	45090.42
556.33	44629.34
556.50	45092.76
556.66	44786.15
556.83	44545.08
556.99	44376.56
557.16	44854.03
557.32	45029.57
557.49	44879.77
557.65	44725.30
557.82	44783.81
557.98	45272.98
558.15	44793.17
558.32	45106.80
558.48	45102.12
558.65	45366.60
558.81	44720.62
558.98	44907.86
559.14	44844.66
559.31	44865.73
559.47	45343.20
559.64	45029.57
559.80	45591.30
559.97	45375.97
560.13	45109.14
560.30	45221.49
560.46	45083.40
560.63	45219.15
560.79	45642.79
560.96	45551.51
561.12	45223.83
561.29	44980.42
561.45	44917.22
561.61	45638.11
561.78	45577.25
561.94	45137.23
562.11	44928.92
562.27	44966.37
562.44	45284.68
562.60	45485.97
562.77	45139.57
562.93	45198.09
563.10	45841.73
563.26	45373.63
563.42	45687.26
563.59	45298.73
563.75	45336.18
563.92	45797.26
564.08	45694.28
564.24	45839.39
564.41	45368.94
564.57	45462.57
564.74	44964.03
564.90	45539.80
565.07	45338.52
565.23	45675.55
565.39	45705.98
565.56	45560.87
565.72	44851.69
565.88	45048.29
566.05	45535.12
566.21	45642.79
566.38	45380.65
566.54	45453.20
566.70	45752.79
566.87	45720.02
567.03	45525.76
567.19	46138.98
567.36	46167.07
567.52	45523.42
567.68	45862.80
567.85	45385.33
568.01	45542.14
568.17	45605.34
568.34	45923.65
568.50	45780.88
568.66	45827.69
568.83	46216.22
568.99	45230.85
569.15	45148.93
569.32	45694.28
569.48	45488.31
569.64	45853.44
569.81	45701.30
569.97	45570.23
570.13	45478.95
570.30	45647.47
570.46	45549.17
570.62	45696.62
570.78	45507.04
570.95	45584.27
571.11	45446.18
571.27	45605.34
571.43	45500.01
571.60	46066.42
571.76	45738.75
571.92	46110.89
572.09	45638.11
572.25	45432.14
572.41	45804.28
572.57	46216.22
572.74	46302.82
572.90	45689.60
573.06	46073.45
573.22	45748.11
573.38	46089.83
573.55	45467.25
573.71	46005.57
573.87	45865.14
574.03	45694.28
574.20	45900.25
574.36	45916.63
574.52	45977.48
574.68	45640.45
574.84	46377.72
575.01	45722.37
575.17	45804.28
575.33	46014.93
575.49	45567.89
575.65	45722.37
575.82	45909.61
575.98	45373.63
576.14	46368.35
576.30	46234.94
576.46	45942.38
576.62	45853.44
576.79	45790.24
576.95	45876.84
577.11	45806.62
577.27	46302.82
577.43	45668.53
577.59	45991.53
577.75	45645.13
577.92	45640.45
578.08	45769.18
578.24	45572.57
578.40	45631.08
578.56	46143.66
578.72	45694.28
578.88	46305.16
579.04	46103.87
579.21	45567.89
579.37	46089.83
579.53	45792.58
579.69	45598.32
579.85	45514.06
580.01	46248.99
580.17	46256.01
580.33	46153.02
580.49	45720.02
580.65	45834.71
580.82	45947.06
580.98	45715.34
581.14	45818.33
581.30	46017.27
581.46	46211.54
581.62	46270.05
581.78	46181.11
581.94	46230.26
582.10	45790.24
582.26	46183.45
582.42	46108.55
582.58	46078.13
582.74	45860.46
582.90	46281.75
583.06	46387.08
583.22	46483.04
583.38	46630.49
583.54	46300.48
583.70	46534.53
583.86	46307.50
584.02	46227.92
584.18	45940.04
584.34	46237.28
584.50	46213.88
584.66	45846.41
584.82	46061.74
584.98	45949.40
585.14	46387.08
585.30	45691.94
585.46	45720.02
585.62	45947.06
585.78	45762.15
585.94	45581.93
586.10	45986.85
586.26	45827.69
586.42	46314.52
586.58	46405.80
586.74	46057.06
586.90	45776.20
587.06	45904.93
587.22	46377.72
587.38	46150.68
587.54	45893.22
587.70	46445.59
587.86	46082.81
588.02	46164.73
588.18	46218.56
588.34	45918.97
588.49	45495.33
588.65	45535.12
588.81	45544.48
588.97	45642.79
589.13	45378.31
589.29	45823.01
589.45	45911.95
589.61	45811.31
589.77	45935.35
589.93	46323.88
590.08	46469.00
590.24	46138.98
590.40	46604.75
590.56	46227.92
590.72	46143.66
590.88	45888.54
591.04	46398.78
591.20	46461.97
591.35	46143.66
591.51	46618.79
591.67	45998.55
591.83	46155.36
591.99	45865.14
592.15	46110.89
592.31	46286.43
592.46	46223.24
592.62	46171.75
592.78	46340.27
592.94	46342.61
593.10	46150.68
593.26	46267.71
593.41	46436.23
593.57	46195.15
593.73	45977.48
593.89	46113.23
594.05	46358.99
594.20	46583.68
594.36	46354.31
594.52	46476.02
594.68	46305.16
594.84	46129.62
594.99	46429.21
595.15	46265.37
595.31	46492.40
595.47	46248.99
595.62	46234.94
595.78	46157.70
595.94	46504.10
596.10	46115.58
596.25	46323.88
596.41	46469.00
596.57	45855.78
596.73	46040.68
596.88	46101.53
597.04	46504.10
597.20	46143.66
597.36	46164.73
597.51	46693.69
597.67	46508.79
597.83	46429.21
597.99	47093.92
598.14	46075.79
598.30	46557.94
598.46	45900.25
598.61	46382.40
598.77	46068.76
598.93	46288.77
599.09	46590.70
599.24	46653.90
599.40	46649.22
599.56	46492.40
599.71	46218.56
599.87	46415.16
600.03	46274.73
600.18	46248.99
600.34	46167.07
600.50	46286.43
600.65	46068.76
600.81	46330.90
600.97	46457.29
601.12	46670.28
601.28	45949.40
601.44	45876.84
601.59	46178.77
601.75	46017.27
601.91	46052.38
602.06	45825.35
602.22	46490.06
602.37	45930.67
602.53	46256.01
602.69	46335.59
602.84	46244.30
603.00	46300.48
603.16	46344.95
603.31	45996.21
603.47	46316.86
603.62	46178.77
603.78	46382.40
603.94	46469.00
604.09	46412.82
604.25	46185.79
604.40	46204.52
604.56	46174.09
604.71	46712.41
604.87	45844.07
605.03	45954.08
605.18	45778.54
605.34	46263.03
605.49	45677.90
605.65	45954.08
605.80	46101.53
605.96	46195.15
606.12	45893.22
606.27	46265.37
606.43	45804.28
606.58	46136.64
606.74	46169.41
606.89	46096.85
607.05	46256.01
607.20	45876.84
607.36	46092.17
607.51	46410.48
607.67	46429.21
607.82	45949.40
607.98	46036.00
608.13	45792.58
608.29	45565.55
608.44	45453.20
608.60	45638.11
608.75	46019.61
608.91	45844.07
609.06	46124.94
609.22	46260.69
609.37	45909.61
609.53	45614.70
609.68	45687.26
609.84	45724.71
609.99	45368.94
610.15	45411.07
610.30	45635.77
610.46	45427.46
610.61	45237.87
610.76	45453.20
610.92	45593.64
611.07	46033.66
611.23	45787.90
611.38	45834.71
611.54	45408.73
611.69	45277.66
611.84	45174.68
612.00	45471.93
612.15	45177.02
612.31	45663.85
612.46	45303.41
612.62	45492.99
612.77	45476.61
612.92	45102.12
613.08	44814.24
613.23	45532.78
613.39	44987.44
613.54	45067.02
613.69	44924.24
613.85	45113.83
614.00	45284.68
614.15	45242.56
614.31	45158.30
614.46	45268.30
614.62	44872.75
614.77	45130.21
614.92	45413.41
615.08	44945.31
615.23	45193.40
615.38	45139.57
615.54	44753.38
615.69	44938.29
615.84	44753.38
616.00	45148.93
616.15	44760.40
616.30	44966.37
616.46	44818.92
616.61	44657.42
616.76	44547.42
616.92	44598.91
617.07	44545.08
617.22	45198.09
617.37	44477.20
617.53	44828.28
617.68	44779.13
617.83	44692.53
617.99	44645.72
618.14	44196.34
618.29	44346.13
618.45	44086.33
618.60	44172.93
618.75	44151.87
618.90	44203.36
619.06	44341.45
619.21	44554.44
619.36	44278.25
619.51	44603.59
619.67	44376.56
619.82	44250.17
619.97	44371.88
620.12	44158.89
620.28	43749.29
620.43	44062.93
620.58	44556.78
620.73	44107.40
620.89	44208.04
621.04	44369.54
621.19	44357.83
621.34	44334.43
621.49	43770.36
621.65	44151.87
621.80	44374.22
621.95	43742.27
622.10	43871.00
622.25	43716.53
622.41	43674.40
622.56	43903.77
622.71	43915.47
622.86	43964.62
623.01	43784.40
623.16	43658.01
623.32	43569.07
623.47	43456.73
623.62	43700.14
623.77	43606.52
623.92	43512.90
624.07	43536.30
624.23	43482.47
624.38	43433.32
624.53	43665.03
624.68	43517.58
624.83	43313.95
624.98	43512.90
625.13	43187.56
625.29	43428.64
625.44	42965.21
625.59	43250.76
625.74	42946.49
625.89	42579.03
626.04	42691.37
626.19	42990.96
626.34	43480.13
626.49	43063.52
626.65	42799.04
626.80	43227.35
626.95	42972.24
627.10	42674.99
627.25	42941.81
627.40	42939.47
627.55	42726.48
627.70	42483.06
627.85	42780.31
628.00	42696.05
628.15	42967.55
628.30	42972.24
628.45	42660.94
628.60	42604.77
628.76	42677.33
628.91	42756.91
629.06	42642.22
629.21	42272.42
629.36	42579.03
629.51	42199.86
629.66	42433.91
629.81	41944.74
629.96	42548.60
630.11	42534.56
630.26	42157.73
630.41	42469.02
630.56	42124.96
630.71	42398.80
630.86	42443.27
631.01	42735.84
631.16	42288.80
631.31	41851.12
631.46	41993.89
631.61	42052.41
631.76	41876.86
631.91	42171.77
632.06	42412.85
632.21	41881.55
632.36	41949.42
632.51	41879.21
632.66	41600.68
632.81	41624.09
632.96	41888.57
633.10	41689.62
633.25	41684.94
633.40	41991.55
633.55	41820.69
633.70	41584.30
633.85	41890.91
634.00	41715.37
634.15	41841.76
634.30	41361.95
634.45	41689.62
634.60	41654.51
634.75	41759.84
634.90	41195.77
635.05	41404.08
635.19	41429.82
635.34	41504.72
635.49	41780.90
635.64	41277.69
635.79	40966.40
635.94	41186.41
636.09	40919.59
636.24	41081.08
636.39	40612.98
636.53	41270.67
636.68	41090.44
636.83	41277.69
636.98	41127.89
637.13	41097.47
637.28	41434.50
637.43	41539.83
637.57	40919.59
637.72	40877.46
637.87	40992.14
638.02	40940.65
638.17	41366.63
638.32	40643.40
638.46	40643.40
638.61	40842.35
638.76	40746.39
638.91	40708.94
639.06	40928.95
639.20	41223.86
639.35	41209.81
639.50	40816.60
639.65	40776.81
639.80	40715.96
639.94	40889.16
640.09	40755.75
640.24	40582.55
640.39	40526.38
640.54	39908.47
640.68	40617.66
640.83	40236.15
640.98	40364.88
641.13	40182.32
641.27	40266.58
641.42	40257.21
641.57	40165.93
641.72	40350.84
641.86	40041.88
642.01	40044.23
642.16	40430.41
642.31	39995.07
642.45	40076.99
642.60	39501.22
642.75	40072.31
642.90	40100.40
643.04	39643.99
643.19	39969.33
643.34	39887.41
643.48	39866.34
643.63	40084.01
643.78	39658.04
643.93	40390.62
644.07	39845.28
644.22	40177.64
644.37	39849.96
644.51	39629.95
644.66	39515.26
644.81	39599.52
644.95	39674.42
645.10	39950.60
645.25	39903.79
645.39	39945.92
645.54	39704.85
645.69	39332.70
645.83	39503.56
645.98	39569.10
646.13	39423.98
646.27	39669.74
646.42	39164.18
646.57	39398.24
646.71	39229.72
646.86	39180.57
647.00	39459.09
647.15	39335.04
647.30	39452.07
647.44	39339.72
647.59	39082.27
647.74	39358.45
647.88	39033.11
648.03	38831.83
648.17	39550.37
648.32	39150.14
648.47	38782.68
648.61	38820.13
648.76	39229.72
648.90	38726.50
649.05	39232.06
649.20	38976.94
649.34	38834.17
649.49	38927.79
649.63	38810.76
649.78	39367.81
649.92	38806.08
650.07	39342.06
650.21	39250.78
650.36	39112.69
650.51	38792.04
650.65	39243.76
650.80	39372.49
650.94	38944.17
651.09	38562.67
651.23	38792.04
651.38	38352.02
651.52	38085.20
651.67	38548.62
651.81	38831.83
651.96	38658.63
652.10	38440.96
652.25	38572.03
652.39	38384.79
652.54	38724.16
652.68	38651.61
652.83	38263.08
652.97	38686.71
653.12	38174.14
653.26	38326.27
653.41	37830.08
653.55	38029.02
653.70	38007.96
653.84	38473.73
653.99	38171.80
654.13	38073.49
654.27	37998.60
654.42	38022.00
654.56	37523.47
654.71	38242.01
654.85	37626.45
655.00	37794.97
655.14	37596.03
655.29	37287.07
655.43	37872.21
655.57	37418.14
655.72	36896.20
655.86	37628.79
656.01	37109.19
656.15	37008.55
656.30	37340.91
656.44	37024.93
656.58	37579.64
656.73	37713.05
656.87	37060.04
657.01	37546.87
657.16	37371.33
657.30	37258.99
657.45	37092.81
657.59	37127.92
657.73	37071.75
657.88	37977.53
658.02	37647.52
658.16	37642.84
658.31	37455.59
658.45	36940.68
658.60	37111.53
658.74	37207.50
658.88	37296.44
659.03	36821.31
659.17	37013.23
659.31	37268.35
659.46	36809.61
659.60	36788.54
659.74	36552.15
659.89	36730.03
660.03	36727.69
660.17	37064.72
660.32	36840.03
660.46	36711.30
660.60	36676.19
660.74	36374.27
660.89	36402.35
661.03	36334.48
661.17	36554.49
661.32	36271.28
661.46	36371.92
661.60	36116.81
661.74	36051.27
661.89	35962.33
662.03	36126.17
662.17	36292.35
662.31	35929.56
662.46	36479.59
662.60	36580.23
662.74	36107.44
662.88	35835.94
663.03	35735.30
663.17	35730.62
663.31	35695.51
663.45	35777.43
663.60	35648.70
663.74	35271.87
663.88	35393.58
664.02	35634.66
664.17	35522.31
664.31	35070.59
664.45	35131.44
664.59	35367.84
664.73	35274.21
664.88	35342.09
665.02	34696.10
665.16	34660.99
665.30	34576.73
665.44	34845.90
665.59	34639.93
665.73	34944.20
665.87	34539.29
666.01	34991.01
666.15	34646.95
666.29	34843.56
666.44	34794.40
666.58	34380.13
666.72	34663.33
666.86	34274.80
667.00	34314.59
667.14	34457.37
667.28	33830.10
667.43	34389.49
667.57	34316.93
667.71	34235.02
667.85	34134.37
667.99	33912.02
668.13	34007.98
668.27	34085.22
668.41	34120.33
668.56	33879.25
668.70	33715.42
668.84	33476.68
668.98	33556.26
669.12	33996.28
669.26	33624.14
669.40	33493.07
669.54	33319.87
669.68	33331.57
669.82	33277.74
669.96	33020.28
670.10	32856.44
670.25	33539.88
670.39	32879.85
670.53	32601.32
670.67	32905.59
670.81	32823.67
670.95	33235.61
671.09	32685.58
671.23	32896.23
671.37	32652.81
671.51	32404.72
671.65	32496.00
671.79	32385.99
671.93	32070.02
672.07	32437.48
672.21	32070.02
672.35	32034.91
672.49	32067.68
672.63	32271.31
672.77	32570.90
672.91	32280.67
673.05	31817.24
673.19	32119.17
673.33	31775.11
673.47	31791.50
673.61	31648.72
673.75	31248.49
673.89	31061.25
674.03	31248.49
674.17	31498.93
674.31	31218.07
674.45	31426.37
674.59	31250.83
674.73	31431.05
674.87	31257.85
675.01	30703.15
675.15	30551.01
675.29	30834.22
675.43	30897.41
675.56	30869.33
675.70	30649.32
675.84	30312.28
675.98	29523.52
676.12	30403.56
676.26	30419.94
676.40	30206.95
676.54	30162.48
676.68	30253.76
676.82	29591.39
676.96	29900.34
677.10	30162.48
677.23	29923.75
677.37	29879.28
677.51	29977.58
677.65	29273.08
677.79	28793.27
677.93	29120.95
678.07	28716.03
678.21	28486.66
678.34	28851.78
678.48	28601.35
678.62	28650.50
678.76	28514.75
678.90	28563.90
679.04	28517.09
679.18	28889.23
679.31	27967.06
679.45	28084.09
679.59	27882.80
679.73	27723.65
679.87	28229.20
680.00	27828.97
680.14	28027.92
680.28	27999.83
680.42	27552.79
680.56	27592.58
680.70	27274.26
680.83	27679.18
680.97	27398.31
681.11	27218.09
681.25	26953.61
681.39	27014.46
681.52	26855.31
681.66	27234.47
681.80	27119.79
681.94	26829.56
682.07	26670.40
682.21	26321.66
682.35	26419.97
682.49	26628.27
682.62	26295.92
682.76	26174.21
682.90	25905.05
683.04	26141.44
683.17	26335.71
683.31	25734.19
683.45	25844.20
683.59	25724.83
683.72	25565.67
683.86	25605.46
684.00	25535.24
684.13	25186.50
684.27	25528.22
684.41	25240.34
684.55	25032.03
684.68	25032.03
684.82	24690.31
684.96	25151.40
685.09	24580.31
685.23	24694.99
685.37	25027.35
685.50	24833.08
685.64	24514.77
685.78	24301.78
685.91	24489.03
686.05	24098.16
686.19	23791.55
686.32	23370.25
686.46	23506.00
686.60	23330.46
686.73	23150.24
686.87	22939.59
687.01	23159.60
687.14	22895.12
687.28	23288.33
687.42	23267.27
687.55	22869.37
687.69	22892.78
687.82	23075.34
687.96	22855.33
688.10	23115.13
688.23	22471.48
688.37	22295.94
688.50	22773.41
688.64	22237.43
688.78	22625.96
688.91	22340.41
689.05	22036.14
689.18	22101.68
689.32	21965.93
689.46	22132.11
689.59	22319.35
689.73	22230.41
689.86	21621.87
690.00	21682.72
690.13	21703.79
690.27	21364.41
690.41	21638.25
690.54	21341.00
690.68	21434.63
690.81	21174.83
690.95	21310.58
691.08	21057.80
691.22	21436.97
691.35	21081.21
691.49	20908.01
691.62	20758.21
691.76	21259.09
691.89	20458.62
692.03	20662.25
692.16	20769.91
692.30	20114.56
692.43	20081.80
692.57	20088.82
692.70	20367.34
692.84	19955.41
692.97	19768.16
693.11	19995.20
693.24	19480.28
693.38	19653.48
693.51	19845.40
693.65	19892.21
693.78	19433.47
693.92	19351.55
694.05	19330.48
694.19	19264.95
694.32	19136.22
694.45	19307.08
694.59	19012.17
694.72	19082.39
694.86	18934.93
694.99	18569.81
695.13	18588.53
695.26	18590.88
695.39	18829.61
695.53	18588.53
695.66	18757.05
695.80	18485.55
695.93	18614.28
696.07	18427.04
696.20	18284.26
696.33	17947.23
696.47	18249.16
696.60	17954.25
696.73	17797.43
696.87	17741.26
697.00	17640.62
697.14	17575.08
697.27	17635.94
697.40	17418.27
697.54	17224.00
697.67	17153.79
697.80	17128.04
697.94	17137.40
698.07	16795.68
698.21	17158.47
698.34	17142.08
698.47	17177.19
698.61	16886.97
698.74	16821.43
698.87	16655.25
699.01	16718.45
699.14	16154.38
699.27	16163.74
699.40	16470.35
699.54	16273.74
699.67	16187.14
699.80	16093.52
699.94	15915.64
700.07	15915.64
700.20	15917.98
700.34	15936.71
700.47	16276.09
700.60	15866.49
700.73	15829.04
700.87	15749.46
701.00	15815.00
701.13	15372.64
701.26	15342.21
701.40	15374.98
701.53	15161.99
701.66	15286.04
701.79	14979.43
701.93	15007.52
702.06	14747.72
702.19	14831.97
702.32	14876.44
702.46	14672.82
702.59	14906.87
702.72	14822.61
702.85	14792.19
702.99	14775.80
703.12	14916.23
703.25	14237.48
703.38	14274.93
703.51	14443.45
703.65	14225.78
703.78	14155.56
703.91	13935.55
704.04	13958.96
704.17	13991.72
704.31	14017.47
704.44	14092.37
704.57	13874.70
704.70	13760.01
704.83	13792.78
704.96	13453.40
705.10	13554.04
705.23	13556.38
>>>>>End Processed Spectral Data<<<<<
