SpectraSuite Data File
++++++++++++++++++++++++++++++++++++
Date: Fri Oct 25 10:44:23 EDT 2013
User: price-jones
Dark Spectrum Present: No
Reference Spectrum Present: No
Number of Sampled Component Spectra: 1
Spectrometers: USB2+H05261
Integration Time (usec): 100000 (USB2+H05261)
Spectra Averaged: 1 (USB2+H05261)
Boxcar Smoothing: 0 (USB2+H05261)
Correct for Electrical Dark: No (USB2+H05261)
Strobe/Lamp Enabled: No (USB2+H05261)
Correct for Detector Non-linearity: No (USB2+H05261)
Correct for Stray Light: No (USB2+H05261)
Number of Pixels in Processed Spectrum: 2048
>>>>>Begin Processed Spectral Data<<<<<
365.73	135.75
365.92	135.75
366.12	135.75
366.32	23.41
366.52	7.02
366.72	25.75
366.91	49.15
367.11	28.09
367.31	0.00
367.51	0.00
367.70	35.11
367.90	98.30
368.10	60.85
368.30	4.68
368.49	0.00
368.69	77.24
368.89	126.39
369.09	93.62
369.28	44.47
369.48	0.00
369.68	16.38
369.87	60.85
370.07	154.48
370.27	173.20
370.47	227.03
370.66	353.42
370.86	435.34
371.06	400.23
371.25	461.09
371.45	435.34
371.65	524.28
371.84	386.19
372.04	538.32
372.24	507.90
372.44	498.53
372.63	475.13
372.83	535.98
373.03	505.56
373.22	564.07
373.42	517.26
373.62	610.88
373.81	578.11
374.01	575.77
374.21	531.30
374.40	550.03
374.60	627.26
374.79	690.46
374.99	479.81
375.19	550.03
375.38	601.52
375.58	683.44
375.78	653.01
375.97	653.01
376.17	631.94
376.37	631.94
376.56	622.58
376.76	657.69
376.95	601.52
377.15	645.99
377.35	608.54
377.54	681.10
377.74	606.20
377.93	554.71
378.13	578.11
378.33	734.93
378.52	674.07
378.72	662.37
378.91	741.95
379.11	676.41
379.31	716.20
379.50	617.90
379.70	655.35
379.89	727.91
380.09	634.29
380.28	657.69
380.48	765.36
380.68	634.29
380.87	793.44
381.07	760.67
381.26	774.72
381.46	774.72
381.65	641.31
381.85	765.36
382.04	723.23
382.24	741.95
382.43	734.93
382.63	786.42
382.83	653.01
383.02	739.61
383.22	819.19
383.41	704.50
383.61	741.95
383.80	823.87
384.00	819.19
384.19	828.55
384.39	847.27
384.58	741.95
384.78	877.70
384.97	763.01
385.17	713.86
385.36	779.40
385.56	786.42
385.75	821.53
385.95	870.68
386.14	915.15
386.34	866.00
386.53	816.85
386.72	868.34
386.92	877.70
387.11	861.32
387.31	973.66
387.50	896.43
387.70	814.51
387.89	849.61
388.09	816.85
388.28	870.68
388.48	877.70
388.67	884.72
388.86	994.73
389.06	917.49
389.25	1020.47
389.45	954.94
389.64	957.28
389.84	950.26
390.03	997.07
390.22	978.34
390.42	1001.75
390.61	1013.45
390.81	1111.75
391.00	1034.52
391.19	1109.41
391.39	1123.46
391.58	1076.65
391.78	1053.24
391.97	1074.31
392.16	1086.01
392.36	1055.58
392.55	1083.67
392.75	1078.99
392.94	1048.56
393.13	1008.77
393.33	1050.90
393.52	1071.97
393.71	1128.14
393.91	1219.42
394.10	1135.16
394.29	1149.20
394.49	1191.33
394.68	1221.76
394.88	1212.40
395.07	1329.42
395.26	1343.47
395.46	1277.93
395.65	1284.95
395.84	1212.40
396.04	1282.61
396.23	1315.38
396.42	1165.59
396.62	1217.08
396.81	1270.91
397.00	1282.61
397.19	1341.13
397.39	1280.27
397.58	1430.07
397.77	1306.02
397.97	1387.94
398.16	1451.13
398.35	1469.86
398.55	1511.99
398.74	1575.18
398.93	1589.22
399.12	1533.05
399.32	1486.24
399.51	1460.49
399.70	1647.74
399.90	1584.54
400.09	1710.93
400.28	1593.90
400.47	1727.32
400.67	1678.16
400.86	1689.87
401.05	1741.36
401.24	1736.68
401.44	1790.51
401.63	1834.98
401.82	1727.32
402.01	1750.72
402.21	1809.23
402.40	1767.10
402.59	1834.98
402.78	1802.21
402.97	1818.60
403.17	1830.30
403.36	1842.00
403.55	1813.92
403.74	1916.90
403.93	1895.83
404.13	1937.96
404.32	1984.77
404.51	1935.62
404.70	1954.35
404.89	1893.49
405.09	1987.11
405.28	2040.95
405.47	2064.35
405.66	2057.33
405.85	1987.11
406.05	2043.29
406.24	1952.01
406.43	2059.67
406.62	2202.44
406.81	2169.68
407.00	2106.48
407.20	2050.31
407.39	2188.40
407.58	2200.10
407.77	2267.98
407.96	2317.13
408.15	2153.29
408.34	2286.70
408.54	2359.26
408.73	2333.51
408.92	2319.47
409.11	2408.41
409.30	2394.37
409.49	2352.24
409.68	2221.17
409.87	2347.56
410.07	2298.41
410.26	2431.82
410.45	2443.52
410.64	2567.57
410.83	2579.27
411.02	2626.08
411.21	2733.75
411.40	2775.88
411.59	2733.75
411.78	2640.12
411.98	2675.23
412.17	2708.00
412.36	2651.83
412.55	2621.40
412.74	2787.58
412.93	2855.45
413.12	2860.13
413.31	2979.50
413.50	2881.20
413.69	2949.08
413.88	2995.89
414.07	2963.12
414.26	3084.83
414.45	3164.40
414.64	3033.33
414.83	3082.49
415.02	3063.76
415.22	3297.81
415.41	3272.07
415.60	3368.03
415.79	3243.98
415.98	3262.71
416.17	3414.84
416.36	3279.09
416.55	3363.35
416.74	3302.50
416.93	3419.52
417.12	3363.35
417.31	3424.20
417.50	3456.97
417.69	3566.98
417.88	3590.38
418.07	3499.10
418.26	3487.40
418.45	3496.76
418.64	3686.34
418.83	3550.59
419.02	3686.34
419.21	3770.60
419.39	3812.73
419.58	3538.89
419.77	3620.81
419.96	3705.07
420.15	3808.05
420.34	3843.16
420.53	3847.84
420.72	3990.61
420.91	3964.87
421.10	3894.65
421.29	4037.42
421.48	3803.37
421.67	4044.45
421.86	3901.67
422.05	3843.16
422.24	3896.99
422.43	3805.71
422.61	4007.00
422.80	4046.79
422.99	3997.64
423.18	4046.79
423.37	4133.39
423.56	4018.70
423.75	4011.68
423.94	4023.38
424.13	3794.01
424.32	3786.99
424.50	4070.19
424.69	4028.06
424.88	4135.73
425.07	3978.91
425.26	4091.26
425.45	3899.33
425.64	4009.34
425.83	4046.79
426.01	3964.87
426.20	4102.96
426.39	4049.13
426.58	4074.87
426.77	4124.02
426.96	4093.60
427.15	4070.19
427.33	4297.22
427.52	4280.84
427.71	4131.05
427.90	4142.75
428.09	4315.95
428.28	4255.09
428.46	4280.84
428.65	4231.69
428.84	4395.53
429.03	4397.87
429.22	4107.64
429.40	4224.67
429.59	4189.56
429.78	4042.11
429.97	4023.38
430.16	4044.45
430.34	4266.80
430.53	4152.11
430.72	4215.30
430.91	4285.52
431.10	4393.19
431.28	4809.80
431.47	4748.95
431.66	4634.26
431.85	4486.81
432.03	4648.30
432.22	4830.87
432.41	4671.71
432.60	4865.97
432.79	4800.44
432.97	4896.40
433.16	4915.12
433.35	4727.88
433.54	4657.67
433.72	4610.86
433.91	4826.18
434.10	4863.63
434.28	4828.53
434.47	4919.81
434.66	4952.57
434.85	5074.28
435.03	5249.82
435.22	4933.85
435.41	5355.15
435.59	5158.54
435.78	5114.07
435.97	5341.10
436.16	5373.87
436.34	5350.46
436.53	5252.16
436.72	5446.43
436.90	5132.79
437.09	5324.72
437.28	5284.93
437.46	5217.05
437.65	5441.75
437.84	5228.76
438.02	5320.04
438.21	5394.93
438.40	5303.65
438.58	5518.98
438.77	5399.62
438.96	5514.30
439.14	5572.82
439.33	5818.57
439.52	5724.95
439.70	5930.92
439.89	5963.68
440.08	5851.34
440.26	5781.12
440.45	5907.51
440.63	6099.44
440.82	6228.17
441.01	6113.48
441.19	6157.95
441.38	6263.27
441.57	6303.06
441.75	6263.27
441.94	6258.59
442.12	6534.78
442.31	6478.60
442.50	6459.88
442.68	6476.26
442.87	6504.35
443.05	6562.86
443.24	6693.93
443.43	6752.45
443.61	6686.91
443.80	6745.42
443.98	6527.75
444.17	6354.55
444.35	6663.51
444.54	6913.94
444.73	6775.85
444.91	6619.04
445.10	6469.24
445.28	6789.89
445.47	6466.90
445.65	6546.48
445.84	6789.89
446.02	6778.19
446.21	6614.35
446.39	6719.68
446.58	6806.28
446.77	6813.30
446.95	6675.21
447.14	6927.99
447.32	6939.69
447.51	6944.37
447.69	6700.95
447.88	6927.99
448.06	6956.07
448.25	7014.59
448.43	7019.27
448.62	7019.27
448.80	6712.66
448.99	6857.77
449.17	6897.56
449.36	6991.18
449.54	7201.83
449.73	7115.23
449.91	7253.32
450.10	7140.97
450.28	7222.89
450.46	7529.50
450.65	7391.41
450.83	7386.73
451.02	7398.43
451.20	7370.35
451.39	7562.27
451.57	7267.36
451.76	7368.01
451.94	7419.50
452.13	7499.08
452.31	7449.93
452.49	7250.98
452.68	7405.46
452.86	7370.35
453.05	7405.46
453.23	7588.02
453.42	7501.42
453.60	7470.99
453.78	7712.07
453.97	7592.70
454.15	7372.69
454.34	7534.18
454.52	7679.30
454.70	7513.12
454.89	7747.17
455.07	7866.54
455.26	7726.11
455.44	8077.19
455.62	8023.36
455.81	7920.37
455.99	7953.14
456.17	8152.09
456.36	7964.84
456.54	8219.96
456.73	8194.22
456.91	8243.37
457.09	8226.98
457.28	8374.44
457.46	8238.69
457.64	8435.29
457.83	8255.07
458.01	8264.43
458.19	8437.63
458.38	8463.38
458.56	8486.78
458.74	8477.42
458.93	8648.28
459.11	8500.83
459.29	8566.36
459.48	8662.32
459.66	8489.12
459.84	8879.99
460.03	8772.33
460.21	8720.84
460.39	8819.14
460.57	8777.01
460.76	8908.08
460.94	8835.52
461.12	8947.87
461.31	8975.95
461.49	8784.03
461.67	8917.44
461.85	9291.93
462.04	9088.30
462.22	9205.33
462.40	9263.84
462.59	9179.58
462.77	8929.14
462.95	9202.99
463.13	9240.44
463.32	9240.44
463.50	9121.07
463.68	9280.22
463.86	9167.88
464.05	9078.94
464.23	9310.65
464.41	9336.40
464.59	9116.39
464.78	9317.67
464.96	9130.43
465.14	9104.68
465.32	9521.30
465.50	9731.95
465.69	9589.17
465.87	9472.15
466.05	9226.39
466.23	9366.82
466.41	9404.27
466.60	9809.19
466.78	9317.67
466.96	9511.94
467.14	9427.68
467.32	9544.70
467.51	9834.93
467.69	9621.94
467.87	9589.17
468.05	9825.57
468.23	9603.22
468.41	9568.11
468.60	9743.65
468.78	9731.95
468.96	9750.67
469.14	10029.20
469.32	10052.60
469.50	9544.70
469.69	10029.20
469.87	10279.63
470.05	9956.64
470.23	9975.36
470.41	10167.29
470.59	10101.75
470.77	9923.87
470.95	10162.61
471.14	10534.75
471.32	10157.92
471.50	10490.28
471.68	10588.58
471.86	10633.05
472.04	10656.46
472.22	10574.54
472.40	10422.41
472.58	10761.78
472.77	10654.12
472.95	11091.80
473.13	11145.63
473.31	10665.82
473.49	10775.83
473.67	10623.69
473.85	10949.03
474.03	11276.70
474.21	11316.49
474.39	11468.62
474.57	11592.67
474.75	11597.35
474.93	11644.17
475.12	11559.91
475.30	11534.16
475.48	11550.54
475.66	11463.94
475.84	11485.01
476.02	11775.24
476.20	11618.42
476.38	11941.41
476.56	12280.79
476.74	12217.60
476.92	12133.34
477.10	12388.46
477.28	12554.63
477.46	12311.22
477.64	12404.84
477.82	12828.48
478.00	12936.14
478.18	13004.02
478.36	12725.49
478.54	12971.25
478.72	13050.83
478.90	13256.79
479.08	13385.52
479.26	13408.93
479.44	13575.11
479.62	13521.27
479.80	13523.62
479.98	13841.93
480.16	14038.53
480.34	13668.73
480.52	14162.58
480.70	14047.90
480.88	14249.18
481.06	14087.68
481.24	14382.59
481.41	14803.89
481.59	14923.26
481.77	14946.66
481.95	14675.16
482.13	14967.73
482.31	15082.41
482.49	15227.53
482.67	15171.35
482.85	15328.17
483.03	15719.04
483.21	15662.86
483.39	15805.64
483.57	15445.20
483.74	15899.26
483.92	16397.79
484.10	15960.11
484.28	16198.85
484.46	16573.33
484.64	16713.77
484.82	16367.37
485.00	16718.45
485.18	16891.65
485.35	16931.44
485.53	16690.36
485.71	16606.10
485.89	16833.13
486.07	16819.09
486.25	17186.55
486.43	17343.37
486.61	17420.61
486.78	17680.41
486.96	17654.66
487.14	17994.04
487.32	18195.32
487.50	18342.78
487.68	18565.13
487.85	18630.66
488.03	18635.35
488.21	18960.68
488.39	18981.74
488.57	19126.86
488.75	19176.01
488.92	19594.96
489.10	19889.87
489.28	19922.64
489.46	20271.38
489.64	20299.47
489.81	20798.00
489.99	20381.38
490.17	20549.90
490.35	20849.49
490.53	20741.83
490.70	20926.73
490.88	20863.54
491.06	21284.83
491.24	21425.26
491.41	20896.30
491.59	21209.93
491.77	20903.32
491.95	21511.86
492.13	21867.63
492.30	22108.70
492.48	22146.15
492.66	22401.27
492.84	22501.91
493.01	22714.90
493.19	22377.86
493.37	22593.19
493.54	22794.48
493.72	23056.62
493.90	23009.81
494.08	23445.15
494.25	23697.92
494.43	23854.74
494.61	23819.63
494.79	23819.63
494.96	23964.75
495.14	24030.28
495.32	24151.99
495.49	24315.83
495.67	24226.89
495.85	24795.64
496.02	24655.20
496.20	24875.21
496.38	24898.62
496.55	25209.91
496.73	25865.26
496.91	25404.17
497.09	25851.22
497.26	25488.43
497.44	25296.51
497.62	25724.83
497.79	25839.51
497.97	25982.29
498.14	25832.49
498.32	26471.46
498.50	26176.55
498.67	26462.10
498.85	26768.71
499.03	26672.74
499.20	26579.12
499.38	26560.40
499.56	26946.59
499.73	27047.23
499.91	27180.64
500.08	27395.97
500.26	26977.01
500.44	27042.55
500.61	27206.39
500.79	27513.00
500.97	27124.47
501.14	27503.64
501.32	27545.76
501.49	28105.15
501.67	27683.86
501.84	27571.51
502.02	27861.74
502.20	28224.52
502.37	28390.70
502.55	28472.62
502.72	28664.54
502.90	28891.57
503.07	28652.84
503.25	29041.37
503.43	28687.95
503.60	28425.81
503.78	28575.60
503.95	29034.35
504.13	29078.82
504.30	29270.74
504.48	29497.77
504.65	29745.87
504.83	29731.83
505.01	29844.17
505.18	29783.32
505.36	30340.36
505.53	30204.61
505.71	30221.00
505.88	30441.01
506.06	29989.28
506.23	30213.98
506.41	29762.25
506.58	30174.19
506.76	30733.57
506.93	30775.70
507.11	30513.56
507.28	31101.04
507.46	30455.05
507.63	30895.07
507.81	30974.65
507.98	30740.60
508.16	30810.81
508.33	31098.70
508.50	31744.69
508.68	31777.45
508.85	31728.30
509.03	31426.37
509.20	31590.21
509.38	31936.61
509.55	32116.83
509.73	31960.02
509.90	32177.68
510.08	32123.85
510.25	32130.87
510.42	32280.67
510.60	32428.12
510.77	32439.82
510.95	32868.14
511.12	32119.17
511.30	32914.95
511.47	33020.28
511.64	32725.37
511.82	33347.95
511.99	33158.37
512.17	32631.75
512.34	33123.26
512.51	33184.12
512.69	33787.97
512.86	33111.56
513.04	33656.90
513.21	33390.08
513.38	33546.90
513.56	33715.42
513.73	33244.97
513.90	33848.83
514.08	33780.95
514.25	33958.83
514.43	33972.88
514.60	33759.89
514.77	33986.92
514.95	34443.32
515.12	34162.46
515.29	34122.67
515.47	34424.60
515.64	34934.84
515.81	34457.37
515.99	34581.42
516.16	34497.16
516.33	34134.37
516.51	34340.34
516.68	33574.98
516.85	33766.91
517.03	33881.60
517.20	34635.25
517.37	34881.00
517.54	35330.39
517.72	35269.53
517.89	34789.72
518.06	34478.43
518.24	34469.07
518.41	34888.03
518.58	35196.98
518.75	35145.48
518.93	35529.33
519.10	35388.90
519.27	36156.60
519.45	35765.73
519.62	35653.38
519.79	35866.37
519.96	36062.97
520.14	36313.41
520.31	35903.82
520.48	36442.14
520.65	36112.13
520.83	36662.15
521.00	36900.89
521.17	36250.22
521.34	36472.57
521.52	37212.18
521.69	36664.49
521.86	36863.44
522.03	36947.70
522.20	36882.16
522.38	36837.69
522.55	37088.13
522.72	37118.56
522.89	36996.85
523.07	37008.55
523.24	37202.82
523.41	37736.46
523.58	37528.15
523.75	38012.64
523.92	37926.04
524.10	37640.50
524.27	37937.74
524.44	38202.22
524.61	37930.72
524.78	38106.26
524.96	38738.21
525.13	38223.29
525.30	38548.62
525.47	38721.82
525.64	38597.77
525.81	38726.50
525.98	38469.04
526.16	38143.71
526.33	38323.93
526.50	38366.06
526.67	38136.69
526.84	38047.75
527.01	38000.94
527.18	38396.49
527.36	38630.54
527.53	39421.64
527.70	39175.89
527.87	38885.66
528.04	38550.96
528.21	39000.35
528.38	39091.63
528.55	39419.30
528.72	39672.08
528.89	39971.67
529.07	39643.99
529.24	39292.91
529.41	39622.93
529.58	39400.58
529.75	39725.91
529.92	39845.28
530.09	39807.83
530.26	40212.74
530.43	40458.50
530.60	39814.85
530.77	39929.54
530.94	40226.79
531.11	39941.24
531.28	40179.98
531.46	40128.48
531.63	40627.02
531.80	40109.76
531.97	40355.52
532.14	40320.41
532.31	40076.99
532.48	40191.68
532.65	40444.46
532.82	40584.89
532.99	40725.32
533.16	40797.88
533.33	40666.81
533.50	40540.42
533.67	40601.27
533.84	40493.61
534.01	40940.65
534.18	40725.32
534.35	40942.99
534.52	41092.79
534.69	40865.75
534.86	41436.84
535.03	41401.74
535.20	41493.02
535.37	41886.23
535.54	41694.30
535.71	41968.15
535.88	41631.11
536.05	41441.53
536.22	41186.41
536.38	41968.15
536.55	41329.18
536.72	41289.39
536.89	41174.70
537.06	41495.36
537.23	41610.04
537.40	41818.35
537.57	41720.05
537.74	41787.92
537.91	41869.84
538.08	42204.54
538.25	41860.48
538.42	41977.51
538.59	42293.48
538.75	42045.38
538.92	41956.44
539.09	41996.23
539.26	42342.63
539.43	41991.55
539.60	42651.58
539.77	41720.05
539.94	42148.37
540.11	42174.11
540.28	42218.58
540.44	42632.86
540.61	41940.06
540.78	42361.36
540.95	42424.55
541.12	42183.48
541.29	41977.51
541.46	42621.16
541.62	42408.17
541.79	42813.08
541.96	42108.58
542.13	42850.53
542.30	42356.67
542.47	43002.66
542.63	42724.14
542.80	43187.56
542.97	43349.06
543.14	43658.01
543.31	43274.16
543.48	43206.29
543.64	43805.47
543.81	44065.27
543.98	43519.92
544.15	43501.20
544.32	43386.51
544.48	44098.03
544.65	43784.40
544.82	43615.88
544.99	43304.59
545.16	43725.89
545.32	43840.57
545.49	44048.88
545.66	44030.16
545.83	44402.30
546.00	44203.36
546.16	44175.27
546.33	43365.45
546.50	43346.72
546.67	44044.20
546.83	43735.25
547.00	44004.41
547.17	43732.91
547.34	43772.70
547.50	44212.72
547.67	44231.44
547.84	44320.38
548.00	44140.16
548.17	44467.84
548.34	44854.03
548.51	44676.15
548.67	44617.63
548.84	44275.91
549.01	44657.42
549.18	44177.61
549.34	44327.41
549.51	44566.14
549.68	44666.78
549.84	44786.15
550.01	44762.75
550.18	44444.43
550.34	44582.52
550.51	44484.22
550.68	44509.97
550.84	44058.24
551.01	44800.19
551.18	44453.79
551.34	44861.05
551.51	44905.52
551.68	45256.60
551.84	44729.98
552.01	44715.93
552.18	44942.97
552.34	44715.93
552.51	45050.63
552.68	44629.34
552.84	45172.34
553.01	45537.46
553.18	45340.86
553.34	45291.71
553.51	44861.05
553.67	45275.32
553.84	45200.43
554.01	45336.18
554.17	45567.89
554.34	45228.51
554.51	45591.30
554.67	45439.16
554.84	45123.19
555.00	44823.60
555.17	45116.17
555.33	45518.74
555.50	45455.54
555.67	45420.44
555.83	45530.44
556.00	45441.50
556.16	46178.77
556.33	45563.21
556.50	45691.94
556.66	45432.14
556.83	45223.83
556.99	46052.38
557.16	46260.69
557.32	45785.56
557.49	45830.03
557.65	45322.13
557.82	45811.31
557.98	45897.91
558.15	45560.87
558.32	45771.52
558.48	45474.27
558.65	45361.92
558.81	45415.76
558.98	45516.40
559.14	45996.21
559.31	45649.81
559.47	45743.43
559.64	46424.53
559.80	46253.67
559.97	46010.25
560.13	45956.42
560.30	45668.53
560.46	46007.91
560.63	46087.49
560.79	46263.03
560.96	46031.32
561.12	45764.49
561.29	46284.09
561.45	45975.14
561.61	45961.10
561.78	45621.72
561.94	46108.55
562.11	46101.53
562.27	46059.40
562.44	46312.18
562.60	46391.76
562.77	46078.13
562.93	46412.82
563.10	46403.46
563.26	46075.79
563.42	46256.01
563.59	45991.53
563.75	46007.91
563.92	46508.79
564.08	46157.70
564.24	46391.76
564.41	46504.10
564.57	45998.55
564.74	46674.96
564.90	46438.57
565.07	46028.98
565.23	46469.00
565.39	46115.58
565.56	46492.40
565.72	46157.70
565.88	46225.58
566.05	46089.83
566.21	46478.36
566.38	46321.54
566.54	46204.52
566.70	46436.23
566.87	46857.52
567.03	46637.51
567.19	47189.88
567.36	46752.20
567.52	46560.28
567.68	46511.13
567.85	46349.63
568.01	46904.34
568.17	46131.96
568.34	46326.22
568.50	46571.98
568.66	46321.54
568.83	46424.53
568.99	46440.91
569.15	46466.66
569.32	46373.03
569.48	46787.31
569.64	46787.31
569.81	46733.48
569.97	46555.60
570.13	46775.61
570.30	46401.12
570.46	46225.58
570.62	46043.02
570.78	46623.47
570.95	46518.15
571.11	46415.16
571.27	46368.35
571.43	46614.11
571.60	46536.87
571.76	46309.84
571.92	46665.60
572.09	46834.12
572.25	46969.87
572.41	46047.70
572.57	46932.42
572.74	47035.41
572.90	46656.24
573.06	46864.55
573.22	46717.09
573.38	46822.42
573.55	46478.36
573.71	47063.49
573.87	46731.14
574.03	46422.19
574.20	46679.64
574.36	46958.17
574.52	46717.09
574.68	46958.17
574.84	46700.71
575.01	46335.59
575.17	46845.82
575.33	46670.28
575.49	46452.61
575.65	46447.93
575.82	46628.15
575.98	46796.67
576.14	46873.91
576.30	46667.94
576.46	46782.63
576.62	46831.78
576.79	46777.95
576.95	46363.67
577.11	46717.09
577.27	46691.35
577.43	46485.38
577.59	46799.01
577.75	46576.66
577.92	45869.82
578.08	46120.26
578.24	46749.86
578.40	46260.69
578.56	46902.00
578.72	46665.60
578.88	46852.84
579.04	46724.11
579.21	46876.25
579.37	47079.88
579.53	46635.17
579.69	46616.45
579.85	47084.56
580.01	46843.48
580.17	46791.99
580.33	47229.67
580.49	46815.40
580.65	47210.95
580.82	46742.84
580.98	46880.93
581.14	46501.76
581.30	47515.22
581.46	47208.61
581.62	46834.12
581.78	46635.17
581.94	46951.15
582.10	46960.51
582.26	46628.15
582.42	46674.96
582.58	46941.78
582.74	46670.28
582.90	47201.58
583.06	47194.56
583.22	46883.27
583.38	47400.53
583.54	46873.91
583.70	47206.26
583.86	46555.60
584.02	46546.23
584.18	46890.29
584.34	47210.95
584.50	46731.14
584.66	46628.15
584.82	46663.26
584.98	47000.30
585.14	46817.74
585.30	46808.37
585.46	46644.54
585.62	46923.06
585.78	46803.69
585.94	46646.88
586.10	47079.88
586.26	46738.16
586.42	47077.54
586.58	46766.24
586.74	46848.16
586.90	47033.07
587.06	46630.49
587.22	47014.34
587.38	46429.21
587.54	47021.36
587.70	46897.31
587.86	46918.38
588.02	46703.05
588.18	46763.90
588.34	47117.32
588.49	46377.72
588.65	45930.67
588.81	46256.01
588.97	46415.16
589.13	46087.49
589.29	46452.61
589.45	46674.96
589.61	46890.29
589.77	46897.31
589.93	46784.97
590.08	47112.64
590.24	47058.81
590.40	47033.07
590.56	46822.42
590.72	46799.01
590.88	46925.40
591.04	46801.35
591.20	47564.37
591.35	46740.50
591.51	47012.00
591.67	46733.48
591.83	46845.82
591.99	46646.88
592.15	46923.06
592.31	46866.89
592.46	46967.53
592.62	46323.88
592.78	47255.42
592.94	47103.28
593.10	46564.96
593.26	47332.65
593.41	46808.37
593.57	46600.07
593.73	46883.27
593.89	47103.28
594.05	46995.62
594.20	46988.60
594.36	46616.45
594.52	47224.99
594.68	46838.80
594.84	46550.91
594.99	47435.64
595.15	46925.40
595.31	46948.81
595.47	46916.04
595.62	46941.78
595.78	47004.98
595.94	47533.94
596.10	47079.88
596.25	47269.46
596.41	47288.18
596.57	46986.25
596.73	47086.90
596.88	46829.44
597.04	47196.90
597.20	47264.78
597.36	47178.18
597.51	47093.92
597.67	46988.60
597.83	47145.41
597.99	47269.46
598.14	47297.55
598.30	46848.16
598.46	47271.80
598.61	47070.51
598.77	46717.09
598.93	47140.73
599.09	47217.97
599.24	47662.67
599.40	47337.33
599.56	47210.95
599.71	46796.67
599.87	47133.71
600.03	46909.02
600.18	46937.10
600.34	46649.22
600.50	46897.31
600.65	46883.27
600.81	47107.96
600.97	47416.91
601.12	47264.78
601.28	47103.28
601.44	47133.71
601.59	47056.47
601.75	46817.74
601.91	46787.31
602.06	46801.35
602.22	46686.67
602.37	46930.08
602.53	46897.31
602.69	47426.28
602.84	46932.42
603.00	46876.25
603.16	46796.67
603.31	46951.15
603.47	46806.03
603.62	46866.89
603.78	47428.62
603.94	47175.84
604.09	47428.62
604.25	47143.07
604.40	46909.02
604.56	47114.98
604.71	46946.47
604.87	46747.52
605.03	47063.49
605.18	46649.22
605.34	47386.49
605.49	46789.65
605.65	46955.83
605.80	47009.66
605.96	47124.35
606.12	46813.05
606.27	47166.48
606.43	46555.60
606.58	46988.60
606.74	46267.71
606.89	46677.30
607.05	47049.45
607.20	46813.05
607.36	46808.37
607.51	46700.71
607.67	46454.95
607.82	46745.18
607.98	46232.60
608.13	46534.53
608.29	46632.83
608.44	46007.91
608.60	46138.98
608.75	46637.51
608.91	46522.83
609.06	46284.09
609.22	46466.66
609.37	46031.32
609.53	46335.59
609.68	46452.61
609.84	46302.82
609.99	46330.90
610.15	46211.54
610.30	46160.05
610.46	46300.48
610.61	45918.97
610.76	46328.56
610.92	46574.32
611.07	46597.73
611.23	46277.07
611.38	46382.40
611.54	46220.90
611.69	46071.10
611.84	45603.00
612.00	46101.53
612.15	45797.26
612.31	46075.79
612.46	45783.22
612.62	46113.23
612.77	46206.86
612.92	46270.05
613.08	45771.52
613.23	46202.18
613.39	45872.16
613.54	45560.87
613.69	45968.12
613.85	46024.29
614.00	45902.59
614.15	45762.15
614.31	46064.08
614.46	46183.45
614.62	45635.77
614.77	46260.69
614.92	46019.61
615.08	45705.98
615.23	45544.48
615.38	45581.93
615.54	45439.16
615.69	45853.44
615.84	45237.87
616.00	45603.00
616.15	45710.66
616.30	45544.48
616.46	45558.53
616.61	45235.53
616.76	45219.15
616.92	44849.35
617.07	44978.07
617.22	45090.42
617.37	45017.86
617.53	45621.72
617.68	45558.53
617.83	45617.04
617.99	45439.16
618.14	45427.46
618.29	45483.63
618.45	44641.04
618.60	44949.99
618.75	45230.85
618.90	45008.50
619.06	45446.18
619.21	45167.66
619.36	45677.90
619.51	45020.20
619.67	45099.78
619.82	45352.56
619.97	45567.89
620.12	44879.77
620.28	44435.07
620.43	44872.75
620.58	45010.84
620.73	44896.16
620.89	44512.31
621.04	44987.44
621.19	44914.88
621.34	44978.07
621.49	44348.47
621.65	44514.65
621.80	44851.69
621.95	44395.28
622.10	44320.38
622.25	44079.31
622.41	44240.81
622.56	44296.98
622.71	44524.01
622.86	44109.74
623.01	44189.31
623.16	43852.28
623.32	44158.89
623.47	44016.11
623.62	44254.85
623.77	43971.64
623.92	44074.63
624.07	44594.23
624.23	43859.30
624.38	44182.29
624.53	43934.20
624.68	44025.48
624.83	43786.74
624.98	44107.40
625.13	43882.70
625.29	43971.64
625.44	44116.76
625.59	43597.16
625.74	43461.41
625.89	43363.11
626.04	43611.20
626.19	43636.95
626.34	43730.57
626.49	43686.10
626.65	44194.00
626.80	44098.03
626.95	43735.25
627.10	43566.73
627.25	43690.78
627.40	43257.78
627.55	43302.25
627.70	42946.49
627.85	43323.32
628.00	42787.33
628.15	43688.44
628.30	43042.45
628.45	43255.44
628.60	43271.82
628.76	43384.17
628.91	43566.73
629.06	43363.11
629.21	42754.57
629.36	43257.78
629.51	42862.23
629.66	42642.22
629.81	42717.12
629.96	42426.89
630.11	42677.33
630.26	43419.28
630.41	43236.72
630.56	42941.81
630.71	43112.67
630.86	42724.14
631.01	42630.52
631.16	42990.96
631.31	42541.58
631.46	42157.73
631.61	42703.07
631.76	42169.43
631.91	42873.93
632.06	42923.08
632.21	42993.30
632.36	42841.17
632.51	42319.23
632.66	42452.64
632.81	42443.27
632.96	42380.08
633.10	42307.52
633.25	41979.85
633.40	42682.01
633.55	42422.21
633.70	42462.00
633.85	42251.35
634.00	42574.34
634.15	42419.87
634.30	42064.11
634.45	42799.04
634.60	42246.67
634.75	42480.72
634.90	42349.65
635.05	42101.56
635.19	41696.64
635.34	42075.81
635.49	42162.41
635.64	41600.68
635.79	41900.27
635.94	41923.68
636.09	42071.13
636.24	41242.58
636.39	41434.50
636.53	41434.50
636.68	41478.97
636.83	41872.18
636.98	41977.51
637.13	41586.64
637.28	41937.72
637.43	41846.44
637.57	41914.31
637.72	41750.48
637.87	41193.43
638.02	41698.98
638.17	41930.70
638.32	41727.07
638.46	41055.34
638.61	41450.89
638.76	41521.10
638.91	41247.26
639.06	41474.29
639.20	41448.55
639.35	41659.20
639.50	41406.42
639.65	41371.31
639.80	41837.08
639.94	41205.13
640.09	41258.96
640.24	41076.40
640.39	41228.54
640.54	41177.04
640.68	41219.17
640.83	41111.51
640.98	40767.45
641.13	40460.84
641.27	41284.71
641.42	40868.09
641.57	40877.46
641.72	41130.23
641.86	40547.44
642.01	40914.90
642.16	40758.09
642.31	40919.59
642.45	40802.56
642.60	40524.04
642.75	40629.36
642.90	40898.52
643.04	40449.14
643.19	40486.59
643.34	40224.45
643.48	40002.10
643.63	40226.79
643.78	40135.51
643.93	40156.57
644.07	40191.68
644.22	40346.15
644.37	39964.65
644.51	40172.96
644.66	40329.77
644.81	40107.42
644.95	40662.13
645.10	40589.57
645.25	40275.94
645.39	40449.14
645.54	40112.10
645.69	40313.39
645.83	39885.07
645.98	40250.19
646.13	40285.30
646.27	40037.20
646.42	40205.72
646.57	39974.01
646.71	40140.19
646.86	40137.85
647.00	39800.81
647.15	40102.74
647.30	40004.44
647.44	39955.29
647.59	39892.09
647.74	39737.62
647.88	39828.90
648.03	39746.98
648.17	39524.63
648.32	39271.85
648.47	40004.44
648.61	39346.75
648.76	39941.24
648.90	39620.59
649.05	39140.78
649.20	39676.76
649.34	39510.58
649.49	39358.45
649.63	38916.09
649.78	39367.81
649.92	39255.46
650.07	39964.65
650.21	39210.99
650.36	39470.79
650.51	39210.99
650.65	39739.96
650.80	39756.34
650.94	39084.61
651.09	39363.13
651.23	39304.62
651.38	38913.75
651.52	39281.21
651.67	39185.25
651.81	38728.84
651.96	38717.14
652.10	38728.84
652.25	38934.81
652.39	39136.10
652.54	38913.75
652.68	39288.23
652.83	39210.99
652.97	39622.93
653.12	39063.54
653.26	38845.87
653.41	38646.93
653.55	38419.89
653.70	38469.04
653.84	38281.80
653.99	38794.38
654.13	39147.80
654.27	38763.95
654.42	38600.12
654.56	38263.08
654.71	38597.77
654.85	38445.64
655.00	38225.63
655.14	38352.02
655.29	38216.27
655.43	38160.09
655.57	38007.96
655.72	38225.63
655.86	37975.19
656.01	37624.11
656.15	37813.70
656.30	37895.61
656.44	37902.64
656.58	37881.57
656.73	37904.98
656.87	38176.48
657.01	38036.05
657.16	38321.59
657.30	37745.82
657.45	37429.85
657.59	37926.04
657.73	37979.87
657.88	38312.23
658.02	38211.59
658.16	37956.47
658.31	37897.95
658.45	37696.67
658.60	38087.54
658.74	37787.95
658.88	37902.64
659.03	37439.21
659.17	37340.91
659.31	37457.93
659.46	37490.70
659.60	37570.28
659.74	37556.24
659.89	37291.76
660.03	37251.97
660.17	37504.74
660.32	37095.15
660.46	37280.05
660.60	37188.77
660.74	36823.65
660.89	37085.79
661.03	36568.53
661.17	36409.37
661.32	36905.57
661.46	36467.89
661.60	36900.89
661.74	36493.63
661.89	36507.68
662.03	36994.51
662.17	36196.38
662.31	36151.91
662.46	36531.08
662.60	36641.09
662.74	36624.70
662.88	36030.21
663.03	36025.53
663.17	36180.00
663.31	35730.62
663.45	35681.47
663.60	36189.36
663.74	36077.02
663.88	35716.58
664.02	35805.52
664.17	36264.26
664.31	35800.83
664.45	35866.37
664.59	35833.60
664.73	35908.50
664.88	35831.26
665.02	35042.50
665.16	35503.59
665.30	35421.67
665.44	35356.13
665.59	35367.84
665.73	35204.00
665.87	34979.31
666.01	35292.94
666.15	35211.02
666.29	35103.35
666.44	35093.99
666.58	35236.77
666.72	34745.25
666.86	35316.34
667.00	35477.84
667.14	34305.23
667.28	34174.16
667.43	34298.21
667.57	34588.44
667.71	34373.11
667.85	34796.74
667.99	34782.70
668.13	33968.19
668.27	34689.08
668.41	34490.13
668.56	34422.26
668.70	34232.68
668.84	34150.76
668.98	34012.66
669.12	33741.16
669.26	33921.38
669.40	33303.48
669.54	33701.37
669.68	34141.39
669.82	33823.08
669.96	33432.21
670.10	33516.47
670.25	33661.58
670.39	33567.96
670.53	33497.75
670.67	33572.64
670.81	33062.41
670.95	33399.44
671.09	33134.96
671.23	33249.65
671.37	33535.20
671.51	32982.83
671.65	32697.28
671.79	32739.41
671.93	32708.99
672.07	33041.34
672.21	33139.65
672.35	32851.76
672.49	32814.31
672.63	33031.98
672.77	32788.56
672.91	32774.52
673.05	32308.76
673.19	32245.56
673.33	31992.78
673.47	32093.43
673.61	31929.59
673.75	31782.13
673.89	31519.99
674.03	31704.90
674.17	31892.14
674.31	32149.60
674.45	31442.76
674.59	31651.06
674.73	31871.07
674.87	31435.74
675.01	31601.91
675.15	31484.89
675.29	31260.20
675.43	31138.49
675.56	31346.79
675.70	30841.24
675.84	30976.99
675.98	29923.75
676.12	31094.02
676.26	31166.57
676.40	30656.34
676.54	30869.33
676.68	30838.90
676.82	30153.12
676.96	30246.74
677.10	30529.95
677.23	30228.02
677.37	30405.90
677.51	29790.34
677.65	29748.21
677.79	29659.27
677.93	29785.66
678.07	29677.99
678.21	29177.12
678.34	28964.13
678.48	28959.45
678.62	28797.95
678.76	29113.92
678.90	28952.43
679.04	28910.30
679.18	28891.57
679.31	28776.89
679.45	28400.06
679.59	28254.95
679.73	28264.31
679.87	28325.16
680.00	28203.46
680.14	28198.77
680.28	27854.72
680.42	28395.38
680.56	28250.27
680.70	28156.64
680.83	28257.29
680.97	27950.68
681.11	27513.00
681.25	27777.48
681.39	27536.40
681.52	27496.61
681.66	27477.89
681.80	27374.91
681.94	27037.87
682.07	27072.98
682.21	27098.72
682.35	26890.41
682.49	26974.67
682.62	26759.34
682.76	26838.92
682.90	26672.74
683.04	26862.33
683.17	25949.52
683.31	26448.05
683.45	26316.98
683.59	26277.19
683.72	25809.09
683.86	26078.25
684.00	26139.10
684.13	25841.85
684.27	25502.48
684.41	25612.48
684.55	24929.05
684.68	25500.14
684.82	25469.71
684.96	25343.32
685.09	25781.00
685.23	25106.93
685.37	25137.35
685.50	24987.56
685.64	24907.98
685.78	24875.21
685.91	24493.71
686.05	24479.66
686.19	24435.19
686.32	23995.17
686.46	23894.53
686.60	23515.36
686.73	23943.68
686.87	23498.98
687.01	23016.83
687.14	23583.24
687.28	23183.01
687.42	23360.89
687.55	23342.16
687.69	23421.74
687.82	23112.79
687.96	23686.22
688.10	23463.87
688.23	23096.41
688.37	22511.27
688.50	22878.74
688.64	22927.89
688.78	22841.29
688.91	22857.67
689.05	22710.22
689.18	22494.89
689.32	22366.16
689.46	22462.12
689.59	22356.80
689.73	22462.12
689.86	22300.62
690.00	22218.71
690.13	22209.34
690.27	21958.91
690.41	22024.44
690.54	21661.66
690.68	21549.31
690.81	21722.51
690.95	21511.86
691.08	21537.61
691.22	21621.87
691.35	21378.45
691.49	21453.35
691.62	21284.83
691.76	21209.93
691.89	20968.86
692.03	20854.17
692.16	20767.57
692.30	20702.04
692.43	20503.09
692.57	20615.44
692.70	20549.90
692.84	20453.94
692.97	20278.40
693.11	19709.65
693.24	19702.63
693.38	19939.02
693.51	20053.71
693.65	20004.56
693.78	20187.12
693.92	19896.89
694.05	19714.33
694.19	19726.04
694.32	19372.61
694.45	19353.89
694.59	19309.42
694.72	19131.54
694.86	19201.76
694.99	19096.43
695.13	19075.37
695.26	18951.32
695.39	18771.10
695.53	19143.24
695.66	18998.13
695.80	18906.85
695.93	18838.97
696.07	18576.83
696.20	18452.78
696.33	18466.83
696.47	18293.63
696.60	18115.75
696.73	17994.04
696.87	17909.78
697.00	17851.27
697.14	18068.94
697.27	17743.60
697.40	17666.36
697.54	17633.60
697.67	17743.60
697.80	17415.93
697.94	17376.14
698.07	17441.67
698.21	17006.33
698.34	17319.96
698.47	17128.04
698.61	16933.78
698.74	16896.33
698.87	16861.22
699.01	16690.36
699.14	16755.90
699.27	16460.99
699.40	16568.65
699.54	16613.12
699.67	16353.32
699.80	16514.82
699.94	16517.16
700.07	16145.02
700.20	16327.58
700.34	16418.86
700.47	16460.99
700.60	16280.77
700.73	16233.96
700.87	16194.17
701.00	15971.82
701.13	15932.03
701.26	15637.12
701.40	15822.02
701.53	15529.45
701.66	15410.09
701.79	15276.68
701.93	15353.91
702.06	15400.72
702.19	15000.49
702.32	15218.16
702.46	14977.09
702.59	14993.47
702.72	14885.81
702.85	14792.19
702.99	14778.14
703.12	14675.16
703.25	14480.89
703.38	14438.76
703.51	14560.47
703.65	14448.13
703.78	14471.53
703.91	14604.94
704.04	14537.07
704.17	14457.49
704.31	14600.26
704.44	13912.14
704.57	14230.46
704.70	14024.49
704.83	13788.10
704.96	14118.11
705.10	13818.52
705.23	14078.32
>>>>>End Processed Spectral Data<<<<<
