SpectraSuite Data File
++++++++++++++++++++++++++++++++++++
Date: Fri Oct 25 10:44:28 EDT 2013
User: price-jones
Dark Spectrum Present: No
Reference Spectrum Present: No
Number of Sampled Component Spectra: 1
Spectrometers: USB2+H05261
Integration Time (usec): 100000 (USB2+H05261)
Spectra Averaged: 1 (USB2+H05261)
Boxcar Smoothing: 0 (USB2+H05261)
Correct for Electrical Dark: No (USB2+H05261)
Strobe/Lamp Enabled: No (USB2+H05261)
Correct for Detector Non-linearity: No (USB2+H05261)
Correct for Stray Light: No (USB2+H05261)
Number of Pixels in Processed Spectrum: 2048
>>>>>Begin Processed Spectral Data<<<<<
365.73	102.98
365.92	102.98
366.12	102.98
366.32	9.36
366.52	0.00
366.72	63.19
366.91	0.00
367.11	44.47
367.31	77.24
367.51	0.00
367.70	0.00
367.90	114.69
368.10	46.81
368.30	37.45
368.49	35.11
368.69	7.02
368.89	0.00
369.09	11.70
369.28	9.36
369.48	51.49
369.68	23.41
369.87	117.03
370.07	46.81
370.27	112.35
370.47	241.08
370.66	435.34
370.86	390.87
371.06	496.19
371.25	407.25
371.45	430.66
371.65	482.15
371.84	505.56
372.04	500.87
372.24	561.73
372.44	507.90
372.63	465.77
372.83	503.22
373.03	503.22
373.22	517.26
373.42	535.98
373.62	477.47
373.81	543.00
374.01	589.82
374.21	559.39
374.40	580.45
374.60	657.69
374.79	561.73
374.99	606.20
375.19	512.58
375.38	629.60
375.58	650.67
375.78	634.29
375.97	617.90
376.17	634.29
376.37	669.39
376.56	606.20
376.76	631.94
376.95	592.16
377.15	592.16
377.35	643.65
377.54	631.94
377.74	622.58
377.93	676.41
378.13	629.60
378.33	606.20
378.52	634.29
378.72	634.29
378.91	699.82
379.11	674.07
379.31	692.80
379.50	716.20
379.70	674.07
379.89	791.10
380.09	641.31
380.28	629.60
380.48	737.27
380.68	758.33
380.87	706.84
381.07	697.48
381.26	720.88
381.46	774.72
381.65	657.69
381.85	760.67
382.04	755.99
382.24	643.65
382.43	767.70
382.63	823.87
382.83	699.82
383.02	688.12
383.22	777.06
383.41	763.01
383.61	758.33
383.80	758.33
384.00	767.70
384.19	805.14
384.39	774.72
384.58	774.72
384.78	854.30
384.97	826.21
385.17	763.01
385.36	875.36
385.56	777.06
385.75	741.95
385.95	858.98
386.14	931.53
386.34	847.27
386.53	835.57
386.72	823.87
386.92	884.72
387.11	905.79
387.31	835.57
387.50	912.81
387.70	819.19
387.89	877.70
388.09	805.14
388.28	933.87
388.48	903.45
388.67	957.28
388.86	866.00
389.06	929.19
389.25	929.19
389.45	994.73
389.64	940.90
389.84	1125.80
390.03	973.66
390.22	985.37
390.42	1039.20
390.61	968.98
390.81	1034.52
391.00	1043.88
391.19	1071.97
391.39	1116.44
391.58	1111.75
391.78	1083.67
391.97	1008.77
392.16	1004.09
392.36	1125.80
392.55	1001.75
392.75	976.00
392.94	1029.84
393.13	968.98
393.33	983.02
393.52	971.32
393.71	1086.01
393.91	1196.01
394.10	1198.35
394.29	1249.85
394.49	1210.06
394.68	1247.51
394.88	1179.63
395.07	1233.46
395.26	1235.80
395.46	1233.46
395.65	1301.34
395.84	1277.93
396.04	1181.97
396.23	1156.22
396.42	1139.84
396.62	1203.04
396.81	1210.06
397.00	1275.59
397.19	1266.23
397.39	1327.08
397.58	1350.49
397.77	1418.36
397.97	1427.73
398.16	1362.19
398.35	1521.35
398.55	1404.32
398.74	1558.80
398.93	1547.09
399.12	1467.52
399.32	1472.20
399.51	1479.22
399.70	1621.99
399.90	1530.71
400.09	1535.39
400.28	1673.48
400.47	1696.89
400.67	1682.85
400.86	1652.42
401.05	1633.69
401.24	1638.38
401.44	1724.97
401.63	1724.97
401.82	1732.00
402.01	1661.78
402.21	1806.89
402.40	1797.53
402.59	1795.19
402.78	1741.36
402.97	1837.32
403.17	1921.58
403.36	1834.98
403.55	1804.55
403.74	1912.22
403.93	1877.11
404.13	1956.69
404.32	1926.26
404.51	1916.90
404.70	1947.33
404.89	1956.69
405.09	1968.39
405.28	1996.48
405.47	1977.75
405.66	1977.75
405.85	2033.93
406.05	2008.18
406.24	2146.27
406.43	2022.22
406.62	2069.03
406.81	2155.63
407.00	2054.99
407.20	1952.01
407.39	2115.84
407.58	2193.08
407.77	2232.87
407.96	2195.42
408.15	2305.43
408.34	2284.36
408.54	2303.09
408.73	2349.90
408.92	2253.94
409.11	2267.98
409.30	2225.85
409.49	2326.49
409.68	2385.01
409.87	2345.22
410.07	2368.62
410.26	2342.88
410.45	2459.90
410.64	2401.39
410.83	2394.37
411.02	2441.18
411.21	2567.57
411.40	2766.51
411.59	2588.63
411.78	2654.17
411.98	2619.06
412.17	2745.45
412.36	2743.11
412.55	2825.03
412.74	2745.45
412.93	2832.05
413.12	2754.81
413.31	2860.13
413.50	2899.92
413.69	2818.00
413.88	3009.93
414.07	2857.79
414.26	3023.97
414.45	3000.57
414.64	2916.31
414.83	3047.38
415.02	3075.46
415.22	3143.34
415.41	3236.96
415.60	3192.49
415.79	3133.98
415.98	3288.45
416.17	3351.65
416.36	3227.60
416.55	3227.60
416.74	3379.73
416.93	3248.66
417.12	3527.19
417.31	3258.03
417.50	3393.78
417.69	3405.48
417.88	3641.87
418.07	3342.28
418.26	3304.84
418.45	3548.25
418.64	3606.77
418.83	3613.79
419.02	3524.85
419.21	3733.15
419.39	3545.91
419.58	3527.19
419.77	3606.77
419.96	3641.87
420.15	3648.90
420.34	3611.45
420.53	3836.14
420.72	3882.95
420.91	3822.09
421.10	3960.19
421.29	3967.21
421.48	3786.99
421.67	3808.05
421.86	3878.27
422.05	3796.35
422.24	3901.67
422.43	3815.07
422.61	3948.48
422.80	4100.62
422.99	3943.80
423.18	3847.84
423.37	3960.19
423.56	3962.53
423.75	3960.19
423.94	3932.10
424.13	3637.19
424.32	3859.54
424.50	4058.49
424.69	4072.53
424.88	4081.89
425.07	3948.48
425.26	3962.53
425.45	3960.19
425.64	3967.21
425.83	3932.10
426.01	4039.76
426.20	4184.88
426.39	4107.64
426.58	4067.85
426.77	3906.35
426.96	3920.40
427.15	4098.28
427.33	3943.80
427.52	4100.62
427.71	4170.83
427.90	4173.18
428.09	4161.47
428.28	4271.48
428.46	4308.93
428.65	4121.68
428.84	4437.66
429.03	4362.76
429.22	4109.98
429.40	4262.12
429.59	4170.83
429.78	3962.53
429.97	3936.78
430.16	4098.28
430.34	4201.26
430.53	4280.84
430.72	4217.65
430.91	4287.86
431.10	4301.90
431.28	4575.75
431.47	4547.66
431.66	4641.28
431.85	4493.83
432.03	4746.61
432.22	4664.69
432.41	4681.07
432.60	4594.47
432.79	4655.33
432.97	4849.59
433.16	4746.61
433.35	4425.95
433.54	4730.22
433.72	4662.35
433.91	4758.31
434.10	4704.48
434.28	4791.08
434.47	4814.48
434.66	4898.74
434.85	5041.51
435.03	4915.12
435.22	4929.17
435.41	5200.67
435.59	5060.24
435.78	5107.05
435.97	5200.67
436.16	5034.49
436.34	5048.54
436.53	5305.99
436.72	5301.31
436.90	5137.48
437.09	5256.84
437.28	5261.52
437.46	4954.91
437.65	5268.55
437.84	5371.53
438.02	5282.59
438.21	5275.57
438.40	5163.22
438.58	5334.08
438.77	5540.05
438.96	5483.88
439.14	5598.56
439.33	5561.11
439.52	5851.34
439.70	5717.93
439.89	5650.05
440.08	5872.40
440.26	5785.80
440.45	5720.27
440.63	5753.04
440.82	6031.56
441.01	5963.68
441.19	5902.83
441.38	6193.06
441.57	6160.29
441.75	6324.13
441.94	6277.32
442.12	6193.06
442.31	6403.71
442.50	6282.00
442.68	6373.28
442.87	6396.68
443.05	6438.81
443.24	6375.62
443.43	6516.05
443.61	6597.97
443.80	6548.82
443.98	6473.92
444.17	6143.91
444.35	6619.04
444.54	6710.32
444.73	6644.78
444.91	6602.65
445.10	6504.35
445.28	6340.51
445.47	6375.62
445.65	6221.14
445.84	6567.54
446.02	6586.27
446.21	6668.19
446.39	6523.07
446.58	6766.49
446.77	6626.06
446.95	6637.76
447.14	6656.48
447.32	6981.82
447.51	6553.50
447.69	6635.42
447.88	6719.68
448.06	6710.32
448.25	6890.54
448.43	6733.72
448.62	6738.40
448.80	6855.43
448.99	6913.94
449.17	6850.75
449.36	6832.02
449.54	6995.86
449.73	7028.63
449.91	7140.97
450.10	7101.19
450.28	7082.46
450.46	7204.17
450.65	7148.00
450.83	7225.23
451.02	7297.79
451.20	7236.94
451.39	7187.79
451.57	7283.75
451.76	7241.62
451.94	7396.09
452.13	7463.97
452.31	7108.21
452.49	7138.63
452.68	7227.57
452.86	7363.33
453.05	7269.70
453.23	7431.20
453.42	7410.14
453.60	7360.98
453.78	7604.40
453.97	7431.20
454.15	7466.31
454.34	7606.74
454.52	7595.04
454.70	7475.67
454.89	7613.76
455.07	7707.38
455.26	7611.42
455.44	7775.26
455.62	7751.85
455.81	7730.79
455.99	7892.29
456.17	7843.14
456.36	8002.29
456.54	8039.74
456.73	7913.35
456.91	8294.86
457.09	8287.84
457.28	8381.46
457.46	8086.55
457.64	8184.85
457.83	8177.83
458.01	8051.44
458.19	8479.76
458.38	8142.72
458.56	8322.94
458.74	8287.84
458.93	8224.64
459.11	8397.84
459.29	8294.86
459.48	8308.90
459.66	8336.99
459.84	8531.25
460.03	8528.91
460.21	8388.48
460.39	8329.97
460.57	8498.49
460.76	8587.43
460.94	8798.07
461.12	8851.91
461.31	8784.03
461.49	8711.47
461.67	8835.52
461.85	9111.71
462.04	8777.01
462.22	8978.30
462.40	8877.65
462.59	8861.27
462.77	9081.28
462.95	8905.74
463.13	8973.61
463.32	9011.06
463.50	8931.48
463.68	8990.00
463.86	8992.34
464.05	9048.51
464.23	8919.78
464.41	9233.41
464.59	9097.66
464.78	9249.80
464.96	9069.58
465.14	9022.77
465.32	9179.58
465.50	9191.28
465.69	9488.53
465.87	9418.32
466.05	9298.95
466.23	9362.14
466.41	9184.26
466.60	9514.28
466.78	9226.39
466.96	9350.44
467.14	9392.57
467.32	9509.60
467.51	9502.58
467.69	9289.59
467.87	9355.12
468.05	9537.68
468.23	9502.58
468.41	9816.21
468.60	9540.02
468.78	9682.80
468.96	9589.17
469.14	9715.56
469.32	9764.72
469.50	9589.17
469.69	9736.63
469.87	9788.12
470.05	9905.15
470.23	9692.16
470.41	9755.35
470.59	10087.71
470.77	9891.10
470.95	10036.22
471.14	10099.41
471.32	9848.97
471.50	10183.67
471.68	10310.06
471.86	10413.04
472.04	10384.96
472.22	10590.92
472.40	10310.06
472.58	10576.88
472.77	10607.31
472.95	10420.06
473.13	11059.03
473.31	10464.54
473.49	10752.42
473.67	10839.02
473.85	10930.30
474.03	11253.30
474.21	10904.56
474.39	11119.89
474.57	11068.39
474.75	11140.95
474.93	11279.04
475.12	11286.06
475.30	11431.18
475.48	11248.61
475.66	11300.11
475.84	11489.69
476.02	11475.65
476.20	11653.53
476.38	11634.80
476.56	12119.29
476.74	12070.14
476.92	11927.37
477.10	11798.64
477.28	12079.50
477.46	12152.06
477.64	12521.87
477.82	12664.64
478.00	12650.60
478.18	12547.61
478.36	12641.23
478.54	12779.32
478.72	12938.48
478.90	12985.29
479.08	13123.38
479.26	13334.03
479.44	13135.09
479.62	13451.06
479.80	13298.92
479.98	13441.70
480.16	13872.36
480.34	13757.67
480.52	13879.38
480.70	14040.87
480.88	13930.87
481.06	14155.56
481.24	13816.18
481.41	14600.26
481.59	14452.81
481.77	14621.33
481.95	14607.28
482.13	14551.11
482.31	14787.50
482.49	15183.06
482.67	15103.48
482.85	15171.35
483.03	15311.78
483.21	15419.45
483.39	15700.31
483.57	15283.70
483.74	15569.24
483.92	15845.43
484.10	15786.91
484.28	16025.65
484.46	16088.84
484.64	16594.40
484.82	16325.24
485.00	16444.60
485.18	16503.12
485.35	16800.37
485.53	16271.40
485.71	16285.45
485.89	16327.58
486.07	16224.59
486.25	16648.23
486.43	16903.35
486.61	17219.32
486.78	17364.43
486.96	17537.63
487.14	17635.94
487.32	17701.47
487.50	18118.09
487.68	18228.09
487.85	18412.99
488.03	18689.18
488.21	18867.06
488.39	18836.63
488.57	18956.00
488.75	18829.61
488.92	19391.34
489.10	19374.95
489.28	19510.71
489.46	19807.95
489.64	19852.42
489.81	20159.03
489.99	20409.47
490.17	20442.24
490.35	20493.73
490.53	20475.01
490.70	20540.54
490.88	20477.35
491.06	20919.71
491.24	21282.49
491.41	20903.32
491.59	20910.35
491.77	21088.23
491.95	21319.94
492.13	21249.72
492.30	21640.59
492.48	21930.82
492.66	22197.64
492.84	21958.91
493.01	22410.63
493.19	22216.36
493.37	22508.93
493.54	22511.27
493.72	23133.86
493.90	22483.19
494.08	23058.96
494.25	23049.60
494.43	23426.42
494.61	23700.26
494.79	23571.54
494.96	23709.63
495.14	23616.01
495.32	24013.90
495.49	23576.22
495.67	23988.15
495.85	24187.10
496.02	24629.46
496.20	24418.81
496.38	24716.06
496.55	24858.83
496.73	25135.01
496.91	24872.87
497.09	25425.24
497.26	25385.45
497.44	25429.92
497.62	25324.60
497.79	25535.24
497.97	25633.55
498.14	25610.14
498.32	25628.87
498.50	25893.35
498.67	26331.03
498.85	26218.68
499.03	26668.06
499.20	26405.92
499.38	26426.99
499.56	26595.51
499.73	26441.03
499.91	27075.32
500.08	26951.27
500.26	26614.23
500.44	26639.98
500.61	26848.29
500.79	26899.78
500.97	27157.24
501.14	27569.17
501.32	27381.93
501.49	27426.40
501.67	27325.75
501.84	27793.86
502.02	27569.17
502.20	27810.25
502.37	28114.52
502.55	27852.38
502.72	28093.45
502.90	28371.97
503.07	28046.64
503.25	28854.12
503.43	28212.82
503.60	28418.78
503.78	28435.17
503.95	28481.98
504.13	29017.96
504.30	28788.59
504.48	28933.70
504.65	29003.92
504.83	29305.85
505.01	29462.66
505.18	29109.24
505.36	29788.00
505.53	29862.90
505.71	29830.13
505.88	29979.92
506.06	29748.21
506.23	30164.82
506.41	29977.58
506.58	29996.31
506.76	29930.77
506.93	30019.71
507.11	30436.33
507.28	30307.60
507.46	30356.75
507.63	29804.38
507.81	30560.37
507.98	30242.06
508.16	30649.32
508.33	30862.30
508.50	30703.15
508.68	30918.48
508.85	31302.32
509.03	31541.06
509.20	31321.05
509.38	31440.42
509.55	31763.41
509.73	31412.33
509.90	31960.02
510.08	31545.74
510.25	31686.17
510.42	31662.77
510.60	31758.73
510.77	32016.19
510.95	32430.46
511.12	32247.90
511.30	32624.73
511.47	32613.02
511.64	32421.10
511.82	32753.46
511.99	32856.44
512.17	32673.88
512.34	32732.39
512.51	32643.45
512.69	33006.23
512.86	32994.53
513.04	33130.28
513.21	33259.01
513.38	33326.89
513.56	32980.49
513.73	32828.35
513.90	32797.93
514.08	33244.97
514.25	33333.91
514.43	33528.17
514.60	33619.46
514.77	33722.44
514.95	33956.49
515.12	34125.01
515.29	33729.46
515.47	34349.70
515.64	34237.36
515.81	34040.75
515.99	33795.00
516.16	34036.07
516.33	33706.05
516.51	33715.42
516.68	33544.56
516.85	33319.87
517.03	33755.21
517.20	34277.15
517.37	34511.20
517.54	34653.97
517.72	34850.58
517.89	34396.51
518.06	34419.92
518.24	34403.53
518.41	34660.99
518.58	34824.83
518.75	34361.40
518.93	35257.83
519.10	35026.12
519.27	35321.02
519.45	35175.91
519.62	35550.40
519.79	35477.84
519.96	35475.50
520.14	36170.64
520.31	35278.89
520.48	35632.32
520.65	35653.38
520.83	36357.88
521.00	36442.14
521.17	36170.64
521.34	36252.56
521.52	36554.49
521.69	36189.36
521.86	36573.21
522.03	36739.39
522.20	36577.89
522.38	36561.51
522.55	36627.04
522.72	36903.23
522.89	36694.92
523.07	37095.15
523.24	36950.04
523.41	37294.10
523.58	36966.42
523.75	37479.00
523.92	37734.12
524.10	37727.10
524.27	37621.77
524.44	37275.37
524.61	37743.48
524.78	37895.61
524.96	37970.51
525.13	37855.82
525.30	38143.71
525.47	38150.73
525.64	37933.06
525.81	38141.37
525.98	38038.39
526.16	37713.05
526.33	37806.67
526.50	37729.44
526.67	38061.79
526.84	38164.78
527.01	38153.07
527.18	38078.18
527.36	38731.18
527.53	38579.05
527.70	38792.04
527.87	38204.56
528.04	38733.53
528.21	38492.45
528.38	38550.96
528.55	39189.93
528.72	39178.23
528.89	39573.78
529.07	39419.30
529.24	39105.67
529.41	39009.71
529.58	38742.89
529.75	38979.28
529.92	39917.84
530.09	39487.18
530.26	39433.35
530.43	39454.41
530.60	39686.12
530.77	39541.01
530.94	39683.78
531.11	39276.53
531.28	39927.20
531.46	39751.66
531.63	40048.91
531.80	40224.45
531.97	39770.38
532.14	39824.22
532.31	39433.35
532.48	39957.63
532.65	40177.64
532.82	40032.52
532.99	39981.03
533.16	40231.47
533.33	40287.64
533.50	40315.73
533.67	40416.37
533.84	39763.36
534.01	40378.92
534.18	40374.24
534.35	41130.23
534.52	40659.79
534.69	40591.91
534.86	40835.33
535.03	40762.77
535.20	41258.96
535.37	41418.12
535.54	41116.19
535.71	41141.94
535.88	40957.03
536.05	40563.82
536.22	41521.10
536.38	41165.34
536.55	41228.54
536.72	41010.87
536.89	40928.95
537.06	40954.69
537.23	41216.83
537.40	41092.79
537.57	41532.81
537.74	41584.30
537.91	41968.15
538.08	41771.54
538.25	41284.71
538.42	41914.31
538.59	41860.48
538.75	41048.32
538.92	41514.08
539.09	41776.22
539.26	41453.23
539.43	41724.73
539.60	42232.63
539.77	42014.96
539.94	41584.30
540.11	41654.51
540.28	41902.61
540.44	41799.63
540.61	41621.75
540.78	41858.14
540.95	41986.87
541.12	41490.68
541.29	41694.30
541.46	41853.46
541.62	42557.96
541.79	42426.89
541.96	41661.54
542.13	42183.48
542.30	42120.28
542.47	41975.17
542.63	42389.44
542.80	42553.28
542.97	42775.63
543.14	42981.60
543.31	42745.20
543.48	42878.61
543.64	43669.72
543.81	43430.98
543.98	43320.98
544.15	42820.10
544.32	43349.06
544.48	43725.89
544.65	43299.91
544.82	43093.94
544.99	43021.39
545.16	43297.57
545.32	43594.82
545.49	44074.63
545.66	43749.29
545.83	43438.00
546.00	43618.22
546.16	43562.05
546.33	43016.71
546.50	43510.56
546.67	43555.03
546.83	43875.68
547.00	43533.96
547.17	43566.73
547.34	43328.00
547.50	44189.31
547.67	44051.22
547.84	43695.46
548.00	43908.45
548.17	44006.75
548.34	43868.66
548.51	43957.60
548.67	44406.98
548.84	44304.00
549.01	43910.79
549.18	43976.33
549.34	43847.60
549.51	44189.31
549.68	44280.60
549.84	44191.65
550.01	44142.50
550.18	44329.75
550.34	44423.37
550.51	44339.11
550.68	44484.22
550.84	43693.12
551.01	44573.16
551.18	44765.09
551.34	44327.41
551.51	44680.83
551.68	44631.68
551.84	44854.03
552.01	44233.78
552.18	44741.68
552.34	44254.85
552.51	44769.77
552.68	44362.51
552.84	45209.79
553.01	44907.86
553.18	44858.71
553.34	44842.32
553.51	44409.32
553.67	44460.82
553.84	45017.86
554.01	45694.28
554.17	44996.80
554.34	45338.52
554.51	45059.99
554.67	45287.03
554.84	45010.84
555.00	44605.93
555.17	45095.10
555.33	45088.08
555.50	44989.78
555.67	45160.64
555.83	44863.39
556.00	45050.63
556.16	45492.99
556.33	45071.70
556.50	44947.65
556.66	45301.07
556.83	45162.98
556.99	45563.21
557.16	45282.34
557.32	45338.52
557.49	45567.89
557.65	45324.47
557.82	45324.47
557.98	45237.87
558.15	45116.17
558.32	45654.49
558.48	45301.07
558.65	45294.05
558.81	45083.40
558.98	45277.66
559.14	45537.46
559.31	45373.63
559.47	45710.66
559.64	45851.09
559.80	45832.37
559.97	45666.19
560.13	45558.53
560.30	45310.43
560.46	45420.44
560.63	45579.59
560.79	45715.34
560.96	46117.92
561.12	45717.68
561.29	45766.84
561.45	45914.29
561.61	45539.80
561.78	45570.23
561.94	45773.86
562.11	46160.05
562.27	45640.45
562.44	45876.84
562.60	45624.06
562.77	46227.92
562.93	45794.92
563.10	46185.79
563.26	45801.94
563.42	46057.06
563.59	45853.44
563.75	45584.27
563.92	45949.40
564.08	45935.35
564.24	45914.29
564.41	45645.13
564.57	46082.81
564.74	45904.93
564.90	46024.29
565.07	46068.76
565.23	46314.52
565.39	45996.21
565.56	45834.71
565.72	45535.12
565.88	45897.91
566.05	46330.90
566.21	45603.00
566.38	46050.04
566.54	45722.37
566.70	46108.55
566.87	46333.24
567.03	46209.20
567.19	46546.23
567.36	46263.03
567.52	46064.08
567.68	46380.06
567.85	45848.75
568.01	45916.63
568.17	46485.38
568.34	46078.13
568.50	46433.89
568.66	46026.63
568.83	46120.26
568.99	46087.49
569.15	45989.19
569.32	46232.60
569.48	46134.30
569.64	45902.59
569.81	46494.74
569.97	46213.88
570.13	46412.82
570.30	45986.85
570.46	45975.14
570.62	45783.22
570.78	45841.73
570.95	45916.63
571.11	46171.75
571.27	46181.11
571.43	45963.44
571.60	45982.16
571.76	46146.00
571.92	46691.35
572.09	46218.56
572.25	45949.40
572.41	46234.94
572.57	46632.83
572.74	46197.49
572.90	46134.30
573.06	46141.32
573.22	46642.20
573.38	45991.53
573.55	46515.81
573.71	46611.77
573.87	46096.85
574.03	46279.41
574.20	46473.68
574.36	46515.81
574.52	46347.29
574.68	46272.39
574.84	46515.81
575.01	46401.12
575.17	46220.90
575.33	46209.20
575.49	46047.70
575.65	46609.43
575.82	46539.21
575.98	46571.98
576.14	46326.22
576.30	46429.21
576.46	46461.97
576.62	46447.93
576.79	46337.93
576.95	46279.41
577.11	46532.19
577.27	46321.54
577.43	46340.27
577.59	46454.95
577.75	46349.63
577.92	45600.66
578.08	46150.68
578.24	46340.27
578.40	46403.46
578.56	46335.59
578.72	46539.21
578.88	46820.08
579.04	46387.08
579.21	46150.68
579.37	46394.10
579.53	46391.76
579.69	46000.89
579.85	46543.89
580.01	46684.33
580.17	46644.54
580.33	46490.06
580.49	46632.83
580.65	46866.89
580.82	46054.72
580.98	46148.34
581.14	46014.93
581.30	46717.09
581.46	46436.23
581.62	46270.05
581.78	46611.77
581.94	47007.32
582.10	46277.07
582.26	46440.91
582.42	46693.69
582.58	46829.44
582.74	46457.29
582.90	46614.11
583.06	46670.28
583.22	46440.91
583.38	46597.73
583.54	46710.07
583.70	46728.80
583.86	46721.77
584.02	46218.56
584.18	46726.46
584.34	46698.37
584.50	46616.45
584.66	46340.27
584.82	46543.89
584.98	46543.89
585.14	46756.88
585.30	46663.26
585.46	46674.96
585.62	46447.93
585.78	46499.42
585.94	46000.89
586.10	46553.26
586.26	46447.93
586.42	46681.98
586.58	46513.47
586.74	46602.41
586.90	46347.29
587.06	46464.32
587.22	46560.28
587.38	46213.88
587.54	46958.17
587.70	46813.05
587.86	46539.21
588.02	46698.37
588.18	46567.30
588.34	46501.76
588.49	46300.48
588.65	45628.74
588.81	46237.28
588.97	46225.58
589.13	46099.19
589.29	46497.08
589.45	46171.75
589.61	46590.70
589.77	46382.40
589.93	46335.59
590.08	46904.34
590.24	46501.76
590.40	46934.76
590.56	46768.58
590.72	46700.71
590.88	46691.35
591.04	46588.36
591.20	47023.70
591.35	47014.34
591.51	47114.98
591.67	47047.11
591.83	46712.41
591.99	46787.31
592.15	46473.68
592.31	46686.67
592.46	46700.71
592.62	46693.69
592.78	46899.65
592.94	47159.45
593.10	46710.07
593.26	46930.08
593.41	46534.53
593.57	46939.44
593.73	46270.05
593.89	46852.84
594.05	46532.19
594.20	46616.45
594.36	47007.32
594.52	46628.15
594.68	46576.66
594.84	46356.65
594.99	46862.21
595.15	46801.35
595.31	46770.93
595.47	46656.24
595.62	46934.76
595.78	46965.19
595.94	46911.36
596.10	47021.36
596.25	47124.35
596.41	46941.78
596.57	46799.01
596.73	46913.70
596.88	46602.41
597.04	46784.97
597.20	47014.34
597.36	46864.55
597.51	47227.33
597.67	47201.58
597.83	47047.11
597.99	46883.27
598.14	46974.55
598.30	46808.37
598.46	46541.55
598.61	46841.14
598.77	46607.09
598.93	46923.06
599.09	47126.69
599.24	47349.04
599.40	47033.07
599.56	47454.36
599.71	46983.91
599.87	46946.47
600.03	46464.32
600.18	46541.55
600.34	46960.51
600.50	46733.48
600.65	46564.96
600.81	47075.19
600.97	47122.01
601.12	46892.63
601.28	46787.31
601.44	46703.05
601.59	46782.63
601.75	46316.86
601.91	46625.81
602.06	46457.29
602.22	46443.25
602.37	46787.31
602.53	46789.65
602.69	46972.21
602.84	46665.60
603.00	46782.63
603.16	46583.68
603.31	46555.60
603.47	46714.75
603.62	46780.29
603.78	47110.30
603.94	46780.29
604.09	46693.69
604.25	47061.15
604.40	46909.02
604.56	46244.30
604.71	46838.80
604.87	46630.49
605.03	46483.04
605.18	46674.96
605.34	46476.02
605.49	46490.06
605.65	46483.04
605.80	46749.86
605.96	46838.80
606.12	46810.71
606.27	46880.93
606.43	46799.01
606.58	46387.08
606.74	46508.79
606.89	46373.03
607.05	46171.75
607.20	46794.33
607.36	46588.36
607.51	46564.96
607.67	46569.64
607.82	46358.99
607.98	46504.10
608.13	46258.35
608.29	46574.32
608.44	46033.66
608.60	46087.49
608.75	46150.68
608.91	46115.58
609.06	46452.61
609.22	46497.08
609.37	45659.17
609.53	46410.48
609.68	46028.98
609.84	46019.61
609.99	46323.88
610.15	46314.52
610.30	45954.08
610.46	46024.29
610.61	46122.60
610.76	46199.83
610.92	46342.61
611.07	46525.17
611.23	45986.85
611.38	45949.40
611.54	46012.59
611.69	45956.42
611.84	45933.01
612.00	45830.03
612.15	45705.98
612.31	46108.55
612.46	45628.74
612.62	45911.95
612.77	45624.06
612.92	46157.70
613.08	45806.62
613.23	45352.56
613.39	45745.77
613.54	45397.03
613.69	45291.71
613.85	45727.05
614.00	45701.30
614.15	45855.78
614.31	45471.93
614.46	45902.59
614.62	45804.28
614.77	45771.52
614.92	45312.77
615.08	45530.44
615.23	45368.94
615.38	45301.07
615.54	44760.40
615.69	44919.56
615.84	45226.17
616.00	45380.65
616.15	45233.19
616.30	44994.46
616.46	44893.82
616.61	44947.65
616.76	45017.86
616.92	44870.41
617.07	44980.42
617.22	45071.70
617.37	44938.29
617.53	45331.50
617.68	45102.12
617.83	44980.42
617.99	45359.58
618.14	44907.86
618.29	45076.38
618.45	45141.91
618.60	44882.11
618.75	45043.61
618.90	45013.18
619.06	45205.11
619.21	45146.59
619.36	45521.08
619.51	45050.63
619.67	44573.16
619.82	45104.46
619.97	44968.71
620.12	44868.07
620.28	44421.03
620.43	45195.74
620.58	44692.53
620.73	44161.23
620.89	44264.21
621.04	44797.85
621.19	44140.16
621.34	44626.99
621.49	44577.84
621.65	44065.27
621.80	44369.54
621.95	44224.42
622.10	44568.48
622.25	43803.13
622.41	43702.48
622.56	44222.08
622.71	44383.58
622.86	43913.13
623.01	44254.85
623.16	44399.96
623.32	44491.24
623.47	43868.66
623.62	44294.64
623.77	43997.39
623.92	44067.61
624.07	44025.48
624.23	43824.19
624.38	43964.62
624.53	43866.32
624.68	43952.92
624.83	43887.39
624.98	44114.42
625.13	43775.04
625.29	43475.45
625.44	43969.30
625.59	43526.94
625.74	43054.15
625.89	43388.85
626.04	43629.93
626.19	43529.28
626.34	43426.30
626.49	44336.77
626.65	43550.35
626.80	43810.15
626.95	43400.55
627.10	42993.30
627.25	43351.40
627.40	43012.02
627.55	43229.69
627.70	42660.94
627.85	42937.13
628.00	43002.66
628.15	43332.68
628.30	42873.93
628.45	43089.26
628.60	43351.40
628.76	43419.28
628.91	43196.93
629.06	42632.86
629.21	42787.33
629.36	43089.26
629.51	42646.90
629.66	42909.04
629.81	42871.59
629.96	42752.23
630.11	42665.63
630.26	42836.48
630.41	42494.77
630.56	42649.24
630.71	43133.73
630.86	42684.35
631.01	42139.00
631.16	42625.84
631.31	42611.79
631.46	42337.95
631.61	42728.82
631.76	42597.75
631.91	42581.37
632.06	42684.35
632.21	42445.62
632.36	42796.70
632.51	42562.64
632.66	42373.06
632.81	42305.18
632.96	42700.73
633.10	42249.01
633.25	42419.87
633.40	42251.35
633.55	42740.52
633.70	42101.56
633.85	42115.60
634.00	42286.46
634.15	42092.19
634.30	41972.83
634.45	42082.83
634.60	42249.01
634.75	41918.99
634.90	41853.46
635.05	41670.90
635.19	41563.23
635.34	41837.08
635.49	41900.27
635.64	42012.62
635.79	41750.48
635.94	41633.45
636.09	41649.83
636.24	41481.31
636.39	41549.19
636.53	41577.28
636.68	41284.71
636.83	41598.34
636.98	41333.86
637.13	41563.23
637.28	41656.85
637.43	41926.02
637.57	41839.42
637.72	41411.10
637.87	41745.80
638.02	41706.01
638.17	41471.95
638.32	41432.16
638.46	41144.28
638.61	41048.32
638.76	41134.92
638.91	41762.18
639.06	41631.11
639.20	41326.84
639.35	41443.87
639.50	41174.70
639.65	41478.97
639.80	41366.63
639.94	41404.08
640.09	41120.87
640.24	41284.71
640.39	40814.26
640.54	41031.93
640.68	40814.26
640.83	41081.08
640.98	40830.65
641.13	40194.02
641.27	41144.28
641.42	40636.38
641.57	40825.96
641.72	40170.61
641.86	40439.78
642.01	40175.30
642.16	40442.12
642.31	39934.22
642.45	40559.14
642.60	40142.53
642.75	40374.24
642.90	40540.42
643.04	40701.92
643.19	40360.20
643.34	40072.31
643.48	40624.68
643.63	40217.43
643.78	39861.66
643.93	40058.27
644.07	39873.37
644.22	40205.72
644.37	40231.47
644.51	40034.86
644.66	40226.79
644.81	40474.88
644.95	40659.79
645.10	40748.73
645.25	40734.68
645.39	40306.37
645.54	40165.93
645.69	40201.04
645.83	39929.54
645.98	40151.89
646.13	40123.80
646.27	39995.07
646.42	39786.77
646.57	39861.66
646.71	40381.26
646.86	40095.72
647.00	39812.51
647.15	40273.60
647.30	39803.15
647.44	39653.36
647.59	39096.31
647.74	39196.95
647.88	39356.11
648.03	39772.72
648.17	39295.25
648.32	39021.41
648.47	39758.68
648.61	39225.04
648.76	39594.84
648.90	39674.42
649.05	39477.82
649.20	39494.20
649.34	39054.18
649.49	39353.77
649.63	39360.79
649.78	39428.66
649.92	39178.23
650.07	39363.13
650.21	39154.82
650.36	39269.51
650.51	38990.98
650.65	39571.44
650.80	39658.04
650.94	39328.02
651.09	39208.65
651.23	39339.72
651.38	39208.65
651.52	38756.93
651.67	38820.13
651.81	39105.67
651.96	38995.67
652.10	38576.71
652.25	38883.32
652.39	38597.77
652.54	38995.67
652.68	39140.78
652.83	38485.43
652.97	38981.62
653.12	38752.25
653.26	38455.00
653.41	38506.49
653.55	38333.29
653.70	38541.60
653.84	38689.06
653.99	38632.88
654.13	38312.23
654.27	38569.69
654.42	38305.21
654.56	37701.35
654.71	38122.65
654.85	38607.14
655.00	38546.28
655.14	38485.43
655.29	37757.52
655.43	37881.57
655.57	37591.34
655.72	37874.55
655.86	37331.54
656.01	38010.30
656.15	37535.17
656.30	37354.95
656.44	37638.15
656.58	37371.33
656.73	37645.18
656.87	37947.11
657.01	37858.17
657.16	38075.84
657.30	37479.00
657.45	37460.27
657.59	37904.98
657.73	37708.37
657.88	37998.60
658.02	38113.28
658.16	38225.63
658.31	37649.86
658.45	37715.39
658.60	38036.05
658.74	37691.99
658.88	37748.16
659.03	37652.20
659.17	37392.40
659.31	37551.56
659.46	37038.98
659.60	37092.81
659.74	37322.18
659.89	36966.42
660.03	36992.17
660.17	37083.45
660.32	36800.24
660.46	37434.53
660.60	37251.97
660.74	37027.28
660.89	36964.08
661.03	36840.03
661.17	36360.22
661.32	36397.67
661.46	36613.00
661.60	36465.55
661.74	36774.50
661.89	36809.61
662.03	36645.77
662.17	36495.97
662.31	36273.62
662.46	36137.87
662.60	36617.68
662.74	36474.91
662.88	36229.15
663.03	36376.61
663.17	35857.01
663.31	35459.12
663.45	35833.60
663.60	35894.46
663.74	36140.21
663.88	35676.79
664.02	35777.43
664.17	36259.58
664.31	35704.87
664.45	35868.71
664.59	35669.76
664.73	35433.37
664.88	35508.27
665.02	35302.30
665.16	35517.63
665.30	35288.26
665.44	35009.73
665.59	34761.64
665.73	35548.06
665.87	34873.98
666.01	35054.20
666.15	34878.66
666.29	35196.98
666.44	35140.80
666.58	34902.07
666.72	35154.85
666.86	34614.18
667.00	34796.74
667.14	34267.78
667.28	34457.37
667.43	34822.49
667.57	35082.29
667.71	34609.50
667.85	34232.68
667.99	34506.52
668.13	34160.12
668.27	34487.79
668.41	34525.24
668.56	33912.02
668.70	34328.64
668.84	34389.49
668.98	34227.99
669.12	34223.31
669.26	33750.52
669.40	33663.93
669.54	33422.85
669.68	33703.71
669.82	33844.15
669.96	33507.11
670.10	33556.26
670.25	33661.58
670.39	33139.65
670.53	33043.68
670.67	33408.81
670.81	33357.32
670.95	33228.59
671.09	33151.35
671.23	33481.36
671.37	33256.67
671.51	33034.32
671.65	32952.40
671.79	32648.13
671.93	32833.04
672.07	32919.63
672.21	32851.76
672.35	32526.42
672.49	32739.41
672.63	32870.48
672.77	32252.58
672.91	31892.14
673.05	32362.59
673.19	32353.23
673.33	32201.09
673.47	32144.92
673.61	31838.31
673.75	31948.31
673.89	31587.87
674.03	31709.58
674.17	31508.29
674.31	31356.16
674.45	31342.11
674.59	31505.95
674.73	31690.85
674.87	31662.77
675.01	31377.22
675.15	31154.87
675.29	31431.05
675.43	30857.62
675.56	31405.31
675.70	31101.04
675.84	30925.50
675.98	30101.63
676.12	30958.27
676.26	30897.41
676.40	30651.66
676.54	30525.27
676.68	30497.18
676.82	29919.07
676.96	30176.53
677.10	30253.76
677.23	30352.07
677.37	30232.70
677.51	29865.24
677.65	29518.84
677.79	29172.44
677.93	30082.91
678.07	29556.28
678.21	29191.16
678.34	29497.77
678.48	28947.75
678.62	29013.28
678.76	28968.81
678.90	28596.67
679.04	28533.47
679.18	28503.04
679.31	28381.34
679.45	28233.88
679.59	28217.50
679.73	28130.90
679.87	28060.68
680.00	28252.61
680.14	27873.44
680.28	27950.68
680.42	27906.21
680.56	28268.99
680.70	27730.67
680.83	28095.79
680.97	27648.75
681.11	27955.36
681.25	27346.82
681.39	27161.92
681.52	27679.18
681.66	26958.29
681.80	27063.61
681.94	27026.17
682.07	26913.82
682.21	26937.23
682.35	26663.38
682.49	26586.15
682.62	26813.18
682.76	26558.06
682.90	26677.43
683.04	26684.45
683.17	26139.10
683.31	26644.66
683.45	26211.66
683.59	26157.83
683.72	26066.55
683.86	25549.29
684.00	25914.41
684.13	25888.67
684.27	25645.25
684.41	25350.34
684.55	25640.57
684.68	25397.15
684.82	25364.39
684.96	25310.55
685.09	25010.96
685.23	24989.90
685.37	24891.60
685.50	25069.48
685.64	25095.22
685.78	24627.12
685.91	24285.40
686.05	24343.91
686.19	24238.59
686.32	24079.43
686.46	23861.76
686.60	23929.64
686.73	23545.79
686.87	23222.80
687.01	23506.00
687.14	23527.06
687.28	23625.37
687.42	23644.09
687.55	23164.28
687.69	23653.45
687.82	23307.05
687.96	23021.51
688.10	23058.96
688.23	22953.63
688.37	22906.82
688.50	22530.00
688.64	22946.61
688.78	22747.67
688.91	22511.27
689.05	22539.36
689.18	22359.14
689.32	21895.71
689.46	22235.09
689.59	22445.74
689.73	22614.26
689.86	22115.72
690.00	22153.17
690.13	22185.94
690.27	21984.65
690.41	21781.03
690.54	21568.04
690.68	21502.50
690.81	21458.03
690.95	21418.24
691.08	21188.87
691.22	21301.22
691.35	21591.44
691.49	21460.37
691.62	21359.73
691.76	20964.18
691.89	20851.83
692.03	20685.65
692.16	20826.09
692.30	20521.82
692.43	20725.44
692.57	20519.48
692.70	20535.86
692.84	20327.55
692.97	20315.85
693.11	20306.49
693.24	20051.37
693.38	20088.82
693.51	19803.27
693.65	19950.73
693.78	20056.05
693.92	19999.88
694.05	19824.34
694.19	19707.31
694.32	19391.34
694.45	19143.24
694.59	19138.56
694.72	19066.00
694.86	18998.13
694.99	18965.36
695.13	18827.27
695.26	18995.79
695.39	18668.11
695.53	18829.61
695.66	18883.44
695.80	18984.09
695.93	18789.82
696.07	18520.66
696.20	18541.72
696.33	18588.53
696.47	18235.11
696.60	18092.34
696.73	18150.85
696.87	18010.42
697.00	18169.58
697.14	18129.79
697.27	17877.01
697.40	17982.34
697.54	17724.88
697.67	17355.07
697.80	17654.66
697.94	17205.28
698.07	17469.76
698.21	17153.79
698.34	17270.81
698.47	17144.42
698.61	16842.50
698.74	16816.75
698.87	16814.41
699.01	16393.11
699.14	16395.45
699.27	16292.47
699.40	16477.37
699.54	16430.56
699.67	16463.33
699.80	16262.04
699.94	16114.59
700.07	16030.33
700.20	16159.06
700.34	16198.85
700.47	15997.56
700.60	16205.87
700.73	16336.94
700.87	16025.65
701.00	15779.89
701.13	15763.51
701.26	15564.56
701.40	15454.56
701.53	15452.22
701.66	15435.83
701.79	15267.31
701.93	15260.29
702.06	15211.14
702.19	15131.56
702.32	15243.91
702.46	14977.09
702.59	15049.64
702.72	14949.00
702.85	14824.95
702.99	15056.67
703.12	14738.35
703.25	14466.85
703.38	14312.38
703.51	14553.45
703.65	14642.39
703.78	14335.78
703.91	14377.91
704.04	14209.39
704.17	14274.93
704.31	14424.72
704.44	13891.08
704.57	14003.43
704.70	14277.27
704.83	13675.75
704.96	13916.83
705.10	14078.32
705.23	13722.56
>>>>>End Processed Spectral Data<<<<<
