SpectraSuite Data File
++++++++++++++++++++++++++++++++++++
Date: Fri Oct 25 11:34:46 EDT 2013
User: price-jones
Dark Spectrum Present: No
Reference Spectrum Present: No
Number of Sampled Component Spectra: 1
Spectrometers: USB2+H05261
Integration Time (usec): 100000 (USB2+H05261)
Spectra Averaged: 1 (USB2+H05261)
Boxcar Smoothing: 0 (USB2+H05261)
Correct for Electrical Dark: No (USB2+H05261)
Strobe/Lamp Enabled: No (USB2+H05261)
Correct for Detector Non-linearity: No (USB2+H05261)
Correct for Stray Light: No (USB2+H05261)
Number of Pixels in Processed Spectrum: 2048
>>>>>Begin Processed Spectral Data<<<<<
365.73	283.20
365.92	283.20
366.12	283.20
366.32	234.05
366.52	184.90
366.72	142.77
366.91	234.05
367.11	222.35
367.31	152.13
367.51	145.11
367.70	119.37
367.90	191.92
368.10	154.48
368.30	245.76
368.49	140.43
368.69	161.50
368.89	198.95
369.09	131.07
369.28	196.60
369.48	124.05
369.68	269.16
369.87	292.57
370.07	224.69
370.27	255.12
370.47	365.12
370.66	444.70
370.86	554.71
371.06	538.32
371.25	533.64
371.45	564.07
371.65	498.53
371.84	533.64
372.04	547.69
372.24	493.85
372.44	636.63
372.63	592.16
372.83	603.86
373.03	582.79
373.22	552.37
373.42	596.84
373.62	564.07
373.81	587.47
374.01	603.86
374.21	678.76
374.40	650.67
374.60	657.69
374.79	674.07
374.99	662.37
375.19	667.05
375.38	610.88
375.58	641.31
375.78	692.80
375.97	692.80
376.17	688.12
376.37	678.76
376.56	683.44
376.76	641.31
376.95	575.77
377.15	697.48
377.35	681.10
377.54	629.60
377.74	650.67
377.93	678.76
378.13	620.24
378.33	664.71
378.52	730.25
378.72	608.54
378.91	748.97
379.11	678.76
379.31	711.52
379.50	716.20
379.70	763.01
379.89	723.23
380.09	688.12
380.28	716.20
380.48	692.80
380.68	676.41
380.87	695.14
381.07	674.07
381.26	753.65
381.46	741.95
381.65	678.76
381.85	805.14
382.04	676.41
382.24	770.04
382.43	791.10
382.63	760.67
382.83	781.74
383.02	812.17
383.22	741.95
383.41	716.20
383.61	779.40
383.80	814.51
384.00	765.36
384.19	711.52
384.39	821.53
384.58	805.14
384.78	844.93
384.97	737.27
385.17	765.36
385.36	734.93
385.56	861.32
385.75	802.80
385.95	777.06
386.14	800.46
386.34	826.21
386.53	926.85
386.72	863.66
386.92	835.57
387.11	779.40
387.31	947.92
387.50	800.46
387.70	823.87
387.89	844.93
388.09	833.23
388.28	891.74
388.48	866.00
388.67	847.27
388.86	940.90
389.06	828.55
389.25	875.36
389.45	887.06
389.64	954.94
389.84	959.62
390.03	964.30
390.22	910.47
390.42	919.83
390.61	938.55
390.81	903.45
391.00	964.30
391.19	922.17
391.39	992.39
391.58	1011.11
391.78	959.62
391.97	994.73
392.16	929.19
392.36	999.41
392.55	964.30
392.75	1027.50
392.94	1015.79
393.13	999.41
393.33	1046.22
393.52	1081.33
393.71	1055.58
393.91	1050.90
394.10	1025.15
394.29	1013.45
394.49	1004.09
394.68	1083.67
394.88	1118.78
395.07	1107.07
395.26	1064.94
395.46	1055.58
395.65	1107.07
395.84	1165.59
396.04	1177.29
396.23	1149.20
396.42	1090.69
396.62	1170.27
396.81	1069.62
397.00	1151.54
397.19	1144.52
397.39	1263.89
397.58	1221.76
397.77	1263.89
397.97	1114.10
398.16	1205.38
398.35	1268.57
398.55	1137.50
398.74	1170.27
398.93	1336.45
399.12	1256.87
399.32	1315.38
399.51	1287.29
399.70	1249.85
399.90	1231.12
400.09	1219.42
400.28	1287.29
400.47	1320.06
400.67	1268.57
400.86	1366.87
401.05	1291.98
401.24	1301.34
401.44	1453.47
401.63	1406.66
401.82	1357.51
402.01	1458.15
402.21	1399.64
402.40	1327.08
402.59	1397.30
402.78	1387.94
402.97	1411.34
403.17	1472.20
403.36	1497.94
403.55	1401.98
403.74	1481.56
403.93	1504.96
404.13	1474.54
404.32	1537.73
404.51	1483.90
404.70	1600.93
404.89	1542.41
405.09	1572.84
405.28	1624.33
405.47	1603.27
405.66	1551.78
405.85	1661.78
406.05	1624.33
406.24	1675.82
406.43	1535.39
406.62	1746.04
406.81	1699.23
407.00	1685.19
407.20	1722.63
407.39	1680.50
407.58	1701.57
407.77	1736.68
407.96	1785.83
408.15	1804.55
408.34	1727.32
408.54	1851.36
408.73	1886.47
408.92	1750.72
409.11	1863.07
409.30	1912.22
409.49	1865.41
409.68	1926.26
409.87	1884.13
410.07	1940.30
410.26	1900.52
410.45	1952.01
410.64	1989.46
410.83	2139.25
411.02	1961.37
411.21	2010.52
411.40	1952.01
411.59	2125.21
411.78	2057.33
411.98	2057.33
412.17	2153.29
412.36	2246.91
412.55	2155.63
412.74	2129.89
412.93	2272.66
413.12	2207.13
413.31	2221.17
413.50	2270.32
413.69	2363.94
413.88	2349.90
414.07	2321.81
414.26	2342.88
414.45	2403.73
414.64	2333.51
414.83	2565.23
415.02	2420.11
415.22	2558.21
415.41	2619.06
415.60	2569.91
415.79	2518.42
415.98	2586.29
416.17	2633.10
416.36	2633.10
416.55	2658.85
416.74	2572.25
416.93	2689.28
417.12	2860.13
417.31	2745.45
417.50	2792.26
417.69	2761.83
417.88	2794.60
418.07	2602.68
418.26	2726.72
418.45	2899.92
418.64	2836.73
418.83	3038.02
419.02	2928.01
419.21	2970.14
419.39	2963.12
419.58	2960.78
419.77	2850.77
419.96	3030.99
420.15	2993.55
420.34	3059.08
420.53	3049.72
420.72	3021.63
420.91	3012.27
421.10	3063.76
421.29	3059.08
421.48	2913.97
421.67	3136.32
421.86	3047.38
422.05	3150.36
422.24	3066.10
422.43	3169.09
422.61	3234.62
422.80	3272.07
422.99	3126.96
423.18	3243.98
423.37	3370.37
423.56	3309.52
423.75	3246.32
423.94	3075.46
424.13	3000.57
424.32	3222.92
424.50	3251.00
424.69	3442.93
424.88	3260.37
425.07	3339.94
425.26	3286.11
425.45	3222.92
425.64	3126.96
425.83	3183.13
426.01	3232.28
426.20	3194.83
426.39	3321.22
426.58	3246.32
426.77	3349.31
426.96	3419.52
427.15	3414.84
427.33	3407.82
427.52	3368.03
427.71	3433.57
427.90	3471.01
428.09	3492.08
428.28	3424.20
428.46	3304.84
428.65	3581.02
428.84	3627.83
429.03	3686.34
429.22	3389.10
429.40	3499.10
429.59	3609.11
429.78	3566.98
429.97	3391.44
430.16	3620.81
430.34	3864.22
430.53	3581.02
430.72	3782.31
430.91	3730.81
431.10	3609.11
431.28	3728.47
431.47	3861.88
431.66	3777.62
431.85	3873.59
432.03	3747.20
432.22	3810.39
432.41	3779.97
432.60	3833.80
432.79	3964.87
432.97	3896.99
433.16	3822.09
433.35	3925.08
433.54	3936.78
433.72	3911.04
433.91	3920.40
434.10	3999.98
434.28	3985.93
434.47	4063.17
434.66	3864.22
434.85	3887.63
435.03	4236.37
435.22	4011.68
435.41	4138.07
435.59	4044.45
435.78	4154.45
435.97	4163.81
436.16	4114.66
436.34	4152.11
436.53	4212.96
436.72	4362.76
436.90	4194.24
437.09	4191.90
437.28	4259.78
437.46	4234.03
437.65	4355.74
437.84	4358.08
438.02	4344.03
438.21	4311.27
438.40	4414.25
438.58	4505.53
438.77	4662.35
438.96	4341.69
439.14	4648.30
439.33	4533.62
439.52	4671.71
439.70	4610.86
439.89	4854.27
440.08	4816.82
440.26	4774.69
440.45	4655.33
440.63	4760.65
440.82	4709.16
441.01	4744.27
441.19	4894.06
441.38	4908.10
441.57	4961.94
441.75	4816.82
441.94	5090.67
442.12	5032.15
442.31	5123.43
442.50	5078.96
442.68	5039.17
442.87	5050.88
443.05	4997.04
443.24	5338.76
443.43	5165.56
443.61	5266.21
443.80	5514.30
443.98	5277.91
444.17	5036.83
444.35	5378.55
444.54	5308.34
444.73	5275.57
444.91	5355.15
445.10	5416.00
445.28	5390.25
445.47	5165.56
445.65	5315.36
445.84	5291.95
446.02	5322.38
446.21	5184.29
446.39	5406.64
446.58	5364.51
446.77	5359.83
446.95	5151.52
447.14	5547.07
447.32	5474.51
447.51	5383.23
447.69	5411.32
447.88	5338.76
448.06	5549.41
448.25	5521.32
448.43	5364.51
448.62	5348.12
448.80	5479.19
448.99	5614.95
449.17	5771.76
449.36	5401.96
449.54	5551.75
449.73	5870.06
449.91	5746.02
450.10	5722.61
450.28	5727.29
450.46	5750.70
450.65	5729.63
450.83	5816.23
451.02	5664.10
451.20	5926.24
451.39	5863.04
451.57	5638.35
451.76	5631.33
451.94	5947.30
452.13	6022.20
452.31	5877.09
452.49	5898.15
452.68	5935.60
452.86	5914.53
453.05	5991.77
453.23	5900.49
453.42	5973.05
453.60	5973.05
453.78	6064.33
453.97	5982.41
454.15	5877.09
454.34	5951.98
454.52	6132.20
454.70	6228.17
454.89	6218.80
455.07	6221.14
455.26	6139.23
455.44	6319.45
455.62	6223.48
455.81	6401.37
455.99	6277.32
456.17	6600.31
456.36	6331.15
456.54	6384.98
456.73	6373.28
456.91	6757.13
457.09	6682.23
457.28	6764.15
457.46	6574.56
457.64	6710.32
457.83	6686.91
458.01	6532.44
458.19	6686.91
458.38	6604.99
458.56	6855.43
458.74	6619.04
458.93	6827.34
459.11	6876.49
459.29	6806.28
459.48	6932.67
459.66	6803.94
459.84	6839.05
460.03	6902.24
460.21	7115.23
460.39	7091.82
460.57	7052.03
460.76	7152.68
460.94	7096.50
461.12	7075.44
461.31	7052.03
461.49	6965.43
461.67	7056.72
461.85	7229.91
462.04	7220.55
462.22	7346.94
462.40	7180.76
462.59	7351.62
462.77	7030.97
462.95	7302.47
463.13	7463.97
463.32	7435.88
463.50	7592.70
463.68	7630.15
463.86	7447.58
464.05	7288.43
464.23	7522.48
464.41	7508.44
464.59	7255.66
464.78	7555.25
464.96	7613.76
465.14	7644.19
465.32	7660.57
465.50	7552.91
465.69	7669.94
465.87	7793.98
466.05	7641.85
466.23	7660.57
466.41	7733.13
466.60	7719.09
466.78	7405.46
466.96	7765.90
467.14	7782.28
467.32	7995.27
467.51	7892.29
467.69	7756.54
467.87	7644.19
468.05	8018.68
468.23	7779.94
468.41	7793.98
468.60	7901.65
468.78	7976.55
468.96	7768.24
469.14	8255.07
469.32	8156.77
469.50	7976.55
469.69	8021.02
469.87	8184.85
470.05	8159.11
470.23	8226.98
470.41	8245.71
470.59	8524.23
470.77	8329.97
470.95	8458.70
471.14	8566.36
471.32	8287.84
471.50	8533.59
471.68	8489.12
471.86	8533.59
472.04	8627.21
472.22	8648.28
472.40	8641.26
472.58	8690.41
472.77	8650.62
472.95	8868.29
473.13	9095.32
473.31	8542.96
473.49	9046.17
473.67	9057.87
473.85	9097.66
474.03	9394.91
474.21	8917.44
474.39	9188.94
474.57	9254.48
474.75	9518.96
474.93	9322.35
475.12	9364.48
475.30	9612.58
475.48	9514.28
475.66	9497.89
475.84	9678.12
476.02	9568.11
476.20	9661.73
476.38	9827.91
476.56	10120.48
476.74	10094.73
476.92	10031.54
477.10	9914.51
477.28	9973.02
477.46	10059.62
477.64	10115.80
477.82	10303.04
478.00	10431.77
478.18	10380.28
478.36	10525.39
478.54	10672.84
478.72	10569.86
478.90	11037.97
479.08	10949.03
479.26	11162.01
479.44	10860.09
479.62	10944.34
479.80	11145.63
479.98	11260.32
480.16	11548.20
480.34	11599.70
480.52	11793.96
480.70	11836.09
480.88	11580.97
481.06	11562.25
481.24	11765.87
481.41	11889.92
481.59	11969.50
481.77	12154.40
481.95	12182.49
482.13	12390.80
482.31	12121.63
482.49	12390.80
482.67	12549.95
482.85	12767.62
483.03	12842.52
483.21	12975.93
483.39	13341.05
483.57	12978.27
483.74	13158.49
483.92	13315.31
484.10	13167.85
484.28	13511.91
484.46	13607.87
484.64	13895.76
484.82	13678.09
485.00	13722.56
485.18	13940.23
485.35	14321.74
485.53	14113.43
485.71	14462.17
485.89	14487.92
486.07	14382.59
486.25	14499.62
486.43	14473.87
486.61	14558.13
486.78	14640.05
486.96	14710.27
487.14	15330.51
487.32	15220.50
487.50	15257.95
487.68	15480.30
487.85	15513.07
488.03	15857.13
488.21	15798.62
488.39	16006.92
488.57	16395.45
488.75	16222.25
488.92	16219.91
489.10	16711.42
489.28	16650.57
489.46	16510.14
489.64	16940.80
489.81	16882.28
489.99	16996.97
490.17	17008.67
490.35	17497.84
490.53	16992.29
490.70	17404.22
490.88	17675.73
491.06	17706.15
491.24	18043.19
491.41	17972.97
491.59	18104.04
491.77	17942.55
491.95	17905.10
492.13	18277.24
492.30	18412.99
492.48	18523.00
492.66	18878.76
492.84	18686.84
493.01	19070.68
493.19	18768.76
493.37	19044.94
493.54	18944.30
493.72	19459.21
493.90	19164.31
494.08	19644.12
494.25	19721.35
494.43	19751.78
494.61	19665.18
494.79	20009.24
494.96	19887.53
495.14	20044.35
495.32	20280.74
495.49	20367.34
495.67	20486.71
495.85	20685.65
496.02	20975.88
496.20	20999.29
496.38	21493.14
496.55	20924.39
496.73	21362.07
496.91	21188.87
497.09	21345.69
497.26	21769.32
497.44	21357.39
497.62	21956.57
497.79	22008.06
497.97	21703.79
498.14	22022.10
498.32	22352.12
498.50	22075.93
498.67	22515.95
498.85	22410.63
499.03	22691.49
499.20	22455.10
499.38	22902.14
499.56	22878.74
499.73	23084.70
499.91	23002.78
500.08	23201.73
500.26	23283.65
500.44	23524.72
500.61	23442.81
500.79	23356.21
500.97	23580.90
501.14	23892.19
501.32	23730.69
501.49	23580.90
501.67	23592.60
501.84	23889.85
502.02	24013.90
502.20	23955.38
502.37	24498.39
502.55	24119.22
502.72	24311.14
502.90	24402.43
503.07	24245.61
503.25	24336.89
503.43	24634.14
503.60	24723.08
503.78	25010.96
503.95	24634.14
504.13	24959.47
504.30	25120.97
504.48	24823.72
504.65	25331.62
504.83	25539.93
505.01	25392.47
505.18	25544.61
505.36	25530.56
505.53	25572.69
505.71	25680.36
505.88	25989.31
506.06	25706.10
506.23	25809.09
506.41	25568.01
506.58	26054.84
506.76	26045.48
506.93	26349.75
507.11	26499.55
507.28	26459.76
507.46	26593.17
507.63	26473.80
507.81	26946.59
507.98	26565.08
508.16	26838.92
508.33	26944.25
508.50	26888.07
508.68	26991.06
508.85	27154.90
509.03	27185.32
509.20	27292.99
509.38	27632.36
509.55	27875.78
509.73	27646.41
509.90	27576.19
510.08	27288.31
510.25	27704.92
510.42	27873.44
510.60	27840.67
510.77	27704.92
510.95	28264.31
511.12	27976.42
511.30	28301.76
511.47	28166.01
511.64	28332.18
511.82	28533.47
511.99	28439.85
512.17	28657.52
512.34	28671.56
512.51	28959.45
512.69	28952.43
512.86	28996.90
513.04	29259.04
513.21	29200.52
513.38	29312.87
513.56	29216.91
513.73	29549.26
513.90	29228.61
514.08	29266.06
514.25	29465.00
514.43	29724.80
514.60	29324.57
514.77	29544.58
514.95	30211.64
515.12	29841.83
515.29	30045.46
515.47	30213.98
515.64	30270.15
515.81	29729.48
515.99	30389.52
516.16	30455.05
516.33	29951.84
516.51	30754.64
516.68	30408.24
516.85	30768.68
517.03	30457.39
517.20	30663.36
517.37	30932.52
517.54	30871.67
517.72	30623.57
517.89	30852.94
518.06	30986.35
518.24	31232.11
518.41	30913.80
518.58	30993.37
518.75	30925.50
518.93	31201.68
519.10	31065.93
519.27	31147.85
519.45	31470.84
519.62	31789.16
519.79	31611.28
519.96	31817.24
520.14	31782.13
520.31	31845.33
520.48	31665.11
520.65	32105.13
520.83	32128.53
521.00	32177.68
521.17	32275.99
521.34	32491.32
521.52	32893.89
521.69	32505.36
521.86	32638.77
522.03	33048.36
522.20	32617.71
522.38	33160.71
522.55	32697.28
522.72	32524.08
522.89	32973.47
523.07	33036.66
523.24	32837.72
523.41	33062.41
523.58	33001.55
523.75	33247.31
523.92	33228.59
524.10	33244.97
524.27	33273.06
524.44	33797.34
524.61	33441.57
524.78	33347.95
524.96	33532.86
525.13	33766.91
525.30	34225.65
525.47	34298.21
525.64	33947.13
525.81	33919.04
525.98	34288.85
526.16	34197.57
526.33	34195.23
526.50	34277.15
526.67	33965.85
526.84	34338.00
527.01	34010.32
527.18	34529.92
527.36	34625.89
527.53	34712.49
527.70	34679.72
527.87	34965.26
528.04	34499.50
528.21	34911.43
528.38	34625.89
528.55	35393.58
528.72	35007.39
528.89	35035.48
529.07	35166.55
529.24	34960.58
529.41	35707.21
529.58	34927.81
529.75	35487.20
529.92	35271.87
530.09	35454.44
530.26	35433.37
530.43	35267.19
530.60	35517.63
530.77	35372.52
530.94	35538.69
531.11	35618.27
531.28	35562.10
531.46	35959.99
531.63	36280.64
531.80	35414.65
531.97	35871.05
532.14	35688.49
532.31	35590.19
532.48	36243.20
532.65	36149.57
532.82	36030.21
532.99	36222.13
533.16	35772.75
533.33	36423.42
533.50	36404.69
533.67	36507.68
533.84	36388.31
534.01	36273.62
534.18	36561.51
534.35	36486.61
534.52	37036.64
534.69	37308.14
534.86	36975.78
535.03	36807.26
535.20	36584.91
535.37	37373.67
535.54	37099.83
535.71	36900.89
535.88	37291.76
536.05	37209.84
536.22	37436.87
536.38	37137.28
536.55	37326.86
536.72	37415.80
536.89	37581.98
537.06	37642.84
537.23	37422.83
537.40	37343.25
537.57	37134.94
537.74	37455.59
537.91	37488.36
538.08	37570.28
538.25	37584.32
538.42	37790.29
538.59	37560.92
538.75	37982.21
538.92	38099.24
539.09	38567.35
539.26	38220.95
539.43	38405.85
539.60	38469.04
539.77	38593.09
539.94	37818.38
540.11	38492.45
540.28	38433.94
540.44	38543.94
540.61	38440.96
540.78	38286.48
540.95	38548.62
541.12	38398.83
541.29	38623.52
541.46	38494.79
541.62	38607.14
541.79	38899.70
541.96	38485.43
542.13	38253.72
542.30	38403.51
542.47	38621.18
542.63	38520.54
542.80	39281.21
542.97	39150.14
543.14	39508.24
543.31	39548.03
543.48	39496.54
543.64	39690.80
543.81	39545.69
543.98	39339.72
544.15	39297.59
544.32	39737.62
544.48	39885.07
544.65	40037.20
544.82	39686.12
544.99	39526.97
545.16	39915.50
545.32	39758.68
545.49	40102.74
545.66	39711.87
545.83	40013.80
546.00	40142.53
546.16	39889.75
546.33	39971.67
546.50	39611.23
546.67	40100.40
546.83	39908.47
547.00	40313.39
547.17	39971.67
547.34	39976.35
547.50	40498.29
547.67	40755.75
547.84	40074.65
548.00	40488.93
548.17	40950.01
548.34	41048.32
548.51	40973.42
548.67	40687.87
548.84	40526.38
549.01	40212.74
549.18	40685.53
549.34	40678.51
549.51	40933.63
549.68	41200.45
549.84	40802.56
550.01	41015.55
550.18	40711.28
550.34	40713.62
550.51	40641.06
550.68	41326.84
550.84	40879.80
551.01	41153.64
551.18	40727.66
551.34	40830.65
551.51	41205.13
551.68	41769.20
551.84	41289.39
552.01	41216.83
552.18	40863.41
552.34	41237.90
552.51	41446.21
552.68	41462.59
552.84	41570.25
553.01	41062.36
553.18	41265.99
553.34	41867.50
553.51	41401.74
553.67	41820.69
553.84	42176.45
554.01	41923.68
554.17	41916.65
554.34	42190.50
554.51	41792.61
554.67	41659.20
554.84	41853.46
555.00	42010.28
555.17	41823.03
555.33	42213.90
555.50	42014.96
555.67	42164.75
555.83	42117.94
556.00	42115.60
556.16	42731.16
556.33	42129.64
556.50	42061.77
556.66	42469.02
556.83	41998.57
556.99	42410.51
557.16	42316.89
557.32	42621.16
557.49	42391.78
557.65	41839.42
557.82	42536.90
557.98	42457.32
558.15	42478.38
558.32	42602.43
558.48	42384.76
558.65	42653.92
558.81	42604.77
558.98	42639.88
559.14	42579.03
559.31	42728.82
559.47	42930.11
559.64	42948.83
559.80	42754.57
559.97	42590.73
560.13	42555.62
560.30	42967.55
560.46	42827.12
560.63	42979.26
560.79	42674.99
560.96	43126.71
561.12	42913.72
561.29	43232.04
561.45	43358.42
561.61	43037.77
561.78	43126.71
561.94	43126.71
562.11	42955.85
562.27	43147.78
562.44	43056.50
562.60	43576.09
562.77	43356.08
562.93	42766.27
563.10	43086.92
563.26	43068.20
563.42	43676.74
563.59	43330.34
563.75	43262.46
563.92	43447.36
564.08	43122.03
564.24	43421.62
564.41	43412.26
564.57	43763.34
564.74	43374.81
564.90	43330.34
565.07	43416.94
565.23	43351.40
565.39	43161.82
565.56	43653.33
565.72	43578.43
565.88	43901.43
566.05	44009.09
566.21	43653.33
566.38	43723.55
566.54	43248.42
566.70	43552.69
566.87	44046.54
567.03	43791.42
567.19	43842.92
567.36	44046.54
567.52	43594.82
567.68	44030.16
567.85	44004.41
568.01	43800.79
568.17	43835.89
568.34	43667.37
568.50	43821.85
568.66	43473.11
568.83	44060.58
568.99	43805.47
569.15	44189.31
569.32	43620.56
569.48	43945.90
569.64	44383.58
569.81	44074.63
569.97	43948.24
570.13	44062.93
570.30	43611.20
570.46	43995.05
570.62	43643.97
570.78	43800.79
570.95	44369.54
571.11	43992.71
571.27	43590.14
571.43	43894.41
571.60	43761.00
571.76	43716.53
571.92	44065.27
572.09	43805.47
572.25	43983.35
572.41	44130.80
572.57	44137.82
572.74	43920.15
572.90	44060.58
573.06	44215.06
573.22	44212.72
573.38	44182.29
573.55	44299.32
573.71	44573.16
573.87	44332.09
574.03	44360.17
574.20	44720.62
574.36	44011.43
574.52	43896.75
574.68	44144.84
574.84	44339.11
575.01	44589.55
575.17	44402.30
575.33	44194.00
575.49	44233.78
575.65	44392.94
575.82	44224.42
575.98	43952.92
576.14	44257.19
576.30	44830.62
576.46	44655.08
576.62	44154.21
576.79	44495.92
576.95	43732.91
577.11	44261.87
577.27	43899.09
577.43	44505.29
577.59	44425.71
577.75	44392.94
577.92	44140.16
578.08	44449.11
578.24	44467.84
578.40	44968.71
578.56	44903.18
578.72	44299.32
578.88	44512.31
579.04	44114.42
579.21	44406.98
579.37	44521.67
579.53	44306.34
579.69	44006.75
579.85	44357.83
580.01	44947.65
580.17	44708.91
580.33	44526.35
580.49	44715.93
580.65	44638.70
580.82	44507.63
580.98	44423.37
581.14	44268.89
581.30	44779.13
581.46	44172.93
581.62	44685.51
581.78	44385.92
581.94	44266.55
582.10	44732.32
582.26	44605.93
582.42	44580.18
582.58	44711.25
582.74	44582.52
582.90	44266.55
583.06	44844.66
583.22	44421.03
583.38	44921.90
583.54	44598.91
583.70	44713.59
583.86	44870.41
584.02	44851.69
584.18	45244.90
584.34	44886.79
584.50	44828.28
584.66	44903.18
584.82	45015.52
584.98	45120.85
585.14	44638.70
585.30	44446.77
585.46	44851.69
585.62	44832.96
585.78	44552.10
585.94	44842.32
586.10	44535.71
586.26	44301.66
586.42	44687.85
586.58	44870.41
586.74	44598.91
586.90	44402.30
587.06	44811.90
587.22	44765.09
587.38	44304.00
587.54	44978.07
587.70	44947.65
587.86	44673.81
588.02	44741.68
588.18	45116.17
588.34	44854.03
588.49	44708.91
588.65	44839.98
588.81	44683.17
588.97	44559.12
589.13	44877.43
589.29	44788.49
589.45	44968.71
589.61	44886.79
589.77	45177.02
589.93	45088.08
590.08	44783.81
590.24	45230.85
590.40	45385.33
590.56	45104.46
590.72	45085.74
590.88	45179.36
591.04	45251.92
591.20	45118.51
591.35	45291.71
591.51	45666.19
591.67	45301.07
591.83	45085.74
591.99	44942.97
592.15	44636.36
592.31	45343.20
592.46	45013.18
592.62	44722.96
592.78	45137.23
592.94	45588.95
593.10	45586.61
593.26	45521.08
593.41	45268.30
593.57	45570.23
593.73	45132.55
593.89	45462.57
594.05	45584.27
594.20	45663.85
594.36	45827.69
594.52	45277.66
594.68	45167.66
594.84	45450.86
594.99	45794.92
595.15	45399.37
595.31	45399.37
595.47	45734.07
595.62	45038.93
595.78	45574.91
595.94	45235.53
596.10	45460.23
596.25	45333.84
596.41	45661.51
596.57	45485.97
596.73	45511.72
596.88	45310.43
597.04	45411.07
597.20	45738.75
597.36	45427.46
597.51	45729.39
597.67	45268.30
597.83	45230.85
597.99	45525.76
598.14	45001.48
598.30	45322.13
598.46	45333.84
598.61	46106.21
598.77	45373.63
598.93	45598.32
599.09	45478.95
599.24	45736.41
599.40	45460.23
599.56	45434.48
599.71	45834.71
599.87	46501.76
600.03	45748.11
600.18	45631.08
600.34	45581.93
600.50	45684.92
600.65	45312.77
600.81	45734.07
600.97	45734.07
601.12	45368.94
601.28	45820.67
601.44	45628.74
601.59	45516.40
601.75	45280.00
601.91	46003.23
602.06	45701.30
602.22	46263.03
602.37	45095.10
602.53	45525.76
602.69	45909.61
602.84	45275.32
603.00	45584.27
603.16	45324.47
603.31	45787.90
603.47	45818.33
603.62	44982.76
603.78	45755.13
603.94	45289.37
604.09	45668.53
604.25	44987.44
604.40	45551.51
604.56	45715.34
604.71	45928.33
604.87	45724.71
605.03	45832.37
605.18	45514.06
605.34	45804.28
605.49	45488.31
605.65	45844.07
605.80	45434.48
605.96	45610.02
606.12	45404.05
606.27	45621.72
606.43	45305.75
606.58	45759.81
606.74	45778.54
606.89	45497.67
607.05	45301.07
607.20	45724.71
607.36	45460.23
607.51	45570.23
607.67	45326.81
607.82	45619.38
607.98	45319.79
608.13	45645.13
608.29	45478.95
608.44	45340.86
608.60	45450.86
608.75	45453.20
608.91	45251.92
609.06	45003.82
609.22	45481.29
609.37	45549.17
609.53	45741.09
609.68	45677.90
609.84	45268.30
609.99	45088.08
610.15	45282.34
610.30	45193.40
610.46	45160.64
610.61	45469.59
610.76	45118.51
610.92	45303.41
611.07	45202.77
611.23	45132.55
611.38	45069.36
611.54	45006.16
611.69	45076.38
611.84	45617.04
612.00	45036.59
612.15	45148.93
612.31	45162.98
612.46	44933.60
612.62	44935.95
612.77	44905.52
612.92	45453.20
613.08	45193.40
613.23	44996.80
613.39	45184.04
613.54	44875.09
613.69	45177.02
613.85	44931.26
614.00	44329.75
614.15	45008.50
614.31	44601.25
614.46	45116.17
614.62	44781.47
614.77	44762.75
614.92	44767.43
615.08	45104.46
615.23	45130.21
615.38	44704.23
615.54	44484.22
615.69	44900.84
615.84	45024.89
616.00	45179.36
616.15	44779.13
616.30	45366.60
616.46	44411.67
616.61	44624.65
616.76	45029.57
616.92	44641.04
617.07	44512.31
617.22	44514.65
617.37	44198.68
617.53	44795.51
617.68	44727.64
617.83	44657.42
617.99	44821.26
618.14	44608.27
618.29	44275.91
618.45	44414.01
618.60	44781.47
618.75	43894.41
618.90	44222.08
619.06	44720.62
619.21	44306.34
619.36	44594.23
619.51	44437.41
619.67	44306.34
619.82	44250.17
619.97	44713.59
620.12	44137.82
620.28	44357.83
620.43	44287.62
620.58	44652.74
620.73	44662.10
620.89	44280.60
621.04	44229.10
621.19	43709.50
621.34	44238.47
621.49	44231.44
621.65	43931.86
621.80	44495.92
621.95	44011.43
622.10	44142.50
622.25	43976.33
622.41	44091.01
622.56	44233.78
622.71	44296.98
622.86	43761.00
623.01	44098.03
623.16	43938.88
623.32	43978.67
623.47	43831.21
623.62	44123.78
623.77	43639.29
623.92	43789.08
624.07	43831.21
624.23	43852.28
624.38	43889.73
624.53	43639.29
624.68	43426.30
624.83	42880.95
624.98	43564.39
625.13	43079.90
625.29	43730.57
625.44	43550.35
625.59	43360.76
625.74	43569.07
625.89	43459.07
626.04	43157.14
626.19	43325.66
626.34	43580.78
626.49	43248.42
626.65	43203.95
626.80	43199.27
626.95	42953.51
627.10	43026.07
627.25	43049.47
627.40	43068.20
627.55	43185.22
627.70	42967.55
627.85	43423.96
628.00	43192.25
628.15	43079.90
628.30	42534.56
628.45	43161.82
628.60	42422.21
628.76	42873.93
628.91	42763.93
629.06	43000.32
629.21	42651.58
629.36	42749.88
629.51	42712.44
629.66	42815.42
629.81	42909.04
629.96	42836.48
630.11	43089.26
630.26	42377.74
630.41	42667.97
630.56	42375.40
630.71	42469.02
630.86	42693.71
631.01	42209.22
631.16	42663.28
631.31	42457.32
631.46	42520.51
631.61	42487.74
631.76	42667.97
631.91	42602.43
632.06	43185.22
632.21	42511.15
632.36	42937.13
632.51	42167.09
632.66	42546.26
632.81	42698.39
632.96	42459.66
633.10	42155.39
633.25	42115.60
633.40	41998.57
633.55	42445.62
633.70	42124.96
633.85	42518.17
634.00	41680.26
634.15	41759.84
634.30	42021.98
634.45	42017.30
634.60	42087.51
634.75	42368.38
634.90	41820.69
635.05	42490.09
635.19	42101.56
635.34	42087.51
635.49	42291.14
635.64	42157.73
635.79	42314.55
635.94	42101.56
636.09	42305.18
636.24	41972.83
636.39	42174.11
636.53	41764.52
636.68	41787.92
636.83	41518.76
636.98	41605.36
637.13	41488.34
637.28	41947.08
637.43	41397.06
637.57	41848.78
637.72	41539.83
637.87	41106.83
638.02	41605.36
638.17	41069.38
638.32	40690.21
638.46	41104.49
638.61	41390.03
638.76	41106.83
638.91	41312.80
639.06	41167.68
639.20	41111.51
639.35	40952.35
639.50	41113.85
639.65	41551.53
639.80	41308.11
639.94	41628.77
640.09	41090.44
640.24	41317.48
640.39	40481.91
640.54	40664.47
640.68	41191.09
640.83	41256.62
640.98	41177.04
641.13	41031.93
641.27	41347.90
641.42	41050.66
641.57	40737.02
641.72	40865.75
641.86	40470.20
642.01	40708.94
642.16	40825.96
642.31	40437.44
642.45	40762.77
642.60	40313.39
642.75	40783.83
642.90	40685.53
643.04	40505.31
643.19	40797.88
643.34	40168.27
643.48	40311.05
643.63	40645.74
643.78	40451.48
643.93	40795.54
644.07	40884.48
644.22	40591.91
644.37	40304.02
644.51	40664.47
644.66	40224.45
644.81	40315.73
644.95	40816.60
645.10	40465.52
645.25	40182.32
645.39	40233.81
645.54	40392.97
645.69	39903.79
645.83	40161.25
645.98	39735.27
646.13	40353.18
646.27	39915.50
646.42	39531.65
646.57	40376.58
646.71	40509.99
646.86	40100.40
647.00	40439.78
647.15	40247.85
647.30	40023.16
647.44	40069.97
647.59	39648.68
647.74	39728.25
647.88	40041.88
648.03	40048.91
648.17	40261.90
648.32	39847.62
648.47	40208.06
648.61	39796.13
648.76	39548.03
648.90	39920.18
649.05	39632.29
649.20	39845.28
649.34	39966.99
649.49	40229.13
649.63	39400.58
649.78	39871.03
649.92	39793.79
650.07	39941.24
650.21	40002.10
650.36	39948.26
650.51	39641.65
650.65	39728.25
650.80	39651.02
650.94	39505.90
651.09	39489.52
651.23	39124.40
651.38	39592.50
651.52	39147.80
651.67	39140.78
651.81	39468.45
651.96	39526.97
652.10	39161.84
652.25	39040.14
652.39	38993.32
652.54	39473.13
652.68	38932.47
652.83	39351.43
652.97	38866.94
653.12	39257.81
653.26	38763.95
653.41	38906.73
653.55	39201.63
653.70	39222.70
653.84	39086.95
653.99	39269.51
654.13	38808.42
654.27	38869.28
654.42	39522.29
654.56	38808.42
654.71	38724.16
654.85	38880.98
655.00	39157.16
655.14	39222.70
655.29	38892.68
655.43	39112.69
655.57	38740.55
655.72	38391.81
655.86	38410.53
656.01	38373.08
656.15	38188.18
656.30	38637.56
656.44	38443.30
656.58	38361.38
656.73	38349.68
656.87	38352.02
657.01	37935.40
657.16	38508.83
657.30	38328.61
657.45	38333.29
657.59	37933.06
657.73	38061.79
657.88	38050.09
658.02	38300.53
658.16	38330.95
658.31	38181.16
658.45	38328.61
658.60	37830.08
658.74	37937.74
658.88	38197.54
659.03	38064.13
659.17	37656.88
659.31	37392.40
659.46	37663.90
659.60	37832.42
659.74	37603.05
659.89	37406.44
660.03	37373.67
660.17	37677.94
660.32	37593.68
660.46	37401.76
660.60	36882.16
660.74	37511.77
660.89	37226.22
661.03	36912.59
661.17	37001.53
661.32	37282.39
661.46	37471.98
661.60	37212.18
661.74	36889.18
661.89	37195.79
662.03	36889.18
662.17	37160.69
662.31	36533.42
662.46	36964.08
662.60	36346.18
662.74	36414.05
662.88	36304.05
663.03	36470.23
663.17	36563.85
663.31	36369.58
663.45	36650.45
663.60	36481.93
663.74	36149.57
663.88	36465.55
664.02	35945.95
664.17	36676.19
664.31	35859.35
664.45	35941.27
664.59	35999.78
664.73	36004.46
664.88	35957.65
665.02	35707.21
665.16	36144.89
665.30	35819.56
665.44	36079.36
665.59	35524.65
665.73	35409.96
665.87	35208.68
666.01	35648.70
666.15	35463.80
666.29	35292.94
666.44	35796.15
666.58	35269.53
666.72	34913.77
666.86	35208.68
667.00	35402.94
667.14	34902.07
667.28	35220.38
667.43	34703.12
667.57	35510.61
667.71	35276.55
667.85	34967.60
667.99	34897.39
668.13	34609.50
668.27	34377.79
668.41	34803.77
668.56	34246.72
668.70	34529.92
668.84	34054.79
668.98	33933.09
669.12	34415.24
669.26	34347.36
669.40	34373.11
669.54	34078.20
669.68	34363.75
669.82	34012.66
669.96	33780.95
670.10	33141.99
670.25	33680.31
670.39	33687.33
670.53	33867.55
670.67	33895.64
670.81	34216.29
670.95	33797.34
671.09	33649.88
671.23	33315.19
671.37	33797.34
671.51	33013.26
671.65	33123.26
671.79	33371.36
671.93	33579.67
672.07	33195.82
672.21	33060.07
672.35	32662.18
672.49	32891.55
672.63	33350.29
672.77	32383.65
672.91	32877.51
673.05	32381.31
673.19	32500.68
673.33	32367.27
673.47	32472.59
673.61	32250.24
673.75	32009.17
673.89	32247.90
674.03	31960.02
674.17	31866.39
674.31	31819.58
674.45	31484.89
674.59	31784.48
674.73	31419.35
674.87	31548.08
675.01	31585.53
675.15	31271.90
675.29	31321.05
675.43	31035.50
675.56	31454.46
675.70	31243.81
675.84	30916.14
675.98	30228.02
676.12	31042.53
676.26	31129.12
676.40	30834.22
676.54	30600.16
676.68	30726.55
676.82	29860.55
676.96	30508.88
677.10	30312.28
677.23	30279.51
677.37	30368.45
677.51	30204.61
677.65	30251.42
677.79	30040.78
677.93	29972.90
678.07	29715.44
678.21	29469.69
678.34	29596.07
678.48	29034.35
678.62	29228.61
678.76	28966.47
678.90	29312.87
679.04	29020.30
679.18	29268.40
679.31	29254.36
679.45	28891.57
679.59	28575.60
679.73	28568.58
679.87	28505.38
680.00	28601.35
680.14	28563.90
680.28	28386.02
680.42	28304.10
680.56	28355.59
680.70	27821.95
680.83	27524.70
680.97	27646.41
681.11	27997.49
681.25	27496.61
681.39	27686.20
681.52	27330.44
681.66	27426.40
681.80	26665.72
681.94	27166.60
682.07	27080.00
682.21	26700.83
682.35	26703.17
682.49	27028.51
682.62	26363.79
682.76	27143.19
682.90	26801.47
683.04	26560.40
683.17	26593.17
683.31	26178.89
683.45	25923.77
683.59	26047.82
683.72	26026.76
683.86	25731.85
684.00	25671.00
684.13	25738.87
684.27	25408.86
684.41	25586.74
684.55	25488.43
684.68	25380.77
684.82	25069.48
684.96	25191.19
685.09	25312.89
685.23	25025.01
685.37	25163.10
685.50	25200.55
685.64	25083.52
685.78	24903.30
685.91	24325.19
686.05	24285.40
686.19	23967.09
686.32	24107.52
686.46	23758.78
686.60	23833.68
686.73	23931.98
686.87	23873.46
687.01	24088.79
687.14	23740.05
687.28	23669.84
687.42	23721.33
687.55	23475.57
687.69	23396.00
687.82	23470.89
687.96	23042.57
688.10	23147.90
688.23	22995.76
688.37	23124.49
688.50	23243.86
688.64	22904.48
688.78	23030.87
688.91	22588.51
689.05	22539.36
689.18	22394.25
689.32	22078.27
689.46	22270.20
689.59	22298.28
689.73	21855.92
689.86	22434.03
690.00	22284.24
690.13	21795.07
690.27	21635.91
690.41	21624.21
690.54	21575.06
690.68	21490.80
690.81	21406.54
690.95	21343.35
691.08	20840.13
691.22	21305.90
691.35	20856.51
691.49	21200.57
691.62	20947.79
691.76	20547.56
691.89	20655.23
692.03	20397.77
692.16	20294.79
692.30	20624.80
692.43	20456.28
692.57	20067.75
692.70	20329.89
692.84	20257.34
692.97	19777.53
693.11	19946.05
693.24	19941.36
693.38	19889.87
693.51	19381.98
693.65	19342.19
693.78	19548.15
693.92	19475.60
694.05	19206.44
694.19	19281.33
694.32	19201.76
694.45	19353.89
694.59	19295.38
694.72	19435.81
694.86	18995.79
694.99	18693.86
695.13	18572.15
695.26	18565.13
695.39	18483.21
695.53	18464.49
695.66	18429.38
695.80	18349.80
695.93	18078.30
696.07	18293.63
696.20	17991.70
696.33	17598.49
696.47	17743.60
696.60	17792.75
696.73	17795.09
696.87	17926.16
697.00	17603.17
697.14	17284.86
697.27	17074.21
697.40	17256.77
697.54	17500.19
697.67	17018.04
697.80	17046.12
697.94	17137.40
698.07	16966.54
698.21	17003.99
698.34	16982.93
698.47	16336.94
698.61	16297.15
698.74	16372.05
698.87	16575.67
699.01	16107.57
699.14	16374.39
699.27	16252.68
699.40	16077.14
699.54	16287.79
699.67	16154.38
699.80	15910.96
699.94	16088.84
700.07	15988.20
700.20	15847.77
700.34	15639.46
700.47	15295.40
700.60	15742.44
700.73	15442.85
700.87	15332.85
701.00	15157.31
701.13	15023.90
701.26	15131.56
701.40	15314.13
701.53	14909.21
701.66	15049.64
701.79	15044.96
701.93	14689.20
702.06	14675.16
702.19	14696.22
702.32	14525.36
702.46	14480.89
702.59	14501.96
702.72	14743.03
702.85	14581.54
702.99	14494.94
703.12	14129.81
703.25	14066.62
703.38	13872.36
703.51	13977.68
703.65	13785.76
703.78	13661.71
703.91	13603.19
704.04	13544.68
704.17	13696.82
704.31	13551.70
704.44	13397.23
704.57	13399.57
704.70	13394.89
704.83	13371.48
704.96	13057.85
705.10	13041.46
705.23	13156.15
>>>>>End Processed Spectral Data<<<<<
