SpectraSuite Data File
++++++++++++++++++++++++++++++++++++
Date: Fri Oct 25 10:47:58 EDT 2013
User: price-jones
Dark Spectrum Present: No
Reference Spectrum Present: No
Number of Sampled Component Spectra: 1
Spectrometers: USB2+H05261
Integration Time (usec): 100000 (USB2+H05261)
Spectra Averaged: 1 (USB2+H05261)
Boxcar Smoothing: 0 (USB2+H05261)
Correct for Electrical Dark: No (USB2+H05261)
Strobe/Lamp Enabled: No (USB2+H05261)
Correct for Detector Non-linearity: No (USB2+H05261)
Correct for Stray Light: No (USB2+H05261)
Number of Pixels in Processed Spectrum: 2048
>>>>>Begin Processed Spectral Data<<<<<
365.73	126.39
365.92	126.39
366.12	126.39
366.32	133.41
366.52	65.54
366.72	23.41
366.91	23.41
367.11	14.04
367.31	95.96
367.51	25.75
367.70	0.00
367.90	56.17
368.10	25.75
368.30	58.51
368.49	77.24
368.69	110.01
368.89	72.56
369.09	93.62
369.28	49.15
369.48	189.58
369.68	67.88
369.87	128.73
370.07	74.90
370.27	114.69
370.47	252.78
370.66	393.21
370.86	393.21
371.06	465.77
371.25	437.68
371.45	451.72
371.65	500.87
371.84	486.83
372.04	416.62
372.24	524.28
372.44	521.94
372.63	465.77
372.83	442.36
373.03	498.53
373.22	498.53
373.42	428.32
373.62	573.43
373.81	512.58
374.01	592.16
374.21	493.85
374.40	608.54
374.60	608.54
374.79	554.71
374.99	622.58
375.19	496.19
375.38	510.24
375.58	561.73
375.78	540.66
375.97	538.32
376.17	564.07
376.37	620.24
376.56	582.79
376.76	629.60
376.95	573.43
377.15	564.07
377.35	608.54
377.54	627.26
377.74	638.97
377.93	559.39
378.13	636.63
378.33	599.18
378.52	519.60
378.72	643.65
378.91	634.29
379.11	596.84
379.31	596.84
379.50	550.03
379.70	685.78
379.89	716.20
380.09	645.99
380.28	631.94
380.48	631.94
380.68	718.54
380.87	674.07
381.07	667.05
381.26	636.63
381.46	636.63
381.65	688.12
381.85	704.50
382.04	645.99
382.24	730.25
382.43	662.37
382.63	674.07
382.83	718.54
383.02	706.84
383.22	791.10
383.41	667.05
383.61	704.50
383.80	746.63
384.00	709.18
384.19	732.59
384.39	791.10
384.58	802.80
384.78	767.70
384.97	725.57
385.17	727.91
385.36	685.78
385.56	727.91
385.75	737.27
385.95	730.25
386.14	777.06
386.34	713.86
386.53	767.70
386.72	784.08
386.92	837.91
387.11	823.87
387.31	732.59
387.50	816.85
387.70	770.04
387.89	858.98
388.09	800.46
388.28	830.89
388.48	901.11
388.67	847.27
388.86	884.72
389.06	873.02
389.25	912.81
389.45	891.74
389.64	887.06
389.84	950.26
390.03	908.13
390.22	1008.77
390.42	877.70
390.61	898.77
390.81	915.15
391.00	917.49
391.19	954.94
391.39	903.45
391.58	987.71
391.78	915.15
391.97	966.64
392.16	936.21
392.36	1046.22
392.55	1022.81
392.75	1022.81
392.94	947.92
393.13	938.55
393.33	971.32
393.52	1067.28
393.71	1057.92
393.91	1053.24
394.10	926.85
394.29	1069.62
394.49	1067.28
394.68	1165.59
394.88	1095.37
395.07	1233.46
395.26	1043.88
395.46	1104.73
395.65	1116.44
395.84	1188.99
396.04	1233.46
396.23	1090.69
396.42	1160.91
396.62	1118.78
396.81	1132.82
397.00	1149.20
397.19	1217.08
397.39	1214.74
397.58	1338.79
397.77	1261.55
397.97	1303.68
398.16	1282.61
398.35	1287.29
398.55	1322.40
398.74	1249.85
398.93	1242.82
399.12	1181.97
399.32	1397.30
399.51	1306.02
399.70	1327.08
399.90	1249.85
400.09	1364.53
400.28	1437.09
400.47	1490.92
400.67	1446.45
400.86	1343.47
401.05	1411.34
401.24	1453.47
401.44	1624.33
401.63	1479.22
401.82	1416.02
402.01	1441.77
402.21	1472.20
402.40	1589.22
402.59	1554.12
402.78	1551.78
402.97	1540.07
403.17	1582.20
403.36	1483.90
403.55	1514.33
403.74	1643.06
403.93	1614.97
404.13	1582.20
404.32	1647.74
404.51	1659.44
404.70	1626.67
404.89	1549.43
405.09	1696.89
405.28	1699.23
405.47	1682.85
405.66	1734.34
405.85	1715.61
406.05	1769.44
406.24	1771.79
406.43	1753.06
406.62	1881.79
406.81	1888.81
407.00	1816.26
407.20	1872.43
407.39	1771.79
407.58	1893.49
407.77	1949.67
407.96	1860.73
408.15	2064.35
408.34	1952.01
408.54	2050.31
408.73	1944.99
408.92	1930.94
409.11	1975.41
409.30	2134.57
409.49	1982.43
409.68	1947.33
409.87	1998.82
410.07	2066.69
410.26	2127.55
410.45	2010.52
410.64	2127.55
410.83	2167.34
411.02	2139.25
411.21	2401.39
411.40	2165.00
411.59	2265.64
411.78	2223.51
411.98	2312.45
412.17	2260.96
412.36	2373.30
412.55	2333.51
412.74	2415.43
412.93	2392.03
413.12	2466.92
413.31	2464.58
413.50	2368.62
413.69	2607.36
413.88	2619.06
414.07	2588.63
414.26	2668.21
414.45	2633.10
414.64	2637.78
414.83	2752.47
415.02	2665.87
415.22	2562.89
415.41	2782.90
415.60	2787.58
415.79	2794.60
415.98	2918.65
416.17	2853.11
416.36	2836.73
416.55	2869.50
416.74	2834.39
416.93	2792.26
417.12	3000.57
417.31	2995.89
417.50	3014.61
417.69	3136.32
417.88	3080.14
418.07	2911.63
418.26	3101.21
418.45	3061.42
418.64	3115.25
418.83	2991.20
419.02	3056.74
419.21	3173.77
419.39	3082.49
419.58	3155.04
419.77	3215.90
419.96	3246.32
420.15	3211.22
420.34	3222.92
420.53	3368.03
420.72	3377.39
420.91	3248.66
421.10	3412.50
421.29	3393.78
421.48	3272.07
421.67	3524.85
421.86	3424.20
422.05	3211.22
422.24	3332.92
422.43	3365.69
422.61	3438.25
422.80	3417.18
422.99	3389.10
423.18	3604.42
423.37	3536.55
423.56	3478.04
423.75	3506.12
423.94	3314.20
424.13	3272.07
424.32	3379.73
424.50	3655.92
424.69	3595.06
424.88	3440.59
425.07	3365.69
425.26	3414.84
425.45	3578.68
425.64	3559.95
425.83	3461.65
426.01	3569.32
426.20	3581.02
426.39	3506.12
426.58	3613.79
426.77	3552.93
426.96	3571.66
427.15	3676.98
427.33	3578.68
427.52	3602.08
427.71	3761.24
427.90	3721.45
428.09	3749.54
428.28	3817.41
428.46	3810.39
428.65	3836.14
428.84	3889.97
429.03	3796.35
429.22	3674.64
429.40	3941.46
429.59	3777.62
429.78	3541.23
429.97	3611.45
430.16	3599.74
430.34	3880.61
430.53	3838.48
430.72	3796.35
430.91	3934.44
431.10	3995.29
431.28	4042.11
431.47	4004.66
431.66	4257.43
431.85	4046.79
432.03	4131.05
432.22	4252.75
432.41	4070.19
432.60	4147.43
432.79	4287.86
432.97	4236.37
433.16	4161.47
433.35	4177.86
433.54	4203.60
433.72	4278.50
433.91	4191.90
434.10	4250.41
434.28	4407.23
434.47	4425.95
434.66	4411.91
434.85	4475.10
435.03	4348.72
435.22	4519.57
435.41	4514.89
435.59	4428.29
435.78	4568.73
435.97	4606.17
436.16	4407.23
436.34	4524.26
436.53	4552.34
436.72	4706.82
436.90	4470.42
437.09	4645.96
437.28	4568.73
437.46	4603.83
437.65	4699.80
437.84	4744.27
438.02	4521.92
438.21	4814.48
438.40	4648.30
438.58	4915.12
438.77	4800.44
438.96	4917.47
439.14	4905.76
439.33	5060.24
439.52	4983.00
439.70	4999.38
439.89	5078.96
440.08	5191.31
440.26	5064.92
440.45	5104.71
440.63	5254.50
440.82	5203.01
441.01	5259.18
441.19	5345.78
441.38	5322.38
441.57	5504.94
441.75	5383.23
441.94	5757.72
442.12	5570.48
442.31	5699.20
442.50	5518.98
442.68	5530.69
442.87	5483.88
443.05	5771.76
443.24	5741.33
443.43	5561.11
443.61	5657.07
443.80	5891.13
443.98	5568.13
444.17	5483.88
444.35	5731.97
444.54	5797.51
444.73	5818.57
444.91	5708.57
445.10	5795.17
445.28	5884.11
445.47	5687.50
445.65	5783.46
445.84	5898.15
446.02	5959.00
446.21	5919.21
446.39	5856.02
446.58	6061.99
446.77	6036.24
446.95	5673.46
447.14	6015.18
447.32	5940.28
447.51	5966.03
447.69	6087.73
447.88	6031.56
448.06	5987.09
448.25	6024.54
448.43	6076.03
448.62	5949.64
448.80	6001.13
448.99	6031.56
449.17	6010.50
449.36	6169.65
449.54	6090.07
449.73	6106.46
449.91	6321.79
450.10	6354.55
450.28	6356.90
450.46	6396.68
450.65	6300.72
450.83	6317.11
451.02	6422.43
451.20	6396.68
451.39	6289.02
451.57	6504.35
451.76	6328.81
451.94	6408.39
452.13	6534.78
452.31	6235.19
452.49	6363.92
452.68	6438.81
452.86	6349.87
453.05	6513.71
453.23	6663.51
453.42	6504.35
453.60	6576.91
453.78	6597.97
453.97	6731.38
454.15	6633.08
454.34	6539.46
454.52	6808.62
454.70	6715.00
454.89	6867.13
455.07	6862.45
455.26	6920.96
455.44	6897.56
455.62	6977.14
455.81	6810.96
455.99	6930.33
456.17	6878.83
456.36	7037.99
456.54	7129.27
456.73	7007.56
456.91	7180.76
457.09	7211.19
457.28	7318.86
457.46	7222.89
457.64	7201.83
457.83	7243.96
458.01	7208.85
458.19	7400.77
458.38	7405.46
458.56	7356.30
458.74	7288.43
458.93	7302.47
459.11	7569.29
459.29	7454.61
459.48	7300.13
459.66	7482.69
459.84	7494.40
460.03	7691.00
460.21	7618.44
460.39	7616.10
460.57	7552.91
460.76	7676.96
460.94	7604.40
461.12	7836.11
461.31	7700.36
461.49	7683.98
461.67	7775.26
461.85	7815.05
462.04	7819.73
462.22	8367.42
462.40	7859.52
462.59	7974.21
462.77	7765.90
462.95	8021.02
463.13	8025.70
463.32	8051.44
463.50	7967.18
463.68	7983.57
463.86	8163.79
464.05	7971.86
464.23	7943.78
464.41	8025.70
464.59	7882.92
464.78	8315.92
464.96	8210.60
465.14	7896.97
465.32	8198.90
465.50	8299.54
465.69	8252.73
465.87	8219.96
466.05	8278.47
466.23	8365.07
466.41	8241.03
466.60	8503.17
466.78	8234.00
466.96	8241.03
467.14	8140.38
467.32	8629.56
467.51	8369.76
467.69	8210.60
467.87	8290.18
468.05	8500.83
468.23	8432.95
468.41	8557.00
468.60	8585.08
468.78	8580.40
468.96	8472.74
469.14	8648.28
469.32	8784.03
469.50	8505.51
469.69	8945.53
469.87	8835.52
470.05	8905.74
470.23	8741.90
470.41	8872.97
470.59	8997.02
470.77	8929.14
470.95	8805.10
471.14	9186.60
471.32	8896.38
471.50	9413.63
471.68	9275.54
471.86	9298.95
472.04	9305.97
472.22	9570.45
472.40	9298.95
472.58	9167.88
472.77	9451.08
472.95	9577.47
473.13	9797.48
473.31	9657.05
473.49	9439.38
473.67	9500.23
473.85	9811.53
474.03	9893.44
474.21	9958.98
474.39	9923.87
474.57	9958.98
474.75	9998.77
474.93	10242.18
475.12	10003.45
475.30	10054.94
475.48	10162.61
475.66	10370.91
475.84	10408.36
476.02	10134.52
476.20	10490.28
476.38	10384.96
476.56	10867.11
476.74	10642.42
476.92	10640.08
477.10	10567.52
477.28	10855.40
477.46	10944.34
477.64	11162.01
477.82	11091.80
478.00	11438.20
478.18	11318.83
478.36	11260.32
478.54	11557.57
478.72	11611.40
478.90	11475.65
479.08	11761.19
479.26	11784.60
479.44	11936.73
479.62	12077.16
479.80	11889.92
479.98	11985.88
480.16	12390.80
480.34	12491.44
480.52	12336.96
480.70	12273.77
480.88	12367.39
481.06	12531.23
481.24	12587.40
481.41	12957.21
481.59	13032.10
481.77	13055.51
481.95	13217.01
482.13	13076.57
482.31	13249.77
482.49	13394.89
482.67	13504.89
482.85	13537.66
483.03	13816.18
483.21	13877.04
483.39	13731.92
483.57	13898.10
483.74	13951.93
483.92	14253.86
484.10	13893.42
484.28	14178.97
484.46	14508.98
484.64	14764.10
484.82	14633.03
485.00	14810.91
485.18	15049.64
485.35	15035.60
485.53	15068.37
485.71	15026.24
485.89	15321.15
486.07	15264.97
486.25	15379.66
486.43	15337.53
486.61	15623.08
486.78	15796.28
486.96	16070.12
487.14	15896.92
487.32	16503.12
487.50	16437.58
487.68	16369.71
487.85	16989.95
488.03	16702.06
488.21	17008.67
488.39	16823.77
488.57	17081.23
488.75	16931.44
488.92	17413.59
489.10	17561.04
489.28	18097.02
489.46	17926.16
489.64	17692.11
489.81	18253.84
489.99	18174.26
490.17	18661.09
490.35	18597.90
490.53	18520.66
490.70	18703.22
490.88	18902.17
491.06	19232.18
491.24	19021.53
491.41	19096.43
491.59	18974.72
491.77	19098.77
491.95	19569.22
492.13	19454.53
492.30	19491.98
492.48	19903.92
492.66	20063.07
492.84	19616.03
493.01	20180.10
493.19	19969.45
493.37	20477.35
493.54	20444.58
493.72	20788.64
493.90	20641.18
494.08	20980.56
494.25	20975.88
494.43	20938.43
494.61	21329.30
494.79	21359.73
494.96	21558.67
495.14	21324.62
495.32	21649.96
495.49	21551.65
495.67	21996.35
495.85	22164.87
496.02	22450.42
496.20	22363.82
496.38	22270.20
496.55	22448.08
496.73	22803.84
496.91	22593.19
497.09	22759.37
497.26	22902.14
497.44	23140.88
497.62	23248.54
497.79	23344.50
497.97	23028.53
498.14	23356.21
498.32	23606.64
498.50	23403.02
498.67	23487.28
498.85	23646.43
499.03	24135.60
499.20	24006.87
499.38	24280.72
499.56	24524.13
499.73	24163.69
499.91	24458.60
500.08	24624.78
500.26	24156.67
500.44	24737.12
500.61	24535.84
500.79	24662.22
500.97	24622.44
501.14	25429.92
501.32	25085.86
501.49	25193.53
501.67	25202.89
501.84	25333.96
502.02	25436.94
502.20	25263.74
502.37	25715.47
502.55	25647.59
502.72	25886.32
502.90	25717.81
503.07	25790.36
503.25	25977.61
503.43	26038.46
503.60	25982.29
503.78	26335.71
503.95	26445.71
504.13	26171.87
504.30	26602.53
504.48	26525.29
504.65	26799.13
504.83	26897.44
505.01	26817.86
505.18	26775.73
505.36	27257.88
505.53	27070.64
505.71	27241.50
505.88	27435.76
506.06	27463.85
506.23	27316.39
506.41	27105.74
506.58	27475.55
506.76	27517.68
506.93	27648.75
507.11	27644.07
507.28	27676.83
507.46	27833.65
507.63	27857.06
507.81	27728.33
507.98	27494.27
508.16	28379.00
508.33	28088.77
508.50	28489.00
508.68	28107.49
508.85	28802.63
509.03	28718.37
509.20	28964.13
509.38	28947.75
509.55	29184.14
509.73	29200.52
509.90	28987.53
510.08	29036.69
510.25	29078.82
510.42	28762.84
510.60	29223.93
510.77	29097.54
510.95	29397.13
511.12	29385.43
511.30	29408.83
511.47	29968.22
511.64	30377.81
511.82	29993.97
511.99	29448.62
512.17	30017.37
512.34	30061.84
512.51	30134.40
512.69	30230.36
512.86	29961.20
513.04	30178.87
513.21	30675.06
513.38	30192.91
513.56	30625.91
513.73	30553.35
513.90	30632.93
514.08	30597.82
514.25	31192.32
514.43	31089.34
514.60	30895.07
514.77	31012.10
514.95	31342.11
515.12	31204.02
515.29	31419.35
515.47	31030.82
515.64	31793.84
515.81	31662.77
515.99	31669.79
516.16	31606.59
516.33	31634.68
516.51	31756.39
516.68	31611.28
516.85	31620.64
517.03	31950.65
517.20	31482.55
517.37	32041.93
517.54	32027.89
517.72	32371.95
517.89	32044.27
518.06	32247.90
518.24	32142.58
518.41	32051.30
518.58	32481.95
518.75	32357.91
518.93	32608.34
519.10	32680.90
519.27	32739.41
519.45	32865.80
519.62	33179.43
519.79	33191.14
519.96	33188.80
520.14	33275.40
520.31	32659.84
520.48	33273.06
520.65	33024.96
520.83	33369.02
521.00	33432.21
521.17	33413.49
521.34	33677.97
521.52	33944.79
521.69	33773.93
521.86	34195.23
522.03	34328.64
522.20	34319.28
522.38	34136.71
522.55	34045.43
522.72	34277.15
522.89	34330.98
523.07	34298.21
523.24	34099.26
523.41	34513.54
523.58	34581.42
523.75	34642.27
523.92	35168.89
524.10	34806.11
524.27	34859.94
524.44	34866.96
524.61	35014.41
524.78	35068.25
524.96	35047.18
525.13	35175.91
525.30	35332.73
525.47	35225.06
525.64	35557.42
525.81	35414.65
525.98	35239.11
526.16	35211.02
526.33	34946.54
526.50	35770.41
526.67	35267.19
526.84	35840.62
527.01	35480.18
527.18	35665.08
527.36	36297.03
527.53	36032.55
527.70	36037.23
527.87	36247.88
528.04	36168.30
528.21	35791.47
528.38	36299.37
528.55	36046.59
528.72	36432.78
528.89	36472.57
529.07	36727.69
529.24	36437.46
529.41	36383.63
529.58	36156.60
529.75	36411.71
529.92	36961.74
530.09	36575.55
530.26	36788.54
530.43	36926.63
530.60	36854.08
530.77	36935.99
530.94	37500.06
531.11	36783.86
531.28	37043.66
531.46	37081.11
531.63	37289.42
531.80	36935.99
531.97	36973.44
532.14	37401.76
532.31	36968.76
532.48	37329.20
532.65	37926.04
532.82	37303.46
532.99	37469.64
533.16	37457.93
533.33	37624.11
533.50	37794.97
533.67	37865.19
533.84	37720.07
534.01	37741.14
534.18	37869.87
534.35	38384.79
534.52	37902.64
534.69	37886.25
534.86	38087.54
535.03	37851.14
535.20	38314.57
535.37	38733.53
535.54	38312.23
535.71	38176.48
535.88	38438.62
536.05	38256.06
536.22	38630.54
536.38	38122.65
536.55	38244.35
536.72	38742.89
536.89	38618.84
537.06	38476.07
537.23	38590.75
537.40	38602.46
537.57	38309.89
537.74	38754.59
537.91	38946.51
538.08	39119.71
538.25	38703.10
538.42	38944.17
538.59	39058.86
538.75	38902.04
538.92	39360.79
539.09	39147.80
539.26	39522.29
539.43	39243.76
539.60	39648.68
539.77	39351.43
539.94	39281.21
540.11	38607.14
540.28	39786.77
540.44	39257.81
540.61	39288.23
540.78	39129.08
540.95	39386.54
541.12	39746.98
541.29	39709.53
541.46	39529.31
541.62	39924.86
541.79	39938.90
541.96	39779.74
542.13	39878.05
542.30	40027.84
542.47	39889.75
542.63	39674.42
542.80	40252.53
542.97	40463.18
543.14	40744.05
543.31	40505.31
543.48	40514.67
543.64	41134.92
543.81	40399.99
543.98	40437.44
544.15	40348.50
544.32	41209.81
544.48	40671.49
544.65	40774.47
544.82	40767.45
544.99	40456.16
545.16	40957.03
545.32	40772.13
545.49	41317.48
545.66	41111.51
545.83	40582.55
546.00	40776.81
546.16	41003.85
546.33	40996.82
546.50	40474.88
546.67	41251.94
546.83	40608.29
547.00	41031.93
547.17	41036.61
547.34	40746.39
547.50	41167.68
547.67	41715.37
547.84	41780.90
548.00	41680.26
548.17	41577.28
548.34	41439.18
548.51	41717.71
548.67	41619.41
548.84	41680.26
549.01	41478.97
549.18	41834.74
549.34	41858.14
549.51	41858.14
549.68	41708.35
549.84	42078.15
550.01	41965.81
550.18	42043.04
550.34	41404.08
550.51	42312.20
550.68	41691.96
550.84	41738.77
551.01	42213.90
551.18	41766.86
551.34	42279.44
551.51	41865.16
551.68	42309.86
551.84	42129.64
552.01	41532.81
552.18	42424.55
552.34	42366.04
552.51	42918.40
552.68	42171.77
552.84	42710.10
553.01	42766.27
553.18	42445.62
553.34	42614.13
553.51	42216.24
553.67	42305.18
553.84	42469.02
554.01	42670.31
554.17	42862.23
554.34	42623.50
554.51	42724.14
554.67	42859.89
554.84	42710.10
555.00	42649.24
555.17	43115.01
555.33	43068.20
555.50	42705.41
555.67	42967.55
555.83	43140.75
556.00	42831.80
556.16	43255.44
556.33	43077.56
556.50	42918.40
556.66	43225.01
556.83	42487.74
556.99	42972.24
557.16	42808.40
557.32	42855.21
557.49	43063.52
557.65	42887.98
557.82	43009.68
557.98	43232.04
558.15	43650.99
558.32	43421.62
558.48	43508.22
558.65	43145.44
558.81	43075.22
558.98	43533.96
559.14	43175.86
559.31	43189.91
559.47	43487.15
559.64	43866.32
559.80	43548.01
559.97	43480.13
560.13	43335.02
560.30	43643.97
560.46	43655.67
560.63	43791.42
560.79	43381.83
560.96	43812.49
561.12	43370.13
561.29	43566.73
561.45	43636.95
561.61	43353.74
561.78	43695.46
561.94	43232.04
562.11	43882.70
562.27	43753.97
562.44	43468.43
562.60	43903.77
562.77	43688.44
562.93	43702.48
563.10	44039.52
563.26	43077.56
563.42	44098.03
563.59	43646.31
563.75	43999.73
563.92	43964.62
564.08	43833.55
564.24	43985.69
564.41	44257.19
564.57	43952.92
564.74	44158.89
564.90	44329.75
565.07	43934.20
565.23	43786.74
565.39	44135.48
565.56	44154.21
565.72	43510.56
565.88	44245.49
566.05	44067.61
566.21	44055.90
566.38	44423.37
566.54	44226.76
566.70	44315.70
566.87	44708.91
567.03	44435.07
567.19	44535.71
567.36	44390.60
567.52	44088.67
567.68	44725.30
567.85	44004.41
568.01	44266.55
568.17	44046.54
568.34	44374.22
568.50	44467.84
568.66	44069.95
568.83	44201.02
568.99	44020.80
569.15	43803.13
569.32	43985.69
569.48	43863.98
569.64	44285.28
569.81	44083.99
569.97	44182.29
570.13	43887.39
570.30	44051.22
570.46	43882.70
570.62	44191.65
570.78	44114.42
570.95	44107.40
571.11	44149.53
571.27	44619.97
571.43	44074.63
571.60	44643.38
571.76	44278.25
571.92	44325.07
572.09	44430.39
572.25	44584.86
572.41	44289.96
572.57	44430.39
572.74	44694.87
572.90	44186.97
573.06	44439.75
573.22	44711.25
573.38	44037.18
573.55	44339.11
573.71	44664.44
573.87	44580.18
574.03	43863.98
574.20	44643.38
574.36	44212.72
574.52	44453.79
574.68	44268.89
574.84	44832.96
575.01	44500.61
575.17	44273.57
575.33	44147.18
575.49	44357.83
575.65	44596.57
575.82	44584.86
575.98	44233.78
576.14	44816.58
576.30	44336.77
576.46	44102.71
576.62	44259.53
576.79	44577.84
576.95	44411.67
577.11	44088.67
577.27	44832.96
577.43	44877.43
577.59	44240.81
577.75	44900.84
577.92	44580.18
578.08	44112.08
578.24	44177.61
578.40	44165.91
578.56	44505.29
578.72	44474.86
578.88	44456.14
579.04	44346.13
579.21	44025.48
579.37	44612.95
579.53	44296.98
579.69	44566.14
579.85	44629.34
580.01	44547.42
580.17	44605.93
580.33	45207.45
580.49	44837.64
580.65	44423.37
580.82	44713.59
580.98	44463.16
581.14	44198.68
581.30	44818.92
581.46	44531.03
581.62	44402.30
581.78	44570.82
581.94	44795.51
582.10	44229.10
582.26	44795.51
582.42	44704.23
582.58	44737.00
582.74	44725.30
582.90	44687.85
583.06	44837.64
583.22	44755.72
583.38	44767.43
583.54	44924.24
583.70	44589.55
583.86	44329.75
584.02	44280.60
584.18	45282.34
584.34	44697.21
584.50	44341.45
584.66	44076.97
584.82	44776.79
584.98	44648.06
585.14	45092.76
585.30	44545.08
585.46	44612.95
585.62	44409.32
585.78	44568.48
585.94	44776.79
586.10	44509.97
586.26	44662.10
586.42	44676.15
586.58	44907.86
586.74	44383.58
586.90	44701.89
587.06	44973.39
587.22	44760.40
587.38	44449.11
587.54	44748.70
587.70	44664.44
587.86	44949.99
588.02	44657.42
588.18	44870.41
588.34	44900.84
588.49	44575.50
588.65	44388.26
588.81	45027.23
588.97	44229.10
589.13	44245.49
589.29	44765.09
589.45	44690.19
589.61	44741.68
589.77	45069.36
589.93	45268.30
590.08	44971.05
590.24	44872.75
590.40	45085.74
590.56	45277.66
590.72	44781.47
590.88	44683.17
591.04	44559.12
591.20	45244.90
591.35	45446.18
591.51	45010.84
591.67	44734.66
591.83	45064.67
591.99	44882.11
592.15	44509.97
592.31	44933.60
592.46	45130.21
592.62	45291.71
592.78	45282.34
592.94	45111.49
593.10	44942.97
593.26	45354.90
593.41	45116.17
593.57	45139.57
593.73	45471.93
593.89	44875.09
594.05	44971.05
594.20	45291.71
594.36	45408.73
594.52	44807.22
594.68	45251.92
594.84	45151.27
594.99	45572.57
595.15	44610.61
595.31	45088.08
595.47	45024.89
595.62	45235.53
595.78	45394.69
595.94	45275.32
596.10	45343.20
596.25	45434.48
596.41	45092.76
596.57	44514.65
596.73	44751.04
596.88	44935.95
597.04	45413.41
597.20	45064.67
597.36	44907.86
597.51	45078.72
597.67	45544.48
597.83	45303.41
597.99	45397.03
598.14	45485.97
598.30	45284.68
598.46	45310.43
598.61	45081.06
598.77	44652.74
598.93	45216.81
599.09	45132.55
599.24	45935.35
599.40	44938.29
599.56	45577.25
599.71	45113.83
599.87	45373.63
600.03	45453.20
600.18	45315.11
600.34	45268.30
600.50	45233.19
600.65	45188.72
600.81	45071.70
600.97	45221.49
601.12	45446.18
601.28	45045.95
601.44	45364.26
601.59	45029.57
601.75	45193.40
601.91	45003.82
602.06	44868.07
602.22	45317.45
602.37	45200.43
602.53	45385.33
602.69	45612.36
602.84	45207.45
603.00	44940.63
603.16	45420.44
603.31	45099.78
603.47	45008.50
603.62	44940.63
603.78	45085.74
603.94	45097.44
604.09	45256.60
604.25	45436.82
604.40	45354.90
604.56	45125.53
604.71	45041.27
604.87	44783.81
605.03	44816.58
605.18	45109.14
605.34	45125.53
605.49	44552.10
605.65	44807.22
605.80	45722.37
605.96	44907.86
606.12	44928.92
606.27	45205.11
606.43	44830.62
606.58	45223.83
606.74	44662.10
606.89	44858.71
607.05	45228.51
607.20	44851.69
607.36	45209.79
607.51	45455.54
607.67	45015.52
607.82	45474.27
607.98	44919.56
608.13	44839.98
608.29	45228.51
608.44	44882.11
608.60	44463.16
608.75	44734.66
608.91	44666.78
609.06	44739.34
609.22	45052.97
609.37	44685.51
609.53	44772.11
609.68	44673.81
609.84	44954.67
609.99	44893.82
610.15	44430.39
610.30	44362.51
610.46	44442.09
610.61	44715.93
610.76	44488.90
610.92	44758.06
611.07	44343.79
611.23	44411.67
611.38	44449.11
611.54	44376.56
611.69	45069.36
611.84	44208.04
612.00	44713.59
612.15	44500.61
612.31	44519.33
612.46	44547.42
612.62	45034.25
612.77	44725.30
612.92	44430.39
613.08	44409.32
613.23	44397.62
613.39	44055.90
613.54	43894.41
613.69	44245.49
613.85	44353.15
614.00	44004.41
614.15	44509.97
614.31	44638.70
614.46	44444.43
614.62	44280.60
614.77	43913.13
614.92	44381.24
615.08	44406.98
615.23	44161.23
615.38	44147.18
615.54	43732.91
615.69	44095.69
615.84	43426.30
616.00	44065.27
616.15	43894.41
616.30	43548.01
616.46	43894.41
616.61	43463.75
616.76	43868.66
616.92	44069.95
617.07	43402.89
617.22	44041.86
617.37	44051.22
617.53	43997.39
617.68	43749.29
617.83	43786.74
617.99	43777.38
618.14	43597.16
618.29	43662.69
618.45	43407.58
618.60	43667.37
618.75	43459.07
618.90	43962.28
619.06	44121.44
619.21	43704.82
619.36	43739.93
619.51	43339.70
619.67	43571.41
619.82	43782.06
619.97	43658.01
620.12	43278.85
620.28	43117.35
620.43	43225.01
620.58	43072.88
620.73	43377.15
620.89	43091.60
621.04	42953.51
621.19	43248.42
621.34	43229.69
621.49	43077.56
621.65	42878.61
621.80	43206.29
621.95	42981.60
622.10	43222.67
622.25	42667.97
622.41	43098.62
622.56	42918.40
622.71	43126.71
622.86	43086.92
623.01	43084.58
623.16	42960.53
623.32	43131.39
623.47	43049.47
623.62	42946.49
623.77	42674.99
623.92	43276.51
624.07	42567.32
624.23	42895.00
624.38	42784.99
624.53	42541.58
624.68	42869.25
624.83	43119.69
624.98	42611.79
625.13	42944.15
625.29	42513.49
625.44	42572.00
625.59	42546.26
625.74	42401.14
625.89	41722.39
626.04	42291.14
626.19	42478.38
626.34	42038.36
626.49	42363.70
626.65	42405.83
626.80	42658.60
626.95	42014.96
627.10	41984.53
627.25	42183.48
627.40	42244.33
627.55	41460.25
627.70	42192.84
627.85	41652.17
628.00	42115.60
628.15	42384.76
628.30	41975.17
628.45	42256.03
628.60	41839.42
628.76	42005.59
628.91	41855.80
629.06	42024.32
629.21	41165.34
629.36	41759.84
629.51	41184.07
629.66	41813.67
629.81	41715.37
629.96	41635.79
630.11	41771.54
630.26	41989.21
630.41	42010.28
630.56	41446.21
630.71	41727.07
630.86	41666.22
631.01	41167.68
631.16	41825.37
631.31	41118.53
631.46	40928.95
631.61	41317.48
631.76	41532.81
631.91	41853.46
632.06	41301.09
632.21	41876.86
632.36	41336.20
632.51	41333.86
632.66	41462.59
632.81	40971.08
632.96	41242.58
633.10	41085.76
633.25	41088.10
633.40	41291.73
633.55	41460.25
633.70	41212.15
633.85	40898.52
634.00	40825.96
634.15	41102.15
634.30	40821.28
634.45	40879.80
634.60	41120.87
634.75	40802.56
634.90	40741.71
635.05	41160.66
635.19	40905.54
635.34	41043.63
635.49	41041.29
635.64	40715.96
635.79	40137.85
635.94	40596.59
636.09	41071.72
636.24	40657.45
636.39	40877.46
636.53	40332.11
636.68	40502.97
636.83	40676.17
636.98	40208.06
637.13	39992.73
637.28	40512.33
637.43	40467.86
637.57	40942.99
637.72	40643.40
637.87	40722.98
638.02	40458.50
638.17	40294.66
638.32	40184.66
638.46	40236.15
638.61	40088.70
638.76	39988.05
638.91	40032.52
639.06	40236.15
639.20	40421.05
639.35	40456.16
639.50	40236.15
639.65	40456.16
639.80	39929.54
639.94	40435.10
640.09	40112.10
640.24	40418.71
640.39	39496.54
640.54	40175.30
640.68	40292.32
640.83	39854.64
640.98	39531.65
641.13	39688.46
641.27	40261.90
641.42	39978.69
641.57	40243.17
641.72	39695.49
641.86	39454.41
642.01	39873.37
642.16	39302.28
642.31	39100.99
642.45	39817.19
642.60	39199.29
642.75	39379.51
642.90	39185.25
643.04	39374.83
643.19	39885.07
643.34	39363.13
643.48	39482.50
643.63	39608.89
643.78	39049.50
643.93	38913.75
644.07	39229.72
644.22	39391.22
644.37	39072.90
644.51	39229.72
644.66	39012.05
644.81	39042.48
644.95	39477.82
645.10	39065.88
645.25	39044.82
645.39	39246.10
645.54	38948.85
645.69	39164.18
645.83	38808.42
645.98	39496.54
646.13	39002.69
646.27	39175.89
646.42	38483.09
646.57	39229.72
646.71	38763.95
646.86	38836.51
647.00	38998.01
647.15	38998.01
647.30	38785.02
647.44	38623.52
647.59	38550.96
647.74	38588.41
647.88	38557.99
648.03	38272.44
648.17	38763.95
648.32	38382.45
648.47	37900.29
648.61	38312.23
648.76	38801.40
648.90	38415.21
649.05	38415.21
649.20	38707.78
649.34	38841.19
649.49	38483.09
649.63	38696.08
649.78	38298.19
649.92	38054.77
650.07	38646.93
650.21	38068.81
650.36	38251.38
650.51	38054.77
650.65	38483.09
650.80	38614.16
650.94	38705.44
651.09	38466.70
651.23	38113.28
651.38	38017.32
651.52	37750.50
651.67	38230.31
651.81	38183.50
651.96	37797.31
652.10	37935.40
652.25	38108.60
652.39	37893.27
652.54	37670.92
652.68	38408.19
652.83	38202.22
652.97	37874.55
653.12	37631.13
653.26	37682.62
653.41	38087.54
653.55	37816.04
653.70	37596.03
653.84	37764.54
653.99	37940.08
654.13	37919.02
654.27	37394.74
654.42	37720.07
654.56	37851.14
654.71	37865.19
654.85	37813.70
655.00	37603.05
655.14	37427.51
655.29	37422.83
655.43	37589.00
655.57	37289.42
655.72	37165.37
655.86	37212.18
656.01	37228.56
656.15	37167.71
656.30	36914.93
656.44	36823.65
656.58	36928.97
656.73	36945.36
656.87	36835.35
657.01	36861.10
657.16	36959.40
657.30	36715.98
657.45	36343.84
657.59	36870.46
657.73	36514.70
657.88	36896.20
658.02	36636.41
658.16	37471.98
658.31	37022.59
658.45	37074.09
658.60	36662.15
658.74	37090.47
658.88	36725.35
659.03	36528.74
659.17	36165.96
659.31	36137.87
659.46	36301.71
659.60	36493.63
659.74	36238.51
659.89	35817.22
660.03	36231.49
660.17	36650.45
660.32	36074.68
660.46	36514.70
660.60	36362.56
660.74	36203.41
660.89	36240.86
661.03	36065.31
661.17	35695.51
661.32	35721.26
661.46	35885.09
661.60	35793.81
661.74	35915.52
661.89	35751.68
662.03	35878.07
662.17	35667.42
662.31	35721.26
662.46	35892.12
662.60	35903.82
662.74	35470.82
662.88	35363.15
663.03	35260.17
663.17	35721.26
663.31	35424.01
663.45	35278.89
663.60	34848.24
663.74	34953.56
663.88	34941.86
664.02	34719.51
664.17	35012.07
664.31	34609.50
664.45	34944.20
664.59	35082.29
664.73	34955.90
664.88	34782.70
665.02	34609.50
665.16	34703.12
665.30	34724.19
665.44	34359.06
665.59	34068.84
665.73	34550.99
665.87	34433.96
666.01	34366.09
666.15	34389.49
666.29	34309.91
666.44	34597.80
666.58	34211.61
666.72	34160.12
666.86	34155.44
667.00	34218.63
667.14	33804.36
667.28	33645.20
667.43	33640.52
667.57	33617.11
667.71	33406.47
667.85	34000.96
667.99	33369.02
668.13	33481.36
668.27	33483.70
668.41	33820.74
668.56	33373.70
668.70	33574.98
668.84	33422.85
668.98	33570.30
669.12	33326.89
669.26	33261.35
669.40	33244.97
669.54	32844.74
669.68	33315.19
669.82	32624.73
669.96	32844.74
670.10	32898.57
670.25	33249.65
670.39	33048.36
670.53	32671.54
670.67	32465.57
670.81	32816.65
670.95	32596.64
671.09	33216.88
671.23	32896.23
671.37	32744.09
671.51	32456.21
671.65	32404.72
671.79	32161.30
671.93	31938.95
672.07	32355.57
672.21	32376.63
672.35	32168.32
672.49	31894.48
672.63	31957.67
672.77	31927.25
672.91	31878.10
673.05	31803.20
673.19	31384.24
673.33	31775.11
673.47	32060.66
673.61	31728.30
673.75	31101.04
673.89	31187.64
674.03	30742.94
674.17	30939.54
674.31	30632.93
674.45	31087.00
674.59	31402.97
674.73	31014.44
674.87	30904.43
675.01	30859.96
675.15	30745.28
675.29	31194.66
675.43	30417.60
675.56	30426.96
675.70	30637.61
675.84	30323.98
675.98	29359.68
676.12	30277.17
676.26	29869.92
676.40	29860.55
676.54	29687.36
676.68	29963.54
676.82	29125.63
676.96	29696.72
677.10	29394.79
677.23	29369.04
677.37	29640.54
677.51	29443.94
677.65	29472.03
677.79	28903.28
677.93	29113.92
678.07	28849.44
678.21	29067.11
678.34	28601.35
678.48	28428.15
678.62	28591.98
678.76	28343.89
678.90	28147.28
679.04	28116.86
679.18	28694.97
679.31	28126.22
679.45	27985.79
679.59	27583.21
679.73	27880.46
679.87	27875.78
680.00	27906.21
680.14	27903.87
680.28	27597.26
680.42	27204.05
680.56	27351.50
680.70	27192.34
680.83	27187.66
680.97	26904.46
681.11	27367.88
681.25	26443.37
681.39	27072.98
681.52	27084.68
681.66	26862.33
681.80	26810.84
681.94	26583.80
682.07	26328.69
682.21	26417.63
682.35	26312.30
682.49	26295.92
682.62	26647.00
682.76	26185.91
682.90	26218.68
683.04	25820.79
683.17	26356.77
683.31	25874.62
683.45	25617.16
683.59	25572.69
683.72	25238.00
683.86	25434.60
684.00	25230.98
684.13	25528.22
684.27	25483.75
684.41	25287.15
684.55	25020.33
684.68	24844.79
684.82	24645.84
684.96	24879.89
685.09	24694.99
685.23	24470.30
685.37	24577.97
685.50	24397.74
685.64	24428.17
685.78	24224.54
685.91	24224.54
686.05	24100.50
686.19	23866.44
686.32	24056.03
686.46	23721.33
686.60	23456.85
686.73	23789.20
686.87	23536.43
687.01	23585.58
687.14	23295.35
687.28	23021.51
687.42	22977.04
687.55	22686.81
687.69	23220.45
687.82	22764.05
687.96	22958.31
688.10	22644.68
688.23	22778.09
688.37	22661.07
688.50	22045.51
688.64	22162.53
688.78	22518.29
688.91	22207.00
689.05	21942.52
689.18	22045.51
689.32	21879.33
689.46	22108.70
689.59	22071.25
689.73	22249.13
689.86	21516.54
690.00	21715.49
690.13	21664.00
690.27	21795.07
690.41	21710.81
690.54	21467.39
690.68	21109.29
690.81	21207.59
690.95	20830.77
691.08	20905.66
691.22	21153.76
691.35	20702.04
691.49	21064.82
691.62	20945.45
691.76	20510.11
691.89	20666.93
692.03	20711.40
692.16	20231.59
692.30	20271.38
692.43	20238.61
692.57	20215.21
692.70	20294.79
692.84	20290.10
692.97	19924.98
693.11	19775.19
693.24	19662.84
693.38	19639.44
693.51	19786.89
693.65	19695.61
693.78	19707.31
693.92	19573.90
694.05	19197.07
694.19	19105.79
694.32	19094.09
694.45	19391.34
694.59	19190.05
694.72	18909.19
694.86	19033.24
694.99	18335.76
695.13	18527.68
695.26	18420.02
695.39	18345.12
695.53	18600.24
695.66	18375.55
695.80	18366.18
695.93	18225.75
696.07	18022.12
696.20	18417.68
696.33	18003.40
696.47	18043.19
696.60	17919.14
696.73	17987.02
696.87	17788.07
697.00	17734.24
697.14	17659.34
697.27	17282.52
697.40	17394.86
697.54	17418.27
697.67	17305.92
697.80	17273.15
697.94	16992.29
698.07	16952.50
698.21	17130.38
698.34	17104.64
698.47	17071.87
698.61	16486.73
698.74	16379.07
698.87	16678.66
699.01	16463.33
699.14	16482.05
699.27	16477.37
699.40	16327.58
699.54	16372.05
699.67	16159.06
699.80	15971.82
699.94	16070.12
700.07	15908.62
700.20	15927.35
700.34	15737.76
700.47	15676.91
700.60	15831.38
700.73	16042.03
700.87	15543.50
701.00	15403.07
701.13	15604.35
701.26	15510.73
701.40	15234.55
701.53	14974.75
701.66	15253.27
701.79	15176.03
701.93	14953.68
702.06	14937.30
702.19	15117.52
702.32	14916.23
702.46	14724.31
702.59	15028.58
702.72	15054.33
702.85	14469.19
702.99	14920.92
703.12	14604.94
703.25	14422.38
703.38	14492.60
703.51	14230.46
703.65	14532.39
703.78	14068.96
703.91	14001.08
704.04	13977.68
704.17	14068.96
704.31	13813.84
704.44	13921.51
704.57	13745.97
704.70	13624.26
704.83	13427.65
704.96	13757.67
705.10	13642.98
705.23	13752.99
>>>>>End Processed Spectral Data<<<<<
