SpectraSuite Data File
++++++++++++++++++++++++++++++++++++
Date: Fri Oct 25 11:34:03 EDT 2013
User: price-jones
Dark Spectrum Present: No
Reference Spectrum Present: No
Number of Sampled Component Spectra: 1
Spectrometers: USB2+H05261
Integration Time (usec): 100000 (USB2+H05261)
Spectra Averaged: 1 (USB2+H05261)
Boxcar Smoothing: 0 (USB2+H05261)
Correct for Electrical Dark: No (USB2+H05261)
Strobe/Lamp Enabled: No (USB2+H05261)
Correct for Detector Non-linearity: No (USB2+H05261)
Correct for Stray Light: No (USB2+H05261)
Number of Pixels in Processed Spectrum: 2048
>>>>>Begin Processed Spectral Data<<<<<
365.73	285.55
365.92	285.55
366.12	285.55
366.32	163.84
366.52	227.03
366.72	212.99
366.91	107.66
367.11	145.11
367.31	210.65
367.51	189.58
367.70	264.48
367.90	126.39
368.10	170.86
368.30	173.20
368.49	196.60
368.69	191.92
368.89	231.71
369.09	184.90
369.28	229.37
369.48	229.37
369.68	215.33
369.87	299.59
370.07	269.16
370.27	241.08
370.47	285.55
370.66	442.36
370.86	528.96
371.06	568.75
371.25	566.41
371.45	512.58
371.65	528.96
371.84	545.34
372.04	524.28
372.24	545.34
372.44	545.34
372.63	582.79
372.83	550.03
373.03	620.24
373.22	606.20
373.42	554.71
373.62	660.03
373.81	676.41
374.01	664.71
374.21	655.35
374.40	648.33
374.60	615.56
374.79	596.84
374.99	603.86
375.19	641.31
375.38	709.18
375.58	603.86
375.78	716.20
375.97	716.20
376.17	711.52
376.37	709.18
376.56	667.05
376.76	629.60
376.95	699.82
377.15	674.07
377.35	720.88
377.54	716.20
377.74	638.97
377.93	660.03
378.13	697.48
378.33	711.52
378.52	638.97
378.72	774.72
378.91	760.67
379.11	688.12
379.31	669.39
379.50	676.41
379.70	678.76
379.89	697.48
380.09	793.44
380.28	692.80
380.48	737.27
380.68	819.19
380.87	770.04
381.07	772.38
381.26	777.06
381.46	755.99
381.65	737.27
381.85	795.78
382.04	770.04
382.24	788.76
382.43	725.57
382.63	798.12
382.83	709.18
383.02	830.89
383.22	781.74
383.41	723.23
383.61	795.78
383.80	807.48
384.00	875.36
384.19	835.57
384.39	767.70
384.58	767.70
384.78	842.59
384.97	889.40
385.17	880.04
385.36	821.53
385.56	868.34
385.75	826.21
385.95	901.11
386.14	870.68
386.34	791.10
386.53	929.19
386.72	856.64
386.92	786.42
387.11	910.47
387.31	912.81
387.50	931.53
387.70	849.61
387.89	819.19
388.09	870.68
388.28	943.24
388.48	940.90
388.67	964.30
388.86	896.43
389.06	861.32
389.25	954.94
389.45	943.24
389.64	961.96
389.84	950.26
390.03	898.77
390.22	1029.84
390.42	947.92
390.61	858.98
390.81	945.58
391.00	973.66
391.19	931.53
391.39	936.21
391.58	1025.15
391.78	978.34
391.97	943.24
392.16	1029.84
392.36	1125.80
392.55	1153.88
392.75	1083.67
392.94	1118.78
393.13	1107.07
393.33	1001.75
393.52	1048.56
393.71	1114.10
393.91	1086.01
394.10	1078.99
394.29	1086.01
394.49	1156.22
394.68	1081.33
394.88	1121.12
395.07	1146.86
395.26	1100.05
395.46	1132.82
395.65	1062.60
395.84	1121.12
396.04	1228.78
396.23	1165.59
396.42	1226.44
396.62	1217.08
396.81	1313.04
397.00	1167.93
397.19	1249.85
397.39	1146.86
397.58	1228.78
397.77	1231.12
397.97	1205.38
398.16	1235.80
398.35	1240.48
398.55	1280.27
398.74	1275.59
398.93	1291.98
399.12	1383.26
399.32	1308.36
399.51	1233.46
399.70	1383.26
399.90	1301.34
400.09	1341.13
400.28	1322.40
400.47	1352.83
400.67	1409.00
400.86	1411.34
401.05	1373.89
401.24	1465.18
401.44	1472.20
401.63	1455.81
401.82	1451.13
402.01	1366.87
402.21	1432.41
402.40	1390.28
402.59	1490.92
402.78	1514.33
402.97	1600.93
403.17	1467.52
403.36	1540.07
403.55	1544.75
403.74	1530.71
403.93	1488.58
404.13	1500.28
404.32	1521.35
404.51	1551.78
404.70	1596.25
404.89	1514.33
405.09	1753.06
405.28	1638.38
405.47	1689.87
405.66	1694.55
405.85	1706.25
406.05	1575.18
406.24	1664.12
406.43	1671.14
406.62	1755.40
406.81	1750.72
407.00	1699.23
407.20	1785.83
407.39	1781.15
407.58	1804.55
407.77	1797.53
407.96	1858.39
408.15	1863.07
408.34	1818.60
408.54	1825.62
408.73	1872.43
408.92	1799.87
409.11	1952.01
409.30	2003.50
409.49	2024.56
409.68	1973.07
409.87	1961.37
410.07	1956.69
410.26	1937.96
410.45	1975.41
410.64	2024.56
410.83	2094.78
411.02	2122.87
411.21	2195.42
411.40	2066.69
411.59	2146.27
411.78	2062.01
411.98	2174.36
412.17	2195.42
412.36	2310.11
412.55	2270.32
412.74	2284.36
412.93	2375.64
413.12	2214.15
413.31	2431.82
413.50	2291.38
413.69	2356.92
413.88	2417.77
414.07	2415.43
414.26	2434.16
414.45	2436.50
414.64	2459.90
414.83	2375.64
415.02	2647.15
415.22	2635.44
415.41	2595.65
415.60	2649.49
415.79	2689.28
415.98	2658.85
416.17	2630.76
416.36	2654.17
416.55	2764.17
416.74	2705.66
416.93	2757.15
417.12	2881.20
417.31	2902.26
417.50	2808.64
417.69	2991.20
417.88	2885.88
418.07	2995.89
418.26	2818.00
418.45	2920.99
418.64	3040.36
418.83	3061.42
419.02	3045.04
419.21	3124.62
419.39	2906.95
419.58	2946.73
419.77	2953.76
419.96	3066.10
420.15	3028.65
420.34	3211.22
420.53	3035.67
420.72	3150.36
420.91	3194.83
421.10	3157.38
421.29	3159.72
421.48	3288.45
421.67	3236.96
421.86	3293.13
422.05	3300.16
422.24	3201.85
422.43	3157.38
422.61	3311.86
422.80	3391.44
422.99	3349.31
423.18	3346.97
423.37	3513.14
423.56	3337.60
423.75	3459.31
423.94	3311.86
424.13	3119.93
424.32	3169.09
424.50	3435.91
424.69	3506.12
424.88	3449.95
425.07	3398.46
425.26	3407.82
425.45	3318.88
425.64	3375.05
425.83	3370.37
426.01	3412.50
426.20	3398.46
426.39	3365.69
426.58	3466.33
426.77	3375.05
426.96	3398.46
427.15	3494.42
427.33	3566.98
427.52	3410.16
427.71	3445.27
427.90	3590.38
428.09	3686.34
428.28	3686.34
428.46	3536.55
428.65	3691.02
428.84	3679.32
429.03	3700.39
429.22	3700.39
429.40	3714.43
429.59	3714.43
429.78	3756.56
429.97	3583.36
430.16	3672.30
430.34	3772.94
430.53	3737.84
430.72	3777.62
430.91	3866.56
431.10	3794.01
431.28	3911.04
431.47	3859.54
431.66	3932.10
431.85	3927.42
432.03	3927.42
432.22	3955.51
432.41	4004.66
432.60	4086.58
432.79	3936.78
432.97	4044.45
433.16	4072.53
433.35	4032.74
433.54	3936.78
433.72	4198.92
433.91	3995.29
434.10	4138.07
434.28	4091.26
434.47	4177.86
434.66	4154.45
434.85	4198.92
435.03	4315.95
435.22	4290.20
435.41	4245.73
435.59	4341.69
435.78	4355.74
435.97	4353.40
436.16	4222.33
436.34	4322.97
436.53	4269.14
436.72	4428.29
436.90	4337.01
437.09	4430.63
437.28	4348.72
437.46	4381.48
437.65	4404.89
437.84	4542.98
438.02	4552.34
438.21	4578.09
438.40	4440.00
438.58	4652.98
438.77	4727.88
438.96	4725.54
439.14	4917.47
439.33	4917.47
439.52	4793.42
439.70	4739.58
439.89	4952.57
440.08	4940.87
440.26	4961.94
440.45	5048.54
440.63	5008.75
440.82	5137.48
441.01	5027.47
441.19	5100.03
441.38	5067.26
441.57	5198.33
441.75	5352.81
441.94	5228.76
442.12	5177.26
442.31	5261.52
442.50	5430.04
442.68	5434.72
442.87	5308.34
443.05	5504.94
443.24	5366.85
443.43	5617.29
443.61	5423.02
443.80	5638.35
443.98	5359.83
444.17	5114.07
444.35	5495.58
444.54	5542.39
444.73	5479.19
444.91	5600.90
445.10	5441.75
445.28	5558.77
445.47	5579.84
445.65	5547.07
445.84	5528.35
446.02	5504.94
446.21	5528.35
446.39	5533.03
446.58	5673.46
446.77	5713.25
446.95	5518.98
447.14	5645.37
447.32	5764.74
447.51	5748.36
447.69	5472.17
447.88	5753.04
448.06	5748.36
448.25	5884.11
448.43	5743.67
448.62	5624.31
448.80	5746.02
448.99	5832.62
449.17	5884.11
449.36	5769.42
449.54	5914.53
449.73	5902.83
449.91	5860.70
450.10	5982.41
450.28	6101.78
450.46	5930.92
450.65	6022.20
450.83	6047.94
451.02	5947.30
451.20	6054.97
451.39	5991.77
451.57	6157.95
451.76	5966.03
451.94	6085.39
452.13	6164.97
452.31	6019.86
452.49	6164.97
452.68	6122.84
452.86	6059.65
453.05	6251.57
453.23	6193.06
453.42	6076.03
453.60	6211.78
453.78	6359.24
453.97	6331.15
454.15	6359.24
454.34	6349.87
454.52	6361.58
454.70	6436.47
454.89	6658.82
455.07	6516.05
455.26	6480.94
455.44	6338.17
455.62	6567.54
455.81	6347.53
455.99	6558.18
456.17	6700.95
456.36	6696.27
456.54	6729.04
456.73	6906.92
456.91	7089.48
457.09	6820.32
457.28	7155.02
457.46	6715.00
457.64	6944.37
457.83	7023.95
458.01	6963.09
458.19	7019.27
458.38	6991.18
458.56	6902.24
458.74	7108.21
458.93	7145.66
459.11	7089.48
459.29	7007.56
459.48	7061.40
459.66	7068.42
459.84	7162.04
460.03	7456.95
460.21	7309.49
460.39	7272.04
460.57	7346.94
460.76	7258.00
460.94	7353.96
461.12	7260.34
461.31	7435.88
461.49	7232.26
461.67	7208.85
461.85	7658.23
462.04	7358.64
462.22	7911.01
462.40	7693.34
462.59	7590.36
462.77	7578.65
462.95	7548.23
463.13	7632.49
463.32	7644.19
463.50	7744.83
463.68	7555.25
463.86	7669.94
464.05	7693.34
464.23	7730.79
464.41	7817.39
464.59	7761.22
464.78	7824.41
464.96	7941.44
465.14	7733.13
465.32	8086.55
465.50	7885.26
465.69	8088.89
465.87	8053.78
466.05	7969.52
466.23	8044.42
466.41	8070.17
466.60	8280.82
466.78	7906.33
466.96	8025.70
467.14	7932.08
467.32	8046.76
467.51	8159.11
467.69	8032.72
467.87	8229.32
468.05	8304.22
468.23	8257.41
468.41	8301.88
468.60	8334.65
468.78	8641.26
468.96	8341.67
469.14	8397.84
469.32	8393.16
469.50	8290.18
469.69	8568.70
469.87	8769.99
470.05	8765.31
470.23	8631.90
470.41	8659.98
470.59	8741.90
470.77	8521.89
470.95	8634.24
471.14	8699.77
471.32	8610.83
471.50	9001.70
471.68	8961.91
471.86	8931.48
472.04	9224.05
472.22	9027.45
472.40	8936.17
472.58	9055.53
472.77	9151.49
472.95	9165.54
473.13	9689.82
473.31	9050.85
473.49	9184.26
473.67	9338.74
473.85	9364.48
474.03	9579.81
474.21	9645.35
474.39	9579.81
474.57	9678.12
474.75	9799.82
474.93	9715.56
475.12	9727.27
475.30	10010.47
475.48	9811.53
475.66	9816.21
475.84	9912.17
476.02	10108.77
476.20	9980.04
476.38	10284.31
476.56	10438.79
476.74	10401.34
476.92	10417.72
477.10	10459.85
477.28	10455.17
477.46	10544.11
477.64	10794.55
477.82	10651.78
478.00	11033.29
478.18	10988.82
478.36	11187.76
478.54	11173.72
478.72	11166.70
478.90	11367.98
479.08	11501.39
479.26	11400.75
479.44	11543.52
479.62	11358.62
479.80	11861.84
479.98	11971.84
480.16	12072.48
480.34	11836.09
480.52	11936.73
480.70	12201.21
480.88	12138.02
481.06	12056.10
481.24	12332.28
481.41	12311.22
481.59	12231.64
481.77	12957.21
481.95	12711.45
482.13	12896.35
482.31	12863.58
482.49	13095.30
482.67	13135.09
482.85	13188.92
483.03	13174.88
483.21	13399.57
483.39	13476.80
483.57	13472.12
483.74	13666.39
483.92	13921.51
484.10	13668.73
484.28	14078.32
484.46	14176.62
484.64	14370.89
484.82	14204.71
485.00	14417.70
485.18	14462.17
485.35	14705.59
485.53	14665.80
485.71	14820.27
485.89	15026.24
486.07	15087.09
486.25	15044.96
486.43	15112.84
486.61	15307.10
486.78	15557.54
486.96	15489.67
487.14	15800.96
487.32	15999.90
487.50	16173.10
487.68	16042.03
487.85	16372.05
488.03	16575.67
488.21	16643.55
488.39	16879.94
488.57	17067.19
488.75	16903.35
488.92	17280.18
489.10	17013.35
489.28	17226.34
489.46	17371.46
489.64	17301.24
489.81	17635.94
489.99	17954.25
490.17	17682.75
490.35	18075.96
490.53	18015.10
490.70	18307.67
490.88	18054.89
491.06	18492.57
491.24	18546.40
491.41	18633.00
491.59	19077.71
491.77	18740.67
491.95	18934.93
492.13	18939.62
492.30	19152.60
492.48	19297.72
492.66	19538.79
492.84	19709.65
493.01	19934.34
493.19	19822.00
493.37	20135.63
493.54	20004.56
493.72	20128.61
493.90	20119.24
494.08	20292.44
494.25	20760.55
494.43	20229.25
494.61	20882.26
494.79	20695.02
494.96	20950.14
495.14	21069.50
495.32	21308.24
495.49	21048.44
495.67	21575.06
495.85	21687.40
496.02	21568.04
496.20	22061.89
496.38	22068.91
496.55	22312.33
496.73	22459.78
496.91	21958.91
497.09	22324.03
497.26	22394.25
497.44	22427.01
497.62	22586.17
497.79	22948.95
497.97	22567.45
498.14	23030.87
498.32	23414.72
498.50	23267.27
498.67	23594.94
498.85	23295.35
499.03	23599.62
499.20	23618.35
499.38	23784.52
499.56	23936.66
499.73	24074.75
499.91	24105.18
500.08	24493.71
500.26	23796.23
500.44	24229.23
500.61	24369.66
500.79	24348.59
500.97	24421.15
501.14	24676.27
501.32	25001.60
501.49	24870.53
501.67	24842.45
501.84	24922.02
502.02	25184.16
502.20	24922.02
502.37	25238.00
502.55	25535.24
502.72	25015.65
502.90	25188.85
503.07	25390.13
503.25	25717.81
503.43	25696.74
503.60	25703.76
503.78	25942.50
503.95	25989.31
504.13	26136.76
504.30	26223.36
504.48	26195.28
504.65	26326.35
504.83	26658.70
505.01	27026.17
505.18	26572.10
505.36	26759.34
505.53	26752.32
505.71	26670.40
505.88	27552.79
506.06	26986.38
506.23	27236.81
506.41	27075.32
506.58	27014.46
506.76	27517.68
506.93	27805.56
507.11	27264.90
507.28	27548.11
507.46	27487.25
507.63	27992.81
507.81	27960.04
507.98	27531.72
508.16	27555.13
508.33	28116.86
508.50	28254.95
508.68	28364.95
508.85	28505.38
509.03	28198.77
509.20	28493.68
509.38	28814.34
509.55	28882.21
509.73	28669.22
509.90	28844.76
510.08	28723.05
510.25	29078.82
510.42	29256.70
510.60	29465.00
510.77	29055.41
510.95	29418.19
511.12	29392.45
511.30	29216.91
511.47	29633.52
511.64	29359.68
511.82	29661.61
511.99	29607.78
512.17	29720.12
512.34	29607.78
512.51	29972.90
512.69	30160.14
512.86	29937.79
513.04	30462.07
513.21	30572.08
513.38	30089.93
513.56	30279.51
513.73	30286.53
513.90	31019.12
514.08	30452.71
514.25	30967.63
514.43	31222.75
514.60	31096.36
514.77	31079.97
514.95	31215.72
515.12	31119.76
515.29	30684.42
515.47	31459.14
515.64	31435.74
515.81	31445.10
515.99	31505.95
516.16	31725.96
516.33	31318.71
516.51	31910.86
516.68	31714.26
516.85	32231.52
517.03	32395.35
517.20	32233.86
517.37	31985.76
517.54	32250.24
517.72	32491.32
517.89	32648.13
518.06	32067.68
518.24	32098.11
518.41	32589.62
518.58	32627.07
518.75	32460.89
518.93	32947.72
519.10	33015.60
519.27	32961.76
519.45	33109.22
519.62	32861.12
519.79	33303.48
519.96	33010.92
520.14	33071.77
520.31	33181.77
520.48	33057.73
520.65	33593.71
520.83	34057.14
521.00	33607.75
521.17	33673.29
521.34	33572.64
521.52	33773.93
521.69	33673.29
521.86	33937.77
522.03	34106.29
522.20	34010.32
522.38	34302.89
522.55	34752.27
522.72	34043.09
522.89	34384.81
523.07	34703.12
523.24	34541.63
523.41	34630.57
523.58	34562.69
523.75	34766.32
523.92	34464.39
524.10	35026.12
524.27	35138.46
524.44	34731.21
524.61	35248.47
524.78	35037.82
524.96	35264.85
525.13	35494.22
525.30	35426.35
525.47	35407.62
525.64	35405.28
525.81	35899.14
525.98	36048.93
526.16	35648.70
526.33	35618.27
526.50	35756.36
526.67	35819.56
526.84	35374.86
527.01	35679.13
527.18	36240.86
527.36	36095.74
527.53	35924.88
527.70	36004.46
527.87	36650.45
528.04	36039.57
528.21	35959.99
528.38	36570.87
528.55	36804.92
528.72	36271.28
528.89	36404.69
529.07	36669.17
529.24	36687.90
529.41	36875.14
529.58	36924.29
529.75	36769.82
529.92	36779.18
530.09	36793.22
530.26	37144.30
530.43	37191.11
530.60	36713.64
530.77	36802.58
530.94	37392.40
531.11	36994.51
531.28	37240.26
531.46	37340.91
531.63	37301.12
531.80	37366.65
531.97	37649.86
532.14	37338.57
532.31	37415.80
532.48	38022.00
532.65	37834.76
532.82	38014.98
532.99	37647.52
533.16	37640.50
533.33	38057.11
533.50	37755.18
533.67	37897.95
533.84	37738.80
534.01	38401.17
534.18	37965.83
534.35	38403.51
534.52	38557.99
534.69	38562.67
534.86	38440.96
535.03	38209.25
535.20	38614.16
535.37	38768.63
535.54	38927.79
535.71	38520.54
535.88	39154.82
536.05	38927.79
536.22	38829.49
536.38	39122.05
536.55	38990.98
536.72	38873.96
536.89	38838.85
537.06	39030.77
537.23	39154.82
537.40	38965.24
537.57	38824.81
537.74	39173.55
537.91	39487.18
538.08	39777.40
538.25	39171.21
538.42	39409.94
538.59	39503.56
538.75	39281.21
538.92	39746.98
539.09	39798.47
539.26	39903.79
539.43	39674.42
539.60	39908.47
539.77	39449.73
539.94	40275.94
540.11	40439.78
540.28	39786.77
540.44	40107.42
540.61	40201.04
540.78	40060.61
540.95	40205.72
541.12	40201.04
541.29	40278.28
541.46	40346.15
541.62	40182.32
541.79	40704.26
541.96	39966.99
542.13	40250.19
542.30	40332.11
542.47	40732.34
542.63	40868.09
542.80	40917.25
542.97	40856.39
543.14	41144.28
543.31	40961.72
543.48	40818.94
543.64	41525.78
543.81	41153.64
543.98	40849.37
544.15	41507.06
544.32	40928.95
544.48	41710.69
544.65	41261.30
544.82	41500.04
544.99	41191.09
545.16	41471.95
545.32	41322.16
545.49	41258.96
545.66	41867.50
545.83	41488.34
546.00	41858.14
546.16	41879.21
546.33	41509.40
546.50	41535.15
546.67	42146.03
546.83	41462.59
547.00	42382.42
547.17	42110.92
547.34	42286.46
547.50	42155.39
547.67	42473.70
547.84	42122.62
548.00	42532.22
548.17	42377.74
548.34	42300.50
548.51	42384.76
548.67	42223.26
548.84	42401.14
549.01	42305.18
549.18	42593.07
549.34	42717.12
549.51	42801.38
549.68	42197.52
549.84	42553.28
550.01	42838.83
550.18	42483.06
550.34	42693.71
550.51	42848.19
550.68	42923.08
550.84	42972.24
551.01	42979.26
551.18	42880.95
551.34	42780.31
551.51	43100.97
551.68	43243.74
551.84	43079.90
552.01	42941.81
552.18	43311.61
552.34	43271.82
552.51	42969.90
552.68	42986.28
552.84	43517.58
553.01	43349.06
553.18	43093.94
553.34	43667.37
553.51	42787.33
553.67	43304.59
553.84	43440.34
554.01	43648.65
554.17	43185.22
554.34	43646.31
554.51	43812.49
554.67	44116.76
554.84	43803.13
555.00	43744.61
555.17	43557.37
555.33	44236.12
555.50	43761.00
555.67	43758.66
555.83	43756.32
556.00	44240.81
556.16	44650.40
556.33	44191.65
556.50	44318.04
556.66	44416.35
556.83	43845.26
556.99	44451.45
557.16	44362.51
557.32	44027.82
557.49	44505.29
557.65	44336.77
557.82	44287.62
557.98	44037.18
558.15	44268.89
558.32	44404.64
558.48	44367.20
558.65	44217.40
558.81	44325.07
558.98	44559.12
559.14	44524.01
559.31	43938.88
559.47	44280.60
559.64	44467.84
559.80	44545.08
559.97	44601.25
560.13	44779.13
560.30	44650.40
560.46	44854.03
560.63	44648.06
560.79	44821.26
560.96	44905.52
561.12	45277.66
561.29	45052.97
561.45	44725.30
561.61	45076.38
561.78	44638.70
561.94	45034.25
562.11	45013.18
562.27	44755.72
562.44	45394.69
562.60	45364.26
562.77	44732.32
562.93	45123.19
563.10	45153.62
563.26	44619.97
563.42	45528.10
563.59	44985.10
563.75	45174.68
563.92	45280.00
564.08	44954.67
564.24	45074.04
564.41	45092.76
564.57	45677.90
564.74	45052.97
564.90	44994.46
565.07	44942.97
565.23	45448.52
565.39	45186.38
565.56	45563.21
565.72	45230.85
565.88	45326.81
566.05	45261.28
566.21	45450.86
566.38	45390.01
566.54	45382.99
566.70	45705.98
566.87	45654.49
567.03	45219.15
567.19	45490.65
567.36	45125.53
567.52	45319.79
567.68	45668.53
567.85	45776.20
568.01	45839.39
568.17	45361.92
568.34	45921.31
568.50	45755.13
568.66	45347.88
568.83	45265.96
568.99	45296.39
569.15	45907.27
569.32	45301.07
569.48	45991.53
569.64	45605.34
569.81	45736.41
569.97	45380.65
570.13	46045.36
570.30	45865.14
570.46	45722.37
570.62	45514.06
570.78	46110.89
570.95	45902.59
571.11	46143.66
571.27	45528.10
571.43	45588.95
571.60	46138.98
571.76	45708.32
571.92	45773.86
572.09	45918.97
572.25	45516.40
572.41	45684.92
572.57	45619.38
572.74	46373.03
572.90	46164.73
573.06	46007.91
573.22	46064.08
573.38	46082.81
573.55	46209.20
573.71	46176.43
573.87	46164.73
574.03	45556.19
574.20	46265.37
574.36	46019.61
574.52	46270.05
574.68	46075.79
574.84	46239.62
575.01	46277.07
575.17	46092.17
575.33	46192.81
575.49	46160.05
575.65	46064.08
575.82	46342.61
575.98	46167.07
576.14	46618.79
576.30	46712.41
576.46	46256.01
576.62	46354.31
576.79	46050.04
576.95	45867.48
577.11	45720.02
577.27	45982.16
577.43	46036.00
577.59	46337.93
577.75	46314.52
577.92	46164.73
578.08	46155.36
578.24	45869.82
578.40	46295.80
578.56	46553.26
578.72	46181.11
578.88	46979.23
579.04	46307.50
579.21	46291.12
579.37	46588.36
579.53	46520.49
579.69	46349.63
579.85	46515.81
580.01	46560.28
580.17	46286.43
580.33	46326.22
580.49	46506.44
580.65	46595.38
580.82	46326.22
580.98	45961.10
581.14	46043.02
581.30	46099.19
581.46	45982.16
581.62	46419.84
581.78	46153.02
581.94	46897.31
582.10	46438.57
582.26	46382.40
582.42	46637.51
582.58	46227.92
582.74	46672.62
582.90	46202.18
583.06	46693.69
583.22	46394.10
583.38	46602.41
583.54	46466.66
583.70	46539.21
583.86	46749.86
584.02	46731.14
584.18	46873.91
584.34	46761.56
584.50	46550.91
584.66	46429.21
584.82	46431.55
584.98	47033.07
585.14	46616.45
585.30	46527.51
585.46	46473.68
585.62	46485.38
585.78	46609.43
585.94	46169.41
586.10	46569.64
586.26	46656.24
586.42	46483.04
586.58	46681.98
586.74	46644.54
586.90	46483.04
587.06	46630.49
587.22	46761.56
587.38	46539.21
587.54	46593.04
587.70	46979.23
587.86	46373.03
588.02	46351.97
588.18	46398.78
588.34	46574.32
588.49	46803.69
588.65	46607.09
588.81	46880.93
588.97	46824.76
589.13	46674.96
589.29	46995.62
589.45	47459.04
589.61	47093.92
589.77	47037.75
589.93	46782.63
590.08	47391.17
590.24	46838.80
590.40	47320.95
590.56	47634.58
590.72	47133.71
590.88	46885.61
591.04	46836.46
591.20	47012.00
591.35	47519.90
591.51	47222.65
591.67	47107.96
591.83	47323.29
591.99	46850.50
592.15	47016.68
592.31	47014.34
592.46	46986.25
592.62	47007.32
592.78	47480.11
592.94	47484.79
593.10	47189.88
593.26	47466.06
593.41	47030.72
593.57	47459.04
593.73	47320.95
593.89	47620.54
594.05	47344.36
594.20	47601.82
594.36	47487.13
594.52	47063.49
594.68	47229.67
594.84	47236.69
594.99	47363.08
595.15	46976.89
595.31	47615.86
595.47	47253.08
595.62	47281.16
595.78	47119.66
595.94	47302.23
596.10	47189.88
596.25	47398.19
596.41	47604.16
596.57	47220.31
596.73	47732.89
596.88	47559.69
597.04	47437.98
597.20	47398.19
597.36	47377.12
597.51	47517.56
597.67	47187.54
597.83	47494.15
597.99	47257.76
598.14	47360.74
598.30	47028.38
598.46	47398.19
598.61	47529.26
598.77	47318.61
598.93	47592.45
599.09	47374.78
599.24	47887.36
599.40	47903.74
599.56	47526.92
599.71	47775.02
599.87	47775.02
600.03	47529.26
600.18	47400.53
600.34	47489.47
600.50	47220.31
600.65	47489.47
600.81	47749.27
600.97	47751.61
601.12	47573.73
601.28	47641.60
601.44	47473.09
601.59	47129.03
601.75	47243.71
601.91	47686.07
602.06	47463.72
602.22	47604.16
602.37	47393.51
602.53	47423.93
602.69	47309.25
602.84	47412.23
603.00	47407.55
603.16	47454.36
603.31	47817.14
603.47	47473.09
603.62	47447.34
603.78	47767.99
603.94	47833.53
604.09	47571.39
604.25	47311.59
604.40	47466.06
604.56	47618.20
604.71	47533.94
604.87	47363.08
605.03	47201.58
605.18	47608.84
605.34	47547.98
605.49	47402.87
605.65	47407.55
605.80	47622.88
605.96	47232.01
606.12	47058.81
606.27	47681.39
606.43	47601.82
606.58	47880.34
606.74	47379.46
606.89	47552.66
607.05	47594.79
607.20	47665.01
607.36	47365.42
607.51	47522.24
607.67	47061.15
607.82	47622.88
607.98	47105.62
608.13	47189.88
608.29	47309.25
608.44	47491.81
608.60	47320.95
608.75	47220.31
608.91	47192.22
609.06	47105.62
609.22	47360.74
609.37	47215.63
609.53	47164.14
609.68	47688.42
609.84	47220.31
609.99	47122.01
610.15	47386.49
610.30	47103.28
610.46	46827.10
610.61	47468.40
610.76	47365.42
610.92	46677.30
611.07	47185.20
611.23	47129.03
611.38	46787.31
611.54	46869.23
611.69	46894.97
611.84	47096.26
612.00	46777.95
612.15	47152.43
612.31	47346.70
612.46	46665.60
612.62	46710.07
612.77	46813.05
612.92	47512.88
613.08	47000.30
613.23	47131.37
613.39	46941.78
613.54	46225.58
613.69	47480.11
613.85	46508.79
614.00	46646.88
614.15	46869.23
614.31	46543.89
614.46	46562.62
614.62	46431.55
614.77	46623.47
614.92	46972.21
615.08	46628.15
615.23	46782.63
615.38	47014.34
615.54	46913.70
615.69	46824.76
615.84	46852.84
616.00	46955.83
616.15	46916.04
616.30	46906.68
616.46	46700.71
616.61	46848.16
616.76	46843.48
616.92	46316.86
617.07	46738.16
617.22	46363.67
617.37	45851.09
617.53	46958.17
617.68	45881.52
617.83	46543.89
617.99	47037.75
618.14	47047.11
618.29	46422.19
618.45	46223.24
618.60	46361.33
618.75	45961.10
618.90	46171.75
619.06	46667.94
619.21	46401.12
619.36	46506.44
619.51	46071.10
619.67	45881.52
619.82	46092.17
619.97	46440.91
620.12	46181.11
620.28	46293.46
620.43	46513.47
620.58	46553.26
620.73	46089.83
620.89	46103.87
621.04	46398.78
621.19	45879.18
621.34	45986.85
621.49	45815.99
621.65	46014.93
621.80	45984.51
621.95	46260.69
622.10	46089.83
622.25	45883.86
622.41	45851.09
622.56	45921.31
622.71	45911.95
622.86	45921.31
623.01	45841.73
623.16	45748.11
623.32	45710.66
623.47	46080.47
623.62	45785.56
623.77	46080.47
623.92	45453.20
624.07	45399.37
624.23	45876.84
624.38	45797.26
624.53	45717.68
624.68	45588.95
624.83	45230.85
624.98	45874.50
625.13	45684.92
625.29	44774.45
625.44	45670.87
625.59	45317.45
625.74	45673.21
625.89	44959.35
626.04	44987.44
626.19	45137.23
626.34	45366.60
626.49	45298.73
626.65	44816.58
626.80	44942.97
626.95	45280.00
627.10	44968.71
627.25	45743.43
627.40	45296.39
627.55	44900.84
627.70	44947.65
627.85	45457.88
628.00	44734.66
628.15	45219.15
628.30	44849.35
628.45	44758.06
628.60	44631.68
628.76	44966.37
628.91	44732.32
629.06	44772.11
629.21	44507.63
629.36	44692.53
629.51	44465.50
629.66	44662.10
629.81	44706.57
629.96	44580.18
630.11	45113.83
630.26	44114.42
630.41	44893.82
630.56	44755.72
630.71	44423.37
630.86	44257.19
631.01	44524.01
631.16	44322.72
631.31	44638.70
631.46	44751.04
631.61	44793.17
631.76	44673.81
631.91	44402.30
632.06	44907.86
632.21	44598.91
632.36	44083.99
632.51	44311.02
632.66	44470.18
632.81	44102.71
632.96	44304.00
633.10	43957.60
633.25	44245.49
633.40	44233.78
633.55	44531.03
633.70	43988.03
633.85	44109.74
634.00	43686.10
634.15	44486.56
634.30	43913.13
634.45	44130.80
634.60	43786.74
634.75	44346.13
634.90	43714.19
635.05	43936.54
635.19	43871.00
635.34	44168.25
635.49	43798.44
635.64	43372.47
635.79	43981.01
635.94	43927.17
636.09	43648.65
636.24	43550.35
636.39	43702.48
636.53	43620.56
636.68	43454.39
636.83	43384.17
636.98	43643.97
637.13	43370.13
637.28	43239.06
637.43	43503.54
637.57	43288.21
637.72	43023.73
637.87	43512.90
638.02	43285.87
638.17	43042.45
638.32	43271.82
638.46	42635.20
638.61	43126.71
638.76	43171.18
638.91	43133.73
639.06	42934.79
639.20	43147.78
639.35	42918.40
639.50	43005.00
639.65	43037.77
639.80	43192.25
639.94	43433.32
640.09	43278.85
640.24	42707.76
640.39	42817.76
640.54	42363.70
640.68	43033.09
640.83	43379.49
640.98	42536.90
641.13	42707.76
641.27	43016.71
641.42	43222.67
641.57	42241.99
641.72	42712.44
641.86	42721.80
642.01	42108.58
642.16	42820.10
642.31	42227.95
642.45	42878.61
642.60	42398.80
642.75	42373.06
642.90	43082.24
643.04	42429.23
643.19	42548.60
643.34	41904.95
643.48	42476.04
643.63	42532.22
643.78	42181.13
643.93	42316.89
644.07	42462.00
644.22	42305.18
644.37	42167.09
644.51	42426.89
644.66	42281.78
644.81	42391.78
644.95	42089.85
645.10	42349.65
645.25	42103.90
645.39	42122.62
645.54	41656.85
645.69	41441.53
645.83	41872.18
645.98	41713.03
646.13	42064.11
646.27	42190.50
646.42	41736.43
646.57	41680.26
646.71	42185.82
646.86	42232.63
647.00	42066.45
647.15	41918.99
647.30	42078.15
647.44	41996.23
647.59	42010.28
647.74	41483.66
647.88	41628.77
648.03	42426.89
648.17	42209.22
648.32	42263.05
648.47	41827.71
648.61	41373.65
648.76	41759.84
648.90	41837.08
649.05	41823.03
649.20	41455.57
649.34	41593.66
649.49	41766.86
649.63	41565.57
649.78	41626.43
649.92	41806.65
650.07	42178.79
650.21	41897.93
650.36	41565.57
650.51	41577.28
650.65	42068.79
650.80	41588.98
650.94	41759.84
651.09	41340.88
651.23	41228.54
651.38	40999.16
651.52	40669.15
651.67	41820.69
651.81	41331.52
651.96	40999.16
652.10	40804.90
652.25	41064.70
652.39	41247.26
652.54	41471.95
652.68	40964.06
652.83	40966.40
652.97	41092.79
653.12	41074.06
653.26	40610.64
653.41	41165.34
653.55	40889.16
653.70	40924.27
653.84	41118.53
653.99	41053.00
654.13	41287.05
654.27	40730.00
654.42	41481.31
654.56	40582.55
654.71	41287.05
654.85	40690.21
655.00	40933.63
655.14	41092.79
655.29	40751.07
655.43	41127.89
655.57	40751.07
655.72	40161.25
655.86	40561.48
656.01	39831.24
656.15	40243.17
656.30	40325.09
656.44	40526.38
656.58	40201.04
656.73	40528.72
656.87	40266.58
657.01	39585.48
657.16	40671.49
657.30	40189.34
657.45	40163.59
657.59	39707.19
657.73	40076.99
657.88	39934.22
658.02	40266.58
658.16	40297.00
658.31	40147.21
658.45	40044.23
658.60	39782.09
658.74	39524.63
658.88	39899.11
659.03	39629.95
659.17	39295.25
659.31	39449.73
659.46	39601.86
659.60	39763.36
659.74	39161.84
659.89	39321.00
660.03	38909.07
660.17	39613.57
660.32	39210.99
660.46	39257.81
660.60	39218.02
660.74	39182.91
660.89	39709.53
661.03	39030.77
661.17	38431.60
661.32	38962.90
661.46	39126.74
661.60	38848.21
661.74	39199.29
661.89	38778.00
662.03	38686.71
662.17	38693.74
662.31	38593.09
662.46	38487.77
662.60	38522.88
662.74	38162.43
662.88	38466.70
663.03	38307.55
663.17	37961.15
663.31	38075.84
663.45	38234.99
663.60	38157.75
663.74	38302.87
663.88	38134.35
664.02	38333.29
664.17	38621.18
664.31	37846.46
664.45	38108.60
664.59	38106.26
664.73	37589.00
664.88	37860.51
665.02	37600.71
665.16	37713.05
665.30	37968.17
665.44	37687.31
665.59	37710.71
665.73	37219.20
665.87	37134.94
666.01	37343.25
666.15	37605.39
666.29	37326.86
666.44	37556.24
666.58	37312.82
666.72	36645.77
666.86	37268.35
667.00	36966.42
667.14	36996.85
667.28	36793.22
667.43	36704.28
667.57	37364.31
667.71	36980.46
667.85	36989.83
667.99	36989.83
668.13	36804.92
668.27	36215.11
668.41	36334.48
668.56	35950.63
668.70	35445.07
668.84	36268.94
668.98	35978.72
669.12	35864.03
669.26	36673.85
669.40	36002.12
669.54	36163.62
669.68	35559.76
669.82	35817.22
669.96	35351.45
670.10	35288.26
670.25	35360.81
670.39	35096.33
670.53	35590.19
670.67	35564.44
670.81	35557.42
670.95	35536.35
671.09	35253.15
671.23	35119.74
671.37	35204.00
671.51	34974.63
671.65	35014.41
671.79	35274.21
671.93	34939.52
672.07	35026.12
672.21	34775.68
672.35	34415.24
672.49	34567.37
672.63	34562.69
672.77	33869.89
672.91	34314.59
673.05	34471.41
673.19	34340.34
673.33	34134.37
673.47	34115.65
673.61	33764.57
673.75	33921.38
673.89	33755.21
674.03	33556.26
674.17	33259.01
674.31	33584.35
674.45	33532.86
674.59	33509.45
674.73	33577.33
674.87	33076.45
675.01	33141.99
675.15	33179.43
675.29	32786.22
675.43	32978.15
675.56	33006.23
675.70	32662.18
675.84	32751.12
675.98	31779.79
676.12	32393.01
676.26	32631.75
676.40	32240.88
676.54	31903.84
676.68	31693.19
676.82	31751.71
676.96	31765.75
677.10	32051.30
677.23	31974.06
677.37	31695.53
677.51	31793.84
677.65	31491.91
677.79	31421.69
677.93	31625.32
678.07	31311.69
678.21	31225.09
678.34	30822.51
678.48	30370.79
678.62	30857.62
678.76	30738.26
678.90	30801.45
679.04	30658.68
679.18	30902.09
679.31	30515.90
679.45	29965.88
679.59	29930.77
679.73	30057.16
679.87	29600.76
680.00	29839.49
680.14	29816.08
680.28	29825.45
680.42	29692.04
680.56	29785.66
680.70	29273.08
680.83	29385.43
680.97	29465.00
681.11	29579.69
681.25	29074.13
681.39	28716.03
681.52	28615.39
681.66	28374.31
681.80	28177.71
681.94	28290.06
682.07	28570.92
682.21	28285.37
682.35	27871.10
682.49	28025.57
682.62	28137.92
682.76	27981.10
682.90	28311.12
683.04	27985.79
683.17	27730.67
683.31	27772.80
683.45	27332.78
683.59	27323.41
683.72	27276.60
683.86	27351.50
684.00	26993.40
684.13	27370.22
684.27	26572.10
684.41	26679.77
684.55	26647.00
684.68	26534.65
684.82	26293.58
684.96	26340.39
685.09	26696.15
685.23	26347.41
685.37	26560.40
685.50	26434.01
685.64	26103.99
685.78	26080.59
685.91	25874.62
686.05	25401.83
686.19	25130.33
686.32	25333.96
686.46	25076.50
686.60	25032.03
686.73	25207.57
686.87	24903.30
687.01	25584.40
687.14	25120.97
687.28	24959.47
687.42	24734.78
687.55	24603.71
687.69	24290.08
687.82	24369.66
687.96	24442.21
688.10	24449.24
688.23	24095.82
688.37	24407.11
688.50	24594.35
688.64	24133.26
688.78	23983.47
688.91	23704.95
689.05	23644.09
689.18	23503.66
689.32	23290.67
689.46	23225.14
689.59	23318.76
689.73	23447.49
689.86	23679.20
690.00	23070.66
690.13	23077.68
690.27	22663.41
690.41	23005.13
690.54	22768.73
690.68	22581.49
690.81	22714.90
690.95	22305.31
691.08	22317.01
691.22	22199.98
691.35	22443.40
691.49	22106.36
691.62	22143.81
691.76	21713.15
691.89	21664.00
692.03	21427.60
692.16	21249.72
692.30	21104.61
692.43	21518.89
692.57	21268.45
692.70	21128.02
692.84	21223.98
692.97	20816.72
693.11	20814.38
693.24	20760.55
693.38	20652.89
693.51	20622.46
693.65	20620.12
693.78	20673.95
693.92	20318.19
694.05	20650.55
694.19	20306.49
694.32	20142.65
694.45	20409.47
694.59	20166.06
694.72	20011.58
694.86	19719.01
694.99	19538.79
695.13	19693.27
695.26	19576.24
695.39	19201.76
695.53	19115.16
695.66	19321.12
695.80	19379.64
695.93	19073.03
696.07	19103.45
696.20	18558.11
696.33	18562.79
696.47	18572.15
696.60	18635.35
696.73	18640.03
696.87	18618.96
697.00	18544.06
697.14	18490.23
697.27	18345.12
697.40	18197.67
697.54	18155.54
697.67	17881.69
697.80	18043.19
697.94	17806.80
698.07	17832.54
698.21	17736.58
698.34	17565.72
698.47	17649.98
698.61	17095.27
698.74	17067.19
698.87	17359.75
699.01	16950.16
699.14	17165.49
699.27	17034.42
699.40	17095.27
699.54	16868.24
699.67	16793.34
699.80	16830.79
699.94	16486.73
700.07	16692.70
700.20	16496.10
700.34	16568.65
700.47	16500.78
700.60	16507.80
700.73	16400.13
700.87	16226.93
701.00	15953.09
701.13	15932.03
701.26	15922.66
701.40	15697.97
701.53	15690.95
701.66	15665.21
701.79	15943.73
701.93	15419.45
702.06	15421.79
702.19	15470.94
702.32	15506.05
702.46	15356.25
702.59	15215.82
702.72	15199.44
702.85	15257.95
702.99	15070.71
703.12	14850.70
703.25	14792.19
703.38	14736.01
703.51	14710.27
703.65	14562.81
703.78	14335.78
703.91	14333.44
704.04	14314.72
704.17	14083.00
704.31	14139.18
704.44	14291.31
704.57	14087.68
704.70	14143.86
704.83	14068.96
704.96	13696.82
705.10	13989.38
705.23	13591.49
>>>>>End Processed Spectral Data<<<<<
