SpectraSuite Data File
++++++++++++++++++++++++++++++++++++
Date: Fri Oct 25 11:34:47 EDT 2013
User: price-jones
Dark Spectrum Present: No
Reference Spectrum Present: No
Number of Sampled Component Spectra: 1
Spectrometers: USB2+H05261
Integration Time (usec): 100000 (USB2+H05261)
Spectra Averaged: 1 (USB2+H05261)
Boxcar Smoothing: 0 (USB2+H05261)
Correct for Electrical Dark: No (USB2+H05261)
Strobe/Lamp Enabled: No (USB2+H05261)
Correct for Detector Non-linearity: No (USB2+H05261)
Correct for Stray Light: No (USB2+H05261)
Number of Pixels in Processed Spectrum: 2048
>>>>>Begin Processed Spectral Data<<<<<
365.73	266.82
365.92	266.82
366.12	266.82
366.32	285.55
366.52	215.33
366.72	173.20
366.91	93.62
367.11	243.42
367.31	124.05
367.51	198.95
367.70	149.79
367.90	227.03
368.10	203.63
368.30	191.92
368.49	180.22
368.69	227.03
368.89	187.24
369.09	177.88
369.28	234.05
369.48	245.76
369.68	208.31
369.87	238.73
370.07	269.16
370.27	278.52
370.47	348.74
370.66	491.51
370.86	486.83
371.06	585.13
371.25	521.94
371.45	528.96
371.65	566.41
371.84	568.75
372.04	521.94
372.24	500.87
372.44	589.82
372.63	617.90
372.83	564.07
373.03	578.11
373.22	650.67
373.42	627.26
373.62	636.63
373.81	568.75
374.01	653.01
374.21	631.94
374.40	617.90
374.60	648.33
374.79	592.16
374.99	751.31
375.19	634.29
375.38	645.99
375.58	660.03
375.78	650.67
375.97	613.22
376.17	636.63
376.37	620.24
376.56	638.97
376.76	608.54
376.95	690.46
377.15	681.10
377.35	681.10
377.54	578.11
377.74	669.39
377.93	655.35
378.13	727.91
378.33	723.23
378.52	746.63
378.72	622.58
378.91	692.80
379.11	688.12
379.31	681.10
379.50	699.82
379.70	725.57
379.89	697.48
380.09	709.18
380.28	657.69
380.48	631.94
380.68	709.18
380.87	720.88
381.07	732.59
381.26	718.54
381.46	744.29
381.65	816.85
381.85	788.76
382.04	741.95
382.24	791.10
382.43	709.18
382.63	697.48
382.83	828.55
383.02	767.70
383.22	849.61
383.41	772.38
383.61	819.19
383.80	788.76
384.00	798.12
384.19	725.57
384.39	772.38
384.58	751.31
384.78	816.85
384.97	814.51
385.17	844.93
385.36	826.21
385.56	887.06
385.75	877.70
385.95	861.32
386.14	844.93
386.34	812.17
386.53	908.13
386.72	840.25
386.92	866.00
387.11	901.11
387.31	793.44
387.50	842.59
387.70	791.10
387.89	835.57
388.09	910.47
388.28	861.32
388.48	917.49
388.67	901.11
388.86	978.34
389.06	966.64
389.25	936.21
389.45	929.19
389.64	1022.81
389.84	957.28
390.03	973.66
390.22	915.15
390.42	973.66
390.61	903.45
390.81	943.24
391.00	978.34
391.19	898.77
391.39	950.26
391.58	978.34
391.78	978.34
391.97	1043.88
392.16	987.71
392.36	1034.52
392.55	1018.13
392.75	1008.77
392.94	961.96
393.13	973.66
393.33	1039.20
393.52	999.41
393.71	1071.97
393.91	1034.52
394.10	978.34
394.29	1011.11
394.49	1018.13
394.68	1086.01
394.88	1118.78
395.07	1083.67
395.26	1086.01
395.46	1081.33
395.65	1203.04
395.84	1118.78
396.04	1191.33
396.23	1123.46
396.42	1043.88
396.62	1114.10
396.81	1188.99
397.00	1179.63
397.19	1207.72
397.39	1177.29
397.58	1210.06
397.77	1163.25
397.97	1252.19
398.16	1296.66
398.35	1254.53
398.55	1193.67
398.74	1282.61
398.93	1221.76
399.12	1188.99
399.32	1294.32
399.51	1273.25
399.70	1233.46
399.90	1289.64
400.09	1263.89
400.28	1420.71
400.47	1448.79
400.67	1270.91
400.86	1404.32
401.05	1352.83
401.24	1263.89
401.44	1313.04
401.63	1434.75
401.82	1320.06
402.01	1291.98
402.21	1385.60
402.40	1441.77
402.59	1469.86
402.78	1462.83
402.97	1488.58
403.17	1472.20
403.36	1488.58
403.55	1474.54
403.74	1521.35
403.93	1572.84
404.13	1556.46
404.32	1481.56
404.51	1577.52
404.70	1542.41
404.89	1598.59
405.09	1675.82
405.28	1619.65
405.47	1614.97
405.66	1701.57
405.85	1636.03
406.05	1605.61
406.24	1708.59
406.43	1633.69
406.62	1769.44
406.81	1734.34
407.00	1760.08
407.20	1734.34
407.39	1760.08
407.58	1753.06
407.77	1750.72
407.96	1820.94
408.15	1799.87
408.34	1888.81
408.54	1849.02
408.73	1933.28
408.92	1755.40
409.11	1823.28
409.30	1837.32
409.49	1898.17
409.68	1863.07
409.87	1900.52
410.07	1909.88
410.26	1970.73
410.45	1961.37
410.64	1956.69
410.83	2010.52
411.02	2101.80
411.21	2076.06
411.40	2022.22
411.59	2111.16
411.78	2066.69
411.98	2085.42
412.17	2160.31
412.36	2190.74
412.55	2183.72
412.74	2193.08
412.93	2253.94
413.12	2230.53
413.31	2310.11
413.50	2396.71
413.69	2188.40
413.88	2424.80
414.07	2338.20
414.26	2380.32
414.45	2319.47
414.64	2370.96
414.83	2464.58
415.02	2495.01
415.22	2537.14
415.41	2462.24
415.60	2495.01
415.79	2635.44
415.98	2502.03
416.17	2532.46
416.36	2473.95
416.55	2548.84
416.74	2740.77
416.93	2548.84
417.12	2726.72
417.31	2743.11
417.50	2647.15
417.69	2832.05
417.88	2764.17
418.07	2885.88
418.26	2712.68
418.45	2815.66
418.64	2960.78
418.83	2984.18
419.02	2867.16
419.21	2883.54
419.39	2923.33
419.58	2958.44
419.77	2857.79
419.96	2951.42
420.15	3009.93
420.34	3077.80
420.53	3068.44
420.72	3122.27
420.91	3162.06
421.10	3080.14
421.29	3070.78
421.48	3164.40
421.67	3117.59
421.86	3138.66
422.05	3150.36
422.24	3276.75
422.43	3356.33
422.61	3049.72
422.80	3220.58
422.99	3325.90
423.18	3192.49
423.37	3194.83
423.56	3199.51
423.75	3241.64
423.94	3166.74
424.13	3040.36
424.32	3059.08
424.50	3372.71
424.69	3335.26
424.88	3288.45
425.07	3157.38
425.26	3246.32
425.45	3253.34
425.64	3145.68
425.83	3145.68
426.01	3274.41
426.20	3370.37
426.39	3246.32
426.58	3353.99
426.77	3344.63
426.96	3335.26
427.15	3368.03
427.33	3400.80
427.52	3386.76
427.71	3417.18
427.90	3480.38
428.09	3466.33
428.28	3510.80
428.46	3611.45
428.65	3489.74
428.84	3438.25
429.03	3478.04
429.22	3583.36
429.40	3529.53
429.59	3440.59
429.78	3435.91
429.97	3527.19
430.16	3569.32
430.34	3672.30
430.53	3634.85
430.72	3545.91
430.91	3686.34
431.10	3684.00
431.28	3808.05
431.47	3803.37
431.66	3871.25
431.85	3618.47
432.03	3882.95
432.22	3859.54
432.41	3960.19
432.60	3868.91
432.79	3831.46
432.97	3969.55
433.16	3997.64
433.35	3840.82
433.54	3894.65
433.72	4035.08
433.91	3999.98
434.10	4086.58
434.28	3913.38
434.47	3976.57
434.66	4039.76
434.85	4117.00
435.03	4028.06
435.22	4065.51
435.41	4292.54
435.59	4198.92
435.78	4086.58
435.97	4255.09
436.16	4002.32
436.34	4210.62
436.53	4264.46
436.72	4353.40
436.90	4152.11
437.09	4294.88
437.28	4170.83
437.46	4386.16
437.65	4273.82
437.84	4358.08
438.02	4315.95
438.21	4269.14
438.40	4351.06
438.58	4465.74
438.77	4629.58
438.96	4683.41
439.14	4568.73
439.33	4681.07
439.52	4648.30
439.70	4681.07
439.89	4601.49
440.08	4863.63
440.26	4791.08
440.45	4779.37
440.63	4716.18
440.82	5004.07
441.01	4718.52
441.19	4861.29
441.38	4961.94
441.57	4968.96
441.75	4973.64
441.94	5184.29
442.12	5062.58
442.31	5118.75
442.50	5130.45
442.68	5156.20
442.87	5104.71
443.05	5188.97
443.24	5331.74
443.43	5231.10
443.61	5439.40
443.80	5427.70
443.98	5411.32
444.17	5097.69
444.35	5308.34
444.54	5352.81
444.73	5167.90
444.91	5291.95
445.10	5212.37
445.28	5177.26
445.47	5357.49
445.65	5364.51
445.84	5448.77
446.02	5343.44
446.21	5254.50
446.39	5261.52
446.58	5493.24
446.77	5483.88
446.95	5301.31
447.14	5397.28
447.32	5575.16
447.51	5507.28
447.69	5413.66
447.88	5516.64
448.06	5488.56
448.25	5483.88
448.43	5518.98
448.62	5643.03
448.80	5432.38
448.99	5673.46
449.17	5502.60
449.36	5554.09
449.54	5753.04
449.73	5767.08
449.91	5790.49
450.10	5746.02
450.28	5968.37
450.46	5844.32
450.65	5776.44
450.83	5797.51
451.02	5816.23
451.20	5881.77
451.39	5851.34
451.57	5940.28
451.76	5724.95
451.94	5975.39
452.13	5898.15
452.31	5844.32
452.49	6033.90
452.68	6043.26
452.86	6024.54
453.05	6113.48
453.23	6099.44
453.42	5954.32
453.60	5799.85
453.78	6146.25
453.97	5935.60
454.15	6008.16
454.34	6097.10
454.52	6289.02
454.70	6113.48
454.89	6237.53
455.07	6106.46
455.26	6310.08
455.44	6373.28
455.62	6296.04
455.81	6387.32
455.99	6181.35
456.17	6436.47
456.36	6342.85
456.54	6389.66
456.73	6511.37
456.91	6534.78
457.09	6569.88
457.28	6693.93
457.46	6523.07
457.64	6792.23
457.83	6703.29
458.01	6771.17
458.19	6785.21
458.38	6722.02
458.56	6862.45
458.74	6869.47
458.93	6869.47
459.11	6675.21
459.29	6738.40
459.48	6944.37
459.66	6766.49
459.84	6977.14
460.03	6740.74
460.21	7000.54
460.39	7124.59
460.57	6944.37
460.76	7108.21
460.94	7260.34
461.12	7150.34
461.31	7332.90
461.49	6927.99
461.67	7019.27
461.85	7309.49
462.04	7316.51
462.22	7246.30
462.40	7332.90
462.59	7246.30
462.77	7314.17
462.95	7346.94
463.13	7258.00
463.32	7300.13
463.50	7494.40
463.68	7452.27
463.86	7576.31
464.05	7396.09
464.23	7442.90
464.41	7669.94
464.59	7342.26
464.78	7749.51
464.96	7651.21
465.14	7573.97
465.32	7609.08
465.50	7620.78
465.69	7686.32
465.87	7616.10
466.05	7508.44
466.23	7723.77
466.41	7667.60
466.60	7613.76
466.78	7683.98
466.96	7627.81
467.14	7714.41
467.32	7854.84
467.51	7936.76
467.69	7595.04
467.87	7971.86
468.05	7908.67
468.23	7922.71
468.41	7810.37
468.60	7955.48
468.78	8067.83
468.96	8009.31
469.14	8173.15
469.32	8341.67
469.50	7983.57
469.69	8119.32
469.87	8184.85
470.05	8320.60
470.23	8119.32
470.41	8325.29
470.59	8383.80
470.77	8217.62
470.95	8421.25
471.14	8538.27
471.32	8313.58
471.50	8496.14
471.68	8430.61
471.86	8531.25
472.04	8493.80
472.22	8725.52
472.40	8592.11
472.58	8659.98
472.77	8648.28
472.95	8767.65
473.13	9207.67
473.31	8695.09
473.49	8919.78
473.67	8727.86
473.85	8896.38
474.03	9088.30
474.21	9146.81
474.39	9092.98
474.57	9118.73
474.75	9301.29
474.93	9310.65
475.12	9210.01
475.30	9458.10
475.48	9556.41
475.66	9497.89
475.84	9563.43
476.02	9348.10
476.20	9586.83
476.38	9696.84
476.56	10026.86
476.74	9942.60
476.92	10019.83
477.10	9891.10
477.28	10286.65
477.46	10207.08
477.64	10237.50
477.82	10293.68
478.00	10485.60
478.18	10373.25
478.36	10616.67
478.54	10682.20
478.72	10579.22
478.90	10707.95
479.08	10857.75
479.26	10834.34
479.44	10839.02
479.62	11019.24
479.80	11269.68
479.98	11115.20
480.16	11435.86
480.34	11452.24
480.52	11506.07
480.70	11686.29
480.88	11541.18
481.06	11845.45
481.24	11988.22
481.41	11913.33
481.59	12035.03
481.77	12030.35
481.95	11969.50
482.13	12301.86
482.31	12458.67
482.49	12468.03
482.67	12418.88
482.85	12475.06
483.03	12575.70
483.21	12938.48
483.39	12894.01
483.57	12898.69
483.74	13312.97
483.92	13181.90
484.10	13188.92
484.28	13455.74
484.46	13535.32
484.64	13926.19
484.82	13675.75
485.00	13722.56
485.18	14260.88
485.35	14314.72
485.53	14078.32
485.71	14272.59
485.89	14443.45
486.07	14445.79
486.25	14345.14
486.43	14600.26
486.61	14705.59
486.78	14881.13
486.96	14974.75
487.14	14944.32
487.32	15009.86
487.50	15398.38
487.68	15470.94
487.85	15393.70
488.03	15730.74
488.21	15929.69
488.39	15962.45
488.57	15999.90
488.75	16285.45
488.92	16189.49
489.10	16580.36
489.28	16301.83
489.46	16615.46
489.64	16603.76
489.81	16980.59
489.99	16996.97
490.17	17172.51
490.35	17301.24
490.53	17514.23
490.70	17563.38
490.88	17200.60
491.06	17640.62
491.24	17551.68
491.41	17827.86
491.59	17907.44
491.77	18043.19
491.95	18420.02
492.13	18129.79
492.30	18445.76
492.48	18789.82
492.66	18625.98
492.84	18892.80
493.01	19140.90
493.19	18932.59
493.37	19185.37
493.54	19084.73
493.72	19501.34
493.90	19297.72
494.08	19211.12
494.25	19564.54
494.43	19669.86
494.61	19765.82
494.79	19878.17
494.96	20219.89
495.14	20009.24
495.32	20257.34
495.49	20311.17
495.67	20467.98
495.85	20751.19
496.02	20753.53
496.20	20725.44
496.38	21226.32
496.55	21238.02
496.73	21553.99
496.91	21249.72
497.09	21561.02
497.26	21315.26
497.44	21235.68
497.62	21537.61
497.79	21579.74
497.97	21858.26
498.14	22260.84
498.32	22101.68
498.50	21970.61
498.67	22625.96
498.85	22361.48
499.03	22478.50
499.20	22532.34
499.38	22750.01
499.56	23007.47
499.73	23208.75
499.91	23016.83
500.08	23171.30
500.26	23199.39
500.44	22817.88
500.61	23332.80
500.79	23260.24
500.97	23278.97
501.14	23796.23
501.32	23751.76
501.49	23761.12
501.67	23482.59
501.84	24212.84
502.02	23695.58
502.20	23875.80
502.37	24318.17
502.55	24301.78
502.72	24500.73
502.90	24304.12
503.07	24418.81
503.25	24226.89
503.43	24467.96
503.60	24767.55
503.78	25408.86
503.95	24961.81
504.13	24884.58
504.30	25057.78
504.48	25074.16
504.65	25303.53
504.83	25127.99
505.01	25696.74
505.18	25502.48
505.36	25399.49
505.53	25553.97
505.71	25933.14
505.88	25755.26
506.06	25619.50
506.23	25944.84
506.41	25820.79
506.58	26164.85
506.76	26040.80
506.93	26382.52
507.11	26312.30
507.28	26183.57
507.46	26176.55
507.63	26588.49
507.81	26927.86
507.98	26534.65
508.16	26817.86
508.33	27105.74
508.50	26981.70
508.68	27030.85
508.85	26888.07
509.03	27192.34
509.20	27402.99
509.38	27454.48
509.55	27796.20
509.73	27894.50
509.90	27473.21
510.08	27482.57
510.25	27728.33
510.42	27494.27
510.60	27850.03
510.77	27789.18
510.95	28437.51
511.12	27662.79
511.30	28231.54
511.47	28308.78
511.64	28341.55
511.82	28364.95
511.99	28519.43
512.17	28802.63
512.34	28594.32
512.51	28826.04
512.69	29134.99
512.86	28746.46
513.04	29165.42
513.21	29481.39
513.38	29036.69
513.56	29287.12
513.73	29198.18
513.90	29062.43
514.08	29081.16
514.25	29511.81
514.43	29507.13
514.60	29465.00
514.77	29883.96
514.95	29593.73
515.12	29752.89
515.29	29600.76
515.47	30015.03
515.64	29881.62
515.81	30000.99
515.99	30326.32
516.16	30506.54
516.33	30485.48
516.51	30314.62
516.68	30113.33
516.85	30185.89
517.03	30876.35
517.20	30679.74
517.37	30789.75
517.54	31072.95
517.72	31143.17
517.89	31304.67
518.06	31108.06
518.24	31197.00
518.41	30841.24
518.58	31236.79
518.75	31063.59
518.93	31201.68
519.10	31632.34
519.27	31566.81
519.45	31255.51
519.62	31702.56
519.79	31550.42
519.96	31517.65
520.14	31487.23
520.31	31693.19
520.48	32123.85
520.65	31782.13
520.83	32100.45
521.00	32247.90
521.17	32313.44
521.34	31945.97
521.52	32402.38
521.69	32535.79
521.86	32634.09
522.03	32421.10
522.20	32891.55
522.38	32797.93
522.55	32926.66
522.72	32835.38
522.89	33050.70
523.07	33296.46
523.24	33036.66
523.41	32797.93
523.58	33067.09
523.75	33549.24
523.92	33455.62
524.10	33186.46
524.27	33621.80
524.44	33427.53
524.61	33830.10
524.78	33310.50
524.96	33713.08
525.13	33638.18
525.30	33954.15
525.47	33755.21
525.64	33773.93
525.81	33862.87
525.98	34396.51
526.16	34024.37
526.33	34022.03
526.50	34651.63
526.67	34176.50
526.84	34597.80
527.01	34373.11
527.18	34239.70
527.36	34223.31
527.53	34389.49
527.70	34628.23
527.87	34696.10
528.04	34668.02
528.21	35061.22
528.38	34923.13
528.55	35119.74
528.72	35072.93
528.89	34979.31
529.07	35255.49
529.24	34595.46
529.41	35253.15
529.58	35166.55
529.75	35318.68
529.92	35274.21
530.09	35325.71
530.26	35363.15
530.43	35393.58
530.60	35248.47
530.77	35484.86
530.94	35484.86
531.11	35248.47
531.28	35969.35
531.46	35606.57
531.63	35849.99
531.80	35665.08
531.97	36257.24
532.14	35763.39
532.31	35496.56
532.48	36617.68
532.65	36526.40
532.82	36006.80
532.99	36570.87
533.16	36151.91
533.33	35974.03
533.50	36514.70
533.67	36201.07
533.84	36154.26
534.01	36540.44
534.18	36243.20
534.35	36870.46
534.52	36704.28
534.69	37507.08
534.86	36889.18
535.03	36629.38
535.20	37256.65
535.37	37163.03
535.54	36996.85
535.71	36781.52
535.88	37589.00
536.05	36978.12
536.22	37181.75
536.38	37336.23
536.55	37273.03
536.72	37195.79
536.89	37207.50
537.06	37490.70
537.23	37537.51
537.40	37542.19
537.57	37188.77
537.74	37289.42
537.91	37872.21
538.08	37691.99
538.25	37338.57
538.42	37783.27
538.59	38129.67
538.75	38089.88
538.92	38164.78
539.09	38326.27
539.26	38099.24
539.43	37881.57
539.60	38401.17
539.77	37776.25
539.94	38740.55
540.11	38628.20
540.28	38047.75
540.44	38291.16
540.61	38588.41
540.78	38206.90
540.95	38064.13
541.12	38675.01
541.29	38548.62
541.46	38387.13
541.62	38504.15
541.79	38803.74
541.96	38213.93
542.13	38862.26
542.30	38820.13
542.47	39005.03
542.63	39201.63
542.80	39168.87
542.97	39253.12
543.14	39234.40
543.31	39189.93
543.48	39395.90
543.64	39885.07
543.81	39796.13
543.98	39299.94
544.15	39218.02
544.32	39590.16
544.48	39749.32
544.65	39842.94
544.82	39709.53
544.99	39306.96
545.16	39665.06
545.32	39566.76
545.49	40116.78
545.66	39791.45
545.83	40112.10
546.00	40046.57
546.16	40226.79
546.33	39889.75
546.50	39786.77
546.67	39866.34
546.83	39704.85
547.00	40018.48
547.17	40112.10
547.34	40465.52
547.50	40053.59
547.67	40486.59
547.84	40610.64
548.00	40708.94
548.17	40730.00
548.34	40524.04
548.51	40612.98
548.67	40273.60
548.84	40840.01
549.01	40414.03
549.18	40720.64
549.34	40708.94
549.51	41020.23
549.68	40912.56
549.84	40659.79
550.01	40921.93
550.18	40636.38
550.34	41027.25
550.51	40973.42
550.68	41205.13
550.84	40617.66
551.01	40921.93
551.18	41134.92
551.34	41160.66
551.51	41167.68
551.68	40945.33
551.84	41486.00
552.01	41141.94
552.18	41698.98
552.34	41083.42
552.51	41722.39
552.68	41132.57
552.84	41528.13
553.01	41874.52
553.18	41495.36
553.34	41553.87
553.51	41736.43
553.67	41773.88
553.84	41689.62
554.01	41626.43
554.17	41787.92
554.34	41970.49
554.51	41457.91
554.67	42253.69
554.84	41757.50
555.00	41900.27
555.17	41832.39
555.33	41640.47
555.50	41914.31
555.67	41858.14
555.83	42124.96
556.00	41801.97
556.16	42562.64
556.33	42209.22
556.50	42103.90
556.66	42347.31
556.83	42274.76
556.99	42249.01
557.16	42759.25
557.32	42124.96
557.49	42422.21
557.65	42043.04
557.82	42443.27
557.98	42405.83
558.15	42298.16
558.32	42576.69
558.48	42316.89
558.65	42183.48
558.81	42630.52
558.98	42497.11
559.14	42157.73
559.31	42637.54
559.47	42902.02
559.64	42911.38
559.80	42667.97
559.97	42740.52
560.13	42452.64
560.30	42586.05
560.46	43152.46
560.63	43426.30
560.79	42850.53
560.96	42986.28
561.12	42656.26
561.29	42862.23
561.45	43477.79
561.61	42834.14
561.78	43166.50
561.94	42787.33
562.11	43070.54
562.27	43239.06
562.44	43229.69
562.60	43143.09
562.77	43407.58
562.93	42902.02
563.10	43746.95
563.26	43276.51
563.42	43590.14
563.59	42801.38
563.75	43203.95
563.92	43517.58
564.08	42960.53
564.24	43386.51
564.41	43356.08
564.57	43407.58
564.74	43196.93
564.90	42939.47
565.07	43423.96
565.23	42850.53
565.39	43606.52
565.56	43332.68
565.72	43363.11
565.88	43386.51
566.05	43618.22
566.21	43667.37
566.38	43344.38
566.54	43449.70
566.70	43592.48
566.87	43620.56
567.03	43391.19
567.19	43854.62
567.36	43978.67
567.52	43620.56
567.68	43765.68
567.85	43945.90
568.01	43796.10
568.17	43683.76
568.34	43849.94
568.50	43871.00
568.66	43625.25
568.83	44343.79
568.99	43370.13
569.15	43814.83
569.32	44027.82
569.48	43817.17
569.64	44069.95
569.81	44041.86
569.97	44037.18
570.13	44360.17
570.30	44065.27
570.46	43786.74
570.62	43941.22
570.78	44018.46
570.95	43718.87
571.11	44437.41
571.27	43910.79
571.43	43772.70
571.60	44318.04
571.76	43613.54
571.92	43976.33
572.09	44030.16
572.25	44034.84
572.41	43983.35
572.57	44449.11
572.74	44414.01
572.90	44044.20
573.06	44502.95
573.22	44168.25
573.38	44612.95
573.55	44191.65
573.71	44425.71
573.87	43889.73
574.03	43772.70
574.20	44402.30
574.36	44086.33
574.52	44238.47
574.68	44416.35
574.84	44151.87
575.01	44931.26
575.17	44552.10
575.33	44282.94
575.49	44161.23
575.65	44680.83
575.82	44411.67
575.98	43709.50
576.14	44577.84
576.30	44521.67
576.46	44547.42
576.62	44383.58
576.79	44568.48
576.95	43746.95
577.11	44552.10
577.27	44428.05
577.43	44339.11
577.59	44137.82
577.75	44023.14
577.92	44002.07
578.08	44339.11
578.24	44399.96
578.40	44479.54
578.56	44580.18
578.72	44582.52
578.88	44292.30
579.04	44390.60
579.21	44215.06
579.37	44257.19
579.53	44346.13
579.69	44257.19
579.85	44414.01
580.01	44460.82
580.17	44598.91
580.33	44383.58
580.49	44926.58
580.65	44456.14
580.82	44629.34
580.98	43887.39
581.14	44098.03
581.30	44720.62
581.46	44336.77
581.62	44360.17
581.78	44278.25
581.94	44439.75
582.10	44233.78
582.26	44612.95
582.42	44741.68
582.58	44594.23
582.74	44531.03
582.90	44500.61
583.06	44751.04
583.22	44399.96
583.38	44847.00
583.54	44545.08
583.70	44418.69
583.86	44926.58
584.02	44449.11
584.18	45074.04
584.34	45036.59
584.50	44910.20
584.66	44540.39
584.82	44851.69
584.98	45151.27
585.14	44687.85
585.30	44191.65
585.46	45132.55
585.62	44898.50
585.78	44704.23
585.94	44704.23
586.10	44442.09
586.26	44547.42
586.42	44720.62
586.58	44961.69
586.74	44587.21
586.90	44547.42
587.06	44685.51
587.22	44509.97
587.38	44722.96
587.54	45015.52
587.70	45118.51
587.86	44830.62
588.02	45020.20
588.18	44814.24
588.34	44849.35
588.49	44952.33
588.65	44540.39
588.81	44453.79
588.97	44746.36
589.13	44877.43
589.29	44669.12
589.45	45088.08
589.61	45326.81
589.77	45081.06
589.93	44687.85
590.08	45071.70
590.24	45200.43
590.40	45397.03
590.56	45352.56
590.72	45436.82
590.88	45118.51
591.04	45034.25
591.20	44994.46
591.35	45003.82
591.51	45523.42
591.67	45350.22
591.83	45394.69
591.99	45071.70
592.15	45043.61
592.31	45081.06
592.46	45237.87
592.62	44765.09
592.78	45301.07
592.94	46127.28
593.10	45261.28
593.26	45558.53
593.41	45212.13
593.57	45219.15
593.73	45326.81
593.89	45741.09
594.05	45317.45
594.20	45397.03
594.36	45588.95
594.52	45441.50
594.68	45134.89
594.84	45064.67
594.99	45654.49
595.15	45556.19
595.31	45439.16
595.47	45352.56
595.62	45251.92
595.78	45560.87
595.94	45544.48
596.10	45059.99
596.25	45399.37
596.41	45691.94
596.57	45544.48
596.73	45600.66
596.88	45394.69
597.04	45462.57
597.20	45514.06
597.36	45139.57
597.51	45635.77
597.67	45701.30
597.83	45258.94
597.99	45017.86
598.14	45380.65
598.30	45799.60
598.46	45432.14
598.61	46206.86
598.77	45186.38
598.93	45584.27
599.09	45574.91
599.24	46115.58
599.40	45792.58
599.56	45876.84
599.71	45935.35
599.87	45860.46
600.03	45617.04
600.18	45354.90
600.34	45411.07
600.50	45595.98
600.65	45392.35
600.81	45897.91
600.97	45701.30
601.12	45610.02
601.28	45682.58
601.44	45808.96
601.59	45603.00
601.75	45497.67
601.91	45581.93
602.06	45359.58
602.22	46068.76
602.37	45659.17
602.53	45607.68
602.69	45872.16
602.84	45785.56
603.00	45443.84
603.16	45523.42
603.31	45588.95
603.47	45705.98
603.62	45476.61
603.78	45668.53
603.94	45385.33
604.09	45598.32
604.25	45762.15
604.40	45567.89
604.56	45504.70
604.71	45797.26
604.87	45619.38
605.03	45137.23
605.18	45401.71
605.34	45500.01
605.49	45067.02
605.65	45560.87
605.80	45249.58
605.96	44985.10
606.12	45720.02
606.27	45621.72
606.43	45560.87
606.58	45628.74
606.74	45305.75
606.89	45500.01
607.05	45811.31
607.20	45673.21
607.36	45198.09
607.51	45305.75
607.67	45427.46
607.82	45034.25
607.98	45404.05
608.13	45464.91
608.29	45509.38
608.44	45411.07
608.60	45172.34
608.75	45558.53
608.91	45184.04
609.06	45104.46
609.22	45310.43
609.37	45146.59
609.53	45848.75
609.68	45371.28
609.84	45258.94
609.99	45593.64
610.15	45425.12
610.30	45404.05
610.46	44851.69
610.61	45481.29
610.76	45441.50
610.92	45090.42
611.07	45104.46
611.23	45240.21
611.38	45282.34
611.54	45265.96
611.69	45144.25
611.84	45045.95
612.00	44910.20
612.15	45160.64
612.31	45062.33
612.46	45113.83
612.62	44889.13
612.77	45415.76
612.92	45352.56
613.08	45085.74
613.23	44942.97
613.39	44968.71
613.54	45045.95
613.69	45448.52
613.85	44971.05
614.00	45001.48
614.15	44980.42
614.31	45221.49
614.46	44744.02
614.62	44692.53
614.77	44573.16
614.92	45111.49
615.08	44638.70
615.23	44776.79
615.38	44973.39
615.54	44275.91
615.69	44521.67
615.84	45013.18
616.00	44891.48
616.15	44575.50
616.30	44917.22
616.46	44449.11
616.61	44741.68
616.76	44498.26
616.92	44816.58
617.07	44488.90
617.22	44318.04
617.37	44479.54
617.53	44575.50
617.68	44371.88
617.83	44594.23
617.99	44825.94
618.14	44634.02
618.29	44598.91
618.45	44568.48
618.60	44126.12
618.75	44027.82
618.90	44449.11
619.06	44268.89
619.21	44678.49
619.36	44531.03
619.51	44664.44
619.67	43835.89
619.82	43997.39
619.97	44168.25
620.12	44605.93
620.28	44259.53
620.43	44336.77
620.58	44425.71
620.73	43814.83
620.89	44353.15
621.04	44329.75
621.19	44172.93
621.34	44208.04
621.49	43966.96
621.65	44121.44
621.80	44156.55
621.95	43920.15
622.10	43969.30
622.25	44322.72
622.41	44147.18
622.56	44144.84
622.71	44179.95
622.86	44112.08
623.01	44175.27
623.16	43821.85
623.32	43388.85
623.47	43662.69
623.62	43585.46
623.77	43901.43
623.92	43814.83
624.07	43920.15
624.23	44184.63
624.38	43700.14
624.53	43969.30
624.68	43625.25
624.83	43552.69
624.98	43182.88
625.13	43241.40
625.29	43180.54
625.44	43271.82
625.59	43335.02
625.74	43243.74
625.89	43676.74
626.04	43533.96
626.19	43402.89
626.34	43192.25
626.49	43328.00
626.65	42522.85
626.80	43405.23
626.95	43051.81
627.10	42792.01
627.25	43100.97
627.40	43072.88
627.55	42742.86
627.70	42770.95
627.85	42953.51
628.00	43285.87
628.15	42944.15
628.30	42696.05
628.45	42962.87
628.60	42464.34
628.76	42728.82
628.91	42733.50
629.06	42487.74
629.21	42609.45
629.36	42143.69
629.51	42792.01
629.66	42887.98
629.81	42752.23
629.96	42639.88
630.11	42939.47
630.26	42492.43
630.41	42539.24
630.56	42616.47
630.71	42682.01
630.86	42029.00
631.01	42745.20
631.16	42176.45
631.31	42396.46
631.46	42639.88
631.61	42513.49
631.76	42667.97
631.91	42684.35
632.06	42335.61
632.21	42429.23
632.36	42974.58
632.51	42309.86
632.66	42801.38
632.81	42314.55
632.96	42653.92
633.10	42122.62
633.25	42464.34
633.40	42148.37
633.55	42211.56
633.70	42237.31
633.85	42157.73
634.00	41806.65
634.15	42148.37
634.30	42059.43
634.45	42162.41
634.60	41764.52
634.75	42412.85
634.90	42380.08
635.05	42029.00
635.19	42309.86
635.34	41652.17
635.49	41453.23
635.64	42377.74
635.79	42150.71
635.94	41874.52
636.09	41879.21
636.24	41979.85
636.39	42178.79
636.53	41886.23
636.68	41317.48
636.83	41647.49
636.98	41450.89
637.13	41413.44
637.28	41165.34
637.43	41532.81
637.57	42005.59
637.72	41371.31
637.87	41045.97
638.02	41759.84
638.17	41504.72
638.32	41684.94
638.46	40744.05
638.61	40835.33
638.76	41546.85
638.91	41294.07
639.06	41146.62
639.20	40882.14
639.35	40797.88
639.50	41104.49
639.65	41654.51
639.80	41563.23
639.94	40835.33
640.09	41469.61
640.24	41045.97
640.39	40594.25
640.54	40900.86
640.68	40882.14
640.83	41095.13
640.98	40928.95
641.13	41116.19
641.27	41373.65
641.42	40964.06
641.57	40797.88
641.72	40830.65
641.86	40748.73
642.01	40500.63
642.16	40411.69
642.31	40673.83
642.45	40919.59
642.60	40467.86
642.75	40732.34
642.90	40825.96
643.04	41179.39
643.19	40978.10
643.34	40414.03
643.48	40549.78
643.63	40304.02
643.78	40076.99
643.93	40713.62
644.07	40814.26
644.22	40676.17
644.37	40699.58
644.51	40638.72
644.66	40374.24
644.81	40587.23
644.95	40297.00
645.10	40247.85
645.25	40367.22
645.39	39798.47
645.54	40140.19
645.69	40119.12
645.83	39962.31
645.98	39835.92
646.13	40041.88
646.27	39892.09
646.42	39667.40
646.57	39969.33
646.71	40421.05
646.86	40481.91
647.00	40065.29
647.15	40069.97
647.30	39580.80
647.44	39723.57
647.59	40107.42
647.74	39892.09
647.88	39845.28
648.03	39758.68
648.17	40081.67
648.32	39601.86
648.47	40254.87
648.61	39636.97
648.76	39974.01
648.90	39473.13
649.05	39089.29
649.20	39470.79
649.34	39477.82
649.49	39847.62
649.63	39695.49
649.78	40018.48
649.92	40051.25
650.07	40058.27
650.21	39571.44
650.36	39447.39
650.51	38979.28
650.65	39950.60
650.80	39800.81
650.94	39643.99
651.09	39564.42
651.23	39016.73
651.38	39285.89
651.52	38897.36
651.67	39086.95
651.81	39407.60
651.96	39042.48
652.10	39089.29
652.25	39035.45
652.39	39044.82
652.54	38981.62
652.68	39187.59
652.83	39077.58
652.97	38862.26
653.12	38770.97
653.26	38789.70
653.41	38794.38
653.55	38958.22
653.70	39608.89
653.84	39349.09
653.99	39765.70
654.13	39030.77
654.27	38600.12
654.42	38693.74
654.56	38602.46
654.71	38632.88
654.85	38787.36
655.00	39161.84
655.14	38553.30
655.29	38920.77
655.43	39093.97
655.57	38581.39
655.72	38246.69
655.86	38546.28
656.01	38340.32
656.15	38625.86
656.30	38438.62
656.44	38747.57
656.58	38852.89
656.73	38316.91
656.87	38309.89
657.01	38185.84
657.16	38508.83
657.30	38141.37
657.45	38279.46
657.59	37996.26
657.73	38113.28
657.88	38239.67
658.02	38464.36
658.16	38710.12
658.31	38286.48
658.45	38132.01
658.60	37841.78
658.74	38124.99
658.88	37890.93
659.03	37673.26
659.17	38124.99
659.31	37469.64
659.46	37706.03
659.60	37809.01
659.74	37434.53
659.89	37102.17
660.03	37507.08
660.17	37553.90
660.32	37446.23
660.46	37434.53
660.60	37240.26
660.74	37170.05
660.89	37460.27
661.03	37289.42
661.17	37083.45
661.32	37376.01
661.46	37223.88
661.60	36856.42
661.74	37263.67
661.89	37139.62
662.03	37544.53
662.17	36739.39
662.31	36563.85
662.46	36987.49
662.60	36978.12
662.74	36311.07
662.88	36374.27
663.03	36231.49
663.17	36329.80
663.31	36065.31
663.45	36774.50
663.60	36634.06
663.74	36816.63
663.88	36360.22
664.02	35810.20
664.17	36411.71
664.31	36194.04
664.45	36374.27
664.59	36446.82
664.73	35716.58
664.88	36062.97
665.02	35807.86
665.16	35999.78
665.30	35952.97
665.44	35751.68
665.59	35875.73
665.73	35510.61
665.87	35360.81
666.01	35826.58
666.15	35459.12
666.29	35311.66
666.44	35683.81
666.58	35583.16
666.72	35196.98
666.86	35204.00
667.00	35061.22
667.14	35496.56
667.28	34747.59
667.43	35079.95
667.57	35248.47
667.71	35101.01
667.85	35129.10
667.99	34993.35
668.13	34550.99
668.27	34574.39
668.41	34504.18
668.56	34389.49
668.70	34600.14
668.84	34125.01
668.98	33816.06
669.12	34251.40
669.26	34553.33
669.40	34440.98
669.54	33986.92
669.68	34190.55
669.82	34078.20
669.96	33731.80
670.10	33663.93
670.25	33565.62
670.39	33844.15
670.53	33792.65
670.67	33797.34
670.81	33984.58
670.95	33893.30
671.09	33582.01
671.23	33474.34
671.37	33631.16
671.51	33200.50
671.65	32929.00
671.79	32959.42
671.93	33074.11
672.07	33399.44
672.21	33310.50
672.35	32877.51
672.49	33247.31
672.63	32912.61
672.77	32414.08
672.91	32919.63
673.05	32332.16
673.19	32077.04
673.33	32425.78
673.47	32205.77
673.61	31967.04
673.75	31835.97
673.89	32037.25
674.03	31967.04
674.17	31648.72
674.31	31620.64
674.45	31597.23
674.59	31831.29
674.73	31789.16
674.87	31445.10
675.01	31168.91
675.15	31412.33
675.29	31243.81
675.43	31311.69
675.56	31459.14
675.70	31323.39
675.84	31026.14
675.98	30347.39
676.12	30782.73
676.26	31187.64
676.40	30813.15
676.54	30541.65
676.68	30469.09
676.82	30040.78
676.96	30684.42
677.10	30274.83
677.23	30291.21
677.37	30377.81
677.51	29778.64
677.65	30008.01
677.79	29944.81
677.93	29912.05
678.07	30050.14
678.21	29383.09
678.34	29373.72
678.48	29282.44
678.62	29436.92
678.76	29319.89
678.90	29092.86
679.04	28975.83
679.18	29579.69
679.31	28884.55
679.45	29071.79
679.59	28507.72
679.73	28821.36
679.87	28060.68
680.00	28500.70
680.14	28458.57
680.28	28226.86
680.42	27868.76
680.56	28341.55
680.70	27674.49
680.83	27974.08
680.97	27742.37
681.11	27716.62
681.25	27580.87
681.39	27140.85
681.52	27314.05
681.66	27173.62
681.80	27105.74
681.94	26508.91
682.07	26972.33
682.21	26876.37
682.35	26984.04
682.49	26962.97
682.62	26672.74
682.76	26691.47
682.90	26712.53
683.04	26672.74
683.17	26513.59
683.31	26455.08
683.45	26019.74
683.59	25797.38
683.72	25921.43
683.86	25694.40
684.00	25743.55
684.13	25638.23
684.27	25502.48
684.41	25481.41
684.55	25355.02
684.68	25481.41
684.82	24982.88
684.96	24924.36
685.09	25245.02
685.23	24856.49
685.37	25254.38
685.50	25256.72
685.64	24985.22
685.78	24409.45
685.91	24687.97
686.05	24173.05
686.19	23793.89
686.32	23873.46
686.46	24126.24
686.60	23683.88
686.73	23871.12
686.87	23857.08
687.01	23913.25
687.14	23807.93
687.28	23229.82
687.42	23641.75
687.55	23454.51
687.69	23854.74
687.82	23084.70
687.96	23035.55
688.10	23358.55
688.23	23201.73
688.37	23311.74
688.50	22984.06
688.64	23164.28
688.78	22817.88
688.91	22757.03
689.05	22766.39
689.18	22515.95
689.32	22118.06
689.46	22232.75
689.59	22045.51
689.73	22485.53
689.86	22375.52
690.00	21886.35
690.13	22071.25
690.27	21645.27
690.41	21876.99
690.54	21509.52
690.68	21294.19
690.81	21561.02
690.95	21612.51
691.08	21015.67
691.22	21249.72
691.35	20793.32
691.49	21020.35
691.62	20842.47
691.76	20697.36
691.89	20538.20
692.03	20322.87
692.16	20414.15
692.30	20629.48
692.43	20292.44
692.57	20081.80
692.70	19749.44
692.84	19908.60
692.97	19754.12
693.11	19438.15
693.24	19536.45
693.38	19496.66
693.51	19534.11
693.65	19501.34
693.78	19309.42
693.92	19349.21
694.05	19143.24
694.19	19571.56
694.32	19290.70
694.45	19073.03
694.59	19262.61
694.72	19330.48
694.86	18998.13
694.99	18661.09
695.13	18689.18
695.26	18740.67
695.39	18129.79
695.53	18429.38
695.66	18391.93
695.80	18080.64
695.93	18448.10
696.07	18410.65
696.20	17783.39
696.33	17877.01
696.47	17582.10
696.60	17699.13
696.73	17696.79
696.87	17752.96
697.00	17757.64
697.14	17584.44
697.27	17455.72
697.40	17071.87
697.54	17165.49
697.67	17226.34
697.80	17144.42
697.94	16989.95
698.07	16943.14
698.21	16905.69
698.34	16786.32
698.47	16692.70
698.61	16063.10
698.74	16423.54
698.87	16524.18
699.01	16105.23
699.14	16184.80
699.27	16046.71
699.40	16013.95
699.54	16173.10
699.67	16245.66
699.80	15974.16
699.94	15969.48
700.07	15805.64
700.20	15899.26
700.34	15332.85
700.47	15592.65
700.60	15714.36
700.73	15536.48
700.87	15288.38
701.00	15248.59
701.13	15377.32
701.26	15117.52
701.40	15049.64
701.53	14878.79
701.66	15096.46
701.79	14967.73
701.93	14487.92
702.06	14471.53
702.19	14541.75
702.32	14384.93
702.46	14511.32
702.59	14427.06
702.72	14733.67
702.85	14251.52
702.99	14335.78
703.12	14125.13
703.25	13818.52
703.38	14153.22
703.51	13994.06
703.65	13862.99
703.78	13525.96
703.91	13628.94
704.04	13366.80
704.17	13516.59
704.31	13593.83
704.44	13338.71
704.57	13371.48
704.70	13284.88
704.83	13174.88
704.96	13004.02
705.10	13170.19
705.23	13238.07
>>>>>End Processed Spectral Data<<<<<
