SpectraSuite Data File
++++++++++++++++++++++++++++++++++++
Date: Fri Oct 25 10:44:30 EDT 2013
User: price-jones
Dark Spectrum Present: No
Reference Spectrum Present: No
Number of Sampled Component Spectra: 1
Spectrometers: USB2+H05261
Integration Time (usec): 100000 (USB2+H05261)
Spectra Averaged: 1 (USB2+H05261)
Boxcar Smoothing: 0 (USB2+H05261)
Correct for Electrical Dark: No (USB2+H05261)
Strobe/Lamp Enabled: No (USB2+H05261)
Correct for Detector Non-linearity: No (USB2+H05261)
Correct for Stray Light: No (USB2+H05261)
Number of Pixels in Processed Spectrum: 2048
>>>>>Begin Processed Spectral Data<<<<<
365.73	95.96
365.92	95.96
366.12	95.96
366.32	25.75
366.52	0.00
366.72	135.75
366.91	18.72
367.11	51.49
367.31	32.77
367.51	28.09
367.70	37.45
367.90	25.75
368.10	86.60
368.30	53.83
368.49	0.00
368.69	23.41
368.89	9.36
369.09	95.96
369.28	32.77
369.48	51.49
369.68	112.35
369.87	53.83
370.07	46.81
370.27	175.54
370.47	175.54
370.66	320.65
370.86	362.78
371.06	437.68
371.25	465.77
371.45	433.00
371.65	468.11
371.84	409.59
372.04	435.34
372.24	489.17
372.44	447.04
372.63	526.62
372.83	423.64
373.03	465.77
373.22	472.79
373.42	449.38
373.62	496.19
373.81	458.74
374.01	552.37
374.21	538.32
374.40	451.72
374.60	627.26
374.79	528.96
374.99	449.38
375.19	568.75
375.38	507.90
375.58	573.43
375.78	582.79
375.97	627.26
376.17	615.56
376.37	561.73
376.56	671.73
376.76	547.69
376.95	589.82
377.15	587.47
377.35	634.29
377.54	636.63
377.74	575.77
377.93	594.50
378.13	669.39
378.33	739.61
378.52	599.18
378.72	538.32
378.91	648.33
379.11	648.33
379.31	589.82
379.50	596.84
379.70	622.58
379.89	685.78
380.09	713.86
380.28	643.65
380.48	674.07
380.68	664.71
380.87	638.97
381.07	660.03
381.26	763.01
381.46	720.88
381.65	706.84
381.85	641.31
382.04	636.63
382.24	660.03
382.43	690.46
382.63	744.29
382.83	662.37
383.02	809.83
383.22	744.29
383.41	814.51
383.61	697.48
383.80	812.17
384.00	695.14
384.19	744.29
384.39	748.97
384.58	751.31
384.78	772.38
384.97	798.12
385.17	844.93
385.36	791.10
385.56	777.06
385.75	723.23
385.95	725.57
386.14	798.12
386.34	805.14
386.53	795.78
386.72	753.65
386.92	861.32
387.11	950.26
387.31	875.36
387.50	924.51
387.70	791.10
387.89	873.02
388.09	795.78
388.28	800.46
388.48	880.04
388.67	938.55
388.86	887.06
389.06	898.77
389.25	936.21
389.45	1004.09
389.64	957.28
389.84	896.43
390.03	875.36
390.22	912.81
390.42	959.62
390.61	884.72
390.81	919.83
391.00	1055.58
391.19	1067.28
391.39	976.00
391.58	978.34
391.78	1071.97
391.97	1095.37
392.16	917.49
392.36	1046.22
392.55	1076.65
392.75	901.11
392.94	954.94
393.13	997.07
393.33	873.02
393.52	1034.52
393.71	1177.29
393.91	1121.12
394.10	1029.84
394.29	1170.27
394.49	1029.84
394.68	1151.54
394.88	1116.44
395.07	1139.84
395.26	1217.08
395.46	1203.04
395.65	1177.29
395.84	1193.67
396.04	1228.78
396.23	1118.78
396.42	1172.61
396.62	1118.78
396.81	1142.18
397.00	1174.95
397.19	1280.27
397.39	1252.19
397.58	1306.02
397.77	1291.98
397.97	1366.87
398.16	1320.06
398.35	1448.79
398.55	1437.09
398.74	1413.68
398.93	1469.86
399.12	1376.24
399.32	1397.30
399.51	1364.53
399.70	1399.64
399.90	1366.87
400.09	1446.45
400.28	1558.80
400.47	1530.71
400.67	1479.22
400.86	1584.54
401.05	1579.86
401.24	1577.52
401.44	1556.46
401.63	1593.90
401.82	1575.18
402.01	1549.43
402.21	1526.03
402.40	1600.93
402.59	1640.72
402.78	1561.14
402.97	1605.61
403.17	1732.00
403.36	1706.25
403.55	1708.59
403.74	1673.48
403.93	1678.16
404.13	1774.13
404.32	1727.32
404.51	1830.30
404.70	1816.26
404.89	1888.81
405.09	1820.94
405.28	1856.04
405.47	1818.60
405.66	1785.83
405.85	1914.56
406.05	1944.99
406.24	1914.56
406.43	1898.17
406.62	1900.52
406.81	1961.37
407.00	1909.88
407.20	1975.41
407.39	1870.09
407.58	1980.09
407.77	2017.54
407.96	2050.31
408.15	2188.40
408.34	2115.84
408.54	2153.29
408.73	2167.34
408.92	2141.59
409.11	2202.44
409.30	2136.91
409.49	2141.59
409.68	2162.66
409.87	2143.93
410.07	2232.87
410.26	2132.23
410.45	2305.43
410.64	2392.03
410.83	2324.15
411.02	2431.82
411.21	2422.45
411.40	2513.74
411.59	2534.80
411.78	2429.48
411.98	2406.07
412.17	2476.29
412.36	2478.63
412.55	2537.14
412.74	2658.85
412.93	2523.10
413.12	2553.52
413.31	2684.59
413.50	2619.06
413.69	2654.17
413.88	2750.13
414.07	2782.90
414.26	2637.78
414.45	2768.85
414.64	2736.09
414.83	2827.37
415.02	2860.13
415.22	2979.50
415.41	2995.89
415.60	2904.60
415.79	2925.67
415.98	3033.33
416.17	3138.66
416.36	3082.49
416.55	3141.00
416.74	3131.64
416.93	3091.85
417.12	3131.64
417.31	3035.67
417.50	3115.25
417.69	3260.37
417.88	3159.72
418.07	3164.40
418.26	3206.53
418.45	3353.99
418.64	3328.24
418.83	3194.83
419.02	3314.20
419.21	3440.59
419.39	3234.62
419.58	3342.28
419.77	3272.07
419.96	3351.65
420.15	3421.86
420.34	3538.89
420.53	3461.65
420.72	3623.15
420.91	3548.25
421.10	3576.34
421.29	3616.13
421.48	3613.79
421.67	3702.73
421.86	3520.17
422.05	3616.13
422.24	3581.02
422.43	3602.08
422.61	3651.24
422.80	3644.21
422.99	3667.62
423.18	3723.79
423.37	3742.52
423.56	3782.31
423.75	3740.18
423.94	3524.85
424.13	3440.59
424.32	3623.15
424.50	3653.58
424.69	3775.28
424.88	3899.33
425.07	3684.00
425.26	3655.92
425.45	3791.67
425.64	3646.55
425.83	3716.77
426.01	3794.01
426.20	3768.26
426.39	3728.47
426.58	3850.18
426.77	3637.19
426.96	3779.97
427.15	3812.73
427.33	3833.80
427.52	3794.01
427.71	3882.95
427.90	3918.06
428.09	3929.76
428.28	3932.10
428.46	3922.74
428.65	3941.46
428.84	4063.17
429.03	4154.45
429.22	3789.33
429.40	4035.08
429.59	3911.04
429.78	3777.62
429.97	3634.85
430.16	3817.41
430.34	3873.59
430.53	4109.98
430.72	3960.19
430.91	3981.25
431.10	4131.05
431.28	4311.27
431.47	4360.42
431.66	4437.66
431.85	4212.96
432.03	4423.61
432.22	4404.89
432.41	4301.90
432.60	4390.84
432.79	4329.99
432.97	4393.19
433.16	4400.21
433.35	4383.82
433.54	4479.79
433.72	4463.40
433.91	4432.97
434.10	4594.47
434.28	4493.83
434.47	4482.13
434.66	4669.37
434.85	4622.56
435.03	4704.48
435.22	4746.61
435.41	4828.53
435.59	4851.93
435.78	4802.78
435.97	4858.95
436.16	4755.97
436.34	4877.68
436.53	4844.91
436.72	4952.57
436.90	4751.29
437.09	4795.76
437.28	4840.23
437.46	4842.57
437.65	4910.44
437.84	4922.15
438.02	5004.07
438.21	4887.04
438.40	4983.00
438.58	5067.26
438.77	5294.29
438.96	5025.13
439.14	5254.50
439.33	5343.44
439.52	5238.12
439.70	5343.44
439.89	5357.49
440.08	5511.96
440.26	5645.37
440.45	5313.02
440.63	5636.01
440.82	5696.86
441.01	5664.10
441.19	5544.73
441.38	5846.66
441.57	5741.33
441.75	5678.14
441.94	5905.17
442.12	5973.05
442.31	6047.94
442.50	5959.00
442.68	6150.93
442.87	6108.80
443.05	5994.11
443.24	6045.60
443.43	6052.63
443.61	6071.35
443.80	6246.89
443.98	6043.26
444.17	5968.37
444.35	6223.48
444.54	6249.23
444.73	6253.91
444.91	6085.39
445.10	6008.16
445.28	6092.41
445.47	6054.97
445.65	6106.46
445.84	6204.76
446.02	6160.29
446.21	6342.85
446.39	6141.57
446.58	6345.19
446.77	6300.72
446.95	6162.63
447.14	6399.02
447.32	6387.32
447.51	6356.90
447.69	6246.89
447.88	6502.01
448.06	6399.02
448.25	6265.61
448.43	6270.30
448.62	6303.06
448.80	6338.17
448.99	6539.46
449.17	6551.16
449.36	6382.64
449.54	6719.68
449.73	6712.66
449.91	6843.73
450.10	6703.29
450.28	7007.56
450.46	6897.56
450.65	6965.43
450.83	6766.49
451.02	6705.63
451.20	6726.70
451.39	7045.01
451.57	6813.30
451.76	6670.53
451.94	6881.18
452.13	6841.39
452.31	6930.33
452.49	6789.89
452.68	6803.94
452.86	6871.81
453.05	7000.54
453.23	7005.22
453.42	6965.43
453.60	6731.38
453.78	7166.72
453.97	7152.68
454.15	6871.81
454.34	7000.54
454.52	7119.91
454.70	7211.19
454.89	7131.61
455.07	7140.97
455.26	7272.04
455.44	7300.13
455.62	7393.75
455.81	7426.52
455.99	7424.18
456.17	7332.90
456.36	7377.37
456.54	7349.28
456.73	7590.36
456.91	7646.53
457.09	7742.49
457.28	7873.56
457.46	7578.65
457.64	7791.64
457.83	7719.09
458.01	7569.29
458.19	7885.26
458.38	7885.26
458.56	7801.01
458.74	7805.69
458.93	7971.86
459.11	7754.19
459.29	7728.45
459.48	7840.79
459.66	7775.26
459.84	8049.10
460.03	8138.04
460.21	8109.96
460.39	8028.04
460.57	8138.04
460.76	8084.21
460.94	8273.79
461.12	8365.07
461.31	8161.45
461.49	8170.81
461.67	8231.66
461.85	8353.37
462.04	8280.82
462.22	8428.27
462.40	8334.65
462.59	8308.90
462.77	8336.99
462.95	8299.54
463.13	8376.78
463.32	8463.38
463.50	8386.14
463.68	8650.62
463.86	8606.15
464.05	8585.08
464.23	8514.87
464.41	8486.78
464.59	8435.29
464.78	8659.98
464.96	8585.08
465.14	8535.93
465.32	8786.37
465.50	8828.50
465.69	8894.04
465.87	8695.09
466.05	9001.70
466.23	8791.05
466.41	8835.52
466.60	8826.16
466.78	8664.66
466.96	8901.06
467.14	8854.25
467.32	8669.34
467.51	9092.98
467.69	8755.94
467.87	8887.01
468.05	9074.26
468.23	8997.02
468.41	9132.77
468.60	8999.36
468.78	9142.13
468.96	9156.18
469.14	9177.24
469.32	9397.25
469.50	9015.74
469.69	9174.90
469.87	9343.42
470.05	9331.72
470.23	9224.05
470.41	9394.91
470.59	9420.66
470.77	9502.58
470.95	9357.46
471.14	9645.35
471.32	9441.72
471.50	9722.59
471.68	9827.91
471.86	9750.67
472.04	9853.66
472.22	10003.45
472.40	9790.46
472.58	9755.35
472.77	9856.00
472.95	10010.47
473.13	10429.43
473.31	9921.53
473.49	10076.01
473.67	10148.56
473.85	10134.52
474.03	10373.25
474.21	10572.20
474.39	10693.91
474.57	10420.06
474.75	10661.14
474.93	10677.52
475.12	10607.31
475.30	10651.78
475.48	10654.12
475.66	10689.23
475.84	10579.22
476.02	10815.62
476.20	10911.58
476.38	11110.52
476.56	11239.25
476.74	11126.91
476.92	11332.87
477.10	11236.91
477.28	11323.51
477.46	11489.69
477.64	11669.91
477.82	11997.59
478.00	11934.39
478.18	11800.98
478.36	11939.07
478.54	12301.86
478.72	12079.50
478.90	12250.36
479.08	12315.90
479.26	12341.64
479.44	12613.15
479.62	12395.48
479.80	12624.85
479.98	12816.77
480.16	12915.08
480.34	12868.27
480.52	13132.75
480.70	13212.32
480.88	12819.11
481.06	13158.49
481.24	13195.94
481.41	13486.17
481.59	13586.81
481.77	13855.97
481.95	13699.16
482.13	13933.21
482.31	13940.23
482.49	14324.08
482.67	14132.15
482.85	14394.29
483.03	14532.39
483.21	14377.91
483.39	14310.04
483.57	14752.40
483.74	14778.14
483.92	14700.90
484.10	14839.00
484.28	15337.53
484.46	15407.75
484.64	15653.50
484.82	15290.72
485.00	15351.57
485.18	15506.05
485.35	15625.42
485.53	15712.02
485.71	15534.14
485.89	15632.44
486.07	15999.90
486.25	15845.43
486.43	16269.06
486.61	16421.20
486.78	16650.57
486.96	16718.45
487.14	17078.89
487.32	16987.61
487.50	16702.06
487.68	17205.28
487.85	17474.44
488.03	17905.10
488.21	17734.24
488.39	17792.75
488.57	17832.54
488.75	17909.78
488.92	18450.44
489.10	18501.93
489.28	18642.37
489.46	18560.45
489.64	18862.38
489.81	18892.80
489.99	19419.42
490.17	19344.53
490.35	19412.40
490.53	19494.32
490.70	19672.20
490.88	19569.22
491.06	19882.85
491.24	19779.87
491.41	20006.90
491.59	19934.34
491.77	19981.15
491.95	20191.80
492.13	20379.04
492.30	20776.94
492.48	20510.11
492.66	20783.96
492.84	20980.56
493.01	21099.93
493.19	21057.80
493.37	21195.89
493.54	21394.84
493.72	21846.56
493.90	21458.03
494.08	21965.93
494.25	22136.79
494.43	22567.45
494.61	22195.30
494.79	22228.07
494.96	22356.80
495.14	22508.93
495.32	22874.06
495.49	22792.14
495.67	22906.82
495.85	23173.64
496.02	23145.56
496.20	22951.29
496.38	23262.58
496.55	23517.70
496.73	24086.45
496.91	23578.56
497.09	23873.46
497.26	24046.66
497.44	24243.27
497.62	24299.44
497.79	24535.84
497.97	24198.80
498.14	24458.60
498.32	24397.74
498.50	24575.62
498.67	24915.00
498.85	25088.20
499.03	25179.48
499.20	25067.14
499.38	25198.21
499.56	25408.86
499.73	25500.14
499.91	25429.92
500.08	25715.47
500.26	25116.29
500.44	25872.28
500.61	25542.27
500.79	25671.00
500.97	25919.09
501.14	26129.74
501.32	26008.03
501.49	25781.00
501.67	25998.67
501.84	26415.29
502.02	26363.79
502.20	26855.31
502.37	26892.76
502.55	26616.57
502.72	27047.23
502.90	27005.10
503.07	26827.22
503.25	27157.24
503.43	26934.88
503.60	26864.67
503.78	27133.83
503.95	27253.20
504.13	27613.64
504.30	27639.39
504.48	27697.90
504.65	27531.72
504.83	27761.09
505.01	28074.73
505.18	27992.81
505.36	28582.62
505.53	28271.33
505.71	28666.88
505.88	28453.89
506.06	28004.51
506.23	28641.14
506.41	28542.83
506.58	28732.42
506.76	28837.74
506.93	28697.31
507.11	28734.76
507.28	28758.16
507.46	28788.59
507.63	29001.58
507.81	29106.90
507.98	29060.09
508.16	29205.20
508.33	29228.61
508.50	29825.45
508.68	29495.43
508.85	29862.90
509.03	29626.50
509.20	29682.67
509.38	29912.05
509.55	29783.32
509.73	30003.33
509.90	29923.75
510.08	30501.86
510.25	30223.34
510.42	30298.23
510.60	30352.07
510.77	30764.00
510.95	30558.03
511.12	30611.87
511.30	30979.33
511.47	31285.94
511.64	30923.16
511.82	31246.15
511.99	30930.18
512.17	31325.73
512.34	31056.57
512.51	31264.88
512.69	31358.50
512.86	31814.90
513.04	31608.93
513.21	31768.09
513.38	31433.39
513.56	31702.56
513.73	31381.90
513.90	32016.19
514.08	31585.53
514.25	31812.56
514.43	31653.40
514.60	32147.26
514.77	31915.54
514.95	32535.79
515.12	32215.13
515.29	32589.62
515.47	32769.84
515.64	32924.32
515.81	32343.86
515.99	32882.19
516.16	32444.51
516.33	32491.32
516.51	32601.32
516.68	32439.82
516.85	32266.63
517.03	32999.21
517.20	32856.44
517.37	33177.09
517.54	33186.46
517.72	33022.62
517.89	32875.16
518.06	33083.47
518.24	32999.21
518.41	33284.76
518.58	33509.45
518.75	33582.01
518.93	33621.80
519.10	33464.98
519.27	33640.52
519.45	34213.95
519.62	33989.26
519.79	33862.87
519.96	34120.33
520.14	34789.72
520.31	33996.28
520.48	34490.13
520.65	34548.65
520.83	34572.05
521.00	34485.45
521.17	34948.88
521.34	34873.98
521.52	34745.25
521.69	34937.18
521.86	35218.04
522.03	35199.32
522.20	35072.93
522.38	35253.15
522.55	34822.49
522.72	35433.37
522.89	35306.98
523.07	35367.84
523.24	35208.68
523.41	35903.82
523.58	35211.02
523.75	36077.02
523.92	35487.20
524.10	36320.43
524.27	36247.88
524.44	36109.78
524.61	36449.16
524.78	36561.51
524.96	36357.88
525.13	36655.13
525.30	36505.34
525.47	36465.55
525.64	36245.54
525.81	36657.47
525.98	36142.55
526.16	36273.62
526.33	36306.39
526.50	36519.38
526.67	36149.57
526.84	36463.21
527.01	36250.22
527.18	36715.98
527.36	36701.94
527.53	37397.08
527.70	37198.13
527.87	37331.54
528.04	37247.29
528.21	37230.90
528.38	37270.69
528.55	37666.24
528.72	37095.15
528.89	37689.65
529.07	37228.56
529.24	37607.73
529.41	37525.81
529.58	37399.42
529.75	37916.68
529.92	37977.53
530.09	37937.74
530.26	38602.46
530.43	38129.67
530.60	37441.55
530.77	38452.66
530.94	38405.85
531.11	38188.18
531.28	38314.57
531.46	38419.89
531.63	38394.15
531.80	38321.59
531.97	37851.14
532.14	38452.66
532.31	37961.15
532.48	38040.73
532.65	38749.91
532.82	38227.97
532.99	38813.10
533.16	38864.60
533.33	39037.80
533.50	39524.63
533.67	38829.49
533.84	38469.04
534.01	39161.84
534.18	39131.42
534.35	38782.68
534.52	38958.22
534.69	39145.46
534.86	39232.06
535.03	39100.99
535.20	39372.49
535.37	39730.59
535.54	39564.42
535.71	39819.53
535.88	39365.47
536.05	39105.67
536.22	39805.49
536.38	39468.45
536.55	39693.15
536.72	39866.34
536.89	39578.46
537.06	39620.59
537.23	39585.48
537.40	39971.67
537.57	39981.03
537.74	39952.94
537.91	40133.17
538.08	39964.65
538.25	39950.60
538.42	39924.86
538.59	40453.82
538.75	39730.59
538.92	40100.40
539.09	40301.68
539.26	39955.29
539.43	40238.49
539.60	40275.94
539.77	40062.95
539.94	40306.37
540.11	40084.01
540.28	40648.08
540.44	40355.52
540.61	40678.51
540.78	40002.10
540.95	40514.67
541.12	40514.67
541.29	40226.79
541.46	40505.31
541.62	40758.09
541.79	40987.46
541.96	40900.86
542.13	40589.57
542.30	40818.94
542.47	40711.28
542.63	40879.80
542.80	41137.26
542.97	41670.90
543.14	41694.30
543.31	41734.09
543.48	41263.64
543.64	42174.11
543.81	41839.42
543.98	41790.27
544.15	41336.20
544.32	41596.00
544.48	42141.35
544.65	41551.53
544.82	41830.05
544.99	41607.70
545.16	41706.01
545.32	42040.70
545.49	42368.38
545.66	42267.73
545.83	42183.48
546.00	42211.56
546.16	42167.09
546.33	41879.21
546.50	42045.38
546.67	42080.49
546.83	41736.43
547.00	41881.55
547.17	42305.18
547.34	42553.28
547.50	42225.60
547.67	42829.46
547.84	42410.51
548.00	42700.73
548.17	42862.23
548.34	42347.31
548.51	42649.24
548.67	42806.06
548.84	42490.09
549.01	42988.62
549.18	42763.93
549.34	42946.49
549.51	42696.05
549.68	42918.40
549.84	43056.50
550.01	42951.17
550.18	42466.68
550.34	43400.55
550.51	42466.68
550.68	42726.48
550.84	42260.71
551.01	43115.01
551.18	42866.91
551.34	43271.82
551.51	42611.79
551.68	43435.66
551.84	43306.93
552.01	43042.45
552.18	43182.88
552.34	42663.28
552.51	43229.69
552.68	43543.33
552.84	43353.74
553.01	43555.03
553.18	43746.95
553.34	43669.72
553.51	43005.00
553.67	43274.16
553.84	43611.20
554.01	43629.93
554.17	43330.34
554.34	43629.93
554.51	43496.52
554.67	44205.70
554.84	43842.92
555.00	43531.62
555.17	43433.32
555.33	43391.19
555.50	43557.37
555.67	43702.48
555.83	43543.33
556.00	43842.92
556.16	44186.97
556.33	43580.78
556.50	43950.58
556.66	43866.32
556.83	43735.25
556.99	44179.95
557.16	44268.89
557.32	44236.12
557.49	44016.11
557.65	43868.66
557.82	43700.14
557.98	44135.48
558.15	44062.93
558.32	43880.36
558.48	43751.63
558.65	43646.31
558.81	43828.87
558.98	43817.17
559.14	44051.22
559.31	44238.47
559.47	44179.95
559.64	44273.57
559.80	44399.96
559.97	44329.75
560.13	44264.21
560.30	44526.35
560.46	44257.19
560.63	44348.47
560.79	44484.22
560.96	44748.70
561.12	44357.83
561.29	44257.19
561.45	44177.61
561.61	44002.07
561.78	44311.02
561.94	44313.36
562.11	44390.60
562.27	44493.58
562.44	44641.04
562.60	44793.17
562.77	44910.20
562.93	44142.50
563.10	44748.70
563.26	44456.14
563.42	44535.71
563.59	44388.26
563.75	44411.67
563.92	44732.32
564.08	44851.69
564.24	44959.35
564.41	44552.10
564.57	44673.81
564.74	44624.65
564.90	44549.76
565.07	44458.48
565.23	45064.67
565.39	44636.36
565.56	45331.50
565.72	44500.61
565.88	45057.65
566.05	44676.15
566.21	44755.72
566.38	44512.31
566.54	44891.48
566.70	45022.54
566.87	45228.51
567.03	45017.86
567.19	45221.49
567.36	44748.70
567.52	44949.99
567.68	44636.36
567.85	45338.52
568.01	44779.13
568.17	45062.33
568.34	44896.16
568.50	44839.98
568.66	44673.81
568.83	44697.21
568.99	44844.66
569.15	44942.97
569.32	45090.42
569.48	44999.14
569.64	45167.66
569.81	45202.77
569.97	45102.12
570.13	45148.93
570.30	44809.56
570.46	44931.26
570.62	44353.15
570.78	44795.51
570.95	44954.67
571.11	45340.86
571.27	45059.99
571.43	44343.79
571.60	45034.25
571.76	44524.01
571.92	45170.00
572.09	45373.63
572.25	45226.17
572.41	44896.16
572.57	45352.56
572.74	44884.45
572.90	45090.42
573.06	45153.62
573.22	45394.69
573.38	44847.00
573.55	44865.73
573.71	45301.07
573.87	44910.20
574.03	44935.95
574.20	45038.93
574.36	45165.32
574.52	44914.88
574.68	44945.31
574.84	45041.27
575.01	44744.02
575.17	44900.84
575.33	44947.65
575.49	45090.42
575.65	45439.16
575.82	45130.21
575.98	45565.55
576.14	45235.53
576.30	45408.73
576.46	45237.87
576.62	45008.50
576.79	45287.03
576.95	45076.38
577.11	45347.88
577.27	45263.62
577.43	45254.26
577.59	45361.92
577.75	45195.74
577.92	44715.93
578.08	44849.35
578.24	44994.46
578.40	45022.54
578.56	44966.37
578.72	45200.43
578.88	45275.32
579.04	45209.79
579.21	45291.71
579.37	45132.55
579.53	45560.87
579.69	45160.64
579.85	45312.77
580.01	45359.58
580.17	45186.38
580.33	45228.51
580.49	45790.24
580.65	45055.31
580.82	45429.80
580.98	45006.16
581.14	45111.49
581.30	45261.28
581.46	45511.72
581.62	45500.01
581.78	45148.93
581.94	45645.13
582.10	45317.45
582.26	45441.50
582.42	45406.39
582.58	45289.37
582.74	45195.74
582.90	45617.04
583.06	45748.11
583.22	45237.87
583.38	45837.05
583.54	45804.28
583.70	45205.11
583.86	45418.10
584.02	45390.01
584.18	45289.37
584.34	45195.74
584.50	45418.10
584.66	45050.63
584.82	45085.74
584.98	45212.13
585.14	45727.05
585.30	45177.02
585.46	45373.63
585.62	45071.70
585.78	45603.00
585.94	44858.71
586.10	45270.64
586.26	45151.27
586.42	45507.04
586.58	45921.31
586.74	45448.52
586.90	45179.36
587.06	45205.11
587.22	45689.60
587.38	45139.57
587.54	45275.32
587.70	45549.17
587.86	45539.80
588.02	45544.48
588.18	45525.76
588.34	45619.38
588.49	45436.82
588.65	44828.28
588.81	45141.91
588.97	45160.64
589.13	44889.13
589.29	45242.56
589.45	45361.92
589.61	45085.74
589.77	45530.44
589.93	45663.85
590.08	46071.10
590.24	45825.35
590.40	45556.19
590.56	45343.20
590.72	45935.35
590.88	45343.20
591.04	45469.59
591.20	45993.87
591.35	45696.62
591.51	45748.11
591.67	45682.58
591.83	45500.01
591.99	45851.09
592.15	45390.01
592.31	45792.58
592.46	45588.95
592.62	45471.93
592.78	45911.95
592.94	45420.44
593.10	45162.98
593.26	45745.77
593.41	45460.23
593.57	45757.47
593.73	45823.01
593.89	45368.94
594.05	45249.58
594.20	45689.60
594.36	45610.02
594.52	46181.11
594.68	45443.84
594.84	45727.05
594.99	45963.44
595.15	45530.44
595.31	45642.79
595.47	45825.35
595.62	46197.49
595.78	45336.18
595.94	46078.13
596.10	45949.40
596.25	45947.06
596.41	45951.74
596.57	45743.43
596.73	45677.90
596.88	45322.13
597.04	46089.83
597.20	46045.36
597.36	45439.16
597.51	46005.57
597.67	45607.68
597.83	45888.54
597.99	45642.79
598.14	45853.44
598.30	45518.74
598.46	45621.72
598.61	45727.05
598.77	45455.54
598.93	45675.55
599.09	45640.45
599.24	46136.64
599.40	45780.88
599.56	45696.62
599.71	46036.00
599.87	45787.90
600.03	45762.15
600.18	45808.96
600.34	45748.11
600.50	45855.78
600.65	45413.41
600.81	45738.75
600.97	46003.23
601.12	45991.53
601.28	46036.00
601.44	45610.02
601.59	45380.65
601.75	45373.63
601.91	45563.21
602.06	45368.94
602.22	45560.87
602.37	45483.63
602.53	45563.21
602.69	45879.18
602.84	45275.32
603.00	45790.24
603.16	45483.63
603.31	45146.59
603.47	45551.51
603.62	45638.11
603.78	45509.38
603.94	45500.01
604.09	45820.67
604.25	45813.65
604.40	45626.40
604.56	45504.70
604.71	45820.67
604.87	45179.36
605.03	45305.75
605.18	45258.94
605.34	45675.55
605.49	45160.64
605.65	45675.55
605.80	45565.55
605.96	45338.52
606.12	45614.70
606.27	46003.23
606.43	45345.54
606.58	45076.38
606.74	44875.09
606.89	45233.19
607.05	45509.38
607.20	45635.77
607.36	45401.71
607.51	45717.68
607.67	45251.92
607.82	45890.88
607.98	45219.15
608.13	44898.50
608.29	45322.13
608.44	45343.20
608.60	45371.28
608.75	44938.29
608.91	45352.56
609.06	44760.40
609.22	45235.53
609.37	45076.38
609.53	45020.20
609.68	45221.49
609.84	44790.83
609.99	45249.58
610.15	44706.57
610.30	45151.27
610.46	44861.05
610.61	45322.13
610.76	45347.88
610.92	44912.54
611.07	45207.45
611.23	45230.85
611.38	45254.26
611.54	45074.04
611.69	45167.66
611.84	44851.69
612.00	45088.08
612.15	44797.85
612.31	45116.17
612.46	44905.52
612.62	44851.69
612.77	44722.96
612.92	45317.45
613.08	44961.69
613.23	44968.71
613.39	45179.36
613.54	44229.10
613.69	44601.25
613.85	44821.26
614.00	44715.93
614.15	44680.83
614.31	44425.71
614.46	44949.99
614.62	44856.37
614.77	44371.88
614.92	44641.04
615.08	44832.96
615.23	44559.12
615.38	44648.06
615.54	44271.23
615.69	44329.75
615.84	44701.89
616.00	44397.62
616.15	44196.34
616.30	44289.96
616.46	44229.10
616.61	43683.76
616.76	44278.25
616.92	44109.74
617.07	44327.41
617.22	43976.33
617.37	43793.76
617.53	44285.28
617.68	44629.34
617.83	44294.64
617.99	44261.87
618.14	44725.30
618.29	43786.74
618.45	43784.40
618.60	43805.47
618.75	43959.94
618.90	43999.73
619.06	43880.36
619.21	44060.58
619.36	43744.61
619.51	43824.19
619.67	43519.92
619.82	44250.17
619.97	43971.64
620.12	43569.07
620.28	43742.27
620.43	43269.48
620.58	43885.04
620.73	43564.39
620.89	43775.04
621.04	43594.82
621.19	43515.24
621.34	43945.90
621.49	43658.01
621.65	43494.18
621.80	43917.81
621.95	43571.41
622.10	43346.72
622.25	42740.52
622.41	43065.86
622.56	42979.26
622.71	43655.67
622.86	43501.20
623.01	43171.18
623.16	43009.68
623.32	43187.56
623.47	43159.48
623.62	42632.86
623.77	42663.28
623.92	42948.83
624.07	42916.06
624.23	42983.94
624.38	42829.46
624.53	42600.09
624.68	42707.76
624.83	42735.84
624.98	42705.41
625.13	42733.50
625.29	42801.38
625.44	42705.41
625.59	43110.33
625.74	42450.30
625.89	42370.72
626.04	42623.50
626.19	42529.87
626.34	42735.84
626.49	42649.24
626.65	42927.77
626.80	42548.60
626.95	42927.77
627.10	41773.88
627.25	42754.57
627.40	42518.17
627.55	41998.57
627.70	41696.64
627.85	41811.33
628.00	42300.50
628.15	42239.65
628.30	41979.85
628.45	42515.83
628.60	42064.11
628.76	42646.90
628.91	42469.02
629.06	41942.40
629.21	42064.11
629.36	41696.64
629.51	41942.40
629.66	41771.54
629.81	41811.33
629.96	41722.39
630.11	42312.20
630.26	42314.55
630.41	42068.79
630.56	41649.83
630.71	41813.67
630.86	41495.36
631.01	41614.72
631.16	41818.35
631.31	41525.78
631.46	41429.82
631.61	41624.09
631.76	41565.57
631.91	41853.46
632.06	41443.87
632.21	41497.70
632.36	41918.99
632.51	41823.03
632.66	41368.97
632.81	40954.69
632.96	41076.40
633.10	41418.12
633.25	41251.94
633.40	41408.76
633.55	41511.74
633.70	41425.14
633.85	41319.82
634.00	40945.33
634.15	41385.35
634.30	41448.55
634.45	41251.94
634.60	41535.15
634.75	41294.07
634.90	41331.52
635.05	41090.44
635.19	40772.13
635.34	41038.95
635.49	40985.12
635.64	41399.40
635.79	40711.28
635.94	40744.05
636.09	40832.99
636.24	40655.11
636.39	40608.29
636.53	40591.91
636.68	40524.04
636.83	40786.18
636.98	40879.80
637.13	40722.98
637.28	40973.42
637.43	40964.06
637.57	40882.14
637.72	40659.79
637.87	40802.56
638.02	40500.63
638.17	40884.48
638.32	40416.37
638.46	40486.59
638.61	40605.95
638.76	40226.79
638.91	40212.74
639.06	40212.74
639.20	40353.18
639.35	40765.11
639.50	40320.41
639.65	40594.25
639.80	40708.94
639.94	40212.74
640.09	40175.30
640.24	40250.19
640.39	39899.11
640.54	40119.12
640.68	39807.83
640.83	40142.53
640.98	39758.68
641.13	39339.72
641.27	40402.33
641.42	39817.19
641.57	39985.71
641.72	39873.37
641.86	39494.20
642.01	39613.57
642.16	39431.01
642.31	39166.52
642.45	39791.45
642.60	39772.72
642.75	39789.11
642.90	39636.97
643.04	39517.60
643.19	39667.40
643.34	39398.24
643.48	39744.64
643.63	39470.79
643.78	38918.43
643.93	38932.47
644.07	39494.20
644.22	39374.83
644.37	38885.66
644.51	38946.51
644.66	39409.94
644.81	39384.19
644.95	39721.23
645.10	39735.27
645.25	39491.86
645.39	39000.35
645.54	39210.99
645.69	39021.41
645.83	39445.05
645.98	39084.61
646.13	39358.45
646.27	39023.75
646.42	39227.38
646.57	39012.05
646.71	39201.63
646.86	39086.95
647.00	39047.16
647.15	39210.99
647.30	39342.06
647.44	38698.42
647.59	38778.00
647.74	38616.50
647.88	38906.73
648.03	39098.65
648.17	38806.08
648.32	38569.69
648.47	38824.81
648.61	38930.13
648.76	38890.34
648.90	38466.70
649.05	38843.53
649.20	38508.83
649.34	38728.84
649.49	38576.71
649.63	38239.67
649.78	38349.68
649.92	38471.39
650.07	38466.70
650.21	38335.63
650.36	38422.23
650.51	37940.08
650.65	38864.60
650.80	38677.35
650.94	38501.81
651.09	38644.59
651.23	38347.34
651.38	38389.47
651.52	37947.11
651.67	38274.78
651.81	37991.58
651.96	37886.25
652.10	37975.19
652.25	37666.24
652.39	38469.04
652.54	37904.98
652.68	38071.15
652.83	38178.82
652.97	38127.33
653.12	37687.31
653.26	37883.91
653.41	38209.25
653.55	38022.00
653.70	37823.06
653.84	37872.21
653.99	38092.22
654.13	37968.17
654.27	37483.68
654.42	37350.27
654.56	37008.55
654.71	37488.36
654.85	37745.82
655.00	37755.18
655.14	37560.92
655.29	37130.26
655.43	37448.57
655.57	37191.11
655.72	36978.12
655.86	36636.41
656.01	37383.04
656.15	36999.19
656.30	37001.53
656.44	37366.65
656.58	36971.10
656.73	36844.71
656.87	37048.34
657.01	37156.00
657.16	36989.83
657.30	36957.06
657.45	36973.44
657.59	37036.64
657.73	37038.98
657.88	37495.38
658.02	36982.80
658.16	37383.04
658.31	37277.71
658.45	37078.77
658.60	36748.75
658.74	36926.63
658.88	36847.05
659.03	36603.64
659.17	36608.32
659.31	36701.94
659.46	36732.37
659.60	36304.05
659.74	36610.66
659.89	36395.33
660.03	36390.65
660.17	36491.29
660.32	36018.50
660.46	36257.24
660.60	36247.88
660.74	36641.09
660.89	36355.54
661.03	35924.88
661.17	36140.21
661.32	35735.30
661.46	36044.25
661.60	36037.23
661.74	35955.31
661.89	36215.11
662.03	36182.34
662.17	35707.21
662.31	35571.46
662.46	35892.12
662.60	35915.52
662.74	35662.74
662.88	35601.89
663.03	35316.34
663.17	35356.13
663.31	34988.67
663.45	35164.21
663.60	35061.22
663.74	35374.86
663.88	35021.44
664.02	35086.97
664.17	35297.62
664.31	34925.47
664.45	34782.70
664.59	34724.19
664.73	34532.26
664.88	35311.66
665.02	34621.20
665.16	34768.66
665.30	34899.73
665.44	34515.88
665.59	34223.31
665.73	34497.16
665.87	34511.20
666.01	34698.44
666.15	34419.92
666.29	34483.11
666.44	34464.39
666.58	34419.92
666.72	34085.22
666.86	34206.93
667.00	33881.60
667.14	33507.11
667.28	33429.87
667.43	33954.15
667.57	33940.11
667.71	34146.08
667.85	34015.01
667.99	33549.24
668.13	33600.73
668.27	33369.02
668.41	33820.74
668.56	33350.29
668.70	33626.48
668.84	33607.75
668.98	32952.40
669.12	33235.61
669.26	33020.28
669.40	33134.96
669.54	33116.24
669.68	33228.59
669.82	33153.69
669.96	32821.33
670.10	32669.20
670.25	32781.54
670.39	33046.02
670.53	32994.53
670.67	32561.53
670.81	32783.88
670.95	32842.40
671.09	32603.66
671.23	32435.14
671.37	32327.48
671.51	32030.23
671.65	32196.41
671.79	32151.94
671.93	31782.13
672.07	32381.31
672.21	32151.94
672.35	32037.25
672.49	32254.92
672.63	32458.55
672.77	32023.21
672.91	32039.59
673.05	32191.73
673.19	31550.42
673.33	31456.80
673.47	31283.60
673.61	31557.44
673.75	31269.56
673.89	31051.89
674.03	30934.86
674.17	31105.72
674.31	30953.58
674.45	31089.34
674.59	31098.70
674.73	31477.86
674.87	31021.46
675.01	30707.83
675.15	30604.84
675.29	30665.70
675.43	30417.60
675.56	30726.55
675.70	30539.31
675.84	30260.79
675.98	29268.40
676.12	30300.58
676.26	30129.72
676.40	29942.47
676.54	29956.52
676.68	29963.54
676.82	29769.27
676.96	29874.60
677.10	29869.92
677.23	29846.51
677.37	29411.17
677.51	29212.23
677.65	29071.79
677.79	28926.68
677.93	28746.46
678.07	29301.17
678.21	28552.20
678.34	28437.51
678.48	28636.45
678.62	28659.86
678.76	28182.39
678.90	28304.10
679.04	28285.37
679.18	27768.12
679.31	27915.57
679.45	27522.36
679.59	27817.27
679.73	27786.84
679.87	27475.55
680.00	27630.02
680.14	27213.41
680.28	27412.35
680.42	27779.82
680.56	27646.41
680.70	27077.66
680.83	27201.71
680.97	27304.69
681.11	27119.79
681.25	27232.13
681.39	26843.60
681.52	26927.86
681.66	26712.53
681.80	27030.85
681.94	26497.20
682.07	27007.44
682.21	26487.84
682.35	26242.09
682.49	26150.81
682.62	26459.76
682.76	26216.34
682.90	26134.42
683.04	25930.80
683.17	25989.31
683.31	25947.18
683.45	25607.80
683.59	25624.18
683.72	25399.49
683.86	25315.23
684.00	25640.57
684.13	25158.42
684.27	25116.29
684.41	25230.98
684.55	24924.36
684.68	24999.26
684.82	24812.02
684.96	24676.27
685.09	24999.26
685.23	24613.07
685.37	24739.46
685.50	24575.62
685.64	24496.05
685.78	24058.37
685.91	24107.52
686.05	23953.04
686.19	23838.36
686.32	23906.23
686.46	23498.98
686.60	23529.41
686.73	23520.04
686.87	23274.29
687.01	23110.45
687.14	23377.27
687.28	22958.31
687.42	22986.40
687.55	22944.27
687.69	22934.91
687.82	22700.86
687.96	22789.80
688.10	22927.89
688.23	22904.48
688.37	22036.14
688.50	22501.91
688.64	22309.99
688.78	22370.84
688.91	22506.59
689.05	22452.76
689.18	22251.47
689.32	21860.60
689.46	21935.50
689.59	21977.63
689.73	21905.07
689.86	21493.14
690.00	21778.68
690.13	21661.66
690.27	21699.11
690.41	21448.67
690.54	21118.65
690.68	21060.14
690.81	21013.33
690.95	20898.64
691.08	21085.89
691.22	20922.05
691.35	21078.86
691.49	20673.95
691.62	21060.14
691.76	20577.99
691.89	20451.60
692.03	20390.75
692.16	20407.13
692.30	20540.54
692.43	20170.74
692.57	20053.71
692.70	19927.32
692.84	19901.58
692.97	19726.04
693.11	19709.65
693.24	19892.21
693.38	19807.95
693.51	19707.31
693.65	19475.60
693.78	19735.40
693.92	19571.56
694.05	19442.83
694.19	19103.45
694.32	19269.63
694.45	19009.83
694.59	18895.14
694.72	18710.24
694.86	19159.63
694.99	18827.27
695.13	18743.01
695.26	18420.02
695.39	18719.60
695.53	18501.93
695.66	18747.69
695.80	18876.42
695.93	18256.18
696.07	18324.05
696.20	18108.72
696.33	18015.10
696.47	17921.48
696.60	17970.63
696.73	17722.54
696.87	17734.24
697.00	17621.89
697.14	17860.63
697.27	17649.98
697.40	17750.62
697.54	17525.93
697.67	17444.01
697.80	17135.06
697.94	16896.33
698.07	17081.23
698.21	16821.43
698.34	17151.45
698.47	16840.15
698.61	16556.95
698.74	16428.22
698.87	16538.23
699.01	16229.27
699.14	16479.71
699.27	16304.17
699.40	16446.94
699.54	15999.90
699.67	16191.83
699.80	16215.23
699.94	15946.07
700.07	15845.43
700.20	15910.96
700.34	15896.92
700.47	15726.06
700.60	15826.70
700.73	15751.81
700.87	15906.28
701.00	15730.74
701.13	15571.58
701.26	15737.76
701.40	15384.34
701.53	15332.85
701.66	15197.10
701.79	15068.37
701.93	14986.45
702.06	15016.88
702.19	14824.95
702.32	14878.79
702.46	14820.27
702.59	14590.90
702.72	14691.54
702.85	14731.33
702.99	14623.67
703.12	14630.69
703.25	14284.29
703.38	14157.90
703.51	14129.81
703.65	14274.93
703.78	14066.62
703.91	13804.48
704.04	14066.62
704.17	14319.40
704.31	14169.60
704.44	14183.65
704.57	13673.41
704.70	13961.30
704.83	13659.37
704.96	13645.32
705.10	13682.77
705.23	13434.68
>>>>>End Processed Spectral Data<<<<<
