SpectraSuite Data File
++++++++++++++++++++++++++++++++++++
Date: Fri Oct 25 11:34:22 EDT 2013
User: price-jones
Dark Spectrum Present: No
Reference Spectrum Present: No
Number of Sampled Component Spectra: 1
Spectrometers: USB2+H05261
Integration Time (usec): 100000 (USB2+H05261)
Spectra Averaged: 1 (USB2+H05261)
Boxcar Smoothing: 0 (USB2+H05261)
Correct for Electrical Dark: No (USB2+H05261)
Strobe/Lamp Enabled: No (USB2+H05261)
Correct for Detector Non-linearity: No (USB2+H05261)
Correct for Stray Light: No (USB2+H05261)
Number of Pixels in Processed Spectrum: 2048
>>>>>Begin Processed Spectral Data<<<<<
365.73	283.20
365.92	283.20
366.12	283.20
366.32	255.12
366.52	227.03
366.72	166.18
366.91	189.58
367.11	234.05
367.31	168.52
367.51	135.75
367.70	208.31
367.90	173.20
368.10	264.48
368.30	217.67
368.49	175.54
368.69	217.67
368.89	163.84
369.09	220.01
369.28	198.95
369.48	231.71
369.68	278.52
369.87	220.01
370.07	276.18
370.27	273.84
370.47	351.08
370.66	402.57
370.86	519.60
371.06	510.24
371.25	582.79
371.45	507.90
371.65	561.73
371.84	545.34
372.04	540.66
372.24	564.07
372.44	526.62
372.63	634.29
372.83	610.88
373.03	573.43
373.22	585.13
373.42	650.67
373.62	582.79
373.81	667.05
374.01	603.86
374.21	617.90
374.40	674.07
374.60	657.69
374.79	638.97
374.99	566.41
375.19	615.56
375.38	678.76
375.58	667.05
375.78	634.29
375.97	702.16
376.17	660.03
376.37	676.41
376.56	641.31
376.76	653.01
376.95	676.41
377.15	697.48
377.35	641.31
377.54	718.54
377.74	702.16
377.93	631.94
378.13	695.14
378.33	720.88
378.52	690.46
378.72	699.82
378.91	774.72
379.11	678.76
379.31	683.44
379.50	716.20
379.70	746.63
379.89	777.06
380.09	664.71
380.28	748.97
380.48	732.59
380.68	755.99
380.87	723.23
381.07	779.40
381.26	826.21
381.46	786.42
381.65	744.29
381.85	748.97
382.04	622.58
382.24	692.80
382.43	760.67
382.63	723.23
382.83	795.78
383.02	793.44
383.22	751.31
383.41	725.57
383.61	816.85
383.80	884.72
384.00	786.42
384.19	791.10
384.39	826.21
384.58	751.31
384.78	821.53
384.97	770.04
385.17	823.87
385.36	751.31
385.56	812.17
385.75	795.78
385.95	830.89
386.14	887.06
386.34	786.42
386.53	908.13
386.72	847.27
386.92	905.79
387.11	868.34
387.31	868.34
387.50	940.90
387.70	842.59
387.89	908.13
388.09	884.72
388.28	842.59
388.48	896.43
388.67	882.38
388.86	917.49
389.06	931.53
389.25	908.13
389.45	910.47
389.64	903.45
389.84	1013.45
390.03	903.45
390.22	915.15
390.42	985.37
390.61	990.05
390.81	791.10
391.00	1008.77
391.19	1029.84
391.39	1041.54
391.58	908.13
391.78	915.15
391.97	1083.67
392.16	983.02
392.36	1006.43
392.55	1032.18
392.75	1020.47
392.94	1032.18
393.13	985.37
393.33	1015.79
393.52	1013.45
393.71	1043.88
393.91	1123.46
394.10	1060.26
394.29	1074.31
394.49	1093.03
394.68	1036.86
394.88	1067.28
395.07	1144.52
395.26	1125.80
395.46	1163.25
395.65	1125.80
395.84	1109.41
396.04	1259.21
396.23	1320.06
396.42	1158.57
396.62	1184.31
396.81	1226.44
397.00	1177.29
397.19	1245.16
397.39	1224.10
397.58	1219.42
397.77	1198.35
397.97	1181.97
398.16	1277.93
398.35	1252.19
398.55	1261.55
398.74	1231.12
398.93	1188.99
399.12	1294.32
399.32	1240.48
399.51	1226.44
399.70	1324.74
399.90	1331.76
400.09	1366.87
400.28	1467.52
400.47	1392.62
400.67	1420.71
400.86	1317.72
401.05	1348.15
401.24	1376.24
401.44	1437.09
401.63	1373.89
401.82	1432.41
402.01	1409.00
402.21	1399.64
402.40	1378.58
402.59	1479.22
402.78	1530.71
402.97	1521.35
403.17	1497.94
403.36	1479.22
403.55	1528.37
403.74	1575.18
403.93	1631.35
404.13	1572.84
404.32	1561.14
404.51	1540.07
404.70	1563.48
404.89	1472.20
405.09	1647.74
405.28	1565.82
405.47	1591.56
405.66	1638.38
405.85	1617.31
406.05	1633.69
406.24	1746.04
406.43	1612.63
406.62	1701.57
406.81	1774.13
407.00	1682.85
407.20	1535.39
407.39	1750.72
407.58	1760.08
407.77	1849.02
407.96	1860.73
408.15	1795.19
408.34	1790.51
408.54	1879.45
408.73	1797.53
408.92	1877.11
409.11	1909.88
409.30	1921.58
409.49	1921.58
409.68	1937.96
409.87	2052.65
410.07	1937.96
410.26	2019.88
410.45	2104.14
410.64	2090.10
410.83	1968.39
411.02	2078.40
411.21	2045.63
411.40	2064.35
411.59	2033.93
411.78	2129.89
411.98	2167.34
412.17	2179.04
412.36	2256.28
412.55	2270.32
412.74	2157.97
412.93	2368.62
413.12	2211.81
413.31	2370.96
413.50	2296.07
413.69	2260.96
413.88	2326.49
414.07	2382.67
414.26	2413.09
414.45	2370.96
414.64	2434.16
414.83	2504.37
415.02	2443.52
415.22	2530.12
415.41	2572.25
415.60	2569.91
415.79	2595.65
415.98	2612.04
416.17	2572.25
416.36	2736.09
416.55	2586.29
416.74	2700.98
416.93	2761.83
417.12	2820.35
417.31	2818.00
417.50	2785.24
417.69	2871.84
417.88	2946.73
418.07	2871.84
418.26	2862.48
418.45	2829.71
418.64	2984.18
418.83	2911.63
419.02	2937.37
419.21	3096.53
419.39	2981.84
419.58	2942.05
419.77	2925.67
419.96	3091.85
420.15	3042.70
420.34	3045.04
420.53	3187.81
420.72	3101.21
420.91	3206.53
421.10	3145.68
421.29	3260.37
421.48	3143.34
421.67	3243.98
421.86	3180.79
422.05	3215.90
422.24	3110.57
422.43	3133.98
422.61	3180.79
422.80	3227.60
422.99	3328.24
423.18	3246.32
423.37	3337.60
423.56	3325.90
423.75	3206.53
423.94	3157.38
424.13	3171.43
424.32	3201.85
424.50	3456.97
424.69	3379.73
424.88	3386.76
425.07	3150.36
425.26	3346.97
425.45	3302.50
425.64	3279.09
425.83	3199.51
426.01	3297.81
426.20	3353.99
426.39	3433.57
426.58	3384.41
426.77	3302.50
426.96	3407.82
427.15	3293.13
427.33	3510.80
427.52	3377.39
427.71	3442.93
427.90	3494.42
428.09	3648.90
428.28	3393.78
428.46	3524.85
428.65	3513.14
428.84	3618.47
429.03	3627.83
429.22	3618.47
429.40	3679.32
429.59	3672.30
429.78	3559.95
429.97	3353.99
430.16	3742.52
430.34	3646.55
430.53	3712.09
430.72	3669.96
430.91	3843.16
431.10	3698.05
431.28	3810.39
431.47	3803.37
431.66	3899.33
431.85	3850.18
432.03	3840.82
432.22	4011.68
432.41	3889.97
432.60	3880.61
432.79	3871.25
432.97	3955.51
433.16	3962.53
433.35	3868.91
433.54	4098.28
433.72	4173.18
433.91	4147.43
434.10	4105.30
434.28	4149.77
434.47	4081.89
434.66	4051.47
434.85	4095.94
435.03	4145.09
435.22	4126.36
435.41	4360.42
435.59	4294.88
435.78	4306.59
435.97	4229.35
436.16	4203.60
436.34	4327.65
436.53	4187.22
436.72	4397.87
436.90	4290.20
437.09	4208.28
437.28	4292.54
437.46	4353.40
437.65	4475.10
437.84	4449.36
438.02	4512.55
438.21	4517.23
438.40	4236.37
438.58	4575.75
438.77	4650.64
438.96	4440.00
439.14	4716.18
439.33	4718.52
439.52	4695.11
439.70	4788.74
439.89	4819.16
440.08	4709.16
440.26	4887.04
440.45	4863.63
440.63	4971.30
440.82	4999.38
441.01	4973.64
441.19	4971.30
441.38	5158.54
441.57	4957.25
441.75	5128.11
441.94	5060.24
442.12	5088.32
442.31	5160.88
442.50	5214.71
442.68	5261.52
442.87	5160.88
443.05	5341.10
443.24	5343.44
443.43	5401.96
443.61	5446.43
443.80	5584.52
443.98	5151.52
444.17	5132.79
444.35	5277.91
444.54	5401.96
444.73	5324.72
444.91	5364.51
445.10	5486.22
445.28	5284.93
445.47	5359.83
445.65	5451.11
445.84	5224.08
446.02	5458.13
446.21	5502.60
446.39	5488.56
446.58	5582.18
446.77	5425.36
446.95	5448.77
447.14	5476.85
447.32	5514.30
447.51	5458.13
447.69	5621.97
447.88	5490.90
448.06	5537.71
448.25	5540.05
448.43	5453.45
448.62	5523.66
448.80	5624.31
448.99	5731.97
449.17	5799.85
449.36	5710.91
449.54	5860.70
449.73	5907.51
449.91	5774.10
450.10	5872.40
450.28	5980.07
450.46	6015.18
450.65	5865.38
450.83	6059.65
451.02	5804.53
451.20	5832.62
451.39	5937.94
451.57	5881.77
451.76	5961.34
451.94	6167.31
452.13	6132.20
452.31	6066.67
452.49	6101.78
452.68	6085.39
452.86	6092.41
453.05	6230.51
453.23	6300.72
453.42	6204.76
453.60	5994.11
453.78	6111.14
453.97	6132.20
454.15	6340.51
454.34	6260.93
454.52	6193.06
454.70	6399.02
454.89	6445.84
455.07	6335.83
455.26	6420.09
455.44	6537.12
455.62	6494.99
455.81	6492.65
455.99	6431.79
456.17	6548.82
456.36	6616.69
456.54	6558.18
456.73	6733.72
456.91	6752.45
457.09	6698.61
457.28	6881.18
457.46	6576.91
457.64	6813.30
457.83	6834.36
458.01	6682.23
458.19	6937.35
458.38	6918.62
458.56	6965.43
458.74	6958.41
458.93	6848.41
459.11	6998.20
459.29	7000.54
459.48	6951.39
459.66	7037.99
459.84	7009.90
460.03	7126.93
460.21	7075.44
460.39	7232.26
460.57	7253.32
460.76	7290.77
460.94	7225.23
461.12	7197.15
461.31	7386.73
461.49	7211.19
461.67	7349.28
461.85	7227.57
462.04	7140.97
462.22	7658.23
462.40	7566.95
462.59	7424.18
462.77	7346.94
462.95	7545.89
463.13	7517.80
463.32	7449.93
463.50	7714.41
463.68	7534.18
463.86	7566.95
464.05	7599.72
464.23	7456.95
464.41	7576.31
464.59	7632.49
464.78	7854.84
464.96	7655.89
465.14	7487.37
465.32	7768.24
465.50	7932.08
465.69	7740.15
465.87	7770.58
466.05	7892.29
466.23	7939.10
466.41	7941.44
466.60	8030.38
466.78	7927.39
466.96	7829.09
467.14	7922.71
467.32	7955.48
467.51	8156.77
467.69	7854.84
467.87	8086.55
468.05	8205.92
468.23	7988.25
468.41	8037.40
468.60	8114.64
468.78	8278.47
468.96	7941.44
469.14	8339.33
469.32	8119.32
469.50	8355.71
469.69	8219.96
469.87	8432.95
470.05	8456.36
470.23	8344.01
470.41	8514.87
470.59	8573.38
470.77	8589.77
470.95	8285.50
471.14	8493.80
471.32	8561.68
471.50	8704.45
471.68	8800.41
471.86	8690.41
472.04	8533.59
472.22	8966.59
472.40	8884.67
472.58	9027.45
472.77	8933.82
472.95	9195.96
473.13	9296.61
473.31	8990.00
473.49	9104.68
473.67	9067.24
473.85	9046.17
474.03	9345.76
474.21	9280.22
474.39	9565.77
474.57	9525.98
474.75	9607.90
474.93	9617.26
475.12	9568.11
475.30	9619.60
475.48	9593.86
475.66	9713.22
475.84	9666.41
476.02	9844.29
476.20	9816.21
476.38	9902.81
476.56	10045.58
476.74	10115.80
476.92	10132.18
477.10	10129.84
477.28	10190.69
477.46	10244.52
477.64	10714.97
477.82	10303.04
478.00	10771.15
478.18	10487.94
478.36	10710.29
478.54	10972.43
478.72	10808.59
478.90	11012.22
479.08	11236.91
479.26	11218.19
479.44	11211.17
479.62	11375.00
479.80	11431.18
479.98	11587.99
480.16	11672.25
480.34	11534.16
480.52	11669.91
480.70	11737.79
480.88	11761.19
481.06	11892.26
481.24	12095.89
481.41	12313.56
481.59	12430.59
481.77	12205.89
481.95	12479.74
482.13	12521.87
482.31	12353.35
482.49	12482.08
482.67	12912.74
482.85	13074.23
483.03	13130.41
483.21	13144.45
483.39	13233.39
483.57	13181.90
483.74	13296.58
483.92	13383.18
484.10	13200.62
484.28	13586.81
484.46	13862.99
484.64	14260.88
484.82	13844.27
485.00	13977.68
485.18	14473.87
485.35	14593.24
485.53	14146.20
485.71	14539.41
485.89	14689.20
486.07	14658.78
486.25	14920.92
486.43	15110.50
486.61	14977.09
486.78	15360.94
486.96	15152.63
487.14	15421.79
487.32	15585.63
487.50	15824.36
487.68	15899.26
487.85	15943.73
488.03	16044.37
488.21	16231.62
488.39	16198.85
488.57	16435.24
488.75	16407.16
488.92	17060.16
489.10	16950.16
489.28	17003.99
489.46	17099.95
489.64	17043.78
489.81	17322.30
489.99	17298.90
490.17	17755.30
490.35	17750.62
490.53	17514.23
490.70	18043.19
490.88	17947.23
491.06	18015.10
491.24	18169.58
491.41	18391.93
491.59	18504.28
491.77	18286.61
491.95	18415.34
492.13	18899.83
492.30	18689.18
492.48	18808.54
492.66	18703.22
492.84	19269.63
493.01	19246.23
493.19	19337.51
493.37	19747.10
493.54	19711.99
493.72	19569.22
493.90	19777.53
494.08	20011.58
494.25	20056.05
494.43	20093.50
494.61	20203.50
494.79	20283.08
494.96	20601.40
495.14	20556.93
495.32	20798.00
495.49	20601.40
495.67	20929.07
495.85	21198.23
496.02	20999.29
496.20	21483.78
496.38	21467.39
496.55	21537.61
496.73	22136.79
496.91	21446.33
497.09	21717.83
497.26	22015.08
497.44	22089.98
497.62	22225.73
497.79	22630.64
497.97	22118.06
498.14	22637.66
498.32	23012.15
498.50	22845.97
498.67	23026.19
498.85	22780.43
499.03	22869.37
499.20	23414.72
499.38	23304.71
499.56	23283.65
499.73	23620.69
499.91	23611.32
500.08	23651.11
500.26	23733.03
500.44	23557.49
500.61	23679.20
500.79	23854.74
500.97	24084.11
501.14	24266.67
501.32	24542.86
501.49	24353.27
501.67	24182.42
501.84	24606.05
502.02	24458.60
502.20	24259.65
502.37	24772.23
502.55	24769.89
502.72	24699.67
502.90	25069.48
503.07	24769.89
503.25	25247.36
503.43	24961.81
503.60	25088.20
503.78	25479.07
503.95	25336.30
504.13	25685.04
504.30	25624.18
504.48	25469.71
504.65	25783.34
504.83	26174.21
505.01	26232.72
505.18	26155.49
505.36	26419.97
505.53	26134.42
505.71	26733.60
505.88	26340.39
506.06	26541.68
506.23	26583.80
506.41	26181.23
506.58	26583.80
506.76	26948.93
506.93	26588.49
507.11	26923.18
507.28	26749.98
507.46	26932.54
507.63	27037.87
507.81	27395.97
507.98	27454.48
508.16	27543.42
508.33	27374.91
508.50	27454.48
508.68	27683.86
508.85	27775.14
509.03	27817.27
509.20	27770.46
509.38	28091.11
509.55	28180.05
509.73	28250.27
509.90	28009.19
510.08	27964.72
510.25	28357.93
510.42	28500.70
510.60	28528.79
510.77	28451.55
510.95	28779.23
511.12	28526.45
511.30	29053.07
511.47	29123.29
511.64	28865.83
511.82	29305.85
511.99	29291.80
512.17	29146.69
512.34	29549.26
512.51	29490.75
512.69	29827.79
512.86	29872.26
513.04	29607.78
513.21	29776.30
513.38	29710.76
513.56	29907.37
513.73	29626.50
513.90	29701.40
514.08	29788.00
514.25	30260.79
514.43	30108.65
514.60	30281.85
514.77	29998.65
514.95	30672.72
515.12	30216.32
515.29	30279.51
515.47	30794.43
515.64	30663.36
515.81	30604.84
515.99	30752.30
516.16	31559.78
516.33	30972.31
516.51	31152.53
516.68	31035.50
516.85	31276.58
517.03	31391.26
517.20	31445.10
517.37	31459.14
517.54	31768.09
517.72	31791.50
517.89	31536.38
518.06	31824.26
518.24	31915.54
518.41	31653.40
518.58	31622.98
518.75	31814.90
518.93	32144.92
519.10	31976.40
519.27	32346.20
519.45	31903.84
519.62	32280.67
519.79	32409.40
519.96	32463.23
520.14	32339.18
520.31	32378.97
520.48	32418.76
520.65	32559.19
520.83	33076.45
521.00	32854.10
521.17	32952.40
521.34	33275.40
521.52	33177.09
521.69	33020.28
521.86	33834.78
522.03	33249.65
522.20	33268.37
522.38	33462.64
522.55	33748.18
522.72	33820.74
522.89	33518.81
523.07	34295.87
523.24	33928.41
523.41	34274.80
523.58	33565.62
523.75	34022.03
523.92	34007.98
524.10	34199.91
524.27	34368.43
524.44	34410.56
524.61	34352.04
524.78	33881.60
524.96	34506.52
525.13	34272.46
525.30	34967.60
525.47	35173.57
525.64	34637.59
525.81	34710.14
525.98	35386.56
526.16	34658.65
526.33	34948.88
526.50	35466.14
526.67	34752.27
526.84	35271.87
527.01	35372.52
527.18	35550.40
527.36	35391.24
527.53	35456.78
527.70	36133.19
527.87	35857.01
528.04	35768.07
528.21	35456.78
528.38	36215.11
528.55	35370.18
528.72	35611.25
528.89	35644.02
529.07	35669.76
529.24	35952.97
529.41	35866.37
529.58	35995.10
529.75	36311.07
529.92	35950.63
530.09	36261.92
530.26	36278.30
530.43	36086.38
530.60	36105.10
530.77	35992.76
530.94	36535.76
531.11	36336.82
531.28	36481.93
531.46	36706.62
531.63	36456.18
531.80	36594.28
531.97	36708.96
532.14	36886.84
532.31	36706.62
532.48	37385.38
532.65	36999.19
532.82	37116.22
532.99	37165.37
533.16	37207.50
533.33	37205.16
533.50	36961.74
533.67	37057.70
533.84	37446.23
534.01	37619.43
534.18	37247.29
534.35	38019.66
534.52	37153.66
534.69	37874.55
534.86	38050.09
535.03	37827.74
535.20	37315.16
535.37	38363.72
535.54	37708.37
535.71	37628.79
535.88	38337.98
536.05	38068.81
536.22	38139.03
536.38	37689.65
536.55	37844.12
536.72	38047.75
536.89	38050.09
537.06	37991.58
537.23	38735.87
537.40	38040.73
537.57	38188.18
537.74	38356.70
537.91	38684.37
538.08	38349.68
538.25	38349.68
538.42	38628.20
538.59	39037.80
538.75	38686.71
538.92	39005.03
539.09	38923.11
539.26	39105.67
539.43	39002.69
539.60	39344.41
539.77	38885.66
539.94	39295.25
540.11	39276.53
540.28	39152.48
540.44	39194.61
540.61	39496.54
540.78	39342.06
540.95	39356.11
541.12	39447.39
541.29	39395.90
541.46	39182.91
541.62	39388.88
541.79	39529.31
541.96	39061.20
542.13	39423.98
542.30	39302.28
542.47	39866.34
542.63	39742.30
542.80	39985.71
542.97	39966.99
543.14	40252.53
543.31	40041.88
543.48	40062.95
543.64	40584.89
543.81	40500.63
543.98	40282.96
544.15	40318.07
544.32	40203.38
544.48	40680.85
544.65	40376.58
544.82	40493.61
544.99	40500.63
545.16	41001.50
545.32	41003.85
545.49	40624.68
545.66	41242.58
545.83	40933.63
546.00	41621.75
546.16	41322.16
546.33	41088.10
546.50	40830.65
546.67	40975.76
546.83	40439.78
547.00	41060.02
547.17	41120.87
547.34	40933.63
547.50	41563.23
547.67	41294.07
547.84	41457.91
548.00	41544.51
548.17	41890.91
548.34	41612.38
548.51	41722.39
548.67	41537.49
548.84	41350.24
549.01	41656.85
549.18	41780.90
549.34	41390.03
549.51	42066.45
549.68	41741.11
549.84	41441.53
550.01	41993.89
550.18	41797.29
550.34	41839.42
550.51	42206.88
550.68	41883.89
550.84	41867.50
551.01	42464.34
551.18	42061.77
551.34	41883.89
551.51	42071.13
551.68	41830.05
551.84	41956.44
552.01	41954.10
552.18	42181.13
552.34	42167.09
552.51	42087.51
552.68	41930.70
552.84	42651.58
553.01	42738.18
553.18	42312.20
553.34	42415.19
553.51	42679.67
553.67	42632.86
553.84	42511.15
554.01	42806.06
554.17	42380.08
554.34	43220.33
554.51	42611.79
554.67	42911.38
554.84	42866.91
555.00	42761.59
555.17	42920.74
555.33	43056.50
555.50	43168.84
555.67	42600.09
555.83	43079.90
556.00	43203.95
556.16	43388.85
556.33	43107.99
556.50	43618.22
556.66	43210.97
556.83	42937.13
556.99	43255.44
557.16	43201.61
557.32	43220.33
557.49	43681.42
557.65	43126.71
557.82	43253.10
557.98	43267.14
558.15	43391.19
558.32	43306.93
558.48	43096.28
558.65	43636.95
558.81	43529.28
558.98	43283.53
559.14	43288.21
559.31	43662.69
559.47	43585.46
559.64	43665.03
559.80	43665.03
559.97	43573.75
560.13	43749.29
560.30	43908.45
560.46	43856.96
560.63	44020.80
560.79	44542.74
560.96	44137.82
561.12	44062.93
561.29	43966.96
561.45	44296.98
561.61	43728.23
561.78	44002.07
561.94	44205.70
562.11	44259.53
562.27	44191.65
562.44	44371.88
562.60	44086.33
562.77	43571.41
562.93	43817.17
563.10	44175.27
563.26	44594.23
563.42	44739.34
563.59	44109.74
563.75	44385.92
563.92	44121.44
564.08	44126.12
564.24	44116.76
564.41	44376.56
564.57	44238.47
564.74	44802.53
564.90	43992.71
565.07	44306.34
565.23	44369.54
565.39	44177.61
565.56	44435.07
565.72	44119.10
565.88	44229.10
566.05	44587.21
566.21	44334.43
566.38	44619.97
566.54	44856.37
566.70	44760.40
566.87	44884.45
567.03	43952.92
567.19	45167.66
567.36	44694.87
567.52	44308.68
567.68	44982.76
567.85	44626.99
568.01	44844.66
568.17	44184.63
568.34	44643.38
568.50	44926.58
568.66	44524.01
568.83	44748.70
568.99	45008.50
569.15	44947.65
569.32	44793.17
569.48	44552.10
569.64	45076.38
569.81	45076.38
569.97	45265.96
570.13	45022.54
570.30	44479.54
570.46	45216.81
570.62	44926.58
570.78	44783.81
570.95	44961.69
571.11	45612.36
571.27	44952.33
571.43	44905.52
571.60	44957.01
571.76	45045.95
571.92	45036.59
572.09	44729.98
572.25	45153.62
572.41	45511.72
572.57	45162.98
572.74	44978.07
572.90	45083.40
573.06	45469.59
573.22	45305.75
573.38	45312.77
573.55	45104.46
573.71	45462.57
573.87	45488.31
574.03	45340.86
574.20	45820.67
574.36	45427.46
574.52	45357.24
574.68	45654.49
574.84	45408.73
575.01	45301.07
575.17	45162.98
575.33	45682.58
575.49	45216.81
575.65	45703.64
575.82	45455.54
575.98	45324.47
576.14	45560.87
576.30	45673.21
576.46	45326.81
576.62	45097.44
576.79	45457.88
576.95	45146.59
577.11	45500.01
577.27	45495.33
577.43	45165.32
577.59	45205.11
577.75	44975.73
577.92	45088.08
578.08	44987.44
578.24	45579.59
578.40	45453.20
578.56	45553.85
578.72	45457.88
578.88	45518.74
579.04	45177.02
579.21	45392.35
579.37	45275.32
579.53	45193.40
579.69	45048.29
579.85	45478.95
580.01	45532.78
580.17	45535.12
580.33	45364.26
580.49	45808.96
580.65	45560.87
580.82	45542.14
580.98	45240.21
581.14	44748.70
581.30	45834.71
581.46	45242.56
581.62	45745.77
581.78	45429.80
581.94	45617.04
582.10	45553.85
582.26	45092.76
582.42	45495.33
582.58	45539.80
582.74	45668.53
582.90	45736.41
583.06	45680.24
583.22	45085.74
583.38	45645.13
583.54	45794.92
583.70	45801.94
583.86	45595.98
584.02	45525.76
584.18	45710.66
584.34	46085.15
584.50	45820.67
584.66	45839.39
584.82	46171.75
584.98	46131.96
585.14	45549.17
585.30	45422.78
585.46	45713.00
585.62	45397.03
585.78	45914.29
585.94	44938.29
586.10	45649.81
586.26	45436.82
586.42	45411.07
586.58	45876.84
586.74	45607.68
586.90	45769.18
587.06	45668.53
587.22	46092.17
587.38	45839.39
587.54	46160.05
587.70	45855.78
587.86	45661.51
588.02	45717.68
588.18	45469.59
588.34	46246.65
588.49	45621.72
588.65	45603.00
588.81	45797.26
588.97	45654.49
589.13	46045.36
589.29	45661.51
589.45	46028.98
589.61	46169.41
589.77	45853.44
589.93	46321.54
590.08	45869.82
590.24	45993.87
590.40	46443.25
590.56	46260.69
590.72	46066.42
590.88	45808.96
591.04	46003.23
591.20	46157.70
591.35	46321.54
591.51	46291.12
591.67	46256.01
591.83	46469.00
591.99	46143.66
592.15	45855.78
592.31	46169.41
592.46	46340.27
592.62	45860.46
592.78	46396.44
592.94	46473.68
593.10	46508.79
593.26	46438.57
593.41	46101.53
593.57	46312.18
593.73	45975.14
593.89	46841.14
594.05	46206.86
594.20	46309.84
594.36	46731.14
594.52	46213.88
594.68	46274.73
594.84	46422.19
594.99	46370.69
595.15	46319.20
595.31	46307.50
595.47	46932.42
595.62	46146.00
595.78	45979.82
595.94	46344.95
596.10	46314.52
596.25	46363.67
596.41	46670.28
596.57	46312.18
596.73	46431.55
596.88	46667.94
597.04	46396.44
597.20	46347.29
597.36	46464.32
597.51	46504.10
597.67	46124.94
597.83	46014.93
597.99	46672.62
598.14	46321.54
598.30	46885.61
598.46	46382.40
598.61	46829.44
598.77	46258.35
598.93	46724.11
599.09	46354.31
599.24	46953.49
599.40	46333.24
599.56	46815.40
599.71	46864.55
599.87	46902.00
600.03	47110.30
600.18	46644.54
600.34	46670.28
600.50	46859.87
600.65	46323.88
600.81	46600.07
600.97	46698.37
601.12	46705.39
601.28	46511.13
601.44	46878.59
601.59	46356.65
601.75	46731.14
601.91	46820.08
602.06	46326.22
602.22	46967.53
602.37	46499.42
602.53	46445.59
602.69	46419.84
602.84	46607.09
603.00	46852.84
603.16	46866.89
603.31	46841.14
603.47	46869.23
603.62	46656.24
603.78	47007.32
603.94	46625.81
604.09	46710.07
604.25	46333.24
604.40	46579.00
604.56	46728.80
604.71	47192.22
604.87	46230.26
605.03	46155.36
605.18	46492.40
605.34	46576.66
605.49	46185.79
605.65	46934.76
605.80	46389.42
605.96	46256.01
606.12	46768.58
606.27	46316.86
606.43	46176.43
606.58	46700.71
606.74	46150.68
606.89	46389.42
607.05	46674.96
607.20	46607.09
607.36	46590.70
607.51	46824.76
607.67	46218.56
607.82	46071.10
607.98	46410.48
608.13	46246.65
608.29	46199.83
608.44	46279.41
608.60	46513.47
608.75	46412.82
608.91	46422.19
609.06	45914.29
609.22	46511.13
609.37	46045.36
609.53	46672.62
609.68	46391.76
609.84	46401.12
609.99	46454.95
610.15	46263.03
610.30	46089.83
610.46	45846.41
610.61	46153.02
610.76	46536.87
610.92	46204.52
611.07	46274.73
611.23	46043.02
611.38	45750.45
611.54	46431.55
611.69	46211.54
611.84	46204.52
612.00	46178.77
612.15	45982.16
612.31	46351.97
612.46	45783.22
612.62	45640.45
612.77	45752.79
612.92	46450.27
613.08	46438.57
613.23	46164.73
613.39	46026.63
613.54	45380.65
613.69	46218.56
613.85	46185.79
614.00	46052.38
614.15	45883.86
614.31	45184.04
614.46	45933.01
614.62	45605.34
614.77	45478.95
614.92	45642.79
615.08	45783.22
615.23	46040.68
615.38	45773.86
615.54	45755.13
615.69	46031.32
615.84	45715.34
616.00	45724.71
616.15	45757.47
616.30	45893.22
616.46	45429.80
616.61	45429.80
616.76	45595.98
616.92	45890.88
617.07	45947.06
617.22	45453.20
617.37	45256.60
617.53	45375.97
617.68	45324.47
617.83	45186.38
617.99	45879.18
618.14	45705.98
618.29	45542.14
618.45	45111.49
618.60	45207.45
618.75	45263.62
618.90	45277.66
619.06	45612.36
619.21	45373.63
619.36	45860.46
619.51	45212.13
619.67	45219.15
619.82	45240.21
619.97	45485.97
620.12	45085.74
620.28	44872.75
620.43	45193.40
620.58	45345.54
620.73	44863.39
620.89	45603.00
621.04	45563.21
621.19	44847.00
621.34	45244.90
621.49	44683.17
621.65	44980.42
621.80	45359.58
621.95	44858.71
622.10	44999.14
622.25	45242.56
622.41	44882.11
622.56	44786.15
622.71	45083.40
622.86	45006.16
623.01	44797.85
623.16	45347.88
623.32	44737.00
623.47	44842.32
623.62	44722.96
623.77	45031.91
623.92	44804.88
624.07	44584.86
624.23	44879.77
624.38	44823.60
624.53	44931.26
624.68	44519.33
624.83	44470.18
624.98	44825.94
625.13	44289.96
625.29	44252.51
625.44	44299.32
625.59	44421.03
625.74	44722.96
625.89	44032.50
626.04	44259.53
626.19	44313.36
626.34	44446.77
626.49	44142.50
626.65	44226.76
626.80	44201.02
626.95	43821.85
627.10	43714.19
627.25	44481.88
627.40	44357.83
627.55	44367.20
627.70	44266.55
627.85	44034.84
628.00	44275.91
628.15	44229.10
628.30	43704.82
628.45	44252.51
628.60	43489.49
628.76	43934.20
628.91	44144.84
629.06	43524.60
629.21	43821.85
629.36	43915.47
629.51	43725.89
629.66	43927.17
629.81	43669.72
629.96	43786.74
630.11	43938.88
630.26	43723.55
630.41	43917.81
630.56	43484.81
630.71	43641.63
630.86	43337.36
631.01	43611.20
631.16	43019.05
631.31	43608.86
631.46	43707.16
631.61	44009.09
631.76	43882.70
631.91	43571.41
632.06	44107.40
632.21	43856.96
632.36	43985.69
632.51	43075.22
632.66	43540.99
632.81	43086.92
632.96	43400.55
633.10	43171.18
633.25	43112.67
633.40	43199.27
633.55	43491.83
633.70	43168.84
633.85	43068.20
634.00	43173.52
634.15	43068.20
634.30	43332.68
634.45	42824.78
634.60	43096.28
634.75	43203.95
634.90	43241.40
635.05	43047.13
635.19	42843.51
635.34	43295.23
635.49	42506.47
635.64	42962.87
635.79	43430.98
635.94	42686.69
636.09	42904.36
636.24	42766.27
636.39	43288.21
636.53	43187.56
636.68	42553.28
636.83	42513.49
636.98	42616.47
637.13	42799.04
637.28	42450.30
637.43	42703.07
637.57	43082.24
637.72	42405.83
637.87	42621.16
638.02	42462.00
638.17	42597.75
638.32	42356.67
638.46	41958.78
638.61	42476.04
638.76	42031.34
638.91	42160.07
639.06	42021.98
639.20	41904.95
639.35	42078.15
639.50	42232.63
639.65	42253.69
639.80	42169.43
639.94	41923.68
640.09	42005.59
640.24	42225.60
640.39	42017.30
640.54	41514.08
640.68	41862.82
640.83	42490.09
640.98	41647.49
641.13	41411.10
641.27	42562.64
641.42	41724.73
641.57	42061.77
641.72	41635.79
641.86	41858.14
642.01	41427.48
642.16	41226.20
642.31	41385.35
642.45	42213.90
642.60	41486.00
642.75	41493.02
642.90	41975.17
643.04	41464.93
643.19	41600.68
643.34	41373.65
643.48	41170.02
643.63	41628.77
643.78	41663.88
643.93	41605.36
644.07	41633.45
644.22	41390.03
644.37	41392.37
644.51	41331.52
644.66	41481.31
644.81	41249.60
644.95	41474.29
645.10	41799.63
645.25	41366.63
645.39	40947.67
645.54	41280.03
645.69	40933.63
645.83	41200.45
645.98	41104.49
646.13	40933.63
646.27	40992.14
646.42	40959.38
646.57	40760.43
646.71	41486.00
646.86	41067.04
647.00	41219.17
647.15	41155.98
647.30	41338.54
647.44	40765.11
647.59	40779.15
647.74	40577.87
647.88	40861.07
648.03	41125.55
648.17	41219.17
648.32	40355.52
648.47	41233.22
648.61	40861.07
648.76	40807.24
648.90	40882.14
649.05	40706.60
649.20	40149.55
649.34	40341.47
649.49	40964.06
649.63	40980.44
649.78	40397.65
649.92	40697.24
650.07	41200.45
650.21	40727.66
650.36	40950.01
650.51	40451.48
650.65	40809.58
650.80	40161.25
650.94	40589.57
651.09	40477.22
651.23	40407.01
651.38	40371.90
651.52	39847.62
651.67	40245.51
651.81	40357.86
651.96	40254.87
652.10	40257.21
652.25	39831.24
652.39	40247.85
652.54	40144.87
652.68	40201.04
652.83	40013.80
652.97	40072.31
653.12	40182.32
653.26	39728.25
653.41	39908.47
653.55	40191.68
653.70	40062.95
653.84	39798.47
653.99	40076.99
654.13	39859.32
654.27	39482.50
654.42	39917.84
654.56	39920.18
654.71	39927.20
654.85	40053.59
655.00	39515.26
655.14	40011.46
655.29	39941.24
655.43	39966.99
655.57	39220.36
655.72	39405.26
655.86	39697.83
656.01	39316.32
656.15	39070.56
656.30	39578.46
656.44	39651.02
656.58	39566.76
656.73	39800.81
656.87	39754.00
657.01	38930.13
657.16	39196.95
657.30	39363.13
657.45	39077.58
657.59	39431.01
657.73	39346.75
657.88	39005.03
658.02	39423.98
658.16	39180.57
658.31	38993.32
658.45	39250.78
658.60	38906.73
658.74	38873.96
658.88	39140.78
659.03	38782.68
659.17	38747.57
659.31	38330.95
659.46	38583.73
659.60	38960.56
659.74	38150.73
659.89	38651.61
660.03	38295.85
660.17	38880.98
660.32	38691.40
660.46	38300.53
660.60	38232.65
660.74	37998.60
660.89	38139.03
661.03	38295.85
661.17	38054.77
661.32	38279.46
661.46	38181.16
661.60	38082.86
661.74	37811.35
661.89	38237.33
662.03	37523.47
662.17	37986.89
662.31	37745.82
662.46	37869.87
662.60	37626.45
662.74	37647.52
662.88	37235.58
663.03	37242.60
663.17	37366.65
663.31	36971.10
663.45	37659.22
663.60	37823.06
663.74	37502.40
663.88	37340.91
664.02	37046.00
664.17	37553.90
664.31	37223.88
664.45	36884.50
664.59	36900.89
664.73	36905.57
664.88	37109.19
665.02	36755.77
665.16	36694.92
665.30	36847.05
665.44	36945.36
665.59	36662.15
665.73	36418.74
665.87	35732.96
666.01	36212.77
666.15	36996.85
666.29	36121.49
666.44	36596.62
666.58	36664.49
666.72	35793.81
666.86	36355.54
667.00	36070.00
667.14	35974.03
667.28	36051.27
667.43	35590.19
667.57	36039.57
667.71	36046.59
667.85	36596.62
667.99	35882.75
668.13	35519.97
668.27	35463.80
668.41	35637.00
668.56	35199.32
668.70	35351.45
668.84	35140.80
668.98	35290.60
669.12	35505.93
669.26	35007.39
669.40	35239.11
669.54	35030.80
669.68	35276.55
669.82	35049.52
669.96	34630.57
670.10	34391.83
670.25	34759.30
670.39	34845.90
670.53	34934.84
670.67	34726.53
670.81	35047.18
670.95	34609.50
671.09	34469.07
671.23	34288.85
671.37	34115.65
671.51	34235.02
671.65	33928.41
671.79	34195.23
671.93	34375.45
672.07	34326.30
672.21	33937.77
672.35	33687.33
672.49	34052.45
672.63	33481.36
672.77	33834.78
672.91	33429.87
673.05	33509.45
673.19	33263.69
673.33	33113.90
673.47	33200.50
673.61	33024.96
673.75	33282.42
673.89	33146.67
674.03	32854.10
674.17	32713.67
674.31	32673.88
674.45	32130.87
674.59	32411.74
674.73	32613.02
674.87	32430.46
675.01	32243.22
675.15	31747.03
675.29	31955.33
675.43	32077.04
675.56	32322.80
675.70	32053.64
675.84	31861.71
675.98	31019.12
676.12	31613.62
676.26	31859.37
676.40	31709.58
676.54	31480.21
676.68	31194.66
676.82	31075.29
676.96	31402.97
677.10	31070.61
677.23	31299.98
677.37	31065.93
677.51	30923.16
677.65	30661.02
677.79	30787.41
677.93	30110.99
678.07	30590.80
678.21	29954.18
678.34	30253.76
678.48	29893.32
678.62	30323.98
678.76	29462.66
678.90	29923.75
679.04	29968.22
679.18	29958.86
679.31	29539.90
679.45	29457.98
679.59	29362.02
679.73	29511.81
679.87	29259.04
680.00	29057.75
680.14	28957.11
680.28	29268.40
680.42	28723.05
680.56	28676.24
680.70	28811.99
680.83	28919.66
680.97	28692.63
681.11	28507.72
681.25	28341.55
681.39	28261.97
681.52	28196.43
681.66	27894.50
681.80	27843.01
681.94	27175.96
682.07	27505.98
682.21	27468.53
682.35	27374.91
682.49	27482.57
682.62	27428.74
682.76	27751.73
682.90	27335.12
683.04	26925.52
683.17	27283.62
683.31	26904.46
683.45	26874.03
683.59	26541.68
683.72	26682.11
683.86	26604.87
684.00	26363.79
684.13	26679.77
684.27	26253.79
684.41	26080.59
684.55	26319.32
684.68	25984.63
684.82	25963.56
684.96	25893.35
685.09	25956.54
685.23	25579.71
685.37	25928.45
685.50	25731.85
685.64	25741.21
685.78	25170.12
685.91	25280.13
686.05	24982.88
686.19	24421.15
686.32	24917.34
686.46	24596.69
686.60	24432.85
686.73	24549.88
686.87	24184.76
687.01	24594.35
687.14	24702.01
687.28	24442.21
687.42	24350.93
687.55	24044.32
687.69	24140.29
687.82	24231.57
687.96	24067.73
688.10	23983.47
688.23	23632.39
688.37	23662.82
688.50	23679.20
688.64	23365.57
688.78	23379.61
688.91	23363.23
689.05	23215.77
689.18	22750.01
689.32	22382.54
689.46	22602.55
689.59	23201.73
689.73	22834.27
689.86	22909.16
690.00	22562.76
690.13	22799.16
690.27	22494.89
690.41	22654.05
690.54	22508.93
690.68	21654.64
690.81	21979.97
690.95	22024.44
691.08	21846.56
691.22	21582.08
691.35	21694.43
691.49	21582.08
691.62	21659.32
691.76	21256.75
691.89	21151.42
692.03	20676.29
692.16	21160.78
692.30	21055.46
692.43	21015.67
692.57	20730.12
692.70	20723.10
692.84	20746.51
692.97	20519.48
693.11	20479.69
693.24	20273.72
693.38	20369.68
693.51	20161.37
693.65	20231.59
693.78	19882.85
693.92	19765.82
694.05	19955.41
694.19	19943.70
694.32	19597.31
694.45	20067.75
694.59	19901.58
694.72	19744.76
694.86	19501.34
694.99	19480.28
695.13	19070.68
695.26	18963.02
695.39	19040.26
695.53	18972.38
695.66	18986.43
695.80	19087.07
695.93	19066.00
696.07	18469.17
696.20	18192.98
696.33	18099.36
696.47	17980.00
696.60	18005.74
696.73	18202.35
696.87	18146.17
697.00	18132.13
697.14	17958.93
697.27	17923.82
697.40	17884.03
697.54	17699.13
697.67	17507.21
697.80	17659.34
697.94	17455.72
698.07	17563.38
698.21	17139.74
698.34	17074.21
698.47	17179.53
698.61	16685.68
698.74	16779.30
698.87	16924.41
699.01	16683.34
699.14	16814.41
699.27	16463.33
699.40	16685.68
699.54	16009.26
699.67	16271.40
699.80	16292.47
699.94	16329.92
700.07	16346.30
700.20	16294.81
700.34	16091.18
700.47	16182.46
700.60	15868.83
700.73	15948.41
700.87	15545.84
701.00	15510.73
701.13	15644.14
701.26	15419.45
701.40	15800.96
701.53	15309.44
701.66	15208.80
701.79	15351.57
701.93	15208.80
702.06	15159.65
702.19	15211.14
702.32	14920.92
702.46	15248.59
702.59	14869.42
702.72	15028.58
702.85	14792.19
702.99	14993.47
703.12	14480.89
703.25	14647.07
703.38	14506.64
703.51	14387.27
703.65	14113.43
703.78	13933.21
703.91	13743.63
704.04	13907.46
704.17	13867.67
704.31	13919.17
704.44	13668.73
704.57	13706.18
704.70	13689.79
704.83	13540.00
704.96	13572.77
705.10	13495.53
705.23	13214.66
>>>>>End Processed Spectral Data<<<<<
