SpectraSuite Data File
++++++++++++++++++++++++++++++++++++
Date: Fri Oct 25 10:43:35 EDT 2013
User: price-jones
Dark Spectrum Present: No
Reference Spectrum Present: No
Number of Sampled Component Spectra: 1
Spectrometers: USB2+H05261
Integration Time (usec): 100000 (USB2+H05261)
Spectra Averaged: 1 (USB2+H05261)
Boxcar Smoothing: 0 (USB2+H05261)
Correct for Electrical Dark: No (USB2+H05261)
Strobe/Lamp Enabled: No (USB2+H05261)
Correct for Detector Non-linearity: No (USB2+H05261)
Correct for Stray Light: No (USB2+H05261)
Number of Pixels in Processed Spectrum: 2048
>>>>>Begin Processed Spectral Data<<<<<
365.73	117.03
365.92	117.03
366.12	117.03
366.32	58.51
366.52	0.00
366.72	37.45
366.91	0.00
367.11	2.34
367.31	2.34
367.51	42.13
367.70	30.43
367.90	23.41
368.10	2.34
368.30	30.43
368.49	23.41
368.69	0.00
368.89	51.49
369.09	4.68
369.28	95.96
369.48	25.75
369.68	23.41
369.87	100.64
370.07	70.22
370.27	140.43
370.47	177.88
370.66	386.19
370.86	400.23
371.06	482.15
371.25	496.19
371.45	435.34
371.65	447.04
371.84	418.96
372.04	470.45
372.24	498.53
372.44	430.66
372.63	557.05
372.83	440.02
373.03	454.06
373.22	543.00
373.42	447.04
373.62	465.77
373.81	505.56
374.01	580.45
374.21	615.56
374.40	531.30
374.60	552.37
374.79	587.47
374.99	484.49
375.19	585.13
375.38	559.39
375.58	594.50
375.78	596.84
375.97	615.56
376.17	638.97
376.37	615.56
376.56	613.22
376.76	514.92
376.95	573.43
377.15	634.29
377.35	690.46
377.54	676.41
377.74	653.01
377.93	629.60
378.13	650.67
378.33	629.60
378.52	674.07
378.72	638.97
378.91	692.80
379.11	716.20
379.31	697.48
379.50	606.20
379.70	781.74
379.89	758.33
380.09	744.29
380.28	664.71
380.48	685.78
380.68	681.10
380.87	629.60
381.07	770.04
381.26	681.10
381.46	767.70
381.65	702.16
381.85	676.41
382.04	744.29
382.24	664.71
382.43	751.31
382.63	634.29
382.83	758.33
383.02	744.29
383.22	786.42
383.41	709.18
383.61	725.57
383.80	765.36
384.00	730.25
384.19	723.23
384.39	770.04
384.58	713.86
384.78	765.36
384.97	814.51
385.17	777.06
385.36	856.64
385.56	851.96
385.75	847.27
385.95	791.10
386.14	870.68
386.34	833.23
386.53	809.83
386.72	821.53
386.92	910.47
387.11	830.89
387.31	870.68
387.50	887.06
387.70	884.72
387.89	805.14
388.09	922.17
388.28	837.91
388.48	842.59
388.67	968.98
388.86	898.77
389.06	966.64
389.25	959.62
389.45	1015.79
389.64	966.64
389.84	1050.90
390.03	1046.22
390.22	952.60
390.42	1071.97
390.61	1039.20
390.81	1053.24
391.00	1060.26
391.19	1081.33
391.39	1053.24
391.58	1039.20
391.78	1069.62
391.97	1069.62
392.16	1086.01
392.36	1025.15
392.55	1083.67
392.75	1118.78
392.94	933.87
393.13	1034.52
393.33	947.92
393.52	1055.58
393.71	1158.57
393.91	1088.35
394.10	1165.59
394.29	1149.20
394.49	1151.54
394.68	1263.89
394.88	1273.25
395.07	1268.57
395.26	1376.24
395.46	1270.91
395.65	1324.74
395.84	1238.14
396.04	1306.02
396.23	1067.28
396.42	1217.08
396.62	1170.27
396.81	1142.18
397.00	1282.61
397.19	1327.08
397.39	1299.00
397.58	1401.98
397.77	1331.76
397.97	1406.66
398.16	1500.28
398.35	1448.79
398.55	1462.83
398.74	1458.15
398.93	1535.39
399.12	1528.37
399.32	1460.49
399.51	1533.05
399.70	1621.99
399.90	1563.48
400.09	1612.63
400.28	1715.61
400.47	1612.63
400.67	1582.20
400.86	1586.88
401.05	1708.59
401.24	1767.10
401.44	1783.49
401.63	1736.68
401.82	1774.13
402.01	1659.44
402.21	1785.83
402.40	1870.09
402.59	1638.38
402.78	1853.70
402.97	1872.43
403.17	1827.96
403.36	1980.09
403.55	1940.30
403.74	1895.83
403.93	1977.75
404.13	1916.90
404.32	1867.75
404.51	1825.62
404.70	2038.61
404.89	2012.86
405.09	2050.31
405.28	2078.40
405.47	1947.33
405.66	2073.71
405.85	1916.90
406.05	2057.33
406.24	2036.27
406.43	1984.77
406.62	2076.06
406.81	2218.83
407.00	2066.69
407.20	2057.33
407.39	2031.58
407.58	2188.40
407.77	2282.02
407.96	2169.68
408.15	2275.00
408.34	2139.25
408.54	2296.07
408.73	2260.96
408.92	2312.45
409.11	2385.01
409.30	2342.88
409.49	2335.85
409.68	2293.72
409.87	2392.03
410.07	2296.07
410.26	2431.82
410.45	2429.48
410.64	2408.41
410.83	2504.37
411.02	2647.15
411.21	2597.99
411.40	2670.55
411.59	2647.15
411.78	2754.81
411.98	2612.04
412.17	2668.21
412.36	2731.41
412.55	2792.26
412.74	2759.49
412.93	2839.07
413.12	2689.28
413.31	2928.01
413.50	2862.48
413.69	2878.86
413.88	2897.58
414.07	2925.67
414.26	3038.02
414.45	3103.55
414.64	2909.29
414.83	2949.08
415.02	3105.89
415.22	3070.78
415.41	3122.27
415.60	3232.28
415.79	3232.28
415.98	3421.86
416.17	3323.56
416.36	3426.54
416.55	3379.73
416.74	3286.11
416.93	3281.43
417.12	3300.16
417.31	3400.80
417.50	3461.65
417.69	3412.50
417.88	3414.84
418.07	3410.16
418.26	3562.30
418.45	3648.90
418.64	3503.78
418.83	3698.05
419.02	3627.83
419.21	3707.41
419.39	3557.61
419.58	3648.90
419.77	3632.51
419.96	3714.43
420.15	3852.52
420.34	3747.20
420.53	3854.86
420.72	3918.06
420.91	3805.71
421.10	3892.31
421.29	3904.01
421.48	3824.44
421.67	3927.42
421.86	3758.90
422.05	3871.25
422.24	3838.48
422.43	3765.92
422.61	3969.55
422.80	3899.33
422.99	3904.01
423.18	3882.95
423.37	3962.53
423.56	3988.27
423.75	3999.98
423.94	4016.36
424.13	3691.02
424.32	3894.65
424.50	3974.23
424.69	4168.49
424.88	4196.58
425.07	3868.91
425.26	3915.72
425.45	3964.87
425.64	4028.06
425.83	4114.66
426.01	4058.49
426.20	4018.70
426.39	4117.00
426.58	4065.51
426.77	3920.40
426.96	4107.64
427.15	4121.68
427.33	4028.06
427.52	4161.47
427.71	4112.32
427.90	4304.25
428.09	4262.12
428.28	4290.20
428.46	4255.09
428.65	4194.24
428.84	4381.48
429.03	4285.52
429.22	4138.07
429.40	4152.11
429.59	4287.86
429.78	4025.72
429.97	3868.91
430.16	4065.51
430.34	4175.52
430.53	4238.71
430.72	4285.52
430.91	4381.48
431.10	4421.27
431.28	4587.45
431.47	4720.86
431.66	4706.82
431.85	4690.43
432.03	4727.88
432.22	4851.93
432.41	4685.75
432.60	4753.63
432.79	4706.82
432.97	4947.89
433.16	4931.51
433.35	4784.06
433.54	4767.67
433.72	4638.94
433.91	4702.14
434.10	4669.37
434.28	4807.46
434.47	4908.10
434.66	4910.44
434.85	4985.34
435.03	4999.38
435.22	4842.57
435.41	5135.14
435.59	5156.20
435.78	5172.58
435.97	5284.93
436.16	5291.95
436.34	5137.48
436.53	5322.38
436.72	5345.78
436.90	5125.77
437.09	5153.86
437.28	5153.86
437.46	5240.46
437.65	5378.55
437.84	5448.77
438.02	5324.72
438.21	5231.10
438.40	5362.17
438.58	5355.15
438.77	5516.64
438.96	5715.59
439.14	5785.80
439.33	5652.39
439.52	5626.65
439.70	5600.90
439.89	5720.27
440.08	5893.47
440.26	5734.31
440.45	5654.73
440.63	6015.18
440.82	6274.98
441.01	6207.10
441.19	6017.52
441.38	6148.59
441.57	6153.27
441.75	6307.74
441.94	6450.52
442.12	6356.90
442.31	6427.11
442.50	6492.65
442.68	6455.20
442.87	6384.98
443.05	6537.12
443.24	6745.42
443.43	6506.69
443.61	6520.73
443.80	6822.66
443.98	6525.41
444.17	6354.55
444.35	6670.53
444.54	6888.20
444.73	6787.55
444.91	6703.29
445.10	6595.63
445.28	6511.37
445.47	6506.69
445.65	6595.63
445.84	6494.99
446.02	6794.58
446.21	6537.12
446.39	6668.19
446.58	6916.28
446.77	6857.77
446.95	6759.47
447.14	6789.89
447.32	6965.43
447.51	6780.53
447.69	6684.57
447.88	6815.64
448.06	6836.70
448.25	6586.27
448.43	6942.03
448.62	6892.88
448.80	6911.60
448.99	7014.59
449.17	6883.52
449.36	6988.84
449.54	6946.71
449.73	7136.29
449.91	7178.42
450.10	7190.13
450.28	7300.13
450.46	7295.45
450.65	7442.90
450.83	7330.56
451.02	7075.44
451.20	7314.17
451.39	7468.65
451.57	7459.29
451.76	7344.60
451.94	7162.04
452.13	7463.97
452.31	7321.20
452.49	7269.70
452.68	7405.46
452.86	7274.38
453.05	7318.86
453.23	7433.54
453.42	7382.05
453.60	7398.43
453.78	7503.76
453.97	7559.93
454.15	7784.62
454.34	7508.44
454.52	7793.98
454.70	7538.87
454.89	7667.60
455.07	7676.96
455.26	7777.60
455.44	7784.62
455.62	7786.96
455.81	7857.18
455.99	8039.74
456.17	7988.25
456.36	7953.14
456.54	7941.44
456.73	8095.91
456.91	8276.13
457.09	8210.60
457.28	8465.72
457.46	8222.30
457.64	8224.64
457.83	8255.07
458.01	8173.15
458.19	8395.50
458.38	8234.00
458.56	8482.10
458.74	8648.28
458.93	8568.70
459.11	8421.25
459.29	8353.37
459.48	8416.57
459.66	8383.80
459.84	8344.01
460.03	8606.15
460.21	8617.85
460.39	8758.28
460.57	8547.64
460.76	8645.94
460.94	8667.00
461.12	8755.94
461.31	8592.11
461.49	8926.80
461.67	8781.69
461.85	8966.59
462.04	8791.05
462.22	9268.52
462.40	9020.42
462.59	8842.54
462.77	9022.77
462.95	9137.45
463.13	8992.34
463.32	9081.28
463.50	9188.94
463.68	9226.39
463.86	9287.25
464.05	9083.62
464.23	9125.75
464.41	9053.19
464.59	9067.24
464.78	9479.17
464.96	9303.63
465.14	9067.24
465.32	9170.22
465.50	9476.83
465.69	9635.99
465.87	9479.17
466.05	9603.22
466.23	9458.10
466.41	9291.93
466.60	9423.00
466.78	9430.02
466.96	9425.34
467.14	9432.36
467.32	9575.13
467.51	9605.56
467.69	9348.10
467.87	9675.77
468.05	9600.88
468.23	9626.62
468.41	9432.36
468.60	9582.15
468.78	9563.43
468.96	9593.86
469.14	9851.31
469.32	9926.21
469.50	9547.05
469.69	9991.75
469.87	9865.36
470.05	10057.28
470.23	9884.08
470.41	9872.38
470.59	10078.35
470.77	9710.88
470.95	10169.63
471.14	10410.70
471.32	10324.10
471.50	10530.07
471.68	10429.43
471.86	10539.43
472.04	10523.05
472.22	10871.79
472.40	10415.38
472.58	10583.90
472.77	10516.03
472.95	10672.84
473.13	11206.48
473.31	10874.13
473.49	10743.06
473.67	10738.38
473.85	11140.95
474.03	11084.78
474.21	11115.20
474.39	11119.89
474.57	11297.77
474.75	11393.73
474.93	11438.20
475.12	11283.72
475.30	11513.10
475.48	11449.90
475.66	11573.95
475.84	11604.38
476.02	11595.01
476.20	11541.18
476.38	11623.10
476.56	12102.91
476.74	11936.73
476.92	11925.03
477.10	11705.02
477.28	12388.46
477.46	12327.60
477.64	12421.22
477.82	12566.34
478.00	12772.30
478.18	12599.10
478.36	12699.75
478.54	12917.42
478.72	12774.64
478.90	13083.59
479.08	13345.73
479.26	13273.18
479.44	13219.35
479.62	13472.12
479.80	13404.25
479.98	13518.93
480.16	14040.87
480.34	13823.20
480.52	14012.79
480.70	14059.60
480.88	13877.04
481.06	14148.54
481.24	14204.71
481.41	14501.96
481.59	14494.94
481.77	14487.92
481.95	14670.48
482.13	14785.16
482.31	15030.92
482.49	14993.47
482.67	15213.48
482.85	15166.67
483.03	15236.89
483.21	15499.03
483.39	15279.02
483.57	15487.32
483.74	15854.79
483.92	15917.98
484.10	15800.96
484.28	16343.96
484.46	16276.09
484.64	16444.60
484.82	16386.09
485.00	16320.56
485.18	16713.77
485.35	16669.30
485.53	16477.37
485.71	16212.89
485.89	16795.68
486.07	16341.62
486.25	16915.05
486.43	17011.01
486.61	17186.55
486.78	17209.96
486.96	17603.17
487.14	17745.94
487.32	17778.71
487.50	18010.42
487.68	18288.95
487.85	18492.57
488.03	18747.69
488.21	18703.22
488.39	18881.10
488.57	19138.56
488.75	18759.39
488.92	19447.51
489.10	19477.94
489.28	19915.62
489.46	19988.18
489.64	20121.59
489.81	20046.69
489.99	20334.57
490.17	20393.09
490.35	20851.83
490.53	20706.72
490.70	20645.87
490.88	20849.49
491.06	21149.08
491.24	21186.53
491.41	20863.54
491.59	21081.21
491.77	20865.88
491.95	21338.66
492.13	21376.11
492.30	21991.67
492.48	21689.74
492.66	22319.35
492.84	21998.70
493.01	22291.26
493.19	22583.83
493.37	22405.95
493.54	22590.85
493.72	22986.40
493.90	22916.19
494.08	22958.31
494.25	23775.16
494.43	23517.70
494.61	23913.25
494.79	23718.99
494.96	23779.84
495.14	23910.91
495.32	23896.87
495.49	23981.13
495.67	23920.28
495.85	24369.66
496.02	24648.18
496.20	24201.14
496.38	24741.80
496.55	24657.54
496.73	25572.69
496.91	25418.22
497.09	25207.57
497.26	25298.85
497.44	25263.74
497.62	25624.18
497.79	25504.82
497.97	25483.75
498.14	25991.65
498.32	26312.30
498.50	26050.16
498.67	26324.01
498.85	26319.32
499.03	26649.34
499.20	26302.94
499.38	26244.43
499.56	26485.50
499.73	26773.39
499.91	27220.43
500.08	26913.82
500.26	26700.83
500.44	27030.85
500.61	26794.45
500.79	27110.43
500.97	27138.51
501.14	27363.20
501.32	27307.03
501.49	27817.27
501.67	27447.46
501.84	27592.58
502.02	28048.98
502.20	27604.28
502.37	27936.63
502.55	28194.09
502.72	28561.56
502.90	28561.56
503.07	27840.67
503.25	28156.64
503.43	28240.90
503.60	28423.47
503.78	28264.31
503.95	28301.76
504.13	28741.78
504.30	29092.86
504.48	29034.35
504.65	28884.55
504.83	29378.40
505.01	29736.51
505.18	29415.85
505.36	29656.93
505.53	29851.19
505.71	30127.38
505.88	29853.53
506.06	29900.34
506.23	30183.55
506.41	29722.46
506.58	30066.52
506.76	30199.93
506.93	30396.54
507.11	30546.33
507.28	30422.28
507.46	30057.16
507.63	30225.68
507.81	30354.41
507.98	30508.88
508.16	30773.36
508.33	30305.26
508.50	31475.52
508.68	31094.02
508.85	31622.98
509.03	31388.92
509.20	31335.09
509.38	31505.95
509.55	31557.44
509.73	31365.52
509.90	31826.60
510.08	31564.46
510.25	31573.83
510.42	32149.60
510.60	32411.74
510.77	31777.45
510.95	32418.76
511.12	32367.27
511.30	32552.17
511.47	33092.83
511.64	32938.36
511.82	32615.37
511.99	32760.48
512.17	32730.05
512.34	32407.06
512.51	33046.02
512.69	33090.49
512.86	33193.48
513.04	33741.16
513.21	33153.69
513.38	32929.00
513.56	33003.89
513.73	33256.67
513.90	33275.40
514.08	33652.22
514.25	33670.95
514.43	33156.03
514.60	33369.02
514.77	33530.51
514.95	34022.03
515.12	33750.52
515.29	34033.73
515.47	34513.54
515.64	34668.02
515.81	34099.26
515.99	33893.30
516.16	34195.23
516.33	34110.97
516.51	34066.50
516.68	33270.72
516.85	33170.07
517.03	33769.25
517.20	34487.79
517.37	34546.31
517.54	34639.93
517.72	34951.22
517.89	33816.06
518.06	34342.68
518.24	34167.14
518.41	34548.65
518.58	34831.85
518.75	35147.82
518.93	35140.80
519.10	35267.19
519.27	35426.35
519.45	35445.07
519.62	35707.21
519.79	35676.79
519.96	35761.05
520.14	35653.38
520.31	35807.86
520.48	35796.15
520.65	36187.02
520.83	36074.68
521.00	36673.85
521.17	35927.22
521.34	36224.47
521.52	36460.87
521.69	36367.24
521.86	36641.09
522.03	36596.62
522.20	36430.44
522.38	36470.23
522.55	36755.77
522.72	36744.07
522.89	36589.59
523.07	37205.16
523.24	37123.24
523.41	37125.58
523.58	36943.02
523.75	37481.34
523.92	37366.65
524.10	37364.31
524.27	37626.45
524.44	37511.77
524.61	37743.48
524.78	37823.06
524.96	37731.78
525.13	37530.49
525.30	38096.90
525.47	38206.90
525.64	37862.85
525.81	37790.29
525.98	37638.15
526.16	37951.79
526.33	37151.32
526.50	38085.20
526.67	37589.00
526.84	37792.63
527.01	37809.01
527.18	37942.42
527.36	38597.77
527.53	38436.28
527.70	39126.74
527.87	38705.44
528.04	38110.94
528.21	38712.46
528.38	38712.46
528.55	38909.07
528.72	39210.99
528.89	39035.45
529.07	39117.37
529.24	38649.27
529.41	39070.56
529.58	38930.13
529.75	39398.24
529.92	39239.08
530.09	39590.16
530.26	39725.91
530.43	39768.04
530.60	39243.76
530.77	39658.04
530.94	39454.41
531.11	39763.36
531.28	39866.34
531.46	39700.17
531.63	40114.44
531.80	39992.73
531.97	39805.49
532.14	39854.64
532.31	39817.19
532.48	39714.21
532.65	40196.36
532.82	39281.21
532.99	40149.55
533.16	39880.39
533.33	40025.50
533.50	40168.27
533.67	40383.60
533.84	40301.68
534.01	40318.07
534.18	40343.81
534.35	40793.20
534.52	40233.81
534.69	40561.48
534.86	40755.75
535.03	40797.88
535.20	41179.39
535.37	41006.19
535.54	41277.69
535.71	40975.76
535.88	41053.00
536.05	40615.32
536.22	41476.63
536.38	41191.09
536.55	40912.56
536.72	41191.09
536.89	40828.30
537.06	41001.50
537.23	41256.62
537.40	41034.27
537.57	41495.36
537.74	41734.09
537.91	41373.65
538.08	41551.53
538.25	41415.78
538.42	41551.53
538.59	41701.32
538.75	41488.34
538.92	41830.05
539.09	41797.29
539.26	41773.88
539.43	41935.38
539.60	41757.50
539.77	41523.44
539.94	41673.24
540.11	41759.84
540.28	41656.85
540.44	41546.85
540.61	42071.13
540.78	41579.62
540.95	41853.46
541.12	42043.04
541.29	41902.61
541.46	42457.32
541.62	42412.85
541.79	42347.31
541.96	41895.59
542.13	42230.29
542.30	42298.16
542.47	42623.50
542.63	42487.74
542.80	42698.39
542.97	42850.53
543.14	42450.30
543.31	42843.51
543.48	42979.26
543.64	43014.37
543.81	43070.54
543.98	43033.09
544.15	43007.34
544.32	43220.33
544.48	44093.35
544.65	43023.73
544.82	43430.98
544.99	42873.93
545.16	43505.88
545.32	43220.33
545.49	43669.72
545.66	43529.28
545.83	43391.19
546.00	43636.95
546.16	43871.00
546.33	43393.53
546.50	43152.46
546.67	43889.73
546.83	43065.86
547.00	43393.53
547.17	43559.71
547.34	43302.25
547.50	43761.00
547.67	43688.44
547.84	43807.81
548.00	43983.35
548.17	44156.55
548.34	43578.43
548.51	44268.89
548.67	44320.38
548.84	44634.02
549.01	44109.74
549.18	43819.51
549.34	44325.07
549.51	44573.16
549.68	44140.16
549.84	43999.73
550.01	44570.82
550.18	43753.97
550.34	44421.03
550.51	43952.92
550.68	44304.00
550.84	44034.84
551.01	44296.98
551.18	44231.44
551.34	44041.86
551.51	44336.77
551.68	44507.63
551.84	44505.29
552.01	44645.72
552.18	44500.61
552.34	44179.95
552.51	44626.99
552.68	44842.32
552.84	44442.09
553.01	44823.60
553.18	44739.34
553.34	44879.77
553.51	44458.48
553.67	44982.76
553.84	45027.23
554.01	45191.06
554.17	45214.47
554.34	45158.30
554.51	45144.25
554.67	44809.56
554.84	45371.28
555.00	44877.43
555.17	45022.54
555.33	45139.57
555.50	44896.16
555.67	44882.11
555.83	45031.91
556.00	44669.12
556.16	45413.41
556.33	44765.09
556.50	45130.21
556.66	45120.85
556.83	44783.81
556.99	45256.60
557.16	45439.16
557.32	45516.40
557.49	45474.27
557.65	45162.98
557.82	45319.79
557.98	45221.49
558.15	44844.66
558.32	45619.38
558.48	45017.86
558.65	45144.25
558.81	45162.98
558.98	45118.51
559.14	45467.25
559.31	45523.42
559.47	45361.92
559.64	45240.21
559.80	45593.64
559.97	45509.38
560.13	45155.96
560.30	45184.04
560.46	45361.92
560.63	45942.38
560.79	45617.04
560.96	45631.08
561.12	45280.00
561.29	45485.97
561.45	45521.08
561.61	45677.90
561.78	45736.41
561.94	45701.30
562.11	45652.15
562.27	45394.69
562.44	45963.44
562.60	45443.84
562.77	45677.90
562.93	45642.79
563.10	45490.65
563.26	45443.84
563.42	45724.71
563.59	45698.96
563.75	46127.28
563.92	46019.61
564.08	45900.25
564.24	45968.12
564.41	45977.48
564.57	46040.68
564.74	45933.01
564.90	45696.62
565.07	45488.31
565.23	45839.39
565.39	46124.94
565.56	45502.35
565.72	45904.93
565.88	45698.96
566.05	45984.51
566.21	45904.93
566.38	45935.35
566.54	45661.51
566.70	45951.74
566.87	46321.54
567.03	45839.39
567.19	46618.79
567.36	46143.66
567.52	46150.68
567.68	45996.21
567.85	45715.34
568.01	45708.32
568.17	45930.67
568.34	46045.36
568.50	46031.32
568.66	45933.01
568.83	46457.29
568.99	45460.23
569.15	45925.99
569.32	46017.27
569.48	45649.81
569.64	46178.77
569.81	46206.86
569.97	46188.13
570.13	46267.71
570.30	45893.22
570.46	45698.96
570.62	45837.05
570.78	45645.13
570.95	45787.90
571.11	45916.63
571.27	45940.04
571.43	45970.46
571.60	45928.33
571.76	46211.54
571.92	45954.08
572.09	46597.73
572.25	46492.40
572.41	46263.03
572.57	46122.60
572.74	46827.10
572.90	46260.69
573.06	46267.71
573.22	46181.11
573.38	46171.75
573.55	46248.99
573.71	46583.68
573.87	46618.79
574.03	46096.85
574.20	46061.74
574.36	46319.20
574.52	46131.96
574.68	45968.12
574.84	45940.04
575.01	46260.69
575.17	46052.38
575.33	46033.66
575.49	45989.19
575.65	46450.27
575.82	46693.69
575.98	46225.58
576.14	46485.38
576.30	46532.19
576.46	46396.44
576.62	45954.08
576.79	46288.77
576.95	46171.75
577.11	46209.20
577.27	46305.16
577.43	45984.51
577.59	46274.73
577.75	46321.54
577.92	46078.13
578.08	45895.56
578.24	45958.76
578.40	46096.85
578.56	46340.27
578.72	46167.07
578.88	46281.75
579.04	46518.15
579.21	45956.42
579.37	46106.21
579.53	46443.25
579.69	46052.38
579.85	46447.93
580.01	46426.87
580.17	45918.97
580.33	46518.15
580.49	46115.58
580.65	46618.79
580.82	46124.94
580.98	46349.63
581.14	45818.33
581.30	46384.74
581.46	46127.28
581.62	46590.70
581.78	46370.69
581.94	46579.00
582.10	46689.01
582.26	46370.69
582.42	46567.30
582.58	46464.32
582.74	46438.57
582.90	46665.60
583.06	46447.93
583.22	46288.77
583.38	46873.91
583.54	47000.30
583.70	46560.28
583.86	46412.82
584.02	45914.29
584.18	46803.69
584.34	46639.86
584.50	46199.83
584.66	46295.80
584.82	46454.95
584.98	47105.62
585.14	46347.29
585.30	46286.43
585.46	45860.46
585.62	45855.78
585.78	46146.00
585.94	46131.96
586.10	46176.43
586.26	46178.77
586.42	46637.51
586.58	46845.82
586.74	46309.84
586.90	46354.31
587.06	46595.38
587.22	46422.19
587.38	46155.36
587.54	46155.36
587.70	46576.66
587.86	46405.80
588.02	46487.72
588.18	46522.83
588.34	46337.93
588.49	45769.18
588.65	45694.28
588.81	45993.87
588.97	46153.02
589.13	45895.56
589.29	46005.57
589.45	45289.37
589.61	46057.06
589.77	46436.23
589.93	46459.63
590.08	46045.36
590.24	46574.32
590.40	46791.99
590.56	46604.75
590.72	46958.17
590.88	46445.59
591.04	46841.14
591.20	46740.50
591.35	46791.99
591.51	46557.94
591.67	46391.76
591.83	46885.61
591.99	46356.65
592.15	46124.94
592.31	46422.19
592.46	46504.10
592.62	46431.55
592.78	46391.76
592.94	46543.89
593.10	46445.59
593.26	46892.63
593.41	46546.23
593.57	46536.87
593.73	46536.87
593.89	46616.45
594.05	46892.63
594.20	46628.15
594.36	46447.93
594.52	46284.09
594.68	46520.49
594.84	46174.09
594.99	46829.44
595.15	46548.57
595.31	46412.82
595.47	46934.76
595.62	46391.76
595.78	46021.95
595.94	46541.55
596.10	46415.16
596.25	46464.32
596.41	46834.12
596.57	46117.92
596.73	46672.62
596.88	46546.23
597.04	46426.87
597.20	46602.41
597.36	46497.08
597.51	46583.68
597.67	46370.69
597.83	46735.82
597.99	46497.08
598.14	46021.95
598.30	46801.35
598.46	46384.74
598.61	46892.63
598.77	46747.52
598.93	46548.57
599.09	46281.75
599.24	47033.07
599.40	46857.52
599.56	46735.82
599.71	46796.67
599.87	46848.16
600.03	46862.21
600.18	46358.99
600.34	46405.80
600.50	46450.27
600.65	46171.75
600.81	46660.92
600.97	46564.96
601.12	46375.37
601.28	46913.70
601.44	46366.01
601.59	46642.20
601.75	46000.89
601.91	46373.03
602.06	46061.74
602.22	46478.36
602.37	46663.26
602.53	46644.54
602.69	46841.14
602.84	46396.44
603.00	46410.48
603.16	46726.46
603.31	46387.08
603.47	46358.99
603.62	46382.40
603.78	46227.92
603.94	46705.39
604.09	46869.23
604.25	46216.22
604.40	45858.12
604.56	45911.95
604.71	46852.84
604.87	46681.98
605.03	46536.87
605.18	46410.48
605.34	46478.36
605.49	46131.96
605.65	46658.58
605.80	46131.96
605.96	46373.03
606.12	46356.65
606.27	46436.23
606.43	46333.24
606.58	46188.13
606.74	46096.85
606.89	46033.66
607.05	46293.46
607.20	46646.88
607.36	46054.72
607.51	46466.66
607.67	46593.04
607.82	45935.35
607.98	46256.01
608.13	46391.76
608.29	46181.11
608.44	45895.56
608.60	45483.63
608.75	45956.42
608.91	46141.32
609.06	45612.36
609.22	46071.10
609.37	45724.71
609.53	45958.76
609.68	45996.21
609.84	45893.22
609.99	45869.82
610.15	45584.27
610.30	45998.55
610.46	45579.59
610.61	45450.86
610.76	45909.61
610.92	45916.63
611.07	46265.37
611.23	45888.54
611.38	46014.93
611.54	45581.93
611.69	45708.32
611.84	45408.73
612.00	45373.63
612.15	45673.21
612.31	45703.64
612.46	45900.25
612.62	45731.73
612.77	45752.79
612.92	45572.57
613.08	45132.55
613.23	45682.58
613.39	45017.86
613.54	44657.42
613.69	45748.11
613.85	45024.89
614.00	45769.18
614.15	45272.98
614.31	45275.32
614.46	45532.78
614.62	45748.11
614.77	45598.32
614.92	45579.59
615.08	45052.97
615.23	45038.93
615.38	45308.09
615.54	45071.70
615.69	45492.99
615.84	44818.92
616.00	45081.06
616.15	45045.95
616.30	45085.74
616.46	44737.00
616.61	44877.43
616.76	44582.52
616.92	44507.63
617.07	44809.56
617.22	44898.50
617.37	44825.94
617.53	45132.55
617.68	45027.23
617.83	44790.83
617.99	44680.83
618.14	45148.93
618.29	44360.17
618.45	44002.07
618.60	44411.67
618.75	44348.47
618.90	44301.66
619.06	44744.02
619.21	44292.30
619.36	44484.22
619.51	44776.79
619.67	43978.67
619.82	44992.12
619.97	44605.93
620.12	44128.46
620.28	44301.66
620.43	44385.92
620.58	44376.56
620.73	44194.00
620.89	43934.20
621.04	44292.30
621.19	44589.55
621.34	44079.31
621.49	43931.86
621.65	43962.28
621.80	44226.76
621.95	43863.98
622.10	44121.44
622.25	44133.14
622.41	43693.12
622.56	43999.73
622.71	44273.57
622.86	43833.55
623.01	43669.72
623.16	44107.40
623.32	44123.78
623.47	43814.83
623.62	43571.41
623.77	43746.95
623.92	43613.54
624.07	43627.59
624.23	43349.06
624.38	43299.91
624.53	43704.82
624.68	43381.83
624.83	43662.69
624.98	43196.93
625.13	43117.35
625.29	43409.92
625.44	43278.85
625.59	43339.70
625.74	43194.59
625.89	43103.31
626.04	43084.58
626.19	43021.39
626.34	43545.67
626.49	42993.30
626.65	42913.72
626.80	43250.76
626.95	42827.12
627.10	43232.04
627.25	42895.00
627.40	42895.00
627.55	42899.68
627.70	42473.70
627.85	42773.29
628.00	42843.51
628.15	42897.34
628.30	42909.04
628.45	42976.92
628.60	42892.66
628.76	42937.13
628.91	42574.34
629.06	42721.80
629.21	42717.12
629.36	42515.83
629.51	42316.89
629.66	42405.83
629.81	42134.32
629.96	42459.66
630.11	42567.32
630.26	43072.88
630.41	42644.56
630.56	42361.36
630.71	42291.14
630.86	42153.05
631.01	42637.54
631.16	42344.97
631.31	41785.58
631.46	42171.77
631.61	42225.60
631.76	42241.99
631.91	42223.26
632.06	42328.59
632.21	42026.66
632.36	42253.69
632.51	42103.90
632.66	42298.16
632.81	41787.92
632.96	42057.09
633.10	41729.41
633.25	42019.64
633.40	41830.05
633.55	42368.38
633.70	41586.64
633.85	41979.85
634.00	41757.50
634.15	42012.62
634.30	42153.05
634.45	41626.43
634.60	41879.21
634.75	41764.52
634.90	41455.57
635.05	41549.19
635.19	41111.51
635.34	41729.41
635.49	41244.92
635.64	41413.44
635.79	41387.69
635.94	41654.51
636.09	41254.28
636.24	40989.80
636.39	41284.71
636.53	41219.17
636.68	41186.41
636.83	41109.17
636.98	41331.52
637.13	41163.00
637.28	41675.58
637.43	41153.64
637.57	41490.68
637.72	41207.47
637.87	41518.76
638.02	41378.33
638.17	41331.52
638.32	41338.54
638.46	41167.68
638.61	41095.13
638.76	40755.75
638.91	41130.23
639.06	41223.86
639.20	41270.67
639.35	40914.90
639.50	40882.14
639.65	40926.61
639.80	40891.50
639.94	40671.49
640.09	40526.38
640.24	40343.81
640.39	40610.64
640.54	40507.65
640.68	40568.51
640.83	40360.20
640.98	40460.84
641.13	40278.28
641.27	40715.96
641.42	40289.98
641.57	40264.24
641.72	40713.62
641.86	40495.95
642.01	40313.39
642.16	40348.50
642.31	39840.60
642.45	40622.34
642.60	40107.42
642.75	40245.51
642.90	40453.82
643.04	39871.03
643.19	40128.48
643.34	40135.51
643.48	40151.89
643.63	40119.12
643.78	39555.05
643.93	40261.90
644.07	40250.19
644.22	39651.02
644.37	39952.94
644.51	39625.27
644.66	40149.55
644.81	39613.57
644.95	40081.67
645.10	40114.44
645.25	39473.13
645.39	39805.49
645.54	40016.14
645.69	39360.79
645.83	39442.71
645.98	39299.94
646.13	39225.04
646.27	39564.42
646.42	39274.19
646.57	39274.19
646.71	39545.69
646.86	39325.68
647.00	39386.54
647.15	39377.17
647.30	39079.92
647.44	39459.09
647.59	39381.85
647.74	39058.86
647.88	39061.20
648.03	39353.77
648.17	39143.12
648.32	38707.78
648.47	39339.72
648.61	39129.08
648.76	39150.14
648.90	38836.51
649.05	38873.96
649.20	39302.28
649.34	39241.42
649.49	38529.90
649.63	38799.06
649.78	39185.25
649.92	38637.56
650.07	39297.59
650.21	38988.64
650.36	39091.63
650.51	38763.95
650.65	39257.81
650.80	39028.43
650.94	38988.64
651.09	38602.46
651.23	38417.55
651.38	38534.58
651.52	38398.83
651.67	38014.98
651.81	38204.56
651.96	39070.56
652.10	38565.01
652.25	38462.02
652.39	38345.00
652.54	38541.60
652.68	38380.10
652.83	38438.62
652.97	39040.14
653.12	38611.82
653.26	38270.10
653.41	37888.59
653.55	38759.27
653.70	38487.77
653.84	38494.79
653.99	37851.14
654.13	37677.94
654.27	38218.61
654.42	38288.82
654.56	37865.19
654.71	37914.34
654.85	38239.67
655.00	37951.79
655.14	37890.93
655.29	37663.90
655.43	37691.99
655.57	37399.42
655.72	37277.71
655.86	37207.50
656.01	37116.22
656.15	37111.53
656.30	37242.60
656.44	37483.68
656.58	37610.07
656.73	37867.53
656.87	37247.29
657.01	37223.88
657.16	37368.99
657.30	37092.81
657.45	36938.33
657.59	37151.32
657.73	36898.55
657.88	37546.87
658.02	37420.48
658.16	37394.74
658.31	37427.51
658.45	37549.21
658.60	37474.32
658.74	37493.04
658.88	37406.44
659.03	37317.50
659.17	37053.02
659.31	37315.16
659.46	36589.59
659.60	37158.34
659.74	36802.58
659.89	36701.94
660.03	36566.19
660.17	36823.65
660.32	36959.40
660.46	36701.94
660.60	36547.47
660.74	36538.10
660.89	36627.04
661.03	36598.96
661.17	36488.95
661.32	36451.50
661.46	36275.96
661.60	36009.14
661.74	36196.38
661.89	36187.02
662.03	36266.60
662.17	35955.31
662.31	36196.38
662.46	36577.89
662.60	36465.55
662.74	36165.96
662.88	35732.96
663.03	35988.08
663.17	35981.06
663.31	35608.91
663.45	36013.82
663.60	35782.11
663.74	35697.85
663.88	35599.55
664.02	35321.02
664.17	35763.39
664.31	35253.15
664.45	35131.44
664.59	35405.28
664.73	35424.01
664.88	34881.00
665.02	35082.29
665.16	35351.45
665.30	34375.45
665.44	35206.34
665.59	34951.22
665.73	34958.24
665.87	34831.85
666.01	34719.51
666.15	34382.47
666.29	34632.91
666.44	34958.24
666.58	34679.72
666.72	34445.66
666.86	34338.00
667.00	34511.20
667.14	34263.10
667.28	34309.91
667.43	34319.28
667.57	34555.67
667.71	34237.36
667.85	34279.49
667.99	34548.65
668.13	34153.10
668.27	34022.03
668.41	33958.83
668.56	33769.25
668.70	33935.43
668.84	33628.82
668.98	33369.02
669.12	33809.04
669.26	33837.12
669.40	33195.82
669.54	33298.80
669.68	33511.79
669.82	33010.92
669.96	33249.65
670.10	32891.55
670.25	32987.51
670.39	32606.00
670.53	32851.76
670.67	33017.94
670.81	33102.20
670.95	32889.21
671.09	32914.95
671.23	32526.42
671.37	32893.89
671.51	32465.57
671.65	32559.19
671.79	32683.24
671.93	32224.50
672.07	32526.42
672.21	32252.58
672.35	31871.07
672.49	31995.12
672.63	32032.57
672.77	31842.99
672.91	32053.64
673.05	32034.91
673.19	32084.06
673.33	31487.23
673.47	31861.71
673.61	31271.90
673.75	31630.00
673.89	31178.28
674.03	31147.85
674.17	31517.65
674.31	31456.80
674.45	31185.30
674.59	31438.08
674.73	31585.53
674.87	31019.12
675.01	31253.17
675.15	31056.57
675.29	30810.81
675.43	30815.49
675.56	30780.39
675.70	30866.98
675.84	30558.03
675.98	29572.67
676.12	30265.47
676.26	30492.50
676.40	30866.98
676.54	30213.98
676.68	30457.39
676.82	29577.35
676.96	30078.22
677.10	30080.56
677.23	29769.27
677.37	29788.00
677.51	29455.64
677.65	29134.99
677.79	28793.27
677.93	28828.38
678.07	28797.95
678.21	28556.88
678.34	28287.71
678.48	28627.09
678.62	28835.40
678.76	28489.00
678.90	28205.80
679.04	28364.95
679.18	28292.40
679.31	28060.68
679.45	28086.43
679.59	28051.32
679.73	28283.03
679.87	28301.76
680.00	28018.55
680.14	28236.22
680.28	27821.95
680.42	27627.68
680.56	27473.21
680.70	27562.15
680.83	27236.81
680.97	27356.18
681.11	27646.41
681.25	27461.51
681.39	27014.46
681.52	27098.72
681.66	27159.58
681.80	26656.36
681.94	26988.72
682.07	26618.91
682.21	26539.33
682.35	26340.39
682.49	26422.31
682.62	26148.46
682.76	26118.04
682.90	26185.91
683.04	26300.60
683.17	26424.65
683.31	26031.44
683.45	25642.91
683.59	25539.93
683.72	25642.91
683.86	25703.76
684.00	25462.69
684.13	25874.62
684.27	25057.78
684.41	24975.86
684.55	25144.38
684.68	24919.68
684.82	25125.65
684.96	25055.43
685.09	24858.83
685.23	24589.67
685.37	24868.19
685.50	25020.33
685.64	24542.86
685.78	24587.33
685.91	24372.00
686.05	24247.95
686.19	23779.84
686.32	23969.43
686.46	23339.82
686.60	23625.37
686.73	23218.11
686.87	23253.22
687.01	23222.80
687.14	23047.26
687.28	23023.85
687.42	22991.08
687.55	22644.68
687.69	23012.15
687.82	23213.43
687.96	22955.97
688.10	22696.17
688.23	22651.70
688.37	22520.63
688.50	22515.95
688.64	22501.91
688.78	22190.62
688.91	22183.60
689.05	21937.84
689.18	21958.91
689.32	21745.92
689.46	22270.20
689.59	22148.49
689.73	22106.36
689.86	21879.33
690.00	22099.34
690.13	21722.51
690.27	21305.90
690.41	21205.25
690.54	21284.83
690.68	21263.77
690.81	21605.49
690.95	21048.44
691.08	21242.70
691.22	21043.76
691.35	21165.46
691.49	20973.54
691.62	20786.30
691.76	20837.79
691.89	20896.30
692.03	20547.56
692.16	20664.59
692.30	20271.38
692.43	20442.24
692.57	20173.08
692.70	20093.50
692.84	20095.84
692.97	19814.98
693.11	19566.88
693.24	19716.67
693.38	19939.02
693.51	19812.63
693.65	19634.75
693.78	19513.05
693.92	19421.77
694.05	19489.64
694.19	19545.81
694.32	19349.21
694.45	19363.25
694.59	19300.06
694.72	18876.42
694.86	19166.65
694.99	18920.89
695.13	18717.26
695.26	18562.79
695.39	18590.88
695.53	18586.19
695.66	18457.46
695.80	18616.62
695.93	18525.34
696.07	18492.57
696.20	18466.83
696.33	18490.23
696.47	18169.58
696.60	18019.78
696.73	17397.20
696.87	17804.46
697.00	17841.90
697.14	17556.36
697.27	17336.35
697.40	16985.27
697.54	17315.28
697.67	17172.51
697.80	17219.32
697.94	16868.24
698.07	17277.83
698.21	17121.02
698.34	17188.89
698.47	17280.18
698.61	16692.70
698.74	16945.48
698.87	16826.11
699.01	16360.34
699.14	16606.10
699.27	16444.60
699.40	16521.84
699.54	16463.33
699.67	16102.89
699.80	16145.02
699.94	16023.31
700.07	16243.32
700.20	16154.38
700.34	16100.55
700.47	15634.78
700.60	15873.51
700.73	16137.99
700.87	15770.53
701.00	15644.14
701.13	15274.34
701.26	15492.01
701.40	15473.28
701.53	15370.30
701.66	15410.09
701.79	15260.29
701.93	14953.68
702.06	15051.99
702.19	15014.54
702.32	14939.64
702.46	15131.56
702.59	14913.89
702.72	15054.33
702.85	14860.06
702.99	14476.21
703.12	14757.08
703.25	14490.26
703.38	14569.83
703.51	14403.66
703.65	14115.77
703.78	13874.70
703.91	13905.12
704.04	14052.58
704.17	13954.27
704.31	14113.43
704.44	13830.23
704.57	13603.19
704.70	13659.37
704.83	13675.75
704.96	13598.51
705.10	13785.76
705.23	13525.96
>>>>>End Processed Spectral Data<<<<<
