SpectraSuite Data File
++++++++++++++++++++++++++++++++++++
Date: Fri Oct 25 11:33:39 EDT 2013
User: price-jones
Dark Spectrum Present: No
Reference Spectrum Present: No
Number of Sampled Component Spectra: 1
Spectrometers: USB2+H05261
Integration Time (usec): 100000 (USB2+H05261)
Spectra Averaged: 1 (USB2+H05261)
Boxcar Smoothing: 0 (USB2+H05261)
Correct for Electrical Dark: No (USB2+H05261)
Strobe/Lamp Enabled: No (USB2+H05261)
Correct for Detector Non-linearity: No (USB2+H05261)
Correct for Stray Light: No (USB2+H05261)
Number of Pixels in Processed Spectrum: 2048
>>>>>Begin Processed Spectral Data<<<<<
365.73	301.93
365.92	301.93
366.12	301.93
366.32	152.13
366.52	145.11
366.72	175.54
366.91	114.69
367.11	177.88
367.31	140.43
367.51	135.75
367.70	175.54
367.90	187.24
368.10	212.99
368.30	114.69
368.49	196.60
368.69	184.90
368.89	140.43
369.09	170.86
369.28	325.33
369.48	135.75
369.68	339.38
369.87	269.16
370.07	304.27
370.27	205.97
370.47	290.23
370.66	447.04
370.86	589.82
371.06	547.69
371.25	538.32
371.45	589.82
371.65	566.41
371.84	552.37
372.04	528.96
372.24	573.43
372.44	585.13
372.63	601.52
372.83	559.39
373.03	589.82
373.22	596.84
373.42	638.97
373.62	603.86
373.81	547.69
374.01	589.82
374.21	671.73
374.40	631.94
374.60	716.20
374.79	634.29
374.99	627.26
375.19	629.60
375.38	685.78
375.58	594.50
375.78	706.84
375.97	617.90
376.17	711.52
376.37	713.86
376.56	699.82
376.76	727.91
376.95	601.52
377.15	643.65
377.35	657.69
377.54	674.07
377.74	627.26
377.93	645.99
378.13	676.41
378.33	627.26
378.52	617.90
378.72	617.90
378.91	657.69
379.11	704.50
379.31	716.20
379.50	725.57
379.70	741.95
379.89	720.88
380.09	695.14
380.28	648.33
380.48	744.29
380.68	699.82
380.87	709.18
381.07	772.38
381.26	767.70
381.46	753.65
381.65	767.70
381.85	746.63
382.04	730.25
382.24	805.14
382.43	777.06
382.63	774.72
382.83	812.17
383.02	786.42
383.22	866.00
383.41	830.89
383.61	840.25
383.80	858.98
384.00	713.86
384.19	837.91
384.39	809.83
384.58	812.17
384.78	821.53
384.97	763.01
385.17	837.91
385.36	887.06
385.56	788.76
385.75	809.83
385.95	889.40
386.14	763.01
386.34	816.85
386.53	875.36
386.72	821.53
386.92	877.70
387.11	889.40
387.31	835.57
387.50	952.60
387.70	882.38
387.89	887.06
388.09	896.43
388.28	936.21
388.48	849.61
388.67	896.43
388.86	959.62
389.06	884.72
389.25	924.51
389.45	903.45
389.64	926.85
389.84	933.87
390.03	997.07
390.22	957.28
390.42	938.55
390.61	1006.43
390.81	1020.47
391.00	987.71
391.19	978.34
391.39	954.94
391.58	990.05
391.78	931.53
391.97	1057.92
392.16	1011.11
392.36	1053.24
392.55	1018.13
392.75	1088.35
392.94	1128.14
393.13	994.73
393.33	1046.22
393.52	1011.11
393.71	1039.20
393.91	1048.56
394.10	1057.92
394.29	1128.14
394.49	1074.31
394.68	1090.69
394.88	1097.71
395.07	1128.14
395.26	1130.48
395.46	1111.75
395.65	1174.95
395.84	1156.22
396.04	1174.95
396.23	1153.88
396.42	1205.38
396.62	1174.95
396.81	1158.57
397.00	1254.53
397.19	1299.00
397.39	1254.53
397.58	1245.16
397.77	1301.34
397.97	1259.21
398.16	1240.48
398.35	1355.17
398.55	1188.99
398.74	1254.53
398.93	1317.72
399.12	1245.16
399.32	1268.57
399.51	1275.59
399.70	1430.07
399.90	1345.81
400.09	1362.19
400.28	1371.55
400.47	1453.47
400.67	1409.00
400.86	1380.92
401.05	1331.76
401.24	1427.73
401.44	1423.05
401.63	1444.11
401.82	1474.54
402.01	1411.34
402.21	1387.94
402.40	1434.75
402.59	1523.69
402.78	1537.73
402.97	1497.94
403.17	1533.05
403.36	1551.78
403.55	1535.39
403.74	1614.97
403.93	1547.09
404.13	1572.84
404.32	1640.72
404.51	1638.38
404.70	1657.10
404.89	1556.46
405.09	1701.57
405.28	1743.70
405.47	1661.78
405.66	1715.61
405.85	1727.32
406.05	1661.78
406.24	1764.76
406.43	1727.32
406.62	1792.85
406.81	1874.77
407.00	1685.19
407.20	1923.92
407.39	1827.96
407.58	1856.04
407.77	1940.30
407.96	1853.70
408.15	2024.56
408.34	1884.13
408.54	1926.26
408.73	1966.05
408.92	1949.67
409.11	1884.13
409.30	1952.01
409.49	1935.62
409.68	2071.37
409.87	2080.74
410.07	1891.15
410.26	2101.80
410.45	2054.99
410.64	2052.65
410.83	2153.29
411.02	2045.63
411.21	2143.93
411.40	2076.06
411.59	2181.38
411.78	2134.57
411.98	2209.47
412.17	2162.66
412.36	2263.30
412.55	2359.26
412.74	2349.90
412.93	2317.13
413.12	2312.45
413.31	2520.76
413.50	2408.41
413.69	2422.45
413.88	2406.07
414.07	2485.65
414.26	2441.18
414.45	2558.21
414.64	2506.71
414.83	2459.90
415.02	2626.08
415.22	2539.48
415.41	2623.74
415.60	2602.68
415.79	2691.62
415.98	2698.64
416.17	2743.11
416.36	2663.53
416.55	2628.42
416.74	2780.56
416.93	2642.46
417.12	2841.41
417.31	2878.86
417.50	2895.24
417.69	2869.50
417.88	2935.03
418.07	2984.18
418.26	2967.80
418.45	2930.35
418.64	2977.16
418.83	3002.91
419.02	3108.23
419.21	3145.68
419.39	3143.34
419.58	3077.80
419.77	3119.93
419.96	3187.81
420.15	3215.90
420.34	3096.53
420.53	3173.77
420.72	3187.81
420.91	3180.79
421.10	3218.24
421.29	3255.69
421.48	3241.64
421.67	3178.45
421.86	3314.20
422.05	3243.98
422.24	3375.05
422.43	3501.44
422.61	3396.12
422.80	3473.36
422.99	3274.41
423.18	3412.50
423.37	3428.88
423.56	3419.52
423.75	3365.69
423.94	3323.56
424.13	3243.98
424.32	3220.58
424.50	3480.38
424.69	3466.33
424.88	3583.36
425.07	3529.53
425.26	3344.63
425.45	3496.76
425.64	3419.52
425.83	3379.73
426.01	3468.67
426.20	3513.14
426.39	3489.74
426.58	3475.70
426.77	3487.40
426.96	3463.99
427.15	3665.28
427.33	3517.83
427.52	3424.20
427.71	3651.24
427.90	3555.27
428.09	3630.17
428.28	3674.64
428.46	3639.53
428.65	3756.56
428.84	3695.71
429.03	3866.56
429.22	3618.47
429.40	3712.09
429.59	3777.62
429.78	3651.24
429.97	3627.83
430.16	3866.56
430.34	3845.50
430.53	3918.06
430.72	3929.76
430.91	3866.56
431.10	3955.51
431.28	3955.51
431.47	3999.98
431.66	4042.11
431.85	4042.11
432.03	3946.14
432.22	4081.89
432.41	4007.00
432.60	3974.23
432.79	4124.02
432.97	4077.21
433.16	4063.17
433.35	4063.17
433.54	4219.99
433.72	4100.62
433.91	4046.79
434.10	4248.07
434.28	4266.80
434.47	4236.37
434.66	4386.16
434.85	4287.86
435.03	4381.48
435.22	4355.74
435.41	4456.38
435.59	4388.50
435.78	4505.53
435.97	4404.89
436.16	4257.43
436.34	4416.59
436.53	4535.96
436.72	4484.47
436.90	4545.32
437.09	4351.06
437.28	4447.02
437.46	4521.92
437.65	4681.07
437.84	4521.92
438.02	4638.94
438.21	4709.16
438.40	4559.36
438.58	4676.39
438.77	4798.10
438.96	4699.80
439.14	4877.68
439.33	4908.10
439.52	4945.55
439.70	4828.53
439.89	5020.45
440.08	4968.96
440.26	5074.28
440.45	4894.06
440.63	5036.83
440.82	5214.71
441.01	5057.90
441.19	5177.26
441.38	5242.80
441.57	5266.21
441.75	5334.08
441.94	5385.57
442.12	5280.25
442.31	5345.78
442.50	5376.21
442.68	5406.64
442.87	5357.49
443.05	5282.59
443.24	5654.73
443.43	5472.17
443.61	5626.65
443.80	5694.52
443.98	5397.28
444.17	5357.49
444.35	5614.95
444.54	5593.88
444.73	5645.37
444.91	5591.54
445.10	5701.54
445.28	5596.22
445.47	5722.61
445.65	5621.97
445.84	5673.46
446.02	5675.80
446.21	5692.18
446.39	5650.05
446.58	5659.42
446.77	5652.39
446.95	5708.57
447.14	5713.25
447.32	5956.66
447.51	5668.78
447.69	5696.86
447.88	5703.89
448.06	5792.83
448.25	5792.83
448.43	5757.72
448.62	5837.30
448.80	5820.91
448.99	5902.83
449.17	6005.81
449.36	5804.53
449.54	6195.40
449.73	6069.01
449.91	6115.82
450.10	6083.05
450.28	6076.03
450.46	6157.95
450.65	6190.72
450.83	6040.92
451.02	6143.91
451.20	6010.50
451.39	6050.28
451.57	6249.23
451.76	6143.91
451.94	6218.80
452.13	6387.32
452.31	6422.43
452.49	6097.10
452.68	6527.75
452.86	6333.49
453.05	6340.51
453.23	6345.19
453.42	6211.78
453.60	6171.99
453.78	6574.56
453.97	6312.42
454.15	6581.59
454.34	6478.60
454.52	6738.40
454.70	6600.31
454.89	6630.74
455.07	6572.22
455.26	6663.51
455.44	6612.01
455.62	6808.62
455.81	6548.82
455.99	6689.25
456.17	6717.34
456.36	6841.39
456.54	6913.94
456.73	6883.52
456.91	7016.93
457.09	6935.01
457.28	7131.61
457.46	7052.03
457.64	7070.76
457.83	6867.13
458.01	7042.67
458.19	7197.15
458.38	7187.79
458.56	7145.66
458.74	7307.15
458.93	7145.66
459.11	7283.75
459.29	7246.30
459.48	7096.50
459.66	7192.47
459.84	7377.37
460.03	7541.21
460.21	7286.09
460.39	7461.63
460.57	7370.35
460.76	7637.17
460.94	7480.35
461.12	7545.89
461.31	7576.31
461.49	7382.05
461.67	7452.27
461.85	7789.30
462.04	7571.63
462.22	8205.92
462.40	7625.47
462.59	7674.62
462.77	7620.78
462.95	7864.20
463.13	7810.37
463.32	7707.38
463.50	7749.51
463.68	7899.31
463.86	8009.31
464.05	7903.99
464.23	8030.38
464.41	7847.82
464.59	7901.65
464.78	8238.69
464.96	7950.80
465.14	7817.39
465.32	8105.28
465.50	7976.55
465.69	8168.47
465.87	8226.98
466.05	7992.93
466.23	8205.92
466.41	8273.79
466.60	8393.16
466.78	8168.47
466.96	8245.71
467.14	8203.58
467.32	8294.86
467.51	8386.14
467.69	8133.36
467.87	8299.54
468.05	8393.16
468.23	8381.46
468.41	8393.16
468.60	8376.78
468.78	8348.69
468.96	8393.16
469.14	8552.32
469.32	8748.92
469.50	8547.64
469.69	8685.73
469.87	8849.57
470.05	8702.11
470.23	8915.10
470.41	8891.70
470.59	8999.36
470.77	8826.16
470.95	8704.45
471.14	8959.57
471.32	8870.63
471.50	9015.74
471.68	9088.30
471.86	9160.86
472.04	9074.26
472.22	9188.94
472.40	9135.11
472.58	9287.25
472.77	9437.04
472.95	9394.91
473.13	9870.04
473.31	9327.03
473.49	9383.21
473.67	9453.42
473.85	9362.14
474.03	9610.24
474.21	9844.29
474.39	9757.69
474.57	9823.23
474.75	9795.14
474.93	9966.00
475.12	9837.27
475.30	9867.70
475.48	9797.48
475.66	10097.07
475.84	10195.37
476.02	10197.71
476.20	10214.10
476.38	10391.98
476.56	10691.57
476.74	10541.77
476.92	10354.53
477.10	10527.73
477.28	10782.85
477.46	10478.58
477.64	10750.08
477.82	10944.34
478.00	11339.90
478.18	11232.23
478.36	11265.00
478.54	11288.40
478.72	11314.15
478.90	11503.73
479.08	11690.98
479.26	11660.55
479.44	11494.37
479.62	11618.42
479.80	11665.23
479.98	11836.09
480.16	12215.26
480.34	12077.16
480.52	12283.13
480.70	12358.03
480.88	12074.82
481.06	12318.24
481.24	12414.20
481.41	12404.84
481.59	12571.02
481.77	12648.26
481.95	12840.18
482.13	13074.23
482.31	12929.12
482.49	13184.24
482.67	13291.90
482.85	13518.93
483.03	13626.60
483.21	13547.02
483.39	13855.97
483.57	13675.75
483.74	13949.59
483.92	14071.30
484.10	13958.96
484.28	14462.17
484.46	14356.85
484.64	14520.68
484.82	14305.35
485.00	14766.44
485.18	14951.34
485.35	15215.82
485.53	14972.41
485.71	15143.27
485.89	15325.83
486.07	15311.78
486.25	15475.62
486.43	15665.21
486.61	15538.82
486.78	15756.49
486.96	15817.34
487.14	16245.66
487.32	16009.26
487.50	16306.51
487.68	16453.97
487.85	16774.62
488.03	16849.52
488.21	16788.66
488.39	16982.93
488.57	17427.63
488.75	17254.43
488.92	17483.80
489.10	17635.94
489.28	17715.51
489.46	17708.49
489.64	17750.62
489.81	18099.36
489.99	18267.88
490.17	18352.14
490.35	18204.69
490.53	18532.36
490.70	18525.34
490.88	18813.23
491.06	18780.46
491.24	18838.97
491.41	19066.00
491.59	19075.37
491.77	19358.57
491.95	19269.63
492.13	19461.55
492.30	19697.95
492.48	19566.88
492.66	19719.01
492.84	20091.16
493.01	20130.95
493.19	20219.89
493.37	20077.12
493.54	20339.26
493.72	20767.57
493.90	20669.27
494.08	20769.91
494.25	21029.71
494.43	21092.91
494.61	21488.46
494.79	21390.16
494.96	21495.48
495.14	21415.90
495.32	21671.02
495.49	21755.28
495.67	21722.51
495.85	22089.98
496.02	22001.04
496.20	22331.05
496.38	22494.89
496.55	22085.30
496.73	23065.98
496.91	22476.16
497.09	22534.68
497.26	22838.95
497.44	22775.75
497.62	22925.55
497.79	23613.66
497.97	23288.33
498.14	23616.01
498.32	23477.91
498.50	23676.86
498.67	23946.02
498.85	24037.30
499.03	24049.00
499.20	24203.48
499.38	23929.64
499.56	24744.14
499.73	24250.29
499.91	24339.23
500.08	24814.36
500.26	24638.82
500.44	25029.69
500.61	25006.28
500.79	24767.55
500.97	25130.33
501.14	25209.91
501.32	25198.21
501.49	25055.43
501.67	25376.09
501.84	25790.36
502.02	25710.78
502.20	25605.46
502.37	25560.99
502.55	25565.67
502.72	25900.37
502.90	26031.44
503.07	25961.22
503.25	26005.69
503.43	25986.97
503.60	26405.92
503.78	26764.03
503.95	26333.37
504.13	26600.19
504.30	26995.74
504.48	26845.94
504.65	27211.07
504.83	27201.71
505.01	27269.58
505.18	26841.26
505.36	27234.47
505.53	27014.46
505.71	27253.20
505.88	27653.43
506.06	27501.29
506.23	27353.84
506.41	27658.11
506.58	27807.90
506.76	27875.78
506.93	27938.97
507.11	27711.94
507.28	27924.93
507.46	28252.61
507.63	28496.02
507.81	28477.30
507.98	28100.47
508.16	28589.64
508.33	28718.37
508.50	28650.50
508.68	28664.54
508.85	28847.10
509.03	28453.89
509.20	29029.66
509.38	29261.38
509.55	29322.23
509.73	29572.67
509.90	29488.41
510.08	29575.01
510.25	29490.75
510.42	29811.40
510.60	29539.90
510.77	30022.05
510.95	30183.55
511.12	29846.51
511.30	30103.97
511.47	30316.96
511.64	30249.08
511.82	30281.85
511.99	30228.02
512.17	30506.54
512.34	30583.78
512.51	30930.18
512.69	30972.31
512.86	30778.04
513.04	30953.58
513.21	31082.31
513.38	30979.33
513.56	31381.90
513.73	30546.33
513.90	31232.11
514.08	31136.15
514.25	31608.93
514.43	31412.33
514.60	31379.56
514.77	31482.55
514.95	32133.21
515.12	31328.07
515.29	31622.98
515.47	32196.41
515.64	32011.51
515.81	31910.86
515.99	32123.85
516.16	32613.02
516.33	32287.69
516.51	32435.14
516.68	32503.02
516.85	32500.68
517.03	32727.71
517.20	32577.92
517.37	32790.91
517.54	32835.38
517.72	33350.29
517.89	33244.97
518.06	33156.03
518.24	33230.93
518.41	33024.96
518.58	33160.71
518.75	33399.44
518.93	33455.62
519.10	33408.81
519.27	33392.42
519.45	33406.47
519.62	33769.25
519.79	33982.24
519.96	33373.70
520.14	34000.96
520.31	33647.54
520.48	34153.10
520.65	33961.17
520.83	34541.63
521.00	34387.15
521.17	34445.66
521.34	34487.79
521.52	34726.53
521.69	34712.49
521.86	34665.67
522.03	34726.53
522.20	35082.29
522.38	34881.00
522.55	35077.61
522.72	34897.39
522.89	35239.11
523.07	35196.98
523.24	35229.74
523.41	35653.38
523.58	34995.69
523.75	35590.19
523.92	35796.15
524.10	35880.41
524.27	35828.92
524.44	35519.97
524.61	36165.96
524.78	35768.07
524.96	35915.52
525.13	35924.88
525.30	36472.57
525.47	36437.46
525.64	36355.54
525.81	36233.83
525.98	36439.80
526.16	36142.55
526.33	36636.41
526.50	36488.95
526.67	36610.66
526.84	36507.68
527.01	36559.17
527.18	36774.50
527.36	36968.76
527.53	36683.22
527.70	37277.71
527.87	36786.20
528.04	36886.84
528.21	37198.13
528.38	37092.81
528.55	37333.89
528.72	37104.51
528.89	37104.51
529.07	37251.97
529.24	37324.52
529.41	37820.72
529.58	37249.63
529.75	37294.10
529.92	37666.24
530.09	37708.37
530.26	37860.51
530.43	37968.17
530.60	37244.94
530.77	37591.34
530.94	38249.03
531.11	37631.13
531.28	37663.90
531.46	38024.34
531.63	38007.96
531.80	38061.79
531.97	38396.49
532.14	38337.98
532.31	38373.08
532.48	38403.51
532.65	38909.07
532.82	38422.23
532.99	38536.92
533.16	38197.54
533.33	38976.94
533.50	39021.41
533.67	38731.18
533.84	38342.66
534.01	38885.66
534.18	39208.65
534.35	39075.24
534.52	39407.60
534.69	39187.59
534.86	39559.73
535.03	39358.45
535.20	39164.18
535.37	39615.91
535.54	39707.19
535.71	39732.93
535.88	39143.12
536.05	40037.20
536.22	40147.21
536.38	39859.32
536.55	39321.00
536.72	39367.81
536.89	39557.39
537.06	39770.38
537.23	40383.60
537.40	39791.45
537.57	39646.33
537.74	39854.64
537.91	39943.58
538.08	40357.86
538.25	40086.36
538.42	40222.11
538.59	40704.26
538.75	40046.57
538.92	40575.53
539.09	40456.16
539.26	40996.82
539.43	40769.79
539.60	40835.33
539.77	40509.99
539.94	40921.93
540.11	40671.49
540.28	40849.37
540.44	40844.69
540.61	40835.33
540.78	40765.11
540.95	40631.70
541.12	40414.03
541.29	40657.45
541.46	41071.72
541.62	41397.06
541.79	41270.67
541.96	40847.03
542.13	41422.80
542.30	41265.99
542.47	41366.63
542.63	41525.78
542.80	41600.68
542.97	41944.74
543.14	42153.05
543.31	41979.85
543.48	41958.78
543.64	42146.03
543.81	42377.74
543.98	41806.65
544.15	41916.65
544.32	42183.48
544.48	42916.06
544.65	42326.25
544.82	42298.16
544.99	42359.02
545.16	42356.67
545.32	42178.79
545.49	42419.87
545.66	42883.30
545.83	42789.67
546.00	42904.36
546.16	42473.70
546.33	42394.12
546.50	42220.92
546.67	42857.55
546.83	42452.64
547.00	42705.41
547.17	42958.19
547.34	42471.36
547.50	42883.30
547.67	43365.45
547.84	42773.29
548.00	43210.97
548.17	43208.63
548.34	43484.81
548.51	43510.56
548.67	43372.47
548.84	43152.46
549.01	42747.54
549.18	43112.67
549.34	43391.19
549.51	43524.60
549.68	43435.66
549.84	43969.30
550.01	43590.14
550.18	43665.03
550.34	43625.25
550.51	44102.71
550.68	44128.46
550.84	43323.32
551.01	44095.69
551.18	43428.64
551.34	43833.55
551.51	43847.60
551.68	43908.45
551.84	43957.60
552.01	44093.35
552.18	43981.01
552.34	43585.46
552.51	44252.51
552.68	43580.78
552.84	43978.67
553.01	44404.64
553.18	43845.26
553.34	44491.24
553.51	43952.92
553.67	43913.13
553.84	44598.91
554.01	44231.44
554.17	44591.89
554.34	44641.04
554.51	44100.37
554.67	44856.37
554.84	44545.08
555.00	44568.48
555.17	43976.33
555.33	44980.42
555.50	44577.84
555.67	44210.38
555.83	44713.59
556.00	44968.71
556.16	45242.56
556.33	45043.61
556.50	45001.48
556.66	45015.52
556.83	44617.63
556.99	45186.38
557.16	45530.44
557.32	45230.85
557.49	45457.88
557.65	45247.24
557.82	45134.89
557.98	45411.07
558.15	45443.84
558.32	45099.78
558.48	45179.36
558.65	45361.92
558.81	45191.06
558.98	44884.45
559.14	45111.49
559.31	44933.60
559.47	45333.84
559.64	45036.59
559.80	45432.14
559.97	45780.88
560.13	45027.23
560.30	45556.19
560.46	45811.31
560.63	45867.48
560.79	46038.34
560.96	46195.15
561.12	45808.96
561.29	45593.64
561.45	46124.94
561.61	45673.21
561.78	45893.22
561.94	45511.72
562.11	46028.98
562.27	45418.10
562.44	45677.90
562.60	46092.17
562.77	45806.62
562.93	45872.16
563.10	45979.82
563.26	45595.98
563.42	46026.63
563.59	45750.45
563.75	45738.75
563.92	45851.09
564.08	46146.00
564.24	45769.18
564.41	46213.88
564.57	45897.91
564.74	46068.76
564.90	45705.98
565.07	46153.02
565.23	46246.65
565.39	46450.27
565.56	46234.94
565.72	46101.53
565.88	45947.06
566.05	45940.04
566.21	46293.46
566.38	46356.65
566.54	46220.90
566.70	46167.07
566.87	46277.07
567.03	45986.85
567.19	46127.28
567.36	46508.79
567.52	46431.55
567.68	46700.71
567.85	46625.81
568.01	46714.75
568.17	46387.08
568.34	46347.29
568.50	46265.37
568.66	46298.14
568.83	46693.69
568.99	46068.76
569.15	46160.05
569.32	46583.68
569.48	45977.48
569.64	46728.80
569.81	46504.10
569.97	46677.30
570.13	46941.78
570.30	46637.51
570.46	46274.73
570.62	46873.91
570.78	46677.30
570.95	46569.64
571.11	46731.14
571.27	46520.49
571.43	46569.64
571.60	46588.36
571.76	46773.27
571.92	46609.43
572.09	46405.80
572.25	46258.35
572.41	47056.47
572.57	46913.70
572.74	47374.78
572.90	46993.28
573.06	47126.69
573.22	47086.90
573.38	47091.58
573.55	46890.29
573.71	46967.53
573.87	47100.94
574.03	46740.50
574.20	47079.88
574.36	46644.54
574.52	47192.22
574.68	46958.17
574.84	46873.91
575.01	46962.85
575.17	47091.58
575.33	46995.62
575.49	46761.56
575.65	47063.49
575.82	46958.17
575.98	46948.81
576.14	47332.65
576.30	46997.96
576.46	47098.60
576.62	46738.16
576.79	47332.65
576.95	46887.95
577.11	47147.75
577.27	47145.41
577.43	47077.54
577.59	47051.79
577.75	47033.07
577.92	46586.02
578.08	47187.54
578.24	47122.01
578.40	47533.94
578.56	47246.05
578.72	46838.80
578.88	46925.40
579.04	47070.51
579.21	46988.60
579.37	47168.82
579.53	47400.53
579.69	47037.75
579.85	47063.49
580.01	47351.38
580.17	46890.29
580.33	47192.22
580.49	46983.91
580.65	47070.51
580.82	46880.93
580.98	47009.66
581.14	47337.33
581.30	47440.32
581.46	47234.35
581.62	46969.87
581.78	47246.05
581.94	47442.66
582.10	46674.96
582.26	47173.50
582.42	47374.78
582.58	47304.57
582.74	47250.74
582.90	47103.28
583.06	47342.02
583.22	47342.02
583.38	47412.23
583.54	47601.82
583.70	47587.77
583.86	47459.04
584.02	47042.43
584.18	47496.49
584.34	47480.11
584.50	47693.10
584.66	47716.50
584.82	47304.57
584.98	47585.43
585.14	47388.83
585.30	47643.94
585.46	47339.68
585.62	46794.33
585.78	47625.22
585.94	47250.74
586.10	47643.94
586.26	47241.37
586.42	47070.51
586.58	47405.21
586.74	47285.84
586.90	47248.39
587.06	47124.35
587.22	47547.98
587.38	47381.80
587.54	47194.56
587.70	47515.22
587.86	47988.00
588.02	46904.34
588.18	47470.75
588.34	47367.76
588.49	47562.03
588.65	47611.18
588.81	47334.99
588.97	47812.46
589.13	47126.69
589.29	47381.80
589.45	47833.53
589.61	47732.89
589.77	47690.76
589.93	47887.36
590.08	47828.85
590.24	48044.18
590.40	48163.54
590.56	47777.36
590.72	47765.65
590.88	47489.47
591.04	47814.80
591.20	47618.20
591.35	48062.90
591.51	48102.69
591.67	47821.83
591.83	48411.64
591.99	47749.27
592.15	47882.68
592.31	47779.70
592.46	47742.25
592.62	47566.71
592.78	48034.81
592.94	47995.03
593.10	48271.21
593.26	48582.50
593.41	48353.13
593.57	47908.43
593.73	48243.12
593.89	48175.25
594.05	48095.67
594.20	47922.47
594.36	48016.09
594.52	48119.07
594.68	48573.14
594.84	47810.12
594.99	48498.24
595.15	47648.63
595.31	48364.83
595.47	48072.26
595.62	48303.98
595.78	48135.46
595.94	48025.45
596.10	47859.27
596.25	48011.41
596.41	48285.25
596.57	48409.30
596.73	48444.41
596.88	48184.61
597.04	48261.85
597.20	48109.71
597.36	48247.80
597.51	48399.94
597.67	48421.00
597.83	48009.07
597.99	47997.37
598.14	48282.91
598.30	48334.40
598.46	48119.07
598.61	48481.86
598.77	48048.86
598.93	47892.04
599.09	48250.14
599.24	48751.02
599.40	48278.23
599.56	48158.86
599.71	48573.14
599.87	48711.23
600.03	48587.18
600.18	48257.17
600.34	48278.23
600.50	48399.94
600.65	48004.39
600.81	48676.12
600.97	48523.99
601.12	48458.45
601.28	48542.71
601.44	48439.73
601.59	47791.40
601.75	48243.12
601.91	48259.51
602.06	48175.25
602.22	48301.64
602.37	48568.46
602.53	48748.68
602.69	48575.48
602.84	47983.32
603.00	48313.34
603.16	48523.99
603.31	48533.35
603.47	48446.75
603.62	48406.96
603.78	48608.25
603.94	48264.19
604.09	48200.99
604.25	48151.84
604.40	48212.70
604.56	48406.96
604.71	48371.85
604.87	48292.27
605.03	48154.18
605.18	48236.10
605.34	48222.06
605.49	48044.18
605.65	48163.54
605.80	47959.92
605.96	48109.71
606.12	48048.86
606.27	48549.73
606.43	48383.55
606.58	48449.09
606.74	48413.98
606.89	48088.65
607.05	48582.50
607.20	48343.77
607.36	48315.68
607.51	48371.85
607.67	48252.48
607.82	48116.73
607.98	47952.90
608.13	48093.33
608.29	48041.84
608.44	48079.28
608.60	47356.06
608.75	48406.96
608.91	47892.04
609.06	48278.23
609.22	48074.60
609.37	48224.40
609.53	48383.55
609.68	48147.16
609.84	48025.45
609.99	47973.96
610.15	47887.36
610.30	47622.88
610.46	48027.79
610.61	47782.04
610.76	47903.74
610.92	47856.93
611.07	47833.53
611.23	47690.76
611.38	48135.46
611.54	47964.60
611.69	47700.12
611.84	48193.97
612.00	47805.44
612.15	47657.99
612.31	48098.01
612.46	47428.62
612.62	47683.73
612.77	47845.23
612.92	48200.99
613.08	47351.38
613.23	47910.77
613.39	47746.93
613.54	47711.82
613.69	47702.46
613.85	47547.98
614.00	47702.46
614.15	47878.00
614.31	47739.91
614.46	47866.30
614.62	47313.93
614.77	47349.04
614.92	47749.27
615.08	47255.42
615.23	47356.06
615.38	47770.33
615.54	47370.10
615.69	47927.15
615.84	47320.95
616.00	47564.37
616.15	47716.50
616.30	47232.01
616.46	47391.17
616.61	47374.78
616.76	47594.79
616.92	47496.49
617.07	47908.43
617.22	47456.70
617.37	47206.26
617.53	47349.04
617.68	47477.77
617.83	47313.93
617.99	47789.06
618.14	47779.70
618.29	47555.00
618.45	46948.81
618.60	46920.72
618.75	46969.87
618.90	46997.96
619.06	47154.77
619.21	47077.54
619.36	47339.68
619.51	46965.19
619.67	46871.57
619.82	47021.36
619.97	47122.01
620.12	46742.84
620.28	47222.65
620.43	46969.87
620.58	46965.19
620.73	47119.66
620.89	46958.17
621.04	46997.96
621.19	46972.21
621.34	46740.50
621.49	46958.17
621.65	46621.13
621.80	47367.76
621.95	46827.10
622.10	46930.08
622.25	46815.40
622.41	46513.47
622.56	46286.43
622.71	47117.32
622.86	46436.23
623.01	46887.95
623.16	46745.18
623.32	46637.51
623.47	46827.10
623.62	46660.92
623.77	46593.04
623.92	46625.81
624.07	46487.72
624.23	46253.67
624.38	46597.73
624.53	46555.60
624.68	46087.49
624.83	46150.68
624.98	46637.51
625.13	46459.63
625.29	46103.87
625.44	46347.29
625.59	46515.81
625.74	46277.07
625.89	46426.87
626.04	46288.77
626.19	46431.55
626.34	46328.56
626.49	45977.48
626.65	45687.26
626.80	46014.93
626.95	45581.93
627.10	45577.25
627.25	45635.77
627.40	45848.75
627.55	46597.73
627.70	46326.22
627.85	45865.14
628.00	46279.41
628.15	46115.58
628.30	45750.45
628.45	45546.82
628.60	45308.09
628.76	45764.49
628.91	45825.35
629.06	45148.93
629.21	45567.89
629.36	45701.30
629.51	45680.24
629.66	45848.75
629.81	45572.57
629.96	45422.78
630.11	45408.73
630.26	45120.85
630.41	45469.59
630.56	45095.10
630.71	45600.66
630.86	45689.60
631.01	45219.15
631.16	44889.13
631.31	45141.91
631.46	44816.58
631.61	45420.44
631.76	45202.77
631.91	45413.41
632.06	45785.56
632.21	45745.77
632.36	45478.95
632.51	44896.16
632.66	45324.47
632.81	45085.74
632.96	45170.00
633.10	44732.32
633.25	45371.28
633.40	45162.98
633.55	45287.03
633.70	45043.61
633.85	45069.36
634.00	44531.03
634.15	44687.85
634.30	44877.43
634.45	45247.24
634.60	44989.78
634.75	45083.40
634.90	44858.71
635.05	44664.44
635.19	44725.30
635.34	44964.03
635.49	44849.35
635.64	45059.99
635.79	45022.54
635.94	44472.52
636.09	44905.52
636.24	44528.69
636.39	44545.08
636.53	44732.32
636.68	44404.64
636.83	44055.90
636.98	44320.38
637.13	43833.55
637.28	44463.16
637.43	44296.98
637.57	44133.14
637.72	44037.18
637.87	43765.68
638.02	44636.36
638.17	44341.45
638.32	43938.88
638.46	44083.99
638.61	43585.46
638.76	43868.66
638.91	43924.83
639.06	43786.74
639.20	43828.87
639.35	43751.63
639.50	43945.90
639.65	44069.95
639.80	44327.41
639.94	44196.34
640.09	43990.37
640.24	44278.25
640.39	43435.66
640.54	43557.37
640.68	43927.17
640.83	44069.95
640.98	43721.21
641.13	43707.16
641.27	44074.63
641.42	43487.15
641.57	43978.67
641.72	43583.12
641.86	43466.09
642.01	43292.89
642.16	43777.38
642.31	43047.13
642.45	43515.24
642.60	43606.52
642.75	43297.57
642.90	43393.53
643.04	43466.09
643.19	43005.00
643.34	43538.65
643.48	42656.26
643.63	43086.92
643.78	43105.65
643.93	43676.74
644.07	43782.06
644.22	43510.56
644.37	42892.66
644.51	43548.01
644.66	43026.07
644.81	42937.13
644.95	42960.53
645.10	43166.50
645.25	42862.23
645.39	42794.36
645.54	42993.30
645.69	42796.70
645.83	42735.84
645.98	43229.69
646.13	42562.64
646.27	43068.20
646.42	42843.51
646.57	42831.80
646.71	42988.62
646.86	43129.05
647.00	42738.18
647.15	42787.33
647.30	43222.67
647.44	42656.26
647.59	42611.79
647.74	42773.29
647.88	43042.45
648.03	42733.50
648.17	43435.66
648.32	42866.91
648.47	42899.68
648.61	42316.89
648.76	42450.30
648.90	42497.11
649.05	42445.62
649.20	42286.46
649.34	42225.60
649.49	42274.76
649.63	42494.77
649.78	42061.77
649.92	42799.04
650.07	42813.08
650.21	42878.61
650.36	42883.30
650.51	42356.67
650.65	42799.04
650.80	42770.95
650.94	42036.02
651.09	42127.30
651.23	41720.05
651.38	41867.50
651.52	41607.70
651.67	42050.06
651.81	41958.78
651.96	41965.81
652.10	41804.31
652.25	41549.19
652.39	41895.59
652.54	41673.24
652.68	41228.54
652.83	42045.38
652.97	41766.86
653.12	41642.81
653.26	41640.47
653.41	41907.29
653.55	41996.23
653.70	41837.08
653.84	41736.43
653.99	41607.70
654.13	41736.43
654.27	41406.42
654.42	41778.56
654.56	41432.16
654.71	41453.23
654.85	41666.22
655.00	41556.21
655.14	41347.90
655.29	41574.94
655.43	41158.32
655.57	41497.70
655.72	41144.28
655.86	41125.55
656.01	40996.82
656.15	41422.80
656.30	41450.89
656.44	41579.62
656.58	41347.90
656.73	41265.99
656.87	41371.31
657.01	40645.74
657.16	40683.19
657.30	41134.92
657.45	41076.40
657.59	40589.57
657.73	40554.46
657.88	41001.50
658.02	40753.41
658.16	41090.44
658.31	40807.24
658.45	40538.08
658.60	40690.21
658.74	40945.33
658.88	40793.20
659.03	40680.85
659.17	40439.78
659.31	40299.34
659.46	40481.91
659.60	40669.15
659.74	39936.56
659.89	40009.12
660.03	40133.17
660.17	40390.62
660.32	39943.58
660.46	40374.24
660.60	39798.47
660.74	40041.88
660.89	39800.81
661.03	40158.91
661.17	39763.36
661.32	39669.74
661.46	39587.82
661.60	39634.63
661.74	39599.52
661.89	39482.50
662.03	39491.86
662.17	39512.92
662.31	39372.49
662.46	39665.06
662.60	39330.36
662.74	39271.85
662.88	39306.96
663.03	39166.52
663.17	38693.74
663.31	38829.49
663.45	38918.43
663.60	39522.29
663.74	39302.28
663.88	38607.14
664.02	38749.91
664.17	39316.32
664.31	38628.20
664.45	38216.27
664.59	39014.39
664.73	38459.68
664.88	38452.66
665.02	38206.90
665.16	38466.70
665.30	38209.25
665.44	38293.50
665.59	38153.07
665.73	37809.01
665.87	37900.29
666.01	37801.99
666.15	38185.84
666.29	38178.82
666.44	38117.96
666.58	38003.28
666.72	37734.12
666.86	37736.46
667.00	37907.32
667.14	37687.31
667.28	37340.91
667.43	37734.12
667.57	37947.11
667.71	37652.20
667.85	37301.12
667.99	37273.03
668.13	36884.50
668.27	36809.61
668.41	37036.64
668.56	36542.78
668.70	36903.23
668.84	36837.69
668.98	36692.58
669.12	36966.42
669.26	36500.65
669.40	36840.03
669.54	36446.82
669.68	36952.38
669.82	36627.04
669.96	35974.03
670.10	36432.78
670.25	36170.64
670.39	36034.89
670.53	36463.21
670.67	36030.21
670.81	36294.69
670.95	36306.39
671.09	35959.99
671.23	35627.63
671.37	36030.21
671.51	35775.09
671.65	35861.69
671.79	35819.56
671.93	35634.66
672.07	35611.25
672.21	35409.96
672.35	35384.22
672.49	35498.91
672.63	35653.38
672.77	34675.04
672.91	35484.86
673.05	34705.46
673.19	34768.66
673.33	35115.06
673.47	34892.71
673.61	34778.02
673.75	34338.00
673.89	34553.33
674.03	34763.98
674.17	33961.17
674.31	34281.83
674.45	33610.09
674.59	33860.53
674.73	34015.01
674.87	34040.75
675.01	33401.79
675.15	33869.89
675.29	33259.01
675.43	33212.20
675.56	33177.09
675.70	33663.93
675.84	33212.20
675.98	32524.08
676.12	33062.41
676.26	33420.51
676.40	32849.42
676.54	32472.59
676.68	32692.60
676.82	32273.65
676.96	32835.38
677.10	32868.14
677.23	32762.82
677.37	32500.68
677.51	32414.08
677.65	32198.75
677.79	31901.50
677.93	32133.21
678.07	31613.62
678.21	31922.57
678.34	31400.63
678.48	31372.54
678.62	31686.17
678.76	31311.69
678.90	31164.23
679.04	31323.39
679.18	31543.40
679.31	31328.07
679.45	30897.41
679.59	30869.33
679.73	30742.94
679.87	30728.89
680.00	30693.79
680.14	30623.57
680.28	30892.73
680.42	30555.69
680.56	30115.67
680.70	30221.00
680.83	30141.42
680.97	29532.88
681.11	30321.64
681.25	29626.50
681.39	29160.73
681.52	29666.29
681.66	29060.09
681.80	28952.43
681.94	29137.33
682.07	29132.65
682.21	28856.46
682.35	28676.24
682.49	28858.81
682.62	28414.10
682.76	28678.58
682.90	28474.96
683.04	28081.75
683.17	28561.56
683.31	28079.41
683.45	28205.80
683.59	27498.95
683.72	27318.73
683.86	27672.15
684.00	27513.00
684.13	27676.83
684.27	27527.04
684.41	27541.08
684.55	27407.67
684.68	27325.75
684.82	27009.78
684.96	27138.51
685.09	27316.39
685.23	26867.01
685.37	27552.79
685.50	27187.66
685.64	27154.90
685.78	26506.57
685.91	26625.93
686.05	26031.44
686.19	25818.45
686.32	26375.50
686.46	25518.86
686.60	25252.04
686.73	25813.77
686.87	25811.43
687.01	26082.93
687.14	25916.75
687.28	25722.49
687.42	25450.99
687.55	25364.39
687.69	25357.36
687.82	24992.24
687.96	24987.56
688.10	24706.70
688.23	25123.31
688.37	24900.96
688.50	25076.50
688.64	24769.89
688.78	24594.35
688.91	24388.38
689.05	24198.80
689.18	24056.03
689.32	23531.75
689.46	23672.18
689.59	23840.70
689.73	24400.08
689.86	24318.17
690.00	23798.57
690.13	23836.02
690.27	23386.63
690.41	23541.11
690.54	23157.26
690.68	23140.88
690.81	22789.80
690.95	22850.65
691.08	22890.44
691.22	22473.82
691.35	22628.30
691.49	22780.43
691.62	22878.74
691.76	22235.09
691.89	22539.36
692.03	21867.63
692.16	22022.10
692.30	22010.40
692.43	21954.22
692.57	21441.65
692.70	21816.13
692.84	21640.59
692.97	21371.43
693.11	21284.83
693.24	21025.03
693.38	21062.48
693.51	21085.89
693.65	21223.98
693.78	20851.83
693.92	20840.13
694.05	20821.41
694.19	20678.63
694.32	20503.09
694.45	20893.96
694.59	20638.84
694.72	20589.69
694.86	20451.60
694.99	20343.94
695.13	20140.31
695.26	19873.49
695.39	19878.17
695.53	19737.74
695.66	19915.62
695.80	19709.65
695.93	19463.90
696.07	19353.89
696.20	19164.31
696.33	19213.46
696.47	19068.34
696.60	18967.70
696.73	19037.92
696.87	19115.16
697.00	19250.91
697.14	18981.74
697.27	18707.90
697.40	18551.09
697.54	18483.21
697.67	18602.58
697.80	18387.25
697.94	18281.92
698.07	18190.64
698.21	18047.87
698.34	18197.67
698.47	17891.06
698.61	17827.86
698.74	17823.18
698.87	17596.15
699.01	17329.33
699.14	17741.26
699.27	17542.32
699.40	17231.02
699.54	17181.87
699.67	17680.41
699.80	17057.82
699.94	16786.32
700.07	16936.12
700.20	16711.42
700.34	16886.97
700.47	16716.11
700.60	16783.98
700.73	17048.46
700.87	16472.69
701.00	16255.02
701.13	16105.23
701.26	16262.04
701.40	16271.40
701.53	15990.54
701.66	15917.98
701.79	15840.75
701.93	15653.50
702.06	15403.07
702.19	15396.04
702.32	15571.58
702.46	15524.77
702.59	15492.01
702.72	15735.42
702.85	15260.29
702.99	15524.77
703.12	15279.02
703.25	15122.20
703.38	15096.46
703.51	14977.09
703.65	14773.46
703.78	14637.71
703.91	14684.52
704.04	14616.65
704.17	14539.41
704.31	14822.61
704.44	14207.05
704.57	14457.49
704.70	14368.55
704.83	14356.85
704.96	14153.22
705.10	14200.03
705.23	13752.99
>>>>>End Processed Spectral Data<<<<<
