SpectraSuite Data File
++++++++++++++++++++++++++++++++++++
Date: Fri Oct 25 11:34:45 EDT 2013
User: price-jones
Dark Spectrum Present: No
Reference Spectrum Present: No
Number of Sampled Component Spectra: 1
Spectrometers: USB2+H05261
Integration Time (usec): 100000 (USB2+H05261)
Spectra Averaged: 1 (USB2+H05261)
Boxcar Smoothing: 0 (USB2+H05261)
Correct for Electrical Dark: No (USB2+H05261)
Strobe/Lamp Enabled: No (USB2+H05261)
Correct for Detector Non-linearity: No (USB2+H05261)
Correct for Stray Light: No (USB2+H05261)
Number of Pixels in Processed Spectrum: 2048
>>>>>Begin Processed Spectral Data<<<<<
365.73	262.14
365.92	262.14
366.12	262.14
366.32	182.56
366.52	212.99
366.72	170.86
366.91	124.05
367.11	173.20
367.31	175.54
367.51	191.92
367.70	152.13
367.90	236.39
368.10	170.86
368.30	175.54
368.49	227.03
368.69	79.58
368.89	189.58
369.09	175.54
369.28	276.18
369.48	159.16
369.68	198.95
369.87	271.50
370.07	294.91
370.27	287.89
370.47	287.89
370.66	507.90
370.86	409.59
371.06	573.43
371.25	578.11
371.45	526.62
371.65	561.73
371.84	599.18
372.04	566.41
372.24	603.86
372.44	578.11
372.63	596.84
372.83	533.64
373.03	505.56
373.22	533.64
373.42	676.41
373.62	603.86
373.81	648.33
374.01	578.11
374.21	638.97
374.40	582.79
374.60	671.73
374.79	608.54
374.99	664.71
375.19	610.88
375.38	674.07
375.58	704.50
375.78	599.18
375.97	655.35
376.17	624.92
376.37	667.05
376.56	650.67
376.76	641.31
376.95	699.82
377.15	648.33
377.35	638.97
377.54	606.20
377.74	657.69
377.93	624.92
378.13	709.18
378.33	706.84
378.52	645.99
378.72	723.23
378.91	657.69
379.11	720.88
379.31	746.63
379.50	685.78
379.70	793.44
379.89	751.31
380.09	711.52
380.28	741.95
380.48	772.38
380.68	758.33
380.87	774.72
381.07	723.23
381.26	709.18
381.46	755.99
381.65	840.25
381.85	788.76
382.04	711.52
382.24	786.42
382.43	751.31
382.63	772.38
382.83	760.67
383.02	732.59
383.22	814.51
383.41	812.17
383.61	793.44
383.80	828.55
384.00	791.10
384.19	802.80
384.39	767.70
384.58	746.63
384.78	830.89
384.97	807.48
385.17	795.78
385.36	751.31
385.56	861.32
385.75	730.25
385.95	828.55
386.14	849.61
386.34	819.19
386.53	765.36
386.72	809.83
386.92	837.91
387.11	812.17
387.31	844.93
387.50	814.51
387.70	889.40
387.89	763.01
388.09	826.21
388.28	898.77
388.48	851.96
388.67	910.47
388.86	835.57
389.06	840.25
389.25	901.11
389.45	905.79
389.64	903.45
389.84	1004.09
390.03	870.68
390.22	912.81
390.42	940.90
390.61	931.53
390.81	877.70
391.00	940.90
391.19	947.92
391.39	1062.60
391.58	912.81
391.78	1011.11
391.97	943.24
392.16	938.55
392.36	1060.26
392.55	1029.84
392.75	973.66
392.94	1025.15
393.13	1100.05
393.33	1107.07
393.52	959.62
393.71	959.62
393.91	1027.50
394.10	1060.26
394.29	1018.13
394.49	1041.54
394.68	1097.71
394.88	1076.65
395.07	1139.84
395.26	1018.13
395.46	1064.94
395.65	1156.22
395.84	1158.57
396.04	1071.97
396.23	1210.06
396.42	1172.61
396.62	1186.65
396.81	1186.65
397.00	1153.88
397.19	1142.18
397.39	1191.33
397.58	1196.01
397.77	1116.44
397.97	1200.69
398.16	1177.29
398.35	1104.73
398.55	1104.73
398.74	1165.59
398.93	1193.67
399.12	1184.31
399.32	1299.00
399.51	1275.59
399.70	1289.64
399.90	1336.45
400.09	1310.70
400.28	1409.00
400.47	1277.93
400.67	1394.96
400.86	1371.55
401.05	1329.42
401.24	1343.47
401.44	1334.11
401.63	1420.71
401.82	1425.39
402.01	1406.66
402.21	1441.77
402.40	1509.65
402.59	1418.36
402.78	1427.73
402.97	1441.77
403.17	1411.34
403.36	1444.11
403.55	1453.47
403.74	1584.54
403.93	1502.62
404.13	1537.73
404.32	1446.45
404.51	1507.30
404.70	1636.03
404.89	1530.71
405.09	1621.99
405.28	1535.39
405.47	1547.09
405.66	1624.33
405.85	1668.80
406.05	1687.53
406.24	1617.31
406.43	1647.74
406.62	1717.95
406.81	1748.38
407.00	1767.10
407.20	1739.02
407.39	1629.01
407.58	1788.17
407.77	1746.04
407.96	1790.51
408.15	1774.13
408.34	1722.63
408.54	1898.17
408.73	1799.87
408.92	1893.49
409.11	1856.04
409.30	1912.22
409.49	1863.07
409.68	1900.52
409.87	1907.54
410.07	1940.30
410.26	1996.48
410.45	1954.35
410.64	1966.05
410.83	1865.41
411.02	2008.18
411.21	2066.69
411.40	2071.37
411.59	2066.69
411.78	2050.31
411.98	2064.35
412.17	2111.16
412.36	2244.57
412.55	2195.42
412.74	2225.85
412.93	2167.34
413.12	2232.87
413.31	2340.54
413.50	2260.96
413.69	2286.70
413.88	2242.23
414.07	2368.62
414.26	2387.35
414.45	2492.67
414.64	2434.16
414.83	2450.54
415.02	2466.92
415.22	2462.24
415.41	2462.24
415.60	2476.29
415.79	2499.69
415.98	2586.29
416.17	2640.12
416.36	2656.51
416.55	2586.29
416.74	2684.59
416.93	2689.28
417.12	2808.64
417.31	2768.85
417.50	2738.43
417.69	2761.83
417.88	2822.69
418.07	2712.68
418.26	2764.17
418.45	2864.82
418.64	2935.03
418.83	2862.48
419.02	2806.30
419.21	2939.71
419.39	2906.95
419.58	2977.16
419.77	2942.05
419.96	3016.95
420.15	2981.84
420.34	2836.73
420.53	2930.35
420.72	3030.99
420.91	2995.89
421.10	3094.19
421.29	3040.36
421.48	3049.72
421.67	3187.81
421.86	3108.23
422.05	3136.32
422.24	3171.43
422.43	3131.64
422.61	3159.72
422.80	3323.56
422.99	3110.57
423.18	3145.68
423.37	3300.16
423.56	3279.09
423.75	3262.71
423.94	3180.79
424.13	2963.12
424.32	3131.64
424.50	3290.79
424.69	3281.43
424.88	3377.39
425.07	3220.58
425.26	3159.72
425.45	3286.11
425.64	3272.07
425.83	3276.75
426.01	3335.26
426.20	3227.60
426.39	3346.97
426.58	3321.22
426.77	3194.83
426.96	3361.01
427.15	3424.20
427.33	3384.41
427.52	3351.65
427.71	3421.86
427.90	3342.28
428.09	3410.16
428.28	3426.54
428.46	3492.08
428.65	3485.06
428.84	3534.21
429.03	3576.34
429.22	3459.31
429.40	3571.66
429.59	3630.17
429.78	3499.10
429.97	3335.26
430.16	3496.76
430.34	3517.83
430.53	3651.24
430.72	3623.15
430.91	3740.18
431.10	3681.66
431.28	3794.01
431.47	3786.99
431.66	3726.13
431.85	3712.09
432.03	3946.14
432.22	3969.55
432.41	3911.04
432.60	3871.25
432.79	3791.67
432.97	3810.39
433.16	3955.51
433.35	3913.38
433.54	3873.59
433.72	4016.36
433.91	3969.55
434.10	3896.99
434.28	3864.22
434.47	4070.19
434.66	4109.98
434.85	4049.13
435.03	4201.26
435.22	4049.13
435.41	4210.62
435.59	4170.83
435.78	4217.65
435.97	4287.86
436.16	4091.26
436.34	4049.13
436.53	4201.26
436.72	4292.54
436.90	4276.16
437.09	4142.75
437.28	4248.07
437.46	4201.26
437.65	4332.33
437.84	4496.17
438.02	4369.78
438.21	4248.07
438.40	4177.86
438.58	4421.27
438.77	4479.79
438.96	4407.23
439.14	4638.94
439.33	4550.00
439.52	4484.47
439.70	4727.88
439.89	4592.13
440.08	4858.95
440.26	4713.84
440.45	4648.30
440.63	4875.34
440.82	4882.36
441.01	4760.65
441.19	4994.70
441.38	4964.28
441.57	4964.28
441.75	4994.70
441.94	4947.89
442.12	5050.88
442.31	5116.41
442.50	5050.88
442.68	5078.96
442.87	5039.17
443.05	5186.63
443.24	5203.01
443.43	5212.37
443.61	5364.51
443.80	5327.06
443.98	5076.62
444.17	5029.81
444.35	5291.95
444.54	5371.53
444.73	5322.38
444.91	5329.40
445.10	5394.93
445.28	5238.12
445.47	5280.25
445.65	5345.78
445.84	5355.15
446.02	5434.72
446.21	5338.76
446.39	5303.65
446.58	5350.46
446.77	5397.28
446.95	5465.15
447.14	5600.90
447.32	5476.85
447.51	5427.70
447.69	5507.28
447.88	5579.84
448.06	5486.22
448.25	5572.82
448.43	5455.79
448.62	5514.30
448.80	5486.22
448.99	5558.77
449.17	5551.75
449.36	5413.66
449.54	5657.07
449.73	5685.16
449.91	5596.22
450.10	5671.12
450.28	5760.06
450.46	5837.30
450.65	5701.54
450.83	5804.53
451.02	5937.94
451.20	5832.62
451.39	5701.54
451.57	5624.31
451.76	5736.65
451.94	5713.25
452.13	5951.98
452.31	6099.44
452.49	5966.03
452.68	5921.56
452.86	5909.85
453.05	5956.66
453.23	5963.68
453.42	6043.26
453.60	5902.83
453.78	6186.04
453.97	5984.75
454.15	5982.41
454.34	5996.45
454.52	6181.35
454.70	6263.27
454.89	6176.67
455.07	6267.95
455.26	6298.38
455.44	6354.55
455.62	6300.72
455.81	6307.74
455.99	6436.47
456.17	6359.24
456.36	6530.09
456.54	6450.52
456.73	6534.78
456.91	6731.38
457.09	6530.09
457.28	6626.06
457.46	6588.61
457.64	6839.05
457.83	6590.95
458.01	6525.41
458.19	6719.68
458.38	6827.34
458.56	6843.73
458.74	6883.52
458.93	6733.72
459.11	6822.66
459.29	6874.15
459.48	6878.83
459.66	7007.56
459.84	6810.96
460.03	7070.76
460.21	6974.80
460.39	6958.41
460.57	6998.20
460.76	7045.01
460.94	7061.40
461.12	7108.21
461.31	7115.23
461.49	7019.27
461.67	7012.24
461.85	7255.66
462.04	7215.87
462.22	7375.03
462.40	7335.24
462.59	7332.90
462.77	7332.90
462.95	7503.76
463.13	7456.95
463.32	7342.26
463.50	7489.71
463.68	7456.95
463.86	7691.00
464.05	7272.04
464.23	7365.67
464.41	7421.84
464.59	7351.62
464.78	7435.88
464.96	7520.14
465.14	7555.25
465.32	7583.34
465.50	7726.11
465.69	7688.66
465.87	7707.38
466.05	7606.74
466.23	7728.45
466.41	7864.20
466.60	7712.07
466.78	7864.20
466.96	7639.51
467.14	7801.01
467.32	7784.62
467.51	7925.05
467.69	7744.83
467.87	7833.77
468.05	8023.36
468.23	7793.98
468.41	7985.91
468.60	7953.14
468.78	7953.14
468.96	7962.50
469.14	7960.16
469.32	8070.17
469.50	7889.95
469.69	8126.34
469.87	8491.46
470.05	8402.52
470.23	8341.67
470.41	8599.13
470.59	8344.01
470.77	8163.79
470.95	8250.39
471.14	8482.10
471.32	8173.15
471.50	8458.70
471.68	8306.56
471.86	8514.87
472.04	8690.41
472.22	8819.14
472.40	8568.70
472.58	8505.51
472.77	8786.37
472.95	8875.31
473.13	9259.16
473.31	8987.66
473.49	9022.77
473.67	8964.25
473.85	9095.32
474.03	9263.84
474.21	9076.60
474.39	9104.68
474.57	9104.68
474.75	9121.07
474.93	9254.48
475.12	9364.48
475.30	9254.48
475.48	9448.74
475.66	9582.15
475.84	9535.34
476.02	9680.46
476.20	9694.50
476.38	9664.07
476.56	9928.55
476.74	9870.04
476.92	10003.45
477.10	9942.60
477.28	9958.98
477.46	10092.39
477.64	10340.49
477.82	10279.63
478.00	10394.32
478.18	10471.56
478.36	10520.71
478.54	10672.84
478.72	10796.89
478.90	10857.75
479.08	11033.29
479.26	11269.68
479.44	11136.27
479.62	11281.38
479.80	11190.10
479.98	11229.89
480.16	11751.83
480.34	11389.05
480.52	11566.93
480.70	11667.57
480.88	11255.64
481.06	11796.30
481.24	11817.36
481.41	11946.09
481.59	11810.34
481.77	12116.95
481.95	12116.95
482.13	11915.67
482.31	12133.34
482.49	12578.04
482.67	12702.09
482.85	12751.24
483.03	12606.13
483.21	12793.37
483.39	12961.89
483.57	13144.45
483.74	13046.15
483.92	13408.93
484.10	13200.62
484.28	13397.23
484.46	13785.76
484.64	13977.68
484.82	13729.58
485.00	13713.20
485.18	14017.47
485.35	13973.00
485.53	13933.21
485.71	14160.24
485.89	14445.79
486.07	14520.68
486.25	14569.83
486.43	14567.49
486.61	14810.91
486.78	14941.98
486.96	14714.95
487.14	15112.84
487.32	15159.65
487.50	15637.12
487.68	15426.47
487.85	15541.16
488.03	15800.96
488.21	15882.88
488.39	15697.97
488.57	16262.04
488.75	16135.65
488.92	16369.71
489.10	16524.18
489.28	16648.23
489.46	16554.61
489.64	16805.05
489.81	17142.08
489.99	17057.82
490.17	17315.28
490.35	17432.31
490.53	17406.56
490.70	17427.63
490.88	17378.48
491.06	17633.60
491.24	17682.75
491.41	17696.79
491.59	18078.30
491.77	18097.02
491.95	18256.18
492.13	18317.03
492.30	18490.23
492.48	18455.12
492.66	18794.50
492.84	18946.64
493.01	19056.64
493.19	18904.51
493.37	19030.90
493.54	19035.58
493.72	19023.87
493.90	19276.65
494.08	19601.99
494.25	19648.80
494.43	19981.15
494.61	19763.48
494.79	20233.93
494.96	19630.07
495.14	20226.91
495.32	20290.10
495.49	20367.34
495.67	20442.24
495.85	20840.13
496.02	20910.35
496.20	20938.43
496.38	21167.80
496.55	21228.66
496.73	21802.09
496.91	21287.17
497.09	21376.11
497.26	21394.84
497.44	21331.64
497.62	21635.91
497.79	21778.68
497.97	21680.38
498.14	22167.21
498.32	22239.77
498.50	22305.31
498.67	22813.20
498.85	22705.54
499.03	22478.50
499.20	22583.83
499.38	22857.67
499.56	22820.22
499.73	23063.64
499.91	23168.96
500.08	23290.67
500.26	23005.13
500.44	23035.55
500.61	23269.61
500.79	23175.98
500.97	23623.03
501.14	24411.79
501.32	23875.80
501.49	23728.35
501.67	23946.02
501.84	23814.95
502.02	24056.03
502.20	23726.01
502.37	24203.48
502.55	24166.03
502.72	24161.35
502.90	24247.95
503.07	24432.85
503.25	24456.26
503.43	24828.40
503.60	24402.43
503.78	25177.14
503.95	24819.04
504.13	24898.62
504.30	24847.13
504.48	24975.86
504.65	24809.68
504.83	25247.36
505.01	25481.41
505.18	25844.20
505.36	25546.95
505.53	25769.30
505.71	25614.82
505.88	25963.56
506.06	25453.33
506.23	25802.07
506.41	26178.89
506.58	26174.21
506.76	26068.89
506.93	26192.94
507.11	26209.32
507.28	26394.22
507.46	26504.23
507.63	26466.78
507.81	26508.91
507.98	26443.37
508.16	26625.93
508.33	26838.92
508.50	27070.64
508.68	27262.56
508.85	27321.07
509.03	27204.05
509.20	27026.17
509.38	27398.31
509.55	27658.11
509.73	27330.44
509.90	27562.15
510.08	27679.18
510.25	27843.01
510.42	28067.70
510.60	27990.47
510.77	28114.52
510.95	28226.86
511.12	27899.19
511.30	27873.44
511.47	28177.71
511.64	28498.36
511.82	28601.35
511.99	28294.74
512.17	28819.02
512.34	28348.57
512.51	29024.98
512.69	28802.63
512.86	28926.68
513.04	28826.04
513.21	29081.16
513.38	29369.04
513.56	29345.64
513.73	29296.49
513.90	29497.77
514.08	29015.62
514.25	29692.04
514.43	29591.39
514.60	29745.87
514.77	29242.65
514.95	29610.12
515.12	29844.17
515.29	29736.51
515.47	29876.94
515.64	29827.79
515.81	29837.15
515.99	30132.06
516.16	30328.66
516.33	30141.42
516.51	30457.39
516.68	30635.27
516.85	30642.29
517.03	30841.24
517.20	30897.41
517.37	30506.54
517.54	30998.06
517.72	30429.30
517.89	31124.44
518.06	30911.46
518.24	30869.33
518.41	30902.09
518.58	30991.03
518.75	31321.05
518.93	31386.58
519.10	31625.32
519.27	31742.35
519.45	31569.15
519.62	31779.79
519.79	31709.58
519.96	31496.59
520.14	31690.85
520.31	32353.23
520.48	32254.92
520.65	31938.95
520.83	32184.71
521.00	32297.05
521.17	32116.83
521.34	32275.99
521.52	32032.57
521.69	32521.74
521.86	32257.26
522.03	32589.62
522.20	32870.48
522.38	32989.85
522.55	32919.63
522.72	33027.30
522.89	33046.02
523.07	33102.20
523.24	33256.67
523.41	33102.20
523.58	33090.49
523.75	33303.48
523.92	33317.53
524.10	33062.41
524.27	33862.87
524.44	33247.31
524.61	33647.54
524.78	33701.37
524.96	33474.34
525.13	33905.00
525.30	33890.96
525.47	34047.77
525.64	33694.35
525.81	34026.71
525.98	34218.63
526.16	34087.56
526.33	33647.54
526.50	34270.12
526.67	34024.37
526.84	34546.31
527.01	34518.22
527.18	34445.66
527.36	34497.16
527.53	34724.19
527.70	35093.99
527.87	35049.52
528.04	34541.63
528.21	34586.10
528.38	34693.76
528.55	35278.89
528.72	34384.81
528.89	34768.66
529.07	35005.05
529.24	35206.34
529.41	35007.39
529.58	35262.51
529.75	35325.71
529.92	35419.33
530.09	35660.40
530.26	35393.58
530.43	35274.21
530.60	35452.09
530.77	35332.73
530.94	35548.06
531.11	35419.33
531.28	35501.25
531.46	35969.35
531.63	35714.23
531.80	35838.28
531.97	36257.24
532.14	36161.28
532.31	35901.48
532.48	36217.45
532.65	36208.09
532.82	36072.34
532.99	36453.84
533.16	36229.15
533.33	36566.19
533.50	36800.24
533.67	36540.44
533.84	36397.67
534.01	36498.31
534.18	36481.93
534.35	37067.06
534.52	36563.85
534.69	37219.20
534.86	36814.29
535.03	36989.83
535.20	36605.98
535.37	37296.44
535.54	37352.61
535.71	36928.97
535.88	36996.85
536.05	37055.36
536.22	37656.88
536.38	36994.51
536.55	37244.94
536.72	37256.65
536.89	37254.31
537.06	37418.14
537.23	37729.44
537.40	37710.71
537.57	37675.60
537.74	37148.98
537.91	37909.66
538.08	37785.61
538.25	37043.66
538.42	37862.85
538.59	37668.58
538.75	37963.49
538.92	38117.96
539.09	38340.32
539.26	38101.58
539.43	38120.31
539.60	37937.74
539.77	38242.01
539.94	38307.55
540.11	38101.58
540.28	38171.80
540.44	38157.75
540.61	38141.37
540.78	37773.91
540.95	38616.50
541.12	38225.63
541.29	38382.45
541.46	38457.34
541.62	38600.12
541.79	38770.97
541.96	38363.72
542.13	38349.68
542.30	38885.66
542.47	38632.88
542.63	39054.18
542.80	39100.99
542.97	39559.73
543.14	39786.77
543.31	39180.57
543.48	39285.89
543.64	39435.69
543.81	39445.05
543.98	39749.32
544.15	39271.85
544.32	39482.50
544.48	39899.11
544.65	39646.33
544.82	39999.76
544.99	39400.58
545.16	39828.90
545.32	39746.98
545.49	40093.38
545.66	40322.75
545.83	40233.81
546.00	40133.17
546.16	40086.36
546.33	40243.17
546.50	39796.13
546.67	40554.46
546.83	39892.09
547.00	40084.01
547.17	40135.51
547.34	40219.77
547.50	40306.37
547.67	40870.43
547.84	40151.89
548.00	40776.81
548.17	40896.18
548.34	40423.39
548.51	40713.62
548.67	40666.81
548.84	40526.38
549.01	41036.61
549.18	40437.44
549.34	40722.98
549.51	41177.04
549.68	40980.44
549.84	40893.84
550.01	41256.62
550.18	40994.48
550.34	41031.93
550.51	41282.37
550.68	41680.26
550.84	40680.85
551.01	41490.68
551.18	40947.67
551.34	40783.83
551.51	41380.67
551.68	41474.29
551.84	41361.95
552.01	41422.80
552.18	41085.76
552.34	41055.34
552.51	41392.37
552.68	41067.04
552.84	41219.17
553.01	41785.58
553.18	41324.50
553.34	41420.46
553.51	41579.62
553.67	41626.43
553.84	41949.42
554.01	41689.62
554.17	41741.11
554.34	42064.11
554.51	42321.57
554.67	41993.89
554.84	41834.74
555.00	41954.10
555.17	41776.22
555.33	41876.86
555.50	41706.01
555.67	41523.44
555.83	42012.62
556.00	42066.45
556.16	42080.49
556.33	42651.58
556.50	42389.44
556.66	42527.53
556.83	41663.88
556.99	42380.08
557.16	42380.08
557.32	42817.76
557.49	42581.37
557.65	42068.79
557.82	42504.13
557.98	41993.89
558.15	42394.12
558.32	42408.17
558.48	42396.46
558.65	42246.67
558.81	42726.48
558.98	42532.22
559.14	42513.49
559.31	42541.58
559.47	42600.09
559.64	42272.42
559.80	43079.90
559.97	43313.95
560.13	42487.74
560.30	42740.52
560.46	43241.40
560.63	42871.59
560.79	43107.99
560.96	43129.05
561.12	43033.09
561.29	43054.15
561.45	42993.30
561.61	42784.99
561.78	42967.55
561.94	43000.32
562.11	43002.66
562.27	43068.20
562.44	43014.37
562.60	43313.95
562.77	43030.75
562.93	43065.86
563.10	43501.20
563.26	43217.99
563.42	43592.48
563.59	42721.80
563.75	43311.61
563.92	43196.93
564.08	43313.95
564.24	43154.80
564.41	43438.00
564.57	43150.12
564.74	43306.93
564.90	43246.08
565.07	43164.16
565.23	43042.45
565.39	43770.36
565.56	43732.91
565.72	43337.36
565.88	43496.52
566.05	43269.48
566.21	43613.54
566.38	43744.61
566.54	43894.41
566.70	43786.74
566.87	43615.88
567.03	43503.54
567.19	43697.80
567.36	43817.17
567.52	44018.46
567.68	43863.98
567.85	43746.95
568.01	43922.49
568.17	43573.75
568.34	44069.95
568.50	43519.92
568.66	43482.47
568.83	43779.72
568.99	43339.70
569.15	43966.96
569.32	43512.90
569.48	43606.52
569.64	44046.54
569.81	43903.77
569.97	43807.81
570.13	44177.61
570.30	43831.21
570.46	43981.01
570.62	43985.69
570.78	44083.99
570.95	43941.22
571.11	43746.95
571.27	43861.64
571.43	43669.72
571.60	43863.98
571.76	43910.79
571.92	43805.47
572.09	43952.92
572.25	44140.16
572.41	44203.36
572.57	44170.59
572.74	44091.01
572.90	44533.37
573.06	44374.22
573.22	44421.03
573.38	44215.06
573.55	44201.02
573.71	44170.59
573.87	44079.31
574.03	43997.39
574.20	44615.29
574.36	44425.71
574.52	44287.62
574.68	44481.88
574.84	44591.89
575.01	44645.72
575.17	44271.23
575.33	44526.35
575.49	43981.01
575.65	44294.64
575.82	43973.98
575.98	43936.54
576.14	44528.69
576.30	44933.60
576.46	44463.16
576.62	44322.72
576.79	44311.02
576.95	44259.53
577.11	44495.92
577.27	44367.20
577.43	44161.23
577.59	44559.12
577.75	43924.83
577.92	44378.90
578.08	43800.79
578.24	44472.52
578.40	44474.86
578.56	44261.87
578.72	44673.81
578.88	45067.02
579.04	44044.20
579.21	44112.08
579.37	44308.68
579.53	44603.59
579.69	44121.44
579.85	44039.52
580.01	44416.35
580.17	44479.54
580.33	44346.13
580.49	44439.75
580.65	44570.82
580.82	44350.81
580.98	44299.32
581.14	44201.02
581.30	44847.00
581.46	44348.47
581.62	44254.85
581.78	44458.48
581.94	44198.68
582.10	44634.02
582.26	44467.84
582.42	44563.80
582.58	44449.11
582.74	44533.37
582.90	44746.36
583.06	44495.92
583.22	44519.33
583.38	44402.30
583.54	44526.35
583.70	44680.83
583.86	44631.68
584.02	44772.11
584.18	44657.42
584.34	44968.71
584.50	44893.82
584.66	44755.72
584.82	44856.37
584.98	44889.13
585.14	44769.77
585.30	44369.54
585.46	44825.94
585.62	44615.29
585.78	44437.41
585.94	44498.26
586.10	44645.72
586.26	44886.79
586.42	44790.83
586.58	44666.78
586.74	44671.46
586.90	44350.81
587.06	44875.09
587.22	45097.44
587.38	44975.73
587.54	44891.48
587.70	44982.76
587.86	45099.78
588.02	44437.41
588.18	44659.76
588.34	44769.77
588.49	44563.80
588.65	44903.18
588.81	44484.22
588.97	45240.21
589.13	44795.51
589.29	44837.64
589.45	45113.83
589.61	44535.71
589.77	45001.48
589.93	45106.80
590.08	45064.67
590.24	45146.59
590.40	45518.74
590.56	45382.99
590.72	45141.91
590.88	45607.68
591.04	45205.11
591.20	45408.73
591.35	45162.98
591.51	45558.53
591.67	45153.62
591.83	45064.67
591.99	45296.39
592.15	45226.17
592.31	45095.10
592.46	45162.98
592.62	45298.73
592.78	44938.29
592.94	45656.83
593.10	45544.48
593.26	45610.02
593.41	45207.45
593.57	45366.60
593.73	45492.99
593.89	45565.55
594.05	45982.16
594.20	45612.36
594.36	45605.34
594.52	45518.74
594.68	45584.27
594.84	45125.53
594.99	45830.03
595.15	45106.80
595.31	45610.02
595.47	45354.90
595.62	45415.76
595.78	45525.76
595.94	45682.58
596.10	45277.66
596.25	45385.33
596.41	45551.51
596.57	45397.03
596.73	45223.83
596.88	45851.09
597.04	45244.90
597.20	45411.07
597.36	45935.35
597.51	45668.53
597.67	45588.95
597.83	45219.15
597.99	45872.16
598.14	45305.75
598.30	45401.71
598.46	45205.11
598.61	46279.41
598.77	45481.29
598.93	45769.18
599.09	45696.62
599.24	45834.71
599.40	45198.09
599.56	45832.37
599.71	45612.36
599.87	46302.82
600.03	45823.01
600.18	45741.09
600.34	45940.04
600.50	45691.94
600.65	45485.97
600.81	45839.39
600.97	45535.12
601.12	45975.14
601.28	45483.63
601.44	45738.75
601.59	45886.20
601.75	45635.77
601.91	45984.51
602.06	45511.72
602.22	45656.83
602.37	45553.85
602.53	45455.54
602.69	45708.32
602.84	45794.92
603.00	45565.55
603.16	45682.58
603.31	45265.96
603.47	45610.02
603.62	45546.82
603.78	46162.39
603.94	45574.91
604.09	45319.79
604.25	45359.58
604.40	45095.10
604.56	45113.83
604.71	46017.27
604.87	45118.51
605.03	45392.35
605.18	45284.68
605.34	45645.13
605.49	45247.24
605.65	45565.55
605.80	45584.27
605.96	45556.19
606.12	45446.18
606.27	45883.86
606.43	45343.20
606.58	45481.29
606.74	45392.35
606.89	45858.12
607.05	45942.38
607.20	45570.23
607.36	45586.61
607.51	45661.51
607.67	45350.22
607.82	45287.03
607.98	45359.58
608.13	45766.84
608.29	45420.44
608.44	45518.74
608.60	45188.72
608.75	45532.78
608.91	45233.19
609.06	44928.92
609.22	45647.47
609.37	45167.66
609.53	45200.43
609.68	45701.30
609.84	45574.91
609.99	45167.66
610.15	45361.92
610.30	45780.88
610.46	45485.97
610.61	45015.52
610.76	45153.62
610.92	45244.90
611.07	45230.85
611.23	44851.69
611.38	45422.78
611.54	44659.76
611.69	45015.52
611.84	45036.59
612.00	44802.53
612.15	44769.77
612.31	45228.51
612.46	45069.36
612.62	45010.84
612.77	44863.39
612.92	45041.27
613.08	45010.84
613.23	45097.44
613.39	44952.33
613.54	44842.32
613.69	45078.72
613.85	44872.75
614.00	44631.68
614.15	45305.75
614.31	44893.82
614.46	45172.34
614.62	44631.68
614.77	44935.95
614.92	44767.43
615.08	44451.45
615.23	44772.11
615.38	44924.24
615.54	44713.59
615.69	45076.38
615.84	44903.18
616.00	44788.49
616.15	44865.73
616.30	45146.59
616.46	44701.89
616.61	44320.38
616.76	44994.46
616.92	44245.49
617.07	44964.03
617.22	44594.23
617.37	44194.00
617.53	44601.25
617.68	44355.49
617.83	44287.62
617.99	45221.49
618.14	44708.91
618.29	44439.75
618.45	44535.71
618.60	44430.39
618.75	43634.61
618.90	44156.55
619.06	43746.95
619.21	44608.27
619.36	44634.02
619.51	44343.79
619.67	43868.66
619.82	44435.07
619.97	44296.98
620.12	44275.91
620.28	43856.96
620.43	44388.26
620.58	44671.46
620.73	44133.14
620.89	44444.43
621.04	44425.71
621.19	44027.82
621.34	44027.82
621.49	43852.28
621.65	44081.65
621.80	44531.03
621.95	43782.06
622.10	44231.44
622.25	44238.47
622.41	43964.62
622.56	44123.78
622.71	43854.62
622.86	44016.11
623.01	43955.26
623.16	43810.15
623.32	44264.21
623.47	43988.03
623.62	43730.57
623.77	43852.28
623.92	43730.57
624.07	44119.10
624.23	44046.54
624.38	43686.10
624.53	43426.30
624.68	43768.02
624.83	43496.52
624.98	43976.33
625.13	43323.32
625.29	43477.79
625.44	43267.14
625.59	43693.12
625.74	43627.59
625.89	43131.39
626.04	43220.33
626.19	43210.97
626.34	43297.57
626.49	43023.73
626.65	43009.68
626.80	43091.60
626.95	42911.38
627.10	42595.41
627.25	43531.62
627.40	43346.72
627.55	43318.64
627.70	43253.10
627.85	43246.08
628.00	43297.57
628.15	43351.40
628.30	43037.77
628.45	42784.99
628.60	42810.74
628.76	42899.68
628.91	43098.62
629.06	42990.96
629.21	42651.58
629.36	42710.10
629.51	43243.74
629.66	43217.99
629.81	42733.50
629.96	42656.26
630.11	42447.96
630.26	42674.99
630.41	42574.34
630.56	42965.21
630.71	42618.81
630.86	42436.25
631.01	42824.78
631.16	42822.44
631.31	42436.25
631.46	42181.13
631.61	42504.13
631.76	42579.03
631.91	42885.64
632.06	42738.18
632.21	42426.89
632.36	42916.06
632.51	42075.81
632.66	42384.76
632.81	42284.12
632.96	42337.95
633.10	41942.40
633.25	42424.55
633.40	42274.76
633.55	42794.36
633.70	42174.11
633.85	42239.65
634.00	41862.82
634.15	41904.95
634.30	41537.49
634.45	42227.95
634.60	41895.59
634.75	41909.63
634.90	42110.92
635.05	42024.32
635.19	42141.35
635.34	42021.98
635.49	41617.07
635.64	41918.99
635.79	41539.83
635.94	41839.42
636.09	42326.25
636.24	41766.86
636.39	41703.67
636.53	41497.70
636.68	41546.85
636.83	41577.28
636.98	41483.66
637.13	41546.85
637.28	41092.79
637.43	41881.55
637.57	41603.02
637.72	41504.72
637.87	41308.11
638.02	41338.54
638.17	41209.81
638.32	41495.36
638.46	41315.14
638.61	40863.41
638.76	41123.21
638.91	41343.22
639.06	41148.96
639.20	40830.65
639.35	41053.00
639.50	40734.68
639.65	41317.48
639.80	40893.84
639.94	41090.44
640.09	41263.64
640.24	41003.85
640.39	40797.88
640.54	40928.95
640.68	41359.61
640.83	40898.52
640.98	41111.51
641.13	40954.69
641.27	40889.16
641.42	41109.17
641.57	40304.02
641.72	40942.99
641.86	40655.11
642.01	40495.95
642.16	40383.60
642.31	40526.38
642.45	40467.86
642.60	40360.20
642.75	40360.20
642.90	40727.66
643.04	40730.00
643.19	40437.44
643.34	40484.25
643.48	39962.31
643.63	40491.27
643.78	40720.64
643.93	40472.54
644.07	40416.37
644.22	40568.51
644.37	40554.46
644.51	40442.12
644.66	40767.45
644.81	40409.35
644.95	40355.52
645.10	40128.48
645.25	40266.58
645.39	40399.99
645.54	40222.11
645.69	39805.49
645.83	39934.22
645.98	40119.12
646.13	40257.21
646.27	39943.58
646.42	40165.93
646.57	39803.15
646.71	39885.07
646.86	40182.32
647.00	40025.50
647.15	40196.36
647.30	39950.60
647.44	40346.15
647.59	39782.09
647.74	39742.30
647.88	40158.91
648.03	40175.30
648.17	40137.85
648.32	40027.84
648.47	40280.62
648.61	39606.55
648.76	39899.11
648.90	39243.76
649.05	39746.98
649.20	39721.23
649.34	39620.59
649.49	39519.95
649.63	39934.22
649.78	40179.98
649.92	39480.16
650.07	40161.25
650.21	39901.45
650.36	39782.09
650.51	39594.84
650.65	39599.52
650.80	39613.57
650.94	39676.76
651.09	39332.70
651.23	38878.64
651.38	39243.76
651.52	39255.46
651.67	39384.19
651.81	39552.71
651.96	39349.09
652.10	38988.64
652.25	38927.79
652.39	39271.85
652.54	38953.54
652.68	39391.22
652.83	38693.74
652.97	39304.62
653.12	38763.95
653.26	38813.10
653.41	38789.70
653.55	39049.50
653.70	39316.32
653.84	39005.03
653.99	39337.38
654.13	39225.04
654.27	38923.11
654.42	38792.04
654.56	38885.66
654.71	38981.62
654.85	38829.49
655.00	38890.34
655.14	38890.34
655.29	39042.48
655.43	39330.36
655.57	37977.53
655.72	38871.62
655.86	38515.86
656.01	38274.78
656.15	38146.05
656.30	38703.10
656.44	38639.90
656.58	38705.44
656.73	38398.83
656.87	38146.05
657.01	38155.41
657.16	38398.83
657.30	38508.83
657.45	38349.68
657.59	38171.80
657.73	37766.88
657.88	38330.95
658.02	38366.06
658.16	38382.45
658.31	38305.21
658.45	38089.88
658.60	37869.87
658.74	37989.24
658.88	38150.73
659.03	37766.88
659.17	37771.57
659.31	37825.40
659.46	37780.93
659.60	38394.15
659.74	37378.36
659.89	37502.40
660.03	37186.43
660.17	37762.20
660.32	37727.10
660.46	37816.04
660.60	37179.41
660.74	37581.98
660.89	37820.72
661.03	37516.45
661.17	37081.11
661.32	37125.58
661.46	37130.26
661.60	37113.87
661.74	37205.16
661.89	37368.99
662.03	37111.53
662.17	37186.43
662.31	36877.48
662.46	37071.75
662.60	36442.14
662.74	36652.79
662.88	36510.02
663.03	36460.87
663.17	36135.53
663.31	36400.01
663.45	36278.30
663.60	37067.06
663.74	36421.08
663.88	36177.66
664.02	36322.77
664.17	36814.29
664.31	35758.70
664.45	36222.13
664.59	36006.80
664.73	35962.33
664.88	35894.46
665.02	35709.55
665.16	35894.46
665.30	36189.36
665.44	36128.51
665.59	35559.76
665.73	35637.00
665.87	35526.99
666.01	35613.59
666.15	35599.55
666.29	35538.69
666.44	35887.43
666.58	35185.27
666.72	35255.49
666.86	35442.73
667.00	35225.06
667.14	35147.82
667.28	34831.85
667.43	34965.26
667.57	35470.82
667.71	34913.77
667.85	35484.86
667.99	34586.10
668.13	34244.38
668.27	34178.84
668.41	34651.63
668.56	34176.50
668.70	34520.56
668.84	34548.65
668.98	34625.89
669.12	34527.58
669.26	34499.50
669.40	34375.45
669.54	34562.69
669.68	34469.07
669.82	34132.03
669.96	33659.24
670.10	34040.75
670.25	33652.22
670.39	34007.98
670.53	33827.76
670.67	33504.77
670.81	34115.65
670.95	33897.98
671.09	33607.75
671.23	33549.24
671.37	33652.22
671.51	33385.40
671.65	33268.37
671.79	33422.85
671.93	33329.23
672.07	33312.84
672.21	33083.47
672.35	32847.08
672.49	32968.79
672.63	32795.59
672.77	32486.64
672.91	32701.96
673.05	32685.58
673.19	32130.87
673.33	32287.69
673.47	32418.76
673.61	31985.76
673.75	31971.72
673.89	32100.45
674.03	31693.19
674.17	32121.51
674.31	31405.31
674.45	31887.46
674.59	32070.02
674.73	32018.53
674.87	31398.29
675.01	31674.47
675.15	31278.92
675.29	31084.65
675.43	31166.57
675.56	31597.23
675.70	31168.91
675.84	31014.44
675.98	30115.67
676.12	31164.23
676.26	31084.65
676.40	30611.87
676.54	30752.30
676.68	30518.25
676.82	30338.02
676.96	30567.40
677.10	30478.46
677.23	30623.57
677.37	30012.69
677.51	30171.85
677.65	30312.28
677.79	29507.13
677.93	29895.66
678.07	29975.24
678.21	29668.63
678.34	29055.41
678.48	29027.32
678.62	29270.74
678.76	29603.10
678.90	29422.87
679.04	29469.69
679.18	29111.58
679.31	28961.79
679.45	29043.71
679.59	28601.35
679.73	28697.31
679.87	28105.15
680.00	28348.57
680.14	28493.68
680.28	28594.32
680.42	28290.06
680.56	27871.10
680.70	27821.95
680.83	27669.81
680.97	27482.57
681.11	27810.25
681.25	28053.66
681.39	27393.63
681.52	27487.25
681.66	26897.44
681.80	26752.32
681.94	26764.03
682.07	27023.83
682.21	26888.07
682.35	26913.82
682.49	26803.82
682.62	26551.04
682.76	26827.22
682.90	26651.68
683.04	26890.41
683.17	26604.87
683.31	26171.87
683.45	26111.02
683.59	26061.87
683.72	25441.62
683.86	26139.10
684.00	25685.04
684.13	26017.40
684.27	25834.83
684.41	25453.33
684.55	25783.34
684.68	25315.23
684.82	25069.48
684.96	24992.24
685.09	24915.00
685.23	25039.05
685.37	24849.47
685.50	25111.61
685.64	24861.17
685.78	24975.86
685.91	24680.95
686.05	24404.77
686.19	23782.18
686.32	23763.46
686.46	23868.78
686.60	23569.19
686.73	23669.84
686.87	24006.87
687.01	23988.15
687.14	24084.11
687.28	23484.94
687.42	23786.86
687.55	23747.08
687.69	23274.29
687.82	23094.07
687.96	22909.16
688.10	23260.24
688.23	23131.51
688.37	23098.75
688.50	23295.35
688.64	23133.86
688.78	22579.15
688.91	22785.12
689.05	22518.29
689.18	22300.62
689.32	21926.14
689.46	22242.11
689.59	21874.65
689.73	22665.75
689.86	22232.75
690.00	21972.95
690.13	21813.79
690.27	21996.35
690.41	22122.74
690.54	21778.68
690.68	21434.63
690.81	21336.32
690.95	21474.42
691.08	21352.71
691.22	21432.29
691.35	20884.60
691.49	21254.40
691.62	20748.85
691.76	20334.57
691.89	20547.56
692.03	20409.47
692.16	20730.12
692.30	20421.17
692.43	20343.94
692.57	19906.26
692.70	20144.99
692.84	20025.62
692.97	19995.20
693.11	19702.63
693.24	19807.95
693.38	19637.09
693.51	19728.38
693.65	19482.62
693.78	18979.40
693.92	19445.17
694.05	19332.82
694.19	19295.38
694.32	19190.05
694.45	19597.31
694.59	19229.84
694.72	19414.74
694.86	19117.50
694.99	18841.31
695.13	18485.55
695.26	18483.21
695.39	18160.22
695.53	18415.34
695.66	18335.76
695.80	18244.48
695.93	18342.78
696.07	18253.84
696.20	18146.17
696.33	17755.30
696.47	17771.69
696.60	17687.43
696.73	17537.63
696.87	17635.94
697.00	17547.00
697.14	17465.08
697.27	17226.34
697.40	17472.10
697.54	17294.22
697.67	17226.34
697.80	17268.47
697.94	16861.22
698.07	16926.75
698.21	16826.11
698.34	16910.37
698.47	16893.99
698.61	16219.91
698.74	16439.92
698.87	16409.50
699.01	16142.67
699.14	16355.66
699.27	16208.21
699.40	16196.51
699.54	16079.48
699.67	16159.06
699.80	15892.24
699.94	15901.60
700.07	16224.59
700.20	15910.96
700.34	15737.76
700.47	15517.75
700.60	15712.02
700.73	15704.99
700.87	15714.36
701.00	15103.48
701.13	15124.54
701.26	15150.29
701.40	15157.31
701.53	14949.00
701.66	15084.75
701.79	14977.09
701.93	14911.55
702.06	14532.39
702.19	14640.05
702.32	14670.48
702.46	14705.59
702.59	14492.60
702.72	14579.20
702.85	14532.39
702.99	14415.36
703.12	14230.46
703.25	14148.54
703.38	14059.60
703.51	14050.24
703.65	13769.37
703.78	13820.86
703.91	13783.41
704.04	13568.09
704.17	13675.75
704.31	13584.47
704.44	13369.14
704.57	13350.42
704.70	13425.31
704.83	13460.42
704.96	13226.37
705.10	12933.80
705.23	12819.11
>>>>>End Processed Spectral Data<<<<<
