SpectraSuite Data File
++++++++++++++++++++++++++++++++++++
Date: Fri Oct 25 11:33:49 EDT 2013
User: price-jones
Dark Spectrum Present: No
Reference Spectrum Present: No
Number of Sampled Component Spectra: 1
Spectrometers: USB2+H05261
Integration Time (usec): 100000 (USB2+H05261)
Spectra Averaged: 1 (USB2+H05261)
Boxcar Smoothing: 0 (USB2+H05261)
Correct for Electrical Dark: No (USB2+H05261)
Strobe/Lamp Enabled: No (USB2+H05261)
Correct for Detector Non-linearity: No (USB2+H05261)
Correct for Stray Light: No (USB2+H05261)
Number of Pixels in Processed Spectrum: 2048
>>>>>Begin Processed Spectral Data<<<<<
365.73	283.20
365.92	283.20
366.12	283.20
366.32	222.35
366.52	175.54
366.72	208.31
366.91	175.54
367.11	194.26
367.31	119.37
367.51	231.71
367.70	168.52
367.90	201.29
368.10	236.39
368.30	163.84
368.49	147.45
368.69	203.63
368.89	140.43
369.09	140.43
369.28	210.65
369.48	140.43
369.68	198.95
369.87	231.71
370.07	180.22
370.27	276.18
370.47	271.50
370.66	477.47
370.86	540.66
371.06	512.58
371.25	557.05
371.45	557.05
371.65	528.96
371.84	535.98
372.04	545.34
372.24	547.69
372.44	615.56
372.63	615.56
372.83	531.30
373.03	643.65
373.22	528.96
373.42	681.10
373.62	648.33
373.81	610.88
374.01	634.29
374.21	662.37
374.40	669.39
374.60	676.41
374.79	650.67
374.99	690.46
375.19	704.50
375.38	631.94
375.58	653.01
375.78	655.35
375.97	683.44
376.17	678.76
376.37	636.63
376.56	706.84
376.76	620.24
376.95	690.46
377.15	669.39
377.35	734.93
377.54	627.26
377.74	603.86
377.93	667.05
378.13	781.74
378.33	760.67
378.52	746.63
378.72	713.86
378.91	709.18
379.11	706.84
379.31	730.25
379.50	730.25
379.70	744.29
379.89	765.36
380.09	767.70
380.28	732.59
380.48	763.01
380.68	730.25
380.87	723.23
381.07	765.36
381.26	837.91
381.46	809.83
381.65	758.33
381.85	777.06
382.04	730.25
382.24	800.46
382.43	823.87
382.63	763.01
382.83	784.08
383.02	814.51
383.22	809.83
383.41	870.68
383.61	802.80
383.80	842.59
384.00	844.93
384.19	795.78
384.39	870.68
384.58	788.76
384.78	821.53
384.97	828.55
385.17	826.21
385.36	894.08
385.56	777.06
385.75	800.46
385.95	755.99
386.14	849.61
386.34	828.55
386.53	849.61
386.72	793.44
386.92	868.34
387.11	908.13
387.31	889.40
387.50	837.91
387.70	870.68
387.89	856.64
388.09	903.45
388.28	887.06
388.48	861.32
388.67	912.81
388.86	936.21
389.06	976.00
389.25	976.00
389.45	910.47
389.64	952.60
389.84	917.49
390.03	966.64
390.22	961.96
390.42	901.11
390.61	940.90
390.81	901.11
391.00	910.47
391.19	1015.79
391.39	966.64
391.58	968.98
391.78	971.32
391.97	1121.12
392.16	1053.24
392.36	1050.90
392.55	992.39
392.75	1006.43
392.94	1015.79
393.13	1064.94
393.33	1111.75
393.52	1109.41
393.71	1090.69
393.91	1062.60
394.10	1149.20
394.29	1029.84
394.49	1046.22
394.68	1160.91
394.88	1142.18
395.07	1158.57
395.26	1088.35
395.46	1149.20
395.65	1186.65
395.84	1191.33
396.04	1177.29
396.23	1153.88
396.42	1170.27
396.62	1151.54
396.81	1315.38
397.00	1217.08
397.19	1282.61
397.39	1177.29
397.58	1245.16
397.77	1261.55
397.97	1212.40
398.16	1301.34
398.35	1259.21
398.55	1327.08
398.74	1275.59
398.93	1299.00
399.12	1306.02
399.32	1324.74
399.51	1277.93
399.70	1357.51
399.90	1329.42
400.09	1406.66
400.28	1315.38
400.47	1327.08
400.67	1413.68
400.86	1334.11
401.05	1439.43
401.24	1554.12
401.44	1406.66
401.63	1401.98
401.82	1497.94
402.01	1523.69
402.21	1509.65
402.40	1497.94
402.59	1526.03
402.78	1551.78
402.97	1514.33
403.17	1544.75
403.36	1582.20
403.55	1586.88
403.74	1558.80
403.93	1554.12
404.13	1626.67
404.32	1544.75
404.51	1605.61
404.70	1584.54
404.89	1661.78
405.09	1671.14
405.28	1607.95
405.47	1617.31
405.66	1757.74
405.85	1713.27
406.05	1722.63
406.24	1654.76
406.43	1706.25
406.62	1717.95
406.81	1792.85
407.00	1795.19
407.20	1804.55
407.39	1888.81
407.58	1884.13
407.77	1933.28
407.96	1879.45
408.15	1858.39
408.34	1877.11
408.54	1902.86
408.73	1900.52
408.92	1884.13
409.11	1930.94
409.30	1886.47
409.49	2031.58
409.68	2024.56
409.87	2143.93
410.07	2059.67
410.26	2087.76
410.45	2099.46
410.64	2085.42
410.83	2120.53
411.02	2207.13
411.21	2078.40
411.40	2204.78
411.59	2286.70
411.78	2136.91
411.98	2216.49
412.17	2246.91
412.36	2296.07
412.55	2209.47
412.74	2291.38
412.93	2333.51
413.12	2300.75
413.31	2455.22
413.50	2424.80
413.69	2443.52
413.88	2417.77
414.07	2511.39
414.26	2408.41
414.45	2490.33
414.64	2572.25
414.83	2445.86
415.02	2684.59
415.22	2544.16
415.41	2579.27
415.60	2675.23
415.79	2679.91
415.98	2684.59
416.17	2679.91
416.36	2761.83
416.55	2712.68
416.74	2726.72
416.93	2780.56
417.12	2696.30
417.31	2855.45
417.50	2951.42
417.69	2937.37
417.88	2949.08
418.07	2986.52
418.26	2972.48
418.45	2869.50
418.64	3096.53
418.83	3157.38
419.02	3063.76
419.21	3122.27
419.39	3089.51
419.58	3131.64
419.77	3101.21
419.96	3171.43
420.15	3178.45
420.34	3253.34
420.53	3222.92
420.72	3337.60
420.91	3218.24
421.10	3262.71
421.29	3346.97
421.48	3342.28
421.67	3335.26
421.86	3452.29
422.05	3349.31
422.24	3356.33
422.43	3323.56
422.61	3428.88
422.80	3452.29
422.99	3431.23
423.18	3463.99
423.37	3407.82
423.56	3389.10
423.75	3442.93
423.94	3524.85
424.13	3094.19
424.32	3258.03
424.50	3421.86
424.69	3524.85
424.88	3510.80
425.07	3471.01
425.26	3478.04
425.45	3234.62
425.64	3405.48
425.83	3478.04
426.01	3468.67
426.20	3515.48
426.39	3473.36
426.58	3559.95
426.77	3527.19
426.96	3644.21
427.15	3604.42
427.33	3566.98
427.52	3571.66
427.71	3634.85
427.90	3749.54
428.09	3581.02
428.28	3770.60
428.46	3700.39
428.65	3609.11
428.84	3733.15
429.03	3754.22
429.22	3695.71
429.40	3625.49
429.59	3761.24
429.78	3625.49
429.97	3679.32
430.16	3641.87
430.34	3810.39
430.53	3751.88
430.72	3962.53
430.91	3845.50
431.10	3904.01
431.28	3801.03
431.47	3934.44
431.66	3974.23
431.85	3957.85
432.03	3964.87
432.22	4173.18
432.41	4051.47
432.60	4025.72
432.79	4079.55
432.97	4133.39
433.16	4037.42
433.35	4138.07
433.54	4147.43
433.72	4121.68
433.91	4271.48
434.10	4271.48
434.28	4203.60
434.47	4210.62
434.66	4257.43
434.85	4145.09
435.03	4203.60
435.22	4383.82
435.41	4442.34
435.59	4322.97
435.78	4418.93
435.97	4437.66
436.16	4334.67
436.34	4337.01
436.53	4468.08
436.72	4489.15
436.90	4376.80
437.09	4418.93
437.28	4442.34
437.46	4498.51
437.65	4444.68
437.84	4631.92
438.02	4608.51
438.21	4655.33
438.40	4615.54
438.58	4887.04
438.77	4713.84
438.96	4788.74
439.14	4973.64
439.33	4926.83
439.52	4919.81
439.70	5050.88
439.89	4924.49
440.08	4966.62
440.26	5067.26
440.45	4873.00
440.63	5102.37
440.82	5214.71
441.01	5219.39
441.19	5186.63
441.38	5291.95
441.57	5280.25
441.75	5226.42
441.94	5343.44
442.12	5322.38
442.31	5535.37
442.50	5523.66
442.68	5465.15
442.87	5376.21
443.05	5600.90
443.24	5617.29
443.43	5490.90
443.61	5607.92
443.80	5619.63
443.98	5570.48
444.17	5287.27
444.35	5689.84
444.54	5696.86
444.73	5673.46
444.91	5715.59
445.10	5446.43
445.28	5694.52
445.47	5490.90
445.65	5703.89
445.84	5692.18
446.02	5888.79
446.21	5650.05
446.39	5834.96
446.58	5865.38
446.77	5678.14
446.95	5497.92
447.14	5638.35
447.32	5956.66
447.51	5867.72
447.69	5837.30
447.88	5785.80
448.06	5893.47
448.25	5654.73
448.43	5675.80
448.62	5675.80
448.80	5659.42
448.99	5717.93
449.17	5973.05
449.36	5940.28
449.54	6019.86
449.73	6155.61
449.91	6186.04
450.10	6022.20
450.28	6073.69
450.46	6094.76
450.65	6125.18
450.83	6094.76
451.02	6122.84
451.20	6356.90
451.39	6312.42
451.57	6129.86
451.76	6036.24
451.94	6033.90
452.13	6396.68
452.31	6263.27
452.49	6141.57
452.68	6282.00
452.86	6235.19
453.05	6445.84
453.23	6523.07
453.42	6153.27
453.60	6253.91
453.78	6476.26
453.97	6368.60
454.15	6328.81
454.34	6490.31
454.52	6497.33
454.70	6513.71
454.89	6778.19
455.07	6586.27
455.26	6750.10
455.44	6682.23
455.62	6829.68
455.81	6604.99
455.99	6834.36
456.17	6703.29
456.36	6815.64
456.54	6757.13
456.73	6895.22
456.91	7035.65
457.09	7035.65
457.28	7080.12
457.46	6939.69
457.64	6930.33
457.83	7108.21
458.01	7026.29
458.19	7204.17
458.38	7260.34
458.56	7016.93
458.74	7192.47
458.93	7246.30
459.11	7316.51
459.29	7201.83
459.48	7119.91
459.66	7229.91
459.84	7176.08
460.03	7473.33
460.21	7351.62
460.39	7351.62
460.57	7389.07
460.76	7595.04
460.94	7480.35
461.12	7527.16
461.31	7585.68
461.49	7419.50
461.67	7616.10
461.85	7644.19
462.04	7660.57
462.22	8016.33
462.40	7772.92
462.59	7812.71
462.77	7744.83
462.95	7808.03
463.13	7728.45
463.32	7702.70
463.50	7953.14
463.68	7929.74
463.86	8088.89
464.05	7585.68
464.23	7988.25
464.41	8077.19
464.59	7749.51
464.78	8051.44
464.96	7873.56
465.14	7906.33
465.32	7995.27
465.50	8304.22
465.69	8219.96
465.87	8180.17
466.05	8070.17
466.23	8149.75
466.41	8369.76
466.60	8292.52
466.78	8189.53
466.96	8308.90
467.14	8161.45
467.32	8238.69
467.51	8512.53
467.69	8161.45
467.87	8229.32
468.05	8428.27
468.23	8180.17
468.41	8367.42
468.60	8147.40
468.78	8355.71
468.96	8540.61
469.14	8526.57
469.32	8882.33
469.50	8486.78
469.69	8650.62
469.87	8814.46
470.05	8585.08
470.23	8723.18
470.41	8816.80
470.59	8861.27
470.77	8978.30
470.95	8814.46
471.14	8915.10
471.32	8903.40
471.50	8922.12
471.68	9102.34
471.86	9032.13
472.04	9198.31
472.22	9399.59
472.40	9158.52
472.58	9217.03
472.77	9334.06
472.95	9245.12
473.13	9635.99
473.31	9432.36
473.49	9287.25
473.67	9312.99
473.85	9549.39
474.03	9708.54
474.21	9675.77
474.39	9745.99
474.57	9696.84
474.75	9944.94
474.93	9806.84
475.12	9916.85
475.30	9926.21
475.48	9977.70
475.66	10181.33
475.84	10169.63
476.02	10143.88
476.20	10338.15
476.38	10253.89
476.56	10537.09
476.74	10548.79
476.92	10438.79
477.10	10399.00
477.28	10689.23
477.46	10988.82
477.64	10635.39
477.82	10986.47
478.00	10885.83
478.18	11176.06
478.36	11124.57
478.54	11248.61
478.72	11255.64
478.90	11538.84
479.08	11683.95
479.26	11822.05
479.44	11630.12
479.62	11646.51
479.80	12156.74
479.98	11922.69
480.16	12334.62
480.34	12133.34
480.52	12442.29
480.70	12229.30
480.88	12301.86
481.06	12299.52
481.24	12276.11
481.41	12582.72
481.59	12760.60
481.77	12589.74
481.95	12837.84
482.13	12989.97
482.31	13254.45
482.49	13303.60
482.67	13247.43
482.85	13411.27
483.03	13568.09
483.21	13607.87
483.39	13696.82
483.57	13621.92
483.74	13811.50
483.92	14083.00
484.10	13715.54
484.28	14115.77
484.46	14368.55
484.64	14906.87
484.82	14319.40
485.00	14642.39
485.18	14754.74
485.35	15136.24
485.53	14986.45
485.71	15283.70
485.89	15323.49
486.07	15159.65
486.25	15529.45
486.43	15482.64
486.61	15686.27
486.78	15756.49
486.96	15906.28
487.14	16102.89
487.32	15969.48
487.50	16446.94
487.68	16453.97
487.85	16737.17
488.03	16762.92
488.21	16819.09
488.39	17011.01
488.57	17011.01
488.75	17495.50
488.92	17273.15
489.10	17593.81
489.28	17811.48
489.46	17666.36
489.64	17776.37
489.81	18061.91
489.99	17874.67
490.17	18195.32
490.35	18422.36
490.53	18527.68
490.70	18696.20
490.88	18635.35
491.06	18899.83
491.24	18778.12
491.41	19126.86
491.59	19012.17
491.77	19178.35
491.95	19571.56
492.13	19461.55
492.30	19281.33
492.48	19674.54
492.66	19683.91
492.84	19683.91
493.01	20212.87
493.19	20453.94
493.37	20100.52
493.54	20409.47
493.72	20896.30
493.90	20428.20
494.08	21088.23
494.25	20840.13
494.43	21156.10
494.61	20863.54
494.79	21308.24
494.96	21336.32
495.14	21434.63
495.32	21661.66
495.49	21860.60
495.67	22078.27
495.85	21788.05
496.02	22052.53
496.20	22464.46
496.38	22616.60
496.55	22448.08
496.73	22813.20
496.91	22422.33
497.09	22630.64
497.26	22672.77
497.44	22747.67
497.62	22981.72
497.79	23255.56
497.97	23190.03
498.14	23400.68
498.32	23611.32
498.50	23740.05
498.67	23861.76
498.85	23611.32
499.03	23737.71
499.20	24130.92
499.38	24421.15
499.56	24498.39
499.73	24484.34
499.91	24294.76
500.08	24805.00
500.26	24423.49
500.44	24589.67
500.61	24643.50
500.79	24676.27
500.97	24987.56
501.14	25455.67
501.32	25088.20
501.49	25355.02
501.67	25521.20
501.84	25706.10
502.02	25317.57
502.20	25504.82
502.37	25813.77
502.55	25755.26
502.72	25933.14
502.90	26096.97
503.07	25984.63
503.25	26270.17
503.43	26267.83
503.60	26522.95
503.78	26387.20
503.95	26324.01
504.13	26590.83
504.30	26684.45
504.48	26855.31
504.65	26698.49
504.83	27405.33
505.01	27199.37
505.18	26895.10
505.36	27061.27
505.53	27386.61
505.71	27154.90
505.88	27070.64
506.06	27030.85
506.23	27981.10
506.41	26977.01
506.58	27559.81
506.76	27658.11
506.93	27590.24
507.11	27693.22
507.28	28156.64
507.46	28212.82
507.63	28177.71
507.81	28226.86
507.98	28215.16
508.16	28512.41
508.33	28638.80
508.50	28762.84
508.68	28861.15
508.85	28713.69
509.03	28559.22
509.20	29053.07
509.38	28503.04
509.55	29085.84
509.73	29291.80
509.90	29263.72
510.08	29523.52
510.25	29385.43
510.42	29593.73
510.60	29467.34
510.77	29890.98
510.95	29855.87
511.12	29457.98
511.30	29937.79
511.47	30057.16
511.64	30045.46
511.82	30384.83
511.99	30003.33
512.17	30384.83
512.34	30263.13
512.51	30817.83
512.69	30740.60
512.86	30637.61
513.04	30635.27
513.21	31140.83
513.38	30995.71
513.56	31267.22
513.73	31108.06
513.90	31482.55
514.08	30895.07
514.25	31431.05
514.43	31351.48
514.60	31676.81
514.77	31641.70
514.95	31391.26
515.12	31388.92
515.29	31632.34
515.47	31934.27
515.64	31896.82
515.81	31955.33
515.99	31943.63
516.16	32428.12
516.33	31985.76
516.51	32767.50
516.68	32378.97
516.85	32545.15
517.03	32704.31
517.20	32863.46
517.37	32666.86
517.54	32954.74
517.72	32411.74
517.89	33036.66
518.06	33097.52
518.24	32975.81
518.41	33113.90
518.58	32849.42
518.75	33291.78
518.93	33226.24
519.10	33092.83
519.27	33841.81
519.45	33619.46
519.62	33687.33
519.79	33322.21
519.96	33502.43
520.14	33958.83
520.31	33434.55
520.48	34134.37
520.65	34263.10
520.83	34246.72
521.00	34565.03
521.17	34314.59
521.34	34251.40
521.52	34082.88
521.69	34560.35
521.86	34778.02
522.03	34749.93
522.20	34806.11
522.38	34913.77
522.55	35150.17
522.72	35070.59
522.89	35077.61
523.07	35646.36
523.24	35068.25
523.41	34998.03
523.58	35218.04
523.75	35723.60
523.92	34958.24
524.10	35435.71
524.27	35452.09
524.44	35395.92
524.61	35817.22
524.78	35716.58
524.96	36208.09
525.13	36112.13
525.30	36400.01
525.47	36168.30
525.64	36048.93
525.81	36030.21
525.98	36282.98
526.16	36233.83
526.33	35997.44
526.50	36531.08
526.67	36521.72
526.84	36601.30
527.01	36610.66
527.18	36559.17
527.36	36636.41
527.53	36973.44
527.70	37008.55
527.87	37043.66
528.04	36893.86
528.21	36849.39
528.38	37151.32
528.55	37139.62
528.72	37223.88
528.89	37434.53
529.07	37167.71
529.24	37242.60
529.41	37586.66
529.58	37399.42
529.75	37656.88
529.92	37713.05
530.09	37724.75
530.26	37380.70
530.43	37904.98
530.60	37741.14
530.77	37750.50
530.94	37804.33
531.11	37886.25
531.28	37727.10
531.46	37839.44
531.63	38253.72
531.80	37940.08
531.97	38876.30
532.14	38237.33
532.31	38223.29
532.48	38700.76
532.65	38960.56
532.82	38382.45
532.99	38827.15
533.16	38735.87
533.33	38850.55
533.50	38850.55
533.67	38548.62
533.84	38513.52
534.01	38794.38
534.18	38527.56
534.35	39407.60
534.52	38604.80
534.69	39206.31
534.86	39323.34
535.03	39164.18
535.20	39372.49
535.37	38972.26
535.54	39363.13
535.71	39435.69
535.88	39789.11
536.05	39213.34
536.22	39798.47
536.38	39828.90
536.55	39796.13
536.72	39536.33
536.89	39625.27
537.06	39679.10
537.23	39796.13
537.40	39512.92
537.57	39894.43
537.74	39985.71
537.91	39885.07
538.08	39952.94
538.25	39662.72
538.42	40009.12
538.59	40332.11
538.75	40161.25
538.92	40362.54
539.09	40507.65
539.26	40685.53
539.43	40514.67
539.60	40692.55
539.77	40350.84
539.94	40828.30
540.11	41078.74
540.28	41043.63
540.44	40816.60
540.61	40268.92
540.78	40451.48
540.95	40835.33
541.12	41017.89
541.29	40655.11
541.46	41165.34
541.62	41071.72
541.79	41375.99
541.96	40926.61
542.13	40556.80
542.30	40701.92
542.47	41399.40
542.63	41020.23
542.80	41378.33
542.97	41759.84
543.14	42003.25
543.31	41865.16
543.48	41694.30
543.64	41907.29
543.81	42019.64
543.98	41546.85
544.15	41853.46
544.32	41942.40
544.48	41968.15
544.65	41968.15
544.82	42307.52
544.99	41998.57
545.16	42265.39
545.32	42216.24
545.49	42366.04
545.66	42747.54
545.83	42541.58
546.00	42316.89
546.16	42710.10
546.33	42515.83
546.50	42457.32
546.67	42724.14
546.83	42162.41
547.00	42763.93
547.17	42873.93
547.34	42803.72
547.50	43068.20
547.67	43421.62
547.84	43023.73
548.00	42906.70
548.17	43489.49
548.34	43063.52
548.51	43566.73
548.67	42997.98
548.84	43077.56
549.01	43276.51
549.18	42656.26
549.34	43091.60
549.51	43707.16
549.68	43643.97
549.84	43438.00
550.01	43538.65
550.18	43274.16
550.34	43229.69
550.51	44018.46
550.68	44027.82
550.84	43164.16
551.01	44198.68
551.18	43613.54
551.34	43831.21
551.51	43995.05
551.68	43620.56
551.84	43688.44
552.01	43548.01
552.18	44086.33
552.34	43709.50
552.51	43716.53
552.68	43952.92
552.84	43962.28
553.01	43807.81
553.18	43782.06
553.34	44196.34
553.51	44201.02
553.67	44304.00
553.84	44048.88
554.01	44369.54
554.17	44383.58
554.34	44797.85
554.51	44172.93
554.67	44339.11
554.84	44835.30
555.00	44516.99
555.17	44184.63
555.33	44999.14
555.50	44383.58
555.67	44315.70
555.83	44643.38
556.00	44755.72
556.16	45394.69
556.33	45031.91
556.50	44804.88
556.66	44823.60
556.83	44694.87
556.99	45003.82
557.16	44959.35
557.32	45132.55
557.49	45006.16
557.65	44374.22
557.82	44940.63
557.98	44912.54
558.15	45172.34
558.32	45099.78
558.48	45249.58
558.65	45464.91
558.81	45249.58
558.98	44849.35
559.14	45280.00
559.31	45530.44
559.47	44776.79
559.64	45294.05
559.80	45333.84
559.97	45464.91
560.13	44727.64
560.30	45649.81
560.46	45727.05
560.63	45574.91
560.79	45862.80
560.96	45610.02
561.12	45844.07
561.29	45741.09
561.45	45762.15
561.61	45846.41
561.78	45090.42
561.94	45673.21
562.11	45371.28
562.27	45668.53
562.44	45635.77
562.60	45897.91
562.77	45928.33
562.93	45542.14
563.10	45965.78
563.26	45722.37
563.42	46129.62
563.59	46284.09
563.75	45605.34
563.92	45904.93
564.08	45900.25
564.24	45914.29
564.41	45656.83
564.57	46410.48
564.74	45778.54
564.90	46089.83
565.07	46129.62
565.23	46192.81
565.39	45923.65
565.56	45982.16
565.72	46248.99
565.88	46080.47
566.05	46312.18
566.21	46038.34
566.38	46204.52
566.54	46012.59
566.70	46323.88
566.87	45949.40
567.03	45752.79
567.19	46522.83
567.36	46043.02
567.52	46253.67
567.68	46344.95
567.85	46663.26
568.01	46426.87
568.17	46810.71
568.34	46520.49
568.50	46419.84
568.66	46267.71
568.83	46309.84
568.99	46918.38
569.15	46511.13
569.32	46263.03
569.48	46092.17
569.64	46937.10
569.81	46806.03
569.97	46635.17
570.13	46761.56
570.30	46209.20
570.46	46389.42
570.62	46564.96
570.78	46770.93
570.95	46323.88
571.11	46700.71
571.27	46604.75
571.43	46618.79
571.60	46527.51
571.76	46101.53
571.92	46574.32
572.09	46658.58
572.25	46595.38
572.41	46417.50
572.57	46499.42
572.74	47105.62
572.90	46618.79
573.06	46658.58
573.22	46518.15
573.38	47030.72
573.55	46670.28
573.71	46913.70
573.87	46871.57
574.03	46761.56
574.20	47077.54
574.36	46476.02
574.52	46960.51
574.68	46918.38
574.84	47423.93
575.01	47213.29
575.17	46892.63
575.33	46937.10
575.49	46714.75
575.65	47157.11
575.82	46838.80
575.98	46995.62
576.14	46990.94
576.30	47681.39
576.46	47056.47
576.62	47023.70
576.79	47222.65
576.95	46366.01
577.11	47178.18
577.27	47054.13
577.43	47133.71
577.59	46831.78
577.75	46639.86
577.92	47023.70
578.08	47107.96
578.24	46904.34
578.40	47297.55
578.56	47452.02
578.72	47365.42
578.88	47157.11
579.04	47199.24
579.21	47175.84
579.37	47246.05
579.53	47569.05
579.69	46880.93
579.85	47393.51
580.01	47079.88
580.17	47026.04
580.33	46955.83
580.49	47377.12
580.65	46843.48
580.82	47302.23
580.98	46909.02
581.14	46871.57
581.30	47189.88
581.46	46913.70
581.62	47075.19
581.78	46829.44
581.94	46946.47
582.10	47409.89
582.26	47213.29
582.42	47114.98
582.58	47405.21
582.74	47119.66
582.90	47002.64
583.06	47278.82
583.22	47100.94
583.38	47555.00
583.54	47459.04
583.70	47061.15
583.86	47402.87
584.02	47349.04
584.18	47583.09
584.34	47234.35
584.50	47187.54
584.66	47217.97
584.82	47655.65
584.98	47604.16
585.14	47571.39
585.30	47107.96
585.46	47452.02
585.62	47295.21
585.78	47576.07
585.94	47210.95
586.10	47313.93
586.26	46932.42
586.42	47028.38
586.58	47241.37
586.74	47515.22
586.90	47028.38
587.06	47091.58
587.22	46981.57
587.38	47255.42
587.54	47629.90
587.70	47730.54
587.86	47302.23
588.02	47473.09
588.18	47510.53
588.34	47276.48
588.49	47187.54
588.65	47171.16
588.81	47430.96
588.97	47732.89
589.13	47243.71
589.29	47269.46
589.45	47646.29
589.61	47901.40
589.77	47999.71
589.93	47365.42
590.08	47440.32
590.24	47721.18
590.40	47622.88
590.56	47962.26
590.72	47842.89
590.88	47707.14
591.04	47255.42
591.20	47491.81
591.35	47428.62
591.51	48432.71
591.67	48004.39
591.83	47861.61
591.99	47915.45
592.15	47767.99
592.31	47688.42
592.46	47746.93
592.62	47473.09
592.78	47931.83
592.94	48208.01
593.10	48325.04
593.26	48175.25
593.41	48402.28
593.57	47370.10
593.73	48051.20
593.89	47955.24
594.05	48088.65
594.20	47920.13
594.36	48280.57
594.52	47917.79
594.68	48217.38
594.84	47856.93
594.99	47980.98
595.15	47749.27
595.31	47892.04
595.47	47585.43
595.62	47966.94
595.78	48137.80
595.94	48046.52
596.10	47807.78
596.25	48105.03
596.41	48149.50
596.57	47824.17
596.73	48245.46
596.88	47955.24
597.04	48402.28
597.20	48514.62
597.36	47735.23
597.51	47973.96
597.67	48018.43
597.83	47927.15
597.99	48025.45
598.14	48254.82
598.30	48051.20
598.46	48039.50
598.61	48505.26
598.77	48261.85
598.93	48271.21
599.09	47931.83
599.24	48542.71
599.40	48011.41
599.56	48472.49
599.71	48154.18
599.87	48388.24
600.03	48329.72
600.18	48327.38
600.34	48055.88
600.50	48245.46
600.65	48105.03
600.81	48301.64
600.97	48062.90
601.12	48229.08
601.28	48371.85
601.44	48030.13
601.59	47870.98
601.75	48081.63
601.91	48032.47
602.06	48329.72
602.22	48472.49
602.37	47873.32
602.53	48456.11
602.69	48322.70
602.84	48243.12
603.00	48252.48
603.16	48069.92
603.31	48325.04
603.47	48318.02
603.62	48198.65
603.78	48268.87
603.94	48631.65
604.09	48025.45
604.25	48147.16
604.40	47856.93
604.56	48231.42
604.71	48193.97
604.87	48172.91
605.03	47842.89
605.18	48240.78
605.34	48011.41
605.49	48058.22
605.65	48294.61
605.80	48086.31
605.96	47547.98
606.12	48226.74
606.27	48055.88
606.43	48238.44
606.58	48186.95
606.74	47824.17
606.89	47716.50
607.05	48353.13
607.20	48318.02
607.36	47763.31
607.51	48158.86
607.67	47512.88
607.82	47866.30
607.98	47997.37
608.13	48128.44
608.29	47782.04
608.44	48421.00
608.60	47702.46
608.75	48313.34
608.91	48266.53
609.06	47852.25
609.22	48446.75
609.37	47973.96
609.53	48474.84
609.68	48114.39
609.84	47840.55
609.99	47674.37
610.15	48144.82
610.30	48098.01
610.46	47924.81
610.61	47690.76
610.76	47889.70
610.92	47274.14
611.07	47608.84
611.23	47775.02
611.38	47650.97
611.54	47632.24
611.69	47971.62
611.84	48039.50
612.00	47606.50
612.15	47646.29
612.31	47838.21
612.46	47430.96
612.62	47805.44
612.77	47498.83
612.92	47377.12
613.08	47374.78
613.23	47632.24
613.39	47615.86
613.54	47608.84
613.69	47646.29
613.85	47665.01
614.00	47690.76
614.15	47388.83
614.31	47655.65
614.46	47634.58
614.62	47613.52
614.77	47679.05
614.92	47693.10
615.08	47428.62
615.23	47351.38
615.38	47737.57
615.54	47447.34
615.69	47608.84
615.84	47634.58
616.00	48083.97
616.15	47529.26
616.30	47201.58
616.46	47363.08
616.61	47295.21
616.76	47533.94
616.92	46885.61
617.07	47086.90
617.22	47215.63
617.37	46927.74
617.53	46934.76
617.68	46801.35
617.83	47077.54
617.99	47072.85
618.14	47367.76
618.29	47360.74
618.45	46562.62
618.60	46770.93
618.75	46485.38
618.90	46803.69
619.06	47033.07
619.21	47086.90
619.36	47063.49
619.51	46719.43
619.67	46925.40
619.82	46637.51
619.97	47016.68
620.12	46906.68
620.28	46864.55
620.43	47157.11
620.58	46916.04
620.73	47044.77
620.89	46859.87
621.04	46707.73
621.19	47068.17
621.34	46894.97
621.49	46656.24
621.65	46810.71
621.80	47407.55
621.95	46555.60
622.10	46836.46
622.25	46728.80
622.41	46836.46
622.56	46239.62
622.71	46373.03
622.86	46515.81
623.01	46543.89
623.16	46417.50
623.32	46389.42
623.47	46543.89
623.62	46663.26
623.77	46693.69
623.92	46518.15
624.07	46899.65
624.23	46782.63
624.38	46424.53
624.53	46014.93
624.68	46351.97
624.83	46085.15
624.98	46518.15
625.13	45696.62
625.29	46302.82
625.44	46085.15
625.59	46326.22
625.74	45925.99
625.89	46068.76
626.04	46143.66
626.19	45862.80
626.34	46333.24
626.49	46057.06
626.65	45467.25
626.80	46138.98
626.95	45998.55
627.10	45450.86
627.25	45832.37
627.40	45846.41
627.55	45558.53
627.70	45481.29
627.85	45717.68
628.00	45958.76
628.15	45968.12
628.30	45619.38
628.45	45469.59
628.60	45268.30
628.76	45198.09
628.91	45734.07
629.06	45160.64
629.21	45439.16
629.36	45591.30
629.51	45535.12
629.66	46005.57
629.81	45617.04
629.96	45289.37
630.11	45624.06
630.26	45324.47
630.41	45453.20
630.56	44795.51
630.71	45462.57
630.86	44989.78
631.01	44994.46
631.16	45390.01
631.31	45312.77
631.46	45055.31
631.61	45209.79
631.76	45043.61
631.91	45010.84
632.06	45375.97
632.21	45347.88
632.36	45397.03
632.51	44619.97
632.66	45272.98
632.81	45013.18
632.96	44907.86
633.10	44818.92
633.25	45141.91
633.40	45034.25
633.55	44844.66
633.70	45013.18
633.85	44626.99
634.00	44975.73
634.15	44947.65
634.30	44727.64
634.45	44772.11
634.60	44605.93
634.75	44823.60
634.90	44776.79
635.05	44868.07
635.19	44741.68
635.34	44334.43
635.49	44313.36
635.64	44713.59
635.79	45013.18
635.94	44374.22
636.09	44741.68
636.24	44645.72
636.39	44687.85
636.53	44596.57
636.68	43852.28
636.83	44034.84
636.98	43873.34
637.13	44268.89
637.28	44107.40
637.43	44137.82
637.57	43948.24
637.72	44137.82
637.87	44102.71
638.02	44098.03
638.17	43852.28
638.32	44264.21
638.46	43887.39
638.61	43634.61
638.76	43599.50
638.91	43863.98
639.06	43749.29
639.20	43882.70
639.35	43353.74
639.50	43555.03
639.65	43789.08
639.80	44018.46
639.94	44217.40
640.09	43711.84
640.24	44030.16
640.39	43100.97
640.54	43529.28
640.68	43796.10
640.83	43889.73
640.98	43641.63
641.13	43618.22
641.27	43761.00
641.42	43395.87
641.57	43512.90
641.72	43615.88
641.86	43367.79
642.01	43337.36
642.16	43192.25
642.31	43201.61
642.45	43391.19
642.60	42944.15
642.75	43054.15
642.90	43669.72
643.04	43416.94
643.19	43122.03
643.34	43264.80
643.48	42862.23
643.63	43021.39
643.78	43316.29
643.93	43283.53
644.07	43239.06
644.22	43281.19
644.37	43257.78
644.51	42986.28
644.66	43124.37
644.81	42951.17
644.95	43388.85
645.10	43143.09
645.25	42667.97
645.39	42693.71
645.54	42930.11
645.69	42375.40
645.83	42539.24
645.98	42340.29
646.13	42574.34
646.27	42539.24
646.42	42422.21
646.57	42780.31
646.71	42904.36
646.86	43372.47
647.00	43337.36
647.15	42487.74
647.30	43026.07
647.44	42665.63
647.59	43026.07
647.74	42408.17
647.88	42714.78
648.03	42691.37
648.17	42667.97
648.32	42497.11
648.47	42686.69
648.61	42679.67
648.76	42412.85
648.90	42155.39
649.05	42445.62
649.20	42607.11
649.34	42857.55
649.49	42024.32
649.63	42405.83
649.78	42253.69
649.92	42497.11
650.07	42623.50
650.21	42103.90
650.36	42593.07
650.51	42160.07
650.65	42555.62
650.80	42782.65
650.94	41855.80
651.09	41921.34
651.23	41956.44
651.38	41902.61
651.52	41574.94
651.67	41958.78
651.81	42354.33
651.96	41549.19
652.10	41645.15
652.25	41579.62
652.39	41895.59
652.54	41586.64
652.68	41722.39
652.83	42087.51
652.97	41890.91
653.12	41902.61
653.26	41406.42
653.41	41361.95
653.55	41638.13
653.70	41675.58
653.84	41895.59
653.99	41450.89
654.13	41476.63
654.27	41518.76
654.42	41701.32
654.56	41055.34
654.71	41666.22
654.85	41408.76
655.00	41544.51
655.14	41621.75
655.29	41801.97
655.43	41560.89
655.57	41216.83
655.72	40917.25
655.86	40863.41
656.01	40905.54
656.15	40638.72
656.30	40840.01
656.44	41258.96
656.58	41228.54
656.73	40933.63
656.87	40957.03
657.01	40816.60
657.16	40844.69
657.30	41158.32
657.45	41191.09
657.59	40783.83
657.73	40437.44
657.88	40460.84
658.02	41184.07
658.16	41340.88
658.31	41146.62
658.45	40891.50
658.60	40854.05
658.74	40779.15
658.88	40683.19
659.03	40793.20
659.17	39990.39
659.31	39995.07
659.46	40549.78
659.60	40329.77
659.74	40046.57
659.89	39861.66
660.03	39735.27
660.17	39887.41
660.32	39971.67
660.46	39990.39
660.60	39725.91
660.74	39768.04
660.89	40184.66
661.03	39482.50
661.17	39658.04
661.32	39576.12
661.46	39651.02
661.60	39461.43
661.74	39482.50
661.89	39363.13
662.03	39955.29
662.17	39278.87
662.31	39384.19
662.46	39358.45
662.60	39283.55
662.74	38782.68
662.88	39229.72
663.03	38951.20
663.17	38878.64
663.31	39026.09
663.45	39082.27
663.60	38995.67
663.74	38717.14
663.88	38703.10
664.02	38504.15
664.17	38696.08
664.31	38768.63
664.45	38588.41
664.59	38527.56
664.73	38195.20
664.88	38637.56
665.02	38300.53
665.16	38291.16
665.30	38682.03
665.44	38267.76
665.59	38277.12
665.73	38124.99
665.87	37586.66
666.01	37895.61
666.15	37883.91
666.29	37909.66
666.44	38209.25
666.58	38085.20
666.72	37460.27
666.86	37600.71
667.00	37518.79
667.14	37621.77
667.28	37387.72
667.43	37504.74
667.57	37486.02
667.71	37626.45
667.85	37528.15
667.99	37408.78
668.13	37127.92
668.27	36856.42
668.41	36903.23
668.56	36816.63
668.70	36404.69
668.84	36622.36
668.98	36510.02
669.12	36751.09
669.26	36636.41
669.40	37104.51
669.54	36554.49
669.68	36765.14
669.82	36629.38
669.96	36313.41
670.10	35950.63
670.25	36051.27
670.39	35882.75
670.53	36355.54
670.67	36046.59
670.81	35878.07
670.95	36137.87
671.09	35758.70
671.23	35959.99
671.37	35662.74
671.51	35847.64
671.65	35571.46
671.79	35367.84
671.93	35672.10
672.07	35772.75
672.21	35431.03
672.35	34953.56
672.49	35693.17
672.63	35112.72
672.77	34960.58
672.91	34976.97
673.05	35005.05
673.19	34618.86
673.33	34670.36
673.47	34719.51
673.61	34288.85
673.75	34747.59
673.89	34511.20
674.03	34403.53
674.17	33975.22
674.31	34110.97
674.45	33565.62
674.59	33802.02
674.73	34164.80
674.87	33727.12
675.01	33682.65
675.15	33436.89
675.29	33556.26
675.43	33563.28
675.56	33645.20
675.70	32994.53
675.84	33429.87
675.98	32577.92
676.12	33376.04
676.26	33146.67
676.40	33076.45
676.54	32662.18
676.68	32931.34
676.82	31885.12
676.96	32533.45
677.10	32741.75
677.23	32409.40
677.37	32095.77
677.51	32229.18
677.65	31910.86
677.79	32016.19
677.93	31835.97
678.07	31871.07
678.21	31924.91
678.34	31622.98
678.48	31000.40
678.62	31473.18
678.76	31110.40
678.90	30909.11
679.04	31316.37
679.18	31428.71
679.31	30579.10
679.45	31140.83
679.59	30651.66
679.73	30960.61
679.87	30513.56
680.00	30387.18
680.14	30558.03
680.28	30293.55
680.42	30387.18
680.56	29762.25
680.70	30061.84
680.83	30129.72
680.97	30288.87
681.11	29914.39
681.25	29563.31
681.39	29170.10
681.52	29364.36
681.66	28961.79
681.80	28774.55
681.94	29069.45
682.07	28535.81
682.21	28496.02
682.35	28617.73
682.49	28580.28
682.62	28458.57
682.76	28568.58
682.90	28634.11
683.04	28208.14
683.17	28517.09
683.31	27983.44
683.45	28226.86
683.59	27831.31
683.72	27707.26
683.86	27772.80
684.00	27426.40
684.13	27508.32
684.27	27613.64
684.41	27332.78
684.55	27344.48
684.68	27112.77
684.82	26665.72
684.96	26960.63
685.09	27007.44
685.23	27007.44
685.37	27349.16
685.50	27042.55
685.64	26913.82
685.78	26696.15
685.91	26157.83
686.05	25968.24
686.19	25673.34
686.32	25633.55
686.46	25893.35
686.60	25348.00
686.73	25766.96
686.87	25429.92
687.01	25687.38
687.14	25450.99
687.28	25261.40
687.42	25514.18
687.55	25041.39
687.69	25249.70
687.82	24905.64
687.96	25071.82
688.10	24893.94
688.23	24971.18
688.37	24893.94
688.50	24767.55
688.64	24683.29
688.78	24187.10
688.91	24283.06
689.05	24294.76
689.18	24067.73
689.32	23770.48
689.46	23810.27
689.59	23342.16
689.73	23964.75
689.86	23971.77
690.00	23271.95
690.13	23515.36
690.27	23297.69
690.41	23129.17
690.54	23194.71
690.68	22948.95
690.81	23131.51
690.95	22979.38
691.08	22745.33
691.22	22478.50
691.35	22560.42
691.49	22539.36
691.62	22672.77
691.76	22122.74
691.89	22207.00
692.03	21804.43
692.16	21811.45
692.30	21832.52
692.43	22045.51
692.57	21584.42
692.70	21535.27
692.84	21420.58
692.97	21553.99
693.11	21263.77
693.24	20980.56
693.38	21109.29
693.51	21043.76
693.65	20788.64
693.78	20823.75
693.92	20643.52
694.05	20570.97
694.19	20437.56
694.32	20442.24
694.45	20737.15
694.59	20769.91
694.72	20835.45
694.86	20030.30
694.99	20133.29
695.13	19896.89
695.26	19719.01
695.39	19522.41
695.53	19660.50
695.66	19889.87
695.80	19412.40
695.93	19892.21
696.07	19386.66
696.20	19016.85
696.33	18611.94
696.47	18757.05
696.60	19236.86
696.73	19234.52
696.87	19129.20
697.00	19075.37
697.14	18588.53
697.27	18417.68
697.40	18520.66
697.54	18434.06
697.67	18731.31
697.80	18459.81
697.94	18272.56
698.07	18148.51
698.21	18099.36
698.34	17923.82
698.47	17926.16
698.61	17238.05
698.74	17593.81
698.87	17722.54
699.01	17549.34
699.14	17530.61
699.27	17355.07
699.40	17291.88
699.54	16999.31
699.67	17160.81
699.80	17163.15
699.94	16627.17
700.07	16807.39
700.20	16847.18
700.34	16723.13
700.47	16634.19
700.60	16875.26
700.73	16664.61
700.87	16554.61
701.00	16025.65
701.13	16243.32
701.26	15878.19
701.40	16009.26
701.53	15850.11
701.66	16013.95
701.79	15829.04
701.93	15627.76
702.06	15508.39
702.19	15602.01
702.32	15770.53
702.46	15733.08
702.59	15435.83
702.72	15407.75
702.85	15686.27
702.99	15314.13
703.12	15255.61
703.25	14958.36
703.38	15002.83
703.51	15066.03
703.65	14710.27
703.78	14569.83
703.91	14450.47
704.04	14480.89
704.17	14576.86
704.31	14487.92
704.44	14754.74
704.57	14324.08
704.70	14347.48
704.83	14361.53
704.96	14087.68
705.10	13958.96
705.23	13769.37
>>>>>End Processed Spectral Data<<<<<
