SpectraSuite Data File
++++++++++++++++++++++++++++++++++++
Date: Fri Oct 25 10:43:18 EDT 2013
User: price-jones
Dark Spectrum Present: No
Reference Spectrum Present: No
Number of Sampled Component Spectra: 1
Spectrometers: USB2+H05261
Integration Time (usec): 100000 (USB2+H05261)
Spectra Averaged: 1 (USB2+H05261)
Boxcar Smoothing: 0 (USB2+H05261)
Correct for Electrical Dark: No (USB2+H05261)
Strobe/Lamp Enabled: No (USB2+H05261)
Correct for Detector Non-linearity: No (USB2+H05261)
Correct for Stray Light: No (USB2+H05261)
Number of Pixels in Processed Spectrum: 2048
>>>>>Begin Processed Spectral Data<<<<<
365.73	100.64
365.92	100.64
366.12	100.64
366.32	79.58
366.52	0.00
366.72	74.90
366.91	46.81
367.11	37.45
367.31	0.00
367.51	16.38
367.70	30.43
367.90	93.62
368.10	98.30
368.30	0.00
368.49	70.22
368.69	65.54
368.89	86.60
369.09	0.00
369.28	63.19
369.48	65.54
369.68	88.94
369.87	84.26
370.07	77.24
370.27	84.26
370.47	119.37
370.66	393.21
370.86	374.49
371.06	442.36
371.25	440.02
371.45	404.91
371.65	374.49
371.84	435.34
372.04	383.85
372.24	493.85
372.44	428.32
372.63	479.81
372.83	512.58
373.03	442.36
373.22	489.17
373.42	512.58
373.62	559.39
373.81	589.82
374.01	571.09
374.21	505.56
374.40	564.07
374.60	580.45
374.79	456.40
374.99	634.29
375.19	554.71
375.38	547.69
375.58	521.94
375.78	575.77
375.97	620.24
376.17	601.52
376.37	543.00
376.56	486.83
376.76	667.05
376.95	608.54
377.15	655.35
377.35	655.35
377.54	653.01
377.74	636.63
377.93	627.26
378.13	702.16
378.33	634.29
378.52	648.33
378.72	699.82
378.91	641.31
379.11	669.39
379.31	620.24
379.50	629.60
379.70	624.92
379.89	697.48
380.09	718.54
380.28	629.60
380.48	725.57
380.68	671.73
380.87	744.29
381.07	697.48
381.26	674.07
381.46	678.76
381.65	688.12
381.85	655.35
382.04	615.56
382.24	718.54
382.43	786.42
382.63	692.80
382.83	734.93
383.02	734.93
383.22	734.93
383.41	706.84
383.61	669.39
383.80	725.57
384.00	699.82
384.19	786.42
384.39	753.65
384.58	875.36
384.78	819.19
384.97	739.61
385.17	849.61
385.36	800.46
385.56	835.57
385.75	870.68
385.95	826.21
386.14	905.79
386.34	856.64
386.53	748.97
386.72	828.55
386.92	812.17
387.11	926.85
387.31	936.21
387.50	784.08
387.70	856.64
387.89	903.45
388.09	891.74
388.28	823.87
388.48	882.38
388.67	1004.09
388.86	912.81
389.06	842.59
389.25	952.60
389.45	987.71
389.64	976.00
389.84	1039.20
390.03	945.58
390.22	966.64
390.42	1018.13
390.61	1036.86
390.81	1137.50
391.00	1034.52
391.19	1053.24
391.39	1011.11
391.58	1027.50
391.78	1062.60
391.97	1067.28
392.16	997.07
392.36	985.37
392.55	1020.47
392.75	1025.15
392.94	992.39
393.13	999.41
393.33	1015.79
393.52	1060.26
393.71	1097.71
393.91	1081.33
394.10	1109.41
394.29	1163.25
394.49	1118.78
394.68	1198.35
394.88	1287.29
395.07	1179.63
395.26	1221.76
395.46	1184.31
395.65	1270.91
395.84	1235.80
396.04	1233.46
396.23	1179.63
396.42	1139.84
396.62	1198.35
396.81	1233.46
397.00	1151.54
397.19	1240.48
397.39	1313.04
397.58	1310.70
397.77	1357.51
397.97	1425.39
398.16	1453.47
398.35	1348.15
398.55	1483.90
398.74	1427.73
398.93	1596.25
399.12	1469.86
399.32	1437.09
399.51	1521.35
399.70	1554.12
399.90	1549.43
400.09	1570.50
400.28	1521.35
400.47	1504.96
400.67	1633.69
400.86	1692.21
401.05	1638.38
401.24	1675.82
401.44	1650.08
401.63	1764.76
401.82	1710.93
402.01	1708.59
402.21	1734.34
402.40	1785.83
402.59	1699.23
402.78	1827.96
402.97	1703.91
403.17	1804.55
403.36	1778.81
403.55	1856.04
403.74	1886.47
403.93	1863.07
404.13	1820.94
404.32	1874.77
404.51	1834.98
404.70	1900.52
404.89	1912.22
405.09	1987.11
405.28	1849.02
405.47	1926.26
405.66	1877.11
405.85	2033.93
406.05	1898.17
406.24	1916.90
406.43	1893.49
406.62	2043.29
406.81	2139.25
407.00	2026.90
407.20	2052.65
407.39	2015.20
407.58	2104.14
407.77	2139.25
407.96	2174.36
408.15	2246.91
408.34	2193.08
408.54	2141.59
408.73	2305.43
408.92	2319.47
409.11	2239.89
409.30	2270.32
409.49	2345.22
409.68	2340.54
409.87	2249.25
410.07	2345.22
410.26	2328.83
410.45	2380.32
410.64	2466.92
410.83	2408.41
411.02	2459.90
411.21	2583.95
411.40	2476.29
411.59	2464.58
411.78	2518.42
411.98	2635.44
412.17	2572.25
412.36	2635.44
412.55	2733.75
412.74	2675.23
412.93	2705.66
413.12	2689.28
413.31	2768.85
413.50	2829.71
413.69	2801.62
413.88	2895.24
414.07	2832.05
414.26	2782.90
414.45	2897.58
414.64	2972.48
414.83	3049.72
415.02	3110.57
415.22	2890.56
415.41	3178.45
415.60	3054.40
415.79	3117.59
415.98	3321.22
416.17	3300.16
416.36	3222.92
416.55	3098.87
416.74	3353.99
416.93	3332.92
417.12	3269.73
417.31	3391.44
417.50	3342.28
417.69	3468.67
417.88	3375.05
418.07	3410.16
418.26	3496.76
418.45	3398.46
418.64	3581.02
418.83	3599.74
419.02	3529.53
419.21	3534.21
419.39	3531.87
419.58	3552.93
419.77	3508.46
419.96	3569.32
420.15	3515.48
420.34	3665.28
420.53	3588.04
420.72	3779.97
420.91	3754.22
421.10	3784.65
421.29	3843.16
421.48	3681.66
421.67	3737.84
421.86	3864.22
422.05	3693.37
422.24	3885.29
422.43	3691.02
422.61	3824.44
422.80	3899.33
422.99	3936.78
423.18	3950.82
423.37	3939.12
423.56	4009.34
423.75	3906.35
423.94	3896.99
424.13	3660.60
424.32	3779.97
424.50	3936.78
424.69	4065.51
424.88	3911.04
425.07	3889.97
425.26	3852.52
425.45	3953.16
425.64	4058.49
425.83	3887.63
426.01	4007.00
426.20	3960.19
426.39	4065.51
426.58	3950.82
426.77	3901.67
426.96	3953.16
427.15	3988.27
427.33	4138.07
427.52	4042.11
427.71	4119.34
427.90	4070.19
428.09	4231.69
428.28	4159.13
428.46	4124.02
428.65	4004.66
428.84	4222.33
429.03	4203.60
429.22	4114.66
429.40	4056.15
429.59	4121.68
429.78	3824.44
429.97	3772.94
430.16	3967.21
430.34	4091.26
430.53	4093.60
430.72	4159.13
430.91	4198.92
431.10	4280.84
431.28	4557.02
431.47	4561.70
431.66	4521.92
431.85	4369.78
432.03	4470.42
432.22	4648.30
432.41	4559.36
432.60	4629.58
432.79	4606.17
432.97	4648.30
433.16	4681.07
433.35	4564.04
433.54	4744.27
433.72	4723.20
433.91	4697.46
434.10	4643.62
434.28	4631.92
434.47	4777.03
434.66	4990.02
434.85	4830.87
435.03	4814.48
435.22	4851.93
435.41	5078.96
435.59	5008.75
435.78	4999.38
435.97	5132.79
436.16	5046.20
436.34	5055.56
436.53	5071.94
436.72	5149.18
436.90	5130.45
437.09	5156.20
437.28	5071.94
437.46	5111.73
437.65	5095.35
437.84	5203.01
438.02	5043.85
438.21	5116.41
438.40	5228.76
438.58	5242.80
438.77	5296.63
438.96	5284.93
439.14	5418.34
439.33	5404.30
439.52	5624.31
439.70	5444.09
439.89	5767.08
440.08	5713.25
440.26	5600.90
440.45	5692.18
440.63	5734.31
440.82	6061.99
441.01	5966.03
441.19	5909.85
441.38	6087.73
441.57	6113.48
441.75	6218.80
441.94	6251.57
442.12	6349.87
442.31	6331.15
442.50	6286.68
442.68	6284.34
442.87	6207.10
443.05	6317.11
443.24	6282.00
443.43	6382.64
443.61	6282.00
443.80	6532.44
443.98	6370.94
444.17	6183.70
444.35	6394.34
444.54	6497.33
444.73	6518.39
444.91	6490.31
445.10	6368.60
445.28	6401.37
445.47	6448.18
445.65	6441.15
445.84	6523.07
446.02	6689.25
446.21	6455.20
446.39	6431.79
446.58	6619.04
446.77	6668.19
446.95	6588.61
447.14	6602.65
447.32	6736.06
447.51	6574.56
447.69	6478.60
447.88	6698.61
448.06	6647.12
448.25	6518.39
448.43	6567.54
448.62	6759.47
448.80	6656.48
448.99	6705.63
449.17	6874.15
449.36	6684.57
449.54	7059.06
449.73	6817.98
449.91	7016.93
450.10	6991.18
450.28	7140.97
450.46	7117.57
450.65	7255.66
450.83	7056.72
451.02	7145.66
451.20	7197.15
451.39	7241.62
451.57	7281.41
451.76	7159.70
451.94	7145.66
452.13	7316.51
452.31	7122.25
452.49	7108.21
452.68	7222.89
452.86	7227.57
453.05	7169.06
453.23	7162.04
453.42	7356.30
453.60	7365.67
453.78	7463.97
453.97	7265.02
454.15	7473.33
454.34	7412.48
454.52	7590.36
454.70	7473.33
454.89	7555.25
455.07	7454.61
455.26	7606.74
455.44	7541.21
455.62	7829.09
455.81	7707.38
455.99	7857.18
456.17	7742.49
456.36	7592.70
456.54	7744.83
456.73	7793.98
456.91	8198.90
457.09	8065.49
457.28	8245.71
457.46	7817.39
457.64	8226.98
457.83	8102.93
458.01	8056.12
458.19	8248.05
458.38	8121.66
458.56	8088.89
458.74	8037.40
458.93	8381.46
459.11	8276.13
459.29	8208.26
459.48	8191.88
459.66	8327.63
459.84	8266.77
460.03	8416.57
460.21	8411.89
460.39	8446.99
460.57	8439.97
460.76	8416.57
460.94	8645.94
461.12	8540.61
461.31	8709.13
461.49	8435.29
461.67	8479.76
461.85	8659.98
462.04	8772.33
462.22	9294.27
462.40	8697.43
462.59	8882.33
462.77	8912.76
462.95	8875.31
463.13	8844.88
463.32	8784.03
463.50	9036.81
463.68	9076.60
463.86	8903.40
464.05	8409.54
464.23	8727.86
464.41	8896.38
464.59	8720.84
464.78	9163.20
464.96	8971.27
465.14	8910.42
465.32	9006.38
465.50	9252.14
465.69	9071.92
465.87	9170.22
466.05	9193.62
466.23	9137.45
466.41	9083.62
466.60	9427.68
466.78	9355.12
466.96	9282.56
467.14	9490.87
467.32	9247.46
467.51	9542.36
467.69	9104.68
467.87	9446.40
468.05	9320.01
468.23	9287.25
468.41	9226.39
468.60	9621.94
468.78	9530.66
468.96	9303.63
469.14	9406.61
469.32	9586.83
469.50	9364.48
469.69	9514.28
469.87	9891.10
470.05	9830.25
470.23	9689.82
470.41	9778.76
470.59	9912.17
470.77	9900.47
470.95	9994.09
471.14	10019.83
471.32	10022.17
471.50	10377.94
471.68	10277.29
471.86	10258.57
472.04	10209.42
472.22	10490.28
472.40	10111.11
472.58	10424.75
472.77	10375.59
472.95	10530.07
473.13	10836.68
473.31	10548.79
473.49	10602.63
473.67	10551.14
473.85	10553.48
474.03	10951.37
474.21	10946.69
474.39	10897.53
474.57	10878.81
474.75	11021.58
474.93	11154.99
475.12	10836.68
475.30	11101.16
475.48	11227.55
475.66	11393.73
475.84	11290.74
476.02	11452.24
476.20	11494.37
476.38	11353.94
476.56	11840.77
476.74	11716.72
476.92	11822.05
477.10	11740.13
477.28	11920.35
477.46	11918.01
477.64	12035.03
477.82	12203.55
478.00	12315.90
478.18	12203.55
478.36	12294.83
478.54	12526.55
478.72	12641.23
478.90	12830.82
479.08	12744.22
479.26	13282.54
479.44	13142.11
479.62	13139.77
479.80	13188.92
479.98	13329.35
480.16	13427.65
480.34	13434.68
480.52	13888.74
480.70	13654.69
480.88	13659.37
481.06	13776.39
481.24	13879.38
481.41	14083.00
481.59	13909.80
481.77	14211.73
481.95	14305.35
482.13	14553.45
482.31	14436.42
482.49	14733.67
482.67	14576.86
482.85	14892.83
483.03	15026.24
483.21	15456.90
483.39	15330.51
483.57	15208.80
483.74	15410.09
483.92	15382.00
484.10	15555.20
484.28	15782.23
484.46	15868.83
484.64	15934.37
484.82	15742.44
485.00	15765.85
485.18	16002.24
485.35	16760.58
485.53	16013.95
485.71	16105.23
485.89	16285.45
486.07	16549.93
486.25	16549.93
486.43	16791.00
486.61	16992.29
486.78	17090.59
486.96	17294.22
487.14	17511.89
487.32	17420.61
487.50	17774.03
487.68	18132.13
487.85	18487.89
488.03	18452.78
488.21	18738.33
488.39	18338.10
488.57	18562.79
488.75	18473.85
488.92	18967.70
489.10	19145.58
489.28	19119.84
489.46	19454.53
489.64	19728.38
489.81	20173.08
489.99	20130.95
490.17	20020.94
490.35	20128.61
490.53	19817.32
490.70	20173.08
490.88	20189.46
491.06	20535.86
491.24	20475.01
491.41	20496.07
491.59	20582.67
491.77	20835.45
491.95	20807.36
492.13	21200.57
492.30	20978.22
492.48	21298.88
492.66	21481.44
492.84	21682.72
493.01	21717.83
493.19	21942.52
493.37	22207.00
493.54	21839.54
493.72	22239.77
493.90	22370.84
494.08	22750.01
494.25	23014.49
494.43	22885.76
494.61	23002.78
494.79	23342.16
494.96	23159.60
495.14	23522.38
495.32	23583.24
495.49	23281.31
495.67	23456.85
495.85	24004.53
496.02	24507.75
496.20	24208.16
496.38	24191.78
496.55	24231.57
496.73	24905.64
496.91	24802.66
497.09	24727.76
497.26	24968.84
497.44	25029.69
497.62	25060.12
497.79	25287.15
497.97	25139.69
498.14	24886.92
498.32	25429.92
498.50	25319.92
498.67	25762.28
498.85	25855.90
499.03	26071.23
499.20	25977.61
499.38	26106.34
499.56	26206.98
499.73	26211.66
499.91	26331.03
500.08	26586.15
500.26	25802.07
500.44	26787.43
500.61	26380.18
500.79	26036.12
500.97	26740.62
501.14	26663.38
501.32	26972.33
501.49	27171.28
501.67	26759.34
501.84	27187.66
502.02	27346.82
502.20	27578.53
502.37	27988.13
502.55	27463.85
502.72	27850.03
502.90	27730.67
503.07	27835.99
503.25	27744.71
503.43	27552.79
503.60	27934.29
503.78	28247.93
503.95	27838.33
504.13	28264.31
504.30	28325.16
504.48	28748.80
504.65	28268.99
504.83	28388.36
505.01	29090.52
505.18	28716.03
505.36	28797.95
505.53	29247.33
505.71	29567.99
505.88	29490.75
506.06	29151.37
506.23	29659.27
506.41	29397.13
506.58	29425.22
506.76	29289.46
506.93	29729.48
507.11	29263.72
507.28	29916.73
507.46	29481.39
507.63	29696.72
507.81	30106.31
507.98	29495.43
508.16	30125.04
508.33	30286.53
508.50	30403.56
508.68	30443.35
508.85	30742.94
509.03	30616.55
509.20	30562.72
509.38	31197.00
509.55	31110.40
509.73	31105.72
509.90	31384.24
510.08	31105.72
510.25	31374.88
510.42	31391.26
510.60	31910.86
510.77	31725.96
510.95	31861.71
511.12	31466.16
511.30	31889.80
511.47	32275.99
511.64	32177.68
511.82	32290.03
511.99	32112.15
512.17	32299.39
512.34	31695.53
512.51	32627.07
512.69	32704.31
512.86	32444.51
513.04	32456.21
513.21	32823.67
513.38	32510.04
513.56	32671.54
513.73	32393.01
513.90	32919.63
514.08	33069.43
514.25	32720.69
514.43	32561.53
514.60	32945.38
514.77	33118.58
514.95	33228.59
515.12	33645.20
515.29	33394.76
515.47	33853.51
515.64	33511.79
515.81	33603.07
515.99	33675.63
516.16	33493.07
516.33	33282.42
516.51	33572.64
516.68	32851.76
516.85	33181.77
517.03	33013.26
517.20	33729.46
517.37	33832.44
517.54	34307.57
517.72	33965.85
517.89	33923.72
518.06	33621.80
518.24	33954.15
518.41	34195.23
518.58	34518.22
518.75	34536.94
518.93	34595.46
519.10	34834.19
519.27	34567.37
519.45	34824.83
519.62	34754.61
519.79	35110.38
519.96	35033.14
520.14	34965.26
520.31	34780.36
520.48	35519.97
520.65	35089.31
520.83	35510.61
521.00	35606.57
521.17	35641.68
521.34	35660.40
521.52	35445.07
521.69	36147.23
521.86	36149.57
522.03	36112.13
522.20	35697.85
522.38	36318.09
522.55	36194.04
522.72	36055.95
522.89	36100.42
523.07	36521.72
523.24	36519.38
523.41	36683.22
523.58	36503.00
523.75	36935.99
523.92	37013.23
524.10	36779.18
524.27	36992.17
524.44	37249.63
524.61	37083.45
524.78	37046.00
524.96	37371.33
525.13	37069.40
525.30	37429.85
525.47	37303.46
525.64	37214.52
525.81	37179.41
525.98	37310.48
526.16	37067.06
526.33	36999.19
526.50	37123.24
526.67	36680.88
526.84	37120.90
527.01	36825.99
527.18	37242.60
527.36	37640.50
527.53	37764.54
527.70	38267.76
527.87	38384.79
528.04	37659.22
528.21	38134.35
528.38	38340.32
528.55	38323.93
528.72	38225.63
528.89	38384.79
529.07	37904.98
529.24	38127.33
529.41	38447.98
529.58	38314.57
529.75	38579.05
529.92	38787.36
530.09	38749.91
530.26	39068.22
530.43	38689.06
530.60	38752.25
530.77	38944.17
530.94	39206.31
531.11	39201.63
531.28	38848.21
531.46	39002.69
531.63	38848.21
531.80	39030.77
531.97	39168.87
532.14	39124.40
532.31	38770.97
532.48	39555.05
532.65	39180.57
532.82	39154.82
532.99	39412.28
533.16	39489.52
533.33	39590.16
533.50	39669.74
533.67	39690.80
533.84	39763.36
534.01	39983.37
534.18	39988.05
534.35	40055.93
534.52	40301.68
534.69	40297.00
534.86	40266.58
535.03	40355.52
535.20	40645.74
535.37	40634.04
535.54	40570.85
535.71	40297.00
535.88	40353.18
536.05	40168.27
536.22	40266.58
536.38	40509.99
536.55	40215.08
536.72	40275.94
536.89	40091.04
537.06	40589.57
537.23	40617.66
537.40	40624.68
537.57	41170.02
537.74	41043.63
537.91	41027.25
538.08	40884.48
538.25	40751.07
538.42	41141.94
538.59	41006.19
538.75	41127.89
538.92	41207.47
539.09	41109.17
539.26	40989.80
539.43	41104.49
539.60	41015.55
539.77	41078.74
539.94	41174.70
540.11	41198.11
540.28	41130.23
540.44	41256.62
540.61	41462.59
540.78	40950.01
540.95	41392.37
541.12	41235.56
541.29	40987.46
541.46	41268.33
541.62	41581.96
541.79	41888.57
541.96	41371.31
542.13	41312.80
542.30	41588.98
542.47	42012.62
542.63	41443.87
542.80	41797.29
542.97	42590.73
543.14	42377.74
543.31	42494.77
543.48	42349.65
543.64	42756.91
543.81	42548.60
543.98	42174.11
544.15	42066.45
544.32	42766.27
544.48	42410.51
544.65	42749.88
544.82	42799.04
544.99	42349.65
545.16	42267.73
545.32	42302.84
545.49	43189.91
545.66	42813.08
545.83	42300.50
546.00	42918.40
546.16	42916.06
546.33	42759.25
546.50	42618.81
546.67	42955.85
546.83	42859.89
547.00	42548.60
547.17	42555.62
547.34	42810.74
547.50	42705.41
547.67	43068.20
547.84	43033.09
548.00	43421.62
548.17	43393.53
548.34	43807.81
548.51	43910.79
548.67	43349.06
548.84	43311.61
549.01	43049.47
549.18	43629.93
549.34	43423.96
549.51	43381.83
549.68	43419.28
549.84	43681.42
550.01	43545.67
550.18	43548.01
550.34	43742.27
550.51	43805.47
550.68	43433.32
550.84	43519.92
551.01	43597.16
551.18	43615.88
551.34	43442.68
551.51	43962.28
551.68	43906.11
551.84	43669.72
552.01	43943.56
552.18	43868.66
552.34	43533.96
552.51	44083.99
552.68	43906.11
552.84	43990.37
553.01	44224.42
553.18	44245.49
553.34	44095.69
553.51	44109.74
553.67	44327.41
553.84	44512.31
554.01	44362.51
554.17	44315.70
554.34	44519.33
554.51	44437.41
554.67	44257.19
554.84	44182.29
555.00	44327.41
555.17	44076.97
555.33	44395.28
555.50	44678.49
555.67	44643.38
555.83	44240.81
556.00	44542.74
556.16	44727.64
556.33	44009.09
556.50	44584.86
556.66	44596.57
556.83	44201.02
556.99	44697.21
557.16	44067.61
557.32	44402.30
557.49	44907.86
557.65	44378.90
557.82	44615.29
557.98	44790.83
558.15	44589.55
558.32	44664.44
558.48	44198.68
558.65	44652.74
558.81	44535.71
558.98	44449.11
559.14	44280.60
559.31	44502.95
559.47	44694.87
559.64	45090.42
559.80	44556.78
559.97	45186.38
560.13	44847.00
560.30	44968.71
560.46	45001.48
560.63	44914.88
560.79	45191.06
560.96	45181.70
561.12	45015.52
561.29	45425.12
561.45	45373.63
561.61	44968.71
561.78	44921.90
561.94	44774.45
562.11	44821.26
562.27	44910.20
562.44	44828.28
562.60	45249.58
562.77	44928.92
562.93	45256.60
563.10	45460.23
563.26	45102.12
563.42	45350.22
563.59	45441.50
563.75	45495.33
563.92	45881.52
564.08	45404.05
564.24	45354.90
564.41	45172.34
564.57	45127.87
564.74	45258.94
564.90	45284.68
565.07	45240.21
565.23	45478.95
565.39	45205.11
565.56	45708.32
565.72	45287.03
565.88	44926.58
566.05	45067.02
566.21	45347.88
566.38	45162.98
566.54	45694.28
566.70	45738.75
566.87	45382.99
567.03	45249.58
567.19	45811.31
567.36	45925.99
567.52	45425.12
567.68	45411.07
567.85	45577.25
568.01	45727.05
568.17	45467.25
568.34	45713.00
568.50	45453.20
568.66	45626.40
568.83	45649.81
568.99	45109.14
569.15	45488.31
569.32	45687.26
569.48	45411.07
569.64	45923.65
569.81	45940.04
569.97	45628.74
570.13	45670.87
570.30	44966.37
570.46	45340.86
570.62	45265.96
570.78	45036.59
570.95	45357.24
571.11	45666.19
571.27	45673.21
571.43	45411.07
571.60	45481.29
571.76	45855.78
571.92	45251.92
572.09	45713.00
572.25	45382.99
572.41	45893.22
572.57	45710.66
572.74	46031.32
572.90	45478.95
573.06	45893.22
573.22	45268.30
573.38	45888.54
573.55	45434.48
573.71	46178.77
573.87	45787.90
574.03	45549.17
574.20	45677.90
574.36	45851.09
574.52	45556.19
574.68	45813.65
574.84	45574.91
575.01	45600.66
575.17	45558.53
575.33	45542.14
575.49	45502.35
575.65	45694.28
575.82	45773.86
575.98	45727.05
576.14	46223.24
576.30	45961.10
576.46	45684.92
576.62	45631.08
576.79	45610.02
576.95	45741.09
577.11	45862.80
577.27	46061.74
577.43	45916.63
577.59	45928.33
577.75	45656.83
577.92	45326.81
578.08	44617.63
578.24	45036.59
578.40	45535.12
578.56	45331.50
578.72	46038.34
578.88	46155.36
579.04	46106.21
579.21	45490.65
579.37	45617.04
579.53	45387.67
579.69	45818.33
579.85	45783.22
580.01	46094.51
580.17	45380.65
580.33	45380.65
580.49	45696.62
580.65	45518.74
580.82	45801.94
580.98	45710.66
581.14	45483.63
581.30	45436.82
581.46	45860.46
581.62	45680.24
581.78	45366.60
581.94	46227.92
582.10	45647.47
582.26	45818.33
582.42	45914.29
582.58	45553.85
582.74	45523.42
582.90	45607.68
583.06	45970.46
583.22	45469.59
583.38	45972.80
583.54	46138.98
583.70	45848.75
583.86	45972.80
584.02	45888.54
584.18	46031.32
584.34	45771.52
584.50	45844.07
584.66	45876.84
584.82	45324.47
584.98	45680.24
585.14	45535.12
585.30	45287.03
585.46	45483.63
585.62	45277.66
585.78	45511.72
585.94	45619.38
586.10	45518.74
586.26	45516.40
586.42	46160.05
586.58	46096.85
586.74	46277.07
586.90	45553.85
587.06	45722.37
587.22	45982.16
587.38	45523.42
587.54	45872.16
587.70	46136.64
587.86	46005.57
588.02	45560.87
588.18	46021.95
588.34	45647.47
588.49	45642.79
588.65	45411.07
588.81	45064.67
588.97	45151.27
589.13	45235.53
589.29	45092.76
589.45	45668.53
589.61	46005.57
589.77	45759.81
589.93	46031.32
590.08	45717.68
590.24	45937.69
590.40	45448.52
590.56	46597.73
590.72	46302.82
590.88	45675.55
591.04	46033.66
591.20	46218.56
591.35	46204.52
591.51	46363.67
591.67	45673.21
591.83	45696.62
591.99	45886.20
592.15	45581.93
592.31	46000.89
592.46	45787.90
592.62	46204.52
592.78	46181.11
592.94	46361.33
593.10	45769.18
593.26	46707.73
593.41	46316.86
593.57	45516.40
593.73	45579.59
593.89	46419.84
594.05	45837.05
594.20	46143.66
594.36	45947.06
594.52	45937.69
594.68	46059.40
594.84	45715.34
594.99	45944.72
595.15	46082.81
595.31	46012.59
595.47	45837.05
595.62	45968.12
595.78	46019.61
595.94	46323.88
596.10	46398.78
596.25	45942.38
596.41	46167.07
596.57	45682.58
596.73	45858.12
596.88	45818.33
597.04	46108.55
597.20	46188.13
597.36	45610.02
597.51	45982.16
597.67	45982.16
597.83	45895.56
597.99	46216.22
598.14	46045.36
598.30	45982.16
598.46	46038.34
598.61	46246.65
598.77	45928.33
598.93	46326.22
599.09	45694.28
599.24	46195.15
599.40	46124.94
599.56	46281.75
599.71	46052.38
599.87	46117.92
600.03	46227.92
600.18	46080.47
600.34	45670.87
600.50	45954.08
600.65	45865.14
600.81	46384.74
600.97	46319.20
601.12	46508.79
601.28	45968.12
601.44	46026.63
601.59	46167.07
601.75	45694.28
601.91	45708.32
602.06	46115.58
602.22	46115.58
602.37	45776.20
602.53	46059.40
602.69	46525.17
602.84	45757.47
603.00	46050.04
603.16	46080.47
603.31	46054.72
603.47	46429.21
603.62	45993.87
603.78	46342.61
603.94	45979.82
604.09	46094.51
604.25	45696.62
604.40	45813.65
604.56	46129.62
604.71	46314.52
604.87	45715.34
605.03	46092.17
605.18	45963.44
605.34	45734.07
605.49	45991.53
605.65	45949.40
605.80	45661.51
605.96	45626.40
606.12	45886.20
606.27	45642.79
606.43	45649.81
606.58	45755.13
606.74	45848.75
606.89	45642.79
607.05	45523.42
607.20	45909.61
607.36	46033.66
607.51	45914.29
607.67	46045.36
607.82	45586.61
607.98	45823.01
608.13	45895.56
608.29	45195.74
608.44	45404.05
608.60	45191.06
608.75	45787.90
608.91	45574.91
609.06	45808.96
609.22	45825.35
609.37	45750.45
609.53	45476.61
609.68	45666.19
609.84	45488.31
609.99	45715.34
610.15	45387.67
610.30	45333.84
610.46	44994.46
610.61	45382.99
610.76	45958.76
610.92	45125.53
611.07	45272.98
611.23	45371.28
611.38	45509.38
611.54	45074.04
611.69	45422.78
611.84	45397.03
612.00	44996.80
612.15	44949.99
612.31	45361.92
612.46	45057.65
612.62	45563.21
612.77	45380.65
612.92	45298.73
613.08	45144.25
613.23	45109.14
613.39	44772.11
613.54	44875.09
613.69	45076.38
613.85	44421.03
614.00	44926.58
614.15	44912.54
614.31	45006.16
614.46	44825.94
614.62	44804.88
614.77	44273.57
614.92	44624.65
615.08	44837.64
615.23	44425.71
615.38	44884.45
615.54	44509.97
615.69	44802.53
615.84	44804.88
616.00	44711.25
616.15	44587.21
616.30	44596.57
616.46	44626.99
616.61	43985.69
616.76	44395.28
616.92	43943.56
617.07	44563.80
617.22	44397.62
617.37	44144.84
617.53	44870.41
617.68	44421.03
617.83	43945.90
617.99	44378.90
618.14	44348.47
618.29	44601.25
618.45	43580.78
618.60	43906.11
618.75	43934.20
618.90	43611.20
619.06	43964.62
619.21	44156.55
619.36	44119.10
619.51	44147.18
619.67	43814.83
619.82	43800.79
619.97	44158.89
620.12	43690.78
620.28	43367.79
620.43	43934.20
620.58	43569.07
620.73	43716.53
620.89	43819.51
621.04	44044.20
621.19	43798.44
621.34	43328.00
621.49	43529.28
621.65	43812.49
621.80	44128.46
621.95	43576.09
622.10	43676.74
622.25	43859.30
622.41	43475.45
622.56	43344.38
622.71	43817.17
622.86	43496.52
623.01	43435.66
623.16	43557.37
623.32	43288.21
623.47	43161.82
623.62	43452.05
623.77	43302.25
623.92	43601.84
624.07	43494.18
624.23	42941.81
624.38	43166.50
624.53	43222.67
624.68	43096.28
624.83	43220.33
624.98	43356.08
625.13	42724.14
625.29	43051.81
625.44	42827.12
625.59	42726.48
625.74	42490.09
625.89	43082.24
626.04	42635.20
626.19	42429.23
626.34	42754.57
626.49	42829.46
626.65	42520.51
626.80	43056.50
626.95	42593.07
627.10	42691.37
627.25	42719.46
627.40	42438.59
627.55	42071.13
627.70	42029.00
627.85	42667.97
628.00	42651.58
628.15	42953.51
628.30	41949.42
628.45	42820.10
628.60	42164.75
628.76	42370.72
628.91	42548.60
629.06	42227.95
629.21	41951.76
629.36	41918.99
629.51	42431.57
629.66	42199.86
629.81	42052.41
629.96	41764.52
630.11	42508.81
630.26	42209.22
630.41	42370.72
630.56	41874.52
630.71	42454.98
630.86	41909.63
631.01	42000.91
631.16	41673.24
631.31	41476.63
631.46	41383.01
631.61	41954.10
631.76	41523.44
631.91	42024.32
632.06	42389.44
632.21	41647.49
632.36	41794.95
632.51	41488.34
632.66	41780.90
632.81	40945.33
632.96	41502.38
633.10	41490.68
633.25	41560.89
633.40	41277.69
633.55	41738.77
633.70	41668.56
633.85	41813.67
634.00	41380.67
634.15	41193.43
634.30	41254.28
634.45	40954.69
634.60	41177.04
634.75	40882.14
634.90	40893.84
635.05	41500.04
635.19	41240.24
635.34	41057.68
635.49	41263.64
635.64	40872.78
635.79	41029.59
635.94	41123.21
636.09	41141.94
636.24	40921.93
636.39	40531.06
636.53	40957.03
636.68	40524.04
636.83	40596.59
636.98	40486.59
637.13	40905.54
637.28	40982.78
637.43	40694.89
637.57	40790.86
637.72	40397.65
637.87	41008.53
638.02	40575.53
638.17	40620.00
638.32	40767.45
638.46	40151.89
638.61	40800.22
638.76	40872.78
638.91	40308.71
639.06	40856.39
639.20	40708.94
639.35	40671.49
639.50	40360.20
639.65	40474.88
639.80	40491.27
639.94	40259.55
640.09	40081.67
640.24	40582.55
640.39	39997.41
640.54	40355.52
640.68	40219.77
640.83	39803.15
640.98	39910.82
641.13	39536.33
641.27	40287.64
641.42	39615.91
641.57	40058.27
641.72	40275.94
641.86	39782.09
642.01	39531.65
642.16	39917.84
642.31	39721.23
642.45	39761.02
642.60	39461.43
642.75	39613.57
642.90	40156.57
643.04	39763.36
643.19	39529.31
643.34	39845.28
643.48	39388.88
643.63	39349.09
643.78	39517.60
643.93	39484.84
644.07	39255.46
644.22	39299.94
644.37	39143.12
644.51	39405.26
644.66	39620.59
644.81	39578.46
644.95	39709.53
645.10	39494.20
645.25	39250.78
645.39	38866.94
645.54	38930.13
645.69	39517.60
645.83	39386.54
645.98	39049.50
646.13	39173.55
646.27	39353.77
646.42	38796.72
646.57	38855.23
646.71	38822.47
646.86	39093.97
647.00	38909.07
647.15	39182.91
647.30	39721.23
647.44	39093.97
647.59	38986.30
647.74	38749.91
647.88	38906.73
648.03	39098.65
648.17	38986.30
648.32	38878.64
648.47	38745.23
648.61	38499.47
648.76	38817.78
648.90	38553.30
649.05	38625.86
649.20	39012.05
649.34	38431.60
649.49	38387.13
649.63	38494.79
649.78	38948.85
649.92	38726.50
650.07	38705.44
650.21	38316.91
650.36	38925.45
650.51	38403.51
650.65	38967.58
650.80	38988.64
650.94	38756.93
651.09	38174.14
651.23	38408.19
651.38	38321.59
651.52	37790.29
651.67	37724.75
651.81	38064.13
651.96	37893.27
652.10	38408.19
652.25	38110.94
652.39	38178.82
652.54	38082.86
652.68	38405.85
652.83	38017.32
652.97	38401.17
653.12	38075.84
653.26	38256.06
653.41	38047.75
653.55	37881.57
653.70	37532.83
653.84	38281.80
653.99	37656.88
654.13	37610.07
654.27	37680.28
654.42	37897.95
654.56	37893.27
654.71	37631.13
654.85	38017.32
655.00	37851.14
655.14	37640.50
655.29	37184.09
655.43	37212.18
655.57	36980.46
655.72	36950.04
655.86	37144.30
656.01	36882.16
656.15	36615.34
656.30	37172.39
656.44	36952.38
656.58	36996.85
656.73	37235.58
656.87	37055.36
657.01	36692.58
657.16	36917.27
657.30	36999.19
657.45	36292.35
657.59	36943.02
657.73	36697.26
657.88	36870.46
658.02	36980.46
658.16	37256.65
658.31	36943.02
658.45	36903.23
658.60	37078.77
658.74	37167.71
658.88	36591.94
659.03	36758.11
659.17	36453.84
659.31	36046.59
659.46	36620.02
659.60	36187.02
659.74	36629.38
659.89	36112.13
660.03	35917.86
660.17	36400.01
660.32	36566.19
660.46	36458.52
660.60	36114.47
660.74	36100.42
660.89	36322.77
661.03	35758.70
661.17	36027.87
661.32	36203.41
661.46	35838.28
661.60	35929.56
661.74	35894.46
661.89	35988.08
662.03	35866.37
662.17	35964.67
662.31	35861.69
662.46	35915.52
662.60	35791.47
662.74	35356.13
662.88	35510.61
663.03	35346.77
663.17	35548.06
663.31	35082.29
663.45	35543.38
663.60	35344.43
663.74	35480.18
663.88	34962.92
664.02	35115.06
664.17	35056.54
664.31	35108.04
664.45	34881.00
664.59	34642.27
664.73	35386.56
664.88	34696.10
665.02	34307.57
665.16	34403.53
665.30	34480.77
665.44	34433.96
665.59	34279.49
665.73	34094.58
665.87	34148.42
666.01	34518.22
666.15	34122.67
666.29	34466.73
666.44	34473.75
666.58	34370.77
666.72	34213.95
666.86	33806.70
667.00	34504.18
667.14	34295.87
667.28	33816.06
667.43	33937.77
667.57	34405.88
667.71	33797.34
667.85	33764.57
667.99	34190.55
668.13	34134.37
668.27	33596.05
668.41	33867.55
668.56	33338.59
668.70	33263.69
668.84	33460.30
668.98	33212.20
669.12	33139.65
669.26	33132.62
669.40	32910.27
669.54	33242.63
669.68	33113.90
669.82	33017.94
669.96	33062.41
670.10	32510.04
670.25	33060.07
670.39	32765.16
670.53	32800.27
670.67	32629.41
670.81	32627.07
670.95	32259.60
671.09	32608.34
671.23	32126.19
671.37	32327.48
671.51	32378.97
671.65	32393.01
671.79	32175.34
671.93	31644.04
672.07	32128.53
672.21	31555.10
672.35	31824.26
672.49	31590.21
672.63	31782.13
672.77	31424.03
672.91	31648.72
673.05	31545.74
673.19	31405.31
673.33	31459.14
673.47	31262.54
673.61	31131.47
673.75	31260.20
673.89	30951.24
674.03	31332.75
674.17	31257.85
674.31	31028.48
674.45	30934.86
674.59	30953.58
674.73	31082.31
674.87	30855.28
675.01	30967.63
675.15	30707.83
675.29	30810.81
675.43	30869.33
675.56	30672.72
675.70	30576.76
675.84	30209.29
675.98	29455.64
676.12	30307.60
676.26	30611.87
676.40	30015.03
676.54	30300.58
676.68	30031.41
676.82	29205.20
676.96	29244.99
677.10	29830.13
677.23	29036.69
677.37	29413.51
677.51	29287.12
677.65	29088.18
677.79	29205.20
677.93	29024.98
678.07	28514.75
678.21	28615.39
678.34	28203.46
678.48	28439.85
678.62	28360.27
678.76	28037.28
678.90	28439.85
679.04	28268.99
679.18	28013.87
679.31	27768.12
679.45	27658.11
679.59	27700.24
679.73	27693.22
679.87	27798.54
680.00	27660.45
680.14	27754.07
680.28	27461.51
680.42	27653.43
680.56	27573.85
680.70	27269.58
680.83	27190.00
680.97	26934.88
681.11	26998.08
681.25	26731.26
681.39	26822.54
681.52	26843.60
681.66	26761.69
681.80	26611.89
681.94	26272.51
682.07	25933.14
682.21	26593.17
682.35	26199.96
682.49	26246.77
682.62	25998.67
682.76	26075.91
682.90	25387.79
683.04	26008.03
683.17	25752.91
683.31	25682.70
683.45	25701.42
683.59	25663.97
683.72	25783.34
683.86	25724.83
684.00	24933.73
684.13	25104.59
684.27	24790.95
684.41	24737.12
684.55	24638.82
684.68	24893.94
684.82	24863.51
684.96	24606.05
685.09	24720.74
685.23	24477.32
685.37	24362.64
685.50	24489.03
685.64	24180.07
685.78	24102.84
685.91	23957.72
686.05	24032.62
686.19	23531.75
686.32	23667.50
686.46	23480.25
686.60	23044.91
686.73	23007.47
686.87	23236.84
687.01	22672.77
687.14	23105.77
687.28	22941.93
687.42	22600.21
687.55	22738.30
687.69	22850.65
687.82	22558.08
687.96	22827.24
688.10	22286.58
688.23	22562.76
688.37	22125.08
688.50	22419.99
688.64	22129.77
688.78	22223.39
688.91	22015.08
689.05	21884.01
689.18	21905.07
689.32	21443.99
689.46	21907.41
689.59	22181.26
689.73	21628.89
689.86	21561.02
690.00	21490.80
690.13	21511.86
690.27	21186.53
690.41	21088.23
690.54	21106.95
690.68	21128.02
690.81	20929.07
690.95	20851.83
691.08	20952.48
691.22	20929.07
691.35	20886.94
691.49	20741.83
691.62	20695.02
691.76	20783.96
691.89	20416.49
692.03	20463.30
692.16	20336.91
692.30	20187.12
692.43	19873.49
692.57	20091.16
692.70	19943.70
692.84	19517.73
692.97	19372.61
693.11	19290.70
693.24	19599.65
693.38	19704.97
693.51	19290.70
693.65	19503.68
693.78	19293.04
693.92	19122.18
694.05	19543.47
694.19	19117.50
694.32	19157.28
694.45	19019.19
694.59	19075.37
694.72	18899.83
694.86	18558.11
694.99	18829.61
695.13	18546.40
695.26	18424.70
695.39	18244.48
695.53	18244.48
695.66	18448.10
695.80	18263.20
695.93	18228.09
696.07	17816.16
696.20	18148.51
696.33	18218.73
696.47	17626.57
696.60	17729.56
696.73	17436.99
696.87	17252.09
697.00	17334.01
697.14	17298.90
697.27	17111.66
697.40	17137.40
697.54	17362.09
697.67	16950.16
697.80	17252.09
697.94	16915.05
698.07	16739.51
698.21	17071.87
698.34	16992.29
698.47	16959.52
698.61	16507.80
698.74	16655.25
698.87	16615.46
699.01	16437.58
699.14	16372.05
699.27	16243.32
699.40	16116.93
699.54	16372.05
699.67	16032.67
699.80	15719.04
699.94	15850.11
700.07	16084.16
700.20	16219.91
700.34	15843.09
700.47	15756.49
700.60	15864.15
700.73	15382.00
700.87	15850.11
701.00	15639.46
701.13	15117.52
701.26	15136.24
701.40	15332.85
701.53	15073.05
701.66	14993.47
701.79	14899.85
701.93	14871.76
702.06	14862.40
702.19	14595.58
702.32	14677.50
702.46	14902.19
702.59	14644.73
702.72	14663.46
702.85	14803.89
702.99	14558.13
703.12	14394.29
703.25	14469.19
703.38	14300.67
703.51	14265.57
703.65	14221.10
703.78	13788.10
703.91	14003.43
704.04	13942.57
704.17	13631.28
704.31	13851.29
704.44	13509.57
704.57	13635.96
704.70	13427.65
704.83	13715.54
704.96	13460.42
705.10	13827.88
705.23	13235.73
>>>>>End Processed Spectral Data<<<<<
