SpectraSuite Data File
++++++++++++++++++++++++++++++++++++
Date: Fri Oct 25 10:44:16 EDT 2013
User: price-jones
Dark Spectrum Present: No
Reference Spectrum Present: No
Number of Sampled Component Spectra: 1
Spectrometers: USB2+H05261
Integration Time (usec): 100000 (USB2+H05261)
Spectra Averaged: 1 (USB2+H05261)
Boxcar Smoothing: 0 (USB2+H05261)
Correct for Electrical Dark: No (USB2+H05261)
Strobe/Lamp Enabled: No (USB2+H05261)
Correct for Detector Non-linearity: No (USB2+H05261)
Correct for Stray Light: No (USB2+H05261)
Number of Pixels in Processed Spectrum: 2048
>>>>>Begin Processed Spectral Data<<<<<
365.73	110.01
365.92	110.01
366.12	110.01
366.32	0.00
366.52	37.45
366.72	0.00
366.91	0.00
367.11	65.54
367.31	42.13
367.51	4.68
367.70	65.54
367.90	9.36
368.10	37.45
368.30	51.49
368.49	35.11
368.69	51.49
368.89	25.75
369.09	16.38
369.28	2.34
369.48	0.00
369.68	46.81
369.87	107.66
370.07	117.03
370.27	142.77
370.47	187.24
370.66	362.78
370.86	369.80
371.06	533.64
371.25	524.28
371.45	425.98
371.65	425.98
371.84	442.36
372.04	454.06
372.24	444.70
372.44	479.81
372.63	550.03
372.83	440.02
373.03	617.90
373.22	463.43
373.42	505.56
373.62	566.41
373.81	627.26
374.01	596.84
374.21	543.00
374.40	463.43
374.60	557.05
374.79	470.45
374.99	636.63
375.19	592.16
375.38	669.39
375.58	580.45
375.78	547.69
375.97	662.37
376.17	622.58
376.37	622.58
376.56	608.54
376.76	564.07
376.95	702.16
377.15	592.16
377.35	603.86
377.54	613.22
377.74	578.11
377.93	589.82
378.13	727.91
378.33	664.71
378.52	650.67
378.72	564.07
378.91	615.56
379.11	667.05
379.31	655.35
379.50	711.52
379.70	725.57
379.89	713.86
380.09	671.73
380.28	688.12
380.48	685.78
380.68	688.12
380.87	699.82
381.07	737.27
381.26	718.54
381.46	681.10
381.65	697.48
381.85	758.33
382.04	704.50
382.24	641.31
382.43	636.63
382.63	830.89
382.83	730.25
383.02	709.18
383.22	788.76
383.41	638.97
383.61	753.65
383.80	830.89
384.00	739.61
384.19	795.78
384.39	793.44
384.58	826.21
384.78	786.42
384.97	739.61
385.17	781.74
385.36	763.01
385.56	835.57
385.75	854.30
385.95	779.40
386.14	772.38
386.34	863.66
386.53	851.96
386.72	875.36
386.92	922.17
387.11	875.36
387.31	809.83
387.50	802.80
387.70	889.40
387.89	880.04
388.09	779.40
388.28	966.64
388.48	908.13
388.67	868.34
388.86	938.55
389.06	978.34
389.25	945.58
389.45	943.24
389.64	1050.90
389.84	1050.90
390.03	1041.54
390.22	983.02
390.42	1057.92
390.61	1039.20
390.81	922.17
391.00	1057.92
391.19	1039.20
391.39	1102.39
391.58	1029.84
391.78	968.98
391.97	1041.54
392.16	1015.79
392.36	1090.69
392.55	950.26
392.75	1034.52
392.94	940.90
393.13	1097.71
393.33	919.83
393.52	1025.15
393.71	1100.05
393.91	1064.94
394.10	1156.22
394.29	1181.97
394.49	1121.12
394.68	1242.82
394.88	1217.08
395.07	1291.98
395.26	1203.04
395.46	1266.23
395.65	1266.23
395.84	1163.25
396.04	1308.36
396.23	1191.33
396.42	1095.37
396.62	1256.87
396.81	1233.46
397.00	1331.76
397.19	1231.12
397.39	1268.57
397.58	1413.68
397.77	1387.94
397.97	1425.39
398.16	1446.45
398.35	1423.05
398.55	1416.02
398.74	1462.83
398.93	1572.84
399.12	1439.43
399.32	1483.90
399.51	1626.67
399.70	1572.84
399.90	1511.99
400.09	1598.59
400.28	1720.29
400.47	1643.06
400.67	1661.78
400.86	1603.27
401.05	1614.97
401.24	1699.23
401.44	1720.29
401.63	1717.95
401.82	1741.36
402.01	1687.53
402.21	1657.10
402.40	1795.19
402.59	1743.70
402.78	1724.97
402.97	1806.89
403.17	1783.49
403.36	1818.60
403.55	1783.49
403.74	1849.02
403.93	1959.03
404.13	1820.94
404.32	1921.58
404.51	1914.56
404.70	1888.81
404.89	1937.96
405.09	1926.26
405.28	1818.60
405.47	1956.69
405.66	1893.49
405.85	1832.64
406.05	1905.20
406.24	2043.29
406.43	2047.97
406.62	2094.78
406.81	2094.78
407.00	2092.44
407.20	2076.06
407.39	2024.56
407.58	2132.23
407.77	2155.63
407.96	2242.23
408.15	2155.63
408.34	2239.89
408.54	2125.21
408.73	2293.72
408.92	2207.13
409.11	2195.42
409.30	2321.81
409.49	2258.62
409.68	2331.17
409.87	2321.81
410.07	2345.22
410.26	2321.81
410.45	2427.14
410.64	2352.24
410.83	2497.35
411.02	2574.59
411.21	2452.88
411.40	2483.31
411.59	2656.51
411.78	2525.44
411.98	2520.76
412.17	2569.91
412.36	2623.74
412.55	2605.02
412.74	2733.75
412.93	2825.03
413.12	2757.15
413.31	2848.43
413.50	2862.48
413.69	2780.56
413.88	2876.52
414.07	2930.35
414.26	2946.73
414.45	2932.69
414.64	3028.65
414.83	3112.91
415.02	3045.04
415.22	3066.10
415.41	3101.21
415.60	3056.74
415.79	3173.77
415.98	3243.98
416.17	3281.43
416.36	3199.51
416.55	3194.83
416.74	3375.05
416.93	3260.37
417.12	3248.66
417.31	3403.14
417.50	3309.52
417.69	3398.46
417.88	3447.61
418.07	3293.13
418.26	3363.35
418.45	3529.53
418.64	3562.30
418.83	3447.61
419.02	3506.12
419.21	3531.87
419.39	3524.85
419.58	3492.08
419.77	3541.23
419.96	3639.53
420.15	3728.47
420.34	3765.92
420.53	3588.04
420.72	3819.75
420.91	3712.09
421.10	3803.37
421.29	3885.29
421.48	3782.31
421.67	3831.46
421.86	3843.16
422.05	3754.22
422.24	3667.62
422.43	3772.94
422.61	3751.88
422.80	3904.01
422.99	3831.46
423.18	3831.46
423.37	4004.66
423.56	3850.18
423.75	3908.69
423.94	3868.91
424.13	3646.55
424.32	3756.56
424.50	3915.72
424.69	3920.40
424.88	3885.29
425.07	4025.72
425.26	3957.85
425.45	3955.51
425.64	4002.32
425.83	3894.65
426.01	4049.13
426.20	4095.94
426.39	4032.74
426.58	3955.51
426.77	3906.35
426.96	3962.53
427.15	4053.81
427.33	4107.64
427.52	4152.11
427.71	3946.14
427.90	4177.86
428.09	4147.43
428.28	4222.33
428.46	4180.20
428.65	4133.39
428.84	4259.78
429.03	4341.69
429.22	4205.94
429.40	4257.43
429.59	4133.39
429.78	4077.21
429.97	3957.85
430.16	4074.87
430.34	4028.06
430.53	4264.46
430.72	4280.84
430.91	4327.65
431.10	4315.95
431.28	4411.91
431.47	4622.56
431.66	4512.55
431.85	4519.57
432.03	4664.69
432.22	4615.54
432.41	4638.94
432.60	4704.48
432.79	4732.56
432.97	4587.45
433.16	4730.22
433.35	4631.92
433.54	4624.90
433.72	4631.92
433.91	4737.24
434.10	4706.82
434.28	4734.90
434.47	4966.62
434.66	4903.42
434.85	4908.10
435.03	5029.81
435.22	4924.49
435.41	5170.24
435.59	5011.09
435.78	5064.92
435.97	5041.51
436.16	5008.75
436.34	5093.01
436.53	5247.48
436.72	5362.17
436.90	4952.57
437.09	5046.20
437.28	5219.39
437.46	5263.86
437.65	5245.14
437.84	5174.92
438.02	4959.60
438.21	5320.04
438.40	5181.95
438.58	5390.25
438.77	5444.09
438.96	5345.78
439.14	5481.53
439.33	5589.20
439.52	5645.37
439.70	5671.12
439.89	5708.57
440.08	5734.31
440.26	5734.31
440.45	5865.38
440.63	5741.33
440.82	5895.81
441.01	5799.85
441.19	5802.19
441.38	6148.59
441.57	6050.28
441.75	6300.72
441.94	6270.30
442.12	6340.51
442.31	6188.38
442.50	6291.36
442.68	6347.53
442.87	6413.07
443.05	6328.81
443.24	6408.39
443.43	6509.03
443.61	6623.72
443.80	6619.04
443.98	6354.55
444.17	6249.23
444.35	6541.80
444.54	6679.89
444.73	6509.03
444.91	6539.46
445.10	6413.07
445.28	6392.00
445.47	6401.37
445.65	6417.75
445.84	6349.87
446.02	6750.10
446.21	6476.26
446.39	6649.46
446.58	6604.99
446.77	6525.41
446.95	6359.24
447.14	6609.67
447.32	6736.06
447.51	6780.53
447.69	6700.95
447.88	6796.92
448.06	6696.27
448.25	6738.40
448.43	6630.74
448.62	6609.67
448.80	6630.74
448.99	6839.05
449.17	6834.36
449.36	6862.45
449.54	6843.73
449.73	7091.82
449.91	7194.81
450.10	7208.85
450.28	7227.57
450.46	7119.91
450.65	7265.02
450.83	7215.87
451.02	7080.12
451.20	7353.96
451.39	7201.83
451.57	7300.13
451.76	7269.70
451.94	7110.55
452.13	7356.30
452.31	7199.49
452.49	7061.40
452.68	7126.93
452.86	7162.04
453.05	7213.53
453.23	7260.34
453.42	7243.96
453.60	7246.30
453.78	7391.41
453.97	7166.72
454.15	7304.81
454.34	7449.93
454.52	7358.64
454.70	7480.35
454.89	7559.93
455.07	7524.82
455.26	7625.47
455.44	7728.45
455.62	7854.84
455.81	7599.72
455.99	7822.07
456.17	7632.49
456.36	7667.60
456.54	7988.25
456.73	8011.65
456.91	8198.90
457.09	8234.00
457.28	8407.20
457.46	7981.23
457.64	8067.83
457.83	8217.62
458.01	7962.50
458.19	8147.40
458.38	8018.68
458.56	8152.09
458.74	8215.28
458.93	8255.07
459.11	8262.09
459.29	8315.92
459.48	8379.12
459.66	8273.79
459.84	8339.33
460.03	8524.23
460.21	8311.24
460.39	8514.87
460.57	8496.14
460.76	8477.42
460.94	8636.58
461.12	8791.05
461.31	8767.65
461.49	8472.74
461.67	8870.63
461.85	8662.32
462.04	8779.35
462.22	8943.19
462.40	8987.66
462.59	8758.28
462.77	8655.30
462.95	8908.08
463.13	8879.99
463.32	8798.07
463.50	8957.23
463.68	9118.73
463.86	8966.59
464.05	8964.25
464.23	8887.01
464.41	8945.53
464.59	8912.76
464.78	9200.65
464.96	9081.28
465.14	9116.39
465.32	9228.73
465.50	9200.65
465.69	9224.05
465.87	9146.81
466.05	9153.84
466.23	9067.24
466.41	9184.26
466.60	9338.74
466.78	9212.35
466.96	9317.67
467.14	9273.20
467.32	9551.73
467.51	9502.58
467.69	9177.24
467.87	9331.72
468.05	9657.05
468.23	9413.63
468.41	9280.22
468.60	9696.84
468.78	9514.28
468.96	9448.74
469.14	9860.68
469.32	9654.71
469.50	9392.57
469.69	9687.48
469.87	9738.97
470.05	9907.49
470.23	9851.31
470.41	9834.93
470.59	9891.10
470.77	9935.57
470.95	10064.30
471.14	10134.52
471.32	9867.70
471.50	10211.76
471.68	10232.82
471.86	10406.02
472.04	10445.81
472.22	10693.91
472.40	10352.19
472.58	10394.32
472.77	10221.12
472.95	10296.02
473.13	10663.48
473.31	10635.39
473.49	10492.62
473.67	10597.95
473.85	10930.30
474.03	11122.23
474.21	10747.74
474.39	11117.54
474.57	11073.07
474.75	11248.61
474.93	11370.32
475.12	11068.39
475.30	11180.74
475.48	11138.61
475.66	11227.55
475.84	11176.06
476.02	11513.10
476.20	11241.59
476.38	11382.03
476.56	11803.32
476.74	11693.32
476.92	11845.45
477.10	11969.50
477.28	11950.78
477.46	12121.63
477.64	12306.54
477.82	12276.11
478.00	12585.06
478.18	12271.43
478.36	12559.31
478.54	12919.76
478.72	12772.30
478.90	12929.12
479.08	12877.63
479.26	13188.92
479.44	12985.29
479.62	13146.79
479.80	13153.81
479.98	13317.65
480.16	13547.02
480.34	13357.44
480.52	13603.19
480.70	13605.53
480.88	13474.46
481.06	13874.70
481.24	14005.77
481.41	14225.78
481.59	14270.25
481.77	14553.45
481.95	14204.71
482.13	14707.93
482.31	14553.45
482.49	14934.96
482.67	14895.17
482.85	15014.54
483.03	14918.57
483.21	15541.16
483.39	15255.61
483.57	15358.60
483.74	15634.78
483.92	15704.99
484.10	15735.42
484.28	16042.03
484.46	16025.65
484.64	16212.89
484.82	15974.16
485.00	16128.63
485.18	16428.22
485.35	16243.32
485.53	16086.50
485.71	16032.67
485.89	16594.40
486.07	16456.31
486.25	16788.66
486.43	16779.30
486.61	16994.63
486.78	17315.28
486.96	17451.03
487.14	17724.88
487.32	17692.11
487.50	18349.80
487.68	18157.88
487.85	18401.29
488.03	18494.91
488.21	18455.12
488.39	18527.68
488.57	18895.14
488.75	18796.84
488.92	19026.21
489.10	19288.35
489.28	19204.10
489.46	19515.39
489.64	19948.39
489.81	20247.97
489.99	20102.86
490.17	20091.16
490.35	20362.66
490.53	20369.68
490.70	20559.27
490.88	20559.27
491.06	20746.51
491.24	20790.98
491.41	20500.75
491.59	20816.72
491.77	20650.55
491.95	21083.55
492.13	21139.72
492.30	21509.52
492.48	21703.79
492.66	21785.71
492.84	21692.08
493.01	21839.54
493.19	22029.12
493.37	22115.72
493.54	22317.01
493.72	22530.00
493.90	22558.08
494.08	23138.54
494.25	23192.37
494.43	23269.61
494.61	23491.96
494.79	23674.52
494.96	23180.67
495.14	23274.29
495.32	23580.90
495.49	23623.03
495.67	23688.56
495.85	24318.17
496.02	24205.82
496.20	24311.14
496.38	24500.73
496.55	24430.51
496.73	25102.25
496.91	24671.59
497.09	25249.70
497.26	25064.80
497.44	24819.04
497.62	25144.38
497.79	25060.12
497.97	24936.07
498.14	25371.41
498.32	25425.24
498.50	25671.00
498.67	26078.25
498.85	25912.07
499.03	26169.53
499.20	26225.70
499.38	26160.17
499.56	26485.50
499.73	26595.51
499.91	26536.99
500.08	26434.01
500.26	26466.78
500.44	26396.56
500.61	27009.78
500.79	26242.09
500.97	26691.47
501.14	27154.90
501.32	27211.07
501.49	27005.10
501.67	27129.15
501.84	27552.79
502.02	27091.70
502.20	27695.56
502.37	27826.63
502.55	27704.92
502.72	27758.75
502.90	28056.00
503.07	28100.47
503.25	28133.24
503.43	28130.90
503.60	28121.54
503.78	28151.96
503.95	28182.39
504.13	28460.91
504.30	28725.39
504.48	28861.15
504.65	29010.94
504.83	29118.60
505.01	29495.43
505.18	29256.70
505.36	29605.44
505.53	29200.52
505.71	29692.04
505.88	29926.09
506.06	29408.83
506.23	29408.83
506.41	29343.30
506.58	29905.02
506.76	29715.44
506.93	29799.70
507.11	30141.42
507.28	30246.74
507.46	29783.32
507.63	30136.74
507.81	30221.00
507.98	30120.35
508.16	30281.85
508.33	30352.07
508.50	30761.66
508.68	30705.49
508.85	31229.77
509.03	31058.91
509.20	31398.29
509.38	30909.11
509.55	30806.13
509.73	31402.97
509.90	31164.23
510.08	31173.60
510.25	31402.97
510.42	31482.55
510.60	31910.86
510.77	31742.35
510.95	32107.47
511.12	31714.26
511.30	32032.57
511.47	32397.70
511.64	32306.41
511.82	32285.35
511.99	32257.26
512.17	32617.71
512.34	32079.38
512.51	32458.55
512.69	32835.38
512.86	32760.48
513.04	32741.75
513.21	32381.31
513.38	32601.32
513.56	33228.59
513.73	32694.94
513.90	32924.32
514.08	32914.95
514.25	33216.88
514.43	33422.85
514.60	32975.81
514.77	33785.63
514.95	33787.97
515.12	33352.63
515.29	33656.90
515.47	34178.84
515.64	34033.73
515.81	33703.71
515.99	33818.40
516.16	33694.35
516.33	33970.54
516.51	33823.08
516.68	33383.06
516.85	33411.15
517.03	33567.96
517.20	33919.04
517.37	34263.10
517.54	34712.49
517.72	34576.73
517.89	34031.39
518.06	34005.64
518.24	34300.55
518.41	34075.86
518.58	34536.94
518.75	34684.40
518.93	34813.13
519.10	34579.07
519.27	35051.86
519.45	35267.19
519.62	35442.73
519.79	35274.21
519.96	35295.28
520.14	35791.47
520.31	35196.98
520.48	35285.92
520.65	35412.31
520.83	35711.89
521.00	35868.71
521.17	36011.48
521.34	36180.00
521.52	36556.83
521.69	36472.57
521.86	36570.87
522.03	35901.48
522.20	35938.93
522.38	36580.23
522.55	36247.88
522.72	36556.83
522.89	36290.01
523.07	36861.10
523.24	36465.55
523.41	36706.62
523.58	36795.56
523.75	37235.58
523.92	37188.77
524.10	37551.56
524.27	37127.92
524.44	37181.75
524.61	37207.50
524.78	37759.86
524.96	37738.80
525.13	37525.81
525.30	38190.52
525.47	38012.64
525.64	37638.15
525.81	37617.09
525.98	37469.64
526.16	37411.12
526.33	36751.09
526.50	37258.99
526.67	37315.16
526.84	37165.37
527.01	37804.33
527.18	37879.23
527.36	38419.89
527.53	38567.35
527.70	38536.92
527.87	38295.85
528.04	38267.76
528.21	38684.37
528.38	38602.46
528.55	39166.52
528.72	38543.94
528.89	39255.46
529.07	38733.53
529.24	38799.06
529.41	38724.16
529.58	38731.18
529.75	38941.83
529.92	39288.23
530.09	38726.50
530.26	38913.75
530.43	39573.78
530.60	38923.11
530.77	39178.23
530.94	39541.01
531.11	39264.83
531.28	39510.58
531.46	39632.29
531.63	39508.24
531.80	39225.04
531.97	39641.65
532.14	39477.82
532.31	39494.20
532.48	39756.34
532.65	39351.43
532.82	39665.06
532.99	40088.70
533.16	39695.49
533.33	39873.37
533.50	40294.66
533.67	40004.44
533.84	39651.02
534.01	40346.15
534.18	39873.37
534.35	40559.14
534.52	40402.33
534.69	40664.47
534.86	40526.38
535.03	40451.48
535.20	40753.41
535.37	41200.45
535.54	41095.13
535.71	40247.85
535.88	40629.36
536.05	40877.46
536.22	40961.72
536.38	40610.64
536.55	40500.63
536.72	40795.54
536.89	40863.41
537.06	40804.90
537.23	40835.33
537.40	40964.06
537.57	41265.99
537.74	41155.98
537.91	41537.49
538.08	41490.68
538.25	41383.01
538.42	41209.81
538.59	41797.29
538.75	40954.69
538.92	41282.37
539.09	41579.62
539.26	41610.04
539.43	41607.70
539.60	41378.33
539.77	41177.04
539.94	41605.36
540.11	41448.55
540.28	41530.47
540.44	41359.61
540.61	41394.71
540.78	41593.66
540.95	41642.81
541.12	41750.48
541.29	41729.41
541.46	41530.47
541.62	42012.62
541.79	41881.55
541.96	41544.51
542.13	41820.69
542.30	41911.97
542.47	42087.51
542.63	42293.48
542.80	42384.76
542.97	42410.51
543.14	43084.58
543.31	42511.15
543.48	42604.77
543.64	43147.78
543.81	42855.21
543.98	42969.90
544.15	42948.83
544.32	42864.57
544.48	43154.80
544.65	43330.34
544.82	43138.41
544.99	42820.10
545.16	43447.36
545.32	43124.37
545.49	43433.32
545.66	43985.69
545.83	43430.98
546.00	43290.55
546.16	43332.68
546.33	42775.63
546.50	42803.72
546.67	43349.06
546.83	42616.47
547.00	43566.73
547.17	43042.45
547.34	43573.75
547.50	43571.41
547.67	43700.14
547.84	43538.65
548.00	43604.18
548.17	43878.02
548.34	43856.96
548.51	44135.48
548.67	44032.50
548.84	43842.92
549.01	43817.17
549.18	43831.21
549.34	43775.04
549.51	44259.53
549.68	44208.04
549.84	43732.91
550.01	44306.34
550.18	43856.96
550.34	44074.63
550.51	43863.98
550.68	43882.70
550.84	43753.97
551.01	44266.55
551.18	44233.78
551.34	44268.89
551.51	43856.96
551.68	43810.15
551.84	44624.65
552.01	44191.65
552.18	44397.62
552.34	43803.13
552.51	44453.79
552.68	44374.22
552.84	44559.12
553.01	44718.28
553.18	44524.01
553.34	44893.82
553.51	44406.98
553.67	44699.55
553.84	44947.65
554.01	44561.46
554.17	45059.99
554.34	44973.39
554.51	44980.42
554.67	44626.99
554.84	44849.35
555.00	44727.64
555.17	44669.12
555.33	44704.23
555.50	44591.89
555.67	44662.10
555.83	45036.59
556.00	45134.89
556.16	45420.44
556.33	44996.80
556.50	44584.86
556.66	45162.98
556.83	44549.76
556.99	45017.86
557.16	45261.28
557.32	45432.14
557.49	45387.67
557.65	44865.73
557.82	44870.41
557.98	45265.96
558.15	45193.40
558.32	44989.78
558.48	44982.76
558.65	44896.16
558.81	44924.24
558.98	45031.91
559.14	44931.26
559.31	45050.63
559.47	45420.44
559.64	45408.73
559.80	45631.08
559.97	45471.93
560.13	45319.79
560.30	44872.75
560.46	45600.66
560.63	45485.97
560.79	45879.18
560.96	45684.92
561.12	45675.55
561.29	45530.44
561.45	45411.07
561.61	45457.88
561.78	45347.88
561.94	45539.80
562.11	45691.94
562.27	45696.62
562.44	45649.81
562.60	45893.22
562.77	45514.06
562.93	45574.91
563.10	45663.85
563.26	45434.48
563.42	45998.55
563.59	45710.66
563.75	45467.25
563.92	45794.92
564.08	45680.24
564.24	45846.41
564.41	46204.52
564.57	45727.05
564.74	45778.54
564.90	45930.67
565.07	45464.91
565.23	45460.23
565.39	45713.00
565.56	45979.82
565.72	45497.67
565.88	45315.11
566.05	45495.33
566.21	45701.30
566.38	45949.40
566.54	45663.85
566.70	46115.58
566.87	46040.68
567.03	45909.61
567.19	46038.34
567.36	45890.88
567.52	45745.77
567.68	46415.16
567.85	45603.00
568.01	45968.12
568.17	45666.19
568.34	45762.15
568.50	46075.79
568.66	45546.82
568.83	45523.42
568.99	45399.37
569.15	45581.93
569.32	45944.72
569.48	45921.31
569.64	46094.51
569.81	46581.34
569.97	46211.54
570.13	46155.36
570.30	45455.54
570.46	45607.68
570.62	45815.99
570.78	45937.69
570.95	45570.23
571.11	46141.32
571.27	45738.75
571.43	45673.21
571.60	46085.15
571.76	46192.81
571.92	46153.02
572.09	45710.66
572.25	45930.67
572.41	46031.32
572.57	46239.62
572.74	46244.30
572.90	46162.39
573.06	46326.22
573.22	45907.27
573.38	45940.04
573.55	45963.44
573.71	45935.35
573.87	45944.72
574.03	46099.19
574.20	45961.10
574.36	46220.90
574.52	46148.34
574.68	46068.76
574.84	45670.87
575.01	46286.43
575.17	45930.67
575.33	46033.66
575.49	46319.20
575.65	46080.47
575.82	46356.65
575.98	46241.96
576.14	46307.50
576.30	46464.32
576.46	46487.72
576.62	46080.47
576.79	46387.08
576.95	46003.23
577.11	46309.84
577.27	46199.83
577.43	46117.92
577.59	45727.05
577.75	45979.82
577.92	45549.17
578.08	45813.65
578.24	45904.93
578.40	46089.83
578.56	45963.44
578.72	46036.00
578.88	46546.23
579.04	46148.34
579.21	46045.36
579.37	46227.92
579.53	46253.67
579.69	45909.61
579.85	46160.05
580.01	46141.32
580.17	45949.40
580.33	46305.16
580.49	46211.54
580.65	46202.18
580.82	46124.94
580.98	46092.17
581.14	46148.34
581.30	46672.62
581.46	46391.76
581.62	46630.49
581.78	46064.08
581.94	46387.08
582.10	46176.43
582.26	46199.83
582.42	46354.31
582.58	46279.41
582.74	46293.46
582.90	46223.24
583.06	46616.45
583.22	46260.69
583.38	46571.98
583.54	46040.68
583.70	46445.59
583.86	46579.00
584.02	46026.63
584.18	46260.69
584.34	46251.33
584.50	45853.44
584.66	46263.03
584.82	45851.09
584.98	46361.33
585.14	46209.20
585.30	46366.01
585.46	46607.09
585.62	46274.73
585.78	46211.54
585.94	45535.12
586.10	46103.87
586.26	46045.36
586.42	46604.75
586.58	46817.74
586.74	46616.45
586.90	46300.48
587.06	45708.32
587.22	46476.02
587.38	45921.31
587.54	46237.28
587.70	46532.19
587.86	46213.88
588.02	46124.94
588.18	46209.20
588.34	46052.38
588.49	45904.93
588.65	45492.99
588.81	45485.97
588.97	45942.38
589.13	45677.90
589.29	46106.21
589.45	45787.90
589.61	46087.49
589.77	46120.26
589.93	46375.37
590.08	46358.99
590.24	46499.42
590.40	46862.21
590.56	46649.22
590.72	46494.74
590.88	46150.68
591.04	46623.47
591.20	46539.21
591.35	46518.15
591.51	46543.89
591.67	46277.07
591.83	46351.97
591.99	46330.90
592.15	46625.81
592.31	46363.67
592.46	46623.47
592.62	46665.60
592.78	46478.36
592.94	46113.23
593.10	46464.32
593.26	46248.99
593.41	46387.08
593.57	46005.57
593.73	46412.82
593.89	46541.55
594.05	46337.93
594.20	46417.50
594.36	46689.01
594.52	46560.28
594.68	46220.90
594.84	46258.35
594.99	46913.70
595.15	46791.99
595.31	46653.90
595.47	46433.89
595.62	46522.83
595.78	46080.47
595.94	46506.44
596.10	46913.70
596.25	46892.63
596.41	46934.76
596.57	46581.34
596.73	46878.59
596.88	46417.50
597.04	46351.97
597.20	46689.01
597.36	46333.24
597.51	46707.73
597.67	46611.77
597.83	46672.62
597.99	46342.61
598.14	46646.88
598.30	46660.92
598.46	46251.33
598.61	46059.40
598.77	46377.72
598.93	46143.66
599.09	46602.41
599.24	47028.38
599.40	46808.37
599.56	46862.21
599.71	46394.10
599.87	46476.02
600.03	46696.03
600.18	46653.90
600.34	46199.83
600.50	46501.76
600.65	46433.89
600.81	46199.83
600.97	46597.73
601.12	46543.89
601.28	46742.84
601.44	46426.87
601.59	46398.78
601.75	46099.19
601.91	46447.93
602.06	46230.26
602.22	46387.08
602.37	46323.88
602.53	46487.72
602.69	46569.64
602.84	46204.52
603.00	46265.37
603.16	46171.75
603.31	46525.17
603.47	46457.29
603.62	46431.55
603.78	46766.24
603.94	46363.67
604.09	46787.31
604.25	46504.10
604.40	45869.82
604.56	46251.33
604.71	46747.52
604.87	45888.54
605.03	46078.13
605.18	46017.27
605.34	46024.29
605.49	46209.20
605.65	46485.38
605.80	46354.31
605.96	46466.66
606.12	46248.99
606.27	46590.70
606.43	46314.52
606.58	46497.08
606.74	45743.43
606.89	46115.58
607.05	46368.35
607.20	46728.80
607.36	46401.12
607.51	45705.98
607.67	46719.43
607.82	46349.63
607.98	46183.45
608.13	46038.34
608.29	46134.30
608.44	45986.85
608.60	46131.96
608.75	45813.65
608.91	45818.33
609.06	45785.56
609.22	46167.07
609.37	46373.03
609.53	46113.23
609.68	45930.67
609.84	45647.47
609.99	45666.19
610.15	45705.98
610.30	45825.35
610.46	45361.92
610.61	45860.46
610.76	46110.89
610.92	45832.37
611.07	45846.41
611.23	45837.05
611.38	45811.31
611.54	45500.01
611.69	45633.42
611.84	45436.82
612.00	45551.51
612.15	45670.87
612.31	45710.66
612.46	45497.67
612.62	45881.52
612.77	45221.49
612.92	45708.32
613.08	45392.35
613.23	45911.95
613.39	45727.05
613.54	45104.46
613.69	45450.86
613.85	45560.87
614.00	45537.46
614.15	46050.04
614.31	45507.04
614.46	45443.84
614.62	45588.95
614.77	45633.42
614.92	45198.09
615.08	44968.71
615.23	45385.33
615.38	44865.73
615.54	44921.90
615.69	45146.59
615.84	44559.12
616.00	45221.49
616.15	44744.02
616.30	44975.73
616.46	44765.09
616.61	44875.09
616.76	45041.27
616.92	44701.89
617.07	44554.44
617.22	44687.85
617.37	44748.70
617.53	45382.99
617.68	44739.34
617.83	44416.35
617.99	45289.37
618.14	44720.62
618.29	44851.69
618.45	44591.89
618.60	44385.92
618.75	44273.57
618.90	44753.38
619.06	44762.75
619.21	44645.72
619.36	45029.57
619.51	44467.84
619.67	44760.40
619.82	44287.62
619.97	44528.69
620.12	44729.98
620.28	44053.56
620.43	44189.31
620.58	44411.67
620.73	44275.91
620.89	44175.27
621.04	44362.51
621.19	44374.22
621.34	44383.58
621.49	43866.32
621.65	44023.14
621.80	44203.36
621.95	44058.24
622.10	43842.92
622.25	44004.41
622.41	43557.37
622.56	44088.67
622.71	44154.21
622.86	44254.85
623.01	43917.81
623.16	44018.46
623.32	43810.15
623.47	44013.77
623.62	43955.26
623.77	43749.29
623.92	43768.02
624.07	43943.56
624.23	43625.25
624.38	43461.41
624.53	43386.51
624.68	43611.20
624.83	43590.14
624.98	43407.58
625.13	43393.53
625.29	43613.54
625.44	43512.90
625.59	43353.74
625.74	43122.03
625.89	42831.80
626.04	42899.68
626.19	43250.76
626.34	43330.34
626.49	43510.56
626.65	43381.83
626.80	43344.38
626.95	43302.25
627.10	43522.26
627.25	43313.95
627.40	43189.91
627.55	42333.27
627.70	42466.68
627.85	42726.48
628.00	42717.12
628.15	42590.73
628.30	42305.18
628.45	43313.95
628.60	42630.52
628.76	42871.59
628.91	42962.87
629.06	42761.59
629.21	42417.53
629.36	42796.70
629.51	42607.11
629.66	42099.22
629.81	42260.71
629.96	42218.58
630.11	42569.66
630.26	42789.67
630.41	43096.28
630.56	42431.57
630.71	42726.48
630.86	42377.74
631.01	42328.59
631.16	42263.05
631.31	42499.45
631.46	42213.90
631.61	42073.47
631.76	42480.72
631.91	42279.44
632.06	42204.54
632.21	42335.61
632.36	42490.09
632.51	41874.52
632.66	41970.49
632.81	42232.63
632.96	41521.10
633.10	42005.59
633.25	41911.97
633.40	42300.50
633.55	41790.27
633.70	41436.84
633.85	41750.48
634.00	41937.72
634.15	41876.86
634.30	42007.94
634.45	41862.82
634.60	41940.06
634.75	41771.54
634.90	41895.59
635.05	41668.56
635.19	41329.18
635.34	41888.57
635.49	41668.56
635.64	41443.87
635.79	41373.65
635.94	41432.16
636.09	41113.85
636.24	41221.52
636.39	41378.33
636.53	41048.32
636.68	41736.43
636.83	41340.88
636.98	41151.30
637.13	40919.59
637.28	41563.23
637.43	41603.02
637.57	41420.46
637.72	41560.89
637.87	41146.62
638.02	41256.62
638.17	41038.95
638.32	41600.68
638.46	40966.40
638.61	41130.23
638.76	41043.63
638.91	41390.03
639.06	41364.29
639.20	41074.06
639.35	41141.94
639.50	40872.78
639.65	40624.68
639.80	40849.37
639.94	40685.53
640.09	41020.23
640.24	40051.25
640.39	40765.11
640.54	40442.12
640.68	40617.66
640.83	40844.69
640.98	40360.20
641.13	40320.41
641.27	40751.07
641.42	40341.47
641.57	40538.08
641.72	40795.54
641.86	40629.36
642.01	40133.17
642.16	40411.69
642.31	39950.60
642.45	40584.89
642.60	40076.99
642.75	40758.09
642.90	40245.51
643.04	40493.61
643.19	39697.83
643.34	40114.44
643.48	40250.19
643.63	39775.06
643.78	39754.00
643.93	40009.12
644.07	39810.17
644.22	40362.54
644.37	39807.83
644.51	40133.17
644.66	40273.60
644.81	40163.59
644.95	40098.06
645.10	39676.76
645.25	40126.14
645.39	39590.16
645.54	39931.88
645.69	39480.16
645.83	39955.29
645.98	39983.37
646.13	39587.82
646.27	40072.31
646.42	39159.50
646.57	39447.39
646.71	39386.54
646.86	39526.97
647.00	39587.82
647.15	39775.06
647.30	39302.28
647.44	39225.04
647.59	38880.98
647.74	38869.28
647.88	39335.04
648.03	39505.90
648.17	39564.42
648.32	39606.55
648.47	39688.46
648.61	39051.84
648.76	39625.27
648.90	39236.74
649.05	39122.05
649.20	39208.65
649.34	39030.77
649.49	38691.40
649.63	38993.32
649.78	39154.82
649.92	38946.51
650.07	39445.05
650.21	38817.78
650.36	38981.62
650.51	39253.12
650.65	39636.97
650.80	39414.62
650.94	38932.47
651.09	39068.22
651.23	38902.04
651.38	38958.22
651.52	38941.83
651.67	38497.13
651.81	38436.28
651.96	38660.97
652.10	38405.85
652.25	38731.18
652.39	38457.34
652.54	38424.57
652.68	38808.42
652.83	38712.46
652.97	38824.81
653.12	38529.90
653.26	38349.68
653.41	38607.14
653.55	38059.45
653.70	37741.14
653.84	38586.07
653.99	38410.53
654.13	38244.35
654.27	37797.31
654.42	37879.23
654.56	38525.22
654.71	38080.52
654.85	38597.77
655.00	38082.86
655.14	38005.62
655.29	37736.46
655.43	37684.97
655.57	37596.03
655.72	37364.31
655.86	37338.57
656.01	37628.79
656.15	37546.87
656.30	37415.80
656.44	37738.80
656.58	37521.13
656.73	37743.48
656.87	37333.89
657.01	37699.01
657.16	37364.31
657.30	37572.62
657.45	37223.88
657.59	37624.11
657.73	37336.23
657.88	37804.33
658.02	37469.64
658.16	37783.27
658.31	37701.35
658.45	37663.90
658.60	37542.19
658.74	37422.83
658.88	37401.76
659.03	37001.53
659.17	36893.86
659.31	36893.86
659.46	37317.50
659.60	37186.43
659.74	36865.78
659.89	37165.37
660.03	36914.93
660.17	36613.00
660.32	36821.31
660.46	37029.62
660.60	36825.99
660.74	36863.44
660.89	36765.14
661.03	36526.40
661.17	36514.70
661.32	36439.80
661.46	36423.42
661.60	36233.83
661.74	36175.32
661.89	36224.47
662.03	36369.58
662.17	36266.60
662.31	36128.51
662.46	36620.02
662.60	36451.50
662.74	35950.63
662.88	35864.03
663.03	35763.39
663.17	35908.50
663.31	35672.10
663.45	35758.70
663.60	35786.79
663.74	35826.58
663.88	35466.14
664.02	35683.81
664.17	35512.95
664.31	35449.75
664.45	35232.08
664.59	35082.29
664.73	35297.62
664.88	35704.87
665.02	35171.23
665.16	35482.52
665.30	35012.07
665.44	35154.85
665.59	34796.74
665.73	34895.05
665.87	34787.38
666.01	35206.34
666.15	34976.97
666.29	34904.41
666.44	34995.69
666.58	34368.43
666.72	34768.66
666.86	34345.02
667.00	34286.51
667.14	34560.35
667.28	34195.23
667.43	33750.52
667.57	34410.56
667.71	34471.41
667.85	34424.60
667.99	34218.63
668.13	33886.28
668.27	34316.93
668.41	34167.14
668.56	33858.19
668.70	34246.72
668.84	34408.22
668.98	33663.93
669.12	33399.44
669.26	33820.74
669.40	33649.88
669.54	33628.82
669.68	33427.53
669.82	33280.08
669.96	32961.76
670.10	33605.41
670.25	33476.68
670.39	33153.69
670.53	33106.88
670.67	33111.56
670.81	33544.56
670.95	32921.98
671.09	33284.76
671.23	32980.49
671.37	32760.48
671.51	32690.26
671.65	32826.01
671.79	32535.79
671.93	32407.06
672.07	32350.88
672.21	32395.35
672.35	32767.50
672.49	32477.27
672.63	32449.19
672.77	32725.37
672.91	32381.31
673.05	32144.92
673.19	31908.52
673.33	32109.81
673.47	32074.70
673.61	31573.83
673.75	31571.49
673.89	30998.06
674.03	31157.21
674.17	31938.95
674.31	31583.19
674.45	31000.40
674.59	31651.06
674.73	31569.15
674.87	31494.25
675.01	31564.46
675.15	30944.22
675.29	31346.79
675.43	30644.63
675.56	30988.69
675.70	31075.29
675.84	30543.99
675.98	29771.61
676.12	30775.70
676.26	30661.02
676.40	30487.82
676.54	30515.90
676.68	30735.92
676.82	29762.25
676.96	30307.60
677.10	30073.54
677.23	29462.66
677.37	29612.46
677.51	29771.61
677.65	29460.32
677.79	28933.70
677.93	29296.49
678.07	29607.78
678.21	28723.05
678.34	28868.17
678.48	28685.61
678.62	28587.30
678.76	28524.11
678.90	28510.07
679.04	28753.48
679.18	28924.34
679.31	28500.70
679.45	28027.92
679.59	27688.54
679.73	28006.85
679.87	27931.95
680.00	27634.71
680.14	27690.88
680.28	27803.22
680.42	27894.50
680.56	27953.02
680.70	27510.66
680.83	27845.35
680.97	27658.11
681.11	27620.66
681.25	27105.74
681.39	27204.05
681.52	27370.22
681.66	26897.44
681.80	26967.65
681.94	27021.48
682.07	27047.23
682.21	26639.98
682.35	26583.80
682.49	26185.91
682.62	26473.80
682.76	26422.31
682.90	26176.55
683.04	26541.68
683.17	25834.83
683.31	26010.37
683.45	26127.40
683.59	26221.02
683.72	25806.75
683.86	25649.93
684.00	25846.54
684.13	25481.41
684.27	25380.77
684.41	25273.10
684.55	25146.72
684.68	25369.07
684.82	25151.40
684.96	25048.41
685.09	24931.39
685.23	24893.94
685.37	24807.34
685.50	24851.81
685.64	24751.17
685.78	24135.60
685.91	24460.94
686.05	24123.90
686.19	23995.17
686.32	23962.40
686.46	23276.63
686.60	23672.18
686.73	23491.96
686.87	23353.87
687.01	23330.46
687.14	23218.11
687.28	23154.92
687.42	22909.16
687.55	23435.78
687.69	23185.35
687.82	23271.95
687.96	23150.24
688.10	22850.65
688.23	22946.61
688.37	22881.08
688.50	22408.29
688.64	22380.20
688.78	22614.26
688.91	22628.30
689.05	22387.22
689.18	22331.05
689.32	22207.00
689.46	22185.94
689.59	22043.17
689.73	22274.88
689.86	22054.87
690.00	21893.37
690.13	22164.87
690.27	21926.14
690.41	21986.99
690.54	21018.01
690.68	21207.59
690.81	21460.37
690.95	20954.82
691.08	21397.18
691.22	20800.34
691.35	21270.79
691.49	21242.70
691.62	21441.65
691.76	20931.41
691.89	20568.63
692.03	20629.48
692.16	20617.78
692.30	20608.42
692.43	20482.03
692.57	20184.78
692.70	20264.36
692.84	20217.55
692.97	20084.14
693.11	20201.16
693.24	20346.28
693.38	19807.95
693.51	19695.61
693.65	19833.70
693.78	19992.86
693.92	19641.78
694.05	19133.88
694.19	19278.99
694.32	19321.12
694.45	19424.11
694.59	19236.86
694.72	18775.78
694.86	19014.51
694.99	18951.32
695.13	18984.09
695.26	18785.14
695.39	18670.45
695.53	18743.01
695.66	18913.87
695.80	18878.76
695.93	18628.32
696.07	18466.83
696.20	18216.39
696.33	18085.32
696.47	18078.30
696.60	18352.14
696.73	18150.85
696.87	17980.00
697.00	18015.10
697.14	17919.14
697.27	17745.94
697.40	17722.54
697.54	17687.43
697.67	17462.74
697.80	17411.25
697.94	17385.50
698.07	17158.47
698.21	17207.62
698.34	17242.73
698.47	16877.60
698.61	16952.50
698.74	16610.78
698.87	16645.89
699.01	16585.04
699.14	16547.59
699.27	16388.43
699.40	16297.15
699.54	16662.27
699.67	16175.44
699.80	16126.29
699.94	15889.90
700.07	16322.90
700.20	15999.90
700.34	16114.59
700.47	16133.31
700.60	16145.02
700.73	15875.85
700.87	15807.98
701.00	15477.96
701.13	15566.90
701.26	15447.54
701.40	15410.09
701.53	15393.70
701.66	15391.36
701.79	15047.30
701.93	15358.60
702.06	14881.13
702.19	14953.68
702.32	14946.66
702.46	14869.42
702.59	14902.19
702.72	14717.29
702.85	14860.06
702.99	14647.07
703.12	14850.70
703.25	14501.96
703.38	14427.06
703.51	14384.93
703.65	14635.37
703.78	14295.99
703.91	13940.23
704.04	14487.92
704.17	14218.75
704.31	14157.90
704.44	13703.84
704.57	14015.13
704.70	14207.05
704.83	13898.10
704.96	13811.50
705.10	13848.95
705.23	13549.36
>>>>>End Processed Spectral Data<<<<<
