SpectraSuite Data File
++++++++++++++++++++++++++++++++++++
Date: Fri Oct 25 10:47:41 EDT 2013
User: price-jones
Dark Spectrum Present: No
Reference Spectrum Present: No
Number of Sampled Component Spectra: 1
Spectrometers: USB2+H05261
Integration Time (usec): 100000 (USB2+H05261)
Spectra Averaged: 1 (USB2+H05261)
Boxcar Smoothing: 0 (USB2+H05261)
Correct for Electrical Dark: No (USB2+H05261)
Strobe/Lamp Enabled: No (USB2+H05261)
Correct for Detector Non-linearity: No (USB2+H05261)
Correct for Stray Light: No (USB2+H05261)
Number of Pixels in Processed Spectrum: 2048
>>>>>Begin Processed Spectral Data<<<<<
365.73	168.52
365.92	168.52
366.12	168.52
366.32	46.81
366.52	9.36
366.72	32.77
366.91	42.13
367.11	49.15
367.31	4.68
367.51	84.26
367.70	39.79
367.90	133.41
368.10	77.24
368.30	42.13
368.49	63.19
368.69	11.70
368.89	7.02
369.09	88.94
369.28	60.85
369.48	58.51
369.68	128.73
369.87	100.64
370.07	138.09
370.27	128.73
370.47	210.65
370.66	332.36
370.86	447.04
371.06	416.62
371.25	500.87
371.45	341.72
371.65	461.09
371.84	425.98
372.04	510.24
372.24	451.72
372.44	463.43
372.63	463.43
372.83	430.66
373.03	486.83
373.22	496.19
373.42	524.28
373.62	557.05
373.81	552.37
374.01	596.84
374.21	540.66
374.40	550.03
374.60	568.75
374.79	571.09
374.99	500.87
375.19	528.96
375.38	615.56
375.58	592.16
375.78	568.75
375.97	561.73
376.17	594.50
376.37	554.71
376.56	535.98
376.76	603.86
376.95	596.84
377.15	575.77
377.35	648.33
377.54	547.69
377.74	521.94
377.93	545.34
378.13	559.39
378.33	631.94
378.52	627.26
378.72	561.73
378.91	606.20
379.11	599.18
379.31	685.78
379.50	610.88
379.70	615.56
379.89	695.14
380.09	669.39
380.28	638.97
380.48	655.35
380.68	557.05
380.87	648.33
381.07	608.54
381.26	629.60
381.46	699.82
381.65	655.35
381.85	655.35
382.04	568.75
382.24	627.26
382.43	695.14
382.63	657.69
382.83	683.44
383.02	669.39
383.22	681.10
383.41	660.03
383.61	734.93
383.80	718.54
384.00	690.46
384.19	744.29
384.39	744.29
384.58	716.20
384.78	777.06
384.97	767.70
385.17	734.93
385.36	788.76
385.56	812.17
385.75	791.10
385.95	760.67
386.14	690.46
386.34	772.38
386.53	781.74
386.72	809.83
386.92	849.61
387.11	837.91
387.31	856.64
387.50	751.31
387.70	788.76
387.89	739.61
388.09	833.23
388.28	814.51
388.48	830.89
388.67	863.66
388.86	908.13
389.06	842.59
389.25	889.40
389.45	816.85
389.64	863.66
389.84	917.49
390.03	837.91
390.22	889.40
390.42	884.72
390.61	950.26
390.81	828.55
391.00	1025.15
391.19	922.17
391.39	954.94
391.58	968.98
391.78	922.17
391.97	924.51
392.16	983.02
392.36	1071.97
392.55	976.00
392.75	968.98
392.94	964.30
393.13	1018.13
393.33	908.13
393.52	994.73
393.71	964.30
393.91	1006.43
394.10	978.34
394.29	1053.24
394.49	1123.46
394.68	1083.67
394.88	1135.16
395.07	1219.42
395.26	1036.86
395.46	1048.56
395.65	1165.59
395.84	1109.41
396.04	1205.38
396.23	1177.29
396.42	1165.59
396.62	1158.57
396.81	1135.16
397.00	1151.54
397.19	1254.53
397.39	1107.07
397.58	1256.87
397.77	1196.01
397.97	1303.68
398.16	1268.57
398.35	1287.29
398.55	1259.21
398.74	1259.21
398.93	1350.49
399.12	1240.48
399.32	1280.27
399.51	1359.85
399.70	1343.47
399.90	1338.79
400.09	1406.66
400.28	1437.09
400.47	1380.92
400.67	1437.09
400.86	1467.52
401.05	1427.73
401.24	1425.39
401.44	1455.81
401.63	1481.56
401.82	1533.05
402.01	1540.07
402.21	1533.05
402.40	1540.07
402.59	1584.54
402.78	1446.45
402.97	1467.52
403.17	1554.12
403.36	1607.95
403.55	1497.94
403.74	1582.20
403.93	1692.21
404.13	1657.10
404.32	1671.14
404.51	1598.59
404.70	1729.66
404.89	1652.42
405.09	1724.97
405.28	1652.42
405.47	1647.74
405.66	1750.72
405.85	1722.63
406.05	1638.38
406.24	1692.21
406.43	1703.91
406.62	1783.49
406.81	1907.54
407.00	1806.89
407.20	1914.56
407.39	1900.52
407.58	1891.15
407.77	1919.24
407.96	1933.28
408.15	2005.84
408.34	1998.82
408.54	1952.01
408.73	2050.31
408.92	1994.14
409.11	1909.88
409.30	2012.86
409.49	2019.88
409.68	2040.95
409.87	2054.99
410.07	2125.21
410.26	2057.33
410.45	2101.80
410.64	2080.74
410.83	2260.96
411.02	2165.00
411.21	2183.72
411.40	2366.28
411.59	2298.41
411.78	2380.32
411.98	2319.47
412.17	2300.75
412.36	2401.39
412.55	2340.54
412.74	2504.37
412.93	2387.35
413.12	2410.75
413.31	2537.14
413.50	2497.35
413.69	2558.21
413.88	2635.44
414.07	2504.37
414.26	2495.01
414.45	2569.91
414.64	2649.49
414.83	2658.85
415.02	2642.46
415.22	2693.96
415.41	2796.94
415.60	2808.64
415.79	2899.92
415.98	2745.45
416.17	2813.32
416.36	2892.90
416.55	2963.12
416.74	2832.05
416.93	2867.16
417.12	2904.60
417.31	3033.33
417.50	2906.95
417.69	3180.79
417.88	3021.63
418.07	3026.31
418.26	3021.63
418.45	3143.34
418.64	3218.24
418.83	3302.50
419.02	3122.27
419.21	3059.08
419.39	3145.68
419.58	3075.46
419.77	3089.51
419.96	3201.85
420.15	3290.79
420.34	3328.24
420.53	3297.81
420.72	3386.76
420.91	3328.24
421.10	3492.08
421.29	3492.08
421.48	3265.05
421.67	3471.01
421.86	3379.73
422.05	3356.33
422.24	3204.19
422.43	3435.91
422.61	3356.33
422.80	3452.29
422.99	3426.54
423.18	3520.17
423.37	3503.78
423.56	3627.83
423.75	3508.46
423.94	3508.46
424.13	3332.92
424.32	3440.59
424.50	3566.98
424.69	3529.53
424.88	3613.79
425.07	3510.80
425.26	3452.29
425.45	3513.14
425.64	3662.94
425.83	3611.45
426.01	3627.83
426.20	3634.85
426.39	3620.81
426.58	3672.30
426.77	3623.15
426.96	3646.55
427.15	3529.53
427.33	3681.66
427.52	3726.13
427.71	3658.26
427.90	3735.50
428.09	3726.13
428.28	3611.45
428.46	3887.63
428.65	3662.94
428.84	3861.88
429.03	3927.42
429.22	3714.43
429.40	3770.60
429.59	3819.75
429.78	3644.21
429.97	3702.73
430.16	3824.44
430.34	3936.78
430.53	3992.95
430.72	3873.59
430.91	3920.40
431.10	3962.53
431.28	4058.49
431.47	4147.43
431.66	4098.28
431.85	4058.49
432.03	4245.73
432.22	4379.14
432.41	4025.72
432.60	4170.83
432.79	4049.13
432.97	4231.69
433.16	4217.65
433.35	4117.00
433.54	4222.33
433.72	4182.54
433.91	4234.03
434.10	4276.16
434.28	4388.50
434.47	4421.27
434.66	4362.76
434.85	4292.54
435.03	4425.95
435.22	4470.42
435.41	4711.50
435.59	4596.81
435.78	4500.85
435.97	4498.51
436.16	4575.75
436.34	4535.96
436.53	4510.21
436.72	4697.46
436.90	4554.68
437.09	4697.46
437.28	4617.88
437.46	4690.43
437.65	4624.90
437.84	4667.03
438.02	4681.07
438.21	4807.46
438.40	4657.67
438.58	4723.20
438.77	4884.70
438.96	4901.08
439.14	5093.01
439.33	5055.56
439.52	5125.77
439.70	4919.81
439.89	5193.65
440.08	5247.48
440.26	5093.01
440.45	5252.16
440.63	5242.80
440.82	5252.16
441.01	5343.44
441.19	5404.30
441.38	5542.39
441.57	5446.43
441.75	5432.38
441.94	5706.23
442.12	5724.95
442.31	5614.95
442.50	5575.16
442.68	5636.01
442.87	5530.69
443.05	5687.50
443.24	5951.98
443.43	5741.33
443.61	5830.27
443.80	6031.56
443.98	5577.50
444.17	5657.07
444.35	5846.66
444.54	5841.98
444.73	5834.96
444.91	5724.95
445.10	5664.10
445.28	5755.38
445.47	5748.36
445.65	5959.00
445.84	5914.53
446.02	5921.56
446.21	5902.83
446.39	5912.19
446.58	5825.59
446.77	5928.58
446.95	5919.21
447.14	6003.47
447.32	6087.73
447.51	5893.47
447.69	5872.40
447.88	6001.13
448.06	6017.52
448.25	6115.82
448.43	6010.50
448.62	6045.60
448.80	5989.43
448.99	6202.42
449.17	6143.91
449.36	5980.07
449.54	6209.44
449.73	6171.99
449.91	6377.96
450.10	6354.55
450.28	6387.32
450.46	6483.28
450.65	6270.30
450.83	6333.49
451.02	6345.19
451.20	6480.94
451.39	6462.22
451.57	6544.14
451.76	6574.56
451.94	6462.22
452.13	6483.28
452.31	6572.22
452.49	6469.24
452.68	6485.62
452.86	6492.65
453.05	6642.44
453.23	6572.22
453.42	6558.18
453.60	6471.58
453.78	6642.44
453.97	6600.31
454.15	6597.97
454.34	6476.26
454.52	6738.40
454.70	6712.66
454.89	6745.42
455.07	6738.40
455.26	6820.32
455.44	6925.65
455.62	6862.45
455.81	6817.98
455.99	7112.89
456.17	7000.54
456.36	6970.12
456.54	7164.38
456.73	7124.59
456.91	7124.59
457.09	7445.24
457.28	7517.80
457.46	7204.17
457.64	7335.24
457.83	7281.41
458.01	7199.49
458.19	7375.03
458.38	7407.80
458.56	7410.14
458.74	7421.84
458.93	7400.77
459.11	7524.82
459.29	7428.86
459.48	7543.55
459.66	7503.76
459.84	7606.74
460.03	7892.29
460.21	7658.23
460.39	7786.96
460.57	7665.25
460.76	7688.66
460.94	7763.56
461.12	7597.38
461.31	7763.56
461.49	7669.94
461.67	7688.66
461.85	8030.38
462.04	7749.51
462.22	8351.03
462.40	7939.10
462.59	8042.08
462.77	8056.12
462.95	7763.56
463.13	8262.09
463.32	8304.22
463.50	8116.98
463.68	8231.66
463.86	8042.08
464.05	8004.63
464.23	8044.42
464.41	8142.72
464.59	8023.36
464.78	8280.82
464.96	8299.54
465.14	8173.15
465.32	8142.72
465.50	8229.32
465.69	8432.95
465.87	8285.50
466.05	8269.11
466.23	8320.60
466.41	8248.05
466.60	8290.18
466.78	8428.27
466.96	8526.57
467.14	8463.38
467.32	8538.27
467.51	8641.26
467.69	8355.71
467.87	8489.12
468.05	8510.19
468.23	8365.07
468.41	8346.35
468.60	8645.94
468.78	8538.27
468.96	8629.56
469.14	8767.65
469.32	8638.92
469.50	8664.66
469.69	8872.97
469.87	8966.59
470.05	9029.79
470.23	8898.72
470.41	9029.79
470.59	9015.74
470.77	8877.65
470.95	9008.72
471.14	9228.73
471.32	8884.67
471.50	9228.73
471.68	9114.05
471.86	9172.56
472.04	9247.46
472.22	9682.80
472.40	9261.50
472.58	9444.06
472.77	9418.32
472.95	9554.07
473.13	9668.75
473.31	9668.75
473.49	9563.43
473.67	9715.56
473.85	9727.27
474.03	9963.66
474.21	9905.15
474.39	10024.51
474.57	10146.22
474.75	10008.13
474.93	10076.01
475.12	10022.17
475.30	10153.24
475.48	10331.12
475.66	10466.88
475.84	10338.15
476.02	10457.51
476.20	10338.15
476.38	10450.49
476.56	10661.14
476.74	10714.97
476.92	10480.92
477.10	10647.10
477.28	11089.46
477.46	10766.46
477.64	11066.05
477.82	11344.58
478.00	11400.75
478.18	11197.12
478.36	11482.67
478.54	11445.22
478.72	11707.36
478.90	11840.77
479.08	11707.36
479.26	11751.83
479.44	12067.80
479.62	11978.86
479.80	12035.03
479.98	12065.46
480.16	12556.97
480.34	12631.87
480.52	12397.82
480.70	12737.20
480.88	12482.08
481.06	12568.68
481.24	12776.98
481.41	12886.99
481.59	12688.04
481.77	12943.16
481.95	13027.42
482.13	13069.55
482.31	13268.50
482.49	13530.64
482.67	13544.68
482.85	13422.97
483.03	13916.83
483.21	13851.29
483.39	14104.07
483.57	14101.73
483.74	14403.66
483.92	14178.97
484.10	14396.64
484.28	14494.94
484.46	14684.52
484.64	14876.44
484.82	14672.82
485.00	15023.90
485.18	14995.81
485.35	15197.10
485.53	15096.46
485.71	14799.21
485.89	15433.49
486.07	15314.13
486.25	15494.35
486.43	15309.44
486.61	15789.25
486.78	15976.50
486.96	16016.29
487.14	16112.25
487.32	16212.89
487.50	16453.97
487.68	16489.07
487.85	16671.64
488.03	16779.30
488.21	16868.24
488.39	16966.54
488.57	17163.15
488.75	17411.25
488.92	17511.89
489.10	17469.76
489.28	17792.75
489.46	17987.02
489.64	18099.36
489.81	18200.01
489.99	18162.56
490.17	18415.34
490.35	18747.69
490.53	18574.49
490.70	18724.29
490.88	18644.71
491.06	18883.44
491.24	18918.55
491.41	19129.20
491.59	18960.68
491.77	19077.71
491.95	19365.59
492.13	19491.98
492.30	19803.27
492.48	19627.73
492.66	19814.98
492.84	19969.45
493.01	20449.26
493.19	20271.38
493.37	20465.64
493.54	20751.19
493.72	20692.68
493.90	20891.62
494.08	21085.89
494.25	21481.44
494.43	21029.71
494.61	21348.03
494.79	21329.30
494.96	21476.76
495.14	21488.46
495.32	21577.40
495.49	21820.81
495.67	21769.32
495.85	22225.73
496.02	22190.62
496.20	22321.69
496.38	22471.48
496.55	22733.62
496.73	22845.97
496.91	22911.50
497.09	22939.59
497.26	23173.64
497.44	23140.88
497.62	23185.35
497.79	23503.66
497.97	23246.20
498.14	23599.62
498.32	23709.63
498.50	23840.70
498.67	23868.78
498.85	24315.83
499.03	24079.43
499.20	24236.25
499.38	24034.96
499.56	24109.86
499.73	24285.40
499.91	24411.79
500.08	24657.54
500.26	24664.57
500.44	24456.26
500.61	24844.79
500.79	24830.74
500.97	24765.21
501.14	25102.25
501.32	25640.57
501.49	25460.35
501.67	25305.87
501.84	25420.56
502.02	25458.01
502.20	25823.13
502.37	25979.95
502.55	25479.07
502.72	25759.94
502.90	25792.70
503.07	25624.18
503.25	25933.14
503.43	25947.18
503.60	25965.90
503.78	26218.68
503.95	26052.50
504.13	26677.43
504.30	26408.26
504.48	26614.23
504.65	26955.95
504.83	27147.87
505.01	26979.36
505.18	26602.53
505.36	26904.46
505.53	27356.18
505.71	27569.17
505.88	27395.97
506.06	27030.85
506.23	27475.55
506.41	27599.60
506.58	27395.97
506.76	27569.17
506.93	28151.96
507.11	28051.32
507.28	28149.62
507.46	27569.17
507.63	28201.11
507.81	28355.59
507.98	27700.24
508.16	28435.17
508.33	28723.05
508.50	28655.18
508.68	28549.85
508.85	28830.72
509.03	28975.83
509.20	28854.12
509.38	28856.46
509.55	29139.67
509.73	28989.88
509.90	29242.65
510.08	29015.62
510.25	29411.17
510.42	29261.38
510.60	29589.05
510.77	29530.54
510.95	29888.64
511.12	29722.46
511.30	29479.05
511.47	30188.23
511.64	30122.69
511.82	29979.92
511.99	29841.83
512.17	30340.36
512.34	30092.27
512.51	30471.43
512.69	30436.33
512.86	30668.04
513.04	30829.54
513.21	30831.88
513.38	30616.55
513.56	30782.73
513.73	30663.36
513.90	31019.12
514.08	30675.06
514.25	30951.24
514.43	31023.80
514.60	31002.74
514.77	31056.57
514.95	31529.36
515.12	31330.41
515.29	31152.53
515.47	31950.65
515.64	31627.66
515.81	31442.76
515.99	31702.56
516.16	31529.36
516.33	31501.27
516.51	31632.34
516.68	31541.06
516.85	31384.24
517.03	31847.67
517.20	31988.10
517.37	31906.18
517.54	32142.58
517.72	32559.19
517.89	32226.84
518.06	32018.53
518.24	32430.46
518.41	32301.73
518.58	32741.75
518.75	32397.70
518.93	32678.56
519.10	32793.25
519.27	32891.55
519.45	33291.78
519.62	33130.28
519.79	33357.32
519.96	33146.67
520.14	33481.36
520.31	33553.92
520.48	33340.93
520.65	33675.63
520.83	34059.48
521.00	33652.22
521.17	33883.94
521.34	34061.82
521.52	34148.42
521.69	33876.91
521.86	33928.41
522.03	34188.21
522.20	34136.71
522.38	34188.21
522.55	34150.76
522.72	34300.55
522.89	34321.62
523.07	34443.32
523.24	34258.42
523.41	34401.19
523.58	34246.72
523.75	34962.92
523.92	34560.35
524.10	35126.76
524.27	35154.85
524.44	35119.74
524.61	35314.00
524.78	35299.96
524.96	35222.72
525.13	35512.95
525.30	35196.98
525.47	35360.81
525.64	35409.96
525.81	35182.93
525.98	35718.92
526.16	35129.10
526.33	35143.14
526.50	35693.17
526.67	35564.44
526.84	35075.27
527.01	35344.43
527.18	35852.33
527.36	35903.82
527.53	36060.63
527.70	36301.71
527.87	36133.19
528.04	36168.30
528.21	36149.57
528.38	35735.30
528.55	36231.49
528.72	36601.30
528.89	36563.85
529.07	36919.61
529.24	36800.24
529.41	36432.78
529.58	36587.25
529.75	36245.54
529.92	36781.52
530.09	37254.31
530.26	36666.83
530.43	36938.33
530.60	36535.76
530.77	36762.79
530.94	37518.79
531.11	37160.69
531.28	37212.18
531.46	37376.01
531.63	37090.47
531.80	36964.08
531.97	37291.76
532.14	37261.33
532.31	37256.65
532.48	37488.36
532.65	37399.42
532.82	37455.59
532.99	37383.04
533.16	37724.75
533.33	37301.12
533.50	38305.21
533.67	38169.46
533.84	38085.20
534.01	37780.93
534.18	38045.41
534.35	38314.57
534.52	37951.79
534.69	37996.26
534.86	38375.42
535.03	37771.57
535.20	38132.01
535.37	38492.45
535.54	38618.84
535.71	38373.08
535.88	38822.47
536.05	38618.84
536.22	38450.32
536.38	38459.68
536.55	38614.16
536.72	38600.12
536.89	38352.02
537.06	38447.98
537.23	39061.20
537.40	38909.07
537.57	38611.82
537.74	38946.51
537.91	39718.89
538.08	39246.10
538.25	39126.74
538.42	39274.19
538.59	39372.49
538.75	38953.54
538.92	39508.24
539.09	39140.78
539.26	39255.46
539.43	39409.94
539.60	39061.20
539.77	39196.95
539.94	39414.62
540.11	39292.91
540.28	39367.81
540.44	39590.16
540.61	39459.09
540.78	39321.00
540.95	39470.79
541.12	39545.69
541.29	39409.94
541.46	39402.92
541.62	39655.70
541.79	39700.17
541.96	39519.95
542.13	39697.83
542.30	40329.77
542.47	39875.71
542.63	40257.21
542.80	40456.16
542.97	40423.39
543.14	40423.39
543.31	40680.85
543.48	40891.50
543.64	41013.21
543.81	40322.75
543.98	40470.20
544.15	40598.93
544.32	41216.83
544.48	40687.87
544.65	40666.81
544.82	41184.07
544.99	40229.13
545.16	40940.65
545.32	41062.36
545.49	40851.71
545.66	40580.21
545.83	40968.74
546.00	41144.28
546.16	41390.03
546.33	41064.70
546.50	40849.37
546.67	41418.12
546.83	41048.32
547.00	40844.69
547.17	41392.37
547.34	41375.99
547.50	41495.36
547.67	41771.54
547.84	41717.71
548.00	41577.28
548.17	41717.71
548.34	41633.45
548.51	41706.01
548.67	42146.03
548.84	41560.89
549.01	41811.33
549.18	41600.68
549.34	41565.57
549.51	41663.88
549.68	42148.37
549.84	41743.45
550.01	41879.21
550.18	41532.81
550.34	42096.88
550.51	41897.93
550.68	42047.72
550.84	41951.76
551.01	41911.97
551.18	42258.37
551.34	41984.53
551.51	42024.32
551.68	42356.67
551.84	42520.51
552.01	41830.05
552.18	42389.44
552.34	41900.27
552.51	42436.25
552.68	42480.72
552.84	43016.71
553.01	42836.48
553.18	42476.04
553.34	42333.27
553.51	41907.29
553.67	41965.81
553.84	42976.92
554.01	42501.79
554.17	42918.40
554.34	43159.48
554.51	42770.95
554.67	42843.51
554.84	42813.08
555.00	42642.22
555.17	42630.52
555.33	42988.62
555.50	43075.22
555.67	42639.88
555.83	42845.85
556.00	43283.53
556.16	43381.83
556.33	42672.65
556.50	43042.45
556.66	43091.60
556.83	43065.86
556.99	43374.81
557.16	43145.44
557.32	43136.07
557.49	43281.19
557.65	42913.72
557.82	42611.79
557.98	42948.83
558.15	43349.06
558.32	43491.83
558.48	43601.84
558.65	43292.89
558.81	43405.23
558.98	43545.67
559.14	43239.06
559.31	43086.92
559.47	43894.41
559.64	43826.53
559.80	43707.16
559.97	43880.36
560.13	43150.12
560.30	43386.51
560.46	43658.01
560.63	43814.83
560.79	43863.98
560.96	43585.46
561.12	43318.64
561.29	43690.78
561.45	43695.46
561.61	43454.39
561.78	44058.24
561.94	43084.58
562.11	43714.19
562.27	43597.16
562.44	43398.21
562.60	44126.12
562.77	43913.13
562.93	43468.43
563.10	44067.61
563.26	43852.28
563.42	44034.84
563.59	44009.09
563.75	43545.67
563.92	44460.82
564.08	43753.97
564.24	44271.23
564.41	43880.36
564.57	43922.49
564.74	44053.56
564.90	43997.39
565.07	44095.69
565.23	44121.44
565.39	43796.10
565.56	44186.97
565.72	43650.99
565.88	43737.59
566.05	44105.06
566.21	44135.48
566.38	44161.23
566.54	44371.88
566.70	44556.78
566.87	44648.06
567.03	44648.06
567.19	44378.90
567.36	44329.75
567.52	44189.31
567.68	44364.85
567.85	44060.58
568.01	44292.30
568.17	43915.47
568.34	44519.33
568.50	44428.05
568.66	43913.13
568.83	44308.68
568.99	44212.72
569.15	44112.08
569.32	43735.25
569.48	44062.93
569.64	44832.96
569.81	44509.97
569.97	44179.95
570.13	44210.38
570.30	44289.96
570.46	44203.36
570.62	43840.57
570.78	43985.69
570.95	44327.41
571.11	44547.42
571.27	44275.91
571.43	44334.43
571.60	44430.39
571.76	44491.24
571.92	44158.89
572.09	44346.13
572.25	43978.67
572.41	44533.37
572.57	44601.25
572.74	44765.09
572.90	44872.75
573.06	44879.77
573.22	44526.35
573.38	44161.23
573.55	44121.44
573.71	45015.52
573.87	44811.90
574.03	44212.72
574.20	44666.78
574.36	44547.42
574.52	44479.54
574.68	44774.45
574.84	44369.54
575.01	44643.38
575.17	44521.67
575.33	44430.39
575.49	44425.71
575.65	44727.64
575.82	44919.56
575.98	44488.90
576.14	44926.58
576.30	44594.23
576.46	44451.45
576.62	44467.84
576.79	44360.17
576.95	44149.53
577.11	44196.34
577.27	44547.42
577.43	44533.37
577.59	44367.20
577.75	44308.68
577.92	44243.15
578.08	44481.88
578.24	44355.49
578.40	44847.00
578.56	44587.21
578.72	44729.98
578.88	44641.04
579.04	44538.05
579.21	44626.99
579.37	44800.19
579.53	44825.94
579.69	44453.79
579.85	44545.08
580.01	44886.79
580.17	44559.12
580.33	44935.95
580.49	45024.89
580.65	44732.32
580.82	44739.34
580.98	44680.83
581.14	44250.17
581.30	45017.86
581.46	44573.16
581.62	44360.17
581.78	44584.86
581.94	45036.59
582.10	44673.81
582.26	44856.37
582.42	44800.19
582.58	44886.79
582.74	44739.34
582.90	44828.28
583.06	44804.88
583.22	45371.28
583.38	44891.48
583.54	45085.74
583.70	44844.66
583.86	44673.81
584.02	44229.10
584.18	44914.88
584.34	45022.54
584.50	45174.68
584.66	44610.61
584.82	44861.05
584.98	44854.03
585.14	45036.59
585.30	44896.16
585.46	44603.59
585.62	44605.93
585.78	44898.50
585.94	44198.68
586.10	44603.59
586.26	44542.74
586.42	44744.02
586.58	45036.59
586.74	44662.10
586.90	44912.54
587.06	44318.04
587.22	44975.73
587.38	44612.95
587.54	45610.02
587.70	44844.66
587.86	44786.15
588.02	44687.85
588.18	44865.73
588.34	44973.39
588.49	44652.74
588.65	44409.32
588.81	44678.49
588.97	44718.28
589.13	44598.91
589.29	44786.15
589.45	44233.78
589.61	44832.96
589.77	44985.10
589.93	44847.00
590.08	45198.09
590.24	45097.44
590.40	44744.02
590.56	45212.13
590.72	44865.73
590.88	45003.82
591.04	44935.95
591.20	45366.60
591.35	45177.02
591.51	45373.63
591.67	44973.39
591.83	45588.95
591.99	45212.13
592.15	44584.86
592.31	45219.15
592.46	44762.75
592.62	44641.04
592.78	45165.32
592.94	44786.15
593.10	44399.96
593.26	45392.35
593.41	44762.75
593.57	45020.20
593.73	45109.14
593.89	45343.20
594.05	45270.64
594.20	45113.83
594.36	45378.31
594.52	45141.91
594.68	44797.85
594.84	44886.79
594.99	45645.13
595.15	44732.32
595.31	45558.53
595.47	44797.85
595.62	45666.19
595.78	45041.27
595.94	45460.23
596.10	45808.96
596.25	45209.79
596.41	45457.88
596.57	45240.21
596.73	45317.45
596.88	44762.75
597.04	45003.82
597.20	45141.91
597.36	45249.58
597.51	45319.79
597.67	45319.79
597.83	45244.90
597.99	45366.60
598.14	45113.83
598.30	44896.16
598.46	45151.27
598.61	45242.56
598.77	45158.30
598.93	45284.68
599.09	45022.54
599.24	45277.66
599.40	45340.86
599.56	45546.82
599.71	45652.15
599.87	45345.54
600.03	45382.99
600.18	45287.03
600.34	44973.39
600.50	45064.67
600.65	44835.30
600.81	45441.50
600.97	45462.57
601.12	45584.27
601.28	45057.65
601.44	44673.81
601.59	44942.97
601.75	44694.87
601.91	45148.93
602.06	44978.07
602.22	45399.37
602.37	45127.87
602.53	45081.06
602.69	45755.13
602.84	45069.36
603.00	45181.70
603.16	45181.70
603.31	44971.05
603.47	44868.07
603.62	45265.96
603.78	45221.49
603.94	45495.33
604.09	45228.51
604.25	45460.23
604.40	45237.87
604.56	45289.37
604.71	45251.92
604.87	45120.85
605.03	45006.16
605.18	45172.34
605.34	45200.43
605.49	44573.16
605.65	45139.57
605.80	45343.20
605.96	45432.14
606.12	45441.50
606.27	45020.20
606.43	44793.17
606.58	45123.19
606.74	45097.44
606.89	44699.55
607.05	45167.66
607.20	45422.78
607.36	45097.44
607.51	45357.24
607.67	44814.24
607.82	44959.35
607.98	44945.31
608.13	44931.26
608.29	45205.11
608.44	44645.72
608.60	44484.22
608.75	44692.53
608.91	44528.69
609.06	44863.39
609.22	45003.82
609.37	44823.60
609.53	44603.59
609.68	44971.05
609.84	44727.64
609.99	44519.33
610.15	44741.68
610.30	44399.96
610.46	44278.25
610.61	44512.31
610.76	44402.30
610.92	44388.26
611.07	44355.49
611.23	44191.65
611.38	44928.92
611.54	44612.95
611.69	44617.63
611.84	44495.92
612.00	44605.93
612.15	44411.67
612.31	44713.59
612.46	44437.41
612.62	44776.79
612.77	44542.74
612.92	44509.97
613.08	44498.26
613.23	44399.96
613.39	44360.17
613.54	43777.38
613.69	44102.71
613.85	44229.10
614.00	44570.82
614.15	44486.56
614.31	44465.50
614.46	44566.14
614.62	44346.13
614.77	43863.98
614.92	44205.70
615.08	44212.72
615.23	44320.38
615.38	44098.03
615.54	43934.20
615.69	43842.92
615.84	43721.21
616.00	44041.86
616.15	43824.19
616.30	44285.28
616.46	43833.55
616.61	43887.39
616.76	43648.65
616.92	43796.10
617.07	43728.23
617.22	43739.93
617.37	43215.65
617.53	44062.93
617.68	43948.24
617.83	44013.77
617.99	43817.17
618.14	43714.19
618.29	43625.25
618.45	43906.11
618.60	43423.96
618.75	43796.10
618.90	43704.82
619.06	43969.30
619.21	43522.26
619.36	44060.58
619.51	43934.20
619.67	43653.33
619.82	43772.70
619.97	44184.63
620.12	43379.49
620.28	43159.48
620.43	43540.99
620.58	43124.37
620.73	43161.82
620.89	43012.02
621.04	43203.95
621.19	43332.68
621.34	43435.66
621.49	43423.96
621.65	42768.61
621.80	43597.16
621.95	43419.28
622.10	43248.42
622.25	43028.41
622.41	42703.07
622.56	42656.26
622.71	43044.79
622.86	43091.60
623.01	43131.39
623.16	43063.52
623.32	43316.29
623.47	43194.59
623.62	43241.40
623.77	42742.86
623.92	42850.53
624.07	42492.43
624.23	42705.41
624.38	42696.05
624.53	42667.97
624.68	43096.28
624.83	42658.60
624.98	42588.39
625.13	42328.59
625.29	42401.14
625.44	42700.73
625.59	42213.90
625.74	42183.48
625.89	41963.46
626.04	42185.82
626.19	42204.54
626.34	42469.02
626.49	42174.11
626.65	42251.35
626.80	42555.62
626.95	42143.69
627.10	42183.48
627.25	41986.87
627.40	41804.31
627.55	41734.09
627.70	41574.94
627.85	41708.35
628.00	42005.59
628.15	42342.63
628.30	41881.55
628.45	41937.72
628.60	42220.92
628.76	42312.20
628.91	42405.83
629.06	41888.57
629.21	41640.47
629.36	41895.59
629.51	41502.38
629.66	41092.79
629.81	41567.91
629.96	41425.14
630.11	41596.00
630.26	41764.52
630.41	41851.12
630.56	41453.23
630.71	41787.92
630.86	41521.10
631.01	41507.06
631.16	41907.29
631.31	41645.15
631.46	40917.25
631.61	41277.69
631.76	41401.74
631.91	41537.49
632.06	41724.73
632.21	41614.72
632.36	41322.16
632.51	41212.15
632.66	41310.46
632.81	40741.71
632.96	41345.56
633.10	41074.06
633.25	41258.96
633.40	41120.87
633.55	41375.99
633.70	41151.30
633.85	41106.83
634.00	40872.78
634.15	40823.62
634.30	40687.87
634.45	41242.58
634.60	41254.28
634.75	40832.99
634.90	40842.35
635.05	41027.25
635.19	40650.42
635.34	41010.87
635.49	41036.61
635.64	40439.78
635.79	40381.26
635.94	40416.37
636.09	40589.57
636.24	40542.76
636.39	40381.26
636.53	40474.88
636.68	40465.52
636.83	40098.06
636.98	40631.70
637.13	39957.63
637.28	40741.71
637.43	40680.85
637.57	40758.09
637.72	40856.39
637.87	40343.81
638.02	40566.16
638.17	40093.38
638.32	39934.22
638.46	40044.23
638.61	39662.72
638.76	39981.03
638.91	40381.26
639.06	40189.34
639.20	39871.03
639.35	40098.06
639.50	40215.08
639.65	40402.33
639.80	39903.79
639.94	40140.19
640.09	39885.07
640.24	39990.39
640.39	39311.64
640.54	39784.43
640.68	39971.67
640.83	39676.76
640.98	39938.90
641.13	39697.83
641.27	40292.32
641.42	39952.94
641.57	39541.01
641.72	39913.16
641.86	39248.44
642.01	39337.38
642.16	39187.59
642.31	39218.02
642.45	39538.67
642.60	39325.68
642.75	39175.89
642.90	39428.66
643.04	39325.68
643.19	38969.92
643.34	39302.28
643.48	39533.99
643.63	39414.62
643.78	39438.03
643.93	39016.73
644.07	39119.71
644.22	39391.22
644.37	39342.06
644.51	39208.65
644.66	39110.35
644.81	39526.97
644.95	39346.75
645.10	39447.39
645.25	39299.94
645.39	39524.63
645.54	39683.78
645.69	39100.99
645.83	38735.87
645.98	38728.84
646.13	39091.63
646.27	38890.34
646.42	38955.88
646.57	38852.89
646.71	39208.65
646.86	38885.66
647.00	38799.06
647.15	38951.20
647.30	38981.62
647.44	38925.45
647.59	39264.83
647.74	38600.12
647.88	38813.10
648.03	38529.90
648.17	38686.71
648.32	38550.96
648.47	38480.75
648.61	38541.60
648.76	38998.01
648.90	38132.01
649.05	38469.04
649.20	38384.79
649.34	38953.54
649.49	38614.16
649.63	38274.78
649.78	38022.00
649.92	38478.41
650.07	38808.42
650.21	38192.86
650.36	38244.35
650.51	38132.01
650.65	38670.33
650.80	38983.96
650.94	38314.57
651.09	38249.03
651.23	37876.89
651.38	38431.60
651.52	37874.55
651.67	38265.42
651.81	38120.31
651.96	37642.84
652.10	38089.88
652.25	37818.38
652.39	37809.01
652.54	38057.11
652.68	37717.73
652.83	38038.39
652.97	37619.43
653.12	37720.07
653.26	38038.39
653.41	37827.74
653.55	37879.23
653.70	37158.34
653.84	38078.18
653.99	37848.80
654.13	37322.18
654.27	37872.21
654.42	37420.48
654.56	38026.68
654.71	37846.46
654.85	37638.15
655.00	37275.37
655.14	37146.64
655.29	37383.04
655.43	37179.41
655.57	37193.45
655.72	37085.79
655.86	37160.69
656.01	36910.25
656.15	36825.99
656.30	37305.80
656.44	37170.05
656.58	37008.55
656.73	37244.94
656.87	36673.85
657.01	37046.00
657.16	36650.45
657.30	36493.63
657.45	36779.18
657.59	36907.91
657.73	36540.44
657.88	36971.10
658.02	36842.37
658.16	36573.21
658.31	36811.95
658.45	37266.01
658.60	36765.14
658.74	36989.83
658.88	36732.37
659.03	36278.30
659.17	36421.08
659.31	36664.49
659.46	36233.83
659.60	36339.16
659.74	36346.18
659.89	35976.37
660.03	36451.50
660.17	36367.24
660.32	36294.69
660.46	36261.92
660.60	36194.04
660.74	36245.54
660.89	36077.02
661.03	35981.06
661.17	36098.08
661.32	35405.28
661.46	36158.94
661.60	35782.11
661.74	35768.07
661.89	35969.35
662.03	35732.96
662.17	35742.32
662.31	35452.09
662.46	35583.16
662.60	35421.67
662.74	35433.37
662.88	35314.00
663.03	35428.69
663.17	35110.38
663.31	35548.06
663.45	35297.62
663.60	35222.72
663.74	35178.25
663.88	34806.11
664.02	35082.29
664.17	35072.93
664.31	34675.04
664.45	34771.00
664.59	34763.98
664.73	34909.09
664.88	34787.38
665.02	34272.46
665.16	34347.36
665.30	34682.06
665.44	34286.51
665.59	34235.02
665.73	34078.20
665.87	34352.04
666.01	34412.90
666.15	34227.99
666.29	34204.59
666.44	34548.65
666.58	34139.05
666.72	34253.74
666.86	34277.15
667.00	34195.23
667.14	33830.10
667.28	33684.99
667.43	33736.48
667.57	33752.87
667.71	33537.54
667.85	33509.45
667.99	33474.34
668.13	33296.46
668.27	33273.06
668.41	33350.29
668.56	33249.65
668.70	33453.28
668.84	33570.30
668.98	33479.02
669.12	33137.30
669.26	33153.69
669.40	33242.63
669.54	33050.70
669.68	33097.52
669.82	32858.78
669.96	32622.39
670.10	32802.61
670.25	32842.40
670.39	32697.28
670.53	33041.34
670.67	32362.59
670.81	32657.49
670.95	32575.58
671.09	32570.90
671.23	32725.37
671.37	32713.67
671.51	31817.24
671.65	32299.39
671.79	32165.98
671.93	32149.60
672.07	32165.98
672.21	32252.58
672.35	31349.14
672.49	31456.80
672.63	31913.20
672.77	32149.60
672.91	31594.89
673.05	31445.10
673.19	31290.62
673.33	31655.75
673.47	31559.78
673.61	31384.24
673.75	31372.54
673.89	30972.31
674.03	31461.48
674.17	30754.64
674.31	31407.65
674.45	30902.09
674.59	31012.10
674.73	31400.63
674.87	30941.88
675.01	30960.61
675.15	30932.52
675.29	30754.64
675.43	30689.10
675.56	30441.01
675.70	30719.53
675.84	30082.91
675.98	29457.98
676.12	30122.69
676.26	30082.91
676.40	29855.87
676.54	29872.26
676.68	29654.59
676.82	29490.75
676.96	29411.17
677.10	29324.57
677.23	29572.67
677.37	29390.11
677.51	29394.79
677.65	29296.49
677.79	29109.24
677.93	29170.10
678.07	28526.45
678.21	28620.07
678.34	28973.49
678.48	28680.92
678.62	28907.96
678.76	28421.13
678.90	28154.30
679.04	28388.36
679.18	28732.42
679.31	28196.43
679.45	28095.79
679.59	27995.15
679.73	27566.83
679.87	27934.29
680.00	27711.94
680.14	27775.14
680.28	27665.13
680.42	27604.28
680.56	27623.00
680.70	27215.75
680.83	27234.47
680.97	26754.66
681.11	26869.35
681.25	26911.48
681.39	26686.79
681.52	26677.43
681.66	27084.68
681.80	26457.42
681.94	26590.83
682.07	26333.37
682.21	26544.02
682.35	26141.44
682.49	26080.59
682.62	26637.64
682.76	26005.69
682.90	26122.72
683.04	25989.31
683.17	25977.61
683.31	25834.83
683.45	25820.79
683.59	25649.93
683.72	25340.98
683.86	25387.79
684.00	25188.85
684.13	25216.93
684.27	25551.63
684.41	25015.65
684.55	24992.24
684.68	25060.12
684.82	24671.59
684.96	24830.74
685.09	24535.84
685.23	24484.34
685.37	24629.46
685.50	24332.21
685.64	24484.34
685.78	24163.69
685.91	24400.08
686.05	24208.16
686.19	23931.98
686.32	24205.82
686.46	23845.38
686.60	23566.85
686.73	23524.72
686.87	23271.95
687.01	23428.76
687.14	23403.02
687.28	23161.94
687.42	23173.64
687.55	23016.83
687.69	23073.00
687.82	23012.15
687.96	23028.53
688.10	23054.28
688.23	22677.45
688.37	22483.19
688.50	22333.39
688.64	22387.22
688.78	21916.78
688.91	22211.68
689.05	22022.10
689.18	22061.89
689.32	21895.71
689.46	21858.26
689.59	22225.73
689.73	21975.29
689.86	21809.11
690.00	21778.68
690.13	21738.90
690.27	21383.13
690.41	21235.68
690.54	21069.50
690.68	21092.91
690.81	21205.25
690.95	21027.37
691.08	20999.29
691.22	20936.09
691.35	20798.00
691.49	20577.99
691.62	21041.42
691.76	20917.37
691.89	20610.76
692.03	20051.37
692.16	20308.83
692.30	20168.40
692.43	20533.52
692.57	19934.34
692.70	20034.99
692.84	19894.55
692.97	20016.26
693.11	19534.11
693.24	19604.33
693.38	19503.68
693.51	19871.15
693.65	19447.51
693.78	19367.93
693.92	19601.99
694.05	19609.01
694.19	19096.43
694.32	19140.90
694.45	19239.20
694.59	18766.42
694.72	19250.91
694.86	18986.43
694.99	18710.24
695.13	18611.94
695.26	18317.03
695.39	18380.23
695.53	18438.74
695.66	18274.90
695.80	18429.38
695.93	18328.74
696.07	18345.12
696.20	18270.22
696.33	17968.29
696.47	18005.74
696.60	17912.12
696.73	17862.97
696.87	17888.71
697.00	17647.64
697.14	17542.32
697.27	17525.93
697.40	17568.06
697.54	17158.47
697.67	17153.79
697.80	17399.54
697.94	17043.78
698.07	17373.80
698.21	16854.20
698.34	16798.02
698.47	16856.54
698.61	16610.78
698.74	16435.24
698.87	16510.14
699.01	16580.36
699.14	16393.11
699.27	16395.45
699.40	16163.74
699.54	16252.68
699.67	15817.34
699.80	16224.59
699.94	15793.94
700.07	15974.16
700.20	15782.23
700.34	15606.69
700.47	15697.97
700.60	15761.17
700.73	15697.97
700.87	15768.19
701.00	15410.09
701.13	15590.31
701.26	15660.52
701.40	15508.39
701.53	15206.46
701.66	15044.96
701.79	14941.98
701.93	15211.14
702.06	14831.97
702.19	14785.16
702.32	14888.15
702.46	14752.40
702.59	14623.67
702.72	14644.73
702.85	14719.63
702.99	14710.27
703.12	14668.14
703.25	14438.76
703.38	14525.36
703.51	14359.19
703.65	14303.01
703.78	14258.54
703.91	14005.77
704.04	14134.50
704.17	14295.99
704.31	13776.39
704.44	13804.48
704.57	13621.92
704.70	13638.30
704.83	13797.46
704.96	13570.43
705.10	13483.83
705.23	14043.21
>>>>>End Processed Spectral Data<<<<<
