SpectraSuite Data File
++++++++++++++++++++++++++++++++++++
Date: Fri Oct 25 10:44:34 EDT 2013
User: price-jones
Dark Spectrum Present: No
Reference Spectrum Present: No
Number of Sampled Component Spectra: 1
Spectrometers: USB2+H05261
Integration Time (usec): 100000 (USB2+H05261)
Spectra Averaged: 1 (USB2+H05261)
Boxcar Smoothing: 0 (USB2+H05261)
Correct for Electrical Dark: No (USB2+H05261)
Strobe/Lamp Enabled: No (USB2+H05261)
Correct for Detector Non-linearity: No (USB2+H05261)
Correct for Stray Light: No (USB2+H05261)
Number of Pixels in Processed Spectrum: 2048
>>>>>Begin Processed Spectral Data<<<<<
365.73	145.11
365.92	145.11
366.12	145.11
366.32	0.00
366.52	25.75
366.72	49.15
366.91	9.36
367.11	11.70
367.31	4.68
367.51	77.24
367.70	60.85
367.90	56.17
368.10	14.04
368.30	32.77
368.49	32.77
368.69	84.26
368.89	77.24
369.09	67.88
369.28	93.62
369.48	2.34
369.68	67.88
369.87	46.81
370.07	42.13
370.27	149.79
370.47	212.99
370.66	383.85
370.86	430.66
371.06	355.76
371.25	484.49
371.45	451.72
371.65	433.00
371.84	421.30
372.04	348.74
372.24	468.11
372.44	416.62
372.63	519.60
372.83	470.45
373.03	463.43
373.22	423.64
373.42	535.98
373.62	561.73
373.81	552.37
374.01	533.64
374.21	505.56
374.40	512.58
374.60	559.39
374.79	463.43
374.99	554.71
375.19	589.82
375.38	645.99
375.58	559.39
375.78	613.22
375.97	624.92
376.17	643.65
376.37	500.87
376.56	568.75
376.76	554.71
376.95	589.82
377.15	557.05
377.35	631.94
377.54	608.54
377.74	594.50
377.93	662.37
378.13	561.73
378.33	610.88
378.52	629.60
378.72	692.80
378.91	543.00
379.11	636.63
379.31	636.63
379.50	683.44
379.70	662.37
379.89	662.37
380.09	573.43
380.28	601.52
380.48	592.16
380.68	669.39
380.87	624.92
381.07	634.29
381.26	688.12
381.46	662.37
381.65	734.93
381.85	601.52
382.04	664.71
382.24	674.07
382.43	655.35
382.63	608.54
382.83	683.44
383.02	671.73
383.22	758.33
383.41	662.37
383.61	678.76
383.80	716.20
384.00	627.26
384.19	704.50
384.39	725.57
384.58	727.91
384.78	723.23
384.97	758.33
385.17	711.52
385.36	704.50
385.56	746.63
385.75	730.25
385.95	795.78
386.14	741.95
386.34	842.59
386.53	748.97
386.72	821.53
386.92	826.21
387.11	821.53
387.31	798.12
387.50	734.93
387.70	718.54
387.89	805.14
388.09	777.06
388.28	786.42
388.48	844.93
388.67	922.17
388.86	837.91
389.06	896.43
389.25	901.11
389.45	905.79
389.64	833.23
389.84	971.32
390.03	866.00
390.22	1001.75
390.42	903.45
390.61	889.40
390.81	936.21
391.00	901.11
391.19	999.41
391.39	940.90
391.58	933.87
391.78	915.15
391.97	952.60
392.16	922.17
392.36	959.62
392.55	1001.75
392.75	910.47
392.94	1013.45
393.13	905.79
393.33	973.66
393.52	952.60
393.71	1020.47
393.91	1036.86
394.10	1027.50
394.29	1069.62
394.49	1008.77
394.68	1097.71
394.88	1116.44
395.07	1144.52
395.26	1151.54
395.46	1139.84
395.65	1128.14
395.84	1062.60
396.04	1184.31
396.23	1165.59
396.42	1074.31
396.62	1139.84
396.81	1090.69
397.00	1107.07
397.19	1191.33
397.39	1156.22
397.58	1324.74
397.77	1200.69
397.97	1341.13
398.16	1390.28
398.35	1387.94
398.55	1263.89
398.74	1352.83
398.93	1373.89
399.12	1348.15
399.32	1355.17
399.51	1345.81
399.70	1376.24
399.90	1315.38
400.09	1387.94
400.28	1460.49
400.47	1453.47
400.67	1423.05
400.86	1465.18
401.05	1425.39
401.24	1511.99
401.44	1509.65
401.63	1572.84
401.82	1472.20
402.01	1554.12
402.21	1519.01
402.40	1600.93
402.59	1542.41
402.78	1579.86
402.97	1579.86
403.17	1549.43
403.36	1666.46
403.55	1619.65
403.74	1797.53
403.93	1746.04
404.13	1788.17
404.32	1626.67
404.51	1673.48
404.70	1715.61
404.89	1659.44
405.09	1724.97
405.28	1671.14
405.47	1799.87
405.66	1764.76
405.85	1851.36
406.05	1886.47
406.24	1870.09
406.43	1877.11
406.62	1933.28
406.81	1884.13
407.00	1886.47
407.20	1792.85
407.39	1891.15
407.58	1879.45
407.77	1996.48
407.96	2015.20
408.15	1902.86
408.34	1942.64
408.54	2024.56
408.73	2017.54
408.92	2071.37
409.11	2015.20
409.30	2134.57
409.49	2174.36
409.68	1963.71
409.87	2148.61
410.07	2106.48
410.26	2120.53
410.45	2127.55
410.64	2232.87
410.83	2256.28
411.02	2326.49
411.21	2307.77
411.40	2314.79
411.59	2377.98
411.78	2340.54
411.98	2338.20
412.17	2387.35
412.36	2263.30
412.55	2509.05
412.74	2492.67
412.93	2502.03
413.12	2513.74
413.31	2495.01
413.50	2541.82
413.69	2567.57
413.88	2574.59
414.07	2679.91
414.26	2670.55
414.45	2745.45
414.64	2679.91
414.83	2649.49
415.02	2736.09
415.22	2827.37
415.41	2944.39
415.60	2803.96
415.79	2843.75
415.98	2885.88
416.17	2970.14
416.36	2993.55
416.55	2850.77
416.74	3023.97
416.93	2892.90
417.12	3026.31
417.31	3129.30
417.50	2925.67
417.69	3075.46
417.88	3096.53
418.07	3110.57
418.26	3009.93
418.45	3096.53
418.64	3096.53
418.83	3304.84
419.02	3208.87
419.21	3241.64
419.39	3286.11
419.58	3234.62
419.77	3330.58
419.96	3328.24
420.15	3407.82
420.34	3349.31
420.53	3473.36
420.72	3485.06
420.91	3475.70
421.10	3438.25
421.29	3644.21
421.48	3405.48
421.67	3527.19
421.86	3365.69
422.05	3463.99
422.24	3342.28
422.43	3513.14
422.61	3480.38
422.80	3634.85
422.99	3557.61
423.18	3506.12
423.37	3630.17
423.56	3620.81
423.75	3515.48
423.94	3475.70
424.13	3407.82
424.32	3543.57
424.50	3557.61
424.69	3599.74
424.88	3681.66
425.07	3616.13
425.26	3456.97
425.45	3548.25
425.64	3534.21
425.83	3529.53
426.01	3674.64
426.20	3684.00
426.39	3754.22
426.58	3590.38
426.77	3616.13
426.96	3634.85
427.15	3562.30
427.33	3653.58
427.52	3705.07
427.71	3733.15
427.90	3791.67
428.09	3857.20
428.28	3763.58
428.46	3688.68
428.65	3829.12
428.84	3824.44
429.03	4039.76
429.22	3730.81
429.40	3768.26
429.59	3700.39
429.78	3585.70
429.97	3665.28
430.16	3798.69
430.34	3810.39
430.53	3946.14
430.72	3871.25
430.91	3838.48
431.10	3911.04
431.28	4067.85
431.47	4194.24
431.66	4262.12
431.85	4084.23
432.03	4119.34
432.22	4180.20
432.41	4203.60
432.60	4390.84
432.79	4341.69
432.97	4313.61
433.16	4292.54
433.35	4198.92
433.54	4138.07
433.72	4292.54
433.91	4198.92
434.10	4322.97
434.28	4348.72
434.47	4402.55
434.66	4589.79
434.85	4465.74
435.03	4351.06
435.22	4421.27
435.41	4683.41
435.59	4657.67
435.78	4585.11
435.97	4753.63
436.16	4610.86
436.34	4650.64
436.53	4755.97
436.72	4678.73
436.90	4711.50
437.09	4793.42
437.28	4685.75
437.46	4781.71
437.65	4741.93
437.84	4788.74
438.02	4908.10
438.21	4814.48
438.40	4620.22
438.58	4690.43
438.77	4994.70
438.96	4990.02
439.14	5090.67
439.33	5034.49
439.52	5186.63
439.70	5165.56
439.89	5123.43
440.08	5282.59
440.26	5132.79
440.45	5172.58
440.63	5369.19
440.82	5544.73
441.01	5383.23
441.19	5352.81
441.38	5453.45
441.57	5575.16
441.75	5394.93
441.94	5713.25
442.12	5612.60
442.31	5713.25
442.50	5701.54
442.68	5809.21
442.87	5767.08
443.05	5916.87
443.24	5970.71
443.43	5914.53
443.61	5872.40
443.80	6129.86
443.98	5874.74
444.17	5769.42
444.35	5760.06
444.54	5970.71
444.73	5891.13
444.91	5867.72
445.10	5921.56
445.28	5760.06
445.47	5715.59
445.65	5804.53
445.84	5973.05
446.02	6043.26
446.21	5991.77
446.39	6040.92
446.58	6024.54
446.77	6258.59
446.95	5980.07
447.14	6080.71
447.32	6179.01
447.51	6045.60
447.69	6008.16
447.88	6115.82
448.06	5858.36
448.25	6050.28
448.43	6108.80
448.62	6054.97
448.80	6111.14
448.99	6108.80
449.17	6230.51
449.36	6317.11
449.54	6331.15
449.73	6497.33
449.91	6548.82
450.10	6476.26
450.28	6429.45
450.46	6424.77
450.65	6509.03
450.83	6567.54
451.02	6502.01
451.20	6530.09
451.39	6644.78
451.57	6480.94
451.76	6455.20
451.94	6534.78
452.13	6523.07
452.31	6689.25
452.49	6473.92
452.68	6593.29
452.86	6485.62
453.05	6745.42
453.23	6635.42
453.42	6630.74
453.60	6644.78
453.78	6703.29
453.97	6663.51
454.15	6754.79
454.34	6829.68
454.52	6909.26
454.70	6937.35
454.89	6754.79
455.07	7056.72
455.26	7047.35
455.44	7169.06
455.62	7028.63
455.81	7094.16
455.99	7030.97
456.17	6993.52
456.36	7250.98
456.54	7178.42
456.73	7194.81
456.91	7468.65
457.09	7454.61
457.28	7377.37
457.46	7229.91
457.64	7227.57
457.83	7309.49
458.01	7377.37
458.19	7653.55
458.38	7433.54
458.56	7583.34
458.74	7506.10
458.93	7658.23
459.11	7630.15
459.29	7602.06
459.48	7604.40
459.66	7534.18
459.84	7737.81
460.03	7829.09
460.21	7765.90
460.39	7742.49
460.57	7941.44
460.76	7911.01
460.94	7918.03
461.12	7756.54
461.31	7908.67
461.49	7772.92
461.67	7976.55
461.85	8093.57
462.04	8154.43
462.22	8229.32
462.40	7990.59
462.59	8037.40
462.77	8163.79
462.95	8180.17
463.13	8334.65
463.32	8262.09
463.50	8152.09
463.68	8046.76
463.86	8446.99
464.05	8039.74
464.23	8255.07
464.41	8311.24
464.59	8219.96
464.78	8395.50
464.96	8379.12
465.14	8283.16
465.32	8549.98
465.50	8486.78
465.69	8369.76
465.87	8503.17
466.05	8439.97
466.23	8451.67
466.41	8521.89
466.60	8627.21
466.78	8355.71
466.96	8582.74
467.14	8566.36
467.32	8587.43
467.51	8627.21
467.69	8549.98
467.87	8503.17
468.05	8805.10
468.23	8833.18
468.41	8578.06
468.60	8552.32
468.78	8919.78
468.96	8816.80
469.14	8959.57
469.32	9034.47
469.50	8706.79
469.69	8933.82
469.87	9123.41
470.05	8959.57
470.23	9116.39
470.41	9057.87
470.59	9121.07
470.77	9006.38
470.95	9125.75
471.14	9336.40
471.32	9144.47
471.50	9418.32
471.68	9418.32
471.86	9439.38
472.04	9474.49
472.22	9774.08
472.40	9317.67
472.58	9458.10
472.77	9614.92
472.95	9720.24
473.13	9907.49
473.31	9493.21
473.49	9643.01
473.67	9650.03
473.85	9776.42
474.03	10188.35
474.21	10036.22
474.39	10193.03
474.57	10228.14
474.75	10174.31
474.93	10253.89
475.12	10216.44
475.30	10197.71
475.48	10146.22
475.66	10375.59
475.84	10345.17
476.02	10279.63
476.20	10532.41
476.38	10700.93
476.56	11059.03
476.74	10724.33
476.92	11082.44
477.10	10848.38
477.28	11089.46
477.46	11019.24
477.64	11140.95
477.82	11154.99
478.00	11716.72
478.18	11227.55
478.36	11700.34
478.54	11609.06
478.72	11791.62
478.90	11868.86
479.08	12121.63
479.26	12131.00
479.44	12306.54
479.62	12287.81
479.80	12353.35
479.98	12348.67
480.16	12451.65
480.34	12266.75
480.52	12561.66
480.70	12706.77
480.88	12629.53
481.06	12849.54
481.24	12727.83
481.41	12954.87
481.59	13151.47
481.77	13586.81
481.95	13380.84
482.13	13151.47
482.31	13362.12
482.49	13701.50
482.67	13764.69
482.85	13930.87
483.03	14087.68
483.21	14073.64
483.39	14193.01
483.57	14139.18
483.74	14113.43
483.92	14483.24
484.10	14352.16
484.28	14700.90
484.46	14850.70
484.64	14934.96
484.82	14611.96
485.00	14941.98
485.18	15510.73
485.35	15470.94
485.53	14967.73
485.71	15140.93
485.89	15398.38
486.07	15272.00
486.25	15594.99
486.43	15742.44
486.61	15829.04
486.78	16025.65
486.96	16196.51
487.14	16489.07
487.32	16367.37
487.50	16512.48
487.68	16531.20
487.85	16903.35
488.03	17032.08
488.21	17284.86
488.39	17121.02
488.57	17277.83
488.75	17270.81
488.92	17680.41
489.10	17776.37
489.28	18167.24
489.46	18176.60
489.64	18504.28
489.81	18558.11
489.99	18684.50
490.17	18633.00
490.35	18824.93
490.53	18696.20
490.70	18944.30
490.88	19051.96
491.06	19215.80
491.24	18874.08
491.41	19379.64
491.59	19571.56
491.77	19651.14
491.95	19463.90
492.13	19812.63
492.30	19754.12
492.48	20184.78
492.66	20067.75
492.84	20355.64
493.01	20470.33
493.19	20280.74
493.37	20727.78
493.54	20680.97
493.72	21043.76
493.90	21221.64
494.08	21195.89
494.25	21490.80
494.43	21181.85
494.61	21532.93
494.79	21553.99
494.96	21673.36
495.14	21570.38
495.32	21979.97
495.49	21954.22
495.67	21900.39
495.85	22450.42
496.02	22635.32
496.20	22794.48
496.38	22829.59
496.55	22955.97
496.73	23037.89
496.91	23061.30
497.09	22944.27
497.26	23360.89
497.44	23122.15
497.62	23445.15
497.79	23779.84
497.97	23428.76
498.14	23480.25
498.32	24116.88
498.50	23880.49
498.67	24456.26
498.85	24231.57
499.03	24622.44
499.20	24493.71
499.38	24505.41
499.56	24173.05
499.73	24641.16
499.91	24751.17
500.08	24800.32
500.26	24662.22
500.44	24507.75
500.61	24889.26
500.79	24690.31
500.97	24929.05
501.14	25106.93
501.32	25392.47
501.49	25123.31
501.67	25291.83
501.84	25415.88
502.02	25523.54
502.20	25568.01
502.37	26033.78
502.55	26010.37
502.72	26038.46
502.90	26141.44
503.07	26125.06
503.25	26527.63
503.43	26214.00
503.60	26246.77
503.78	26501.89
503.95	26340.39
504.13	26497.20
504.30	26623.59
504.48	26661.04
504.65	26981.70
504.83	27342.14
505.01	27300.01
505.18	27019.14
505.36	27573.85
505.53	27288.31
505.71	27239.15
505.88	27517.68
506.06	27206.39
506.23	27672.15
506.41	27522.36
506.58	27810.25
506.76	27697.90
506.93	27995.15
507.11	28056.00
507.28	28013.87
507.46	27969.40
507.63	28091.11
507.81	28070.04
507.98	28311.12
508.16	28208.14
508.33	28540.49
508.50	28889.23
508.68	28933.70
508.85	28978.17
509.03	29001.58
509.20	29401.81
509.38	29153.71
509.55	29345.64
509.73	29233.29
509.90	29270.74
510.08	29113.92
510.25	29378.40
510.42	29219.25
510.60	29867.58
510.77	30031.41
510.95	30139.08
511.12	30122.69
511.30	30036.09
511.47	30031.41
511.64	30225.68
511.82	30635.27
511.99	30089.93
512.17	30368.45
512.34	30286.53
512.51	30373.13
512.69	31087.00
512.86	30881.03
513.04	30859.96
513.21	30988.69
513.38	30792.09
513.56	30892.73
513.73	30871.67
513.90	31012.10
514.08	30824.86
514.25	31072.95
514.43	30649.32
514.60	31065.93
514.77	31323.39
514.95	31255.51
515.12	31632.34
515.29	31653.40
515.47	31660.43
515.64	32233.86
515.81	31714.26
515.99	31555.10
516.16	32173.00
516.33	31952.99
516.51	31784.48
516.68	31573.83
516.85	31501.27
517.03	32081.72
517.20	32292.37
517.37	32570.90
517.54	32779.20
517.72	32587.28
517.89	32531.11
518.06	32247.90
518.24	32112.15
518.41	32332.16
518.58	32725.37
518.75	32811.97
518.93	33006.23
519.10	33067.09
519.27	32924.32
519.45	32926.66
519.62	33116.24
519.79	33626.48
519.96	33364.34
520.14	33727.12
520.31	33415.83
520.48	33956.49
520.65	33666.27
520.83	33905.00
521.00	33970.54
521.17	33986.92
521.34	34326.30
521.52	33741.16
521.69	34202.25
521.86	34110.97
522.03	34302.89
522.20	34466.73
522.38	34120.33
522.55	34707.80
522.72	34333.32
522.89	34494.82
523.07	34742.91
523.24	34616.52
523.41	34948.88
523.58	34789.72
523.75	35028.46
523.92	35243.79
524.10	35068.25
524.27	35267.19
524.44	35615.93
524.61	35129.10
524.78	35737.64
524.96	35150.17
525.13	35629.98
525.30	35522.31
525.47	36070.00
525.64	35573.80
525.81	35541.03
525.98	35920.20
526.16	35871.05
526.33	35065.91
526.50	35634.66
526.67	35330.39
526.84	35634.66
527.01	35557.42
527.18	35627.63
527.36	36287.67
527.53	36334.48
527.70	36458.52
527.87	36297.03
528.04	36287.67
528.21	36156.60
528.38	36613.00
528.55	36463.21
528.72	36690.24
528.89	37078.77
529.07	36364.90
529.24	36629.38
529.41	36694.92
529.58	36613.00
529.75	36898.55
529.92	37095.15
530.09	36814.29
530.26	37305.80
530.43	37146.64
530.60	37226.22
530.77	37041.32
530.94	36989.83
531.11	37404.10
531.28	37427.51
531.46	37282.39
531.63	37593.68
531.80	37034.30
531.97	37338.57
532.14	37673.26
532.31	37170.05
532.48	37598.37
532.65	37453.25
532.82	37963.49
532.99	37968.17
533.16	37703.69
533.33	37635.81
533.50	38323.93
533.67	37825.40
533.84	38129.67
534.01	38335.63
534.18	37694.33
534.35	38122.65
534.52	38178.82
534.69	38124.99
534.86	38541.60
535.03	38342.66
535.20	38712.46
535.37	38565.01
535.54	38834.17
535.71	38377.76
535.88	38789.70
536.05	38410.53
536.22	39061.20
536.38	38653.95
536.55	38925.45
536.72	38822.47
536.89	38239.67
537.06	38965.24
537.23	38946.51
537.40	39210.99
537.57	39035.45
537.74	39339.72
537.91	39210.99
538.08	39051.84
538.25	38700.76
538.42	38740.55
538.59	39512.92
538.75	38742.89
538.92	39026.09
539.09	39505.90
539.26	39510.58
539.43	39033.11
539.60	39274.19
539.77	39473.13
539.94	39541.01
540.11	38958.22
540.28	39250.78
540.44	39585.48
540.61	39416.96
540.78	40072.31
540.95	38782.68
541.12	39627.61
541.29	39695.49
541.46	39433.35
541.62	40367.22
541.79	39590.16
541.96	39688.46
542.13	39997.41
542.30	39875.71
542.47	40088.70
542.63	40364.88
542.80	40133.17
542.97	40348.50
543.14	40912.56
543.31	40177.64
543.48	40659.79
543.64	41116.19
543.81	40847.03
543.98	40425.73
544.15	40933.63
544.32	41256.62
544.48	41146.62
544.65	40765.11
544.82	40718.30
544.99	40954.69
545.16	40879.80
545.32	40708.94
545.49	41647.49
545.66	41397.06
545.83	41167.68
546.00	41308.11
546.16	41256.62
546.33	41181.73
546.50	40999.16
546.67	41375.99
546.83	40804.90
547.00	41844.10
547.17	41413.44
547.34	41591.32
547.50	41446.21
547.67	41233.22
547.84	41528.13
548.00	41514.08
548.17	41890.91
548.34	41530.47
548.51	42239.65
548.67	41855.80
548.84	41996.23
549.01	41670.90
549.18	41530.47
549.34	41837.08
549.51	42117.94
549.68	42384.76
549.84	42050.06
550.01	42113.26
550.18	41874.52
550.34	42099.22
550.51	42164.75
550.68	41989.21
550.84	41851.12
551.01	42136.66
551.18	42073.47
551.34	42244.33
551.51	42146.03
551.68	42337.95
551.84	42387.10
552.01	42452.64
552.18	42506.47
552.34	42501.79
552.51	42429.23
552.68	42234.97
552.84	42855.21
553.01	42646.90
553.18	42642.22
553.34	42618.81
553.51	42171.77
553.67	42649.24
553.84	42780.31
554.01	42682.01
554.17	42782.65
554.34	42937.13
554.51	42759.25
554.67	43063.52
554.84	43033.09
555.00	42586.05
555.17	42902.02
555.33	42586.05
555.50	42787.33
555.67	42623.50
555.83	42810.74
556.00	42845.85
556.16	43203.95
556.33	42869.25
556.50	43051.81
556.66	43304.59
556.83	42649.24
556.99	43267.14
557.16	43423.96
557.32	43599.50
557.49	43388.85
557.65	43051.81
557.82	43562.05
557.98	42976.92
558.15	43208.63
558.32	43281.19
558.48	42939.47
558.65	43325.66
558.81	43325.66
558.98	43353.74
559.14	43562.05
559.31	43054.15
559.47	43594.82
559.64	43995.05
559.80	43749.29
559.97	43641.63
560.13	43257.78
560.30	43313.95
560.46	43562.05
560.63	43917.81
560.79	43723.55
560.96	43854.62
561.12	43735.25
561.29	43447.36
561.45	43988.03
561.61	43749.29
561.78	43854.62
561.94	43423.96
562.11	43775.04
562.27	43709.50
562.44	44170.59
562.60	44186.97
562.77	44023.14
562.93	43648.65
563.10	44095.69
563.26	43920.15
563.42	43665.03
563.59	43952.92
563.75	43768.02
563.92	44046.54
564.08	43793.76
564.24	43936.54
564.41	44107.40
564.57	44095.69
564.74	43840.57
564.90	43672.06
565.07	43707.16
565.23	43742.27
565.39	43765.68
565.56	44051.22
565.72	44009.09
565.88	44107.40
566.05	43873.34
566.21	44046.54
566.38	43917.81
566.54	44189.31
566.70	44556.78
566.87	44425.71
567.03	44268.89
567.19	44552.10
567.36	44594.23
567.52	43988.03
567.68	44112.08
567.85	44252.51
568.01	44271.23
568.17	43901.43
568.34	44392.94
568.50	44172.93
568.66	43835.89
568.83	44296.98
568.99	44081.65
569.15	44252.51
569.32	44210.38
569.48	43992.71
569.64	44612.95
569.81	44428.05
569.97	43964.62
570.13	44575.50
570.30	43985.69
570.46	43402.89
570.62	44135.48
570.78	44032.50
570.95	44107.40
571.11	44273.57
571.27	44662.10
571.43	43765.68
571.60	44243.15
571.76	44282.94
571.92	44519.33
572.09	44186.97
572.25	44282.94
572.41	44208.04
572.57	44460.82
572.74	44575.50
572.90	44704.23
573.06	44603.59
573.22	44507.63
573.38	44109.74
573.55	44428.05
573.71	44493.58
573.87	44397.62
574.03	44383.58
574.20	44676.15
574.36	44404.64
574.52	44458.48
574.68	44353.15
574.84	44334.43
575.01	44182.29
575.17	44392.94
575.33	44240.81
575.49	44147.18
575.65	44577.84
575.82	44280.60
575.98	44662.10
576.14	45081.06
576.30	44959.35
576.46	44341.45
576.62	44720.62
576.79	44577.84
576.95	44507.63
577.11	44493.58
577.27	44652.74
577.43	44713.59
577.59	44502.95
577.75	44458.48
577.92	43959.94
578.08	44051.22
578.24	44519.33
578.40	44488.90
578.56	44629.34
578.72	44243.15
578.88	44533.37
579.04	44308.68
579.21	44732.32
579.37	44582.52
579.53	44524.01
579.69	44135.48
579.85	44458.48
580.01	44296.98
580.17	44816.58
580.33	44559.12
580.49	44495.92
580.65	44879.77
580.82	44877.43
580.98	44144.84
581.14	44722.96
581.30	44872.75
581.46	44856.37
581.62	44802.53
581.78	44584.86
581.94	45195.74
582.10	44381.24
582.26	44507.63
582.42	44491.24
582.58	44418.69
582.74	44123.78
582.90	44350.81
583.06	44856.37
583.22	44732.32
583.38	44460.82
583.54	44921.90
583.70	44809.56
583.86	44563.80
584.02	44369.54
584.18	44919.56
584.34	44856.37
584.50	44587.21
584.66	44545.08
584.82	44659.76
584.98	45003.82
585.14	44512.31
585.30	44704.23
585.46	44807.22
585.62	44320.38
585.78	44631.68
585.94	44318.04
586.10	44751.04
586.26	45067.02
586.42	44727.64
586.58	44470.18
586.74	44493.58
586.90	44652.74
587.06	44652.74
587.22	44715.93
587.38	44755.72
587.54	44463.16
587.70	44540.39
587.86	44470.18
588.02	44893.82
588.18	44828.28
588.34	44545.08
588.49	44266.55
588.65	44137.82
588.81	44327.41
588.97	44641.04
589.13	44732.32
589.29	44519.33
589.45	44933.60
589.61	44949.99
589.77	44678.49
589.93	44830.62
590.08	45027.23
590.24	45038.93
590.40	45085.74
590.56	44994.46
590.72	44751.04
590.88	44818.92
591.04	44814.24
591.20	45317.45
591.35	45310.43
591.51	45118.51
591.67	45207.45
591.83	44907.86
591.99	45067.02
592.15	45081.06
592.31	44914.88
592.46	45127.87
592.62	44774.45
592.78	45228.51
592.94	45418.10
593.10	44863.39
593.26	44905.52
593.41	44741.68
593.57	44903.18
593.73	44748.70
593.89	44945.31
594.05	44678.49
594.20	44914.88
594.36	44959.35
594.52	44905.52
594.68	45071.70
594.84	44825.94
594.99	45102.12
595.15	44739.34
595.31	45027.23
595.47	45411.07
595.62	45198.09
595.78	44795.51
595.94	45160.64
596.10	44959.35
596.25	45167.66
596.41	45441.50
596.57	44940.63
596.73	45062.33
596.88	44870.41
597.04	44905.52
597.20	45219.15
597.36	45090.42
597.51	45191.06
597.67	45574.91
597.83	45270.64
597.99	45399.37
598.14	45235.53
598.30	45272.98
598.46	44898.50
598.61	45202.77
598.77	44556.78
598.93	44531.03
599.09	45256.60
599.24	45544.48
599.40	45603.00
599.56	45563.21
599.71	45043.61
599.87	45322.13
600.03	44999.14
600.18	45059.99
600.34	45352.56
600.50	45514.06
600.65	45228.51
600.81	45090.42
600.97	45750.45
601.12	44987.44
601.28	45289.37
601.44	44839.98
601.59	44842.32
601.75	45036.59
601.91	44928.92
602.06	44978.07
602.22	45076.38
602.37	44978.07
602.53	45287.03
602.69	45558.53
602.84	45404.05
603.00	44882.11
603.16	45207.45
603.31	44722.96
603.47	44964.03
603.62	44957.01
603.78	45165.32
603.94	44907.86
604.09	45162.98
604.25	45179.36
604.40	44865.73
604.56	45223.83
604.71	45221.49
604.87	44781.47
605.03	45036.59
605.18	44802.53
605.34	44769.77
605.49	44540.39
605.65	44912.54
605.80	44828.28
605.96	45083.40
606.12	44875.09
606.27	45130.21
606.43	44699.55
606.58	44968.71
606.74	44659.76
606.89	44739.34
607.05	44577.84
607.20	45116.17
607.36	44982.76
607.51	44947.65
607.67	44629.34
607.82	44734.66
607.98	44870.41
608.13	44463.16
608.29	44425.71
608.44	44741.68
608.60	44205.70
608.75	44678.49
608.91	44816.58
609.06	44318.04
609.22	44603.59
609.37	44872.75
609.53	44549.76
609.68	44456.14
609.84	44184.63
609.99	44048.88
610.15	44528.69
610.30	44348.47
610.46	44360.17
610.61	44418.69
610.76	44512.31
610.92	44687.85
611.07	44739.34
611.23	44477.20
611.38	44313.36
611.54	44479.54
611.69	44540.39
611.84	43966.96
612.00	44149.53
612.15	44329.75
612.31	44397.62
612.46	44247.83
612.62	44512.31
612.77	44264.21
612.92	44655.08
613.08	44191.65
613.23	44341.45
613.39	44315.70
613.54	43641.63
613.69	44245.49
613.85	44203.36
614.00	44271.23
614.15	44528.69
614.31	44130.80
614.46	44399.96
614.62	44339.11
614.77	44261.87
614.92	44067.61
615.08	43892.07
615.23	43707.16
615.38	44147.18
615.54	43854.62
615.69	43533.96
615.84	43835.89
616.00	43660.35
616.15	43639.29
616.30	43922.49
616.46	43512.90
616.61	43580.78
616.76	43515.24
616.92	43159.48
617.07	43217.99
617.22	43000.32
617.37	43536.30
617.53	43407.58
617.68	43732.91
617.83	43501.20
617.99	43620.56
618.14	43611.20
618.29	43510.56
618.45	43260.12
618.60	43246.08
618.75	43459.07
618.90	43405.23
619.06	43910.79
619.21	43805.47
619.36	43814.83
619.51	43503.54
619.67	43613.54
619.82	43761.00
619.97	43461.41
620.12	43227.35
620.28	42930.11
620.43	43203.95
620.58	42918.40
620.73	42986.28
620.89	42789.67
621.04	43009.68
621.19	42770.95
621.34	43000.32
621.49	42782.65
621.65	42579.03
621.80	43192.25
621.95	42492.43
622.10	42728.82
622.25	42569.66
622.41	42548.60
622.56	42932.45
622.71	42745.20
622.86	42588.39
623.01	42684.35
623.16	42731.16
623.32	42843.51
623.47	42740.52
623.62	42557.96
623.77	42679.67
623.92	42623.50
624.07	42410.51
624.23	42096.88
624.38	42609.45
624.53	42354.33
624.68	42454.98
624.83	42473.70
624.98	42572.00
625.13	42293.48
625.29	41975.17
625.44	42293.48
625.59	41979.85
625.74	41663.88
625.89	41612.38
626.04	42010.28
626.19	42033.68
626.34	42157.73
626.49	42373.06
626.65	42234.97
626.80	42431.57
626.95	42438.59
627.10	42174.11
627.25	42363.70
627.40	41755.16
627.55	41848.78
627.70	41432.16
627.85	41797.29
628.00	41813.67
628.15	41729.41
628.30	41652.17
628.45	41453.23
628.60	41727.07
628.76	41731.75
628.91	42038.36
629.06	42024.32
629.21	41909.63
629.36	41462.59
629.51	41310.46
629.66	41291.73
629.81	41144.28
629.96	41188.75
630.11	41591.32
630.26	41312.80
630.41	41755.16
630.56	41607.70
630.71	41493.02
630.86	40844.69
631.01	41062.36
631.16	40966.40
631.31	41289.39
631.46	40966.40
631.61	41317.48
631.76	41263.64
631.91	41446.21
632.06	41436.84
632.21	41104.49
632.36	41045.97
632.51	40596.59
632.66	40973.42
632.81	40444.46
632.96	40678.51
633.10	40594.25
633.25	40886.82
633.40	40891.50
633.55	41090.44
633.70	41053.00
633.85	40720.64
634.00	40360.20
634.15	40905.54
634.30	40715.96
634.45	40545.10
634.60	40411.69
634.75	40652.76
634.90	40622.34
635.05	40582.55
635.19	40615.32
635.34	40643.40
635.49	40341.47
635.64	40432.75
635.79	40243.17
635.94	40196.36
636.09	40533.40
636.24	40463.18
636.39	40093.38
636.53	40383.60
636.68	40144.87
636.83	40217.43
636.98	39938.90
637.13	39922.52
637.28	40385.94
637.43	40477.22
637.57	40669.15
637.72	40236.15
637.87	40091.04
638.02	40009.12
638.17	40500.63
638.32	39868.69
638.46	40114.44
638.61	39943.58
638.76	39889.75
638.91	40378.92
639.06	40055.93
639.20	39625.27
639.35	40311.05
639.50	39744.64
639.65	39859.32
639.80	40114.44
639.94	39559.73
640.09	39981.03
640.24	39613.57
640.39	39316.32
640.54	39447.39
640.68	39391.22
640.83	39716.55
640.98	39894.43
641.13	39367.81
641.27	39517.60
641.42	39363.13
641.57	39412.28
641.72	39618.25
641.86	39189.93
642.01	38778.00
642.16	38993.32
642.31	38618.84
642.45	39271.85
642.60	39461.43
642.75	39103.33
642.90	39276.53
643.04	39304.62
643.19	39028.43
643.34	39035.45
643.48	38845.87
643.63	38927.79
643.78	38637.56
643.93	38506.49
644.07	38845.87
644.22	39019.07
644.37	38792.04
644.51	39063.54
644.66	38845.87
644.81	38948.85
644.95	39126.74
645.10	39269.51
645.25	38930.13
645.39	39180.57
645.54	38885.66
645.69	39016.73
645.83	38873.96
645.98	38644.59
646.13	38773.31
646.27	38440.96
646.42	38377.76
646.57	38227.97
646.71	38841.19
646.86	38735.87
647.00	38899.70
647.15	38789.70
647.30	38780.34
647.44	38375.42
647.59	38419.89
647.74	37968.17
647.88	38726.50
648.03	38117.96
648.17	38483.09
648.32	38139.03
648.47	38319.25
648.61	38412.87
648.76	38256.06
648.90	38300.53
649.05	38291.16
649.20	38003.28
649.34	38356.70
649.49	38005.62
649.63	38124.99
649.78	38167.12
649.92	37933.06
650.07	38417.55
650.21	37689.65
650.36	37975.19
650.51	38096.90
650.65	38305.21
650.80	38455.00
650.94	38148.39
651.09	37982.21
651.23	38227.97
651.38	37963.49
651.52	37495.38
651.67	37628.79
651.81	37642.84
651.96	37720.07
652.10	37591.34
652.25	37769.22
652.39	37729.44
652.54	37684.97
652.68	37809.01
652.83	37926.04
652.97	37750.50
653.12	37420.48
653.26	37111.53
653.41	37462.61
653.55	36772.16
653.70	37392.40
653.84	37081.11
653.99	37441.55
654.13	37343.25
654.27	37535.17
654.42	36760.45
654.56	37172.39
654.71	37319.84
654.85	37209.84
655.00	37041.32
655.14	37249.63
655.29	36980.46
655.43	37057.70
655.57	36758.11
655.72	37223.88
655.86	36671.51
656.01	36500.65
656.15	36650.45
656.30	36322.77
656.44	36823.65
656.58	36070.00
656.73	36608.32
656.87	36566.19
657.01	36650.45
657.16	36587.25
657.30	36627.04
657.45	36231.49
657.59	36170.64
657.73	36165.96
657.88	36739.39
658.02	37006.21
658.16	36718.32
658.31	37001.53
658.45	36418.74
658.60	36737.05
658.74	36617.68
658.88	36126.17
659.03	36367.24
659.17	36016.16
659.31	35920.20
659.46	36070.00
659.60	36495.97
659.74	36517.04
659.89	35859.35
660.03	35978.72
660.17	36081.70
660.32	36196.38
660.46	36184.68
660.60	35885.09
660.74	35906.16
660.89	36044.25
661.03	35618.27
661.17	35232.08
661.32	35512.95
661.46	35377.20
661.60	35161.87
661.74	35484.86
661.89	35548.06
662.03	35606.57
662.17	35440.39
662.31	35592.53
662.46	35536.35
662.60	35440.39
662.74	35009.73
662.88	35044.84
663.03	34831.85
663.17	34902.07
663.31	34515.88
663.45	34827.17
663.60	34827.17
663.74	35030.80
663.88	34726.53
664.02	34611.84
664.17	34717.17
664.31	34600.14
664.45	34731.21
664.59	34621.20
664.73	34841.21
664.88	34469.07
665.02	34658.65
665.16	34265.44
665.30	34031.39
665.44	34340.34
665.59	34256.08
665.73	34345.02
665.87	34356.72
666.01	34391.83
666.15	34265.44
666.29	34075.86
666.44	33926.07
666.58	33909.68
666.72	34000.96
666.86	33596.05
667.00	34031.39
667.14	33748.18
667.28	33544.56
667.43	33406.47
667.57	33717.76
667.71	33586.69
667.85	33532.86
667.99	33331.57
668.13	33514.13
668.27	33429.87
668.41	33315.19
668.56	32947.72
668.70	33259.01
668.84	32776.86
668.98	32659.84
669.12	32783.88
669.26	32957.08
669.40	32481.95
669.54	32437.48
669.68	32671.54
669.82	32772.18
669.96	32638.77
670.10	32580.26
670.25	32650.47
670.39	32327.48
670.53	32421.10
670.67	32313.44
670.81	32341.52
670.95	32196.41
671.09	32088.74
671.23	32133.21
671.37	31672.13
671.51	31644.04
671.65	31901.50
671.79	31819.58
671.93	31262.54
672.07	31915.54
672.21	31681.49
672.35	31515.31
672.49	31885.12
672.63	31974.06
672.77	31384.24
672.91	31548.08
673.05	31435.74
673.19	31274.24
673.33	31435.74
673.47	31035.50
673.61	31014.44
673.75	31164.23
673.89	30391.86
674.03	30380.15
674.17	30408.24
674.31	30579.10
674.45	30953.58
674.59	30939.54
674.73	31098.70
674.87	30429.30
675.01	30710.17
675.15	30719.53
675.29	30476.12
675.43	30157.80
675.56	30522.93
675.70	30333.34
675.84	30108.65
675.98	29142.01
676.12	30101.63
676.26	29766.93
676.40	29759.91
676.54	29523.52
676.68	29685.01
676.82	29298.83
676.96	29130.31
677.10	29486.07
677.23	29130.31
677.37	29303.51
677.51	28811.99
677.65	28687.95
677.79	28428.15
677.93	28772.21
678.07	28538.15
678.21	28369.63
678.34	28180.05
678.48	28098.13
678.62	28170.69
678.76	28084.09
678.90	28037.28
679.04	27866.42
679.18	27800.88
679.31	27470.87
679.45	27241.50
679.59	27377.25
679.73	26916.16
679.87	27503.64
680.00	27445.12
680.14	27290.65
680.28	27178.30
680.42	27374.91
680.56	27304.69
680.70	27234.47
680.83	26845.94
680.97	26965.31
681.11	27426.40
681.25	26483.16
681.39	26551.04
681.52	26541.68
681.66	26600.19
681.80	26309.96
681.94	26529.97
682.07	26742.96
682.21	26267.83
682.35	25970.58
682.49	25888.67
682.62	26019.74
682.76	25764.62
682.90	25968.24
683.04	25568.01
683.17	25429.92
683.31	25240.34
683.45	25249.70
683.59	25158.42
683.72	24926.71
683.86	25039.05
684.00	24954.79
684.13	25081.18
684.27	25017.99
684.41	24903.30
684.55	24723.08
684.68	24592.01
684.82	24364.98
684.96	24386.04
685.09	24547.54
685.23	24041.98
685.37	24297.10
685.50	24474.98
685.64	23948.36
685.78	24037.30
685.91	23875.80
686.05	23899.21
686.19	23384.29
686.32	23335.14
686.46	22831.93
686.60	23080.02
686.73	23180.67
686.87	23297.69
687.01	23091.73
687.14	22803.84
687.28	23274.29
687.42	22963.00
687.55	22618.94
687.69	23026.19
687.82	22902.14
687.96	22857.67
688.10	22597.87
688.23	22476.16
688.37	21947.20
688.50	22218.71
688.64	22017.42
688.78	22263.18
688.91	22232.75
689.05	21879.33
689.18	22146.15
689.32	21708.47
689.46	21846.56
689.59	21635.91
689.73	21858.26
689.86	21549.31
690.00	21294.19
690.13	21476.76
690.27	21479.10
690.41	21064.82
690.54	21139.72
690.68	20833.11
690.81	20772.25
690.95	20709.06
691.08	20987.58
691.22	20798.00
691.35	20688.00
691.49	20891.62
691.62	20711.40
691.76	20418.83
691.89	20416.49
692.03	20280.74
692.16	20042.01
692.30	20350.96
692.43	19714.33
692.57	19882.85
692.70	19899.23
692.84	20044.35
692.97	19768.16
693.11	19597.31
693.24	19599.65
693.38	19360.91
693.51	19386.66
693.65	19407.72
693.78	19798.59
693.92	19426.45
694.05	19150.26
694.19	19213.46
694.32	19073.03
694.45	18829.61
694.59	18515.98
694.72	18986.43
694.86	18867.06
694.99	18558.11
695.13	18494.91
695.26	18185.96
695.39	18195.32
695.53	18373.21
695.66	18403.63
695.80	18284.26
695.93	18515.98
696.07	18045.53
696.20	17928.50
696.33	17762.33
696.47	17767.01
696.60	17757.64
696.73	17572.74
696.87	17406.56
697.00	17497.84
697.14	17617.21
697.27	17638.28
697.40	17282.52
697.54	17067.19
697.67	17062.51
697.80	17076.55
697.94	16919.73
698.07	16762.92
698.21	16835.47
698.34	16915.05
698.47	16685.68
698.61	16402.47
698.74	16397.79
698.87	16166.08
699.01	16201.19
699.14	15920.32
699.27	16369.71
699.40	16011.60
699.54	16074.80
699.67	15871.17
699.80	15896.92
699.94	15819.68
700.07	15878.19
700.20	16126.29
700.34	15927.35
700.47	15583.29
700.60	15845.43
700.73	15679.25
700.87	15529.45
701.00	15382.00
701.13	15274.34
701.26	15236.89
701.40	15227.53
701.53	15157.31
701.66	15056.67
701.79	15108.16
701.93	15047.30
702.06	14939.64
702.19	14553.45
702.32	14860.06
702.46	14579.20
702.59	14361.53
702.72	14466.85
702.85	14626.01
702.99	14541.75
703.12	14176.62
703.25	14345.14
703.38	14118.11
703.51	14113.43
703.65	13900.44
703.78	14111.09
703.91	14017.47
704.04	13984.70
704.17	14190.67
704.31	13916.83
704.44	13710.86
704.57	13668.73
704.70	13678.09
704.83	13661.71
704.96	13467.44
705.10	13528.30
705.23	13427.65
>>>>>End Processed Spectral Data<<<<<
