SpectraSuite Data File
++++++++++++++++++++++++++++++++++++
Date: Fri Oct 25 11:34:33 EDT 2013
User: price-jones
Dark Spectrum Present: No
Reference Spectrum Present: No
Number of Sampled Component Spectra: 1
Spectrometers: USB2+H05261
Integration Time (usec): 100000 (USB2+H05261)
Spectra Averaged: 1 (USB2+H05261)
Boxcar Smoothing: 0 (USB2+H05261)
Correct for Electrical Dark: No (USB2+H05261)
Strobe/Lamp Enabled: No (USB2+H05261)
Correct for Detector Non-linearity: No (USB2+H05261)
Correct for Stray Light: No (USB2+H05261)
Number of Pixels in Processed Spectrum: 2048
>>>>>Begin Processed Spectral Data<<<<<
365.73	358.10
365.92	358.10
366.12	358.10
366.32	154.48
366.52	161.50
366.72	210.65
366.91	159.16
367.11	142.77
367.31	194.26
367.51	142.77
367.70	243.42
367.90	145.11
368.10	154.48
368.30	201.29
368.49	131.07
368.69	205.97
368.89	182.56
369.09	191.92
369.28	201.29
369.48	173.20
369.68	210.65
369.87	276.18
370.07	191.92
370.27	280.86
370.47	299.59
370.66	465.77
370.86	465.77
371.06	540.66
371.25	627.26
371.45	538.32
371.65	545.34
371.84	519.60
372.04	596.84
372.24	538.32
372.44	543.00
372.63	575.77
372.83	535.98
373.03	559.39
373.22	622.58
373.42	564.07
373.62	669.39
373.81	580.45
374.01	578.11
374.21	657.69
374.40	671.73
374.60	671.73
374.79	645.99
374.99	734.93
375.19	629.60
375.38	636.63
375.58	660.03
375.78	676.41
375.97	587.47
376.17	650.67
376.37	739.61
376.56	674.07
376.76	629.60
376.95	690.46
377.15	720.88
377.35	655.35
377.54	760.67
377.74	692.80
377.93	688.12
378.13	770.04
378.33	690.46
378.52	676.41
378.72	718.54
378.91	655.35
379.11	617.90
379.31	678.76
379.50	688.12
379.70	716.20
379.89	720.88
380.09	601.52
380.28	692.80
380.48	709.18
380.68	795.78
380.87	741.95
381.07	746.63
381.26	720.88
381.46	767.70
381.65	685.78
381.85	713.86
382.04	727.91
382.24	795.78
382.43	765.36
382.63	746.63
382.83	753.65
383.02	767.70
383.22	788.76
383.41	699.82
383.61	676.41
383.80	720.88
384.00	812.17
384.19	779.40
384.39	828.55
384.58	793.44
384.78	856.64
384.97	791.10
385.17	791.10
385.36	741.95
385.56	858.98
385.75	863.66
385.95	814.51
386.14	837.91
386.34	823.87
386.53	816.85
386.72	896.43
386.92	858.98
387.11	905.79
387.31	844.93
387.50	791.10
387.70	887.06
387.89	882.38
388.09	905.79
388.28	889.40
388.48	819.19
388.67	905.79
388.86	990.05
389.06	898.77
389.25	882.38
389.45	931.53
389.64	952.60
389.84	1006.43
390.03	999.41
390.22	973.66
390.42	1036.86
390.61	940.90
390.81	1043.88
391.00	994.73
391.19	938.55
391.39	978.34
391.58	1081.33
391.78	973.66
391.97	971.32
392.16	999.41
392.36	1076.65
392.55	1022.81
392.75	1011.11
392.94	1004.09
393.13	1088.35
393.33	1104.73
393.52	1053.24
393.71	1001.75
393.91	1090.69
394.10	1067.28
394.29	1071.97
394.49	1102.39
394.68	1095.37
394.88	1142.18
395.07	1095.37
395.26	1107.07
395.46	1093.03
395.65	1078.99
395.84	1179.63
396.04	1132.82
396.23	1116.44
396.42	1069.62
396.62	1273.25
396.81	1186.65
397.00	1226.44
397.19	1170.27
397.39	1224.10
397.58	1186.65
397.77	1231.12
397.97	1280.27
398.16	1245.16
398.35	1242.82
398.55	1226.44
398.74	1142.18
398.93	1228.78
399.12	1341.13
399.32	1188.99
399.51	1160.91
399.70	1299.00
399.90	1327.08
400.09	1320.06
400.28	1287.29
400.47	1275.59
400.67	1380.92
400.86	1357.51
401.05	1291.98
401.24	1430.07
401.44	1399.64
401.63	1425.39
401.82	1401.98
402.01	1341.13
402.21	1437.09
402.40	1420.71
402.59	1469.86
402.78	1465.18
402.97	1516.67
403.17	1511.99
403.36	1542.41
403.55	1488.58
403.74	1603.27
403.93	1474.54
404.13	1490.92
404.32	1591.56
404.51	1502.62
404.70	1528.37
404.89	1519.01
405.09	1549.43
405.28	1605.61
405.47	1617.31
405.66	1600.93
405.85	1565.82
406.05	1607.95
406.24	1689.87
406.43	1657.10
406.62	1724.97
406.81	1715.61
407.00	1713.27
407.20	1612.63
407.39	1722.63
407.58	1778.81
407.77	1734.34
407.96	1834.98
408.15	1818.60
408.34	1813.92
408.54	1783.49
408.73	1818.60
408.92	1839.66
409.11	1902.86
409.30	1928.60
409.49	1902.86
409.68	1987.11
409.87	1968.39
410.07	2078.40
410.26	1989.46
410.45	2003.50
410.64	2073.71
410.83	2097.12
411.02	1987.11
411.21	2054.99
411.40	2069.03
411.59	2118.18
411.78	2146.27
411.98	2101.80
412.17	2162.66
412.36	2183.72
412.55	2232.87
412.74	2218.83
412.93	2258.62
413.12	2239.89
413.31	2305.43
413.50	2256.28
413.69	2228.19
413.88	2265.64
414.07	2382.67
414.26	2387.35
414.45	2443.52
414.64	2335.85
414.83	2361.60
415.02	2459.90
415.22	2523.10
415.41	2658.85
415.60	2654.17
415.79	2612.04
415.98	2647.15
416.17	2612.04
416.36	2562.89
416.55	2623.74
416.74	2684.59
416.93	2794.60
417.12	2736.09
417.31	2593.31
417.50	2708.00
417.69	2766.51
417.88	2792.26
418.07	2810.98
418.26	2757.15
418.45	2834.39
418.64	2995.89
418.83	2904.60
419.02	3042.70
419.21	2881.20
419.39	2988.86
419.58	2953.76
419.77	2895.24
419.96	3094.19
420.15	3002.91
420.34	3063.76
420.53	3052.06
420.72	3131.64
420.91	3194.83
421.10	3166.74
421.29	3122.27
421.48	3098.87
421.67	3136.32
421.86	3105.89
422.05	3222.92
422.24	3166.74
422.43	3213.56
422.61	3211.22
422.80	3234.62
422.99	3251.00
423.18	3272.07
423.37	3330.58
423.56	3213.56
423.75	3286.11
423.94	3307.18
424.13	3002.91
424.32	3286.11
424.50	3295.47
424.69	3302.50
424.88	3335.26
425.07	3225.26
425.26	3325.90
425.45	3365.69
425.64	3286.11
425.83	3304.84
426.01	3407.82
426.20	3332.92
426.39	3412.50
426.58	3304.84
426.77	3300.16
426.96	3379.73
427.15	3339.94
427.33	3456.97
427.52	3393.78
427.71	3531.87
427.90	3435.91
428.09	3403.14
428.28	3534.21
428.46	3693.37
428.65	3536.55
428.84	3672.30
429.03	3676.98
429.22	3487.40
429.40	3595.06
429.59	3618.47
429.78	3471.01
429.97	3501.44
430.16	3679.32
430.34	3730.81
430.53	3691.02
430.72	3801.03
430.91	3770.60
431.10	3742.52
431.28	3735.50
431.47	3801.03
431.66	3761.24
431.85	3688.68
432.03	3960.19
432.22	3971.89
432.41	3978.91
432.60	3784.65
432.79	3946.14
432.97	3985.93
433.16	3866.56
433.35	3889.97
433.54	3955.51
433.72	3964.87
433.91	3918.06
434.10	4109.98
434.28	3918.06
434.47	4126.36
434.66	4180.20
434.85	4166.15
435.03	4208.28
435.22	4102.96
435.41	4341.69
435.59	4163.81
435.78	4149.77
435.97	4189.56
436.16	4149.77
436.34	4236.37
436.53	4163.81
436.72	4367.44
436.90	4315.95
437.09	4245.73
437.28	4264.46
437.46	4360.42
437.65	4435.32
437.84	4531.28
438.02	4428.29
438.21	4477.44
438.40	4454.04
438.58	4592.13
438.77	4573.41
438.96	4603.83
439.14	4709.16
439.33	4854.27
439.52	4788.74
439.70	4631.92
439.89	4786.40
440.08	4894.06
440.26	4823.84
440.45	4781.71
440.63	4786.40
440.82	4980.66
441.01	4978.32
441.19	4943.21
441.38	5001.72
441.57	5050.88
441.75	5034.49
441.94	5298.97
442.12	5090.67
442.31	5191.31
442.50	5156.20
442.68	5235.78
442.87	5146.84
443.05	5320.04
443.24	5268.55
443.43	5350.46
443.61	5357.49
443.80	5486.22
443.98	5174.92
444.17	5041.51
444.35	5385.57
444.54	5427.70
444.73	5331.74
444.91	5418.34
445.10	5348.12
445.28	5247.48
445.47	5301.31
445.65	5509.62
445.84	5523.66
446.02	5376.21
446.21	5537.71
446.39	5481.53
446.58	5589.20
446.77	5586.86
446.95	5392.59
447.14	5556.43
447.32	5586.86
447.51	5586.86
447.69	5479.19
447.88	5495.58
448.06	5521.32
448.25	5582.18
448.43	5563.45
448.62	5469.83
448.80	5486.22
448.99	5600.90
449.17	5664.10
449.36	5771.76
449.54	5753.04
449.73	5757.72
449.91	5696.86
450.10	5893.47
450.28	5834.96
450.46	5818.57
450.65	5919.21
450.83	5959.00
451.02	5849.00
451.20	6197.74
451.39	6015.18
451.57	5994.11
451.76	5884.11
451.94	6019.86
452.13	5935.60
452.31	6045.60
452.49	5947.30
452.68	5858.36
452.86	5921.56
453.05	6052.63
453.23	6251.57
453.42	5933.26
453.60	6045.60
453.78	6214.12
453.97	5949.64
454.15	6061.99
454.34	6122.84
454.52	6218.80
454.70	6274.98
454.89	6146.25
455.07	6200.08
455.26	6310.08
455.44	6368.60
455.62	6539.46
455.81	6553.50
455.99	6483.28
456.17	6331.15
456.36	6319.45
456.54	6504.35
456.73	6626.06
456.91	6649.46
457.09	6846.07
457.28	6817.98
457.46	6607.33
457.64	6892.88
457.83	6726.70
458.01	6640.10
458.19	6918.62
458.38	6782.87
458.56	6895.22
458.74	7002.88
458.93	6967.77
459.11	6892.88
459.29	6885.86
459.48	7002.88
459.66	6977.14
459.84	6899.90
460.03	7101.19
460.21	7227.57
460.39	7007.56
460.57	7091.82
460.76	7180.76
460.94	7272.04
461.12	7157.36
461.31	7208.85
461.49	7185.44
461.67	7145.66
461.85	7148.00
462.04	7183.10
462.22	7613.76
462.40	7410.14
462.59	7396.09
462.77	7309.49
462.95	7646.53
463.13	7400.77
463.32	7466.31
463.50	7449.93
463.68	7538.87
463.86	7644.19
464.05	7658.23
464.23	7644.19
464.41	7602.06
464.59	7323.54
464.78	7735.47
464.96	7936.76
465.14	7513.12
465.32	7700.36
465.50	7793.98
465.69	7840.79
465.87	7918.03
466.05	7770.58
466.23	7899.31
466.41	7955.48
466.60	7950.80
466.78	7740.15
466.96	7913.35
467.14	7981.23
467.32	8049.10
467.51	7962.50
467.69	7964.84
467.87	7901.65
468.05	7974.21
468.23	7693.34
468.41	7822.07
468.60	7962.50
468.78	8126.34
468.96	7997.61
469.14	8217.62
469.32	8250.39
469.50	8098.25
469.69	8416.57
469.87	8339.33
470.05	8271.45
470.23	8355.71
470.41	8400.18
470.59	8603.81
470.77	8449.33
470.95	8636.58
471.14	8589.77
471.32	8329.97
471.50	8564.02
471.68	8629.56
471.86	8777.01
472.04	8819.14
472.22	8971.27
472.40	8681.05
472.58	9090.64
472.77	8835.52
472.95	8863.61
473.13	9327.03
473.31	8889.35
473.49	8973.61
473.67	8863.61
473.85	9167.88
474.03	9071.92
474.21	9401.93
474.39	9355.12
474.57	9376.19
474.75	9373.85
474.93	9142.13
475.12	9554.07
475.30	9488.53
475.48	9624.28
475.66	9572.79
475.84	9633.64
476.02	9671.09
476.20	9909.83
476.38	10076.01
476.56	10157.92
476.74	10083.03
476.92	9980.04
477.10	10160.27
477.28	10284.31
477.46	10099.41
477.64	10305.38
477.82	10492.62
478.00	10719.65
478.18	10644.76
478.36	10759.44
478.54	10883.49
478.72	10890.51
478.90	11101.16
479.08	11122.23
479.26	10944.34
479.44	11297.77
479.62	11119.89
479.80	11082.44
479.98	11407.77
480.16	11749.49
480.34	11583.31
480.52	11838.43
480.70	11822.05
480.88	11405.43
481.06	11686.29
481.24	12056.10
481.41	11953.12
481.59	12170.79
481.77	12315.90
481.95	12624.85
482.13	12311.22
482.31	12404.84
482.49	12826.14
482.67	12823.80
482.85	12814.43
483.03	13081.25
483.21	12952.52
483.39	12985.29
483.57	13107.00
483.74	13184.24
483.92	13437.02
484.10	13205.30
484.28	13486.17
484.46	13839.59
484.64	14207.05
484.82	13790.44
485.00	14078.32
485.18	14359.19
485.35	14354.51
485.53	14185.99
485.71	14370.89
485.89	14586.22
486.07	14555.79
486.25	14377.91
486.43	14965.39
486.61	15080.07
486.78	15084.75
486.96	14963.04
487.14	15592.65
487.32	15435.83
487.50	15459.24
487.68	15697.97
487.85	15674.57
488.03	16004.58
488.21	16156.72
488.39	16308.85
488.57	16285.45
488.75	16395.45
488.92	16744.19
489.10	16762.92
489.28	16833.13
489.46	17095.27
489.64	17135.06
489.81	17247.41
489.99	17245.07
490.17	17547.00
490.35	17755.30
490.53	17439.33
490.70	17649.98
490.88	17804.46
491.06	18040.85
491.24	17949.57
491.41	17834.88
491.59	18218.73
491.77	18223.41
491.95	18396.61
492.13	18424.70
492.30	19012.17
492.48	18576.83
492.66	18927.91
492.84	19166.65
493.01	19225.16
493.19	18862.38
493.37	19419.42
493.54	19297.72
493.72	19873.49
493.90	19545.81
494.08	19690.93
494.25	19999.88
494.43	20081.80
494.61	20262.02
494.79	20428.20
494.96	20390.75
495.14	20645.87
495.32	20606.08
495.49	20638.84
495.67	20631.82
495.85	20879.92
496.02	20802.68
496.20	21053.12
496.38	21207.59
496.55	21158.44
496.73	21575.06
496.91	21591.44
497.09	21926.14
497.26	22174.24
497.44	21949.54
497.62	22097.00
497.79	22469.14
497.97	22326.37
498.14	22698.52
498.32	22628.30
498.50	22700.86
498.67	22995.76
498.85	22483.19
499.03	22759.37
499.20	22958.31
499.38	23014.49
499.56	23033.21
499.73	23227.48
499.91	23494.30
500.08	23655.79
500.26	23480.25
500.44	23433.44
500.61	23482.59
500.79	23578.56
500.97	23836.02
501.14	24070.07
501.32	24067.73
501.49	24231.57
501.67	24175.39
501.84	24606.05
502.02	24151.99
502.20	24594.35
502.37	24442.21
502.55	24615.41
502.72	24456.26
502.90	24666.91
503.07	24854.15
503.25	24996.92
503.43	24676.27
503.60	24952.45
503.78	25130.33
503.95	24912.66
504.13	25369.07
504.30	25610.14
504.48	25137.35
504.65	25752.91
504.83	25493.12
505.01	26096.97
505.18	25919.09
505.36	26192.94
505.53	25888.67
505.71	26146.12
505.88	26309.96
506.06	26569.76
506.23	26480.82
506.41	26478.48
506.58	26473.80
506.76	26305.28
506.93	26424.65
507.11	26417.63
507.28	26569.76
507.46	26574.44
507.63	26965.31
507.81	27152.55
507.98	26948.93
508.16	27063.61
508.33	27536.40
508.50	27566.83
508.68	27632.36
508.85	27747.05
509.03	27309.37
509.20	27630.02
509.38	28114.52
509.55	28013.87
509.73	27793.86
509.90	28156.64
510.08	27709.60
510.25	27953.02
510.42	28421.13
510.60	28006.85
510.77	28580.28
510.95	28683.27
511.12	28697.31
511.30	28383.68
511.47	28854.12
511.64	28638.80
511.82	29156.05
511.99	29067.11
512.17	29113.92
512.34	28926.68
512.51	29294.14
512.69	29654.59
512.86	29628.84
513.04	29357.34
513.21	29607.78
513.38	29607.78
513.56	29752.89
513.73	29270.74
513.90	29582.03
514.08	29703.74
514.25	29570.33
514.43	30125.04
514.60	30206.95
514.77	30190.57
514.95	29837.15
515.12	30059.50
515.29	30326.32
515.47	30429.30
515.64	30373.13
515.81	30110.99
515.99	30852.94
516.16	30532.29
516.33	30422.28
516.51	30857.62
516.68	30803.79
516.85	31349.14
517.03	30913.80
517.20	31016.78
517.37	31503.61
517.54	31269.56
517.72	31332.75
517.89	31070.61
518.06	31519.99
518.24	31311.69
518.41	31016.78
518.58	31349.14
518.75	31388.92
518.93	32231.52
519.10	31669.79
519.27	31756.39
519.45	32559.19
519.62	32294.71
519.79	32107.47
519.96	32243.22
520.14	32243.22
520.31	31941.29
520.48	32079.38
520.65	32367.27
520.83	32505.36
521.00	32327.48
521.17	32666.86
521.34	32858.78
521.52	32966.45
521.69	32861.12
521.86	33249.65
522.03	33378.38
522.20	33296.46
522.38	33010.92
522.55	33226.24
522.72	33268.37
522.89	33001.55
523.07	33661.58
523.24	33399.44
523.41	33785.63
523.58	33511.79
523.75	34092.24
523.92	33682.65
524.10	33883.94
524.27	33715.42
524.44	34218.63
524.61	34045.43
524.78	34033.73
524.96	34515.88
525.13	33916.70
525.30	34216.29
525.47	34735.89
525.64	34429.28
525.81	34756.96
525.98	34574.39
526.16	34656.31
526.33	34829.51
526.50	34817.81
526.67	34583.76
526.84	35075.27
527.01	34621.20
527.18	35009.73
527.36	35103.35
527.53	35194.64
527.70	35311.66
527.87	35629.98
528.04	35271.87
528.21	35316.34
528.38	35185.27
528.55	35730.62
528.72	35601.89
528.89	35679.13
529.07	35419.33
529.24	35402.94
529.41	35438.05
529.58	36079.36
529.75	35468.48
529.92	36044.25
530.09	35782.11
530.26	35896.80
530.43	36322.77
530.60	35723.60
530.77	36062.97
530.94	36123.83
531.11	35964.67
531.28	36219.79
531.46	36053.61
531.63	36287.67
531.80	35887.43
531.97	36912.59
532.14	36531.08
532.31	36566.19
532.48	37057.70
532.65	36671.51
532.82	36615.34
532.99	36872.80
533.16	36346.18
533.33	37036.64
533.50	36821.31
533.67	36884.50
533.84	36727.69
534.01	37067.06
534.18	36893.86
534.35	37584.32
534.52	37216.86
534.69	37757.52
534.86	37589.00
535.03	36943.02
535.20	37214.52
535.37	37895.61
535.54	37811.35
535.71	37724.75
535.88	37366.65
536.05	37490.70
536.22	38071.15
536.38	38078.18
536.55	37542.19
536.72	37670.92
536.89	37151.32
537.06	37860.51
537.23	37841.78
537.40	38134.35
537.57	37961.15
537.74	37680.28
537.91	38548.62
538.08	38206.90
538.25	38300.53
538.42	38345.00
538.59	38295.85
538.75	38143.71
538.92	38522.88
539.09	38920.77
539.26	38822.47
539.43	38904.38
539.60	39309.30
539.77	38567.35
539.94	39262.49
540.11	38785.02
540.28	39456.75
540.44	38911.41
540.61	38761.61
540.78	38843.53
540.95	39255.46
541.12	38939.49
541.29	39070.56
541.46	39225.04
541.62	38817.78
541.79	39487.18
541.96	39086.95
542.13	39262.49
542.30	39461.43
542.47	39234.40
542.63	39201.63
542.80	40002.10
542.97	39498.88
543.14	39929.54
543.31	39594.84
543.48	39669.74
543.64	40041.88
543.81	40397.65
543.98	39936.56
544.15	40102.74
544.32	40821.28
544.48	40072.31
544.65	40297.00
544.82	40369.56
544.99	40247.85
545.16	40112.10
545.32	40048.91
545.49	40687.87
545.66	40772.13
545.83	40620.00
546.00	40896.18
546.16	40758.09
546.33	40357.86
546.50	40657.45
546.67	41221.52
546.83	40320.41
547.00	40500.63
547.17	40137.85
547.34	40545.10
547.50	40854.05
547.67	41097.47
547.84	40821.28
548.00	41031.93
548.17	41443.87
548.34	40875.12
548.51	41301.09
548.67	41464.93
548.84	40954.69
549.01	40947.67
549.18	41289.39
549.34	41516.42
549.51	41876.86
549.68	41277.69
549.84	41624.09
550.01	41991.55
550.18	41191.09
550.34	41663.88
550.51	41535.15
550.68	41633.45
550.84	41652.17
551.01	41738.77
551.18	41687.28
551.34	41607.70
551.51	42089.85
551.68	41914.31
551.84	41986.87
552.01	42115.60
552.18	41947.08
552.34	41928.36
552.51	42223.26
552.68	42066.45
552.84	42064.11
553.01	42122.62
553.18	41968.15
553.34	41895.59
553.51	42216.24
553.67	42117.94
553.84	42377.74
554.01	42380.08
554.17	42160.07
554.34	42621.16
554.51	42412.85
554.67	42553.28
554.84	42845.85
555.00	42918.40
555.17	42361.36
555.33	42625.84
555.50	42473.70
555.67	42529.87
555.83	42590.73
556.00	42831.80
556.16	43016.71
556.33	42962.87
556.50	42607.11
556.66	43002.66
556.83	42656.26
556.99	43091.60
557.16	43063.52
557.32	43086.92
557.49	43051.81
557.65	42756.91
557.82	42674.99
557.98	43138.41
558.15	42761.59
558.32	42920.74
558.48	42913.72
558.65	42972.24
558.81	43538.65
558.98	43072.88
559.14	43035.43
559.31	43143.09
559.47	43323.32
559.64	42967.55
559.80	43342.04
559.97	43089.26
560.13	43353.74
560.30	43498.86
560.46	43711.84
560.63	44109.74
560.79	43468.43
560.96	43779.72
561.12	43817.17
561.29	43349.06
561.45	43812.49
561.61	43763.34
561.78	43571.41
561.94	43625.25
562.11	43487.15
562.27	43686.10
562.44	43260.12
562.60	43419.28
562.77	43995.05
562.93	43676.74
563.10	44151.87
563.26	43957.60
563.42	43899.09
563.59	44191.65
563.75	43777.38
563.92	43730.57
564.08	43646.31
564.24	43798.44
564.41	43777.38
564.57	44009.09
564.74	43856.96
564.90	44156.55
565.07	43718.87
565.23	44196.34
565.39	43765.68
565.56	44016.11
565.72	44264.21
565.88	44128.46
566.05	44467.84
566.21	44252.51
566.38	43964.62
566.54	44105.06
566.70	44378.90
566.87	44575.50
567.03	44105.06
567.19	44091.01
567.36	44051.22
567.52	44081.65
567.68	44425.71
567.85	44156.55
568.01	44582.52
568.17	44259.53
568.34	44348.47
568.50	44053.56
568.66	43611.20
568.83	44191.65
568.99	43913.13
569.15	44713.59
569.32	44254.85
569.48	44425.71
569.64	44603.59
569.81	44538.05
569.97	44921.90
570.13	44851.69
570.30	43992.71
570.46	44638.70
570.62	44683.17
570.78	45120.85
570.95	44402.30
571.11	44996.80
571.27	44411.67
571.43	44507.63
571.60	44589.55
571.76	44016.11
571.92	44825.94
572.09	44701.89
572.25	44509.97
572.41	44348.47
572.57	44374.22
572.74	44982.76
572.90	44456.14
573.06	44744.02
573.22	44790.83
573.38	45312.77
573.55	44715.93
573.71	45111.49
573.87	45162.98
574.03	44996.80
574.20	45165.32
574.36	44596.57
574.52	45064.67
574.68	44917.22
574.84	45345.54
575.01	45172.34
575.17	44699.55
575.33	44889.13
575.49	44650.40
575.65	45008.50
575.82	45001.48
575.98	44554.44
576.14	45380.65
576.30	45446.18
576.46	44795.51
576.62	44690.19
576.79	44940.63
576.95	44271.23
577.11	44502.95
577.27	44559.12
577.43	44989.78
577.59	45305.75
577.75	44800.19
577.92	44598.91
578.08	45034.25
578.24	44992.12
578.40	45277.66
578.56	44832.96
578.72	44893.82
578.88	45617.04
579.04	45378.31
579.21	45235.53
579.37	45045.95
579.53	44992.12
579.69	44500.61
579.85	45043.61
580.01	45432.14
580.17	44734.66
580.33	45333.84
580.49	45254.26
580.65	44919.56
580.82	44650.40
580.98	44748.70
581.14	44912.54
581.30	45289.37
581.46	44830.62
581.62	44891.48
581.78	44737.00
581.94	45200.43
582.10	45235.53
582.26	45237.87
582.42	45226.17
582.58	45371.28
582.74	45125.53
582.90	45130.21
583.06	45427.46
583.22	45099.78
583.38	45427.46
583.54	45034.25
583.70	45570.23
583.86	45261.28
584.02	45375.97
584.18	45492.99
584.34	45289.37
584.50	45102.12
584.66	45298.73
584.82	45326.81
584.98	45844.07
585.14	45675.55
585.30	45249.58
585.46	45057.65
585.62	45034.25
585.78	45516.40
585.94	45284.68
586.10	45193.40
586.26	44767.43
586.42	45010.84
586.58	45387.67
586.74	44830.62
586.90	44938.29
587.06	45399.37
587.22	45607.68
587.38	45277.66
587.54	45228.51
587.70	45825.35
587.86	45315.11
588.02	45432.14
588.18	44980.42
588.34	45600.66
588.49	45380.65
588.65	45448.52
588.81	45942.38
588.97	45406.39
589.13	45453.20
589.29	45247.24
589.45	45436.82
589.61	45368.94
589.77	45598.32
589.93	45497.67
590.08	45984.51
590.24	45691.94
590.40	45736.41
590.56	46256.01
590.72	45687.26
590.88	45425.12
591.04	45549.17
591.20	46213.88
591.35	45722.37
591.51	45989.19
591.67	45804.28
591.83	46204.52
591.99	45916.63
592.15	45570.23
592.31	45303.41
592.46	45715.34
592.62	45881.52
592.78	46092.17
592.94	46244.30
593.10	46066.42
593.26	46057.06
593.41	45837.05
593.57	45984.51
593.73	46024.29
593.89	46155.36
594.05	46316.86
594.20	46190.47
594.36	46300.48
594.52	46424.53
594.68	45638.11
594.84	45989.19
594.99	46143.66
595.15	46110.89
595.31	46089.83
595.47	45834.71
595.62	45825.35
595.78	45853.44
595.94	46068.76
596.10	46064.08
596.25	46078.13
596.41	46054.72
596.57	45696.62
596.73	46155.36
596.88	46248.99
597.04	46047.70
597.20	46328.56
597.36	46309.84
597.51	46150.68
597.67	45879.18
597.83	46141.32
597.99	46141.32
598.14	45846.41
598.30	45916.63
598.46	46036.00
598.61	46370.69
598.77	46057.06
598.93	46529.85
599.09	45965.78
599.24	46387.08
599.40	45968.12
599.56	46263.03
599.71	47042.43
599.87	46696.03
600.03	46609.43
600.18	46387.08
600.34	46431.55
600.50	46263.03
600.65	45832.37
600.81	46405.80
600.97	46433.89
601.12	46377.72
601.28	46497.08
601.44	45841.73
601.59	46527.51
601.75	46209.20
601.91	46553.26
602.06	46110.89
602.22	46494.74
602.37	46167.07
602.53	46478.36
602.69	46344.95
602.84	46068.76
603.00	46342.61
603.16	46141.32
603.31	46340.27
603.47	46232.60
603.62	46382.40
603.78	46141.32
603.94	46178.77
604.09	46274.73
604.25	46307.50
604.40	46286.43
604.56	46354.31
604.71	46506.44
604.87	46497.08
605.03	45745.77
605.18	45961.10
605.34	46347.29
605.49	45996.21
605.65	46274.73
605.80	45659.17
605.96	45720.02
606.12	45689.60
606.27	46344.95
606.43	46401.12
606.58	46181.11
606.74	45986.85
606.89	46167.07
607.05	45736.41
607.20	46216.22
607.36	46110.89
607.51	46174.09
607.67	45921.31
607.82	45895.56
607.98	45844.07
608.13	45748.11
608.29	45703.64
608.44	46457.29
608.60	46005.57
608.75	46223.24
608.91	46108.55
609.06	45886.20
609.22	46258.35
609.37	45916.63
609.53	46092.17
609.68	45914.29
609.84	45703.64
609.99	46017.27
610.15	46057.06
610.30	45883.86
610.46	45991.53
610.61	46101.53
610.76	45673.21
610.92	45490.65
611.07	45495.33
611.23	45741.09
611.38	45254.26
611.54	46043.02
611.69	46026.63
611.84	46185.79
612.00	45507.04
612.15	45703.64
612.31	45675.55
612.46	45294.05
612.62	45546.82
612.77	45635.77
612.92	45972.80
613.08	45818.33
613.23	45830.03
613.39	45165.32
613.54	45153.62
613.69	45298.73
613.85	45633.42
614.00	45507.04
614.15	45586.61
614.31	45684.92
614.46	45160.64
614.62	45221.49
614.77	44968.71
614.92	45808.96
615.08	45567.89
615.23	45436.82
615.38	45591.30
615.54	45186.38
615.69	45691.94
615.84	45382.99
616.00	46061.74
616.15	45209.79
616.30	45333.84
616.46	45062.33
616.61	44933.60
616.76	45282.34
616.92	44837.64
617.07	45249.58
617.22	45097.44
617.37	44528.69
617.53	44886.79
617.68	45202.77
617.83	45074.04
617.99	45745.77
618.14	45268.30
618.29	44875.09
618.45	45146.59
618.60	44985.10
618.75	44727.64
618.90	44500.61
619.06	44987.44
619.21	44924.24
619.36	45078.72
619.51	44762.75
619.67	44458.48
619.82	45099.78
619.97	44928.92
620.12	44849.35
620.28	44818.92
620.43	45062.33
620.58	45118.51
620.73	44657.42
620.89	45067.02
621.04	45127.87
621.19	45029.57
621.34	44261.87
621.49	44425.71
621.65	44378.90
621.80	45155.96
621.95	44528.69
622.10	44987.44
622.25	44383.58
622.41	44383.58
622.56	44865.73
622.71	44470.18
622.86	44744.02
623.01	44421.03
623.16	44699.55
623.32	44430.39
623.47	44268.89
623.62	44399.96
623.77	44629.34
623.92	44514.65
624.07	44327.41
624.23	44535.71
624.38	44711.25
624.53	44006.75
624.68	43856.96
624.83	43681.42
624.98	44201.02
625.13	43761.00
625.29	44315.70
625.44	43473.11
625.59	44037.18
625.74	43849.94
625.89	44037.18
626.04	43714.19
626.19	44074.63
626.34	43880.36
626.49	43725.89
626.65	43318.64
626.80	44062.93
626.95	43964.62
627.10	43178.20
627.25	43761.00
627.40	43952.92
627.55	43599.50
627.70	43903.77
627.85	44350.81
628.00	44009.09
628.15	43662.69
628.30	43220.33
628.45	43145.44
628.60	43159.48
628.76	43388.85
628.91	43423.96
629.06	43164.16
629.21	43543.33
629.36	43079.90
629.51	43772.70
629.66	43386.51
629.81	43709.50
629.96	43526.94
630.11	43295.23
630.26	43473.11
630.41	43299.91
630.56	43056.50
630.71	43414.60
630.86	43643.97
631.01	42934.79
631.16	42960.53
631.31	42806.06
631.46	42801.38
631.61	43147.78
631.76	43318.64
631.91	43299.91
632.06	43466.09
632.21	43693.12
632.36	43580.78
632.51	42359.02
632.66	43103.31
632.81	42845.85
632.96	42878.61
633.10	42948.83
633.25	42490.09
633.40	43166.50
633.55	43026.07
633.70	42906.70
633.85	43161.82
634.00	42443.27
634.15	42876.27
634.30	42534.56
634.45	42370.72
634.60	42579.03
634.75	42974.58
634.90	42909.04
635.05	42609.45
635.19	42440.93
635.34	42611.79
635.49	42384.76
635.64	42408.17
635.79	42686.69
635.94	42401.14
636.09	42564.98
636.24	41942.40
636.39	42433.91
636.53	42141.35
636.68	41937.72
636.83	42232.63
636.98	42115.60
637.13	41757.50
637.28	42045.38
637.43	41844.10
637.57	42351.99
637.72	41897.93
637.87	42108.58
638.02	41432.16
638.17	41965.81
638.32	41818.35
638.46	41488.34
638.61	42092.19
638.76	41928.36
638.91	41839.42
639.06	41954.10
639.20	41668.56
639.35	41427.48
639.50	41713.03
639.65	41832.39
639.80	41900.27
639.94	41771.54
640.09	42157.73
640.24	41900.27
640.39	41839.42
640.54	41558.55
640.68	41579.62
640.83	42068.79
640.98	41806.65
641.13	41455.57
641.27	41647.49
641.42	41153.64
641.57	41315.14
641.72	41422.80
641.86	41240.24
642.01	41013.21
642.16	41024.91
642.31	40999.16
642.45	41418.12
642.60	40711.28
642.75	41273.01
642.90	41528.13
643.04	41146.62
643.19	41141.94
643.34	40732.34
643.48	40589.57
643.63	40357.86
643.78	41179.39
643.93	41191.09
644.07	41251.94
644.22	41212.15
644.37	41041.29
644.51	41191.09
644.66	41289.39
644.81	40788.52
644.95	41268.33
645.10	41013.21
645.25	40601.27
645.39	40809.58
645.54	40769.79
645.69	40528.72
645.83	40594.25
645.98	40360.20
646.13	40760.43
646.27	40488.93
646.42	40369.56
646.57	40367.22
646.71	40673.83
646.86	40652.76
647.00	40854.05
647.15	40935.97
647.30	40612.98
647.44	40442.12
647.59	40374.24
647.74	40533.40
647.88	40631.70
648.03	40905.54
648.17	40495.95
648.32	40804.90
648.47	40858.73
648.61	40762.77
648.76	40308.71
648.90	40093.38
649.05	40559.14
649.20	40399.99
649.34	40266.58
649.49	40046.57
649.63	40282.96
649.78	40172.96
649.92	40177.64
650.07	40612.98
650.21	40107.42
650.36	40222.11
650.51	40407.01
650.65	40313.39
650.80	40353.18
650.94	40275.94
651.09	40259.55
651.23	39505.90
651.38	39665.06
651.52	39508.24
651.67	39945.92
651.81	39864.00
651.96	39929.54
652.10	39487.18
652.25	39779.74
652.39	39686.12
652.54	39761.02
652.68	39606.55
652.83	39442.71
652.97	39866.34
653.12	39529.31
653.26	39557.39
653.41	39515.26
653.55	39646.33
653.70	39686.12
653.84	39618.25
653.99	39634.63
654.13	39903.79
654.27	39005.03
654.42	39456.75
654.56	38899.70
654.71	39433.35
654.85	39466.11
655.00	39342.06
655.14	39447.39
655.29	39800.81
655.43	39784.43
655.57	39070.56
655.72	38672.67
655.86	39115.03
656.01	39267.17
656.15	39056.52
656.30	38962.90
656.44	39370.15
656.58	39449.73
656.73	38967.58
656.87	38609.48
657.01	38923.11
657.16	39100.99
657.30	38726.50
657.45	39129.08
657.59	38691.40
657.73	38565.01
657.88	38965.24
658.02	38462.02
658.16	39269.51
658.31	38873.96
658.45	38789.70
658.60	38452.66
658.74	38735.87
658.88	38433.94
659.03	38651.61
659.17	38504.15
659.31	38211.59
659.46	38417.55
659.60	38998.01
659.74	38892.68
659.89	38106.26
660.03	37841.78
660.17	38356.70
660.32	38216.27
660.46	37591.34
660.60	37467.30
660.74	37612.41
660.89	37851.14
661.03	37497.72
661.17	37713.05
661.32	37420.48
661.46	37546.87
661.60	37415.80
661.74	37717.73
661.89	37284.73
662.03	37179.41
662.17	37549.21
662.31	37586.66
662.46	37516.45
662.60	37160.69
662.74	36814.29
662.88	37127.92
663.03	37076.43
663.17	37130.26
663.31	36816.63
663.45	37076.43
663.60	37366.65
663.74	36978.12
663.88	36758.11
664.02	36833.01
664.17	36912.59
664.31	36905.57
664.45	36439.80
664.59	36914.93
664.73	36308.73
664.88	36465.55
665.02	36016.16
665.16	36538.10
665.30	36713.64
665.44	36301.71
665.59	36212.77
665.73	36226.81
665.87	35857.01
666.01	35651.04
666.15	35920.20
666.29	36212.77
666.44	36299.37
666.58	36247.88
666.72	35943.61
666.86	35861.69
667.00	35945.95
667.14	35838.28
667.28	35800.83
667.43	35225.06
667.57	35789.13
667.71	35548.06
667.85	35845.30
667.99	35243.79
668.13	35438.05
668.27	34925.47
668.41	34857.60
668.56	34946.54
668.70	34653.97
668.84	34579.07
668.98	34787.38
669.12	34801.43
669.26	34607.16
669.40	34918.45
669.54	34670.36
669.68	35028.46
669.82	34630.57
669.96	34375.45
670.10	34270.12
670.25	34422.26
670.39	34419.92
670.53	34525.24
670.67	34169.48
670.81	34316.93
670.95	34321.62
671.09	34286.51
671.23	33670.95
671.37	34139.05
671.51	34110.97
671.65	33544.56
671.79	33724.78
671.93	33659.24
672.07	33883.94
672.21	33472.00
672.35	33825.42
672.49	33350.29
672.63	33479.02
672.77	32783.88
672.91	33464.98
673.05	33062.41
673.19	32568.55
673.33	33003.89
673.47	32884.53
673.61	32566.21
673.75	32538.13
673.89	32353.23
674.03	32355.57
674.17	32063.00
674.31	32671.54
674.45	32353.23
674.59	32390.67
674.73	32254.92
674.87	32133.21
675.01	31620.64
675.15	31894.48
675.29	31674.47
675.43	31742.35
675.56	32048.96
675.70	31833.63
675.84	31236.79
675.98	29940.13
676.12	31461.48
676.26	31452.12
676.40	31063.59
676.54	30614.21
676.68	30897.41
676.82	30588.46
676.96	30691.44
677.10	30689.10
677.23	30675.06
677.37	30466.75
677.51	30113.33
677.65	30754.64
677.79	30382.49
677.93	29979.92
678.07	29991.62
678.21	30288.87
678.34	29830.13
678.48	29724.80
678.62	29663.95
678.76	29312.87
678.90	29736.51
679.04	29837.15
679.18	29869.92
679.31	28985.19
679.45	29312.87
679.59	29127.97
679.73	29085.84
679.87	28903.28
680.00	28496.02
680.14	28716.03
680.28	28823.70
680.42	28519.43
680.56	28540.49
680.70	28538.15
680.83	28142.60
680.97	28002.17
681.11	28292.40
681.25	27967.06
681.39	27756.41
681.52	27463.85
681.66	27508.32
681.80	27550.45
681.94	27285.97
682.07	27117.45
682.21	27618.32
682.35	27033.19
682.49	27236.81
682.62	27255.54
682.76	27393.63
682.90	27051.91
683.04	27009.78
683.17	26808.50
683.31	26691.47
683.45	26473.80
683.59	26038.46
683.72	26143.78
683.86	26417.63
684.00	26225.70
684.13	26302.94
684.27	26132.08
684.41	25682.70
684.55	25806.75
684.68	25795.04
684.82	25600.78
684.96	25450.99
685.09	25818.45
685.23	25296.51
685.37	25656.95
685.50	25427.58
685.64	25259.06
685.78	25106.93
685.91	25006.28
686.05	24615.41
686.19	24512.43
686.32	24332.21
686.46	24334.55
686.60	24219.86
686.73	23948.36
686.87	24428.17
687.01	24449.24
687.14	23997.51
687.28	24020.92
687.42	23934.32
687.55	23922.62
687.69	24027.94
687.82	23786.86
687.96	23690.90
688.10	23871.12
688.23	23726.01
688.37	23695.58
688.50	23531.75
688.64	23349.18
688.78	23293.01
688.91	22750.01
689.05	23190.03
689.18	22895.12
689.32	22640.00
689.46	22623.62
689.59	22602.55
689.73	22733.62
689.86	22663.41
690.00	22366.16
690.13	22553.40
690.27	22089.98
690.41	22382.54
690.54	21802.09
690.68	21654.64
690.81	21832.52
690.95	21696.77
691.08	21528.25
691.22	21312.92
691.35	21259.09
691.49	21549.31
691.62	21380.79
691.76	21064.82
691.89	20828.43
692.03	20699.70
692.16	20650.55
692.30	20765.23
692.43	20875.24
692.57	20437.56
692.70	20381.38
692.84	20538.20
692.97	19932.00
693.11	20210.53
693.24	20044.35
693.38	20182.44
693.51	19887.53
693.65	19630.07
693.78	19751.78
693.92	19620.71
694.05	19695.61
694.19	19601.99
694.32	19571.56
694.45	19494.32
694.59	19552.84
694.72	19454.53
694.86	19304.74
694.99	19225.16
695.13	18869.40
695.26	18794.50
695.39	18738.33
695.53	18534.70
695.66	18572.15
695.80	18808.54
695.93	18113.41
696.07	18305.33
696.20	18005.74
696.33	18040.85
696.47	17961.27
696.60	18230.43
696.73	18090.00
696.87	18097.02
697.00	17982.34
697.14	17617.21
697.27	17528.27
697.40	17839.56
697.54	17507.21
697.67	17378.48
697.80	17689.77
697.94	17444.01
698.07	16980.59
698.21	17081.23
698.34	17158.47
698.47	17041.44
698.61	16313.53
698.74	16627.17
698.87	16643.55
699.01	16374.39
699.14	16692.70
699.27	16444.60
699.40	16379.07
699.54	16116.93
699.67	16278.43
699.80	16236.30
699.94	16119.27
700.07	16180.12
700.20	15822.02
700.34	15920.32
700.47	15723.72
700.60	15810.32
700.73	15910.96
700.87	15623.08
701.00	15344.55
701.13	15346.89
701.26	15169.01
701.40	15248.59
701.53	15105.82
701.66	15351.57
701.79	15133.90
701.93	14665.80
702.06	14920.92
702.19	14874.10
702.32	14778.14
702.46	14602.60
702.59	14684.52
702.72	14771.12
702.85	14934.96
702.99	14693.88
703.12	14377.91
703.25	14085.34
703.38	14260.88
703.51	14307.69
703.65	14319.40
703.78	14008.11
703.91	13949.59
704.04	13806.82
704.17	13657.03
704.31	13790.44
704.44	13565.74
704.57	13561.06
704.70	13390.20
704.83	13298.92
704.96	13186.58
705.10	13078.91
705.23	13214.66
>>>>>End Processed Spectral Data<<<<<
