SpectraSuite Data File
++++++++++++++++++++++++++++++++++++
Date: Fri Oct 25 10:44:23 EDT 2013
User: price-jones
Dark Spectrum Present: No
Reference Spectrum Present: No
Number of Sampled Component Spectra: 1
Spectrometers: USB2+H05261
Integration Time (usec): 100000 (USB2+H05261)
Spectra Averaged: 1 (USB2+H05261)
Boxcar Smoothing: 0 (USB2+H05261)
Correct for Electrical Dark: No (USB2+H05261)
Strobe/Lamp Enabled: No (USB2+H05261)
Correct for Detector Non-linearity: No (USB2+H05261)
Correct for Stray Light: No (USB2+H05261)
Number of Pixels in Processed Spectrum: 2048
>>>>>Begin Processed Spectral Data<<<<<
365.73	135.75
365.92	135.75
366.12	135.75
366.32	63.19
366.52	0.00
366.72	102.98
366.91	79.58
367.11	0.00
367.31	14.04
367.51	79.58
367.70	25.75
367.90	37.45
368.10	0.00
368.30	74.90
368.49	56.17
368.69	58.51
368.89	16.38
369.09	56.17
369.28	35.11
369.48	16.38
369.68	30.43
369.87	117.03
370.07	30.43
370.27	81.92
370.47	198.95
370.66	409.59
370.86	433.00
371.06	402.57
371.25	479.81
371.45	447.04
371.65	477.47
371.84	444.70
372.04	390.87
372.24	514.92
372.44	503.22
372.63	566.41
372.83	517.26
373.03	479.81
373.22	512.58
373.42	528.96
373.62	484.49
373.81	540.66
374.01	578.11
374.21	613.22
374.40	624.92
374.60	601.52
374.79	540.66
374.99	594.50
375.19	568.75
375.38	594.50
375.58	610.88
375.78	608.54
375.97	638.97
376.17	638.97
376.37	601.52
376.56	645.99
376.76	627.26
376.95	667.05
377.15	641.31
377.35	610.88
377.54	685.78
377.74	683.44
377.93	650.67
378.13	664.71
378.33	748.97
378.52	657.69
378.72	709.18
378.91	777.06
379.11	641.31
379.31	678.76
379.50	638.97
379.70	690.46
379.89	767.70
380.09	732.59
380.28	674.07
380.48	718.54
380.68	638.97
380.87	725.57
381.07	755.99
381.26	702.16
381.46	770.04
381.65	739.61
381.85	690.46
382.04	765.36
382.24	704.50
382.43	772.38
382.63	706.84
382.83	699.82
383.02	777.06
383.22	784.08
383.41	755.99
383.61	683.44
383.80	777.06
384.00	751.31
384.19	744.29
384.39	844.93
384.58	828.55
384.78	833.23
384.97	826.21
385.17	823.87
385.36	807.48
385.56	819.19
385.75	772.38
385.95	873.02
386.14	903.45
386.34	842.59
386.53	924.51
386.72	891.74
386.92	924.51
387.11	929.19
387.31	814.51
387.50	849.61
387.70	863.66
387.89	887.06
388.09	905.79
388.28	854.30
388.48	889.40
388.67	880.04
388.86	933.87
389.06	1062.60
389.25	1015.79
389.45	1032.18
389.64	971.32
389.84	1048.56
390.03	1100.05
390.22	1165.59
390.42	1025.15
390.61	1104.73
390.81	992.39
391.00	1177.29
391.19	1088.35
391.39	1067.28
391.58	1041.54
391.78	983.02
391.97	1076.65
392.16	1048.56
392.36	1109.41
392.55	1053.24
392.75	1048.56
392.94	987.71
393.13	1090.69
393.33	980.68
393.52	1069.62
393.71	1137.50
393.91	1221.76
394.10	1067.28
394.29	1121.12
394.49	1287.29
394.68	1277.93
394.88	1289.64
395.07	1277.93
395.26	1299.00
395.46	1219.42
395.65	1308.36
395.84	1259.21
396.04	1282.61
396.23	1163.25
396.42	1163.25
396.62	1177.29
396.81	1149.20
397.00	1231.12
397.19	1313.04
397.39	1392.62
397.58	1528.37
397.77	1418.36
397.97	1511.99
398.16	1521.35
398.35	1511.99
398.55	1586.88
398.74	1542.41
398.93	1572.84
399.12	1598.59
399.32	1528.37
399.51	1554.12
399.70	1647.74
399.90	1591.56
400.09	1647.74
400.28	1664.12
400.47	1687.53
400.67	1732.00
400.86	1757.74
401.05	1727.32
401.24	1762.42
401.44	1799.87
401.63	1832.64
401.82	1837.32
402.01	1727.32
402.21	1842.00
402.40	1916.90
402.59	1781.15
402.78	1856.04
402.97	1865.41
403.17	1886.47
403.36	1919.24
403.55	1825.62
403.74	1928.60
403.93	1959.03
404.13	1940.30
404.32	1919.24
404.51	1898.17
404.70	2017.54
404.89	1858.39
405.09	2040.95
405.28	1916.90
405.47	1975.41
405.66	2064.35
405.85	2080.74
406.05	2019.88
406.24	2026.90
406.43	2064.35
406.62	2026.90
406.81	2225.85
407.00	2101.80
407.20	2125.21
407.39	2186.06
407.58	2230.53
407.77	2305.43
407.96	2275.00
408.15	2272.66
408.34	2277.34
408.54	2370.96
408.73	2368.62
408.92	2476.29
409.11	2368.62
409.30	2403.73
409.49	2361.60
409.68	2377.98
409.87	2225.85
410.07	2448.20
410.26	2520.76
410.45	2544.16
410.64	2544.16
410.83	2495.01
411.02	2593.31
411.21	2581.61
411.40	2670.55
411.59	2672.89
411.78	2579.27
411.98	2691.62
412.17	2738.43
412.36	2724.38
412.55	2782.90
412.74	2860.13
412.93	2799.28
413.12	2736.09
413.31	2860.13
413.50	2932.69
413.69	3033.33
413.88	2942.05
414.07	3197.17
414.26	3082.49
414.45	3009.93
414.64	3040.36
414.83	3260.37
415.02	3133.98
415.22	3117.59
415.41	3222.92
415.60	3187.81
415.79	3213.56
415.98	3337.60
416.17	3321.22
416.36	3318.88
416.55	3339.94
416.74	3375.05
416.93	3309.52
417.12	3548.25
417.31	3379.73
417.50	3463.99
417.69	3442.93
417.88	3588.04
418.07	3508.46
418.26	3618.47
418.45	3578.68
418.64	3749.54
418.83	3667.62
419.02	3719.11
419.21	3779.97
419.39	3742.52
419.58	3686.34
419.77	3735.50
419.96	3770.60
420.15	3843.16
420.34	3716.77
420.53	3744.86
420.72	3857.20
420.91	4011.68
421.10	3847.84
421.29	4021.04
421.48	3829.12
421.67	3997.64
421.86	3974.23
422.05	3967.21
422.24	3892.31
422.43	3915.72
422.61	4046.79
422.80	4081.89
422.99	3885.29
423.18	3957.85
423.37	4037.42
423.56	4032.74
423.75	4060.83
423.94	4084.23
424.13	3826.78
424.32	3894.65
424.50	3974.23
424.69	4159.13
424.88	4028.06
425.07	3962.53
425.26	3971.89
425.45	3974.23
425.64	4145.09
425.83	3981.25
426.01	4224.67
426.20	4166.15
426.39	4070.19
426.58	3957.85
426.77	4049.13
426.96	4114.66
427.15	4168.49
427.33	4086.58
427.52	4227.01
427.71	4175.52
427.90	4280.84
428.09	4297.22
428.28	4201.26
428.46	4306.59
428.65	4297.22
428.84	4454.04
429.03	4257.43
429.22	4255.09
429.40	4351.06
429.59	4243.39
429.78	4004.66
429.97	4102.96
430.16	3936.78
430.34	4168.49
430.53	4159.13
430.72	4259.78
430.91	4416.59
431.10	4353.40
431.28	4603.83
431.47	4657.67
431.66	4889.38
431.85	4669.37
432.03	4706.82
432.22	4786.40
432.41	4741.93
432.60	4800.44
432.79	4807.46
432.97	4992.36
433.16	4753.63
433.35	4905.76
433.54	4919.81
433.72	4830.87
433.91	4823.84
434.10	4980.66
434.28	4861.29
434.47	5025.13
434.66	5095.35
434.85	5280.25
435.03	5001.72
435.22	5034.49
435.41	5261.52
435.59	5329.40
435.78	5207.69
435.97	5282.59
436.16	5247.48
436.34	5259.18
436.53	5336.42
436.72	5331.74
436.90	5179.61
437.09	5228.76
437.28	5317.70
437.46	5352.81
437.65	5383.23
437.84	5338.76
438.02	5364.51
438.21	5303.65
438.40	5322.38
438.58	5282.59
438.77	5636.01
438.96	5528.35
439.14	5750.70
439.33	5860.70
439.52	5748.36
439.70	5710.91
439.89	5877.09
440.08	6005.81
440.26	5771.76
440.45	6012.84
440.63	6038.58
440.82	6225.82
441.01	6108.80
441.19	6078.37
441.38	6274.98
441.57	6265.61
441.75	6274.98
441.94	6335.83
442.12	6511.37
442.31	6609.67
442.50	6532.44
442.68	6558.18
442.87	6424.77
443.05	6459.88
443.24	6562.86
443.43	6633.08
443.61	6754.79
443.80	6684.57
443.98	6773.51
444.17	6541.80
444.35	6752.45
444.54	6899.90
444.73	6766.49
444.91	6750.10
445.10	6539.46
445.28	6738.40
445.47	6518.39
445.65	6658.82
445.84	6574.56
446.02	6768.83
446.21	6658.82
446.39	6665.85
446.58	6871.81
446.77	6698.61
446.95	6906.92
447.14	6986.50
447.32	6972.46
447.51	6710.32
447.69	6813.30
447.88	6864.79
448.06	7014.59
448.25	6726.70
448.43	6916.28
448.62	6855.43
448.80	6878.83
448.99	7117.57
449.17	7152.68
449.36	6876.49
449.54	7323.54
449.73	7368.01
449.91	7295.45
450.10	7358.64
450.28	7431.20
450.46	7501.42
450.65	7405.46
450.83	7438.22
451.02	7445.24
451.20	7646.53
451.39	7588.02
451.57	7456.95
451.76	7304.81
451.94	7227.57
452.13	7431.20
452.31	7325.88
452.49	7438.22
452.68	7433.54
452.86	7349.28
453.05	7562.27
453.23	7470.99
453.42	7604.40
453.60	7744.83
453.78	7709.72
453.97	7653.55
454.15	7681.64
454.34	7536.52
454.52	7768.24
454.70	7726.11
454.89	7723.77
455.07	7805.69
455.26	7754.19
455.44	7943.78
455.62	7812.71
455.81	8042.08
455.99	8138.04
456.17	8032.72
456.36	8011.65
456.54	8259.75
456.73	8224.64
456.91	8439.97
457.09	8409.54
457.28	8397.84
457.46	8393.16
457.64	8311.24
457.83	8346.35
458.01	8112.30
458.19	8559.34
458.38	8315.92
458.56	8524.23
458.74	8484.44
458.93	8533.59
459.11	8667.00
459.29	8685.73
459.48	8643.60
459.66	8589.77
459.84	8559.34
460.03	8739.56
460.21	8912.76
460.39	8685.73
460.57	8741.90
460.76	8711.47
460.94	8954.89
461.12	8966.59
461.31	8791.05
461.49	8826.16
461.67	9057.87
461.85	9252.14
462.04	8999.36
462.22	9198.31
462.40	9100.00
462.59	9163.20
462.77	9004.04
462.95	9123.41
463.13	9144.47
463.32	9102.34
463.50	9238.09
463.68	9373.85
463.86	9179.58
464.05	9221.71
464.23	9172.56
464.41	9399.59
464.59	9062.55
464.78	9675.77
464.96	9584.49
465.14	9235.75
465.32	9518.96
465.50	9415.98
465.69	9685.14
465.87	9591.52
466.05	9511.94
466.23	9659.39
466.41	9572.79
466.60	9650.03
466.78	9385.55
466.96	9315.33
467.14	9430.02
467.32	9577.47
467.51	9764.72
467.69	9551.73
467.87	9678.12
468.05	9795.14
468.23	9872.38
468.41	9561.09
468.60	9626.62
468.78	9745.99
468.96	9757.69
469.14	9928.55
469.32	9989.41
469.50	9860.68
469.69	9942.60
469.87	10289.00
470.05	10122.82
470.23	10146.22
470.41	10026.86
470.59	10139.20
470.77	10253.89
470.95	9921.53
471.14	10471.56
471.32	10324.10
471.50	10600.29
471.68	10738.38
471.86	10773.49
472.04	10595.61
472.22	10829.66
472.40	10476.24
472.58	10635.39
472.77	10619.01
472.95	10747.74
473.13	11276.70
473.31	10864.77
473.49	10874.13
473.67	10897.53
473.85	11129.25
474.03	11232.23
474.21	11108.18
474.39	11597.35
474.57	11386.71
474.75	11389.05
474.93	11424.15
475.12	11522.46
475.30	11559.91
475.48	11559.91
475.66	11662.89
475.84	11637.14
476.02	11552.88
476.20	11662.89
476.38	11985.88
476.56	12339.30
476.74	11974.18
476.92	12184.83
477.10	11995.25
477.28	12381.43
477.46	12517.18
477.64	12526.55
477.82	12648.26
478.00	12936.14
478.18	12882.31
478.36	12856.56
478.54	13252.11
478.72	13240.41
478.90	13137.43
479.08	13266.16
479.26	13666.39
479.44	13626.60
479.62	13633.62
479.80	13722.56
479.98	13949.59
480.16	14366.21
480.34	13764.69
480.52	14125.13
480.70	14012.79
480.88	14134.50
481.06	14415.36
481.24	14120.45
481.41	14759.42
481.59	14949.00
481.77	14815.59
481.95	14761.76
482.13	15152.63
482.31	14787.50
482.49	15536.48
482.67	15435.83
482.85	15438.17
483.03	15749.46
483.21	15686.27
483.39	15777.55
483.57	15910.96
483.74	15936.71
483.92	16126.29
484.10	16002.24
484.28	16379.07
484.46	16407.16
484.64	16795.68
484.82	16533.54
485.00	16531.20
485.18	16512.48
485.35	16870.58
485.53	16542.91
485.71	16568.65
485.89	16769.94
486.07	16652.91
486.25	17076.55
486.43	17319.96
486.61	17254.43
486.78	17912.12
486.96	17832.54
487.14	18111.07
487.32	18043.19
487.50	18389.59
487.68	18611.94
487.85	18834.29
488.03	18820.25
488.21	19115.16
488.39	19150.26
488.57	19400.70
488.75	19417.08
488.92	19763.48
489.10	19644.12
489.28	20002.22
489.46	20086.48
489.64	20187.12
489.81	20861.19
489.99	20634.16
490.17	20587.35
490.35	20989.92
490.53	20924.39
490.70	21003.97
490.88	21109.29
491.06	21156.10
491.24	21102.27
491.41	21383.13
491.59	21282.49
491.77	21371.43
491.95	21729.53
492.13	21923.80
492.30	22452.76
492.48	22019.76
492.66	22249.13
492.84	22436.38
493.01	22537.02
493.19	22731.28
493.37	23101.09
493.54	23112.79
493.72	23131.51
493.90	22920.87
494.08	23227.48
494.25	23686.22
494.43	23344.50
494.61	23981.13
494.79	23960.06
494.96	23931.98
495.14	24313.48
495.32	24147.31
495.49	24381.36
495.67	24336.89
495.85	24844.79
496.02	25198.21
496.20	25099.90
496.38	24718.40
496.55	25296.51
496.73	25738.87
496.91	25741.21
497.09	25617.16
497.26	25996.33
497.44	25961.22
497.62	25792.70
497.79	25933.14
497.97	25682.70
498.14	25872.28
498.32	26120.38
498.50	26466.78
498.67	26574.44
498.85	26733.60
499.03	26799.13
499.20	26934.88
499.38	26808.50
499.56	27199.37
499.73	26984.04
499.91	27133.83
500.08	27431.08
500.26	26726.58
500.44	27311.71
500.61	27452.14
500.79	27197.02
500.97	27400.65
501.14	27931.95
501.32	27777.48
501.49	27330.44
501.67	27587.89
501.84	28250.27
502.02	27800.88
502.20	28521.77
502.37	28739.44
502.55	28493.68
502.72	28835.40
502.90	28692.63
503.07	28922.00
503.25	28804.97
503.43	28800.29
503.60	28823.70
503.78	28877.53
503.95	28945.41
504.13	29212.23
504.30	29109.24
504.48	29212.23
504.65	29666.29
504.83	29455.64
505.01	29886.30
505.18	29860.55
505.36	30068.86
505.53	30143.76
505.71	30237.38
505.88	30471.43
506.06	30253.76
506.23	30321.64
506.41	29998.65
506.58	30504.20
506.76	30579.10
506.93	30836.56
507.11	30745.28
507.28	30501.86
507.46	30529.95
507.63	30958.27
507.81	31110.40
507.98	30885.71
508.16	30979.33
508.33	31412.33
508.50	31075.29
508.68	31255.51
508.85	31826.60
509.03	31758.73
509.20	31885.12
509.38	32025.55
509.55	32018.53
509.73	32102.79
509.90	32053.64
510.08	31880.44
510.25	32091.09
510.42	32563.87
510.60	32570.90
510.77	32645.79
510.95	33055.39
511.12	32683.24
511.30	32861.12
511.47	32863.46
511.64	32961.76
511.82	33214.54
511.99	33317.53
512.17	32861.12
512.34	33172.41
512.51	33371.36
512.69	33455.62
512.86	33303.48
513.04	33670.95
513.21	33486.04
513.38	33530.51
513.56	33553.92
513.73	33116.24
513.90	33586.69
514.08	33935.43
514.25	33621.80
514.43	34164.80
514.60	33853.51
514.77	34291.19
514.95	34646.95
515.12	34146.08
515.29	34459.71
515.47	34506.52
515.64	35164.21
515.81	34464.39
515.99	34567.37
516.16	34059.48
516.33	34361.40
516.51	34328.64
516.68	33867.55
516.85	34237.36
517.03	34260.76
517.20	34565.03
517.37	35051.86
517.54	35126.76
517.72	35431.03
517.89	34335.66
518.06	35047.18
518.24	34639.93
518.41	35054.20
518.58	35086.97
518.75	35482.52
518.93	35323.36
519.10	35388.90
519.27	35833.60
519.45	36144.89
519.62	35644.02
519.79	36189.36
519.96	35999.78
520.14	36385.97
520.31	36311.07
520.48	36353.20
520.65	36187.02
520.83	36683.22
521.00	36842.37
521.17	36715.98
521.34	36680.88
521.52	36779.18
521.69	37282.39
521.86	37074.09
522.03	37350.27
522.20	37177.07
522.38	37188.77
522.55	37294.10
522.72	37076.43
522.89	36865.78
523.07	37731.78
523.24	37125.58
523.41	38124.99
523.58	37603.05
523.75	38087.54
523.92	38157.75
524.10	37846.46
524.27	38410.53
524.44	38436.28
524.61	38169.46
524.78	38230.31
524.96	38361.38
525.13	38356.70
525.30	38590.75
525.47	38529.90
525.64	38628.20
525.81	38869.28
525.98	38192.86
526.16	38422.23
526.33	38031.36
526.50	38436.28
526.67	38298.19
526.84	38258.40
527.01	38174.14
527.18	38635.22
527.36	39232.06
527.53	39147.80
527.70	39192.27
527.87	39409.94
528.04	39033.11
528.21	39594.84
528.38	39487.18
528.55	39723.57
528.72	39749.32
528.89	39777.40
529.07	39592.50
529.24	39229.72
529.41	39505.90
529.58	39562.08
529.75	39328.02
529.92	39880.39
530.09	40203.38
530.26	39880.39
530.43	40184.66
530.60	39964.65
530.77	40158.91
530.94	40397.65
531.11	40252.53
531.28	40247.85
531.46	40678.51
531.63	40425.73
531.80	40275.94
531.97	40016.14
532.14	40463.18
532.31	39807.83
532.48	40425.73
532.65	40360.20
532.82	40608.29
532.99	40720.64
533.16	40453.82
533.33	40952.35
533.50	40863.41
533.67	40823.62
533.84	40488.93
534.01	40790.86
534.18	41198.11
534.35	41024.91
534.52	40975.76
534.69	40987.46
534.86	41528.13
535.03	41179.39
535.20	41682.60
535.37	41579.62
535.54	42050.06
535.71	41490.68
535.88	41420.46
536.05	41958.78
536.22	41694.30
536.38	41581.96
536.55	41584.30
536.72	41399.40
536.89	41387.69
537.06	41422.80
537.23	41745.80
537.40	41659.20
537.57	41708.35
537.74	42237.31
537.91	41750.48
538.08	42398.80
538.25	42010.28
538.42	42239.65
538.59	42337.95
538.75	42033.68
538.92	42417.53
539.09	42312.20
539.26	42307.52
539.43	41904.95
539.60	42021.98
539.77	42181.13
539.94	42389.44
540.11	42134.32
540.28	42398.80
540.44	42216.24
540.61	42106.24
540.78	42061.77
540.95	42459.66
541.12	42169.43
541.29	42305.18
541.46	42557.96
541.62	42550.94
541.79	43356.08
541.96	42799.04
542.13	42312.20
542.30	42850.53
542.47	43058.84
542.63	42731.16
542.80	42995.64
542.97	43295.23
543.14	43442.68
543.31	43220.33
543.48	43117.35
543.64	43866.32
543.81	43304.59
543.98	43569.07
544.15	43145.44
544.32	43952.92
544.48	43971.64
544.65	44210.38
544.82	44051.22
544.99	43817.17
545.16	43938.88
545.32	43952.92
545.49	44013.77
545.66	44229.10
545.83	44076.97
546.00	44025.48
546.16	44175.27
546.33	44233.78
546.50	43440.34
546.67	43913.13
546.83	43878.02
547.00	44294.64
547.17	44081.65
547.34	43800.79
547.50	43789.08
547.67	44184.63
547.84	44205.70
548.00	44486.56
548.17	44896.16
548.34	44629.34
548.51	45179.36
548.67	44980.42
548.84	44589.55
549.01	44406.98
549.18	44315.70
549.34	44676.15
549.51	45045.95
549.68	44957.01
549.84	44858.71
550.01	44952.33
550.18	44786.15
550.34	44776.79
550.51	45078.72
550.68	44790.83
550.84	44708.91
551.01	44903.18
551.18	44917.22
551.34	45148.93
551.51	44921.90
551.68	45537.46
551.84	45074.04
552.01	45230.85
552.18	45221.49
552.34	44776.79
552.51	45010.84
552.68	45270.64
552.84	45769.18
553.01	45352.56
553.18	45478.95
553.34	45200.43
553.51	44811.90
553.67	45282.34
553.84	45811.31
554.01	45776.20
554.17	45771.52
554.34	45703.64
554.51	45591.30
554.67	45928.33
554.84	45523.42
555.00	45256.60
555.17	45745.77
555.33	45598.32
555.50	45432.14
555.67	45471.93
555.83	45586.61
556.00	45502.35
556.16	46012.59
556.33	45282.34
556.50	45595.98
556.66	45823.01
556.83	45368.94
556.99	46127.28
557.16	45593.64
557.32	45666.19
557.49	45984.51
557.65	45287.03
557.82	45577.25
557.98	46108.55
558.15	46129.62
558.32	45640.45
558.48	45537.46
558.65	45715.34
558.81	45567.89
558.98	46110.89
559.14	46012.59
559.31	45691.94
559.47	45666.19
559.64	46026.63
559.80	45799.60
559.97	45991.53
560.13	45619.38
560.30	45792.58
560.46	46078.13
560.63	46120.26
560.79	46326.22
560.96	46426.87
561.12	46483.04
561.29	45998.55
561.45	45897.91
561.61	46391.76
561.78	46028.98
561.94	46010.25
562.11	46122.60
562.27	46082.81
562.44	46286.43
562.60	46340.27
562.77	46660.92
562.93	46059.40
563.10	46298.14
563.26	46052.38
563.42	46459.63
563.59	46110.89
563.75	46436.23
563.92	46602.41
564.08	46454.95
564.24	46445.59
564.41	46281.75
564.57	46894.97
564.74	46209.20
564.90	46518.15
565.07	46471.34
565.23	46213.88
565.39	46059.40
565.56	46642.20
565.72	46143.66
565.88	46263.03
566.05	46422.19
566.21	46036.00
566.38	46174.09
566.54	46295.80
566.70	46841.14
566.87	47054.13
567.03	46466.66
567.19	47056.47
567.36	46557.94
567.52	46543.89
567.68	46555.60
567.85	46799.01
568.01	46646.88
568.17	46417.50
568.34	46562.62
568.50	46335.59
568.66	46679.64
568.83	46618.79
568.99	45823.01
569.15	46759.22
569.32	46483.04
569.48	46124.94
569.64	47199.24
569.81	46667.94
569.97	46267.71
570.13	46312.18
570.30	46401.12
570.46	46698.37
570.62	46199.83
570.78	45970.46
570.95	46663.26
571.11	46476.02
571.27	46422.19
571.43	46848.16
571.60	46443.25
571.76	46349.63
571.92	46674.96
572.09	46920.72
572.25	46831.78
572.41	46646.88
572.57	47028.38
572.74	46768.58
572.90	46616.45
573.06	47103.28
573.22	46962.85
573.38	46260.69
573.55	46639.86
573.71	46820.08
573.87	46361.33
574.03	46747.52
574.20	47082.22
574.36	46794.33
574.52	46944.12
574.68	46284.09
574.84	46714.75
575.01	46424.53
575.17	46946.47
575.33	46646.88
575.49	46431.55
575.65	46822.42
575.82	46871.57
575.98	46822.42
576.14	46983.91
576.30	46988.60
576.46	46333.24
576.62	46478.36
576.79	47189.88
576.95	46848.16
577.11	46742.84
577.27	46829.44
577.43	46808.37
577.59	46969.87
577.75	46902.00
577.92	46389.42
578.08	46391.76
578.24	46038.34
578.40	46300.48
578.56	46532.19
578.72	46773.27
578.88	47084.56
579.04	46920.72
579.21	46738.16
579.37	46913.70
579.53	46787.31
579.69	46862.21
579.85	46625.81
580.01	47271.80
580.17	46691.35
580.33	46698.37
580.49	46892.63
580.65	46899.65
580.82	46679.64
580.98	46852.84
581.14	46674.96
581.30	47222.65
581.46	47182.86
581.62	47100.94
581.78	46841.14
581.94	47171.16
582.10	47103.28
582.26	47360.74
582.42	46597.73
582.58	47161.79
582.74	46728.80
582.90	46944.12
583.06	47016.68
583.22	46862.21
583.38	47255.42
583.54	46742.84
583.70	46859.87
583.86	46721.77
584.02	46724.11
584.18	46934.76
584.34	47002.64
584.50	46506.44
584.66	46775.61
584.82	46948.81
584.98	46707.73
585.14	47253.08
585.30	46749.86
585.46	46691.35
585.62	46782.63
585.78	47147.75
585.94	46822.42
586.10	46820.08
586.26	46906.68
586.42	47093.92
586.58	46707.73
586.74	47229.67
586.90	46883.27
587.06	46714.75
587.22	46911.36
587.38	46670.28
587.54	46670.28
587.70	47171.16
587.86	47000.30
588.02	47002.64
588.18	46782.63
588.34	46590.70
588.49	46480.70
588.65	46234.94
588.81	46295.80
588.97	46885.61
589.13	46593.04
589.29	46712.41
589.45	46525.17
589.61	46635.17
589.77	47021.36
589.93	46773.27
590.08	46829.44
590.24	47063.49
590.40	47026.04
590.56	46927.74
590.72	47377.12
590.88	46836.46
591.04	47182.86
591.20	47194.56
591.35	47320.95
591.51	47196.90
591.67	46974.55
591.83	47224.99
591.99	47250.74
592.15	47325.63
592.31	47189.88
592.46	46775.61
592.62	46902.00
592.78	47234.35
592.94	47178.18
593.10	46990.94
593.26	47068.17
593.41	46951.15
593.57	47068.17
593.73	46841.14
593.89	47316.27
594.05	46967.53
594.20	46590.70
594.36	47241.37
594.52	46843.48
594.68	47136.05
594.84	46625.81
594.99	47199.24
595.15	47365.42
595.31	47564.37
595.47	46990.94
595.62	46862.21
595.78	46813.05
595.94	47077.54
596.10	47271.80
596.25	47505.85
596.41	47122.01
596.57	47562.03
596.73	47599.47
596.88	46972.21
597.04	47323.29
597.20	47129.03
597.36	46796.67
597.51	47501.17
597.67	47217.97
597.83	46859.87
597.99	46909.02
598.14	47138.39
598.30	47208.61
598.46	46684.33
598.61	47150.09
598.77	46323.88
598.93	47213.29
599.09	46845.82
599.24	47440.32
599.40	47332.65
599.56	46916.04
599.71	46770.93
599.87	47124.35
600.03	46939.44
600.18	47381.80
600.34	46951.15
600.50	47442.66
600.65	47086.90
600.81	47391.17
600.97	47688.42
601.12	47332.65
601.28	47234.35
601.44	46857.52
601.59	46766.24
601.75	46637.51
601.91	46801.35
602.06	46724.11
602.22	47026.04
602.37	46852.84
602.53	46911.36
602.69	47213.29
602.84	46731.14
603.00	47353.72
603.16	47093.92
603.31	47065.83
603.47	46948.81
603.62	46789.65
603.78	47166.48
603.94	47262.44
604.09	46749.86
604.25	47154.77
604.40	47386.49
604.56	47281.16
604.71	46845.82
604.87	46988.60
605.03	46906.68
605.18	46958.17
605.34	46791.99
605.49	46593.04
605.65	46990.94
605.80	46768.58
605.96	46787.31
606.12	47363.08
606.27	47192.22
606.43	46801.35
606.58	46918.38
606.74	46677.30
606.89	46415.16
607.05	46967.53
607.20	46630.49
607.36	46312.18
607.51	46696.03
607.67	47054.13
607.82	46808.37
607.98	46625.81
608.13	46124.94
608.29	46684.33
608.44	46302.82
608.60	46197.49
608.75	46752.20
608.91	46791.99
609.06	46717.09
609.22	46658.58
609.37	46220.90
609.53	46827.10
609.68	46639.86
609.84	46143.66
609.99	46494.74
610.15	46291.12
610.30	46106.21
610.46	45860.46
610.61	46291.12
610.76	46459.63
610.92	46433.89
611.07	46394.10
611.23	46389.42
611.38	46094.51
611.54	46138.98
611.69	46244.30
611.84	45813.65
612.00	46075.79
612.15	45724.71
612.31	46295.80
612.46	45991.53
612.62	46342.61
612.77	45900.25
612.92	46691.35
613.08	46209.20
613.23	46040.68
613.39	45893.22
613.54	45387.67
613.69	45895.56
613.85	45741.09
614.00	45989.19
614.15	46040.68
614.31	45909.61
614.46	46354.31
614.62	46054.72
614.77	45668.53
614.92	46092.17
615.08	45921.31
615.23	45488.31
615.38	45794.92
615.54	45518.74
615.69	45600.66
615.84	45612.36
616.00	45928.33
616.15	45687.26
616.30	45621.72
616.46	45392.35
616.61	45509.38
616.76	45500.01
616.92	44898.50
617.07	45205.11
617.22	45125.53
617.37	45158.30
617.53	45691.94
617.68	45860.46
617.83	45560.87
617.99	45790.24
618.14	45488.31
618.29	45588.95
618.45	45263.62
618.60	45350.22
618.75	45371.28
618.90	45198.09
619.06	45497.67
619.21	45443.84
619.36	45272.98
619.51	45148.93
619.67	45027.23
619.82	45546.82
619.97	45132.55
620.12	44924.24
620.28	44601.25
620.43	44737.00
620.58	44945.31
620.73	44849.35
620.89	44999.14
621.04	44793.17
621.19	44739.34
621.34	44617.63
621.49	45027.23
621.65	44816.58
621.80	44650.40
621.95	44488.90
622.10	44566.14
622.25	44570.82
622.41	44392.94
622.56	44168.25
622.71	44467.84
622.86	44516.99
623.01	44404.64
623.16	44414.01
623.32	44634.02
623.47	44528.69
623.62	44669.12
623.77	44304.00
623.92	44521.67
624.07	44247.83
624.23	43515.24
624.38	44137.82
624.53	44140.16
624.68	43999.73
624.83	44233.78
624.98	44130.80
625.13	44044.20
625.29	43927.17
625.44	43606.52
625.59	43543.33
625.74	43679.08
625.89	43199.27
626.04	43466.09
626.19	44205.70
626.34	43990.37
626.49	44093.35
626.65	43765.68
626.80	44245.49
626.95	43838.23
627.10	43576.09
627.25	43824.19
627.40	43615.88
627.55	43395.87
627.70	43110.33
627.85	43023.73
628.00	43086.92
628.15	43138.41
628.30	43124.37
628.45	43643.97
628.60	43498.86
628.76	43966.96
628.91	43646.31
629.06	43182.88
629.21	42745.20
629.36	42679.67
629.51	43152.46
629.66	42766.27
629.81	42902.02
629.96	42707.76
630.11	43103.31
630.26	43473.11
630.41	43627.59
630.56	42871.59
630.71	42953.51
630.86	42684.35
631.01	42878.61
631.16	42557.96
631.31	42862.23
631.46	42550.94
631.61	42696.05
631.76	42895.00
631.91	42780.31
632.06	43098.62
632.21	43072.88
632.36	42724.14
632.51	42546.26
632.66	42674.99
632.81	42375.40
632.96	42333.27
633.10	42412.85
633.25	42689.03
633.40	42553.28
633.55	42618.81
633.70	42384.76
633.85	42349.65
634.00	42349.65
634.15	42232.63
634.30	42351.99
634.45	42560.30
634.60	42263.05
634.75	42522.85
634.90	41743.45
635.05	42408.17
635.19	42089.85
635.34	42398.80
635.49	41762.18
635.64	42169.43
635.79	41900.27
635.94	42316.89
636.09	41682.60
636.24	41944.74
636.39	41521.10
636.53	41926.02
636.68	41918.99
636.83	41687.28
636.98	41897.93
637.13	41855.80
637.28	41441.53
637.43	42068.79
637.57	42031.34
637.72	41890.91
637.87	41694.30
638.02	42017.30
638.17	41839.42
638.32	41638.13
638.46	41186.41
638.61	41514.08
638.76	41804.31
638.91	41698.98
639.06	41689.62
639.20	41163.00
639.35	41645.15
639.50	41305.77
639.65	41694.30
639.80	42073.47
639.94	41317.48
640.09	41429.82
640.24	41069.38
640.39	40755.75
640.54	41223.86
640.68	41336.20
640.83	40987.46
640.98	40992.14
641.13	40627.02
641.27	41200.45
641.42	40786.18
641.57	41001.50
641.72	41064.70
641.86	40858.73
642.01	40690.21
642.16	40893.84
642.31	40425.73
642.45	40996.82
642.60	40699.58
642.75	41024.91
642.90	40687.87
643.04	40641.06
643.19	40512.33
643.34	40587.23
643.48	40402.33
643.63	40622.34
643.78	40191.68
643.93	40425.73
644.07	39983.37
644.22	40374.24
644.37	40509.99
644.51	40329.77
644.66	40465.52
644.81	40554.46
644.95	40711.28
645.10	40767.45
645.25	40519.35
645.39	40603.61
645.54	40428.07
645.69	40535.74
645.83	40088.70
645.98	40339.13
646.13	39922.52
646.27	40259.55
646.42	40320.41
646.57	39599.52
646.71	39981.03
646.86	39997.41
647.00	40137.85
647.15	39887.41
647.30	39770.38
647.44	39765.70
647.59	39618.25
647.74	39896.77
647.88	39824.22
648.03	39828.90
648.17	39765.70
648.32	39840.60
648.47	39695.49
648.61	39545.69
648.76	39892.09
648.90	39800.81
649.05	39700.17
649.20	39505.90
649.34	39501.22
649.49	39295.25
649.63	39182.91
649.78	39173.55
649.92	39435.69
650.07	39735.27
650.21	38962.90
650.36	39175.89
650.51	39063.54
650.65	39632.29
650.80	39817.19
650.94	39821.87
651.09	39667.40
651.23	38979.28
651.38	39089.29
651.52	38864.60
651.67	39599.52
651.81	38944.17
651.96	39012.05
652.10	38684.37
652.25	39033.11
652.39	39257.81
652.54	39189.93
652.68	39318.66
652.83	39164.18
652.97	38979.28
653.12	39168.87
653.26	38429.26
653.41	38871.62
653.55	38595.43
653.70	38663.31
653.84	38890.34
653.99	38824.81
654.13	38763.95
654.27	38513.52
654.42	38452.66
654.56	38515.86
654.71	38373.08
654.85	38859.91
655.00	38447.98
655.14	38272.44
655.29	38419.89
655.43	38644.59
655.57	37890.93
655.72	37844.12
655.86	37633.47
656.01	37867.53
656.15	37504.74
656.30	37556.24
656.44	37462.61
656.58	37708.37
656.73	38211.59
656.87	37851.14
657.01	37919.02
657.16	38092.22
657.30	37961.15
657.45	37399.42
657.59	37574.96
657.73	37708.37
657.88	38199.88
658.02	37846.46
658.16	37961.15
658.31	38167.12
658.45	38087.54
658.60	37729.44
658.74	37785.61
658.88	37354.95
659.03	37677.94
659.17	37841.78
659.31	37233.24
659.46	37549.21
659.60	37593.68
659.74	37553.90
659.89	36964.08
660.03	37078.77
660.17	37422.83
660.32	37713.05
660.46	37193.45
660.60	37427.51
660.74	37195.79
660.89	37181.75
661.03	36641.09
661.17	36390.65
661.32	36648.11
661.46	36767.48
661.60	36835.35
661.74	36573.21
661.89	37081.11
662.03	37038.98
662.17	36390.65
662.31	36559.17
662.46	36882.16
662.60	36495.97
662.74	36708.96
662.88	35842.96
663.03	36510.02
663.17	35840.62
663.31	36161.28
663.45	36030.21
663.60	36151.91
663.74	36191.70
663.88	35819.56
664.02	35922.54
664.17	36123.83
664.31	35765.73
664.45	35997.44
664.59	35934.24
664.73	35686.15
664.88	35901.48
665.02	35590.19
665.16	36158.94
665.30	35543.38
665.44	35358.47
665.59	35381.88
665.73	35140.80
665.87	35438.05
666.01	35271.87
666.15	35370.18
666.29	35309.32
666.44	35264.85
666.58	34843.56
666.72	34941.86
666.86	35093.99
667.00	35065.91
667.14	34808.45
667.28	34354.38
667.43	34220.97
667.57	34338.00
667.71	34637.59
667.85	34890.37
667.99	34611.84
668.13	34712.49
668.27	34864.62
668.41	34609.50
668.56	34642.27
668.70	34637.59
668.84	34562.69
668.98	34206.93
669.12	34270.12
669.26	33977.56
669.40	33525.83
669.54	33748.18
669.68	33914.36
669.82	33619.46
669.96	33954.15
670.10	33563.28
670.25	33687.33
670.39	33710.74
670.53	33455.62
670.67	33483.70
670.81	33453.28
670.95	33663.93
671.09	33675.63
671.23	33151.35
671.37	33149.01
671.51	33282.42
671.65	33048.36
671.79	32685.58
671.93	33041.34
672.07	33212.20
672.21	32868.14
672.35	32739.41
672.49	32835.38
672.63	33055.39
672.77	32451.53
672.91	32774.52
673.05	32793.25
673.19	32315.78
673.33	32278.33
673.47	32381.31
673.61	31840.65
673.75	32123.85
673.89	31758.73
674.03	31512.97
674.17	31873.42
674.31	31637.02
674.45	31573.83
674.59	31892.14
674.73	32025.55
674.87	31732.98
675.01	31393.61
675.15	31505.95
675.29	31321.05
675.43	31152.53
675.56	31281.26
675.70	31222.75
675.84	30981.67
675.98	29731.83
676.12	30752.30
676.26	30866.98
676.40	30799.11
676.54	30745.28
676.68	30635.27
676.82	30483.14
676.96	30742.94
677.10	30307.60
677.23	30492.50
677.37	30010.35
677.51	29713.10
677.65	30024.39
677.79	29575.01
677.93	29771.61
678.07	29408.83
678.21	29338.62
678.34	29535.22
678.48	28858.81
678.62	28856.46
678.76	28591.98
678.90	28582.62
679.04	29003.92
679.18	28961.79
679.31	28767.52
679.45	28364.95
679.59	28173.03
679.73	28563.90
679.87	28627.09
680.00	28034.94
680.14	28006.85
680.28	28451.55
680.42	28058.34
680.56	28121.54
680.70	27985.79
680.83	28187.07
680.97	28121.54
681.11	28013.87
681.25	27611.30
681.39	27358.52
681.52	27505.98
681.66	27461.51
681.80	27527.04
681.94	27283.62
682.07	27365.54
682.21	27044.89
682.35	26916.16
682.49	27201.71
682.62	27012.12
682.76	26806.16
682.90	26412.95
683.04	26665.72
683.17	26122.72
683.31	26040.80
683.45	26305.28
683.59	25991.65
683.72	26153.15
683.86	25706.10
684.00	25626.53
684.13	25991.65
684.27	25689.72
684.41	25568.01
684.55	25455.67
684.68	25188.85
684.82	25617.16
684.96	25282.47
685.09	25254.38
685.23	25270.76
685.37	25125.65
685.50	25209.91
685.64	25020.33
685.78	24816.70
685.91	24594.35
686.05	24676.27
686.19	24381.36
686.32	24390.72
686.46	23901.55
686.60	23910.91
686.73	23772.82
686.87	23557.49
687.01	23262.58
687.14	23236.84
687.28	23517.70
687.42	23285.99
687.55	23627.71
687.69	23667.50
687.82	23414.72
687.96	23515.36
688.10	23180.67
688.23	22895.12
688.37	22862.35
688.50	23194.71
688.64	22876.40
688.78	22794.48
688.91	22506.59
689.05	22707.88
689.18	22757.03
689.32	22164.87
689.46	22429.35
689.59	22204.66
689.73	22429.35
689.86	22064.23
690.00	22038.48
690.13	22075.93
690.27	22087.64
690.41	21745.92
690.54	21626.55
690.68	21418.24
690.81	21654.64
690.95	21617.19
691.08	21418.24
691.22	21144.40
691.35	21326.96
691.49	21572.72
691.62	21387.82
691.76	21202.91
691.89	21130.36
692.03	20996.95
692.16	20812.04
692.30	20463.30
692.43	20519.48
692.57	20489.05
692.70	20402.45
692.84	20514.80
692.97	20201.16
693.11	20109.88
693.24	20137.97
693.38	20049.03
693.51	19606.67
693.65	20011.58
693.78	19810.29
693.92	19662.84
694.05	19744.76
694.19	19868.81
694.32	19255.59
694.45	19414.74
694.59	19023.87
694.72	19384.32
694.86	19456.87
694.99	18895.14
695.13	19161.97
695.26	18958.34
695.39	19087.07
695.53	18752.37
695.66	18822.59
695.80	18661.09
695.93	18911.53
696.07	18506.62
696.20	18405.97
696.33	18356.82
696.47	18490.23
696.60	18450.44
696.73	18111.07
696.87	17872.33
697.00	18113.41
697.14	17951.91
697.27	17930.84
697.40	17987.02
697.54	17797.43
697.67	17734.24
697.80	17750.62
697.94	17565.72
698.07	17216.98
698.21	16978.25
698.34	17146.76
698.47	16945.48
698.61	17039.10
698.74	17102.29
698.87	16891.65
699.01	16545.25
699.14	16453.97
699.27	16573.33
699.40	16610.78
699.54	16655.25
699.67	16477.37
699.80	16215.23
699.94	16280.77
700.07	16327.58
700.20	16294.81
700.34	15861.81
700.47	16156.72
700.60	16114.59
700.73	16343.96
700.87	16032.67
701.00	15896.92
701.13	15531.80
701.26	15695.63
701.40	15782.23
701.53	15091.77
701.66	15515.41
701.79	15379.66
701.93	15470.94
702.06	15454.56
702.19	15229.87
702.32	15302.42
702.46	15173.69
702.59	15061.35
702.72	14958.36
702.85	14904.53
702.99	15016.88
703.12	14846.02
703.25	14668.14
703.38	14651.75
703.51	14373.23
703.65	14635.37
703.78	14574.52
703.91	14366.21
704.04	14319.40
704.17	14403.66
704.31	14267.91
704.44	14092.37
704.57	14022.15
704.70	14097.05
704.83	13860.65
704.96	14017.47
705.10	14068.96
705.23	13935.55
>>>>>End Processed Spectral Data<<<<<
