SpectraSuite Data File
++++++++++++++++++++++++++++++++++++
Date: Fri Oct 25 11:33:46 EDT 2013
User: price-jones
Dark Spectrum Present: No
Reference Spectrum Present: No
Number of Sampled Component Spectra: 1
Spectrometers: USB2+H05261
Integration Time (usec): 100000 (USB2+H05261)
Spectra Averaged: 1 (USB2+H05261)
Boxcar Smoothing: 0 (USB2+H05261)
Correct for Electrical Dark: No (USB2+H05261)
Strobe/Lamp Enabled: No (USB2+H05261)
Correct for Detector Non-linearity: No (USB2+H05261)
Correct for Stray Light: No (USB2+H05261)
Number of Pixels in Processed Spectrum: 2048
>>>>>Begin Processed Spectral Data<<<<<
365.73	280.86
365.92	280.86
366.12	280.86
366.32	175.54
366.52	184.90
366.72	217.67
366.91	194.26
367.11	126.39
367.31	220.01
367.51	84.26
367.70	161.50
367.90	163.84
368.10	215.33
368.30	168.52
368.49	231.71
368.69	224.69
368.89	177.88
369.09	126.39
369.28	224.69
369.48	187.24
369.68	198.95
369.87	287.89
370.07	245.76
370.27	257.46
370.47	278.52
370.66	458.74
370.86	561.73
371.06	535.98
371.25	566.41
371.45	622.58
371.65	557.05
371.84	505.56
372.04	592.16
372.24	571.09
372.44	610.88
372.63	638.97
372.83	629.60
373.03	669.39
373.22	615.56
373.42	585.13
373.62	587.47
373.81	629.60
374.01	657.69
374.21	704.50
374.40	643.65
374.60	711.52
374.79	617.90
374.99	571.09
375.19	643.65
375.38	667.05
375.58	653.01
375.78	711.52
375.97	727.91
376.17	753.65
376.37	695.14
376.56	685.78
376.76	629.60
376.95	667.05
377.15	695.14
377.35	692.80
377.54	641.31
377.74	662.37
377.93	706.84
378.13	681.10
378.33	657.69
378.52	676.41
378.72	704.50
378.91	725.57
379.11	664.71
379.31	767.70
379.50	709.18
379.70	741.95
379.89	877.70
380.09	741.95
380.28	781.74
380.48	723.23
380.68	802.80
380.87	711.52
381.07	739.61
381.26	741.95
381.46	798.12
381.65	791.10
381.85	767.70
382.04	800.46
382.24	709.18
382.43	746.63
382.63	807.48
382.83	786.42
383.02	807.48
383.22	828.55
383.41	823.87
383.61	849.61
383.80	786.42
384.00	898.77
384.19	800.46
384.39	779.40
384.58	791.10
384.78	800.46
384.97	819.19
385.17	791.10
385.36	837.91
385.56	809.83
385.75	858.98
385.95	858.98
386.14	847.27
386.34	858.98
386.53	917.49
386.72	875.36
386.92	884.72
387.11	901.11
387.31	851.96
387.50	873.02
387.70	901.11
387.89	947.92
388.09	966.64
388.28	898.77
388.48	884.72
388.67	901.11
388.86	880.04
389.06	889.40
389.25	1001.75
389.45	933.87
389.64	994.73
389.84	901.11
390.03	919.83
390.22	945.58
390.42	999.41
390.61	999.41
390.81	952.60
391.00	971.32
391.19	1004.09
391.39	1013.45
391.58	1032.18
391.78	1006.43
391.97	1057.92
392.16	973.66
392.36	1074.31
392.55	1107.07
392.75	1111.75
392.94	959.62
393.13	1041.54
393.33	966.64
393.52	1050.90
393.71	1104.73
393.91	1128.14
394.10	1069.62
394.29	1135.16
394.49	987.71
394.68	1060.26
394.88	1172.61
395.07	1158.57
395.26	1123.46
395.46	1167.93
395.65	1226.44
395.84	1200.69
396.04	1198.35
396.23	1177.29
396.42	1165.59
396.62	1203.04
396.81	1158.57
397.00	1289.64
397.19	1259.21
397.39	1196.01
397.58	1238.14
397.77	1165.59
397.97	1249.85
398.16	1289.64
398.35	1287.29
398.55	1362.19
398.74	1322.40
398.93	1282.61
399.12	1256.87
399.32	1291.98
399.51	1355.17
399.70	1308.36
399.90	1355.17
400.09	1329.42
400.28	1380.92
400.47	1352.83
400.67	1385.60
400.86	1364.53
401.05	1441.77
401.24	1404.32
401.44	1401.98
401.63	1432.41
401.82	1526.03
402.01	1469.86
402.21	1554.12
402.40	1444.11
402.59	1458.15
402.78	1577.52
402.97	1448.79
403.17	1682.85
403.36	1556.46
403.55	1638.38
403.74	1586.88
403.93	1568.16
404.13	1636.03
404.32	1668.80
404.51	1542.41
404.70	1638.38
404.89	1659.44
405.09	1739.02
405.28	1624.33
405.47	1577.52
405.66	1603.27
405.85	1720.29
406.05	1666.46
406.24	1851.36
406.43	1802.21
406.62	1795.19
406.81	1790.51
407.00	1851.36
407.20	1760.08
407.39	1788.17
407.58	1806.89
407.77	1877.11
407.96	1919.24
408.15	1942.64
408.34	1858.39
408.54	1902.86
408.73	1888.81
408.92	1935.62
409.11	1980.09
409.30	2024.56
409.49	2015.20
409.68	2005.84
409.87	1994.14
410.07	2118.18
410.26	2118.18
410.45	1937.96
410.64	2160.31
410.83	2204.78
411.02	2078.40
411.21	2155.63
411.40	2237.55
411.59	2256.28
411.78	2169.68
411.98	2179.04
412.17	2310.11
412.36	2221.17
412.55	2340.54
412.74	2385.01
412.93	2305.43
413.12	2275.00
413.31	2406.07
413.50	2401.39
413.69	2347.56
413.88	2485.65
414.07	2462.24
414.26	2518.42
414.45	2457.56
414.64	2485.65
414.83	2534.80
415.02	2649.49
415.22	2759.49
415.41	2710.34
415.60	2672.89
415.79	2885.88
415.98	2700.98
416.17	2825.03
416.36	2775.88
416.55	2715.02
416.74	2700.98
416.93	2698.64
417.12	2848.43
417.31	2799.28
417.50	2717.36
417.69	2958.44
417.88	2937.37
418.07	3005.25
418.26	2818.00
418.45	2928.01
418.64	3129.30
418.83	3117.59
419.02	3101.21
419.21	3080.14
419.39	3122.27
419.58	3178.45
419.77	3155.04
419.96	3122.27
420.15	3227.60
420.34	3178.45
420.53	3190.15
420.72	3248.66
420.91	3283.77
421.10	3300.16
421.29	3335.26
421.48	3269.73
421.67	3318.88
421.86	3321.22
422.05	3426.54
422.24	3302.50
422.43	3307.18
422.61	3281.43
422.80	3410.16
422.99	3304.84
423.18	3456.97
423.37	3447.61
423.56	3337.60
423.75	3302.50
423.94	3382.07
424.13	3150.36
424.32	3272.07
424.50	3377.39
424.69	3618.47
424.88	3449.95
425.07	3375.05
425.26	3304.84
425.45	3400.80
425.64	3344.63
425.83	3468.67
426.01	3611.45
426.20	3459.31
426.39	3562.30
426.58	3485.06
426.77	3588.04
426.96	3550.59
427.15	3463.99
427.33	3574.00
427.52	3494.42
427.71	3522.51
427.90	3716.77
428.09	3709.75
428.28	3625.49
428.46	3684.00
428.65	3702.73
428.84	3721.45
429.03	3854.86
429.22	3665.28
429.40	3653.58
429.59	3779.97
429.78	3634.85
429.97	3618.47
430.16	3667.62
430.34	3761.24
430.53	3887.63
430.72	3925.08
430.91	3878.27
431.10	3786.99
431.28	3974.23
431.47	4049.13
431.66	4086.58
431.85	3969.55
432.03	3899.33
432.22	4046.79
432.41	4196.58
432.60	4100.62
432.79	4095.94
432.97	4039.76
433.16	4205.94
433.35	4248.07
433.54	4117.00
433.72	4124.02
433.91	4205.94
434.10	4187.22
434.28	4095.94
434.47	4306.59
434.66	4278.50
434.85	4353.40
435.03	4290.20
435.22	4374.46
435.41	4320.63
435.59	4304.25
435.78	4269.14
435.97	4386.16
436.16	4332.33
436.34	4393.19
436.53	4552.34
436.72	4486.81
436.90	4416.59
437.09	4428.29
437.28	4376.80
437.46	4500.85
437.65	4751.29
437.84	4564.04
438.02	4603.83
438.21	4695.11
438.40	4482.13
438.58	4685.75
438.77	4711.50
438.96	4617.88
439.14	4833.21
439.33	5060.24
439.52	4840.23
439.70	5116.41
439.89	5034.49
440.08	5163.22
440.26	5001.72
440.45	5104.71
440.63	5067.26
440.82	5284.93
441.01	5146.84
441.19	5027.47
441.38	5149.18
441.57	5322.38
441.75	5280.25
441.94	5357.49
442.12	5369.19
442.31	5399.62
442.50	5451.11
442.68	5411.32
442.87	5469.83
443.05	5579.84
443.24	5572.82
443.43	5617.29
443.61	5495.58
443.80	5741.33
443.98	5511.96
444.17	5378.55
444.35	5540.05
444.54	5500.26
444.73	5647.71
444.91	5666.44
445.10	5753.04
445.28	5746.02
445.47	5612.60
445.65	5476.85
445.84	5764.74
446.02	5820.91
446.21	5593.88
446.39	5809.21
446.58	5825.59
446.77	5823.25
446.95	5636.01
447.14	5685.16
447.32	5746.02
447.51	5741.33
447.69	5582.18
447.88	5813.89
448.06	5727.29
448.25	5872.40
448.43	5895.81
448.62	5898.15
448.80	5799.85
448.99	5947.30
449.17	5902.83
449.36	5706.23
449.54	6078.37
449.73	5984.75
449.91	5914.53
450.10	6059.65
450.28	6258.59
450.46	6111.14
450.65	6038.58
450.83	6181.35
451.02	6111.14
451.20	6092.41
451.39	6129.86
451.57	6076.03
451.76	5996.45
451.94	6256.25
452.13	6319.45
452.31	6256.25
452.49	6071.35
452.68	6300.72
452.86	6279.66
453.05	6422.43
453.23	6377.96
453.42	6434.13
453.60	6434.13
453.78	6527.75
453.97	6307.74
454.15	6221.14
454.34	6478.60
454.52	6450.52
454.70	6604.99
454.89	6581.59
455.07	6581.59
455.26	6752.45
455.44	6801.60
455.62	6846.07
455.81	6677.55
455.99	6794.58
456.17	6771.17
456.36	6965.43
456.54	6799.26
456.73	6850.75
456.91	6899.90
457.09	6991.18
457.28	7112.89
457.46	7087.14
457.64	7098.84
457.83	7159.70
458.01	7068.42
458.19	7269.70
458.38	7183.10
458.56	7176.08
458.74	7178.42
458.93	7162.04
459.11	7220.55
459.29	7082.46
459.48	7358.64
459.66	7346.94
459.84	7304.81
460.03	7449.93
460.21	7342.26
460.39	7396.09
460.57	7358.64
460.76	7513.12
460.94	7447.58
461.12	7461.63
461.31	7527.16
461.49	7478.01
461.67	7510.78
461.85	7742.49
462.04	7396.09
462.22	8051.44
462.40	7620.78
462.59	7709.72
462.77	7660.57
462.95	7866.54
463.13	7796.32
463.32	7597.38
463.50	7861.86
463.68	7803.35
463.86	8037.40
464.05	7775.26
464.23	7719.09
464.41	8091.23
464.59	7590.36
464.78	8159.11
464.96	7990.59
465.14	7932.08
465.32	7906.33
465.50	8152.09
465.69	8112.30
465.87	8100.59
466.05	8107.62
466.23	8121.66
466.41	8226.98
466.60	8358.05
466.78	8205.92
466.96	7992.93
467.14	8140.38
467.32	8397.84
467.51	8547.64
467.69	8273.79
467.87	8236.35
468.05	8655.30
468.23	8306.56
468.41	8353.37
468.60	8266.77
468.78	8472.74
468.96	8346.35
469.14	8535.93
469.32	8547.64
469.50	8367.42
469.69	8774.67
469.87	8816.80
470.05	8599.13
470.23	8844.88
470.41	8823.82
470.59	8781.69
470.77	8823.82
470.95	8940.85
471.14	9092.98
471.32	8877.65
471.50	9114.05
471.68	9097.66
471.86	9158.52
472.04	9179.58
472.22	9404.27
472.40	9146.81
472.58	9291.93
472.77	9275.54
472.95	9451.08
473.13	9722.59
473.31	9488.53
473.49	9310.65
473.67	9310.65
473.85	9664.07
474.03	9748.33
474.21	9708.54
474.39	9975.36
474.57	9769.40
474.75	9867.70
474.93	10090.05
475.12	10073.67
475.30	9942.60
475.48	10052.60
475.66	10108.77
475.84	9968.34
476.02	10216.44
476.20	10076.01
476.38	10310.06
476.56	10551.14
476.74	10352.19
476.92	10504.32
477.10	10387.30
477.28	10796.89
477.46	10794.55
477.64	10972.43
477.82	11084.78
478.00	11180.74
478.18	10942.00
478.36	11152.65
478.54	11606.72
478.72	11316.49
478.90	11297.77
479.08	11702.68
479.26	11735.45
479.44	11672.25
479.62	11751.83
479.80	11796.30
479.98	12332.28
480.16	12229.30
480.34	12196.53
480.52	12257.39
480.70	12381.43
480.88	12168.45
481.06	12585.06
481.24	12613.15
481.41	12521.87
481.59	12744.22
481.77	12872.95
481.95	12966.57
482.13	13174.88
482.31	12917.42
482.49	13310.63
482.67	13315.31
482.85	13383.18
483.03	13621.92
483.21	13797.46
483.39	13848.95
483.57	13813.84
483.74	14281.95
483.92	13954.27
484.10	13963.64
484.28	14473.87
484.46	14623.67
484.64	14693.88
484.82	14384.93
485.00	14607.28
485.18	15096.46
485.35	15140.93
485.53	14995.81
485.71	15087.09
485.89	15562.22
486.07	15276.68
486.25	15695.63
486.43	15318.81
486.61	15695.63
486.78	15988.20
486.96	15885.22
487.14	16301.83
487.32	16198.85
487.50	16365.03
487.68	16566.31
487.85	16369.71
488.03	16856.54
488.21	17165.49
488.39	17149.11
488.57	17188.89
488.75	17266.13
488.92	17591.47
489.10	17343.37
489.28	17626.57
489.46	17844.24
489.64	17731.90
489.81	18155.54
489.99	18134.47
490.17	18204.69
490.35	18024.47
490.53	18405.97
490.70	18780.46
490.88	18366.18
491.06	18941.96
491.24	19051.96
491.41	18930.25
491.59	19307.08
491.77	19239.20
491.95	19590.28
492.13	19616.03
492.30	19543.47
492.48	19290.70
492.66	19936.68
492.84	19943.70
493.01	19887.53
493.19	20140.31
493.37	20547.56
493.54	20606.08
493.72	20718.42
493.90	20587.35
494.08	20933.75
494.25	20896.30
494.43	21060.14
494.61	21249.72
494.79	21589.10
494.96	21350.37
495.14	21558.67
495.32	21535.27
495.49	21680.38
495.67	21710.81
495.85	22150.83
496.02	22485.53
496.20	22347.44
496.38	22576.81
496.55	22384.88
496.73	22696.17
496.91	22710.22
497.09	23215.77
497.26	23232.16
497.44	22888.10
497.62	23461.53
497.79	23447.49
497.97	23489.62
498.14	23695.58
498.32	23711.97
498.50	23939.00
498.67	23784.52
498.85	23922.62
499.03	23981.13
499.20	24327.53
499.38	24292.42
499.56	24313.48
499.73	24322.85
499.91	24702.01
500.08	25003.94
500.26	24746.48
500.44	24776.91
500.61	24805.00
500.79	24793.29
500.97	25076.50
501.14	25226.29
501.32	25467.37
501.49	25156.08
501.67	25235.66
501.84	25818.45
502.02	25642.91
502.20	25425.24
502.37	25844.20
502.55	25617.16
502.72	25553.97
502.90	26134.42
503.07	25888.67
503.25	25972.92
503.43	26008.03
503.60	26544.02
503.78	26735.94
503.95	26560.40
504.13	26717.22
504.30	26780.41
504.48	26672.74
504.65	26799.13
504.83	26885.73
505.01	27058.93
505.18	27168.94
505.36	27330.44
505.53	27061.27
505.71	27623.00
505.88	27459.16
506.06	27344.48
506.23	27367.88
506.41	27520.02
506.58	27915.57
506.76	27817.27
506.93	28198.77
507.11	28032.60
507.28	27835.99
507.46	28280.69
507.63	28400.06
507.81	28704.33
507.98	28797.95
508.16	28599.01
508.33	29106.90
508.50	28830.72
508.68	28699.65
508.85	28720.71
509.03	28701.99
509.20	29090.52
509.38	28996.90
509.55	29165.42
509.73	29331.59
509.90	29305.85
510.08	29483.73
510.25	29067.11
510.42	29549.26
510.60	29731.83
510.77	29867.58
510.95	29914.39
511.12	29701.40
511.30	29699.06
511.47	30185.89
511.64	30209.29
511.82	30441.01
511.99	30050.14
512.17	30497.18
512.34	30892.73
512.51	30773.36
512.69	30909.11
512.86	31119.76
513.04	30995.71
513.21	31047.21
513.38	30899.75
513.56	31133.81
513.73	31061.25
513.90	31271.90
514.08	31290.62
514.25	31477.86
514.43	31683.83
514.60	31491.91
514.77	31716.60
514.95	32158.96
515.12	31662.77
515.29	31557.44
515.47	31948.31
515.64	32173.00
515.81	31901.50
515.99	32247.90
516.16	32559.19
516.33	32395.35
516.51	32706.65
516.68	32371.95
516.85	32573.24
517.03	32552.17
517.20	32622.39
517.37	32596.64
517.54	32994.53
517.72	32842.40
517.89	33223.90
518.06	33144.33
518.24	32877.51
518.41	32844.74
518.58	33703.71
518.75	32835.38
518.93	33406.47
519.10	33408.81
519.27	33607.75
519.45	33226.24
519.62	33390.08
519.79	34190.55
519.96	33724.78
520.14	33762.23
520.31	33675.63
520.48	34003.30
520.65	34134.37
520.83	34504.18
521.00	34110.97
521.17	34328.64
521.34	34040.75
521.52	34822.49
521.69	34445.66
521.86	34649.29
522.03	34555.67
522.20	34974.63
522.38	35473.16
522.55	35023.78
522.72	35000.37
522.89	34501.84
523.07	35885.09
523.24	35604.23
523.41	35864.03
523.58	35281.24
523.75	35543.38
523.92	35632.32
524.10	35587.85
524.27	35763.39
524.44	35772.75
524.61	36013.82
524.78	35168.89
524.96	36121.49
525.13	36011.48
525.30	36598.96
525.47	36341.50
525.64	36371.92
525.81	36264.26
525.98	36072.34
526.16	36046.59
526.33	36123.83
526.50	36802.58
526.67	36147.23
526.84	36350.86
527.01	36608.32
527.18	36730.03
527.36	36655.13
527.53	37177.07
527.70	37233.24
527.87	37298.78
528.04	37064.72
528.21	37228.56
528.38	37212.18
528.55	37191.11
528.72	37308.14
528.89	37486.02
529.07	37015.57
529.24	37043.66
529.41	37734.12
529.58	37586.66
529.75	37820.72
529.92	37986.89
530.09	37556.24
530.26	37275.37
530.43	37720.07
530.60	37596.03
530.77	37486.02
530.94	37659.22
531.11	37832.42
531.28	37778.59
531.46	38202.22
531.63	38525.22
531.80	38075.84
531.97	38415.21
532.14	37958.81
532.31	38487.77
532.48	38314.57
532.65	38801.40
532.82	38319.25
532.99	38565.01
533.16	38403.51
533.33	38813.10
533.50	38579.05
533.67	38864.60
533.84	38513.52
534.01	38836.51
534.18	38951.20
534.35	39009.71
534.52	39105.67
534.69	39784.43
534.86	39613.57
535.03	38974.60
535.20	39468.45
535.37	39477.82
535.54	39594.84
535.71	39590.16
535.88	39618.25
536.05	39491.86
536.22	40009.12
536.38	39634.63
536.55	39512.92
536.72	39838.26
536.89	39653.36
537.06	40217.43
537.23	40175.30
537.40	39803.15
537.57	39894.43
537.74	39920.18
537.91	40526.38
538.08	39992.73
538.25	40170.61
538.42	40126.14
538.59	40601.27
538.75	40554.46
538.92	40879.80
539.09	40526.38
539.26	40545.10
539.43	40301.68
539.60	40559.14
539.77	40580.21
539.94	40596.59
540.11	40832.99
540.28	40692.55
540.44	40751.07
540.61	40722.98
540.78	40924.27
540.95	40692.55
541.12	40905.54
541.29	41127.89
541.46	40973.42
541.62	41067.04
541.79	41591.32
541.96	41130.23
542.13	41111.51
542.30	40884.48
542.47	41366.63
542.63	41439.18
542.80	41720.05
542.97	41546.85
543.14	41823.03
543.31	41635.79
543.48	41518.76
543.64	42532.22
543.81	42227.95
543.98	41940.06
544.15	42220.92
544.32	42082.83
544.48	41982.19
544.65	41963.46
544.82	42635.20
544.99	41797.29
545.16	42321.57
545.32	42157.73
545.49	42759.25
545.66	42513.49
545.83	42749.88
546.00	42555.62
546.16	42792.01
546.33	42330.93
546.50	42270.08
546.67	43157.14
546.83	42377.74
547.00	42394.12
547.17	42892.66
547.34	42686.69
547.50	42632.86
547.67	43091.60
547.84	42866.91
548.00	43241.40
548.17	43239.06
548.34	43297.57
548.51	43346.72
548.67	43756.32
548.84	43428.64
549.01	43007.34
549.18	43466.09
549.34	43356.08
549.51	44030.16
549.68	43496.52
549.84	43185.22
550.01	43091.60
550.18	43400.55
550.34	43578.43
550.51	43796.10
550.68	43426.30
550.84	43562.05
551.01	43658.01
551.18	43461.41
551.34	43456.73
551.51	43786.74
551.68	43901.43
551.84	43971.64
552.01	44172.93
552.18	44198.68
552.34	43683.76
552.51	44367.20
552.68	43859.30
552.84	44175.27
553.01	44170.59
553.18	44219.74
553.34	44112.08
553.51	43908.45
553.67	44472.52
553.84	44418.69
554.01	44690.19
554.17	44390.60
554.34	44498.26
554.51	44584.86
554.67	45170.00
554.84	44966.37
555.00	44734.66
555.17	44942.97
555.33	44814.24
555.50	44957.01
555.67	44362.51
555.83	44615.29
556.00	44926.58
556.16	45441.50
556.33	44931.26
556.50	44837.64
556.66	45181.70
556.83	44619.97
556.99	45507.04
557.16	45003.82
557.32	45373.63
557.49	45338.52
557.65	44729.98
557.82	44734.66
557.98	45212.13
558.15	45352.56
558.32	45200.43
558.48	45406.39
558.65	44767.43
558.81	45205.11
558.98	45095.10
559.14	45043.61
559.31	45001.48
559.47	45308.09
559.64	45713.00
559.80	45607.68
559.97	45256.60
560.13	45230.85
560.30	45469.59
560.46	44952.33
560.63	45745.77
560.79	45640.45
560.96	45684.92
561.12	45993.87
561.29	45684.92
561.45	45914.29
561.61	45837.05
561.78	45352.56
561.94	45689.60
562.11	45979.82
562.27	45675.55
562.44	46012.59
562.60	45811.31
562.77	45720.02
562.93	45888.54
563.10	46141.32
563.26	45794.92
563.42	46541.55
563.59	45581.93
563.75	45834.71
563.92	45584.27
564.08	45720.02
564.24	46337.93
564.41	45532.78
564.57	46092.17
564.74	46136.64
564.90	45968.12
565.07	46082.81
565.23	46071.10
565.39	46068.76
565.56	46101.53
565.72	45947.06
565.88	46319.20
566.05	45790.24
566.21	46178.77
566.38	46340.27
566.54	46176.43
566.70	46155.36
566.87	46078.13
567.03	46075.79
567.19	46204.52
567.36	46560.28
567.52	46279.41
567.68	46569.64
567.85	46670.28
568.01	47089.24
568.17	46391.76
568.34	46653.90
568.50	46267.71
568.66	46129.62
568.83	46560.28
568.99	46487.72
569.15	46478.36
569.32	46576.66
569.48	46366.01
569.64	46705.39
569.81	46628.15
569.97	46508.79
570.13	46770.93
570.30	46656.24
570.46	46518.15
570.62	46555.60
570.78	46550.91
570.95	46253.67
571.11	46693.69
571.27	46763.90
571.43	46333.24
571.60	46799.01
571.76	46424.53
571.92	46522.83
572.09	46824.76
572.25	46649.22
572.41	46642.20
572.57	46913.70
572.74	47086.90
572.90	47019.02
573.06	46543.89
573.22	47239.03
573.38	46976.89
573.55	46735.82
573.71	47152.43
573.87	46923.06
574.03	46878.59
574.20	46829.44
574.36	47014.34
574.52	46689.01
574.68	46834.12
574.84	46869.23
575.01	47110.30
575.17	47100.94
575.33	46871.57
575.49	46841.14
575.65	47260.10
575.82	47100.94
575.98	46913.70
576.14	47129.03
576.30	47009.66
576.46	47138.39
576.62	47077.54
576.79	47262.44
576.95	46560.28
577.11	46815.40
577.27	46808.37
577.43	47194.56
577.59	46920.72
577.75	47267.12
577.92	46791.99
578.08	46909.02
578.24	46710.07
578.40	47131.37
578.56	46726.46
578.72	46930.08
578.88	47351.38
579.04	47299.89
579.21	46983.91
579.37	47227.33
579.53	47391.17
579.69	47239.03
579.85	47103.28
580.01	47557.35
580.17	46616.45
580.33	47269.46
580.49	46981.57
580.65	47234.35
580.82	47093.92
580.98	47157.11
581.14	46869.23
581.30	47346.70
581.46	47339.68
581.62	47323.29
581.78	47409.89
581.94	47100.94
582.10	47445.00
582.26	47152.43
582.42	47028.38
582.58	47096.26
582.74	46986.25
582.90	47175.84
583.06	47360.74
583.22	47173.50
583.38	47349.04
583.54	47580.75
583.70	47456.70
583.86	47653.31
584.02	47618.20
584.18	47746.93
584.34	47543.30
584.50	47175.84
584.66	47838.21
584.82	47512.88
584.98	47730.54
585.14	47810.12
585.30	47227.33
585.46	47227.33
585.62	47515.22
585.78	47452.02
585.94	47239.03
586.10	47421.59
586.26	47189.88
586.42	48030.13
586.58	47779.70
586.74	47257.76
586.90	47143.07
587.06	46976.89
587.22	47662.67
587.38	47260.10
587.54	47746.93
587.70	48116.73
587.86	47655.65
588.02	47412.23
588.18	47147.75
588.34	47241.37
588.49	47428.62
588.65	47531.60
588.81	47775.02
588.97	47505.85
589.13	47222.65
589.29	47475.43
589.45	47814.80
589.61	47730.54
589.77	47475.43
589.93	47765.65
590.08	47672.03
590.24	47566.71
590.40	48432.71
590.56	47821.83
590.72	47798.42
590.88	47320.95
591.04	47959.92
591.20	47746.93
591.35	47873.32
591.51	48460.79
591.67	47945.87
591.83	48034.81
591.99	47676.71
592.15	47585.43
592.31	47606.50
592.46	47636.92
592.62	47746.93
592.78	48133.12
592.94	47899.06
593.10	47962.26
593.26	48044.18
593.41	48149.50
593.57	47952.90
593.73	48341.42
593.89	48528.67
594.05	48208.01
594.20	48123.75
594.36	48081.63
594.52	48100.35
594.68	48357.81
594.84	48327.38
594.99	48528.67
595.15	48493.56
595.31	47997.37
595.47	48318.02
595.62	47906.08
595.78	48065.24
595.94	48133.12
596.10	48020.77
596.25	48371.85
596.41	48287.59
596.57	47885.02
596.73	48266.53
596.88	47945.87
597.04	48067.58
597.20	48299.30
597.36	48023.11
597.51	48009.07
597.67	48009.07
597.83	48231.42
597.99	48449.09
598.14	48285.25
598.30	48339.08
598.46	48245.46
598.61	48252.48
598.77	48212.70
598.93	48371.85
599.09	48458.45
599.24	48844.64
599.40	48259.51
599.56	48605.91
599.71	48367.17
599.87	48931.24
600.03	48711.23
600.18	48048.86
600.34	48149.50
600.50	48025.45
600.65	48158.86
600.81	48655.06
600.97	48626.97
601.12	48303.98
601.28	48521.65
601.44	48423.34
601.59	48449.09
601.75	48264.19
601.91	48629.31
602.06	48189.29
602.22	48437.39
602.37	48346.11
602.53	48168.22
602.69	48727.61
602.84	48067.58
603.00	48191.63
603.16	48296.95
603.31	48318.02
603.47	48411.64
603.62	48463.13
603.78	48507.60
603.94	48413.98
604.09	48004.39
604.25	48027.79
604.40	48416.32
604.56	48781.45
604.71	48718.25
604.87	48233.76
605.03	48456.11
605.18	48285.25
605.34	48713.57
605.49	48193.97
605.65	48500.58
605.80	47913.11
605.96	48271.21
606.12	48327.38
606.27	48629.31
606.43	48385.89
606.58	48219.72
606.74	48116.73
606.89	48224.40
607.05	48645.69
607.20	48507.60
607.36	48360.15
607.51	48507.60
607.67	48170.57
607.82	47957.58
607.98	48062.90
608.13	48219.72
608.29	48254.82
608.44	48039.50
608.60	48208.01
608.75	48334.40
608.91	48009.07
609.06	47863.96
609.22	48175.25
609.37	47700.12
609.53	47973.96
609.68	48016.09
609.84	47936.51
609.99	47969.28
610.15	48175.25
610.30	48399.94
610.46	47732.89
610.61	47962.26
610.76	48219.72
610.92	47988.00
611.07	47892.04
611.23	47966.94
611.38	47728.20
611.54	47782.04
611.69	48126.10
611.84	47910.77
612.00	47943.53
612.15	47767.99
612.31	47681.39
612.46	47372.44
612.62	47604.16
612.77	47901.40
612.92	47686.07
613.08	47466.06
613.23	47845.23
613.39	47538.62
613.54	47498.83
613.69	48041.84
613.85	47796.08
614.00	47704.80
614.15	47636.92
614.31	47697.78
614.46	47571.39
614.62	47473.09
614.77	47641.60
614.92	47524.58
615.08	47407.55
615.23	47622.88
615.38	47686.07
615.54	47475.43
615.69	47367.76
615.84	47215.63
616.00	47318.61
616.15	47337.33
616.30	47543.30
616.46	47173.50
616.61	47234.35
616.76	47426.28
616.92	47309.25
617.07	47463.72
617.22	47297.55
617.37	46703.05
617.53	47412.23
617.68	47599.47
617.83	46927.74
617.99	47267.12
618.14	47271.80
618.29	47615.86
618.45	46993.28
618.60	47124.35
618.75	46927.74
618.90	46784.97
619.06	47379.46
619.21	47189.88
619.36	47313.93
619.51	47063.49
619.67	46742.84
619.82	46885.61
619.97	47239.03
620.12	46916.04
620.28	46513.47
620.43	46920.72
620.58	47007.32
620.73	46742.84
620.89	47274.14
621.04	46801.35
621.19	47264.78
621.34	47185.20
621.49	46686.67
621.65	46717.09
621.80	47234.35
621.95	46932.42
622.10	46775.61
622.25	46679.64
622.41	46621.13
622.56	46623.47
622.71	46536.87
622.86	47033.07
623.01	46909.02
623.16	46574.32
623.32	46206.86
623.47	46787.31
623.62	46415.16
623.77	46937.10
623.92	46609.43
624.07	46527.51
624.23	46773.27
624.38	46752.20
624.53	46267.71
624.68	46410.48
624.83	46220.90
624.98	46344.95
625.13	46279.41
625.29	46181.11
625.44	46492.40
625.59	45923.65
625.74	46309.84
625.89	46157.70
626.04	45783.22
626.19	46408.14
626.34	46085.15
626.49	45823.01
626.65	45846.41
626.80	45766.84
626.95	45921.31
627.10	45741.09
627.25	45961.10
627.40	45741.09
627.55	45488.31
627.70	46003.23
627.85	45525.76
628.00	45698.96
628.15	46148.34
628.30	45642.79
628.45	45577.25
628.60	45385.33
628.76	45694.28
628.91	45565.55
629.06	45280.00
629.21	45574.91
629.36	45565.55
629.51	45593.64
629.66	45841.73
629.81	45518.74
629.96	45750.45
630.11	45280.00
630.26	45139.57
630.41	45471.93
630.56	45436.82
630.71	45801.94
630.86	45525.76
631.01	45064.67
631.16	45254.26
631.31	44729.98
631.46	45251.92
631.61	45361.92
631.76	45322.13
631.91	45450.86
632.06	45471.93
632.21	45413.41
632.36	45614.70
632.51	44832.96
632.66	45291.71
632.81	45186.38
632.96	45172.34
633.10	44519.33
633.25	45034.25
633.40	45155.96
633.55	45036.59
633.70	45010.84
633.85	44957.01
634.00	44399.96
634.15	45041.27
634.30	45123.19
634.45	44568.48
634.60	44851.69
634.75	45092.76
634.90	44727.64
635.05	45212.13
635.19	44259.53
635.34	44664.44
635.49	44722.96
635.64	44442.09
635.79	45013.18
635.94	44514.65
636.09	44751.04
636.24	44292.30
636.39	44664.44
636.53	44556.78
636.68	44486.56
636.83	44025.48
636.98	43938.88
637.13	43831.21
637.28	44196.34
637.43	44505.29
637.57	44556.78
637.72	43973.98
637.87	44390.60
638.02	44570.82
638.17	44533.37
638.32	44055.90
638.46	43650.99
638.61	43868.66
638.76	43892.07
638.91	44081.65
639.06	43992.71
639.20	43882.70
639.35	43480.13
639.50	43559.71
639.65	44093.35
639.80	44128.46
639.94	43973.98
640.09	44037.18
640.24	43863.98
640.39	43543.33
640.54	43875.68
640.68	43697.80
640.83	44168.25
640.98	43515.24
641.13	43606.52
641.27	44065.27
641.42	43672.06
641.57	43976.33
641.72	43786.74
641.86	43456.73
642.01	43281.19
642.16	43217.99
642.31	43222.67
642.45	43449.70
642.60	43203.95
642.75	43138.41
642.90	43686.10
643.04	43161.82
643.19	43072.88
643.34	43318.64
643.48	43461.41
643.63	43035.43
643.78	43606.52
643.93	43686.10
644.07	43482.47
644.22	43220.33
644.37	43381.83
644.51	43271.82
644.66	43189.91
644.81	43335.02
644.95	43658.01
645.10	42958.19
645.25	43037.77
645.39	42763.93
645.54	42911.38
645.69	42752.23
645.83	42920.74
645.98	42852.87
646.13	42857.55
646.27	42653.92
646.42	42770.95
646.57	42820.10
646.71	42946.49
646.86	43086.92
647.00	42782.65
647.15	43040.11
647.30	42761.59
647.44	42454.98
647.59	42211.56
647.74	42473.70
647.88	42520.51
648.03	43019.05
648.17	43138.41
648.32	42667.97
648.47	42960.53
648.61	42614.13
648.76	42293.48
648.90	42274.76
649.05	42536.90
649.20	42513.49
649.34	42483.06
649.49	42658.60
649.63	42784.99
649.78	42330.93
649.92	42389.44
650.07	42487.74
650.21	42803.72
650.36	42305.18
650.51	42396.46
650.65	42370.72
650.80	42396.46
650.94	42506.47
651.09	42005.59
651.23	41762.18
651.38	41698.98
651.52	41333.86
651.67	42052.41
651.81	42000.91
651.96	42019.64
652.10	41586.64
652.25	41698.98
652.39	41862.82
652.54	41993.89
652.68	41317.48
652.83	42129.64
652.97	42029.00
653.12	41881.55
653.26	41813.67
653.41	41584.30
653.55	41684.94
653.70	42108.58
653.84	42026.66
653.99	41998.57
654.13	41511.74
654.27	41752.82
654.42	41476.63
654.56	41558.55
654.71	41415.78
654.85	41792.61
655.00	41291.73
655.14	41488.34
655.29	41713.03
655.43	41141.94
655.57	41235.56
655.72	41008.53
655.86	41523.44
656.01	41057.68
656.15	40575.53
656.30	40748.73
656.44	40994.48
656.58	41612.38
656.73	40758.09
656.87	40800.22
657.01	41090.44
657.16	41085.76
657.30	41151.30
657.45	40994.48
657.59	40741.71
657.73	40816.60
657.88	41188.75
658.02	41031.93
658.16	40865.75
658.31	40746.39
658.45	40809.58
658.60	40711.28
658.74	40758.09
658.88	40849.37
659.03	40430.41
659.17	40189.34
659.31	40802.56
659.46	40191.68
659.60	40685.53
659.74	40201.04
659.89	40421.05
660.03	39962.31
660.17	40399.99
660.32	39995.07
660.46	40381.26
660.60	39721.23
660.74	40158.91
660.89	40287.64
661.03	39894.43
661.17	39791.45
661.32	39438.03
661.46	39578.46
661.60	39519.95
661.74	39522.29
661.89	39775.06
662.03	39936.56
662.17	39384.19
662.31	39339.72
662.46	39969.33
662.60	39683.78
662.74	38778.00
662.88	38981.62
663.03	38703.10
663.17	38850.55
663.31	38918.43
663.45	39070.56
663.60	39941.24
663.74	38852.89
663.88	39016.73
664.02	38714.80
664.17	39136.10
664.31	38766.29
664.45	38642.24
664.59	38899.70
664.73	38590.75
664.88	38705.44
665.02	38419.89
665.16	38508.83
665.30	38815.44
665.44	38518.20
665.59	38197.54
665.73	38124.99
665.87	37869.87
666.01	37886.25
666.15	38075.84
666.29	38450.32
666.44	38506.49
666.58	38052.43
666.72	37663.90
666.86	37649.86
667.00	37769.22
667.14	37661.56
667.28	37715.39
667.43	37343.25
667.57	37488.36
667.71	37694.33
667.85	37731.78
667.99	37420.48
668.13	37060.04
668.27	37010.89
668.41	37233.24
668.56	36748.75
668.70	36669.17
668.84	36921.95
668.98	36311.07
669.12	36926.63
669.26	36833.01
669.40	36692.58
669.54	36847.05
669.68	36875.14
669.82	36121.49
669.96	36215.11
670.10	35997.44
670.25	35959.99
670.39	36154.26
670.53	36603.64
670.67	36170.64
670.81	36414.05
670.95	35978.72
671.09	35957.65
671.23	35910.84
671.37	35924.88
671.51	35637.00
671.65	35835.94
671.79	35646.36
671.93	35426.35
672.07	35676.79
672.21	35803.17
672.35	35386.56
672.49	35229.74
672.63	35358.47
672.77	34567.37
672.91	35070.59
673.05	35276.55
673.19	34955.90
673.33	34696.10
673.47	34883.34
673.61	34492.47
673.75	34581.42
673.89	34485.45
674.03	33968.19
674.17	34031.39
674.31	33972.88
674.45	34146.08
674.59	33895.64
674.73	33846.49
674.87	33448.60
675.01	33729.46
675.15	33462.64
675.29	33310.50
675.43	33394.76
675.56	33682.65
675.70	33230.93
675.84	33425.19
675.98	32091.09
676.12	32898.57
676.26	33226.24
676.40	32800.27
676.54	32783.88
676.68	32755.80
676.82	32053.64
676.96	32617.71
677.10	33111.56
677.23	32339.18
677.37	32582.60
677.51	32210.45
677.65	32210.45
677.79	32006.83
677.93	32109.81
678.07	31999.80
678.21	31543.40
678.34	31894.48
678.48	31512.97
678.62	31236.79
678.76	30831.88
678.90	31632.34
679.04	31157.21
679.18	31175.94
679.31	31002.74
679.45	30939.54
679.59	30794.43
679.73	30754.64
679.87	30586.12
680.00	30494.84
680.14	30649.32
680.28	30146.10
680.42	30527.61
680.56	30160.14
680.70	30178.87
680.83	29993.97
680.97	30052.48
681.11	30188.23
681.25	29832.47
681.39	29254.36
681.52	29556.28
681.66	28982.85
681.80	28835.40
681.94	28645.82
682.07	28503.04
682.21	28683.27
682.35	28767.52
682.49	28423.47
682.62	28318.14
682.76	28615.39
682.90	28465.60
683.04	28346.23
683.17	28545.17
683.31	28142.60
683.45	28196.43
683.59	27459.16
683.72	27414.69
683.86	27552.79
684.00	27534.06
684.13	27728.33
684.27	27704.92
684.41	27461.51
684.55	27243.84
684.68	27140.85
684.82	27002.76
684.96	27058.93
685.09	26902.12
685.23	27257.88
685.37	27068.30
685.50	27398.31
685.64	26717.22
685.78	26546.36
685.91	26314.64
686.05	26061.87
686.19	25851.22
686.32	25951.86
686.46	25692.06
686.60	25640.57
686.73	25708.44
686.87	25640.57
687.01	26036.12
687.14	25661.63
687.28	25443.96
687.42	25348.00
687.55	25188.85
687.69	25238.00
687.82	24893.94
687.96	25010.96
688.10	25013.31
688.23	24577.97
688.37	24985.22
688.50	25069.48
688.64	24753.51
688.78	24650.52
688.91	24444.56
689.05	24486.68
689.18	24245.61
689.32	23934.32
689.46	23559.83
689.59	23955.38
689.73	23931.98
689.86	23988.15
690.00	23630.05
690.13	23903.89
690.27	23431.10
690.41	23552.81
690.54	23115.13
690.68	23204.07
690.81	22932.57
690.95	22799.16
691.08	22902.14
691.22	22801.50
691.35	22394.25
691.49	22712.56
691.62	22679.79
691.76	22274.88
691.89	22061.89
692.03	22122.74
692.16	21961.25
692.30	22171.89
692.43	22026.78
692.57	21818.47
692.70	21542.29
692.84	21469.73
692.97	21411.22
693.11	21465.05
693.24	21078.86
693.38	21441.65
693.51	21462.71
693.65	20587.35
693.78	20624.80
693.92	20676.29
694.05	20603.74
694.19	20826.09
694.32	20704.38
694.45	20798.00
694.59	20538.20
694.72	20528.84
694.86	20023.28
694.99	20013.92
695.13	20074.77
695.26	19868.81
695.39	19644.12
695.53	19723.69
695.66	19861.79
695.80	19538.79
695.93	19653.48
696.07	19330.48
696.20	19129.20
696.33	18981.74
696.47	19222.82
696.60	18937.27
696.73	18817.91
696.87	18906.85
697.00	18647.05
697.14	18841.31
697.27	18363.84
697.40	18380.23
697.54	18604.92
697.67	18338.10
697.80	18431.72
697.94	18204.69
698.07	18197.67
698.21	18295.97
698.34	18150.85
698.47	18026.81
698.61	17568.06
698.74	17490.82
698.87	18045.53
699.01	17280.18
699.14	17568.06
699.27	17268.47
699.40	17369.12
699.54	17060.16
699.67	17163.15
699.80	17231.02
699.94	17043.78
700.07	16812.07
700.20	16535.88
700.34	16580.36
700.47	16762.92
700.60	16702.06
700.73	16484.39
700.87	16524.18
701.00	16355.66
701.13	16262.04
701.26	15857.13
701.40	16161.40
701.53	16147.36
701.66	16336.94
701.79	16166.08
701.93	15630.10
702.06	15520.09
702.19	15337.53
702.32	15672.23
702.46	15358.60
702.59	15765.85
702.72	15782.23
702.85	15597.33
702.99	15288.38
703.12	15304.76
703.25	14993.47
703.38	14747.72
703.51	14941.98
703.65	14738.35
703.78	14637.71
703.91	14586.22
704.04	14621.33
704.17	14338.12
704.31	14600.26
704.44	14420.04
704.57	14462.17
704.70	14312.38
704.83	14328.76
704.96	13806.82
705.10	13848.95
705.23	13902.78
>>>>>End Processed Spectral Data<<<<<
