SpectraSuite Data File
++++++++++++++++++++++++++++++++++++
Date: Fri Oct 25 10:44:21 EDT 2013
User: price-jones
Dark Spectrum Present: No
Reference Spectrum Present: No
Number of Sampled Component Spectra: 1
Spectrometers: USB2+H05261
Integration Time (usec): 100000 (USB2+H05261)
Spectra Averaged: 1 (USB2+H05261)
Boxcar Smoothing: 0 (USB2+H05261)
Correct for Electrical Dark: No (USB2+H05261)
Strobe/Lamp Enabled: No (USB2+H05261)
Correct for Detector Non-linearity: No (USB2+H05261)
Correct for Stray Light: No (USB2+H05261)
Number of Pixels in Processed Spectrum: 2048
>>>>>Begin Processed Spectral Data<<<<<
365.73	138.09
365.92	138.09
366.12	138.09
366.32	53.83
366.52	0.00
366.72	56.17
366.91	65.54
367.11	98.30
367.31	0.00
367.51	28.09
367.70	91.28
367.90	21.06
368.10	0.00
368.30	53.83
368.49	58.51
368.69	105.32
368.89	70.22
369.09	77.24
369.28	84.26
369.48	44.47
369.68	135.75
369.87	72.56
370.07	67.88
370.27	142.77
370.47	224.69
370.66	407.25
370.86	414.27
371.06	500.87
371.25	475.13
371.45	430.66
371.65	533.64
371.84	498.53
372.04	454.06
372.24	489.17
372.44	543.00
372.63	554.71
372.83	507.90
373.03	496.19
373.22	449.38
373.42	550.03
373.62	528.96
373.81	538.32
374.01	592.16
374.21	594.50
374.40	519.60
374.60	688.12
374.79	540.66
374.99	571.09
375.19	589.82
375.38	538.32
375.58	519.60
375.78	627.26
375.97	657.69
376.17	739.61
376.37	720.88
376.56	706.84
376.76	695.14
376.95	737.27
377.15	678.76
377.35	599.18
377.54	730.25
377.74	671.73
377.93	585.13
378.13	671.73
378.33	711.52
378.52	692.80
378.72	732.59
378.91	723.23
379.11	685.78
379.31	645.99
379.50	606.20
379.70	704.50
379.89	664.71
380.09	723.23
380.28	706.84
380.48	732.59
380.68	716.20
380.87	727.91
381.07	741.95
381.26	692.80
381.46	744.29
381.65	678.76
381.85	741.95
382.04	748.97
382.24	699.82
382.43	683.44
382.63	706.84
382.83	678.76
383.02	763.01
383.22	884.72
383.41	746.63
383.61	793.44
383.80	858.98
384.00	772.38
384.19	866.00
384.39	767.70
384.58	821.53
384.78	896.43
384.97	858.98
385.17	837.91
385.36	823.87
385.56	777.06
385.75	884.72
385.95	828.55
386.14	887.06
386.34	936.21
386.53	917.49
386.72	875.36
386.92	978.34
387.11	891.74
387.31	868.34
387.50	884.72
387.70	830.89
387.89	985.37
388.09	961.96
388.28	910.47
388.48	945.58
388.67	957.28
388.86	912.81
389.06	929.19
389.25	1022.81
389.45	1064.94
389.64	1156.22
389.84	1053.24
390.03	1011.11
390.22	1064.94
390.42	1025.15
390.61	1093.03
390.81	1067.28
391.00	1139.84
391.19	1100.05
391.39	1097.71
391.58	1116.44
391.78	1128.14
391.97	1107.07
392.16	1034.52
392.36	1034.52
392.55	978.34
392.75	1048.56
392.94	1025.15
393.13	1086.01
393.33	1050.90
393.52	1107.07
393.71	1100.05
393.91	1245.16
394.10	1158.57
394.29	1170.27
394.49	1214.74
394.68	1224.10
394.88	1179.63
395.07	1263.89
395.26	1268.57
395.46	1261.55
395.65	1287.29
395.84	1242.82
396.04	1359.85
396.23	1181.97
396.42	1270.91
396.62	1240.48
396.81	1167.93
397.00	1268.57
397.19	1343.47
397.39	1364.53
397.58	1455.81
397.77	1467.52
397.97	1462.83
398.16	1467.52
398.35	1481.56
398.55	1507.30
398.74	1591.56
398.93	1605.61
399.12	1591.56
399.32	1542.41
399.51	1565.82
399.70	1666.46
399.90	1582.20
400.09	1626.67
400.28	1703.91
400.47	1654.76
400.67	1769.44
400.86	1736.68
401.05	1732.00
401.24	1650.08
401.44	1879.45
401.63	1750.72
401.82	1818.60
402.01	1806.89
402.21	1827.96
402.40	1816.26
402.59	1842.00
402.78	1781.15
402.97	1769.44
403.17	1856.04
403.36	1830.30
403.55	1921.58
403.74	1935.62
403.93	1937.96
404.13	1818.60
404.32	1865.41
404.51	1827.96
404.70	1973.07
404.89	2005.84
405.09	1956.69
405.28	2015.20
405.47	2045.63
405.66	2097.12
405.85	2026.90
406.05	2062.01
406.24	2050.31
406.43	2155.63
406.62	2118.18
406.81	2211.81
407.00	2162.66
407.20	2197.76
407.39	2150.95
407.58	2300.75
407.77	2216.49
407.96	2368.62
408.15	2335.85
408.34	2218.83
408.54	2352.24
408.73	2413.09
408.92	2345.22
409.11	2293.72
409.30	2373.30
409.49	2403.73
409.68	2300.75
409.87	2523.10
410.07	2368.62
410.26	2509.05
410.45	2530.12
410.64	2525.44
410.83	2588.63
411.02	2605.02
411.21	2616.72
411.40	2569.91
411.59	2768.85
411.78	2663.53
411.98	2670.55
412.17	2794.60
412.36	2810.98
412.55	2810.98
412.74	2803.96
412.93	2766.51
413.12	2876.52
413.31	2977.16
413.50	2923.33
413.69	2841.41
413.88	2972.48
414.07	2913.97
414.26	2932.69
414.45	3162.06
414.64	3023.97
414.83	3211.22
415.02	3155.04
415.22	3070.78
415.41	3136.32
415.60	3194.83
415.79	3361.01
415.98	3449.95
416.17	3337.60
416.36	3569.32
416.55	3382.07
416.74	3485.06
416.93	3428.88
417.12	3400.80
417.31	3438.25
417.50	3555.27
417.69	3592.72
417.88	3581.02
418.07	3478.04
418.26	3564.64
418.45	3557.61
418.64	3843.16
418.83	3803.37
419.02	3646.55
419.21	3585.70
419.39	3674.64
419.58	3669.96
419.77	3571.66
419.96	3801.03
420.15	3751.88
420.34	3772.94
420.53	3880.61
420.72	4028.06
420.91	4032.74
421.10	3953.16
421.29	4058.49
421.48	3896.99
421.67	3911.04
421.86	3880.61
422.05	3981.25
422.24	3885.29
422.43	4021.04
422.61	4056.15
422.80	4030.40
422.99	3941.46
423.18	4159.13
423.37	4063.17
423.56	4095.94
423.75	4091.26
423.94	4046.79
424.13	3819.75
424.32	3957.85
424.50	4142.75
424.69	4273.82
424.88	4067.85
425.07	3962.53
425.26	4131.05
425.45	3964.87
425.64	4002.32
425.83	3957.85
426.01	4189.56
426.20	4208.28
426.39	4081.89
426.58	4011.68
426.77	4088.92
426.96	4147.43
427.15	4156.79
427.33	4250.41
427.52	4107.64
427.71	4229.35
427.90	4294.88
428.09	4311.27
428.28	4299.56
428.46	4170.83
428.65	4383.82
428.84	4351.06
429.03	4564.04
429.22	4222.33
429.40	4306.59
429.59	4320.63
429.78	4154.45
429.97	4063.17
430.16	4215.30
430.34	4264.46
430.53	4395.53
430.72	4299.56
430.91	4313.61
431.10	4458.72
431.28	4690.43
431.47	4807.46
431.66	4720.86
431.85	4688.09
432.03	4762.99
432.22	4830.87
432.41	4725.54
432.60	4847.25
432.79	4863.63
432.97	5034.49
433.16	4891.72
433.35	4809.80
433.54	4842.57
433.72	4847.25
433.91	4938.53
434.10	4926.83
434.28	4919.81
434.47	5100.03
434.66	5048.54
434.85	5158.54
435.03	5270.89
435.22	5029.81
435.41	5259.18
435.59	5149.18
435.78	5284.93
435.97	5486.22
436.16	5404.30
436.34	5397.28
436.53	5296.63
436.72	5472.17
436.90	5259.18
437.09	5493.24
437.28	5188.97
437.46	5408.98
437.65	5425.36
437.84	5444.09
438.02	5352.81
438.21	5301.31
438.40	5397.28
438.58	5509.62
438.77	5661.76
438.96	5565.79
439.14	5771.76
439.33	5781.12
439.52	5851.34
439.70	5832.62
439.89	5818.57
440.08	5834.96
440.26	5858.36
440.45	5865.38
440.63	5816.23
440.82	6265.61
441.01	6125.18
441.19	6150.93
441.38	6293.70
441.57	6256.25
441.75	6408.39
441.94	6572.22
442.12	6590.95
442.31	6661.16
442.50	6565.20
442.68	6537.12
442.87	6590.95
443.05	6665.85
443.24	6761.81
443.43	6642.44
443.61	6778.19
443.80	7002.88
443.98	6640.10
444.17	6401.37
444.35	6677.55
444.54	6785.21
444.73	6836.70
444.91	6562.86
445.10	6782.87
445.28	6724.36
445.47	6609.67
445.65	6656.48
445.84	6789.89
446.02	6867.13
446.21	6918.62
446.39	6775.85
446.58	6869.47
446.77	6988.84
446.95	6792.23
447.14	6986.50
447.32	7143.32
447.51	6916.28
447.69	7000.54
447.88	6942.03
448.06	6946.71
448.25	6995.86
448.43	6986.50
448.62	7000.54
448.80	6979.48
448.99	7054.37
449.17	7105.87
449.36	7049.69
449.54	7393.75
449.73	7262.68
449.91	7440.56
450.10	7262.68
450.28	7393.75
450.46	7623.12
450.65	7529.50
450.83	7358.64
451.02	7410.14
451.20	7576.31
451.39	7424.18
451.57	7461.63
451.76	7475.67
451.94	7627.81
452.13	7576.31
452.31	7581.00
452.49	7456.95
452.68	7510.78
452.86	7438.22
453.05	7616.10
453.23	7623.12
453.42	7588.02
453.60	7339.92
453.78	7676.96
453.97	7489.71
454.15	7674.62
454.34	7611.42
454.52	7676.96
454.70	7623.12
454.89	7878.24
455.07	7765.90
455.26	7941.44
455.44	7913.35
455.62	7873.56
455.81	8109.96
455.99	8051.44
456.17	8077.19
456.36	8112.30
456.54	8306.56
456.73	8245.71
456.91	8428.27
457.09	8409.54
457.28	8456.36
457.46	8194.22
457.64	8414.23
457.83	8215.28
458.01	8280.82
458.19	8674.03
458.38	8573.38
458.56	8671.68
458.74	8641.26
458.93	8594.45
459.11	8617.85
459.29	8470.40
459.48	8613.17
459.66	8538.27
459.84	8580.40
460.03	8737.22
460.21	8739.56
460.39	8959.57
460.57	8784.03
460.76	8833.18
460.94	9151.49
461.12	8816.80
461.31	9135.11
461.49	9142.13
461.67	8945.53
461.85	9123.41
462.04	9015.74
462.22	9275.54
462.40	9247.46
462.59	9329.38
462.77	9179.58
462.95	9362.14
463.13	9266.18
463.32	9254.48
463.50	9394.91
463.68	9441.72
463.86	9378.53
464.05	9345.76
464.23	9100.00
464.41	9233.41
464.59	9165.54
464.78	9525.98
464.96	9282.56
465.14	9324.69
465.32	9572.79
465.50	9715.56
465.69	9687.48
465.87	9774.08
466.05	9577.47
466.23	9568.11
466.41	9444.06
466.60	9757.69
466.78	9462.79
466.96	9551.73
467.14	9703.86
467.32	9706.20
467.51	9902.81
467.69	9511.94
467.87	9750.67
468.05	9722.59
468.23	9762.37
468.41	9909.83
468.60	9928.55
468.78	9797.48
468.96	10031.54
469.14	10148.56
469.32	9963.66
469.50	9867.70
469.69	10193.03
469.87	10061.96
470.05	10148.56
470.23	10286.65
470.41	10134.52
470.59	10211.76
470.77	10195.37
470.95	10406.02
471.14	10518.37
471.32	10239.84
471.50	10597.95
471.68	10579.22
471.86	10707.95
472.04	10780.51
472.22	11056.69
472.40	10626.03
472.58	10794.55
472.77	10785.19
472.95	11040.31
473.13	11126.91
473.31	10906.90
473.49	10932.64
473.67	10906.90
473.85	11124.57
474.03	11276.70
474.21	11534.16
474.39	11564.59
474.57	11445.22
474.75	11669.91
474.93	11625.44
475.12	11377.34
475.30	11726.08
475.48	11768.21
475.66	11810.34
475.84	11641.82
476.02	11829.07
476.20	12131.00
476.38	12044.40
476.56	12308.88
476.74	12044.40
476.92	12287.81
477.10	12463.35
477.28	12493.78
477.46	12592.08
477.64	12592.08
477.82	12837.84
478.00	13092.96
478.18	13198.28
478.36	13102.32
478.54	13055.51
478.72	13397.23
478.90	13364.46
479.08	13654.69
479.26	13661.71
479.44	13589.15
479.62	13790.44
479.80	13752.99
479.98	13682.77
480.16	14298.33
480.34	13951.93
480.52	14370.89
480.70	14108.75
480.88	14174.28
481.06	14361.53
481.24	14523.02
481.41	14684.52
481.59	14930.28
481.77	14934.96
481.95	14902.19
482.13	15290.72
482.31	15019.22
482.49	15585.63
482.67	15360.94
482.85	15648.82
483.03	16126.29
483.21	15943.73
483.39	16025.65
483.57	15875.85
483.74	16245.66
483.92	16114.59
484.10	16002.24
484.28	16245.66
484.46	16767.60
484.64	17013.35
484.82	16594.40
485.00	16610.78
485.18	16950.16
485.35	17231.02
485.53	16793.34
485.71	16681.00
485.89	16987.61
486.07	16741.85
486.25	17390.18
486.43	17301.24
486.61	17577.42
486.78	17642.96
486.96	17703.81
487.14	18242.14
487.32	18265.54
487.50	18623.64
487.68	18462.15
487.85	19042.60
488.03	19129.20
488.21	19278.99
488.39	19583.26
488.57	19445.17
488.75	19571.56
488.92	19459.21
489.10	19711.99
489.28	20369.68
489.46	20245.63
489.64	20552.24
489.81	20662.25
489.99	20762.89
490.17	21048.44
490.35	20980.56
490.53	20954.82
490.70	20968.86
490.88	21317.60
491.06	21249.72
491.24	21383.13
491.41	21481.44
491.59	21460.37
491.77	21202.91
491.95	21944.86
492.13	22146.15
492.30	22588.51
492.48	22469.14
492.66	22558.08
492.84	22672.77
493.01	22953.63
493.19	22977.04
493.37	23377.27
493.54	23126.83
493.72	23222.80
493.90	23314.08
494.08	23793.89
494.25	24271.36
494.43	23983.47
494.61	24046.66
494.79	24379.02
494.96	23828.99
495.14	24182.42
495.32	24533.50
495.49	24496.05
495.67	24613.07
495.85	25127.99
496.02	24959.47
496.20	24973.52
496.38	25025.01
496.55	25530.56
496.73	25982.29
496.91	25748.23
497.09	25750.57
497.26	25734.19
497.44	25900.37
497.62	26036.12
497.79	26349.75
497.97	25757.60
498.14	26209.32
498.32	26265.49
498.50	26345.07
498.67	26981.70
498.85	27115.11
499.03	26869.35
499.20	26955.95
499.38	27145.53
499.56	27463.85
499.73	27103.40
499.91	27075.32
500.08	27761.09
500.26	26977.01
500.44	27695.56
500.61	27562.15
500.79	27639.39
500.97	28093.45
501.14	28166.01
501.32	27915.57
501.49	27992.81
501.67	27873.44
501.84	28283.03
502.02	28355.59
502.20	28725.39
502.37	28854.12
502.55	28673.90
502.72	28697.31
502.90	28631.77
503.07	28961.79
503.25	29083.50
503.43	28821.36
503.60	29060.09
503.78	29081.16
503.95	29125.63
504.13	29102.22
504.30	29607.78
504.48	29446.28
504.65	29823.11
504.83	30040.78
505.01	29926.09
505.18	29996.31
505.36	30244.40
505.53	30338.02
505.71	30588.46
505.88	30555.69
506.06	30356.75
506.23	30462.07
506.41	30548.67
506.58	30866.98
506.76	30817.83
506.93	30759.32
507.11	30719.53
507.28	31033.16
507.46	30960.61
507.63	30845.92
507.81	31386.58
507.98	31028.48
508.16	31697.88
508.33	31377.22
508.50	31630.00
508.68	31857.03
508.85	32112.15
509.03	32161.30
509.20	32020.87
509.38	32229.18
509.55	32165.98
509.73	32173.00
509.90	32460.89
510.08	32184.71
510.25	32491.32
510.42	32802.61
510.60	32622.39
510.77	32552.17
510.95	33205.18
511.12	32737.07
511.30	33411.15
511.47	33479.02
511.64	33291.78
511.82	33436.89
511.99	33046.02
512.17	33479.02
512.34	33130.28
512.51	33233.27
512.69	33638.18
512.86	33610.09
513.04	33851.17
513.21	33708.40
513.38	33357.32
513.56	33383.06
513.73	33488.38
513.90	34017.35
514.08	34031.39
514.25	34164.80
514.43	33970.54
514.60	34106.29
514.77	34389.49
514.95	34426.94
515.12	34092.24
515.29	34902.07
515.47	35257.83
515.64	34808.45
515.81	34796.74
515.99	34611.84
516.16	34660.99
516.33	34370.77
516.51	34174.16
516.68	33855.85
516.85	34171.82
517.03	34237.36
517.20	34759.30
517.37	35016.75
517.54	35452.09
517.72	35232.08
517.89	34927.81
518.06	34813.13
518.24	35028.46
518.41	35510.61
518.58	35381.88
518.75	35365.49
518.93	35819.56
519.10	35784.45
519.27	36011.48
519.45	36041.91
519.62	36247.88
519.79	36222.13
519.96	36332.14
520.14	36601.30
520.31	36266.60
520.48	36456.18
520.65	36872.80
520.83	37041.32
521.00	37116.22
521.17	36980.46
521.34	36685.56
521.52	37092.81
521.69	37118.56
521.86	37450.91
522.03	37165.37
522.20	37214.52
522.38	37350.27
522.55	37319.84
522.72	37549.21
522.89	37226.22
523.07	37820.72
523.24	37853.48
523.41	38078.18
523.58	38057.11
523.75	38391.81
523.92	38410.53
524.10	38335.63
524.27	38239.67
524.44	38295.85
524.61	38705.44
524.78	38462.02
524.96	38649.27
525.13	38721.82
525.30	38513.52
525.47	38932.47
525.64	38658.63
525.81	38834.17
525.98	38314.57
526.16	38541.60
526.33	38347.34
526.50	38522.88
526.67	37799.65
526.84	38513.52
527.01	38906.73
527.18	38759.27
527.36	39070.56
527.53	39564.42
527.70	39732.93
527.87	39433.35
528.04	39395.90
528.21	39690.80
528.38	39775.06
528.55	40280.62
528.72	39814.85
528.89	40477.22
529.07	40121.46
529.24	39768.04
529.41	39545.69
529.58	39679.10
529.75	39634.63
529.92	39983.37
530.09	40217.43
530.26	40184.66
530.43	40549.78
530.60	40549.78
530.77	40156.57
530.94	40612.98
531.11	40343.81
531.28	40357.86
531.46	40580.21
531.63	40540.42
531.80	40463.18
531.97	39903.79
532.14	40737.02
532.31	40102.74
532.48	40294.66
532.65	40512.33
532.82	40718.30
532.99	40971.08
533.16	40472.54
533.33	41109.17
533.50	41420.46
533.67	40996.82
533.84	41134.92
534.01	40919.59
534.18	41317.48
534.35	41453.23
534.52	41478.97
534.69	41338.54
534.86	41471.95
535.03	41511.74
535.20	42000.91
535.37	41750.48
535.54	42106.24
535.71	41713.03
535.88	41909.63
536.05	41853.46
536.22	42080.49
536.38	42178.79
536.55	41717.71
536.72	41820.69
536.89	41420.46
537.06	41518.76
537.23	42337.95
537.40	42171.77
537.57	42258.37
537.74	42174.11
537.91	42595.41
538.08	42515.83
538.25	41993.89
538.42	42131.98
538.59	42391.78
538.75	42007.94
538.92	42110.92
539.09	42644.56
539.26	42459.66
539.43	42796.70
539.60	42466.68
539.77	42141.35
539.94	42443.27
540.11	42342.63
540.28	42305.18
540.44	42459.66
540.61	42569.66
540.78	42419.87
540.95	42698.39
541.12	42742.86
541.29	42719.46
541.46	42810.74
541.62	43122.03
541.79	42974.58
541.96	42902.02
542.13	42913.72
542.30	42569.66
542.47	43096.28
542.63	42869.25
542.80	43330.34
542.97	43742.27
543.14	44219.74
543.31	43519.92
543.48	43798.44
543.64	44282.94
543.81	44161.23
543.98	44109.74
544.15	43489.49
544.32	44027.82
544.48	44025.48
544.65	43847.60
544.82	43835.89
544.99	43934.20
545.16	43913.13
545.32	43601.84
545.49	44435.07
545.66	44875.09
545.83	44430.39
546.00	44474.86
546.16	44088.67
546.33	44013.77
546.50	44030.16
546.67	44545.08
546.83	43959.94
547.00	44016.11
547.17	44533.37
547.34	44495.92
547.50	44439.75
547.67	44622.31
547.84	44711.25
548.00	44655.08
548.17	44809.56
548.34	44652.74
548.51	44685.51
548.67	44835.30
548.84	44760.40
549.01	44926.58
549.18	44652.74
549.34	44795.51
549.51	44507.63
549.68	45191.06
549.84	45146.59
550.01	45027.23
550.18	44863.39
550.34	45453.20
550.51	44858.71
550.68	44919.56
550.84	44673.81
551.01	45174.68
551.18	45111.49
551.34	45141.91
551.51	45301.07
551.68	45216.81
551.84	45298.73
552.01	45179.36
552.18	45324.47
552.34	45397.03
552.51	45081.06
552.68	45270.64
552.84	45155.96
553.01	45659.17
553.18	45277.66
553.34	45474.27
553.51	45118.51
553.67	45593.64
553.84	45705.98
554.01	45687.26
554.17	45778.54
554.34	45471.93
554.51	45703.64
554.67	45993.87
554.84	45703.64
555.00	45867.48
555.17	45319.79
555.33	46127.28
555.50	45462.57
555.67	45595.98
555.83	45776.20
556.00	45581.93
556.16	45886.20
556.33	45881.52
556.50	45745.77
556.66	46028.98
556.83	45748.11
556.99	46153.02
557.16	46347.29
557.32	46204.52
557.49	46094.51
557.65	45654.49
557.82	46328.56
557.98	45916.63
558.15	45902.59
558.32	46148.34
558.48	45640.45
558.65	46115.58
558.81	45301.07
558.98	46216.22
559.14	46218.56
559.31	46000.89
559.47	46225.58
559.64	45996.21
559.80	46176.43
559.97	46129.62
560.13	45703.64
560.30	46080.47
560.46	46225.58
560.63	46134.30
560.79	46096.85
560.96	46693.69
561.12	46403.46
561.29	46354.31
561.45	46335.59
561.61	46361.33
561.78	46274.73
561.94	46188.13
562.11	46445.59
562.27	46459.63
562.44	46499.42
562.60	46492.40
562.77	46740.50
562.93	46574.32
563.10	46464.32
563.26	46330.90
563.42	46469.00
563.59	46300.48
563.75	46323.88
563.92	46656.24
564.08	46794.33
564.24	47037.75
564.41	46777.95
564.57	46925.40
564.74	46625.81
564.90	46223.24
565.07	46848.16
565.23	46616.45
565.39	46808.37
565.56	46962.85
565.72	46511.13
565.88	46445.59
566.05	46628.15
566.21	46508.79
566.38	46309.84
566.54	46902.00
566.70	47084.56
566.87	46916.04
567.03	46667.94
567.19	47430.96
567.36	46962.85
567.52	46883.27
567.68	46892.63
567.85	46660.92
568.01	46969.87
568.17	46546.23
568.34	46988.60
568.50	46817.74
568.66	46906.68
568.83	46820.08
568.99	46457.29
569.15	46726.46
569.32	46663.26
569.48	46415.16
569.64	46918.38
569.81	47061.15
569.97	46546.23
570.13	46850.50
570.30	46302.82
570.46	46340.27
570.62	46478.36
570.78	46597.73
570.95	46653.90
571.11	47019.02
571.27	46447.93
571.43	47075.19
571.60	46717.09
571.76	46766.24
571.92	46536.87
572.09	46836.46
572.25	47065.83
572.41	47344.36
572.57	47035.41
572.74	47407.55
572.90	46721.77
573.06	46775.61
573.22	46925.40
573.38	46864.55
573.55	46773.27
573.71	47033.07
573.87	47250.74
574.03	46623.47
574.20	47246.05
574.36	46873.91
574.52	46934.76
574.68	47112.64
574.84	46852.84
575.01	46878.59
575.17	46735.82
575.33	46464.32
575.49	46602.41
575.65	46976.89
575.82	46808.37
575.98	46843.48
576.14	46927.74
576.30	46838.80
576.46	47061.15
576.62	47051.79
576.79	46789.65
576.95	46773.27
577.11	46780.29
577.27	46674.96
577.43	47000.30
577.59	46990.94
577.75	46904.34
577.92	46443.25
578.08	46756.88
578.24	46859.87
578.40	46469.00
578.56	46918.38
578.72	46754.54
578.88	47320.95
579.04	47250.74
579.21	47332.65
579.37	47157.11
579.53	46801.35
579.69	46747.52
579.85	47154.77
580.01	47178.18
580.17	46967.53
580.33	47323.29
580.49	47028.38
580.65	47096.26
580.82	47536.28
580.98	47091.58
581.14	47070.51
581.30	47501.17
581.46	46759.22
581.62	46944.12
581.78	47175.84
581.94	47250.74
582.10	47224.99
582.26	47292.86
582.42	46904.34
582.58	47241.37
582.74	46890.29
582.90	47330.31
583.06	47224.99
583.22	47021.36
583.38	47470.75
583.54	47718.84
583.70	47332.65
583.86	47203.92
584.02	46808.37
584.18	47236.69
584.34	46831.78
584.50	47100.94
584.66	47047.11
584.82	46794.33
584.98	46967.53
585.14	47421.59
585.30	46979.23
585.46	47044.77
585.62	46806.03
585.78	47299.89
585.94	46960.51
586.10	47131.37
586.26	46911.36
586.42	47012.00
586.58	47351.38
586.74	46902.00
586.90	47372.44
587.06	47178.18
587.22	47178.18
587.38	46471.34
587.54	47402.87
587.70	47222.65
587.86	47016.68
588.02	46993.28
588.18	47262.44
588.34	46920.72
588.49	46422.19
588.65	46045.36
588.81	46305.16
588.97	46487.72
589.13	46380.06
589.29	46850.50
589.45	46712.41
589.61	46731.14
589.77	47075.19
589.93	47000.30
590.08	47185.20
590.24	46923.06
590.40	47187.54
590.56	47276.48
590.72	47494.15
590.88	47166.48
591.04	47089.24
591.20	47246.05
591.35	47578.41
591.51	47756.29
591.67	47166.48
591.83	47220.31
591.99	47304.57
592.15	47229.67
592.31	47391.17
592.46	47164.14
592.62	47096.26
592.78	47246.05
592.94	47543.30
593.10	46817.74
593.26	47547.98
593.41	47316.27
593.57	47377.12
593.73	47171.16
593.89	47969.28
594.05	47110.30
594.20	47089.24
594.36	47065.83
594.52	47138.39
594.68	47171.16
594.84	46909.02
594.99	47592.45
595.15	46841.14
595.31	47028.38
595.47	47117.32
595.62	47592.45
595.78	47201.58
595.94	47150.09
596.10	47519.90
596.25	47622.88
596.41	47381.80
596.57	47037.75
596.73	47351.38
596.88	47051.79
597.04	47491.81
597.20	47147.75
597.36	47154.77
597.51	47566.71
597.67	47400.53
597.83	47339.68
597.99	47870.98
598.14	47058.81
598.30	47346.70
598.46	46920.72
598.61	47306.91
598.77	46983.91
598.93	46710.07
599.09	47140.73
599.24	48112.05
599.40	47325.63
599.56	47063.49
599.71	47304.57
599.87	47456.70
600.03	47164.14
600.18	47054.13
600.34	47445.00
600.50	47370.10
600.65	47470.75
600.81	47442.66
600.97	47407.55
601.12	47665.01
601.28	47035.41
601.44	47454.36
601.59	47044.77
601.75	47381.80
601.91	46843.48
602.06	47196.90
602.22	47346.70
602.37	46859.87
602.53	46773.27
602.69	47803.10
602.84	47339.68
603.00	47000.30
603.16	47363.08
603.31	47178.18
603.47	47054.13
603.62	47295.21
603.78	47318.61
603.94	47257.76
604.09	47562.03
604.25	47339.68
604.40	47152.43
604.56	47334.99
604.71	47538.62
604.87	46923.06
605.03	47393.51
605.18	46806.03
605.34	46843.48
605.49	46836.46
605.65	47124.35
605.80	47138.39
605.96	47470.75
606.12	47166.48
606.27	47445.00
606.43	46972.21
606.58	47334.99
606.74	46806.03
606.89	47044.77
607.05	46808.37
607.20	47147.75
607.36	46878.59
607.51	47112.64
607.67	46635.17
607.82	46904.34
607.98	46518.15
608.13	46677.30
608.29	46651.56
608.44	46415.16
608.60	46686.67
608.75	46635.17
608.91	46607.09
609.06	46728.80
609.22	46714.75
609.37	46440.91
609.53	46967.53
609.68	46590.70
609.84	46663.26
609.99	46557.94
610.15	46370.69
610.30	46511.13
610.46	46520.49
610.61	47002.64
610.76	46199.83
610.92	46742.84
611.07	46054.72
611.23	46518.15
611.38	46522.83
611.54	46244.30
611.69	46267.71
611.84	46007.91
612.00	46300.48
612.15	46305.16
612.31	46457.29
612.46	46099.19
612.62	46181.11
612.77	46450.27
612.92	46361.33
613.08	45933.01
613.23	46120.26
613.39	46031.32
613.54	45542.14
613.69	46312.18
613.85	46366.01
614.00	45825.35
614.15	46461.97
614.31	46138.98
614.46	46504.10
614.62	46171.75
614.77	45801.94
614.92	46237.28
615.08	46160.05
615.23	45581.93
615.38	45792.58
615.54	45748.11
615.69	46138.98
615.84	45581.93
616.00	45951.74
616.15	45401.71
616.30	46279.41
616.46	45888.54
616.61	45556.19
616.76	45111.49
616.92	44971.05
617.07	45427.46
617.22	45434.48
617.37	45476.61
617.53	45518.74
617.68	46190.47
617.83	45769.18
617.99	45776.20
618.14	45457.88
618.29	45645.13
618.45	45790.24
618.60	45095.10
618.75	45148.93
618.90	45382.99
619.06	45500.01
619.21	45277.66
619.36	45918.97
619.51	45354.90
619.67	45308.09
619.82	45694.28
619.97	45090.42
620.12	45521.08
620.28	44947.65
620.43	45001.48
620.58	45207.45
620.73	44830.62
620.89	44854.03
621.04	45013.18
621.19	44818.92
621.34	45284.68
621.49	44638.70
621.65	44732.32
621.80	44847.00
621.95	44463.16
622.10	44573.16
622.25	44409.32
622.41	44683.17
622.56	44699.55
622.71	44676.15
622.86	44505.29
623.01	44556.78
623.16	44912.54
623.32	44594.23
623.47	44554.44
623.62	44648.06
623.77	44472.52
623.92	44634.02
624.07	44535.71
624.23	44692.53
624.38	44329.75
624.53	44091.01
624.68	44343.79
624.83	44261.87
624.98	44374.22
625.13	43732.91
625.29	43746.95
625.44	44009.09
625.59	43768.02
625.74	43707.16
625.89	43746.95
626.04	43559.71
626.19	43917.81
626.34	43854.62
626.49	44287.62
626.65	43819.51
626.80	44383.58
626.95	43903.77
627.10	44259.53
627.25	43669.72
627.40	43416.94
627.55	43250.76
627.70	43215.65
627.85	43133.73
628.00	43833.55
628.15	43552.69
628.30	43723.55
628.45	43653.33
628.60	43622.90
628.76	43625.25
628.91	43927.17
629.06	43423.96
629.21	42827.12
629.36	42953.51
629.51	43173.52
629.66	43349.06
629.81	43019.05
629.96	43353.74
630.11	43164.16
630.26	43515.24
630.41	43632.27
630.56	42923.08
630.71	43299.91
630.86	42960.53
631.01	42796.70
631.16	43346.72
631.31	42883.30
631.46	42541.58
631.61	42962.87
631.76	43349.06
631.91	43166.50
632.06	43143.09
632.21	43339.70
632.36	42777.97
632.51	42632.86
632.66	42845.85
632.81	42574.34
632.96	42328.59
633.10	42415.19
633.25	42529.87
633.40	42679.67
633.55	43014.37
633.70	42731.16
633.85	42387.10
634.00	42487.74
634.15	42639.88
634.30	42454.98
634.45	42436.25
634.60	42483.06
634.75	42476.04
634.90	42581.37
635.05	42583.71
635.19	42117.94
635.34	42515.83
635.49	42405.83
635.64	42089.85
635.79	42012.62
635.94	42057.09
636.09	41799.63
636.24	41949.42
636.39	41949.42
636.53	41872.18
636.68	42029.00
636.83	42024.32
636.98	41820.69
637.13	41591.32
637.28	42312.20
637.43	42043.04
637.57	42349.65
637.72	41888.57
637.87	41701.32
638.02	42155.39
638.17	41848.78
638.32	41745.80
638.46	41933.04
638.61	41380.67
638.76	41521.10
638.91	41869.84
639.06	41846.44
639.20	41535.15
639.35	41806.65
639.50	41418.12
639.65	41778.56
639.80	42003.25
639.94	41404.08
640.09	41230.88
640.24	41439.18
640.39	41092.79
640.54	41015.55
640.68	41366.63
640.83	40788.52
640.98	41200.45
641.13	40620.00
641.27	41165.34
641.42	40713.62
641.57	40816.60
641.72	41085.76
641.86	40851.71
642.01	41020.23
642.16	40835.33
642.31	40863.41
642.45	41083.42
642.60	40940.65
642.75	41207.47
642.90	40795.54
643.04	40891.50
643.19	40694.89
643.34	40589.57
643.48	40308.71
643.63	40456.16
643.78	40165.93
643.93	40414.03
644.07	40678.51
644.22	40392.97
644.37	40264.24
644.51	40474.88
644.66	40339.13
644.81	40409.35
644.95	40678.51
645.10	40641.06
645.25	40708.94
645.39	40320.41
645.54	40568.51
645.69	40381.26
645.83	40318.07
645.98	40484.25
646.13	40243.17
646.27	40432.75
646.42	39952.94
646.57	40107.42
646.71	39859.32
646.86	40100.40
647.00	40140.19
647.15	40074.65
647.30	39988.05
647.44	40201.04
647.59	40154.23
647.74	39714.21
647.88	39922.52
648.03	39739.96
648.17	39854.64
648.32	39697.83
648.47	39906.13
648.61	39852.30
648.76	40367.22
648.90	40135.51
649.05	39784.43
649.20	39622.93
649.34	40004.44
649.49	39587.82
649.63	39505.90
649.78	39105.67
649.92	39505.90
650.07	39866.34
650.21	39164.18
650.36	39597.18
650.51	39730.59
650.65	39536.33
650.80	40315.73
650.94	39924.86
651.09	39578.46
651.23	39065.88
651.38	39330.36
651.52	39082.27
651.67	39168.87
651.81	39402.92
651.96	38817.78
652.10	39360.79
652.25	39433.35
652.39	38958.22
652.54	39194.61
652.68	39302.28
652.83	39079.92
652.97	39365.47
653.12	39227.38
653.26	39194.61
653.41	38838.85
653.55	38878.64
653.70	38983.96
653.84	38672.67
653.99	38543.94
654.13	38948.85
654.27	38752.25
654.42	38625.86
654.56	38646.93
654.71	38693.74
654.85	38888.00
655.00	39051.84
655.14	38565.01
655.29	38209.25
655.43	38457.34
655.57	38094.56
655.72	37656.88
655.86	37872.21
656.01	37926.04
656.15	37738.80
656.30	37727.10
656.44	37823.06
656.58	37940.08
656.73	38134.35
656.87	38066.47
657.01	38106.26
657.16	38260.74
657.30	37603.05
657.45	37956.47
657.59	37764.54
657.73	38117.96
657.88	38237.33
658.02	38265.42
658.16	38251.38
658.31	38199.88
658.45	37993.92
658.60	37961.15
658.74	38052.43
658.88	37900.29
659.03	38052.43
659.17	37296.44
659.31	37420.48
659.46	37652.20
659.60	37603.05
659.74	37703.69
659.89	37209.84
660.03	37361.97
660.17	36992.17
660.32	36914.93
660.46	37556.24
660.60	36851.73
660.74	37406.44
660.89	37549.21
661.03	37085.79
661.17	37371.33
661.32	37156.00
661.46	36975.78
661.60	37500.06
661.74	36954.72
661.89	37387.72
662.03	36898.55
662.17	36795.56
662.31	36708.96
662.46	36636.41
662.60	36868.12
662.74	36605.98
662.88	36697.26
663.03	36016.16
663.17	36407.03
663.31	36201.07
663.45	35917.86
663.60	36430.44
663.74	35990.42
663.88	36414.05
664.02	35962.33
664.17	36275.96
664.31	35974.03
664.45	36320.43
664.59	35967.01
664.73	35945.95
664.88	36268.94
665.02	35428.69
665.16	35929.56
665.30	35618.27
665.44	35812.54
665.59	35227.40
665.73	35384.22
665.87	34981.65
666.01	35529.33
666.15	35353.79
666.29	35042.50
666.44	35431.03
666.58	34909.09
666.72	34831.85
666.86	35159.53
667.00	34958.24
667.14	34906.75
667.28	35040.16
667.43	35084.63
667.57	34635.25
667.71	34628.23
667.85	34918.45
667.99	35112.72
668.13	34668.02
668.27	35012.07
668.41	34698.44
668.56	34204.59
668.70	35000.37
668.84	34572.05
668.98	34113.31
669.12	34043.09
669.26	34043.09
669.40	34157.78
669.54	34061.82
669.68	34108.63
669.82	33710.74
669.96	33762.23
670.10	33347.95
670.25	33883.94
670.39	33738.82
670.53	33607.75
670.67	33263.69
670.81	33593.71
670.95	33553.92
671.09	33160.71
671.23	33184.12
671.37	33249.65
671.51	33125.60
671.65	33186.46
671.79	32760.48
671.93	32643.45
672.07	32975.81
672.21	33036.66
672.35	33315.19
672.49	32758.14
672.63	32596.64
672.77	32783.88
672.91	32982.83
673.05	32620.05
673.19	32540.47
673.33	32072.36
673.47	32198.75
673.61	32416.42
673.75	32013.85
673.89	31938.95
674.03	31936.61
674.17	31847.67
674.31	32194.07
674.45	31651.06
674.59	31936.61
674.73	31723.62
674.87	31597.23
675.01	31417.01
675.15	31679.15
675.29	31641.70
675.43	31491.91
675.56	31171.25
675.70	31290.62
675.84	30981.67
675.98	30771.02
676.12	31290.62
676.26	31290.62
676.40	31012.10
676.54	31257.85
676.68	31318.71
676.82	30333.34
676.96	30476.12
677.10	30398.88
677.23	30387.18
677.37	30209.29
677.51	29818.42
677.65	30129.72
677.79	29949.50
677.93	29663.95
678.07	29635.86
678.21	29436.92
678.34	29825.45
678.48	29266.06
678.62	29106.90
678.76	29163.08
678.90	28793.27
679.04	28922.00
679.18	28917.32
679.31	28577.94
679.45	28568.58
679.59	28140.26
679.73	28781.57
679.87	28409.42
680.00	27861.74
680.14	28252.61
680.28	28339.21
680.42	28112.17
680.56	28456.23
680.70	27859.40
680.83	28107.49
680.97	27758.75
681.11	28123.88
681.25	27522.36
681.39	27718.96
681.52	28032.60
681.66	27372.57
681.80	27414.69
681.94	27117.45
682.07	27498.95
682.21	26988.72
682.35	27239.15
682.49	27178.30
682.62	26780.41
682.76	27012.12
682.90	26717.22
683.04	27147.87
683.17	26455.08
683.31	26419.97
683.45	26141.44
683.59	26134.42
683.72	26419.97
683.86	26010.37
684.00	26031.44
684.13	26211.66
684.27	26022.08
684.41	25507.16
684.55	25614.82
684.68	25986.97
684.82	25837.17
684.96	25633.55
685.09	25591.42
685.23	25310.55
685.37	25144.38
685.50	25324.60
685.64	24840.11
685.78	24884.58
685.91	24882.24
686.05	24589.67
686.19	24568.60
686.32	24484.34
686.46	23917.93
686.60	23852.40
686.73	23538.77
686.87	23417.06
687.01	23442.81
687.14	23400.68
687.28	23232.16
687.42	23761.12
687.55	23543.45
687.69	23695.58
687.82	23367.91
687.96	23419.40
688.10	23513.02
688.23	23065.98
688.37	22810.86
688.50	22761.71
688.64	22852.99
688.78	22707.88
688.91	23021.51
689.05	22630.64
689.18	22408.29
689.32	21994.01
689.46	22354.46
689.59	22113.38
689.73	22618.94
689.86	22258.49
690.00	21881.67
690.13	22202.32
690.27	22326.37
690.41	22111.04
690.54	21509.52
690.68	21546.97
690.81	21759.96
690.95	21579.74
691.08	21640.59
691.22	21612.51
691.35	21640.59
691.49	21652.30
691.62	21694.43
691.76	20877.58
691.89	21074.18
692.03	20781.62
692.16	20765.23
692.30	20964.18
692.43	20570.97
692.57	20624.80
692.70	20561.61
692.84	20475.01
692.97	20093.50
693.11	20350.96
693.24	20191.80
693.38	20086.48
693.51	19866.47
693.65	19999.88
693.78	20002.22
693.92	20079.46
694.05	19658.16
694.19	20159.03
694.32	19807.95
694.45	19496.66
694.59	19332.82
694.72	19527.09
694.86	19269.63
694.99	19211.12
695.13	19307.08
695.26	19054.30
695.39	18923.23
695.53	19150.26
695.66	19077.71
695.80	18831.95
695.93	19049.62
696.07	18803.86
696.20	18668.11
696.33	18478.53
696.47	18546.40
696.60	18476.19
696.73	18279.58
696.87	17844.24
697.00	18153.20
697.14	18185.96
697.27	17963.61
697.40	18169.58
697.54	17738.92
697.67	17614.87
697.80	17657.00
697.94	17455.72
698.07	17221.66
698.21	17497.84
698.34	17341.03
698.47	17226.34
698.61	16828.45
698.74	17099.95
698.87	16919.73
699.01	16453.97
699.14	16629.51
699.27	16428.22
699.40	16456.31
699.54	16517.16
699.67	16575.67
699.80	16800.37
699.94	16379.07
700.07	16252.68
700.20	16369.71
700.34	16114.59
700.47	16271.40
700.60	16233.96
700.73	16451.63
700.87	15772.87
701.00	16065.44
701.13	15917.98
701.26	15793.94
701.40	15838.41
701.53	15550.52
701.66	15536.48
701.79	15307.10
701.93	15489.67
702.06	15372.64
702.19	15316.47
702.32	15307.10
702.46	15309.44
702.59	15061.35
702.72	14981.77
702.85	14831.97
702.99	14616.65
703.12	14876.44
703.25	14317.06
703.38	14546.43
703.51	14569.83
703.65	14593.24
703.78	14513.66
703.91	14600.26
704.04	14347.48
704.17	14420.04
704.31	14497.28
704.44	14113.43
704.57	14356.85
704.70	14181.31
704.83	13982.36
704.96	13872.36
705.10	14108.75
705.23	14015.13
>>>>>End Processed Spectral Data<<<<<
