SpectraSuite Data File
++++++++++++++++++++++++++++++++++++
Date: Fri Oct 25 10:47:44 EDT 2013
User: price-jones
Dark Spectrum Present: No
Reference Spectrum Present: No
Number of Sampled Component Spectra: 1
Spectrometers: USB2+H05261
Integration Time (usec): 100000 (USB2+H05261)
Spectra Averaged: 1 (USB2+H05261)
Boxcar Smoothing: 0 (USB2+H05261)
Correct for Electrical Dark: No (USB2+H05261)
Strobe/Lamp Enabled: No (USB2+H05261)
Correct for Detector Non-linearity: No (USB2+H05261)
Correct for Stray Light: No (USB2+H05261)
Number of Pixels in Processed Spectrum: 2048
>>>>>Begin Processed Spectral Data<<<<<
365.73	117.03
365.92	117.03
366.12	117.03
366.32	121.71
366.52	56.17
366.72	49.15
366.91	88.94
367.11	39.79
367.31	0.00
367.51	2.34
367.70	35.11
367.90	67.88
368.10	0.00
368.30	79.58
368.49	98.30
368.69	42.13
368.89	37.45
369.09	44.47
369.28	37.45
369.48	91.28
369.68	95.96
369.87	84.26
370.07	4.68
370.27	114.69
370.47	255.12
370.66	334.70
370.86	372.15
371.06	463.43
371.25	512.58
371.45	433.00
371.65	433.00
371.84	463.43
372.04	475.13
372.24	402.57
372.44	440.02
372.63	512.58
372.83	498.53
373.03	458.74
373.22	526.62
373.42	493.85
373.62	535.98
373.81	545.34
374.01	531.30
374.21	573.43
374.40	554.71
374.60	521.94
374.79	463.43
374.99	547.69
375.19	615.56
375.38	547.69
375.58	648.33
375.78	489.17
375.97	617.90
376.17	615.56
376.37	641.31
376.56	578.11
376.76	575.77
376.95	559.39
377.15	571.09
377.35	519.60
377.54	638.97
377.74	573.43
377.93	543.00
378.13	571.09
378.33	683.44
378.52	606.20
378.72	692.80
378.91	631.94
379.11	603.86
379.31	650.67
379.50	681.10
379.70	697.48
379.89	568.75
380.09	620.24
380.28	627.26
380.48	650.67
380.68	723.23
380.87	653.01
381.07	657.69
381.26	760.67
381.46	634.29
381.65	699.82
381.85	674.07
382.04	643.65
382.24	681.10
382.43	725.57
382.63	671.73
382.83	634.29
383.02	681.10
383.22	779.40
383.41	627.26
383.61	725.57
383.80	777.06
384.00	746.63
384.19	688.12
384.39	751.31
384.58	723.23
384.78	725.57
384.97	755.99
385.17	784.08
385.36	751.31
385.56	760.67
385.75	741.95
385.95	751.31
386.14	704.50
386.34	798.12
386.53	755.99
386.72	718.54
386.92	772.38
387.11	732.59
387.31	805.14
387.50	816.85
387.70	791.10
387.89	784.08
388.09	835.57
388.28	828.55
388.48	826.21
388.67	875.36
388.86	968.98
389.06	873.02
389.25	908.13
389.45	990.05
389.64	863.66
389.84	908.13
390.03	929.19
390.22	940.90
390.42	940.90
390.61	950.26
390.81	908.13
391.00	1013.45
391.19	936.21
391.39	870.68
391.58	999.41
391.78	971.32
391.97	985.37
392.16	894.08
392.36	1022.81
392.55	912.81
392.75	929.19
392.94	983.02
393.13	978.34
393.33	912.81
393.52	936.21
393.71	1053.24
393.91	954.94
394.10	1001.75
394.29	1034.52
394.49	1107.07
394.68	1064.94
394.88	1144.52
395.07	1074.31
395.26	1151.54
395.46	1088.35
395.65	1060.26
395.84	1076.65
396.04	1214.74
396.23	1165.59
396.42	1135.16
396.62	1088.35
396.81	1109.41
397.00	1125.80
397.19	1238.14
397.39	1184.31
397.58	1277.93
397.77	1256.87
397.97	1249.85
398.16	1196.01
398.35	1336.45
398.55	1273.25
398.74	1284.95
398.93	1256.87
399.12	1362.19
399.32	1226.44
399.51	1406.66
399.70	1376.24
399.90	1416.02
400.09	1327.08
400.28	1441.77
400.47	1406.66
400.67	1446.45
400.86	1500.28
401.05	1439.43
401.24	1472.20
401.44	1497.94
401.63	1563.48
401.82	1420.71
402.01	1444.11
402.21	1439.43
402.40	1535.39
402.59	1404.32
402.78	1483.90
402.97	1481.56
403.17	1556.46
403.36	1483.90
403.55	1586.88
403.74	1640.72
403.93	1593.90
404.13	1664.12
404.32	1706.25
404.51	1572.84
404.70	1682.85
404.89	1652.42
405.09	1748.38
405.28	1633.69
405.47	1701.57
405.66	1710.93
405.85	1724.97
406.05	1678.16
406.24	1671.14
406.43	1778.81
406.62	1870.09
406.81	1832.64
407.00	1729.66
407.20	1849.02
407.39	1757.74
407.58	1973.07
407.77	1970.73
407.96	1940.30
408.15	1928.60
408.34	1888.81
408.54	1968.39
408.73	2029.24
408.92	1984.77
409.11	1989.46
409.30	1980.09
409.49	2078.40
409.68	2080.74
409.87	2038.61
410.07	2003.50
410.26	2019.88
410.45	2202.44
410.64	2204.78
410.83	2167.34
411.02	2237.55
411.21	2406.07
411.40	2232.87
411.59	2289.04
411.78	2286.70
411.98	2155.63
412.17	2225.85
412.36	2338.20
412.55	2385.01
412.74	2401.39
412.93	2441.18
413.12	2310.11
413.31	2490.33
413.50	2490.33
413.69	2548.84
413.88	2511.39
414.07	2605.02
414.26	2492.67
414.45	2682.25
414.64	2647.15
414.83	2665.87
415.02	2630.76
415.22	2663.53
415.41	2703.32
415.60	2796.94
415.79	2918.65
415.98	2766.51
416.17	2834.39
416.36	2808.64
416.55	2841.41
416.74	2895.24
416.93	2843.75
417.12	2888.22
417.31	3019.29
417.50	2932.69
417.69	3070.78
417.88	3049.72
418.07	3073.12
418.26	3016.95
418.45	3021.63
418.64	3159.72
418.83	3180.79
419.02	3091.85
419.21	3199.51
419.39	3183.13
419.58	3166.74
419.77	3112.91
419.96	3368.03
420.15	3414.84
420.34	3211.22
420.53	3225.26
420.72	3323.56
420.91	3480.38
421.10	3295.47
421.29	3304.84
421.48	3276.75
421.67	3424.20
421.86	3293.13
422.05	3346.97
422.24	3295.47
422.43	3368.03
422.61	3538.89
422.80	3438.25
422.99	3566.98
423.18	3473.36
423.37	3531.87
423.56	3419.52
423.75	3669.96
423.94	3463.99
424.13	3227.60
424.32	3449.95
424.50	3522.51
424.69	3538.89
424.88	3487.40
425.07	3365.69
425.26	3456.97
425.45	3494.42
425.64	3449.95
425.83	3471.01
426.01	3590.38
426.20	3599.74
426.39	3550.59
426.58	3517.83
426.77	3590.38
426.96	3583.36
427.15	3644.21
427.33	3557.61
427.52	3602.08
427.71	3522.51
427.90	3658.26
428.09	3686.34
428.28	3744.86
428.46	3702.73
428.65	3756.56
428.84	3754.22
429.03	3782.31
429.22	3672.30
429.40	3765.92
429.59	3737.84
429.78	3585.70
429.97	3623.15
430.16	3555.27
430.34	3822.09
430.53	3817.41
430.72	3894.65
430.91	3840.82
431.10	3817.41
431.28	4016.36
431.47	4098.28
431.66	4287.86
431.85	4091.26
432.03	4093.60
432.22	4147.43
432.41	4117.00
432.60	4198.92
432.79	4194.24
432.97	4294.88
433.16	4252.75
433.35	4032.74
433.54	4152.11
433.72	4348.72
433.91	4159.13
434.10	4255.09
434.28	4344.03
434.47	4353.40
434.66	4435.32
434.85	4437.66
435.03	4374.46
435.22	4594.47
435.41	4514.89
435.59	4430.63
435.78	4496.17
435.97	4425.95
436.16	4451.70
436.34	4589.79
436.53	4486.81
436.72	4540.64
436.90	4655.33
437.09	4557.02
437.28	4564.04
437.46	4725.54
437.65	4755.97
437.84	4564.04
438.02	4690.43
438.21	4854.27
438.40	4713.84
438.58	5013.43
438.77	4828.53
438.96	4865.97
439.14	5043.85
439.33	4983.00
439.52	5022.79
439.70	5001.72
439.89	5128.11
440.08	5097.69
440.26	5081.30
440.45	4980.66
440.63	5203.01
440.82	5378.55
441.01	5146.84
441.19	5046.20
441.38	5565.79
441.57	5394.93
441.75	5526.00
441.94	5544.73
442.12	5507.28
442.31	5675.80
442.50	5455.79
442.68	5703.89
442.87	5638.35
443.05	5701.54
443.24	5792.83
443.43	5657.07
443.61	5612.60
443.80	5809.21
443.98	5579.84
444.17	5502.60
444.35	5832.62
444.54	5781.12
444.73	5682.82
444.91	5722.61
445.10	5750.70
445.28	5755.38
445.47	5636.01
445.65	5877.09
445.84	5727.29
446.02	5977.73
446.21	5872.40
446.39	5750.70
446.58	5823.25
446.77	6050.28
446.95	5738.99
447.14	5898.15
447.32	5820.91
447.51	6094.76
447.69	5886.45
447.88	5839.64
448.06	5795.17
448.25	6069.01
448.43	5902.83
448.62	5879.43
448.80	5937.94
448.99	6160.29
449.17	6099.44
449.36	6050.28
449.54	6242.21
449.73	6228.17
449.91	6366.26
450.10	6010.50
450.28	6317.11
450.46	6333.49
450.65	6389.66
450.83	6434.13
451.02	6340.51
451.20	6342.85
451.39	6555.84
451.57	6265.61
451.76	6473.92
451.94	6335.83
452.13	6497.33
452.31	6377.96
452.49	6321.79
452.68	6532.44
452.86	6431.79
453.05	6445.84
453.23	6506.69
453.42	6581.59
453.60	6506.69
453.78	6616.69
453.97	6459.88
454.15	6597.97
454.34	6672.87
454.52	6726.70
454.70	6656.48
454.89	6724.36
455.07	6801.60
455.26	6780.53
455.44	6869.47
455.62	6972.46
455.81	6724.36
455.99	6953.73
456.17	6991.18
456.36	6834.36
456.54	7028.63
456.73	7119.91
456.91	7145.66
457.09	7239.28
457.28	7344.60
457.46	7145.66
457.64	7213.53
457.83	7386.73
458.01	7129.27
458.19	7499.08
458.38	7267.36
458.56	7379.71
458.74	7243.96
458.93	7454.61
459.11	7473.33
459.29	7428.86
459.48	7393.75
459.66	7304.81
459.84	7489.71
460.03	7536.52
460.21	7379.71
460.39	7599.72
460.57	7597.38
460.76	7602.06
460.94	7831.43
461.12	7559.93
461.31	7789.30
461.49	7658.23
461.67	7545.89
461.85	7793.98
462.04	7623.12
462.22	8093.57
462.40	7740.15
462.59	7679.30
462.77	7990.59
462.95	8011.65
463.13	8004.63
463.32	7852.50
463.50	8093.57
463.68	7810.37
463.86	7967.18
464.05	8051.44
464.23	8006.97
464.41	7988.25
464.59	8098.25
464.78	8067.83
464.96	8196.56
465.14	8116.98
465.32	8119.32
465.50	8287.84
465.69	8449.33
465.87	8229.32
466.05	8369.76
466.23	8454.02
466.41	8191.88
466.60	8540.61
466.78	8163.79
466.96	8524.23
467.14	8386.14
467.32	8358.05
467.51	8554.66
467.69	8318.26
467.87	8285.50
468.05	8531.25
468.23	8358.05
468.41	8475.08
468.60	8592.11
468.78	8540.61
468.96	8744.24
469.14	8821.48
469.32	8648.28
469.50	8444.65
469.69	8758.28
469.87	8950.21
470.05	8788.71
470.23	8922.12
470.41	8828.50
470.59	8882.33
470.77	8844.88
470.95	8926.80
471.14	9135.11
471.32	8905.74
471.50	9411.29
471.68	9149.15
471.86	9109.36
472.04	9327.03
472.22	9525.98
472.40	9263.84
472.58	9289.59
472.77	9135.11
472.95	9404.27
473.13	9987.07
473.31	9420.66
473.49	9607.90
473.67	9465.13
473.85	9727.27
474.03	9781.10
474.21	9919.19
474.39	9806.84
474.57	9947.28
474.75	9961.32
474.93	10150.90
475.12	9907.49
475.30	10188.35
475.48	10078.35
475.66	10059.62
475.84	10164.95
476.02	10183.67
476.20	10312.40
476.38	10384.96
476.56	10633.05
476.74	10647.10
476.92	10832.00
477.10	10518.37
477.28	10876.47
477.46	10913.92
477.64	10724.33
477.82	11052.01
478.00	11269.68
478.18	11295.43
478.36	11463.94
478.54	11571.61
478.72	11211.17
478.90	11768.21
479.08	11665.23
479.26	11868.86
479.44	11798.64
479.62	11819.71
479.80	11871.20
479.98	11836.09
480.16	12446.97
480.34	12255.04
480.52	12367.39
480.70	12472.71
480.88	12212.92
481.06	12446.97
481.24	12507.82
481.41	12755.92
481.59	13107.00
481.77	12978.27
481.95	12919.76
482.13	13125.72
482.31	13212.32
482.49	13350.42
482.67	13308.29
482.85	13383.18
483.03	13657.03
483.21	13544.68
483.39	13982.36
483.57	14008.11
483.74	14127.47
483.92	14340.46
484.10	13933.21
484.28	14347.48
484.46	14445.79
484.64	14551.11
484.82	14434.08
485.00	14661.12
485.18	15131.56
485.35	15040.28
485.53	14967.73
485.71	14773.46
485.89	15042.62
486.07	15094.11
486.25	15035.60
486.43	15515.41
486.61	15810.32
486.78	15978.84
486.96	15873.51
487.14	16091.18
487.32	16116.93
487.50	16346.30
487.68	16449.28
487.85	16542.91
488.03	16762.92
488.21	16903.35
488.39	16924.41
488.57	16912.71
488.75	17090.59
488.92	17390.18
489.10	17193.58
489.28	17528.27
489.46	17907.44
489.64	17884.03
489.81	18246.82
489.99	18260.86
490.17	18244.48
490.35	18384.91
490.53	18476.19
490.70	18555.77
490.88	18885.78
491.06	19028.56
491.24	19112.81
491.41	18965.36
491.59	19325.80
491.77	19091.75
491.95	19475.60
492.13	19676.88
492.30	19726.04
492.48	19733.06
492.66	19508.37
492.84	19831.36
493.01	20109.88
493.19	19843.06
493.37	20514.80
493.54	20538.20
493.72	20166.06
493.90	20650.55
494.08	20732.47
494.25	20961.84
494.43	21032.05
494.61	21397.18
494.79	21411.22
494.96	21329.30
495.14	21228.66
495.32	21699.11
495.49	21762.30
495.67	21614.85
495.85	22031.46
496.02	22099.34
496.20	22214.02
496.38	22087.64
496.55	22398.93
496.73	22623.62
496.91	22429.35
497.09	22850.65
497.26	22937.25
497.44	22508.93
497.62	23002.78
497.79	23285.99
497.97	23014.49
498.14	23543.45
498.32	23168.96
498.50	23513.02
498.67	23728.35
498.85	23679.20
499.03	23777.50
499.20	23749.42
499.38	24053.69
499.56	24114.54
499.73	24133.26
499.91	24219.86
500.08	24456.26
500.26	24144.97
500.44	24741.80
500.61	24666.91
500.79	24243.27
500.97	24690.31
501.14	25399.49
501.32	25460.35
501.49	24933.73
501.67	25081.18
501.84	25104.59
502.02	25200.55
502.20	25523.54
502.37	25736.53
502.55	25312.89
502.72	25851.22
502.90	25820.79
503.07	25528.22
503.25	25783.34
503.43	26075.91
503.60	26008.03
503.78	25825.47
503.95	26239.75
504.13	26181.23
504.30	26235.06
504.48	26223.36
504.65	26604.87
504.83	26670.40
505.01	27199.37
505.18	26532.31
505.36	27124.47
505.53	27103.40
505.71	27239.15
505.88	27328.10
506.06	26747.64
506.23	27201.71
506.41	26918.50
506.58	27566.83
506.76	27480.23
506.93	27452.14
507.11	27484.91
507.28	27835.99
507.46	27821.95
507.63	27592.58
507.81	27941.32
507.98	27824.29
508.16	28095.79
508.33	28383.68
508.50	27936.63
508.68	28208.14
508.85	28659.86
509.03	28449.21
509.20	28793.27
509.38	29111.58
509.55	28613.05
509.73	29242.65
509.90	28835.40
510.08	28900.94
510.25	29006.26
510.42	29123.29
510.60	28952.43
510.77	29240.31
510.95	29694.38
511.12	29708.42
511.30	29467.34
511.47	29717.78
511.64	29614.80
511.82	29876.94
511.99	30043.12
512.17	29565.65
512.34	29706.08
512.51	30143.76
512.69	30518.25
512.86	30092.27
513.04	30340.36
513.21	30239.72
513.38	30623.57
513.56	30431.65
513.73	30478.46
513.90	30965.29
514.08	30485.48
514.25	31037.84
514.43	30808.47
514.60	30930.18
514.77	30834.22
514.95	31103.38
515.12	30932.52
515.29	31157.21
515.47	31255.51
515.64	31700.22
515.81	31101.04
515.99	31489.57
516.16	31299.98
516.33	31452.12
516.51	31529.36
516.68	31335.09
516.85	31688.51
517.03	31707.24
517.20	31992.78
517.37	31433.39
517.54	31927.25
517.72	31835.97
517.89	31826.60
518.06	31791.50
518.24	32266.63
518.41	32044.27
518.58	31960.02
518.75	32517.06
518.93	32395.35
519.10	32168.32
519.27	32992.19
519.45	32690.26
519.62	32847.08
519.79	32779.20
519.96	32968.79
520.14	33237.95
520.31	33364.34
520.48	33088.15
520.65	33549.24
520.83	33593.71
521.00	33397.10
521.17	33390.08
521.34	33469.66
521.52	33617.11
521.69	33968.19
521.86	33713.08
522.03	33965.85
522.20	33947.13
522.38	33865.21
522.55	34094.58
522.72	33944.79
522.89	33886.28
523.07	34190.55
523.24	34148.42
523.41	34101.61
523.58	33886.28
523.75	34476.09
523.92	34335.66
524.10	34597.80
524.27	34529.92
524.44	34684.40
524.61	34740.57
524.78	34944.20
524.96	34890.37
525.13	35019.10
525.30	35409.96
525.47	34888.03
525.64	34986.33
525.81	35103.35
525.98	35152.51
526.16	35075.27
526.33	35751.68
526.50	35651.04
526.67	35035.48
526.84	35171.23
527.01	35328.05
527.18	35585.50
527.36	35718.92
527.53	35859.35
527.70	36091.06
527.87	35845.30
528.04	35976.37
528.21	35796.15
528.38	35868.71
528.55	36297.03
528.72	36229.15
528.89	36086.38
529.07	36573.21
529.24	36016.16
529.41	36385.97
529.58	36514.70
529.75	36285.33
529.92	36435.12
530.09	36334.48
530.26	36701.94
530.43	36643.43
530.60	36091.06
530.77	36797.90
530.94	37249.63
531.11	36917.27
531.28	36844.71
531.46	37333.89
531.63	37088.13
531.80	37195.79
531.97	37237.92
532.14	37055.36
532.31	37251.97
532.48	37333.89
532.65	37347.93
532.82	37439.21
532.99	37387.72
533.16	37003.87
533.33	37504.74
533.50	37855.82
533.67	37420.48
533.84	36987.49
534.01	37085.79
534.18	37773.91
534.35	37820.72
534.52	37858.17
534.69	38003.28
534.86	37785.61
535.03	37689.65
535.20	37937.74
535.37	38403.51
535.54	38513.52
535.71	38293.50
535.88	37972.85
536.05	38087.54
536.22	38689.06
536.38	38195.20
536.55	38089.88
536.72	38567.35
536.89	38213.93
537.06	38527.56
537.23	38335.63
537.40	38902.04
537.57	38658.63
537.74	38761.61
537.91	39358.45
538.08	38937.15
538.25	38672.67
538.42	38958.22
538.59	39002.69
538.75	38745.23
538.92	38986.30
539.09	39384.19
539.26	39082.27
539.43	38864.60
539.60	39180.57
539.77	39093.97
539.94	39473.13
540.11	39030.77
540.28	39459.09
540.44	39218.02
540.61	39136.10
540.78	39269.51
540.95	39416.96
541.12	38581.39
541.29	39393.56
541.46	39955.29
541.62	39533.99
541.79	39718.89
541.96	39601.86
542.13	39583.14
542.30	39676.76
542.47	39648.68
542.63	39917.84
542.80	39817.19
542.97	40034.86
543.14	40418.71
543.31	40676.17
543.48	40252.53
543.64	40762.77
543.81	40596.59
543.98	40187.00
544.15	40425.73
544.32	40521.69
544.48	40903.20
544.65	40598.93
544.82	40282.96
544.99	40203.38
545.16	40531.06
545.32	40708.94
545.49	40500.63
545.66	40996.82
545.83	41350.24
546.00	40856.39
546.16	40950.01
546.33	41024.91
546.50	40926.61
546.67	41347.90
546.83	40643.40
547.00	41326.84
547.17	40898.52
547.34	40802.56
547.50	40821.28
547.67	40921.93
547.84	41179.39
548.00	41436.84
548.17	41455.57
548.34	41659.20
548.51	41427.48
548.67	41804.31
548.84	41521.10
549.01	41579.62
549.18	41453.23
549.34	41598.34
549.51	41333.86
549.68	41642.81
549.84	42010.28
550.01	41841.76
550.18	41317.48
550.34	41689.62
550.51	41567.91
550.68	41673.24
550.84	41591.32
551.01	41872.18
551.18	41574.94
551.34	41872.18
551.51	41563.23
551.68	41944.74
551.84	41869.84
552.01	42007.94
552.18	42518.17
552.34	41923.68
552.51	42457.32
552.68	42426.89
552.84	42515.83
553.01	42536.90
553.18	42171.77
553.34	42499.45
553.51	42068.79
553.67	42625.84
553.84	42822.44
554.01	42770.95
554.17	43180.54
554.34	42483.06
554.51	42635.20
554.67	42693.71
554.84	42696.05
555.00	42883.30
555.17	42256.03
555.33	42515.83
555.50	42855.21
555.67	42820.10
555.83	42368.38
556.00	42667.97
556.16	43241.40
556.33	43143.09
556.50	42878.61
556.66	42824.78
556.83	42773.29
556.99	42918.40
557.16	43232.04
557.32	42983.94
557.49	42700.73
557.65	42398.80
557.82	42609.45
557.98	43005.00
558.15	42794.36
558.32	43033.09
558.48	43232.04
558.65	43318.64
558.81	42763.93
558.98	42934.79
559.14	43262.46
559.31	43264.80
559.47	43189.91
559.64	43786.74
559.80	43550.35
559.97	43564.39
560.13	43009.68
560.30	43023.73
560.46	43370.13
560.63	43285.87
560.79	43239.06
560.96	43299.91
561.12	43391.19
561.29	43833.55
561.45	43290.55
561.61	43131.39
561.78	43388.85
561.94	43117.35
562.11	43592.48
562.27	43653.33
562.44	43423.96
562.60	43735.25
562.77	43828.87
562.93	43613.54
563.10	43896.75
563.26	43473.11
563.42	43709.50
563.59	43990.37
563.75	43709.50
563.92	43835.89
564.08	43784.40
564.24	44119.10
564.41	43938.88
564.57	43386.51
564.74	43248.42
564.90	43873.34
565.07	43983.35
565.23	43676.74
565.39	43665.03
565.56	43889.73
565.72	43702.48
565.88	43903.77
566.05	44186.97
566.21	43863.98
566.38	43672.06
566.54	44027.82
566.70	44088.67
566.87	44306.34
567.03	43695.46
567.19	44729.98
567.36	44381.24
567.52	44313.36
567.68	44388.26
567.85	43931.86
568.01	43753.97
568.17	43948.24
568.34	44367.20
568.50	43849.94
568.66	44002.07
568.83	43995.05
568.99	43957.60
569.15	44109.74
569.32	43648.65
569.48	43718.87
569.64	44126.12
569.81	44615.29
569.97	43885.04
570.13	44311.02
570.30	43866.32
570.46	44201.02
570.62	43814.83
570.78	44240.81
570.95	44130.80
571.11	44184.63
571.27	43878.02
571.43	44018.46
571.60	44659.76
571.76	43997.39
571.92	44282.94
572.09	44205.70
572.25	43971.64
572.41	44037.18
572.57	43938.88
572.74	44767.43
572.90	44334.43
573.06	44212.72
573.22	44524.01
573.38	43889.73
573.55	44062.93
573.71	44397.62
573.87	44381.24
574.03	43999.73
574.20	44360.17
574.36	44383.58
574.52	44308.68
574.68	44369.54
574.84	44917.22
575.01	44353.15
575.17	44418.69
575.33	44041.86
575.49	44217.40
575.65	44332.09
575.82	44779.13
575.98	44612.95
576.14	44130.80
576.30	44727.64
576.46	44442.09
576.62	44229.10
576.79	44556.78
576.95	44133.14
577.11	44533.37
577.27	44353.15
577.43	44371.88
577.59	44573.16
577.75	44540.39
577.92	44109.74
578.08	44165.91
578.24	44053.56
578.40	43952.92
578.56	44343.79
578.72	44502.95
578.88	44449.11
579.04	44704.23
579.21	44189.31
579.37	43873.34
579.53	44542.74
579.69	44458.48
579.85	44463.16
580.01	44673.81
580.17	44549.76
580.33	44636.36
580.49	44741.68
580.65	44708.91
580.82	44458.48
580.98	44446.77
581.14	44355.49
581.30	44811.90
581.46	44509.97
581.62	44505.29
581.78	44381.24
581.94	44650.40
582.10	44395.28
582.26	44638.70
582.42	44516.99
582.58	44720.62
582.74	44299.32
582.90	44596.57
583.06	44982.76
583.22	44458.48
583.38	44751.04
583.54	44690.19
583.70	44224.42
583.86	44566.14
584.02	44041.86
584.18	44524.01
584.34	44760.40
584.50	44481.88
584.66	44727.64
584.82	44685.51
584.98	44844.66
585.14	44573.16
585.30	44500.61
585.46	44224.42
585.62	44135.48
585.78	44744.02
585.94	43934.20
586.10	44423.37
586.26	44435.07
586.42	44917.22
586.58	44500.61
586.74	44369.54
586.90	44191.65
587.06	44018.46
587.22	44502.95
587.38	44938.29
587.54	44467.84
587.70	44872.75
587.86	44772.11
588.02	45172.34
588.18	44938.29
588.34	44638.70
588.49	44161.23
588.65	44580.18
588.81	44369.54
588.97	44505.29
589.13	44371.88
589.29	44371.88
589.45	44577.84
589.61	44676.15
589.77	44964.03
589.93	44694.87
590.08	44568.48
590.24	44811.90
590.40	44982.76
590.56	44921.90
590.72	44751.04
590.88	44507.63
591.04	44954.67
591.20	44676.15
591.35	45443.84
591.51	45272.98
591.67	45361.92
591.83	44940.63
591.99	44933.60
592.15	44542.74
592.31	45083.40
592.46	44900.84
592.62	44706.57
592.78	44664.44
592.94	44914.88
593.10	44720.62
593.26	44514.65
593.41	44926.58
593.57	44734.66
593.73	44804.88
593.89	44788.49
594.05	44961.69
594.20	44992.12
594.36	45095.10
594.52	45027.23
594.68	45352.56
594.84	45069.36
594.99	45696.62
595.15	44910.20
595.31	45160.64
595.47	45006.16
595.62	45015.52
595.78	45193.40
595.94	44914.88
596.10	45474.27
596.25	44868.07
596.41	44907.86
596.57	44933.60
596.73	45038.93
596.88	44690.19
597.04	45052.97
597.20	44673.81
597.36	45446.18
597.51	45345.54
597.67	45226.17
597.83	45083.40
597.99	45055.31
598.14	45219.15
598.30	44879.77
598.46	44790.83
598.61	44624.65
598.77	44847.00
598.93	44875.09
599.09	44678.49
599.24	45151.27
599.40	45083.40
599.56	45146.59
599.71	45263.62
599.87	45249.58
600.03	45186.38
600.18	45076.38
600.34	44638.70
600.50	45233.19
600.65	45212.13
600.81	45399.37
600.97	45434.48
601.12	45736.41
601.28	45008.50
601.44	44935.95
601.59	45158.30
601.75	44793.17
601.91	44858.71
602.06	45191.06
602.22	45191.06
602.37	45280.00
602.53	44877.43
602.69	45017.86
602.84	45022.54
603.00	45090.42
603.16	44538.05
603.31	44650.40
603.47	45022.54
603.62	44680.83
603.78	45151.27
603.94	45261.28
604.09	45488.31
604.25	45319.79
604.40	45275.32
604.56	45177.02
604.71	44715.93
604.87	44905.52
605.03	45036.59
605.18	44809.56
605.34	44748.70
605.49	45078.72
605.65	44971.05
605.80	44680.83
605.96	45088.08
606.12	45109.14
606.27	45717.68
606.43	44861.05
606.58	45155.96
606.74	44582.52
606.89	44524.01
607.05	44825.94
607.20	45202.77
607.36	44917.22
607.51	45160.64
607.67	45022.54
607.82	44807.22
607.98	44706.57
608.13	44802.53
608.29	44491.24
608.44	44411.67
608.60	44463.16
608.75	44470.18
608.91	44690.19
609.06	44369.54
609.22	44662.10
609.37	44531.03
609.53	44556.78
609.68	44432.73
609.84	44706.57
609.99	44678.49
610.15	44449.11
610.30	44212.72
610.46	44285.28
610.61	44170.59
610.76	44397.62
610.92	44149.53
611.07	44364.85
611.23	44315.70
611.38	44348.47
611.54	44060.58
611.69	44009.09
611.84	44334.43
612.00	44463.16
612.15	44240.81
612.31	44432.73
612.46	44168.25
612.62	44339.11
612.77	44552.10
612.92	44144.84
613.08	44390.60
613.23	44348.47
613.39	43995.05
613.54	43831.21
613.69	44016.11
613.85	44203.36
614.00	44341.45
614.15	44725.30
614.31	44013.77
614.46	44194.00
614.62	44128.46
614.77	43800.79
614.92	44100.37
615.08	44123.78
615.23	44053.56
615.38	43695.46
615.54	43557.37
615.69	43917.81
615.84	43627.59
616.00	43817.17
616.15	43653.33
616.30	43927.17
616.46	43597.16
616.61	43559.71
616.76	43730.57
616.92	43611.20
617.07	43714.19
617.22	43606.52
617.37	43707.16
617.53	43618.22
617.68	43559.71
617.83	43704.82
617.99	44091.01
618.14	43826.53
618.29	43578.43
618.45	43014.37
618.60	43648.65
618.75	43433.32
618.90	43501.20
619.06	43643.97
619.21	43299.91
619.36	43763.34
619.51	43246.08
619.67	43100.97
619.82	43821.85
619.97	43793.76
620.12	43292.89
620.28	42768.61
620.43	43009.68
620.58	43098.62
620.73	43255.44
620.89	42981.60
621.04	43262.46
621.19	43051.81
621.34	42995.64
621.49	42890.32
621.65	42845.85
621.80	43129.05
621.95	43112.67
622.10	43075.22
622.25	42717.12
622.41	42555.62
622.56	42852.87
622.71	43250.76
622.86	43044.79
623.01	43159.48
623.16	43086.92
623.32	43129.05
623.47	43339.70
623.62	42946.49
623.77	42457.32
623.92	42621.16
624.07	42759.25
624.23	42920.74
624.38	42438.59
624.53	42356.67
624.68	42953.51
624.83	42176.45
624.98	42923.08
625.13	42473.70
625.29	42614.13
625.44	42394.12
625.59	42005.59
625.74	42064.11
625.89	42199.86
626.04	42005.59
626.19	42178.79
626.34	42274.76
626.49	42206.88
626.65	42260.71
626.80	42534.56
626.95	42274.76
627.10	42096.88
627.25	41813.67
627.40	41741.11
627.55	41579.62
627.70	41310.46
627.85	42036.02
628.00	41787.92
628.15	42581.37
628.30	41734.09
628.45	42213.90
628.60	41771.54
628.76	42061.77
628.91	41694.30
629.06	41406.42
629.21	42031.34
629.36	41600.68
629.51	41455.57
629.66	41464.93
629.81	41092.79
629.96	41488.34
630.11	41223.86
630.26	41177.04
630.41	41687.28
630.56	41375.99
630.71	41640.47
630.86	41724.73
631.01	41563.23
631.16	41158.32
631.31	41141.94
631.46	41298.75
631.61	41120.87
631.76	41418.12
631.91	41347.90
632.06	41165.34
632.21	41265.99
632.36	41427.48
632.51	41235.56
632.66	41415.78
632.81	41050.66
632.96	41193.43
633.10	40610.64
633.25	40978.10
633.40	40987.46
633.55	41158.32
633.70	40903.20
633.85	40582.55
634.00	41240.24
634.15	40725.32
634.30	40818.94
634.45	40947.67
634.60	41090.44
634.75	40940.65
634.90	40954.69
635.05	41083.42
635.19	40430.41
635.34	41235.56
635.49	40914.90
635.64	40818.94
635.79	40603.61
635.94	40502.97
636.09	40671.49
636.24	40540.42
636.39	40095.72
636.53	40165.93
636.68	40325.09
636.83	40102.74
636.98	40076.99
637.13	40194.02
637.28	40612.98
637.43	40336.79
637.57	40739.36
637.72	40512.33
637.87	39988.05
638.02	40254.87
638.17	39966.99
638.32	40484.25
638.46	40254.87
638.61	40161.25
638.76	39887.41
638.91	40046.57
639.06	39721.23
639.20	39936.56
639.35	40095.72
639.50	39742.30
639.65	39854.64
639.80	40257.21
639.94	40041.88
640.09	40119.12
640.24	39611.23
640.39	39323.34
640.54	39966.99
640.68	39615.91
640.83	40142.53
640.98	39770.38
641.13	39599.52
641.27	39253.12
641.42	39880.39
641.57	39648.68
641.72	40039.54
641.86	39709.53
642.01	39136.10
642.16	39377.17
642.31	39103.33
642.45	39791.45
642.60	39688.46
642.75	39002.69
642.90	39292.91
643.04	38969.92
643.19	39119.71
643.34	39398.24
643.48	39328.02
643.63	39754.00
643.78	38995.67
643.93	38644.59
644.07	38820.13
644.22	39526.97
644.37	38946.51
644.51	38485.43
644.66	39229.72
644.81	38789.70
644.95	39051.84
645.10	39129.08
645.25	39323.34
645.39	39077.58
645.54	39199.29
645.69	39180.57
645.83	38637.56
645.98	38995.67
646.13	39360.79
646.27	38993.32
646.42	39002.69
646.57	38880.98
646.71	38667.99
646.86	38754.59
647.00	38574.37
647.15	38548.62
647.30	39241.42
647.44	38962.90
647.59	38572.03
647.74	38689.06
647.88	38569.69
648.03	38548.62
648.17	38220.95
648.32	38134.35
648.47	38536.92
648.61	38658.63
648.76	38787.36
648.90	38438.62
649.05	38300.53
649.20	38433.94
649.34	38557.99
649.49	38492.45
649.63	38426.92
649.78	38637.56
649.92	38305.21
650.07	38471.39
650.21	38319.25
650.36	38150.73
650.51	38227.97
650.65	38557.99
650.80	38192.86
650.94	38707.78
651.09	38335.63
651.23	38307.55
651.38	38192.86
651.52	37998.60
651.67	38110.94
651.81	37923.70
651.96	37626.45
652.10	37706.03
652.25	37914.34
652.39	37834.76
652.54	37837.10
652.68	37867.53
652.83	37745.82
652.97	37926.04
653.12	37951.79
653.26	38071.15
653.41	37752.84
653.55	37289.42
653.70	37626.45
653.84	37837.10
653.99	37635.81
654.13	37469.64
654.27	37544.53
654.42	37434.53
654.56	37294.10
654.71	37553.90
654.85	37443.89
655.00	37237.92
655.14	37198.13
655.29	37350.27
655.43	37626.45
655.57	37570.28
655.72	36900.89
655.86	36795.56
656.01	37184.09
656.15	36865.78
656.30	36870.46
656.44	36786.20
656.58	36708.96
656.73	37010.89
656.87	36762.79
657.01	36442.14
657.16	36676.19
657.30	36463.21
657.45	36613.00
657.59	36563.85
657.73	36451.50
657.88	36830.67
658.02	36598.96
658.16	37010.89
658.31	36594.28
658.45	36786.20
658.60	36407.03
658.74	36566.19
658.88	36833.01
659.03	36339.16
659.17	36435.12
659.31	36364.90
659.46	36254.90
659.60	36292.35
659.74	36231.49
659.89	36292.35
660.03	36023.19
660.17	36210.43
660.32	35667.42
660.46	36151.91
660.60	35978.72
660.74	36219.79
660.89	36002.12
661.03	35786.79
661.17	35847.64
661.32	35358.47
661.46	35711.89
661.60	35697.85
661.74	35484.86
661.89	35892.12
662.03	36081.70
662.17	35426.35
662.31	34913.77
662.46	35512.95
662.60	35583.16
662.74	35248.47
662.88	35250.81
663.03	35370.18
663.17	35173.57
663.31	34909.09
663.45	35288.26
663.60	35016.75
663.74	35119.74
663.88	34658.65
664.02	35115.06
664.17	34789.72
664.31	34548.65
664.45	34216.29
664.59	35019.10
664.73	34438.64
664.88	34462.05
665.02	34157.78
665.16	34983.99
665.30	34920.79
665.44	34602.48
665.59	34115.65
665.73	34419.92
665.87	33923.72
666.01	34295.87
666.15	34171.82
666.29	34220.97
666.44	33989.26
666.58	34024.37
666.72	34087.56
666.86	34092.24
667.00	34089.90
667.14	34082.88
667.28	33853.51
667.43	33818.40
667.57	33717.76
667.71	33191.14
667.85	33638.18
667.99	33467.32
668.13	33514.13
668.27	33275.40
668.41	33689.67
668.56	33319.87
668.70	33062.41
668.84	33294.12
668.98	33139.65
669.12	33141.99
669.26	32954.74
669.40	33113.90
669.54	32921.98
669.68	33111.56
669.82	32828.35
669.96	32503.02
670.10	32526.42
670.25	32802.61
670.39	32442.17
670.53	33123.26
670.67	32341.52
670.81	32671.54
670.95	32587.28
671.09	32652.81
671.23	32699.62
671.37	32659.84
671.51	31840.65
671.65	32055.98
671.79	31555.10
671.93	32170.66
672.07	32086.40
672.21	31960.02
672.35	31384.24
672.49	31894.48
672.63	32182.37
672.77	31775.11
672.91	31768.09
673.05	31402.97
673.19	31543.40
673.33	31299.98
673.47	31250.83
673.61	31192.32
673.75	31075.29
673.89	31077.63
674.03	30888.05
674.17	30799.11
674.31	31009.76
674.45	30897.41
674.59	30712.51
674.73	30885.71
674.87	30522.93
675.01	30501.86
675.15	30960.61
675.29	30953.58
675.43	30459.73
675.56	30476.12
675.70	30356.75
675.84	30654.00
675.98	28999.24
676.12	30202.27
676.26	29949.50
676.40	29713.10
676.54	30082.91
676.68	29692.04
676.82	29338.62
676.96	29680.33
677.10	29724.80
677.23	29233.29
677.37	29628.84
677.51	29198.18
677.65	29677.99
677.79	29032.00
677.93	29132.65
678.07	29041.37
678.21	28982.85
678.34	28652.84
678.48	28252.61
678.62	28615.39
678.76	28210.48
678.90	28641.14
679.04	28428.15
679.18	28421.13
679.31	27971.74
679.45	27725.99
679.59	27721.30
679.73	27950.68
679.87	27711.94
680.00	27557.47
680.14	27983.44
680.28	27531.72
680.42	27536.40
680.56	27524.70
680.70	27463.85
680.83	27337.46
680.97	26925.52
681.11	26859.99
681.25	26668.06
681.39	27124.47
681.52	26544.02
681.66	26927.86
681.80	26663.38
681.94	26492.52
682.07	26431.67
682.21	26174.21
682.35	26087.61
682.49	26511.25
682.62	25858.24
682.76	25972.92
682.90	26204.64
683.04	25860.58
683.17	25680.36
683.31	25942.50
683.45	25979.95
683.59	25238.00
683.72	25273.10
683.86	25191.19
684.00	25303.53
684.13	25387.79
684.27	25200.55
684.41	25179.48
684.55	24706.70
684.68	24755.85
684.82	24713.72
684.96	24783.93
685.09	24575.62
685.23	24205.82
685.37	24425.83
685.50	24474.98
685.64	24545.20
685.78	24608.39
685.91	24329.87
686.05	23901.55
686.19	23534.09
686.32	24364.98
686.46	23786.86
686.60	23538.77
686.73	23758.78
686.87	23206.41
687.01	23491.96
687.14	23175.98
687.28	22820.22
687.42	23152.58
687.55	22738.30
687.69	22852.99
687.82	22684.47
687.96	22892.78
688.10	22611.92
688.23	22506.59
688.37	22546.38
688.50	22225.73
688.64	22317.01
688.78	22249.13
688.91	22139.13
689.05	22050.19
689.18	22043.17
689.32	21741.24
689.46	21781.03
689.59	22291.26
689.73	21991.67
689.86	21876.99
690.00	21724.85
690.13	21701.45
690.27	21390.16
690.41	21556.33
690.54	21142.06
690.68	21177.17
690.81	21137.38
690.95	20636.50
691.08	20982.90
691.22	21088.23
691.35	21120.99
691.49	20798.00
691.62	20655.23
691.76	20767.57
691.89	20617.78
692.03	20367.34
692.16	20439.90
692.30	20154.35
692.43	20034.99
692.57	19499.00
692.70	20252.66
692.84	20109.88
692.97	19915.62
693.11	19936.68
693.24	19693.27
693.38	19733.06
693.51	19356.23
693.65	19503.68
693.78	19609.01
693.92	19758.80
694.05	19030.90
694.19	19138.56
694.32	19159.63
694.45	18913.87
694.59	18960.68
694.72	18946.64
694.86	19005.15
694.99	18806.20
695.13	18544.06
695.26	18403.63
695.39	18377.89
695.53	18169.58
695.66	18169.58
695.80	18045.53
695.93	18314.69
696.07	18057.23
696.20	18082.98
696.33	18120.43
696.47	18104.04
696.60	17755.30
696.73	17593.81
696.87	17479.12
697.00	18026.81
697.14	17600.83
697.27	17525.93
697.40	17198.26
697.54	17329.33
697.67	16978.25
697.80	16875.26
697.94	16936.12
698.07	16844.84
698.21	16865.90
698.34	16833.13
698.47	16793.34
698.61	16786.32
698.74	16540.57
698.87	16786.32
699.01	16400.13
699.14	16152.04
699.27	16458.65
699.40	16432.90
699.54	16233.96
699.67	15981.18
699.80	16147.36
699.94	15936.71
700.07	16077.14
700.20	15742.44
700.34	15786.91
700.47	15623.08
700.60	15733.08
700.73	15988.20
700.87	15742.44
701.00	15391.36
701.13	15204.12
701.26	15407.75
701.40	15227.53
701.53	15255.61
701.66	15309.44
701.79	15178.37
701.93	15026.24
702.06	15243.91
702.19	14913.89
702.32	14965.39
702.46	14740.69
702.59	14466.85
702.72	14820.27
702.85	14675.16
702.99	14745.38
703.12	14801.55
703.25	14541.75
703.38	14295.99
703.51	14216.41
703.65	14162.58
703.78	14319.40
703.91	14136.84
704.04	13975.34
704.17	13771.71
704.31	14015.13
704.44	13870.01
704.57	13647.66
704.70	13469.78
704.83	13699.16
704.96	13916.83
705.10	13734.26
705.23	13762.35
>>>>>End Processed Spectral Data<<<<<
