SpectraSuite Data File
++++++++++++++++++++++++++++++++++++
Date: Fri Oct 25 10:48:19 EDT 2013
User: price-jones
Dark Spectrum Present: No
Reference Spectrum Present: No
Number of Sampled Component Spectra: 1
Spectrometers: USB2+H05261
Integration Time (usec): 100000 (USB2+H05261)
Spectra Averaged: 1 (USB2+H05261)
Boxcar Smoothing: 0 (USB2+H05261)
Correct for Electrical Dark: No (USB2+H05261)
Strobe/Lamp Enabled: No (USB2+H05261)
Correct for Detector Non-linearity: No (USB2+H05261)
Correct for Stray Light: No (USB2+H05261)
Number of Pixels in Processed Spectrum: 2048
>>>>>Begin Processed Spectral Data<<<<<
365.73	180.22
365.92	180.22
366.12	180.22
366.32	44.47
366.52	28.09
366.72	46.81
366.91	0.00
367.11	30.43
367.31	0.00
367.51	7.02
367.70	65.54
367.90	23.41
368.10	49.15
368.30	53.83
368.49	49.15
368.69	53.83
368.89	95.96
369.09	56.17
369.28	119.37
369.48	46.81
369.68	74.90
369.87	119.37
370.07	51.49
370.27	110.01
370.47	217.67
370.66	442.36
370.86	456.40
371.06	428.32
371.25	538.32
371.45	489.17
371.65	540.66
371.84	573.43
372.04	486.83
372.24	489.17
372.44	507.90
372.63	601.52
372.83	568.75
373.03	606.20
373.22	482.15
373.42	505.56
373.62	507.90
373.81	603.86
374.01	535.98
374.21	601.52
374.40	578.11
374.60	662.37
374.79	603.86
374.99	610.88
375.19	566.41
375.38	594.50
375.58	528.96
375.78	655.35
375.97	599.18
376.17	638.97
376.37	617.90
376.56	636.63
376.76	566.41
376.95	636.63
377.15	718.54
377.35	674.07
377.54	690.46
377.74	669.39
377.93	615.56
378.13	713.86
378.33	657.69
378.52	566.41
378.72	718.54
378.91	669.39
379.11	638.97
379.31	748.97
379.50	629.60
379.70	711.52
379.89	828.55
380.09	676.41
380.28	671.73
380.48	699.82
380.68	753.65
380.87	706.84
381.07	795.78
381.26	784.08
381.46	704.50
381.65	713.86
381.85	645.99
382.04	760.67
382.24	816.85
382.43	737.27
382.63	678.76
382.83	741.95
383.02	706.84
383.22	746.63
383.41	814.51
383.61	772.38
383.80	819.19
384.00	709.18
384.19	795.78
384.39	866.00
384.58	774.72
384.78	833.23
384.97	854.30
385.17	809.83
385.36	851.96
385.56	798.12
385.75	844.93
385.95	877.70
386.14	929.19
386.34	858.98
386.53	835.57
386.72	901.11
386.92	873.02
387.11	940.90
387.31	887.06
387.50	858.98
387.70	926.85
387.89	987.71
388.09	994.73
388.28	983.02
388.48	889.40
388.67	999.41
388.86	961.96
389.06	968.98
389.25	1022.81
389.45	1015.79
389.64	999.41
389.84	1046.22
390.03	1097.71
390.22	1090.69
390.42	983.02
390.61	1128.14
390.81	1048.56
391.00	1107.07
391.19	1196.01
391.39	1083.67
391.58	1158.57
391.78	1121.12
391.97	1210.06
392.16	1121.12
392.36	1086.01
392.55	1036.86
392.75	1039.20
392.94	1097.71
393.13	1095.37
393.33	1039.20
393.52	1062.60
393.71	1100.05
393.91	1149.20
394.10	1137.50
394.29	1226.44
394.49	1277.93
394.68	1221.76
394.88	1313.04
395.07	1210.06
395.26	1270.91
395.46	1336.45
395.65	1249.85
395.84	1280.27
396.04	1324.74
396.23	1212.40
396.42	1191.33
396.62	1231.12
396.81	1263.89
397.00	1263.89
397.19	1289.64
397.39	1399.64
397.58	1446.45
397.77	1446.45
397.97	1544.75
398.16	1493.26
398.35	1577.52
398.55	1481.56
398.74	1603.27
398.93	1640.72
399.12	1500.28
399.32	1504.96
399.51	1542.41
399.70	1671.14
399.90	1619.65
400.09	1750.72
400.28	1645.40
400.47	1612.63
400.67	1839.66
400.86	1710.93
401.05	1820.94
401.24	1832.64
401.44	1811.57
401.63	1741.36
401.82	1935.62
402.01	1804.55
402.21	1727.32
402.40	1952.01
402.59	1830.30
402.78	1839.66
402.97	1736.68
403.17	1909.88
403.36	1781.15
403.55	1961.37
403.74	1944.99
403.93	1980.09
404.13	1870.09
404.32	1877.11
404.51	1977.75
404.70	1987.11
404.89	1956.69
405.09	2120.53
405.28	2059.67
405.47	1968.39
405.66	2054.99
405.85	2022.22
406.05	2005.84
406.24	2090.10
406.43	2200.10
406.62	2169.68
406.81	2298.41
407.00	2174.36
407.20	2232.87
407.39	2125.21
407.58	2263.30
407.77	2221.17
407.96	2335.85
408.15	2459.90
408.34	2354.58
408.54	2279.68
408.73	2385.01
408.92	2382.67
409.11	2385.01
409.30	2356.92
409.49	2513.74
409.68	2401.39
409.87	2455.22
410.07	2392.03
410.26	2441.18
410.45	2485.65
410.64	2527.78
410.83	2647.15
411.02	2703.32
411.21	2729.06
411.40	2668.21
411.59	2722.04
411.78	2743.11
411.98	2733.75
412.17	2820.35
412.36	2794.60
412.55	2869.50
412.74	2874.18
412.93	2801.62
413.12	2810.98
413.31	3117.59
413.50	2904.60
413.69	2902.26
413.88	3019.29
414.07	2839.07
414.26	3136.32
414.45	3042.70
414.64	3091.85
414.83	3218.24
415.02	3098.87
415.22	3248.66
415.41	3258.03
415.60	3377.39
415.79	3290.79
415.98	3328.24
416.17	3339.94
416.36	3368.03
416.55	3431.23
416.74	3421.86
416.93	3351.65
417.12	3442.93
417.31	3370.37
417.50	3459.31
417.69	3637.19
417.88	3562.30
418.07	3714.43
418.26	3581.02
418.45	3543.57
418.64	3698.05
418.83	3749.54
419.02	3667.62
419.21	3810.39
419.39	3705.07
419.58	3740.18
419.77	3695.71
419.96	3801.03
420.15	3847.84
420.34	3941.46
420.53	3838.48
420.72	4100.62
420.91	4016.36
421.10	3955.51
421.29	4166.15
421.48	4021.04
421.67	3941.46
421.86	4074.87
422.05	3906.35
422.24	3894.65
422.43	3859.54
422.61	3915.72
422.80	4084.23
422.99	3960.19
423.18	4194.24
423.37	4091.26
423.56	4173.18
423.75	4060.83
423.94	3981.25
424.13	3861.88
424.32	3866.56
424.50	4067.85
424.69	4187.22
424.88	4147.43
425.07	4070.19
425.26	3934.44
425.45	4065.51
425.64	4060.83
425.83	4081.89
426.01	4238.71
426.20	4051.47
426.39	4329.99
426.58	4042.11
426.77	4112.32
426.96	4163.81
427.15	4203.60
427.33	4198.92
427.52	4121.68
427.71	4285.52
427.90	4250.41
428.09	4301.90
428.28	4315.95
428.46	4234.03
428.65	4337.01
428.84	4442.34
429.03	4465.74
429.22	4332.33
429.40	4301.90
429.59	4397.87
429.78	4105.30
429.97	4042.11
430.16	4004.66
430.34	4278.50
430.53	4294.88
430.72	4379.14
430.91	4362.76
431.10	4484.47
431.28	4706.82
431.47	4805.12
431.66	4690.43
431.85	4755.97
432.03	4807.46
432.22	4793.42
432.41	4901.08
432.60	4805.12
432.79	4938.53
432.97	5006.41
433.16	4952.57
433.35	4812.14
433.54	4812.14
433.72	4777.03
433.91	4938.53
434.10	4868.31
434.28	4880.02
434.47	4931.51
434.66	5062.58
434.85	5172.58
435.03	5191.31
435.22	5121.09
435.41	5240.46
435.59	5224.08
435.78	5242.80
435.97	5460.47
436.16	5521.32
436.34	5275.57
436.53	5235.78
436.72	5298.97
436.90	5284.93
437.09	5444.09
437.28	5378.55
437.46	5554.09
437.65	5406.64
437.84	5364.51
438.02	5352.81
438.21	5387.91
438.40	5233.44
438.58	5565.79
438.77	5577.50
438.96	5657.07
439.14	5851.34
439.33	5839.64
439.52	5724.95
439.70	5666.44
439.89	6031.56
440.08	5844.32
440.26	5928.58
440.45	6019.86
440.63	6155.61
440.82	6225.82
441.01	6218.80
441.19	6214.12
441.38	6452.86
441.57	6354.55
441.75	6377.96
441.94	6551.16
442.12	6595.63
442.31	6682.23
442.50	6609.67
442.68	6520.73
442.87	6452.86
443.05	6487.96
443.24	6782.87
443.43	6761.81
443.61	6782.87
443.80	6834.36
443.98	6586.27
444.17	6546.48
444.35	6595.63
444.54	6839.05
444.73	6965.43
444.91	6696.27
445.10	6731.38
445.28	6895.22
445.47	6820.32
445.65	6509.03
445.84	6841.39
446.02	6946.71
446.21	6637.76
446.39	6846.07
446.58	6857.77
446.77	6925.65
446.95	6836.70
447.14	7028.63
447.32	7110.55
447.51	6995.86
447.69	6981.82
447.88	7133.95
448.06	6944.37
448.25	6991.18
448.43	6974.80
448.62	6988.84
448.80	7054.37
448.99	7155.02
449.17	7180.76
449.36	7042.67
449.54	7297.79
449.73	7382.05
449.91	7459.29
450.10	7325.88
450.28	7583.34
450.46	7466.31
450.65	7440.56
450.83	7475.67
451.02	7466.31
451.20	7515.46
451.39	7363.33
451.57	7456.95
451.76	7513.12
451.94	7412.48
452.13	7569.29
452.31	7485.03
452.49	7311.83
452.68	7461.63
452.86	7316.51
453.05	7485.03
453.23	7550.57
453.42	7543.55
453.60	7513.12
453.78	7836.11
453.97	7793.98
454.15	7772.92
454.34	7564.61
454.52	7871.22
454.70	7822.07
454.89	7716.75
455.07	7744.83
455.26	7843.14
455.44	8011.65
455.62	7911.01
455.81	8121.66
455.99	8168.47
456.17	8013.99
456.36	8203.58
456.54	8100.59
456.73	8212.94
456.91	8496.14
457.09	8498.49
457.28	8603.81
457.46	8353.37
457.64	8341.67
457.83	8315.92
458.01	8425.93
458.19	8589.77
458.38	8608.49
458.56	8608.49
458.74	8547.64
458.93	8456.36
459.11	8617.85
459.29	8596.79
459.48	8685.73
459.66	8692.75
459.84	8568.70
460.03	8891.70
460.21	8919.78
460.39	8739.56
460.57	8856.59
460.76	8957.23
460.94	8959.57
461.12	8833.18
461.31	9032.13
461.49	8917.44
461.67	8854.25
461.85	9231.07
462.04	8975.95
462.22	9640.67
462.40	9268.52
462.59	9076.60
462.77	9156.18
462.95	9111.71
463.13	9317.67
463.32	9125.75
463.50	9528.32
463.68	9270.86
463.86	9490.87
464.05	9202.99
464.23	9240.44
464.41	9500.23
464.59	9329.38
464.78	9612.58
464.96	9502.58
465.14	9380.87
465.32	9486.19
465.50	9666.41
465.69	9568.11
465.87	9511.94
466.05	9462.79
466.23	9369.16
466.41	9497.89
466.60	9710.88
466.78	9371.50
466.96	9556.41
467.14	9825.57
467.32	9645.35
467.51	9736.63
467.69	9462.79
467.87	9853.66
468.05	9713.22
468.23	9743.65
468.41	9659.39
468.60	9837.27
468.78	9949.62
468.96	9933.23
469.14	10019.83
469.32	10246.87
469.50	9767.06
469.69	10122.82
469.87	10029.20
470.05	10307.72
470.23	10064.30
470.41	10171.97
470.59	10331.12
470.77	10068.98
470.95	10459.85
471.14	10539.43
471.32	10396.66
471.50	10572.20
471.68	10794.55
471.86	10665.82
472.04	10647.10
472.22	11056.69
472.40	10614.33
472.58	10654.12
472.77	10803.91
472.95	10810.93
473.13	11314.15
473.31	10860.09
473.49	10810.93
473.67	10815.62
473.85	11084.78
474.03	11351.60
474.21	11499.05
474.39	11625.44
474.57	11487.35
474.75	11576.29
474.93	11435.86
475.12	11597.35
475.30	11613.74
475.48	11599.70
475.66	11817.36
475.84	11634.80
476.02	11777.58
476.20	11686.29
476.38	12058.44
476.56	12051.42
476.74	12037.38
476.92	12271.43
477.10	12329.94
477.28	12587.40
477.46	12390.80
477.64	12762.94
477.82	12774.64
478.00	13125.72
478.18	12877.63
478.36	13069.55
478.54	12922.10
478.72	12992.31
478.90	13355.10
479.08	13518.93
479.26	13481.49
479.44	13776.39
479.62	13610.22
479.80	13921.51
479.98	13956.61
480.16	14174.28
480.34	13867.67
480.52	14237.48
480.70	14295.99
480.88	14160.24
481.06	14473.87
481.24	14375.57
481.41	15037.94
481.59	14932.62
481.77	14775.80
481.95	15129.22
482.13	15152.63
482.31	14841.34
482.49	15463.92
482.67	15353.91
482.85	15339.87
483.03	15550.52
483.21	15690.95
483.39	15772.87
483.57	15676.91
483.74	15999.90
483.92	16067.78
484.10	15943.73
484.28	16376.73
484.46	16673.98
484.64	16978.25
484.82	16589.72
485.00	16861.22
485.18	17006.33
485.35	17071.87
485.53	16865.90
485.71	16500.78
485.89	17041.44
486.07	16882.28
486.25	17184.21
486.43	17252.09
486.61	17554.02
486.78	17872.33
486.96	17767.01
487.14	18307.67
487.32	18293.63
487.50	18455.12
487.68	18710.24
487.85	18991.11
488.03	19042.60
488.21	19222.82
488.39	19087.07
488.57	19178.35
488.75	19513.05
488.92	19756.46
489.10	20046.69
489.28	19953.07
489.46	20369.68
489.64	20231.59
489.81	20868.22
489.99	20915.03
490.17	20627.14
490.35	21385.47
490.53	20931.41
490.70	21247.38
490.88	21308.24
491.06	21460.37
491.24	21486.12
491.41	21645.27
491.59	21209.93
491.77	21362.07
491.95	21689.74
492.13	21694.43
492.30	22305.31
492.48	22352.12
492.66	22527.66
492.84	22569.79
493.01	22857.67
493.19	22614.26
493.37	22955.97
493.54	23288.33
493.72	23548.13
493.90	23335.14
494.08	23702.61
494.25	23901.55
494.43	24196.46
494.61	24231.57
494.79	24128.58
494.96	24123.90
495.14	24360.30
495.32	24484.34
495.49	24425.83
495.67	24671.59
495.85	25200.55
496.02	25340.98
496.20	25357.36
496.38	25329.28
496.55	25429.92
496.73	25743.55
496.91	25528.22
497.09	25993.99
497.26	26089.95
497.44	26047.82
497.62	25937.82
497.79	26113.36
497.97	25935.48
498.14	25944.84
498.32	26359.11
498.50	26480.82
498.67	26911.48
498.85	27033.19
499.03	26951.27
499.20	27349.16
499.38	27108.08
499.56	27351.50
499.73	27459.16
499.91	27110.43
500.08	27679.18
500.26	27531.72
500.44	27758.75
500.61	27824.29
500.79	27524.70
500.97	27931.95
501.14	27864.08
501.32	28156.64
501.49	28130.90
501.67	28381.34
501.84	28067.70
502.02	28496.02
502.20	28547.51
502.37	28893.91
502.55	28795.61
502.72	29046.05
502.90	29165.42
503.07	29177.12
503.25	28889.23
503.43	28952.43
503.60	28966.47
503.78	28987.53
503.95	29235.63
504.13	29816.08
504.30	29635.86
504.48	29483.73
504.65	30106.31
504.83	30082.91
505.01	30401.22
505.18	30181.21
505.36	30459.73
505.53	30267.81
505.71	30834.22
505.88	30635.27
506.06	30579.10
506.23	30426.96
506.41	30120.35
506.58	30881.03
506.76	30838.90
506.93	31023.80
507.11	30862.30
507.28	31077.63
507.46	30857.62
507.63	31150.19
507.81	31454.46
507.98	30654.00
508.16	31255.51
508.33	31754.05
508.50	31878.10
508.68	31955.33
508.85	32154.28
509.03	32283.01
509.20	32460.89
509.38	32018.53
509.55	32184.71
509.73	32559.19
509.90	32320.46
510.08	32304.07
510.25	32149.60
510.42	32657.49
510.60	32884.53
510.77	33081.13
510.95	33228.59
511.12	32924.32
511.30	32966.45
511.47	33345.61
511.64	32966.45
511.82	33684.99
511.99	32797.93
512.17	33385.40
512.34	32929.00
512.51	33301.14
512.69	33701.37
512.86	33013.26
513.04	33909.68
513.21	34132.03
513.38	34022.03
513.56	33862.87
513.73	33855.85
513.90	34417.58
514.08	34080.54
514.25	33839.47
514.43	34267.78
514.60	34216.29
514.77	34153.10
514.95	34555.67
515.12	34815.47
515.29	34429.28
515.47	35028.46
515.64	35295.28
515.81	34850.58
515.99	34916.11
516.16	34375.45
516.33	34494.82
516.51	34450.35
516.68	33986.92
516.85	34223.31
517.03	34740.57
517.20	34934.84
517.37	35026.12
517.54	35330.39
517.72	35725.94
517.89	35096.33
518.06	35314.00
518.24	35222.72
518.41	35398.26
518.58	35435.71
518.75	35477.84
518.93	35976.37
519.10	36051.27
519.27	36385.97
519.45	35913.18
519.62	36517.04
519.79	36271.28
519.96	36575.55
520.14	36273.62
520.31	36388.31
520.48	36538.10
520.65	36584.91
520.83	36591.94
521.00	36954.72
521.17	36856.42
521.34	36835.35
521.52	37146.64
521.69	37310.48
521.86	37596.03
522.03	37537.51
522.20	37170.05
522.38	37663.90
522.55	37661.56
522.72	37500.06
522.89	37397.08
523.07	37715.39
523.24	37919.02
523.41	37968.17
523.58	38220.95
523.75	38452.66
523.92	38089.88
524.10	38129.67
524.27	38349.68
524.44	38557.99
524.61	38497.13
524.78	38518.20
524.96	38586.07
525.13	38452.66
525.30	38888.00
525.47	39196.95
525.64	38895.02
525.81	38766.29
525.98	38532.24
526.16	38712.46
526.33	38462.02
526.50	38925.45
526.67	38452.66
526.84	38721.82
527.01	38569.69
527.18	38862.26
527.36	38824.81
527.53	39393.56
527.70	39941.24
527.87	39454.41
528.04	39005.03
528.21	40107.42
528.38	39957.63
528.55	39847.62
528.72	39732.93
528.89	40584.89
529.07	40011.46
529.24	39260.15
529.41	40259.55
529.58	39587.82
529.75	39655.70
529.92	40030.18
530.09	40306.37
530.26	40493.61
530.43	40304.02
530.60	40582.55
530.77	40582.55
530.94	40800.22
531.11	40512.33
531.28	41034.27
531.46	41017.89
531.63	40947.67
531.80	40804.90
531.97	40814.26
532.14	40545.10
532.31	40381.26
532.48	40627.02
532.65	40928.95
532.82	40900.86
532.99	40903.20
533.16	40786.18
533.33	41420.46
533.50	41235.56
533.67	41139.60
533.84	40926.61
534.01	40907.88
534.18	41123.21
534.35	41933.04
534.52	41364.29
534.69	41102.15
534.86	41743.45
535.03	41596.00
535.20	41780.90
535.37	41787.92
535.54	42459.66
535.71	42174.11
535.88	42064.11
536.05	41574.94
536.22	42115.60
536.38	42183.48
536.55	41998.57
536.72	41706.01
536.89	41888.57
537.06	41736.43
537.23	42225.60
537.40	41937.72
537.57	42043.04
537.74	42108.58
537.91	42319.23
538.08	42464.34
538.25	42270.08
538.42	42492.43
538.59	42667.97
538.75	41963.46
538.92	43030.75
539.09	42520.51
539.26	42670.31
539.43	42494.77
539.60	42492.43
539.77	42822.44
539.94	43014.37
540.11	42382.42
540.28	42831.80
540.44	42581.37
540.61	42646.90
540.78	42454.98
540.95	42813.08
541.12	42845.85
541.29	43136.07
541.46	42766.27
541.62	43283.53
541.79	43292.89
541.96	42913.72
542.13	42904.36
542.30	43166.50
542.47	43164.16
542.63	43096.28
542.80	43566.73
542.97	43728.23
543.14	43959.94
543.31	43934.20
543.48	43812.49
543.64	44334.43
543.81	44215.06
543.98	44062.93
544.15	43936.54
544.32	43590.14
544.48	44259.53
544.65	44294.64
544.82	44126.12
544.99	43803.13
545.16	43901.43
545.32	44055.90
545.49	44339.11
545.66	44842.32
545.83	44060.58
546.00	44678.49
546.16	44341.45
546.33	44289.96
546.50	44109.74
546.67	44769.77
546.83	44430.39
547.00	44311.02
547.17	44215.06
547.34	44348.47
547.50	44811.90
547.67	44973.39
547.84	44514.65
548.00	44896.16
548.17	45155.96
548.34	44858.71
548.51	45071.70
548.67	44957.01
548.84	45184.04
549.01	44783.81
549.18	45155.96
549.34	45024.89
549.51	44973.39
549.68	45226.17
549.84	45212.13
550.01	44858.71
550.18	44676.15
550.34	45390.01
550.51	45006.16
550.68	44961.69
550.84	44952.33
551.01	45450.86
551.18	45242.56
551.34	44847.00
551.51	45118.51
551.68	45256.60
551.84	45291.71
552.01	45588.95
552.18	45633.42
552.34	45162.98
552.51	46000.89
552.68	45366.60
552.84	45308.09
553.01	45942.38
553.18	45741.09
553.34	45666.19
553.51	45265.96
553.67	45408.73
553.84	45815.99
554.01	46204.52
554.17	46059.40
554.34	46014.93
554.51	46021.95
554.67	46251.33
554.84	46153.02
555.00	45722.37
555.17	45628.74
555.33	46019.61
555.50	45977.48
555.67	45975.14
555.83	45855.78
556.00	45787.90
556.16	46239.62
556.33	46071.10
556.50	45977.48
556.66	46368.35
556.83	45818.33
556.99	46082.81
557.16	46351.97
557.32	46270.05
557.49	46148.34
557.65	45888.54
557.82	46167.07
557.98	46213.88
558.15	46190.47
558.32	46136.64
558.48	46028.98
558.65	46078.13
558.81	46026.63
558.98	46185.79
559.14	46256.01
559.31	46204.52
559.47	46422.19
559.64	46382.40
559.80	46555.60
559.97	46110.89
560.13	46045.36
560.30	46309.84
560.46	47056.47
560.63	46265.37
560.79	46801.35
560.96	46965.19
561.12	46618.79
561.29	46841.14
561.45	46361.33
561.61	46777.95
561.78	46014.93
561.94	46326.22
562.11	46637.51
562.27	47044.77
562.44	46333.24
562.60	46782.63
562.77	47070.51
562.93	46368.35
563.10	47051.79
563.26	46644.54
563.42	46777.95
563.59	46986.25
563.75	46564.96
563.92	47313.93
564.08	46873.91
564.24	46955.83
564.41	46852.84
564.57	46550.91
564.74	46813.05
564.90	47068.17
565.07	47168.82
565.23	46686.67
565.39	46820.08
565.56	47370.10
565.72	46979.23
565.88	47103.28
566.05	47133.71
566.21	46738.16
566.38	46766.24
566.54	46979.23
566.70	47318.61
566.87	47384.15
567.03	46871.57
567.19	47316.27
567.36	47049.45
567.52	46848.16
567.68	47140.73
567.85	46916.04
568.01	46539.21
568.17	46981.57
568.34	46843.48
568.50	47058.81
568.66	47138.39
568.83	47250.74
568.99	47196.90
569.15	47229.67
569.32	46923.06
569.48	46965.19
569.64	47232.01
569.81	47157.11
569.97	46934.76
570.13	47040.09
570.30	46951.15
570.46	47117.32
570.62	46775.61
570.78	46754.54
570.95	47026.04
571.11	47377.12
571.27	47412.23
571.43	46583.68
571.60	47246.05
571.76	47206.26
571.92	47217.97
572.09	47168.82
572.25	46763.90
572.41	46876.25
572.57	47320.95
572.74	47632.24
572.90	46990.94
573.06	47271.80
573.22	47126.69
573.38	47313.93
573.55	47114.98
573.71	47892.04
573.87	47236.69
574.03	47098.60
574.20	47152.43
574.36	46799.01
574.52	46820.08
574.68	47306.91
574.84	47356.06
575.01	47208.61
575.17	47058.81
575.33	47194.56
575.49	47145.41
575.65	47423.93
575.82	47014.34
575.98	47051.79
576.14	47477.77
576.30	47442.66
576.46	47334.99
576.62	47119.66
576.79	47421.59
576.95	46979.23
577.11	47079.88
577.27	46995.62
577.43	47665.01
577.59	46815.40
577.75	47145.41
577.92	46490.06
578.08	46663.26
578.24	46937.10
578.40	47248.39
578.56	47409.89
578.72	47182.86
578.88	47786.72
579.04	47358.40
579.21	47255.42
579.37	47187.54
579.53	47093.92
579.69	47138.39
579.85	47440.32
580.01	47309.25
580.17	47421.59
580.33	47562.03
580.49	47213.29
580.65	47309.25
580.82	47442.66
580.98	47276.48
581.14	47159.45
581.30	47426.28
581.46	46948.81
581.62	47924.81
581.78	47051.79
581.94	47880.34
582.10	47601.82
582.26	47643.94
582.42	47187.54
582.58	47423.93
582.74	47304.57
582.90	47250.74
583.06	47496.49
583.22	47285.84
583.38	47611.18
583.54	47606.50
583.70	47412.23
583.86	47227.33
584.02	46890.29
584.18	47309.25
584.34	47627.56
584.50	47430.96
584.66	47388.83
584.82	47395.85
584.98	47302.23
585.14	47056.47
585.30	47377.12
585.46	47587.77
585.62	47590.11
585.78	46983.91
585.94	46979.23
586.10	47339.68
586.26	47056.47
586.42	47147.75
586.58	47896.72
586.74	47503.51
586.90	46761.56
587.06	47311.59
587.22	47543.30
587.38	47119.66
587.54	47772.67
587.70	47650.97
587.86	47772.67
588.02	47320.95
588.18	47367.76
588.34	47100.94
588.49	46684.33
588.65	46635.17
588.81	46265.37
588.97	46410.48
589.13	47283.50
589.29	47243.71
589.45	46838.80
589.61	47695.44
589.77	47246.05
589.93	46925.40
590.08	47540.96
590.24	47178.18
590.40	47278.82
590.56	47414.57
590.72	47552.66
590.88	47309.25
591.04	47526.92
591.20	47676.71
591.35	47246.05
591.51	47798.42
591.67	47725.86
591.83	47557.35
591.99	47203.92
592.15	47068.17
592.31	47789.06
592.46	47847.57
592.62	47503.51
592.78	47351.38
592.94	47494.15
593.10	47349.04
593.26	47571.39
593.41	47416.91
593.57	47414.57
593.73	47407.55
593.89	47512.88
594.05	47164.14
594.20	47208.61
594.36	47838.21
594.52	47416.91
594.68	47835.87
594.84	47704.80
594.99	47491.81
595.15	47473.09
595.31	47590.11
595.47	47618.20
595.62	47400.53
595.78	47255.42
595.94	47124.35
596.10	47679.05
596.25	47852.25
596.41	47615.86
596.57	47852.25
596.73	48034.81
596.88	47608.84
597.04	47372.44
597.20	47306.91
597.36	47618.20
597.51	48172.91
597.67	47594.79
597.83	47880.34
597.99	47650.97
598.14	47491.81
598.30	47695.44
598.46	47583.09
598.61	47704.80
598.77	47372.44
598.93	47304.57
599.09	47679.05
599.24	47936.51
599.40	47648.63
599.56	47360.74
599.71	47454.36
599.87	47805.44
600.03	47463.72
600.18	47250.74
600.34	47566.71
600.50	47576.07
600.65	47585.43
600.81	47817.14
600.97	47421.59
601.12	47934.17
601.28	47917.79
601.44	47753.95
601.59	47470.75
601.75	47112.64
601.91	47550.32
602.06	47545.64
602.22	47791.40
602.37	47529.26
602.53	47674.37
602.69	47908.43
602.84	47737.57
603.00	47463.72
603.16	47470.75
603.31	47772.67
603.47	47494.15
603.62	47505.85
603.78	47505.85
603.94	47117.32
604.09	47515.22
604.25	47562.03
604.40	47274.14
604.56	47185.20
604.71	47608.84
604.87	47550.32
605.03	47629.90
605.18	47510.53
605.34	47676.71
605.49	47138.39
605.65	47320.95
605.80	47545.64
605.96	47466.06
606.12	47559.69
606.27	47171.16
606.43	46871.57
606.58	47599.47
606.74	47063.49
606.89	47098.60
607.05	47276.48
607.20	47489.47
607.36	47421.59
607.51	47557.35
607.67	47468.40
607.82	47480.11
607.98	47129.03
608.13	46883.27
608.29	47250.74
608.44	46927.74
608.60	47070.51
608.75	46976.89
608.91	46930.08
609.06	47004.98
609.22	47334.99
609.37	47063.49
609.53	47239.03
609.68	47290.52
609.84	46855.18
609.99	47133.71
610.15	46773.27
610.30	46775.61
610.46	46593.04
610.61	47004.98
610.76	47133.71
610.92	47021.36
611.07	46450.27
611.23	46916.04
611.38	46707.73
611.54	46473.68
611.69	46333.24
611.84	46848.16
612.00	46894.97
612.15	46476.02
612.31	46909.02
612.46	46513.47
612.62	46878.59
612.77	46176.43
612.92	47100.94
613.08	46569.64
613.23	46672.62
613.39	46480.70
613.54	46209.20
613.69	46391.76
613.85	46506.44
614.00	46925.40
614.15	46850.50
614.31	46330.90
614.46	46897.31
614.62	46480.70
614.77	46384.74
614.92	46511.13
615.08	46351.97
615.23	46469.00
615.38	46291.12
615.54	46024.29
615.69	45846.41
615.84	45757.47
616.00	45914.29
616.15	45631.08
616.30	46043.02
616.46	45841.73
616.61	45925.99
616.76	46127.28
616.92	45677.90
617.07	45993.87
617.22	45675.55
617.37	45881.52
617.53	45827.69
617.68	46220.90
617.83	45862.80
617.99	46150.68
618.14	45670.87
618.29	45794.92
618.45	45607.68
618.60	45991.53
618.75	45703.64
618.90	45588.95
619.06	45956.42
619.21	46237.28
619.36	45757.47
619.51	45989.19
619.67	45654.49
619.82	45603.00
619.97	45841.73
620.12	45713.00
620.28	45741.09
620.43	45837.05
620.58	45422.78
620.73	45827.69
620.89	45205.11
621.04	45584.27
621.19	45509.38
621.34	45476.61
621.49	44729.98
621.65	45120.85
621.80	45284.68
621.95	45375.97
622.10	45223.83
622.25	45034.25
622.41	44493.58
622.56	44935.95
622.71	45343.20
622.86	45088.08
623.01	45668.53
623.16	45469.59
623.32	44893.82
623.47	45139.57
623.62	45111.49
623.77	44711.25
623.92	44875.09
624.07	44514.65
624.23	44392.94
624.38	44308.68
624.53	44680.83
624.68	44861.05
624.83	44781.47
624.98	44715.93
625.13	44568.48
625.29	44313.36
625.44	44282.94
625.59	44594.23
625.74	44261.87
625.89	44500.61
626.04	44177.61
626.19	44257.19
626.34	44755.72
626.49	44374.22
626.65	43945.90
626.80	44488.90
626.95	44112.08
627.10	44381.24
627.25	44156.55
627.40	43454.39
627.55	43875.68
627.70	43782.06
627.85	43604.18
628.00	43732.91
628.15	44105.06
628.30	44076.97
628.45	44112.08
628.60	43636.95
628.76	43981.01
628.91	44186.97
629.06	43625.25
629.21	43751.63
629.36	43072.88
629.51	43821.85
629.66	43840.57
629.81	43119.69
629.96	43875.68
630.11	43515.24
630.26	43716.53
630.41	44044.20
630.56	43456.73
630.71	43585.46
630.86	43168.84
631.01	43271.82
631.16	43627.59
631.31	42611.79
631.46	42532.22
631.61	42707.76
631.76	43255.44
631.91	43683.76
632.06	43372.47
632.21	42995.64
632.36	43494.18
632.51	42990.96
632.66	43267.14
632.81	42707.76
632.96	43033.09
633.10	42822.44
633.25	42745.20
633.40	43166.50
633.55	43489.49
633.70	42768.61
633.85	42988.62
634.00	43016.71
634.15	42965.21
634.30	43215.65
634.45	42653.92
634.60	43009.68
634.75	42616.47
634.90	42733.50
635.05	43110.33
635.19	43037.77
635.34	43138.41
635.49	42703.07
635.64	42534.56
635.79	42293.48
635.94	42340.29
636.09	42387.10
636.24	42586.05
636.39	42239.65
636.53	42459.66
636.68	42066.45
636.83	42127.30
636.98	42487.74
637.13	42380.08
637.28	42923.08
637.43	42801.38
637.57	42660.94
637.72	42384.76
637.87	42368.38
638.02	42525.19
638.17	42267.73
638.32	41991.55
638.46	42181.13
638.61	42689.03
638.76	41844.10
638.91	42057.09
639.06	41708.35
639.20	42139.00
639.35	42155.39
639.50	42010.28
639.65	41830.05
639.80	42234.97
639.94	41649.83
640.09	42162.41
640.24	41839.42
640.39	41607.70
640.54	41500.04
640.68	41801.97
640.83	42089.85
640.98	41195.77
641.13	41383.01
641.27	41670.90
641.42	41565.57
641.57	41598.34
641.72	41734.09
641.86	41111.51
642.01	40870.43
642.16	41682.60
642.31	41186.41
642.45	41350.24
642.60	40783.83
642.75	40947.67
642.90	41251.94
643.04	41265.99
643.19	40851.71
643.34	41364.29
643.48	41282.37
643.63	41207.47
643.78	41303.43
643.93	41155.98
644.07	40830.65
644.22	40896.18
644.37	40587.23
644.51	40369.56
644.66	41064.70
644.81	41006.19
644.95	40950.01
645.10	40762.77
645.25	40730.00
645.39	41036.61
645.54	41050.66
645.69	40636.38
645.83	40704.26
645.98	40830.65
646.13	40535.74
646.27	40687.87
646.42	40268.92
646.57	41010.87
646.71	40535.74
646.86	40987.46
647.00	40694.89
647.15	40430.41
647.30	40875.12
647.44	40236.15
647.59	40273.60
647.74	40521.69
647.88	40275.94
648.03	40252.53
648.17	40203.38
648.32	39959.97
648.47	40032.52
648.61	39835.92
648.76	40870.43
648.90	40201.04
649.05	40409.35
649.20	40203.38
649.34	40428.07
649.49	40102.74
649.63	39728.25
649.78	40002.10
649.92	39859.32
650.07	40219.77
650.21	39737.62
650.36	40203.38
650.51	39845.28
650.65	40165.93
650.80	40119.12
650.94	39807.83
651.09	40020.82
651.23	39653.36
651.38	39864.00
651.52	39985.71
651.67	39503.56
651.81	39974.01
651.96	39768.04
652.10	39777.40
652.25	39906.13
652.39	39571.44
652.54	39555.05
652.68	39894.43
652.83	39688.46
652.97	40105.08
653.12	39360.79
653.26	39665.06
653.41	39629.95
653.55	39522.29
653.70	38988.64
653.84	39182.91
653.99	39489.52
654.13	39466.11
654.27	38981.62
654.42	39122.05
654.56	39555.05
654.71	39227.38
654.85	39749.32
655.00	38885.66
655.14	39056.52
655.29	38632.88
655.43	38778.00
655.57	38286.48
655.72	38749.91
655.86	38431.60
656.01	38244.35
656.15	38197.54
656.30	38050.09
656.44	38274.78
656.58	38295.85
656.73	37865.19
656.87	38216.27
657.01	38452.66
657.16	38426.92
657.30	38480.75
657.45	38000.94
657.59	38321.59
657.73	38227.97
657.88	38164.78
658.02	38284.14
658.16	38307.55
658.31	38450.32
658.45	38141.37
658.60	38003.28
658.74	38080.52
658.88	38040.73
659.03	37942.42
659.17	37890.93
659.31	38176.48
659.46	37773.91
659.60	37942.42
659.74	37806.67
659.89	37680.28
660.03	37523.47
660.17	37860.51
660.32	38089.88
660.46	38213.93
660.60	37921.36
660.74	38031.36
660.89	37844.12
661.03	37184.09
661.17	37156.00
661.32	37090.47
661.46	37364.31
661.60	36580.23
661.74	37401.76
661.89	37240.26
662.03	37247.29
662.17	37539.85
662.31	37064.72
662.46	37170.05
662.60	36844.71
662.74	37193.45
662.88	36568.53
663.03	37017.91
663.17	36407.03
663.31	36486.61
663.45	36893.86
663.60	36320.43
663.74	36517.04
663.88	36540.44
664.02	36425.76
664.17	36449.16
664.31	36257.24
664.45	36400.01
664.59	36376.61
664.73	36165.96
664.88	36233.83
665.02	35955.31
665.16	36053.61
665.30	36165.96
665.44	36077.02
665.59	36058.29
665.73	35885.09
665.87	35798.49
666.01	35681.47
666.15	35461.46
666.29	36137.87
666.44	35749.34
666.58	35601.89
666.72	35803.17
666.86	36053.61
667.00	35660.40
667.14	35655.72
667.28	35306.98
667.43	35042.50
667.57	34843.56
667.71	35056.54
667.85	35159.53
667.99	34656.31
668.13	34373.11
668.27	34829.51
668.41	35229.74
668.56	34611.84
668.70	35089.31
668.84	34637.59
668.98	34534.60
669.12	34572.05
669.26	34782.70
669.40	34349.70
669.54	34574.39
669.68	34466.73
669.82	34117.99
669.96	34087.56
670.10	33832.44
670.25	34188.21
670.39	34192.89
670.53	34078.20
670.67	33736.48
670.81	34183.52
670.95	33881.60
671.09	34260.76
671.23	34029.05
671.37	34417.58
671.51	33738.82
671.65	33523.49
671.79	33191.14
671.93	33890.96
672.07	33717.76
672.21	33434.55
672.35	33247.31
672.49	33436.89
672.63	33497.75
672.77	32877.51
672.91	32828.35
673.05	32994.53
673.19	32947.72
673.33	32879.85
673.47	32851.76
673.61	32669.20
673.75	32491.32
673.89	32165.98
674.03	32144.92
674.17	32540.47
674.31	32385.99
674.45	32224.50
674.59	32102.79
674.73	32280.67
674.87	31831.29
675.01	31985.76
675.15	31936.61
675.29	31681.49
675.43	31449.78
675.56	32091.09
675.70	31398.29
675.84	31510.63
675.98	30888.05
676.12	31349.14
676.26	31197.00
676.40	30705.49
676.54	30866.98
676.68	31363.18
676.82	30850.60
676.96	30583.78
677.10	30831.88
677.23	31089.34
677.37	30450.37
677.51	30373.13
677.65	30609.53
677.79	30373.13
677.93	30419.94
678.07	29883.96
678.21	29907.37
678.34	29715.44
678.48	29989.28
678.62	29816.08
678.76	29713.10
678.90	29343.30
679.04	29390.11
679.18	29406.49
679.31	28863.49
679.45	29142.01
679.59	28985.19
679.73	29146.69
679.87	29191.16
680.00	29055.41
680.14	28940.72
680.28	28613.05
680.42	28320.48
680.56	28690.29
680.70	28425.81
680.83	28266.65
680.97	28123.88
681.11	27964.72
681.25	28011.53
681.39	28320.48
681.52	28226.86
681.66	27522.36
681.80	27761.09
681.94	27702.58
682.07	27716.62
682.21	27274.26
682.35	27566.83
682.49	27218.09
682.62	27346.82
682.76	27150.21
682.90	26820.20
683.04	26838.92
683.17	26735.94
683.31	26679.77
683.45	27302.35
683.59	25914.41
683.72	26415.29
683.86	26480.82
684.00	26412.95
684.13	26415.29
684.27	26228.04
684.41	26387.20
684.55	26120.38
684.68	25474.39
684.82	25500.14
684.96	25687.38
685.09	25575.03
685.23	25453.33
685.37	25511.84
685.50	25364.39
685.64	25493.12
685.78	25247.36
685.91	25544.61
686.05	25017.99
686.19	24629.46
686.32	24769.89
686.46	24549.88
686.60	24301.78
686.73	24168.37
686.87	23819.63
687.01	23971.77
687.14	23510.68
687.28	23709.63
687.42	23908.57
687.55	23360.89
687.69	23775.16
687.82	23679.20
687.96	23658.14
688.10	23597.28
688.23	23522.38
688.37	23096.41
688.50	23136.20
688.64	23054.28
688.78	23143.22
688.91	22691.49
689.05	22735.96
689.18	22834.27
689.32	22541.70
689.46	22555.74
689.59	22319.35
689.73	22441.06
689.86	22551.06
690.00	22562.76
690.13	22527.66
690.27	22071.25
690.41	22324.03
690.54	21790.39
690.68	21947.20
690.81	22136.79
690.95	21561.02
691.08	21703.79
691.22	21769.32
691.35	21664.00
691.49	21493.14
691.62	21448.67
691.76	21624.21
691.89	21575.06
692.03	21060.14
692.16	20994.61
692.30	21406.54
692.43	21294.19
692.57	20898.64
692.70	20678.63
692.84	20823.75
692.97	20631.82
693.11	20514.80
693.24	20465.64
693.38	20203.50
693.51	20149.67
693.65	20397.77
693.78	20556.93
693.92	20128.61
694.05	20079.46
694.19	19789.23
694.32	19880.51
694.45	19922.64
694.59	19744.76
694.72	19648.80
694.86	19496.66
694.99	19379.64
695.13	18932.59
695.26	19143.24
695.39	18941.96
695.53	19246.23
695.66	19126.86
695.80	19084.73
695.93	18909.19
696.07	18728.97
696.20	19012.17
696.33	18834.29
696.47	18633.00
696.60	18867.06
696.73	18721.95
696.87	18534.70
697.00	18363.84
697.14	18335.76
697.27	18155.54
697.40	18373.21
697.54	18218.73
697.67	17949.57
697.80	18075.96
697.94	17874.67
698.07	17530.61
698.21	17605.51
698.34	17476.78
698.47	17469.76
698.61	17373.80
698.74	17242.73
698.87	17378.48
699.01	17245.07
699.14	16936.12
699.27	16985.27
699.40	17062.51
699.54	16676.32
699.67	16748.87
699.80	16718.45
699.94	16828.45
700.07	16720.79
700.20	16416.52
700.34	16374.39
700.47	16652.91
700.60	16713.77
700.73	16306.51
700.87	16056.08
701.00	16128.63
701.13	16173.10
701.26	15992.88
701.40	16243.32
701.53	15719.04
701.66	15651.16
701.79	15594.99
701.93	15318.81
702.06	15545.84
702.19	15328.17
702.32	15566.90
702.46	15051.99
702.59	15321.15
702.72	15243.91
702.85	15016.88
702.99	15398.38
703.12	15187.74
703.25	14953.68
703.38	15007.52
703.51	14857.72
703.65	14813.25
703.78	14796.87
703.91	14869.42
704.04	14679.84
704.17	14654.09
704.31	14546.43
704.44	14085.34
704.57	14375.57
704.70	14270.25
704.83	14256.20
704.96	14284.29
705.10	14106.41
705.23	14246.84
>>>>>End Processed Spectral Data<<<<<
