SpectraSuite Data File
++++++++++++++++++++++++++++++++++++
Date: Fri Oct 25 11:33:30 EDT 2013
User: price-jones
Dark Spectrum Present: No
Reference Spectrum Present: No
Number of Sampled Component Spectra: 1
Spectrometers: USB2+H05261
Integration Time (usec): 100000 (USB2+H05261)
Spectra Averaged: 1 (USB2+H05261)
Boxcar Smoothing: 0 (USB2+H05261)
Correct for Electrical Dark: No (USB2+H05261)
Strobe/Lamp Enabled: No (USB2+H05261)
Correct for Detector Non-linearity: No (USB2+H05261)
Correct for Stray Light: No (USB2+H05261)
Number of Pixels in Processed Spectrum: 2048
>>>>>Begin Processed Spectral Data<<<<<
365.73	306.61
365.92	306.61
366.12	306.61
366.32	205.97
366.52	203.63
366.72	140.43
366.91	191.92
367.11	201.29
367.31	241.08
367.51	248.10
367.70	105.32
367.90	203.63
368.10	191.92
368.30	180.22
368.49	138.09
368.69	205.97
368.89	231.71
369.09	138.09
369.28	245.76
369.48	173.20
369.68	189.58
369.87	255.12
370.07	229.37
370.27	285.55
370.47	346.40
370.66	456.40
370.86	552.37
371.06	566.41
371.25	547.69
371.45	589.82
371.65	521.94
371.84	573.43
372.04	554.71
372.24	603.86
372.44	573.43
372.63	550.03
372.83	634.29
373.03	585.13
373.22	599.18
373.42	660.03
373.62	645.99
373.81	641.31
374.01	627.26
374.21	627.26
374.40	655.35
374.60	603.86
374.79	653.01
374.99	692.80
375.19	627.26
375.38	676.41
375.58	617.90
375.78	744.29
375.97	580.45
376.17	725.57
376.37	678.76
376.56	709.18
376.76	681.10
376.95	671.73
377.15	620.24
377.35	620.24
377.54	664.71
377.74	657.69
377.93	739.61
378.13	744.29
378.33	709.18
378.52	692.80
378.72	657.69
378.91	660.03
379.11	711.52
379.31	734.93
379.50	706.84
379.70	718.54
379.89	751.31
380.09	737.27
380.28	697.48
380.48	629.60
380.68	763.01
380.87	688.12
381.07	727.91
381.26	784.08
381.46	744.29
381.65	704.50
381.85	835.57
382.04	770.04
382.24	784.08
382.43	795.78
382.63	795.78
382.83	816.85
383.02	772.38
383.22	802.80
383.41	627.26
383.61	748.97
383.80	751.31
384.00	833.23
384.19	798.12
384.39	854.30
384.58	875.36
384.78	882.38
384.97	833.23
385.17	868.34
385.36	788.76
385.56	840.25
385.75	809.83
385.95	901.11
386.14	910.47
386.34	781.74
386.53	828.55
386.72	856.64
386.92	830.89
387.11	884.72
387.31	957.28
387.50	833.23
387.70	814.51
387.89	919.83
388.09	891.74
388.28	961.96
388.48	882.38
388.67	933.87
388.86	950.26
389.06	894.08
389.25	1006.43
389.45	924.51
389.64	933.87
389.84	1001.75
390.03	898.77
390.22	968.98
390.42	950.26
390.61	1004.09
390.81	992.39
391.00	1064.94
391.19	1001.75
391.39	971.32
391.58	983.02
391.78	1111.75
391.97	1008.77
392.16	985.37
392.36	997.07
392.55	1081.33
392.75	1015.79
392.94	1086.01
393.13	1039.20
393.33	1071.97
393.52	1090.69
393.71	1097.71
393.91	1046.22
394.10	1029.84
394.29	1132.82
394.49	1057.92
394.68	1170.27
394.88	1121.12
395.07	1252.19
395.26	1207.72
395.46	1114.10
395.65	1156.22
395.84	1205.38
396.04	1200.69
396.23	1205.38
396.42	1252.19
396.62	1203.04
396.81	1181.97
397.00	1238.14
397.19	1212.40
397.39	1256.87
397.58	1217.08
397.77	1167.93
397.97	1221.76
398.16	1275.59
398.35	1303.68
398.55	1287.29
398.74	1242.82
398.93	1362.19
399.12	1270.91
399.32	1224.10
399.51	1268.57
399.70	1357.51
399.90	1320.06
400.09	1336.45
400.28	1385.60
400.47	1441.77
400.67	1486.24
400.86	1394.96
401.05	1392.62
401.24	1427.73
401.44	1500.28
401.63	1465.18
401.82	1495.60
402.01	1488.58
402.21	1500.28
402.40	1490.92
402.59	1486.24
402.78	1511.99
402.97	1593.90
403.17	1530.71
403.36	1596.25
403.55	1568.16
403.74	1596.25
403.93	1565.82
404.13	1575.18
404.32	1509.65
404.51	1607.95
404.70	1551.78
404.89	1493.26
405.09	1692.21
405.28	1680.50
405.47	1586.88
405.66	1710.93
405.85	1732.00
406.05	1629.01
406.24	1778.81
406.43	1762.42
406.62	1720.29
406.81	1783.49
407.00	1717.95
407.20	1724.97
407.39	1844.34
407.58	1818.60
407.77	1820.94
407.96	1809.23
408.15	1867.75
408.34	1937.96
408.54	1973.07
408.73	2012.86
408.92	1952.01
409.11	1905.20
409.30	1980.09
409.49	1987.11
409.68	2127.55
409.87	1980.09
410.07	1977.75
410.26	2026.90
410.45	2143.93
410.64	1942.64
410.83	2069.03
411.02	2092.44
411.21	2120.53
411.40	2090.10
411.59	2186.06
411.78	2193.08
411.98	2218.83
412.17	2305.43
412.36	2197.76
412.55	2319.47
412.74	2289.04
412.93	2399.05
413.12	2317.13
413.31	2434.16
413.50	2366.28
413.69	2235.21
413.88	2607.36
414.07	2464.58
414.26	2417.77
414.45	2431.82
414.64	2406.07
414.83	2553.52
415.02	2527.78
415.22	2574.59
415.41	2665.87
415.60	2654.17
415.79	2771.19
415.98	2764.17
416.17	2761.83
416.36	2679.91
416.55	2796.94
416.74	2850.77
416.93	2803.96
417.12	2885.88
417.31	2951.42
417.50	3042.70
417.69	2949.08
417.88	2918.65
418.07	2834.39
418.26	3084.83
418.45	3054.40
418.64	3026.31
418.83	2981.84
419.02	2977.16
419.21	3063.76
419.39	3052.06
419.58	3136.32
419.77	2981.84
419.96	3162.06
420.15	3208.87
420.34	3201.85
420.53	3155.04
420.72	3166.74
420.91	3318.88
421.10	3241.64
421.29	3232.28
421.48	3293.13
421.67	3279.09
421.86	3351.65
422.05	3332.92
422.24	3190.15
422.43	3332.92
422.61	3309.52
422.80	3463.99
422.99	3342.28
423.18	3337.60
423.37	3536.55
423.56	3459.31
423.75	3449.95
423.94	3328.24
424.13	3171.43
424.32	3272.07
424.50	3351.65
424.69	3485.06
424.88	3449.95
425.07	3442.93
425.26	3442.93
425.45	3435.91
425.64	3431.23
425.83	3433.57
426.01	3375.05
426.20	3475.70
426.39	3452.29
426.58	3417.18
426.77	3466.33
426.96	3499.10
427.15	3648.90
427.33	3648.90
427.52	3571.66
427.71	3599.74
427.90	3527.19
428.09	3719.11
428.28	3709.75
428.46	3653.58
428.65	3597.40
428.84	3733.15
429.03	3749.54
429.22	3698.05
429.40	3681.66
429.59	3716.77
429.78	3517.83
429.97	3676.98
430.16	3684.00
430.34	3763.58
430.53	3749.54
430.72	3878.27
430.91	3925.08
431.10	3669.96
431.28	3911.04
431.47	3969.55
431.66	4004.66
431.85	4028.06
432.03	3974.23
432.22	4063.17
432.41	3908.69
432.60	4248.07
432.79	4025.72
432.97	4102.96
433.16	4044.45
433.35	4081.89
433.54	4198.92
433.72	4119.34
433.91	4152.11
434.10	4222.33
434.28	4133.39
434.47	4278.50
434.66	4379.14
434.85	4184.88
435.03	4280.84
435.22	4177.86
435.41	4437.66
435.59	4449.36
435.78	4395.53
435.97	4390.84
436.16	4280.84
436.34	4421.27
436.53	4393.19
436.72	4461.06
436.90	4304.25
437.09	4608.51
437.28	4456.38
437.46	4484.47
437.65	4571.07
437.84	4547.66
438.02	4484.47
438.21	4596.81
438.40	4428.29
438.58	4851.93
438.77	4737.24
438.96	4861.29
439.14	4947.89
439.33	4837.89
439.52	4861.29
439.70	4826.18
439.89	5006.41
440.08	5020.45
440.26	4931.51
440.45	5191.31
440.63	5130.45
440.82	5142.16
441.01	5013.43
441.19	5238.12
441.38	5231.10
441.57	5195.99
441.75	5474.51
441.94	5366.85
442.12	5408.98
442.31	5439.40
442.50	5502.60
442.68	5444.09
442.87	5387.91
443.05	5472.17
443.24	5329.40
443.43	5439.40
443.61	5659.42
443.80	5643.03
443.98	5563.45
444.17	5282.59
444.35	5540.05
444.54	5689.84
444.73	5533.03
444.91	5659.42
445.10	5614.95
445.28	5596.22
445.47	5556.43
445.65	5664.10
445.84	5746.02
446.02	5900.49
446.21	5849.00
446.39	5652.39
446.58	5802.19
446.77	5661.76
446.95	5610.26
447.14	5614.95
447.32	5863.04
447.51	5654.73
447.69	5790.49
447.88	6026.88
448.06	5748.36
448.25	5753.04
448.43	5818.57
448.62	5685.16
448.80	5657.07
448.99	5823.25
449.17	6052.63
449.36	5898.15
449.54	5966.03
449.73	6225.82
449.91	6043.26
450.10	5942.62
450.28	6040.92
450.46	6136.88
450.65	6104.12
450.83	6289.02
451.02	6001.13
451.20	6251.57
451.39	6169.65
451.57	6258.59
451.76	6092.41
451.94	6169.65
452.13	6216.46
452.31	6317.11
452.49	6253.91
452.68	6375.62
452.86	6434.13
453.05	6377.96
453.23	6328.81
453.42	6317.11
453.60	6314.77
453.78	6476.26
453.97	6153.27
454.15	6471.58
454.34	6319.45
454.52	6583.93
454.70	6548.82
454.89	6654.14
455.07	6490.31
455.26	6644.78
455.44	6736.06
455.62	6682.23
455.81	6649.46
455.99	6656.48
456.17	6848.41
456.36	6885.86
456.54	6848.41
456.73	6897.56
456.91	7119.91
457.09	7059.06
457.28	7136.29
457.46	6944.37
457.64	7056.72
457.83	7047.35
458.01	7035.65
458.19	7033.31
458.38	6979.48
458.56	7185.44
458.74	7178.42
458.93	7173.74
459.11	7276.73
459.29	7239.28
459.48	7332.90
459.66	7178.42
459.84	7274.38
460.03	7447.58
460.21	7129.27
460.39	7396.09
460.57	7410.14
460.76	7506.10
460.94	7503.76
461.12	7482.69
461.31	7541.21
461.49	7510.78
461.67	7463.97
461.85	7609.08
462.04	7492.05
462.22	7960.16
462.40	7700.36
462.59	7726.11
462.77	7590.36
462.95	7896.97
463.13	7791.64
463.32	7749.51
463.50	7789.30
463.68	7983.57
463.86	7899.31
464.05	7740.15
464.23	7817.39
464.41	7793.98
464.59	7627.81
464.78	8112.30
464.96	7978.89
465.14	7824.41
465.32	7880.58
465.50	8212.94
465.69	8145.06
465.87	8077.19
466.05	8074.85
466.23	8072.51
466.41	8100.59
466.60	8219.96
466.78	8163.79
466.96	8102.93
467.14	8205.92
467.32	8142.72
467.51	8437.63
467.69	8259.75
467.87	8283.16
468.05	8514.87
468.23	8222.30
468.41	8461.04
468.60	8388.48
468.78	8435.29
468.96	8411.89
469.14	8355.71
469.32	8720.84
469.50	8339.33
469.69	8718.50
469.87	8716.16
470.05	8514.87
470.23	8840.20
470.41	8748.92
470.59	8821.48
470.77	8683.39
470.95	8741.90
471.14	9092.98
471.32	9004.04
471.50	9144.47
471.68	8997.02
471.86	8978.30
472.04	9104.68
472.22	9195.96
472.40	9160.86
472.58	9207.67
472.77	9277.88
472.95	9266.18
473.13	9593.86
473.31	9327.03
473.49	9453.42
473.67	9247.46
473.85	9427.68
474.03	9919.19
474.21	9528.32
474.39	9778.76
474.57	9753.01
474.75	9980.04
474.93	10003.45
475.12	9874.72
475.30	9933.23
475.48	10104.09
475.66	9970.68
475.84	10045.58
476.02	10050.26
476.20	10085.37
476.38	10284.31
476.56	10583.90
476.74	10607.31
476.92	10443.47
477.10	10574.54
477.28	10565.18
477.46	10710.29
477.64	10839.02
477.82	11023.92
478.00	11084.78
478.18	11052.01
478.36	11110.52
478.54	11367.98
478.72	11267.34
478.90	11709.70
479.08	11562.25
479.26	11777.58
479.44	11630.12
479.62	11470.97
479.80	11969.50
479.98	12056.10
480.16	12285.47
480.34	11932.05
480.52	12105.25
480.70	12269.09
480.88	12243.34
481.06	12526.55
481.24	12451.65
481.41	12737.20
481.59	12589.74
481.77	12910.40
481.95	12613.15
482.13	13195.94
482.31	13149.13
482.49	13331.69
482.67	13139.77
482.85	13298.92
483.03	13467.44
483.21	13397.23
483.39	13724.90
483.57	13757.67
483.74	13774.05
483.92	14015.13
484.10	14012.79
484.28	14501.96
484.46	14623.67
484.64	14712.61
484.82	14384.93
485.00	14743.03
485.18	14834.32
485.35	15131.56
485.53	14853.04
485.71	14857.72
485.89	15400.72
486.07	15398.38
486.25	15248.59
486.43	15435.83
486.61	16053.73
486.78	15889.90
486.96	15833.72
487.14	16035.01
487.32	16145.02
487.50	16449.28
487.68	16360.34
487.85	16620.14
488.03	16727.81
488.21	16840.15
488.39	16999.31
488.57	16762.92
488.75	16933.78
488.92	17427.63
489.10	17488.48
489.28	17523.59
489.46	17727.22
489.64	17675.73
489.81	18082.98
489.99	17949.57
490.17	18200.01
490.35	18501.93
490.53	18511.30
490.70	18637.69
490.88	18724.29
491.06	18829.61
491.24	18941.96
491.41	19049.62
491.59	19044.94
491.77	19269.63
491.95	19463.90
492.13	19332.82
492.30	19442.83
492.48	19798.59
492.66	19726.04
492.84	19800.93
493.01	20051.37
493.19	19995.20
493.37	20297.13
493.54	20229.25
493.72	20554.58
493.90	20676.29
494.08	21095.25
494.25	20643.52
494.43	20767.57
494.61	21209.93
494.79	21172.49
494.96	21401.86
495.14	21247.38
495.32	21483.78
495.49	21605.49
495.67	21745.92
495.85	21949.54
496.02	21907.41
496.20	22277.22
496.38	22340.41
496.55	22342.75
496.73	23234.50
496.91	22530.00
497.09	22457.44
497.26	23080.02
497.44	22658.73
497.62	22815.54
497.79	23255.56
497.97	23110.45
498.14	23452.17
498.32	23807.93
498.50	23637.07
498.67	23892.19
498.85	23597.28
499.03	23971.77
499.20	24198.80
499.38	24034.96
499.56	24201.14
499.73	24102.84
499.91	24676.27
500.08	24615.41
500.26	24432.85
500.44	25010.96
500.61	24662.22
500.79	24709.04
500.97	25296.51
501.14	25216.93
501.32	25233.32
501.49	24982.88
501.67	25233.32
501.84	25614.82
502.02	25565.67
502.20	25582.06
502.37	25811.43
502.55	25834.83
502.72	25886.32
502.90	25792.70
503.07	26015.05
503.25	26237.41
503.43	25654.61
503.60	26452.73
503.78	26639.98
503.95	26209.32
504.13	26038.46
504.30	26958.29
504.48	27049.57
504.65	26527.63
504.83	26707.85
505.01	26909.14
505.18	27068.30
505.36	27559.81
505.53	27075.32
505.71	27239.15
505.88	27323.41
506.06	27583.21
506.23	27695.56
506.41	27541.08
506.58	27941.32
506.76	27812.59
506.93	27899.19
507.11	27931.95
507.28	27737.69
507.46	28247.93
507.63	28334.53
507.81	28414.10
507.98	27927.27
508.16	28212.82
508.33	28819.02
508.50	28556.88
508.68	28863.49
508.85	28968.81
509.03	28945.41
509.20	28987.53
509.38	29343.30
509.55	29331.59
509.73	29301.17
509.90	29263.72
510.08	29479.05
510.25	29357.34
510.42	29340.96
510.60	29703.74
510.77	29809.06
510.95	30167.16
511.12	29706.08
511.30	30075.88
511.47	30050.14
511.64	30054.82
511.82	30169.51
511.99	30089.93
512.17	30380.15
512.34	30314.62
512.51	30742.94
512.69	30621.23
512.86	30639.95
513.04	30998.06
513.21	30822.51
513.38	30986.35
513.56	30904.43
513.73	31119.76
513.90	31353.82
514.08	31075.29
514.25	31260.20
514.43	31318.71
514.60	31522.34
514.77	31901.50
514.95	31761.07
515.12	31299.98
515.29	31524.68
515.47	31779.79
515.64	31803.20
515.81	31835.97
515.99	31777.45
516.16	32165.98
516.33	31997.46
516.51	32070.02
516.68	32074.70
516.85	32666.86
517.03	32343.86
517.20	32701.96
517.37	32774.52
517.54	32589.62
517.72	33039.00
517.89	32900.91
518.06	33102.20
518.24	33020.28
518.41	33083.47
518.58	32931.34
518.75	33223.90
518.93	33441.57
519.10	33415.83
519.27	33572.64
519.45	33549.24
519.62	33605.41
519.79	33720.10
519.96	33589.03
520.14	33642.86
520.31	33570.30
520.48	33717.76
520.65	33968.19
520.83	34581.42
521.00	34316.93
521.17	34274.80
521.34	34321.62
521.52	34319.28
521.69	34518.22
521.86	34682.06
522.03	35037.82
522.20	34986.33
522.38	34693.76
522.55	34862.28
522.72	34586.10
522.89	35126.76
523.07	35204.00
523.24	35049.52
523.41	35047.18
523.58	34782.70
523.75	35688.49
523.92	35365.49
524.10	35152.51
524.27	35543.38
524.44	35711.89
524.61	35686.15
524.78	35885.09
524.96	36053.61
525.13	36137.87
525.30	36315.75
525.47	36023.19
525.64	36278.30
525.81	35803.17
525.98	36215.11
526.16	36268.94
526.33	36411.71
526.50	36575.55
526.67	36542.78
526.84	36472.57
527.01	36556.83
527.18	36535.76
527.36	36753.43
527.53	36980.46
527.70	36851.73
527.87	37406.44
528.04	37055.36
528.21	36816.63
528.38	36919.61
528.55	37240.26
528.72	37071.75
528.89	37064.72
529.07	37471.98
529.24	37165.37
529.41	37418.14
529.58	37106.85
529.75	37179.41
529.92	37233.24
530.09	37469.64
530.26	37827.74
530.43	37813.70
530.60	37399.42
530.77	37434.53
530.94	37743.48
531.11	38188.18
531.28	37996.26
531.46	38124.99
531.63	37958.81
531.80	38265.42
531.97	37848.80
532.14	38438.62
532.31	38476.07
532.48	38176.48
532.65	38789.70
532.82	38281.80
532.99	38459.68
533.16	38211.59
533.33	38913.75
533.50	38604.80
533.67	38398.83
533.84	38506.49
534.01	38749.91
534.18	38763.95
534.35	39269.51
534.52	39243.76
534.69	39110.35
534.86	39192.27
535.03	38904.38
535.20	39449.73
535.37	39075.24
535.54	39311.64
535.71	39423.98
535.88	39583.14
536.05	39592.50
536.22	39751.66
536.38	39702.51
536.55	39438.03
536.72	39426.32
536.89	39704.85
537.06	39498.88
537.23	40149.55
537.40	39566.76
537.57	39840.60
537.74	39878.05
537.91	40280.62
538.08	39700.17
538.25	39751.66
538.42	39742.30
538.59	40418.71
538.75	40189.34
538.92	40238.49
539.09	40554.46
539.26	39938.90
539.43	40376.58
539.60	40692.55
539.77	40212.74
539.94	41116.19
540.11	40758.09
540.28	40545.10
540.44	40584.89
540.61	40699.58
540.78	40280.62
540.95	41315.14
541.12	41247.26
541.29	40282.96
541.46	41436.84
541.62	40959.38
541.79	41256.62
541.96	41055.34
542.13	40624.68
542.30	41020.23
542.47	41336.20
542.63	41256.62
542.80	41017.89
542.97	42359.02
543.14	42054.75
543.31	41549.19
543.48	41820.69
543.64	42134.32
543.81	42131.98
543.98	41846.44
544.15	42146.03
544.32	42241.99
544.48	42417.53
544.65	42340.29
544.82	42340.29
544.99	41621.75
545.16	42167.09
545.32	42174.11
545.49	42609.45
545.66	42569.66
545.83	42204.54
546.00	42483.06
546.16	42712.44
546.33	42230.29
546.50	42209.22
546.67	42560.30
546.83	42204.54
547.00	42625.84
547.17	42394.12
547.34	42714.78
547.50	42836.48
547.67	43175.86
547.84	43005.00
548.00	43196.93
548.17	43615.88
548.34	43285.87
548.51	43875.68
548.67	43461.41
548.84	43021.39
549.01	43243.74
549.18	42983.94
549.34	43299.91
549.51	43194.59
549.68	43686.10
549.84	43016.71
550.01	43337.36
550.18	43395.87
550.34	43438.00
550.51	43414.60
550.68	43775.04
550.84	43391.19
551.01	43798.44
551.18	43391.19
551.34	43711.84
551.51	43423.96
551.68	43632.27
551.84	43812.49
552.01	43999.73
552.18	44018.46
552.34	43800.79
552.51	43814.83
552.68	43990.37
552.84	44030.16
553.01	44524.01
553.18	44182.29
553.34	44327.41
553.51	43782.06
553.67	44271.23
553.84	44421.03
554.01	44296.98
554.17	44247.83
554.34	44605.93
554.51	44458.48
554.67	44538.05
554.84	44734.66
555.00	44545.08
555.17	44598.91
555.33	44697.21
555.50	44772.11
555.67	44268.89
555.83	44636.36
556.00	44987.44
556.16	44992.12
556.33	44495.92
556.50	45069.36
556.66	45017.86
556.83	44886.79
556.99	44957.01
557.16	45254.26
557.32	45226.17
557.49	45078.72
557.65	44509.97
557.82	45352.56
557.98	44989.78
558.15	45179.36
558.32	45280.00
558.48	44800.19
558.65	45153.62
558.81	45235.53
558.98	45099.78
559.14	45184.04
559.31	45265.96
559.47	45333.84
559.64	45638.11
559.80	45357.24
559.97	45495.33
560.13	45249.58
560.30	45113.83
560.46	45598.32
560.63	45326.81
560.79	45764.49
560.96	45523.42
561.12	45778.54
561.29	45687.26
561.45	45481.29
561.61	45514.06
561.78	45603.00
561.94	45270.64
562.11	45572.57
562.27	45448.52
562.44	45392.35
562.60	45830.03
562.77	45907.27
562.93	45619.38
563.10	45970.46
563.26	45631.08
563.42	45897.91
563.59	45923.65
563.75	45462.57
563.92	45930.67
564.08	45914.29
564.24	45783.22
564.41	46199.83
564.57	46078.13
564.74	45724.71
564.90	45937.69
565.07	46174.09
565.23	46014.93
565.39	45729.39
565.56	46724.11
565.72	46148.34
565.88	45879.18
566.05	46377.72
566.21	46138.98
566.38	46188.13
566.54	46291.12
566.70	45947.06
566.87	46244.30
567.03	46143.66
567.19	46436.23
567.36	46426.87
567.52	45818.33
567.68	46939.44
567.85	46188.13
568.01	46752.20
568.17	46127.28
568.34	46569.64
568.50	46469.00
568.66	46712.41
568.83	46464.32
568.99	46536.87
569.15	46349.63
569.32	46532.19
569.48	46234.94
569.64	46583.68
569.81	46649.22
569.97	46672.62
570.13	47194.56
570.30	46277.07
570.46	46518.15
570.62	46906.68
570.78	46499.42
570.95	46541.55
571.11	46684.33
571.27	46887.95
571.43	46419.84
571.60	46478.36
571.76	46450.27
571.92	46497.08
572.09	46693.69
572.25	46576.66
572.41	46553.26
572.57	46658.58
572.74	47077.54
572.90	46384.74
573.06	47091.58
573.22	46876.25
573.38	47133.71
573.55	46887.95
573.71	47374.78
573.87	46976.89
574.03	46934.76
574.20	46925.40
574.36	46752.20
574.52	46887.95
574.68	47009.66
574.84	46834.12
575.01	47264.78
575.17	46813.05
575.33	46979.23
575.49	47028.38
575.65	47051.79
575.82	47290.52
575.98	46955.83
576.14	46925.40
576.30	47035.41
576.46	47306.91
576.62	46876.25
576.79	47325.63
576.95	46815.40
577.11	46724.11
577.27	46770.93
577.43	46916.04
577.59	46686.67
577.75	47007.32
577.92	46635.17
578.08	46902.00
578.24	47407.55
578.40	47622.88
578.56	47547.98
578.72	46965.19
578.88	47313.93
579.04	46958.17
579.21	47131.37
579.37	47042.43
579.53	47239.03
579.69	46756.88
579.85	46827.10
580.01	47110.30
580.17	47019.02
580.33	47180.52
580.49	47019.02
580.65	47363.08
580.82	47140.73
580.98	46923.06
581.14	46614.11
581.30	47318.61
581.46	47014.34
581.62	46808.37
581.78	46899.65
581.94	47590.11
582.10	46787.31
582.26	47122.01
582.42	46990.94
582.58	47126.69
582.74	47210.95
582.90	47323.29
583.06	47295.21
583.22	47077.54
583.38	47224.99
583.54	47285.84
583.70	47473.09
583.86	47276.48
584.02	47351.38
584.18	47585.43
584.34	47536.28
584.50	47562.03
584.66	47327.97
584.82	47222.65
584.98	47929.49
585.14	47421.59
585.30	47203.92
585.46	47295.21
585.62	47072.85
585.78	47201.58
585.94	47236.69
586.10	47381.80
586.26	47152.43
586.42	47459.04
586.58	47540.96
586.74	47494.15
586.90	47285.84
587.06	47456.70
587.22	47426.28
587.38	46831.78
587.54	47608.84
587.70	47927.15
587.86	47381.80
588.02	47239.03
588.18	47459.04
588.34	47290.52
588.49	47807.78
588.65	47365.42
588.81	47243.71
588.97	48016.09
589.13	47615.86
589.29	47538.62
589.45	47889.70
589.61	47676.71
589.77	47615.86
589.93	47636.92
590.08	47449.68
590.24	47917.79
590.40	47873.32
590.56	48149.50
590.72	47751.61
590.88	47332.65
591.04	47646.29
591.20	47899.06
591.35	47936.51
591.51	48287.59
591.67	48205.67
591.83	48065.24
591.99	47920.13
592.15	47875.66
592.31	47777.36
592.46	48018.43
592.62	47952.90
592.78	47950.56
592.94	47831.19
593.10	48114.39
593.26	48678.46
593.41	48175.25
593.57	47770.33
593.73	47676.71
593.89	48069.92
594.05	48095.67
594.20	48044.18
594.36	48095.67
594.52	48268.87
594.68	47927.15
594.84	47770.33
594.99	48280.57
595.15	48182.27
595.31	48212.70
595.47	47824.17
595.62	48449.09
595.78	47873.32
595.94	48151.84
596.10	48140.14
596.25	48011.41
596.41	48364.83
596.57	48320.36
596.73	48189.29
596.88	48170.57
597.04	48439.73
597.20	47906.08
597.36	48074.60
597.51	48032.47
597.67	47856.93
597.83	48041.84
597.99	48156.52
598.14	48079.28
598.30	48191.63
598.46	48397.60
598.61	48594.20
598.77	48257.17
598.93	48268.87
599.09	48105.03
599.24	48678.46
599.40	48165.88
599.56	48371.85
599.71	48481.86
599.87	48568.46
600.03	48463.13
600.18	48315.68
600.34	47892.04
600.50	48238.44
600.65	47983.32
600.81	48589.52
600.97	48528.67
601.12	48151.84
601.28	48547.39
601.44	48605.91
601.59	48463.13
601.75	48320.36
601.91	48128.44
602.06	48615.27
602.22	48580.16
602.37	48140.14
602.53	48692.50
602.69	48350.79
602.84	48147.16
603.00	48329.72
603.16	48362.49
603.31	48231.42
603.47	48346.11
603.62	48556.75
603.78	48451.43
603.94	48189.29
604.09	48058.22
604.25	47796.08
604.40	48128.44
604.56	48151.84
604.71	48598.88
604.87	48102.69
605.03	48002.05
605.18	47938.85
605.34	48325.04
605.49	48154.18
605.65	48472.49
605.80	48184.61
605.96	47980.98
606.12	48065.24
606.27	48329.72
606.43	47817.14
606.58	48287.59
606.74	48212.70
606.89	48332.06
607.05	48446.75
607.20	48332.06
607.36	48086.31
607.51	48083.97
607.67	48053.54
607.82	47564.37
607.98	48062.90
608.13	48278.23
608.29	47821.83
608.44	48072.26
608.60	48046.52
608.75	48086.31
608.91	48210.35
609.06	47665.01
609.22	48039.50
609.37	48006.73
609.53	48371.85
609.68	48208.01
609.84	47653.31
609.99	47978.64
610.15	47821.83
610.30	48142.48
610.46	47721.18
610.61	47882.68
610.76	47866.30
610.92	47655.65
611.07	48053.54
611.23	47943.53
611.38	47611.18
611.54	47702.46
611.69	47920.13
611.84	47885.02
612.00	47751.61
612.15	47948.21
612.31	47789.06
612.46	47922.47
612.62	47721.18
612.77	47772.67
612.92	47728.20
613.08	47470.75
613.23	47786.72
613.39	47730.54
613.54	47578.41
613.69	48018.43
613.85	47789.06
614.00	47650.97
614.15	47920.13
614.31	47047.11
614.46	47515.22
614.62	47323.29
614.77	47547.98
614.92	47779.70
615.08	47304.57
615.23	47423.93
615.38	47615.86
615.54	47501.17
615.69	47356.06
615.84	47433.30
616.00	47749.27
616.15	47386.49
616.30	47765.65
616.46	47819.49
616.61	47164.14
616.76	47461.38
616.92	47320.95
617.07	47980.98
617.22	46899.65
617.37	47014.34
617.53	47372.44
617.68	47119.66
617.83	47625.22
617.99	47452.02
618.14	47437.98
618.29	47173.50
618.45	46810.71
618.60	47009.66
618.75	46972.21
618.90	47215.63
619.06	47290.52
619.21	46962.85
619.36	47475.43
619.51	46712.41
619.67	47077.54
619.82	46827.10
619.97	46951.15
620.12	46689.01
620.28	46988.60
620.43	47370.10
620.58	47311.59
620.73	46745.18
620.89	47161.79
621.04	47269.46
621.19	46740.50
621.34	47063.49
621.49	46553.26
621.65	46714.75
621.80	47012.00
621.95	46976.89
622.10	46894.97
622.25	46351.97
622.41	46527.51
622.56	46763.90
622.71	46658.58
622.86	46986.25
623.01	46621.13
623.16	46424.53
623.32	46674.96
623.47	46691.35
623.62	46309.84
623.77	46314.52
623.92	46490.06
624.07	46368.35
624.23	47079.88
624.38	46536.87
624.53	46181.11
624.68	46237.28
624.83	46092.17
624.98	46520.49
625.13	46160.05
625.29	45808.96
625.44	46340.27
625.59	46368.35
625.74	46064.08
625.89	46068.76
626.04	46085.15
626.19	46401.12
626.34	46021.95
626.49	45813.65
626.65	45432.14
626.80	46272.39
626.95	45715.34
627.10	45677.90
627.25	45790.24
627.40	45975.14
627.55	45958.76
627.70	45935.35
627.85	45818.33
628.00	45949.40
628.15	45930.67
628.30	45319.79
628.45	45256.60
628.60	45598.32
628.76	45581.93
628.91	45581.93
629.06	45186.38
629.21	45162.98
629.36	45577.25
629.51	45638.11
629.66	46087.49
629.81	45560.87
629.96	45638.11
630.11	45492.99
630.26	45287.03
630.41	45418.10
630.56	45530.44
630.71	45200.43
630.86	44898.50
631.01	44830.62
631.16	45256.60
631.31	45118.51
631.46	45340.86
631.61	45528.10
631.76	45221.49
631.91	45336.18
632.06	45352.56
632.21	44968.71
632.36	45258.94
632.51	44935.95
632.66	44999.14
632.81	45289.37
632.96	45378.31
633.10	45081.06
633.25	44699.55
633.40	44919.56
633.55	45251.92
633.70	44886.79
633.85	44631.68
634.00	44629.34
634.15	45109.14
634.30	44690.19
634.45	44634.02
634.60	44444.43
634.75	45092.76
634.90	44896.16
635.05	44739.34
635.19	44973.39
635.34	44975.73
635.49	44975.73
635.64	44566.14
635.79	44935.95
635.94	44645.72
636.09	45125.53
636.24	44233.78
636.39	44877.43
636.53	44491.24
636.68	44502.95
636.83	44357.83
636.98	44491.24
637.13	44072.29
637.28	44102.71
637.43	44243.15
637.57	44652.74
637.72	44198.68
637.87	44212.72
638.02	43751.63
638.17	44102.71
638.32	44048.88
638.46	43995.05
638.61	44261.87
638.76	44020.80
638.91	43742.27
639.06	43803.13
639.20	43753.97
639.35	43775.04
639.50	43803.13
639.65	43667.37
639.80	44119.10
639.94	44163.57
640.09	43992.71
640.24	43749.29
640.39	43922.49
640.54	43412.26
640.68	43510.56
640.83	44191.65
640.98	43377.15
641.13	43332.68
641.27	44076.97
641.42	43360.76
641.57	43498.86
641.72	43885.04
641.86	43587.80
642.01	43470.77
642.16	43723.55
642.31	43426.30
642.45	43178.20
642.60	43292.89
642.75	43248.42
642.90	43489.49
643.04	43269.48
643.19	43210.97
643.34	43063.52
643.48	43225.01
643.63	43047.13
643.78	43454.39
643.93	43580.78
644.07	43484.81
644.22	43751.63
644.37	42923.08
644.51	43407.58
644.66	42873.93
644.81	43124.37
644.95	43105.65
645.10	43133.73
645.25	42754.57
645.39	42792.01
645.54	42869.25
645.69	42621.16
645.83	42777.97
645.98	42820.10
646.13	42803.72
646.27	42562.64
646.42	42387.10
646.57	42904.36
646.71	42733.50
646.86	42997.98
647.00	42955.85
647.15	42937.13
647.30	42958.19
647.44	42796.70
647.59	42546.26
647.74	42417.53
647.88	42724.14
648.03	42944.15
648.17	43199.27
648.32	42646.90
648.47	43152.46
648.61	42546.26
648.76	42639.88
648.90	42213.90
649.05	42740.52
649.20	42677.33
649.34	42672.65
649.49	42164.75
649.63	42279.44
649.78	42595.41
649.92	42586.05
650.07	42808.40
650.21	42873.93
650.36	42621.16
650.51	42506.47
650.65	42562.64
650.80	42469.02
650.94	42263.05
651.09	42281.78
651.23	41502.38
651.38	41834.74
651.52	41539.83
651.67	41691.96
651.81	41986.87
651.96	42113.26
652.10	41656.85
652.25	41729.41
652.39	41979.85
652.54	42007.94
652.68	42087.51
652.83	41951.76
652.97	41794.95
653.12	41958.78
653.26	42047.72
653.41	41546.85
653.55	41832.39
653.70	41855.80
653.84	41918.99
653.99	41897.93
654.13	41689.62
654.27	41415.78
654.42	41935.38
654.56	41186.41
654.71	41755.16
654.85	41708.35
655.00	41687.28
655.14	41317.48
655.29	41773.88
655.43	41481.31
655.57	41219.17
655.72	40928.95
655.86	41284.71
656.01	40907.88
656.15	41287.05
656.30	40755.75
656.44	41200.45
656.58	40809.58
656.73	41057.68
656.87	40676.17
657.01	41064.70
657.16	41099.81
657.30	41195.77
657.45	41064.70
657.59	41081.08
657.73	41015.55
657.88	40928.95
658.02	41017.89
658.16	41422.80
658.31	41244.92
658.45	41284.71
658.60	40243.17
658.74	40573.19
658.88	40706.60
659.03	40425.73
659.17	40397.65
659.31	40355.52
659.46	40376.58
659.60	40282.96
659.74	40109.76
659.89	40463.18
660.03	39945.92
660.17	40493.61
660.32	39896.77
660.46	40252.53
660.60	40009.12
660.74	40102.74
660.89	40086.36
661.03	39772.72
661.17	39482.50
661.32	39903.79
661.46	39833.58
661.60	39920.18
661.74	39789.11
661.89	39676.76
662.03	39789.11
662.17	39573.78
662.31	39573.78
662.46	39562.08
662.60	39356.11
662.74	38611.82
662.88	38906.73
663.03	38965.24
663.17	38646.93
663.31	39105.67
663.45	39264.83
663.60	39393.56
663.74	38803.74
663.88	38281.80
664.02	38930.13
664.17	39248.44
664.31	38579.05
664.45	38890.34
664.59	38712.46
664.73	38583.73
664.88	38822.47
665.02	38188.18
665.16	38794.38
665.30	38649.27
665.44	38314.57
665.59	38087.54
665.73	38440.96
665.87	37869.87
666.01	37649.86
666.15	37830.08
666.29	37923.70
666.44	38422.23
666.58	38543.94
666.72	37741.14
666.86	37610.07
667.00	37670.92
667.14	37336.23
667.28	37794.97
667.43	37699.01
667.57	37958.81
667.71	37844.12
667.85	37598.37
667.99	37471.98
668.13	37420.48
668.27	36865.78
668.41	36786.20
668.56	36762.79
668.70	36844.71
668.84	36299.37
668.98	36636.41
669.12	36959.40
669.26	36779.18
669.40	36779.18
669.54	36769.82
669.68	36744.07
669.82	36514.70
669.96	36687.90
670.10	36180.00
670.25	36442.14
670.39	36184.68
670.53	36325.11
670.67	36329.80
670.81	36723.01
670.95	36336.82
671.09	35461.46
671.23	35761.05
671.37	35524.65
671.51	35704.87
671.65	35449.75
671.79	35861.69
671.93	35538.69
672.07	35627.63
672.21	35772.75
672.35	35138.46
672.49	35538.69
672.63	35484.86
672.77	34958.24
672.91	35290.60
673.05	35047.18
673.19	34974.63
673.33	34852.92
673.47	34911.43
673.61	34663.33
673.75	34761.64
673.89	34274.80
674.03	34471.41
674.17	34260.76
674.31	33680.31
674.45	34188.21
674.59	34167.14
674.73	34036.07
674.87	34059.48
675.01	33261.35
675.15	33296.46
675.29	33319.87
675.43	33750.52
675.56	33619.46
675.70	33504.77
675.84	33188.80
675.98	32603.66
676.12	32842.40
676.26	33340.93
676.40	32847.08
676.54	32823.67
676.68	32814.31
676.82	32479.61
676.96	32589.62
677.10	32795.59
677.23	32629.41
677.37	32245.56
677.51	32437.48
677.65	32184.71
677.79	31775.11
677.93	32063.00
678.07	31992.78
678.21	31714.26
678.34	31740.00
678.48	31215.72
678.62	31620.64
678.76	31578.51
678.90	31241.47
679.04	31349.14
679.18	31569.15
679.31	31201.68
679.45	30976.99
679.59	30941.88
679.73	30649.32
679.87	30668.04
680.00	30504.20
680.14	30916.14
680.28	30366.11
680.42	30323.98
680.56	30122.69
680.70	30389.52
680.83	29893.32
680.97	29748.21
681.11	29839.49
681.25	29163.08
681.39	29268.40
681.52	29682.67
681.66	29413.51
681.80	28819.02
681.94	28821.36
682.07	29053.07
682.21	28723.05
682.35	28524.11
682.49	28402.40
682.62	28882.21
682.76	28678.58
682.90	28554.54
683.04	28514.75
683.17	28484.32
683.31	27931.95
683.45	28156.64
683.59	27976.42
683.72	27679.18
683.86	28135.58
684.00	27592.58
684.13	27667.47
684.27	27204.05
684.41	27276.60
684.55	27424.06
684.68	27232.13
684.82	26883.39
684.96	26984.04
685.09	27243.84
685.23	26955.95
685.37	27325.75
685.50	27028.51
685.64	26703.17
685.78	26651.68
685.91	26775.73
686.05	26258.47
686.19	25755.26
686.32	25975.27
686.46	25745.89
686.60	25703.76
686.73	25930.80
686.87	25907.39
687.01	25797.38
687.14	25254.38
687.28	25357.36
687.42	25652.27
687.55	25252.04
687.69	25097.56
687.82	24961.81
687.96	25172.46
688.10	25106.93
688.23	25315.23
688.37	24879.89
688.50	24989.90
688.64	24938.41
688.78	24751.17
688.91	24489.03
689.05	24519.45
689.18	23917.93
689.32	23353.87
689.46	23763.46
689.59	23592.60
689.73	24034.96
689.86	23992.83
690.00	23618.35
690.13	23805.59
690.27	23225.14
690.41	23253.22
690.54	23241.52
690.68	23323.44
690.81	23206.41
690.95	22883.42
691.08	22635.32
691.22	22427.01
691.35	22602.55
691.49	22764.05
691.62	22670.43
691.76	22197.64
691.89	22349.78
692.03	21921.46
692.16	22073.59
692.30	22223.39
692.43	21937.84
692.57	21586.76
692.70	21930.82
692.84	21528.25
692.97	21331.64
693.11	21174.83
693.24	21095.25
693.38	21383.13
693.51	21055.46
693.65	20826.09
693.78	21120.99
693.92	20643.52
694.05	20802.68
694.19	20348.62
694.32	20648.21
694.45	20755.87
694.59	20772.25
694.72	20753.53
694.86	20166.06
694.99	20105.20
695.13	19871.15
695.26	19913.28
695.39	19756.46
695.53	19807.95
695.66	20009.24
695.80	19623.05
695.93	19810.29
696.07	19726.04
696.20	19009.83
696.33	18885.78
696.47	18876.42
696.60	18977.06
696.73	19178.35
696.87	19257.93
697.00	18806.20
697.14	18890.46
697.27	18469.17
697.40	18572.15
697.54	18593.22
697.67	18834.29
697.80	18497.25
697.94	18031.49
698.07	18108.72
698.21	18118.09
698.34	18104.04
698.47	18200.01
698.61	17589.13
698.74	17668.70
698.87	17867.65
699.01	17420.61
699.14	17549.34
699.27	17301.24
699.40	17165.49
699.54	17081.23
699.67	17214.64
699.80	16994.63
699.94	17188.89
700.07	17034.42
700.20	16971.22
700.34	16592.06
700.47	16889.31
700.60	16929.09
700.73	16842.50
700.87	16407.16
701.00	16561.63
701.13	16191.83
701.26	16046.71
701.40	16250.34
701.53	15772.87
701.66	16145.02
701.79	16133.31
701.93	15714.36
702.06	15625.42
702.19	15634.78
702.32	15815.00
702.46	15721.38
702.59	15590.31
702.72	15793.94
702.85	15536.48
702.99	15466.26
703.12	15166.67
703.25	15293.06
703.38	14970.07
703.51	14881.13
703.65	14766.44
703.78	14553.45
703.91	14562.81
704.04	14752.40
704.17	14473.87
704.31	14537.07
704.44	14642.39
704.57	14492.60
704.70	14607.28
704.83	14534.73
704.96	14050.24
705.10	14113.43
705.23	13877.04
>>>>>End Processed Spectral Data<<<<<
