SpectraSuite Data File
++++++++++++++++++++++++++++++++++++
Date: Fri Oct 25 10:47:18 EDT 2013
User: price-jones
Dark Spectrum Present: No
Reference Spectrum Present: No
Number of Sampled Component Spectra: 1
Spectrometers: USB2+H05261
Integration Time (usec): 100000 (USB2+H05261)
Spectra Averaged: 1 (USB2+H05261)
Boxcar Smoothing: 0 (USB2+H05261)
Correct for Electrical Dark: No (USB2+H05261)
Strobe/Lamp Enabled: No (USB2+H05261)
Correct for Detector Non-linearity: No (USB2+H05261)
Correct for Stray Light: No (USB2+H05261)
Number of Pixels in Processed Spectrum: 2048
>>>>>Begin Processed Spectral Data<<<<<
365.73	145.11
365.92	145.11
366.12	145.11
366.32	77.24
366.52	60.85
366.72	14.04
366.91	0.00
367.11	81.92
367.31	0.00
367.51	30.43
367.70	67.88
367.90	0.00
368.10	63.19
368.30	74.90
368.49	53.83
368.69	39.79
368.89	35.11
369.09	95.96
369.28	39.79
369.48	44.47
369.68	77.24
369.87	112.35
370.07	14.04
370.27	145.11
370.47	135.75
370.66	404.91
370.86	346.40
371.06	451.72
371.25	505.56
371.45	327.68
371.65	493.85
371.84	479.81
372.04	472.79
372.24	416.62
372.44	400.23
372.63	456.40
372.83	414.27
373.03	512.58
373.22	463.43
373.42	545.34
373.62	510.24
373.81	458.74
374.01	568.75
374.21	519.60
374.40	550.03
374.60	571.09
374.79	575.77
374.99	510.24
375.19	603.86
375.38	535.98
375.58	550.03
375.78	636.63
375.97	594.50
376.17	554.71
376.37	535.98
376.56	636.63
376.76	575.77
376.95	561.73
377.15	564.07
377.35	571.09
377.54	573.43
377.74	653.01
377.93	543.00
378.13	559.39
378.33	655.35
378.52	648.33
378.72	624.92
378.91	641.31
379.11	627.26
379.31	601.52
379.50	645.99
379.70	566.41
379.89	657.69
380.09	657.69
380.28	606.20
380.48	690.46
380.68	606.20
380.87	613.22
381.07	645.99
381.26	685.78
381.46	454.06
381.65	713.86
381.85	645.99
382.04	627.26
382.24	643.65
382.43	741.95
382.63	688.12
382.83	627.26
383.02	690.46
383.22	615.56
383.41	620.24
383.61	720.88
383.80	683.44
384.00	727.91
384.19	732.59
384.39	695.14
384.58	812.17
384.78	741.95
384.97	688.12
385.17	755.99
385.36	741.95
385.56	634.29
385.75	793.44
385.95	755.99
386.14	760.67
386.34	723.23
386.53	704.50
386.72	763.01
386.92	828.55
387.11	835.57
387.31	856.64
387.50	758.33
387.70	798.12
387.89	826.21
388.09	781.74
388.28	798.12
388.48	826.21
388.67	842.59
388.86	800.46
389.06	833.23
389.25	875.36
389.45	875.36
389.64	924.51
389.84	929.19
390.03	809.83
390.22	905.79
390.42	922.17
390.61	858.98
390.81	870.68
391.00	903.45
391.19	954.94
391.39	933.87
391.58	947.92
391.78	887.06
391.97	912.81
392.16	858.98
392.36	1013.45
392.55	990.05
392.75	901.11
392.94	868.34
393.13	938.55
393.33	919.83
393.52	880.04
393.71	990.05
393.91	1020.47
394.10	947.92
394.29	1050.90
394.49	1083.67
394.68	1015.79
394.88	987.71
395.07	1123.46
395.26	1022.81
395.46	1022.81
395.65	1081.33
395.84	1118.78
396.04	1149.20
396.23	1097.71
396.42	1081.33
396.62	1088.35
396.81	1064.94
397.00	1137.50
397.19	1097.71
397.39	1207.72
397.58	1217.08
397.77	1301.34
397.97	1146.86
398.16	1196.01
398.35	1231.12
398.55	1231.12
398.74	1254.53
398.93	1273.25
399.12	1289.64
399.32	1226.44
399.51	1193.67
399.70	1350.49
399.90	1352.83
400.09	1217.08
400.28	1434.75
400.47	1296.66
400.67	1409.00
400.86	1373.89
401.05	1284.95
401.24	1425.39
401.44	1406.66
401.63	1481.56
401.82	1336.45
402.01	1364.53
402.21	1392.62
402.40	1425.39
402.59	1364.53
402.78	1458.15
402.97	1469.86
403.17	1460.49
403.36	1488.58
403.55	1614.97
403.74	1540.07
403.93	1476.88
404.13	1584.54
404.32	1577.52
404.51	1526.03
404.70	1682.85
404.89	1619.65
405.09	1717.95
405.28	1614.97
405.47	1612.63
405.66	1605.61
405.85	1657.10
406.05	1631.35
406.24	1636.03
406.43	1792.85
406.62	1785.83
406.81	1781.15
407.00	1694.55
407.20	1685.19
407.39	1776.47
407.58	1853.70
407.77	1919.24
407.96	1816.26
408.15	1947.33
408.34	1816.26
408.54	1877.11
408.73	1877.11
408.92	1844.34
409.11	1811.57
409.30	2050.31
409.49	2052.65
409.68	1966.05
409.87	1989.46
410.07	2008.18
410.26	2012.86
410.45	2132.23
410.64	2003.50
410.83	2071.37
411.02	2045.63
411.21	2118.18
411.40	2076.06
411.59	2129.89
411.78	2186.06
411.98	2143.93
412.17	2132.23
412.36	2300.75
412.55	2239.89
412.74	2319.47
412.93	2335.85
413.12	2267.98
413.31	2345.22
413.50	2469.27
413.69	2455.22
413.88	2478.63
414.07	2483.31
414.26	2420.11
414.45	2534.80
414.64	2532.46
414.83	2523.10
415.02	2588.63
415.22	2562.89
415.41	2511.39
415.60	2602.68
415.79	2658.85
415.98	2651.83
416.17	2705.66
416.36	2757.15
416.55	2668.21
416.74	2726.72
416.93	2825.03
417.12	2796.94
417.31	2869.50
417.50	2857.79
417.69	2974.82
417.88	3002.91
418.07	2902.26
418.26	2895.24
418.45	2935.03
418.64	3101.21
418.83	2937.37
419.02	3073.12
419.21	3047.38
419.39	3028.65
419.58	2918.65
419.77	2995.89
419.96	3075.46
420.15	3094.19
420.34	3045.04
420.53	3211.22
420.72	3265.05
420.91	3150.36
421.10	3243.98
421.29	3194.83
421.48	3215.90
421.67	3307.18
421.86	3246.32
422.05	3164.40
422.24	3405.48
422.43	3243.98
422.61	3321.22
422.80	3262.71
422.99	3265.05
423.18	3375.05
423.37	3398.46
423.56	3274.41
423.75	3300.16
423.94	3459.31
424.13	3133.98
424.32	3159.72
424.50	3405.48
424.69	3492.08
424.88	3431.23
425.07	3288.45
425.26	3330.58
425.45	3405.48
425.64	3311.86
425.83	3471.01
426.01	3428.88
426.20	3428.88
426.39	3419.52
426.58	3337.60
426.77	3442.93
426.96	3435.91
427.15	3393.78
427.33	3487.40
427.52	3541.23
427.71	3569.32
427.90	3517.83
428.09	3559.95
428.28	3634.85
428.46	3620.81
428.65	3585.70
428.84	3667.62
429.03	3602.08
429.22	3686.34
429.40	3592.72
429.59	3592.72
429.78	3581.02
429.97	3431.23
430.16	3581.02
430.34	3782.31
430.53	3686.34
430.72	3698.05
430.91	3847.84
431.10	3758.90
431.28	3955.51
431.47	4030.40
431.66	3957.85
431.85	3997.64
432.03	4133.39
432.22	4004.66
432.41	3964.87
432.60	4140.41
432.79	4030.40
432.97	4067.85
433.16	4114.66
433.35	4025.72
433.54	4060.83
433.72	4086.58
433.91	3974.23
434.10	4166.15
434.28	4294.88
434.47	4086.58
434.66	4250.41
434.85	4355.74
435.03	4229.35
435.22	4299.56
435.41	4381.48
435.59	4447.02
435.78	4358.08
435.97	4334.67
436.16	4182.54
436.34	4379.14
436.53	4449.36
436.72	4468.08
436.90	4409.57
437.09	4430.63
437.28	4400.21
437.46	4348.72
437.65	4484.47
437.84	4533.62
438.02	4526.60
438.21	4442.34
438.40	4587.45
438.58	4737.24
438.77	4739.58
438.96	4608.51
439.14	4770.01
439.33	4908.10
439.52	4889.38
439.70	4744.27
439.89	4985.34
440.08	4968.96
440.26	5008.75
440.45	4992.36
440.63	5022.79
440.82	5214.71
441.01	4957.25
441.19	5102.37
441.38	5149.18
441.57	5341.10
441.75	5219.39
441.94	5427.70
442.12	5371.53
442.31	5343.44
442.50	5423.02
442.68	5528.35
442.87	5530.69
443.05	5329.40
443.24	5687.50
443.43	5514.30
443.61	5509.62
443.80	5631.33
443.98	5535.37
444.17	5334.08
444.35	5507.28
444.54	5643.03
444.73	5453.45
444.91	5439.40
445.10	5516.64
445.28	5544.73
445.47	5584.52
445.65	5465.15
445.84	5593.88
446.02	5783.46
446.21	5572.82
446.39	5731.97
446.58	5645.37
446.77	5687.50
446.95	5542.39
447.14	5795.17
447.32	5774.10
447.51	5727.29
447.69	5844.32
447.88	5687.50
448.06	5738.99
448.25	5856.02
448.43	5767.08
448.62	5827.93
448.80	5607.92
448.99	5832.62
449.17	5860.70
449.36	5771.76
449.54	5935.60
449.73	6015.18
449.91	6108.80
450.10	6008.16
450.28	6022.20
450.46	6031.56
450.65	6008.16
450.83	6029.22
451.02	6127.52
451.20	6286.68
451.39	6141.57
451.57	6132.20
451.76	6134.54
451.94	6253.91
452.13	6368.60
452.31	6333.49
452.49	6328.81
452.68	6108.80
452.86	6274.98
453.05	6174.33
453.23	6328.81
453.42	6141.57
453.60	6270.30
453.78	6494.99
453.97	6319.45
454.15	6228.17
454.34	6321.79
454.52	6345.19
454.70	6366.26
454.89	6567.54
455.07	6523.07
455.26	6328.81
455.44	6661.16
455.62	6602.65
455.81	6621.38
455.99	6572.22
456.17	6614.35
456.36	6581.59
456.54	6682.23
456.73	6920.96
456.91	7096.50
457.09	6796.92
457.28	7162.04
457.46	7047.35
457.64	7105.87
457.83	7122.25
458.01	6958.41
458.19	7199.49
458.38	6984.16
458.56	7265.02
458.74	7070.76
458.93	7213.53
459.11	7101.19
459.29	7115.23
459.48	7171.40
459.66	7166.72
459.84	7330.56
460.03	7178.42
460.21	7358.64
460.39	7204.17
460.57	7323.54
460.76	7499.08
460.94	7339.92
461.12	7431.20
461.31	7379.71
461.49	7391.41
461.67	7454.61
461.85	7569.29
462.04	7485.03
462.22	7978.89
462.40	7569.29
462.59	7801.01
462.77	7548.23
462.95	7698.02
463.13	7786.96
463.32	7531.84
463.50	7693.34
463.68	7775.26
463.86	7805.69
464.05	7698.02
464.23	7723.77
464.41	7779.94
464.59	7770.58
464.78	7939.10
464.96	8013.99
465.14	7880.58
465.32	7868.88
465.50	8238.69
465.69	8004.63
465.87	7913.35
466.05	7819.73
466.23	8063.15
466.41	7971.86
466.60	8217.62
466.78	7688.66
466.96	8079.53
467.14	8116.98
467.32	8088.89
467.51	8250.39
467.69	7882.92
467.87	8025.70
468.05	8393.16
468.23	8081.87
468.41	8208.26
468.60	8210.60
468.78	8116.98
468.96	8325.29
469.14	8451.67
469.32	8351.03
469.50	8210.60
469.69	8493.80
469.87	8491.46
470.05	8748.92
470.23	8631.90
470.41	8629.56
470.59	8769.99
470.77	8514.87
470.95	8861.27
471.14	8807.44
471.32	8688.07
471.50	9095.32
471.68	8905.74
471.86	8926.80
472.04	9020.42
472.22	9085.96
472.40	8898.72
472.58	9090.64
472.77	9128.09
472.95	9245.12
473.13	9446.40
473.31	9149.15
473.49	9327.03
473.67	9195.96
473.85	9423.00
474.03	9516.62
474.21	9495.55
474.39	9738.97
474.57	9741.31
474.75	9654.71
474.93	9797.48
475.12	9638.33
475.30	10031.54
475.48	9802.16
475.66	9865.36
475.84	9710.88
476.02	10059.62
476.20	9792.80
476.38	9968.34
476.56	10211.76
476.74	10349.85
476.92	10384.96
477.10	10422.41
477.28	10684.55
477.46	10443.47
477.64	10562.84
477.82	10925.62
478.00	11115.20
478.18	10960.73
478.36	11260.32
478.54	10937.32
478.72	11552.88
478.90	11417.13
479.08	11274.36
479.26	11304.79
479.44	11538.84
479.62	11667.57
479.80	11496.71
479.98	11583.31
480.16	11819.71
480.34	11903.96
480.52	11915.67
480.70	12100.57
480.88	11899.28
481.06	12163.76
481.24	12086.53
481.41	12383.77
481.59	12486.76
481.77	12662.30
481.95	12507.82
482.13	12685.70
482.31	12720.81
482.49	12987.63
482.67	13006.36
482.85	12800.39
483.03	13118.70
483.21	13465.10
483.39	13514.25
483.57	13448.72
483.74	13551.70
483.92	13881.72
484.10	13762.35
484.28	13785.76
484.46	14085.34
484.64	14457.49
484.82	14022.15
485.00	14244.50
485.18	14628.35
485.35	14403.66
485.53	14431.74
485.71	14712.61
485.89	14719.63
486.07	14927.94
486.25	15040.28
486.43	15000.49
486.61	15075.39
486.78	15630.10
486.96	15564.56
487.14	15885.22
487.32	15719.04
487.50	15999.90
487.68	15957.77
487.85	16299.49
488.03	16409.50
488.21	16362.69
488.39	16428.22
488.57	16496.10
488.75	16980.59
488.92	17069.53
489.10	17003.99
489.28	16893.99
489.46	17263.79
489.64	17263.79
489.81	17696.79
489.99	17788.07
490.17	17771.69
490.35	17916.80
490.53	17961.27
490.70	18047.87
490.88	17827.86
491.06	18260.86
491.24	18389.59
491.41	18333.42
491.59	18621.30
491.77	18546.40
491.95	18941.96
492.13	18981.74
492.30	19192.39
492.48	18967.70
492.66	19536.45
492.84	19215.80
493.01	19693.27
493.19	19431.13
493.37	19899.23
493.54	19594.96
493.72	20292.44
493.90	20245.63
494.08	20219.89
494.25	20353.30
494.43	20453.94
494.61	20327.55
494.79	20699.70
494.96	20273.72
495.14	20793.32
495.32	20875.24
495.49	21060.14
495.67	21181.85
495.85	21355.05
496.02	21219.30
496.20	21743.58
496.38	21364.41
496.55	21759.96
496.73	22012.74
496.91	22015.08
497.09	21823.16
497.26	22281.90
497.44	22108.70
497.62	22710.22
497.79	22637.66
497.97	22569.79
498.14	22820.22
498.32	23049.60
498.50	22703.20
498.67	23112.79
498.85	23281.31
499.03	23220.45
499.20	23239.18
499.38	23131.51
499.56	23386.63
499.73	23885.17
499.91	23756.44
500.08	23995.17
500.26	23765.80
500.44	23756.44
500.61	23927.30
500.79	24133.26
500.97	24023.26
501.14	24507.75
501.32	24547.54
501.49	24388.38
501.67	24470.30
501.84	24582.65
502.02	24425.83
502.20	24673.93
502.37	24828.40
502.55	24950.11
502.72	25348.00
502.90	25074.16
503.07	24931.39
503.25	25252.04
503.43	25443.96
503.60	25369.07
503.78	25656.95
503.95	25490.77
504.13	25893.35
504.30	25685.04
504.48	25715.47
504.65	25741.21
504.83	25893.35
505.01	25975.27
505.18	26195.28
505.36	26256.13
505.53	26391.88
505.71	26752.32
505.88	26686.79
506.06	26504.23
506.23	26265.49
506.41	26848.29
506.58	26735.94
506.76	26909.14
506.93	26984.04
507.11	27023.83
507.28	26773.39
507.46	27131.49
507.63	27065.96
507.81	27012.12
507.98	26801.47
508.16	27288.31
508.33	27227.45
508.50	27307.03
508.68	28149.62
508.85	27995.15
509.03	27632.36
509.20	28315.80
509.38	27646.41
509.55	28479.64
509.73	28243.24
509.90	28505.38
510.08	28201.11
510.25	28608.37
510.42	28638.80
510.60	28793.27
510.77	28472.62
510.95	28917.32
511.12	28407.08
511.30	28767.52
511.47	29200.52
511.64	29551.60
511.82	29294.14
511.99	28765.18
512.17	29158.39
512.34	28980.51
512.51	29511.81
512.69	29549.26
512.86	29371.38
513.04	29401.81
513.21	29893.32
513.38	29610.12
513.56	29624.16
513.73	29879.28
513.90	29914.39
514.08	29947.15
514.25	30335.68
514.43	30511.22
514.60	30089.93
514.77	30136.74
514.95	30237.38
515.12	30642.29
515.29	30471.43
515.47	30506.54
515.64	30738.26
515.81	30553.35
515.99	30934.86
516.16	30466.75
516.33	31194.66
516.51	30976.99
516.68	31049.55
516.85	30721.87
517.03	30951.24
517.20	31377.22
517.37	31119.76
517.54	31412.33
517.72	31168.91
517.89	31044.87
518.06	31777.45
518.24	31417.01
518.41	31447.44
518.58	31831.29
518.75	31548.08
518.93	31878.10
519.10	31747.03
519.27	31910.86
519.45	32109.81
519.62	31988.10
519.79	32435.14
519.96	32383.65
520.14	33020.28
520.31	32177.68
520.48	32598.98
520.65	32650.47
520.83	32882.19
521.00	32952.40
521.17	32697.28
521.34	32456.21
521.52	33324.55
521.69	32964.10
521.86	32879.85
522.03	33308.16
522.20	33003.89
522.38	33153.69
522.55	33158.37
522.72	33579.67
522.89	33088.15
523.07	33633.50
523.24	33455.62
523.41	33635.84
523.58	33338.59
523.75	33933.09
523.92	33977.56
524.10	33750.52
524.27	33907.34
524.44	34286.51
524.61	34665.67
524.78	34122.67
524.96	34492.47
525.13	34279.49
525.30	34480.77
525.47	34595.46
525.64	34480.77
525.81	34539.29
525.98	34473.75
526.16	34405.88
526.33	34256.08
526.50	34335.66
526.67	34511.20
526.84	34560.35
527.01	34904.41
527.18	34583.76
527.36	34979.31
527.53	35131.44
527.70	35587.85
527.87	35063.57
528.04	34763.98
528.21	35407.62
528.38	35372.52
528.55	35489.54
528.72	35367.84
528.89	35779.77
529.07	35641.68
529.24	35519.97
529.41	35824.24
529.58	35503.59
529.75	35672.10
529.92	35725.94
530.09	35817.22
530.26	36189.36
530.43	36086.38
530.60	35629.98
530.77	36128.51
530.94	36156.60
531.11	36196.38
531.28	36091.06
531.46	36191.70
531.63	36306.39
531.80	35943.61
531.97	36540.44
532.14	36779.18
532.31	36390.65
532.48	36458.52
532.65	36748.75
532.82	36561.51
532.99	37034.30
533.16	36673.85
533.33	36657.47
533.50	36896.20
533.67	36610.66
533.84	36367.24
534.01	37195.79
534.18	36982.80
534.35	36924.29
534.52	36954.72
534.69	37174.73
534.86	37230.90
535.03	37202.82
535.20	37586.66
535.37	37006.21
535.54	37816.04
535.71	37619.43
535.88	37806.67
536.05	37266.01
536.22	37649.86
536.38	37844.12
536.55	37684.97
536.72	37764.54
536.89	37247.29
537.06	37900.29
537.23	37647.52
537.40	37729.44
537.57	37675.60
537.74	37626.45
537.91	37904.98
538.08	38185.84
538.25	38078.18
538.42	37902.64
538.59	37631.13
538.75	37834.76
538.92	38029.02
539.09	38394.15
539.26	38380.10
539.43	38265.42
539.60	38499.47
539.77	38349.68
539.94	38778.00
540.11	38883.32
540.28	38309.89
540.44	38492.45
540.61	38799.06
540.78	38941.83
540.95	38852.89
541.12	38693.74
541.29	38321.59
541.46	38766.29
541.62	38714.80
541.79	38962.90
541.96	38424.57
542.13	39026.09
542.30	38770.97
542.47	39100.99
542.63	38913.75
542.80	39349.09
542.97	39129.08
543.14	39695.49
543.31	39927.20
543.48	39693.15
543.64	40116.78
543.81	39962.31
543.98	39749.32
544.15	39473.13
544.32	39548.03
544.48	39917.84
544.65	39735.27
544.82	39288.23
544.99	39803.15
545.16	39871.03
545.32	39817.19
545.49	40364.88
545.66	39995.07
545.83	40224.45
546.00	40404.67
546.16	40364.88
546.33	39910.82
546.50	39793.79
546.67	39805.49
546.83	39477.82
547.00	40385.94
547.17	40301.68
547.34	39798.47
547.50	40722.98
547.67	40832.99
547.84	40336.79
548.00	40924.27
548.17	40793.20
548.34	40765.11
548.51	40659.79
548.67	40680.85
548.84	40655.11
549.01	40463.18
549.18	40526.38
549.34	40636.38
549.51	40797.88
549.68	40945.33
549.84	41085.76
550.01	41074.06
550.18	40877.46
550.34	41200.45
550.51	40999.16
550.68	41113.85
550.84	40678.51
551.01	41221.52
551.18	41198.11
551.34	41425.14
551.51	41261.30
551.68	41471.95
551.84	40832.99
552.01	41090.44
552.18	41240.24
552.34	41296.41
552.51	41921.34
552.68	41883.89
552.84	41357.27
553.01	41853.46
553.18	41654.51
553.34	41546.85
553.51	41242.58
553.67	41780.90
553.84	41677.92
554.01	41603.02
554.17	41839.42
554.34	42202.20
554.51	41984.53
554.67	41750.48
554.84	42024.32
555.00	41628.77
555.17	41691.96
555.33	42050.06
555.50	41654.51
555.67	42192.84
555.83	41647.49
556.00	42209.22
556.16	42333.27
556.33	42515.83
556.50	41942.40
556.66	42134.32
556.83	41785.58
556.99	41806.65
557.16	42614.13
557.32	42412.85
557.49	42307.52
557.65	42089.85
557.82	41951.76
557.98	42363.70
558.15	42291.14
558.32	42808.40
558.48	42522.85
558.65	42808.40
558.81	42209.22
558.98	42309.86
559.14	42417.53
559.31	43180.54
559.47	42454.98
559.64	42483.06
559.80	42962.87
559.97	43026.07
560.13	42403.49
560.30	42855.21
560.46	42501.79
560.63	42696.05
560.79	42892.66
560.96	42838.83
561.12	42644.56
561.29	43014.37
561.45	42471.36
561.61	43131.39
561.78	42351.99
561.94	42934.79
562.11	42899.68
562.27	42579.03
562.44	42946.49
562.60	42960.53
562.77	43466.09
562.93	42616.47
563.10	43274.16
563.26	42679.67
563.42	43002.66
563.59	43065.86
563.75	42932.45
563.92	43377.15
564.08	43306.93
564.24	42920.74
564.41	43323.32
564.57	43267.14
564.74	43503.54
564.90	43442.68
565.07	43173.52
565.23	43016.71
565.39	43267.14
565.56	43196.93
565.72	42642.22
565.88	42920.74
566.05	43262.46
566.21	43438.00
566.38	43185.22
566.54	43091.60
566.70	43662.69
566.87	43627.59
567.03	43339.70
567.19	43725.89
567.36	43615.88
567.52	42920.74
567.68	43463.75
567.85	43400.55
568.01	43283.53
568.17	43068.20
568.34	43690.78
568.50	43232.04
568.66	42969.90
568.83	43283.53
568.99	43365.45
569.15	43201.61
569.32	43599.50
569.48	43426.30
569.64	43585.46
569.81	43494.18
569.97	43409.92
570.13	43416.94
570.30	43075.22
570.46	43072.88
570.62	43126.71
570.78	43054.15
570.95	43590.14
571.11	43840.57
571.27	43667.37
571.43	43349.06
571.60	43831.21
571.76	43477.79
571.92	43627.59
572.09	43306.93
572.25	43445.02
572.41	43557.37
572.57	43489.49
572.74	44460.82
572.90	43456.73
573.06	43613.54
573.22	43578.43
573.38	43777.38
573.55	42904.36
573.71	43765.68
573.87	43372.47
574.03	43615.88
574.20	43807.81
574.36	43414.60
574.52	43646.31
574.68	43363.11
574.84	44383.58
575.01	43655.67
575.17	43840.57
575.33	43667.37
575.49	43555.03
575.65	44102.71
575.82	44177.61
575.98	43704.82
576.14	44018.46
576.30	43866.32
576.46	43683.76
576.62	43445.02
576.79	43438.00
576.95	43487.15
577.11	43569.07
577.27	43866.32
577.43	43913.13
577.59	43861.64
577.75	44289.96
577.92	43648.65
578.08	43611.20
578.24	43681.42
578.40	43679.08
578.56	44177.61
578.72	43856.96
578.88	43786.74
579.04	43821.85
579.21	43875.68
579.37	43658.01
579.53	43538.65
579.69	43416.94
579.85	44238.47
580.01	43854.62
580.17	44566.14
580.33	43854.62
580.49	44140.16
580.65	43768.02
580.82	43835.89
580.98	43601.84
581.14	43650.99
581.30	44149.53
581.46	43896.75
581.62	44147.18
581.78	44037.18
581.94	44336.77
582.10	43976.33
582.26	44439.75
582.42	43723.55
582.58	44325.07
582.74	43742.27
582.90	43655.67
583.06	44208.04
583.22	43765.68
583.38	44231.44
583.54	44252.51
583.70	43763.34
583.86	43714.19
584.02	43627.59
584.18	44121.44
584.34	43849.94
584.50	43786.74
584.66	43882.70
584.82	43990.37
584.98	44521.67
585.14	43981.01
585.30	43648.65
585.46	43693.12
585.62	43819.51
585.78	44051.22
585.94	43543.33
586.10	44006.75
586.26	44144.84
586.42	44304.00
586.58	44414.01
586.74	44360.17
586.90	43875.68
587.06	43849.94
587.22	44179.95
587.38	43878.02
587.54	44032.50
587.70	44247.83
587.86	43941.22
588.02	44170.59
588.18	44423.37
588.34	44025.48
588.49	43852.28
588.65	43655.67
588.81	43749.29
588.97	44144.84
589.13	43775.04
589.29	43999.73
589.45	44091.01
589.61	44191.65
589.77	44100.37
589.93	44399.96
590.08	44034.84
590.24	44556.78
590.40	44301.66
590.56	44179.95
590.72	44549.76
590.88	44210.38
591.04	44289.96
591.20	44371.88
591.35	44062.93
591.51	44802.53
591.67	44137.82
591.83	44222.08
591.99	44332.09
592.15	43894.41
592.31	44137.82
592.46	44208.04
592.62	44348.47
592.78	44296.98
592.94	44254.85
593.10	44589.55
593.26	44409.32
593.41	44107.40
593.57	44498.26
593.73	44615.29
593.89	44753.38
594.05	43995.05
594.20	44135.48
594.36	44598.91
594.52	44446.77
594.68	44816.58
594.84	44442.09
594.99	44685.51
595.15	44294.64
595.31	44708.91
595.47	44568.48
595.62	44313.36
595.78	44294.64
595.94	44732.32
596.10	44184.63
596.25	44744.02
596.41	44477.20
596.57	44423.37
596.73	44383.58
596.88	44144.84
597.04	44456.14
597.20	44378.90
597.36	44329.75
597.51	44369.54
597.67	44498.26
597.83	44439.75
597.99	44767.43
598.14	44634.02
598.30	44655.08
598.46	44395.28
598.61	44570.82
598.77	44203.36
598.93	44762.75
599.09	44212.72
599.24	45041.27
599.40	44575.50
599.56	44509.97
599.71	44751.04
599.87	44634.02
600.03	44383.58
600.18	44669.12
600.34	44406.98
600.50	44608.27
600.65	44619.97
600.81	44364.85
600.97	44868.07
601.12	45170.00
601.28	44666.78
601.44	44238.47
601.59	44488.90
601.75	44395.28
601.91	44575.50
602.06	44304.00
602.22	44360.17
602.37	44053.56
602.53	44355.49
602.69	44481.88
602.84	44486.56
603.00	44470.18
603.16	44219.74
603.31	44163.57
603.47	44282.94
603.62	44107.40
603.78	44755.72
603.94	44493.58
604.09	44851.69
604.25	44582.52
604.40	44708.91
604.56	44009.09
604.71	44634.02
604.87	44287.62
605.03	44516.99
605.18	44186.97
605.34	44641.04
605.49	44177.61
605.65	44336.77
605.80	44748.70
605.96	44233.78
606.12	44648.06
606.27	44744.02
606.43	44643.38
606.58	44446.77
606.74	44383.58
606.89	44147.18
607.05	44528.69
607.20	44308.68
607.36	44500.61
607.51	44715.93
607.67	44472.52
607.82	44526.35
607.98	44364.85
608.13	44294.64
608.29	44142.50
608.44	43983.35
608.60	43470.77
608.75	44322.72
608.91	43796.10
609.06	44128.46
609.22	44313.36
609.37	43793.76
609.53	44339.11
609.68	44327.41
609.84	44395.28
609.99	44601.25
610.15	44748.70
610.30	43718.87
610.46	43725.89
610.61	43569.07
610.76	43845.26
610.92	44156.55
611.07	43999.73
611.23	43882.70
611.38	44004.41
611.54	44018.46
611.69	43903.77
611.84	43742.27
612.00	43775.04
612.15	43306.93
612.31	43903.77
612.46	43915.47
612.62	43826.53
612.77	43761.00
612.92	43814.83
613.08	43833.55
613.23	43901.43
613.39	43416.94
613.54	43220.33
613.69	44121.44
613.85	43400.55
614.00	44032.50
614.15	43875.68
614.31	43849.94
614.46	44205.70
614.62	44205.70
614.77	43533.96
614.92	43290.55
615.08	43676.74
615.23	43758.66
615.38	43838.23
615.54	43323.32
615.69	43346.72
615.84	42993.30
616.00	43246.08
616.15	43756.32
616.30	43339.70
616.46	43208.63
616.61	43166.50
616.76	43028.41
616.92	42890.32
617.07	43152.46
617.22	42976.92
617.37	42864.57
617.53	43164.16
617.68	42988.62
617.83	43697.80
617.99	43562.05
618.14	43225.01
618.29	42906.70
618.45	42506.47
618.60	43115.01
618.75	43126.71
618.90	42698.39
619.06	43068.20
619.21	43288.21
619.36	43192.25
619.51	42820.10
619.67	42625.84
619.82	42784.99
619.97	42775.63
620.12	42789.67
620.28	42752.23
620.43	42492.43
620.58	42955.85
620.73	42682.01
620.89	42576.69
621.04	42995.64
621.19	42698.39
621.34	42396.46
621.49	42653.92
621.65	42340.29
621.80	42415.19
621.95	42457.32
622.10	42454.98
622.25	42412.85
622.41	42389.44
622.56	42541.58
622.71	42586.05
622.86	42462.00
623.01	42642.22
623.16	42670.31
623.32	42309.86
623.47	42504.13
623.62	42199.86
623.77	42026.66
623.92	42057.09
624.07	41820.69
624.23	42108.58
624.38	42342.63
624.53	41572.60
624.68	42389.44
624.83	42373.06
624.98	42122.62
625.13	42169.43
625.29	41724.73
625.44	41661.54
625.59	41514.08
625.74	41970.49
625.89	41708.35
626.04	41476.63
626.19	41563.23
626.34	41853.46
626.49	41914.31
626.65	41612.38
626.80	42033.68
626.95	41832.39
627.10	42178.79
627.25	41471.95
627.40	41598.34
627.55	41689.62
627.70	40907.88
627.85	40889.16
628.00	41137.26
628.15	41504.72
628.30	41787.92
628.45	41567.91
628.60	41249.60
628.76	41708.35
628.91	41663.88
629.06	41256.62
629.21	41427.48
629.36	41104.49
629.51	41160.66
629.66	40980.44
629.81	41163.00
629.96	41106.83
630.11	40933.63
630.26	41193.43
630.41	41120.87
630.56	41137.26
630.71	41322.16
630.86	41020.23
631.01	40849.37
631.16	40760.43
631.31	40779.15
631.46	40685.53
631.61	40870.43
631.76	40863.41
631.91	40772.13
632.06	40802.56
632.21	40823.62
632.36	40832.99
632.51	40657.45
632.66	40636.38
632.81	40161.25
632.96	40774.47
633.10	40402.33
633.25	40280.62
633.40	40634.04
633.55	40900.86
633.70	40559.14
633.85	40336.79
634.00	40414.03
634.15	40725.32
634.30	40439.78
634.45	40748.73
634.60	40076.99
634.75	40463.18
634.90	40343.81
635.05	40603.61
635.19	40161.25
635.34	40844.69
635.49	40390.62
635.64	39885.07
635.79	40210.40
635.94	39800.81
636.09	40091.04
636.24	39690.80
636.39	39541.01
636.53	39594.84
636.68	39920.18
636.83	39737.62
636.98	40243.17
637.13	39906.13
637.28	39908.47
637.43	40233.81
637.57	39985.71
637.72	39819.53
637.87	39976.35
638.02	39545.69
638.17	39777.40
638.32	39285.89
638.46	39372.49
638.61	39278.87
638.76	39384.19
638.91	39412.28
639.06	39440.37
639.20	39599.52
639.35	39812.51
639.50	39526.97
639.65	39597.18
639.80	39681.44
639.94	39824.22
640.09	39243.76
640.24	39110.35
640.39	39227.38
640.54	39159.50
640.68	39288.23
640.83	39498.88
640.98	39213.34
641.13	39271.85
641.27	39342.06
641.42	39222.70
641.57	39257.81
641.72	39297.59
641.86	39138.44
642.01	38864.60
642.16	38829.49
642.31	38642.24
642.45	38782.68
642.60	39023.75
642.75	38850.55
642.90	38679.69
643.04	38981.62
643.19	39152.48
643.34	38878.64
643.48	38911.41
643.63	38370.74
643.78	38916.09
643.93	38438.62
644.07	38377.76
644.22	38785.02
644.37	38307.55
644.51	37804.33
644.66	38904.38
644.81	38888.00
644.95	38859.91
645.10	38677.35
645.25	38494.79
645.39	38614.16
645.54	38579.05
645.69	38822.47
645.83	38288.82
645.98	38345.00
646.13	38380.10
646.27	38501.81
646.42	38639.90
646.57	38312.23
646.71	38576.71
646.86	38473.73
647.00	38328.61
647.15	38204.56
647.30	38260.74
647.44	38295.85
647.59	38068.81
647.74	38089.88
647.88	38080.52
648.03	38246.69
648.17	38197.54
648.32	37603.05
648.47	38153.07
648.61	37577.30
648.76	38113.28
648.90	37734.12
649.05	37975.19
649.20	37841.78
649.34	37923.70
649.49	37872.21
649.63	37717.73
649.78	37935.40
649.92	37563.26
650.07	38307.55
650.21	37464.96
650.36	38087.54
650.51	37593.68
650.65	37823.06
650.80	38108.60
650.94	37750.50
651.09	37958.81
651.23	37755.18
651.38	37727.10
651.52	37408.78
651.67	37589.00
651.81	38066.47
651.96	37415.80
652.10	37420.48
652.25	37338.57
652.39	37368.99
652.54	37361.97
652.68	37301.12
652.83	37174.73
652.97	37532.83
653.12	37233.24
653.26	37118.56
653.41	37556.24
653.55	37523.47
653.70	37467.30
653.84	37258.99
653.99	37493.04
654.13	37270.69
654.27	37062.38
654.42	37291.76
654.56	37450.91
654.71	37106.85
654.85	36760.45
655.00	37083.45
655.14	36840.03
655.29	36687.90
655.43	36945.36
655.57	36683.22
655.72	36690.24
655.86	36746.41
656.01	36833.01
656.15	36601.30
656.30	36854.08
656.44	36547.47
656.58	36329.80
656.73	36355.54
656.87	36432.78
657.01	36493.63
657.16	36353.20
657.30	36154.26
657.45	36397.67
657.59	36381.29
657.73	36135.53
657.88	36168.30
658.02	35992.76
658.16	36250.22
658.31	36720.66
658.45	36491.29
658.60	36135.53
658.74	36449.16
658.88	36126.17
659.03	36374.27
659.17	35967.01
659.31	36144.89
659.46	35852.33
659.60	36032.55
659.74	35777.43
659.89	35828.92
660.03	35847.64
660.17	35941.27
660.32	35604.23
660.46	35838.28
660.60	36175.32
660.74	35761.05
660.89	35620.61
661.03	34988.67
661.17	35351.45
661.32	35138.46
661.46	34958.24
661.60	35079.95
661.74	35234.42
661.89	35463.80
662.03	35402.94
662.17	35267.19
662.31	34932.50
662.46	34810.79
662.60	35285.92
662.74	34946.54
662.88	34958.24
663.03	34651.63
663.17	34738.23
663.31	34864.62
663.45	34665.67
663.60	34806.11
663.74	34450.35
663.88	34993.35
664.02	34396.51
664.17	34543.97
664.31	34089.90
664.45	34216.29
664.59	34258.42
664.73	34471.41
664.88	34628.23
665.02	34153.10
665.16	34120.33
665.30	34384.81
665.44	34597.80
665.59	33921.38
665.73	33649.88
665.87	33462.64
666.01	34012.66
666.15	33684.99
666.29	33464.98
666.44	34384.81
666.58	33837.12
666.72	33713.08
666.86	33699.03
667.00	33738.82
667.14	33668.61
667.28	33570.30
667.43	33254.33
667.57	33362.00
667.71	33172.41
667.85	33387.74
667.99	33118.58
668.13	33476.68
668.27	33111.56
668.41	33446.26
668.56	32793.25
668.70	32802.61
668.84	33305.82
668.98	32980.49
669.12	32889.21
669.26	32943.04
669.40	32542.81
669.54	32533.45
669.68	32477.27
669.82	32163.64
669.96	32701.96
670.10	31941.29
670.25	32720.69
670.39	32514.72
670.53	32732.39
670.67	32109.81
670.81	32046.62
670.95	32025.55
671.09	31807.88
671.23	32243.22
671.37	32446.85
671.51	32224.50
671.65	31512.97
671.79	31681.49
671.93	31562.12
672.07	31906.18
672.21	31463.82
672.35	31665.11
672.49	31660.43
672.63	31594.89
672.77	31131.47
672.91	31585.53
673.05	31243.81
673.19	31119.76
673.33	31131.47
673.47	31108.06
673.61	30927.84
673.75	30855.28
673.89	30651.66
674.03	30899.75
674.17	30448.03
674.31	30607.19
674.45	30476.12
674.59	30525.27
674.73	30824.86
674.87	30511.22
675.01	30244.40
675.15	30789.75
675.29	30581.44
675.43	30031.41
675.56	30480.80
675.70	30043.12
675.84	29811.40
675.98	28973.49
676.12	29741.19
676.26	29848.85
676.40	29062.43
676.54	29359.68
676.68	29460.32
676.82	29041.37
676.96	29076.48
677.10	29172.44
677.23	28933.70
677.37	29092.86
677.51	29034.35
677.65	29001.58
677.79	28538.15
677.93	28503.04
678.07	28613.05
678.21	28299.42
678.34	28435.17
678.48	28437.51
678.62	28121.54
678.76	27988.13
678.90	27789.18
679.04	27906.21
679.18	28570.92
679.31	27564.49
679.45	27693.22
679.59	27386.61
679.73	27573.85
679.87	27697.90
680.00	27623.00
680.14	27414.69
680.28	27014.46
680.42	27510.66
680.56	27009.78
680.70	27325.75
680.83	26749.98
680.97	26661.04
681.11	26485.50
681.25	26684.45
681.39	26490.18
681.52	26862.33
681.66	26429.33
681.80	26120.38
681.94	26377.84
682.07	26389.54
682.21	26092.29
682.35	25998.67
682.49	26178.89
682.62	26256.13
682.76	25923.77
682.90	25862.92
683.04	25958.88
683.17	25848.88
683.31	25376.09
683.45	25593.76
683.59	25336.30
683.72	25366.73
683.86	24725.42
684.00	25076.50
684.13	25200.55
684.27	25067.14
684.41	24924.36
684.55	24566.26
684.68	24341.57
684.82	24329.87
684.96	24264.33
685.09	24533.50
685.23	24458.60
685.37	24292.42
685.50	24053.69
685.64	24032.62
685.78	23843.04
685.91	23866.44
686.05	23857.08
686.19	23723.67
686.32	23456.85
686.46	23241.52
686.60	23325.78
686.73	23353.87
686.87	23285.99
687.01	22974.70
687.14	23070.66
687.28	22860.01
687.42	22916.19
687.55	22799.16
687.69	22632.98
687.82	22796.82
687.96	23063.64
688.10	22476.16
688.23	22324.03
688.37	22253.81
688.50	22040.82
688.64	22377.86
688.78	22024.44
688.91	21893.37
689.05	22438.72
689.18	21872.31
689.32	21666.34
689.46	21764.64
689.59	22167.21
689.73	21710.81
689.86	21778.68
690.00	21469.73
690.13	21642.93
690.27	21355.05
690.41	21343.35
690.54	21123.33
690.68	21018.01
690.81	20996.95
690.95	20781.62
691.08	20695.02
691.22	20758.21
691.35	20615.44
691.49	20910.35
691.62	20776.94
691.76	20723.10
691.89	20456.28
692.03	20425.86
692.16	20306.49
692.30	19924.98
692.43	20449.26
692.57	19995.20
692.70	19857.10
692.84	19850.08
692.97	19873.49
693.11	19522.41
693.24	19648.80
693.38	19360.91
693.51	19276.65
693.65	19241.54
693.78	19400.70
693.92	19185.37
694.05	19133.88
694.19	19309.42
694.32	18934.93
694.45	18857.70
694.59	18759.39
694.72	18897.49
694.86	18595.56
694.99	18588.53
695.13	18310.01
695.26	18590.88
695.39	18490.23
695.53	18258.52
695.66	17888.71
695.80	18038.51
695.93	17767.01
696.07	17605.51
696.20	17909.78
696.33	17830.20
696.47	17898.08
696.60	17511.89
696.73	17490.82
696.87	17570.40
697.00	17783.39
697.14	17525.93
697.27	17612.53
697.40	17425.29
697.54	17317.62
697.67	17242.73
697.80	17132.72
697.94	16833.13
698.07	16706.74
698.21	16746.53
698.34	16844.84
698.47	16772.28
698.61	16365.03
698.74	16542.91
698.87	16489.07
699.01	16224.59
699.14	16077.14
699.27	16397.79
699.40	16142.67
699.54	16086.50
699.67	15604.35
699.80	15688.61
699.94	15946.07
700.07	16189.49
700.20	15548.18
700.34	15651.16
700.47	15571.58
700.60	15625.42
700.73	15744.78
700.87	15634.78
701.00	15379.66
701.13	15201.78
701.26	15087.09
701.40	15187.74
701.53	15091.77
701.66	15138.58
701.79	15082.41
701.93	14988.79
702.06	14600.26
702.19	14757.08
702.32	14878.79
702.46	14691.54
702.59	14651.75
702.72	14808.57
702.85	14499.62
702.99	14541.75
703.12	14679.84
703.25	14574.52
703.38	14375.57
703.51	14190.67
703.65	14321.74
703.78	14061.94
703.91	13792.78
704.04	13991.72
704.17	14001.08
704.31	13713.20
704.44	13619.58
704.57	13565.74
704.70	13291.90
704.83	13444.04
704.96	13483.83
705.10	13441.70
705.23	13909.80
>>>>>End Processed Spectral Data<<<<<
