SpectraSuite Data File
++++++++++++++++++++++++++++++++++++
Date: Fri Oct 25 10:44:05 EDT 2013
User: price-jones
Dark Spectrum Present: No
Reference Spectrum Present: No
Number of Sampled Component Spectra: 1
Spectrometers: USB2+H05261
Integration Time (usec): 100000 (USB2+H05261)
Spectra Averaged: 1 (USB2+H05261)
Boxcar Smoothing: 0 (USB2+H05261)
Correct for Electrical Dark: No (USB2+H05261)
Strobe/Lamp Enabled: No (USB2+H05261)
Correct for Detector Non-linearity: No (USB2+H05261)
Correct for Stray Light: No (USB2+H05261)
Number of Pixels in Processed Spectrum: 2048
>>>>>Begin Processed Spectral Data<<<<<
365.73	128.73
365.92	128.73
366.12	128.73
366.32	51.49
366.52	0.00
366.72	18.72
366.91	39.79
367.11	11.70
367.31	0.00
367.51	0.00
367.70	37.45
367.90	14.04
368.10	30.43
368.30	18.72
368.49	32.77
368.69	0.00
368.89	14.04
369.09	0.00
369.28	28.09
369.48	46.81
369.68	88.94
369.87	44.47
370.07	142.77
370.27	53.83
370.47	182.56
370.66	372.15
370.86	411.93
371.06	409.59
371.25	514.92
371.45	416.62
371.65	451.72
371.84	430.66
372.04	407.25
372.24	472.79
372.44	507.90
372.63	500.87
372.83	552.37
373.03	454.06
373.22	531.30
373.42	561.73
373.62	571.09
373.81	482.15
374.01	496.19
374.21	578.11
374.40	540.66
374.60	496.19
374.79	491.51
374.99	592.16
375.19	545.34
375.38	585.13
375.58	627.26
375.78	648.33
375.97	620.24
376.17	615.56
376.37	613.22
376.56	561.73
376.76	645.99
376.95	578.11
377.15	610.88
377.35	678.76
377.54	671.73
377.74	697.48
377.93	617.90
378.13	706.84
378.33	655.35
378.52	723.23
378.72	624.92
378.91	657.69
379.11	596.84
379.31	594.50
379.50	636.63
379.70	751.31
379.89	622.58
380.09	704.50
380.28	709.18
380.48	697.48
380.68	695.14
380.87	702.16
381.07	784.08
381.26	667.05
381.46	758.33
381.65	695.14
381.85	669.39
382.04	732.59
382.24	716.20
382.43	676.41
382.63	697.48
382.83	653.01
383.02	723.23
383.22	779.40
383.41	706.84
383.61	727.91
383.80	746.63
384.00	774.72
384.19	734.93
384.39	814.51
384.58	767.70
384.78	725.57
384.97	844.93
385.17	730.25
385.36	739.61
385.56	755.99
385.75	758.33
385.95	816.85
386.14	873.02
386.34	896.43
386.53	828.55
386.72	915.15
386.92	877.70
387.11	870.68
387.31	854.30
387.50	880.04
387.70	898.77
387.89	856.64
388.09	966.64
388.28	887.06
388.48	971.32
388.67	961.96
388.86	917.49
389.06	926.85
389.25	950.26
389.45	1020.47
389.64	1001.75
389.84	1057.92
390.03	1081.33
390.22	959.62
390.42	959.62
390.61	971.32
390.81	1032.18
391.00	1118.78
391.19	1067.28
391.39	1004.09
391.58	1032.18
391.78	999.41
391.97	1125.80
392.16	1048.56
392.36	1139.84
392.55	994.73
392.75	933.87
392.94	1018.13
393.13	1039.20
393.33	926.85
393.52	1137.50
393.71	1200.69
393.91	1064.94
394.10	1034.52
394.29	1196.01
394.49	1158.57
394.68	1200.69
394.88	1200.69
395.07	1289.64
395.26	1231.12
395.46	1214.74
395.65	1282.61
395.84	1217.08
396.04	1308.36
396.23	1205.38
396.42	1156.22
396.62	1193.67
396.81	1170.27
397.00	1226.44
397.19	1313.04
397.39	1357.51
397.58	1390.28
397.77	1451.13
397.97	1359.85
398.16	1474.54
398.35	1362.19
398.55	1437.09
398.74	1523.69
398.93	1605.61
399.12	1519.01
399.32	1455.81
399.51	1535.39
399.70	1598.59
399.90	1556.46
400.09	1575.18
400.28	1675.82
400.47	1619.65
400.67	1582.20
400.86	1624.33
401.05	1689.87
401.24	1736.68
401.44	1757.74
401.63	1741.36
401.82	1682.85
402.01	1799.87
402.21	1755.40
402.40	1839.66
402.59	1783.49
402.78	1610.29
402.97	1886.47
403.17	1797.53
403.36	1865.41
403.55	1886.47
403.74	1851.36
403.93	1872.43
404.13	1914.56
404.32	1975.41
404.51	1947.33
404.70	1947.33
404.89	1844.34
405.09	2062.01
405.28	2085.42
405.47	1998.82
405.66	2040.95
405.85	2031.58
406.05	2045.63
406.24	2038.61
406.43	2071.37
406.62	2097.12
406.81	2167.34
407.00	2083.08
407.20	2108.82
407.39	2083.08
407.58	2085.42
407.77	2172.02
407.96	2289.04
408.15	2314.79
408.34	2223.51
408.54	2258.62
408.73	2303.09
408.92	2356.92
409.11	2282.02
409.30	2242.23
409.49	2333.51
409.68	2317.13
409.87	2321.81
410.07	2340.54
410.26	2431.82
410.45	2420.11
410.64	2509.05
410.83	2614.38
411.02	2665.87
411.21	2562.89
411.40	2597.99
411.59	2672.89
411.78	2583.95
411.98	2757.15
412.17	2703.32
412.36	2726.72
412.55	2747.79
412.74	2862.48
412.93	2696.30
413.12	2717.36
413.31	2881.20
413.50	2803.96
413.69	2920.99
413.88	2974.82
414.07	2956.10
414.26	2956.10
414.45	3035.67
414.64	3101.21
414.83	3059.08
415.02	2946.73
415.22	3194.83
415.41	3213.56
415.60	3138.66
415.79	3283.77
415.98	3309.52
416.17	3255.69
416.36	3379.73
416.55	3251.00
416.74	3297.81
416.93	3461.65
417.12	3461.65
417.31	3398.46
417.50	3318.88
417.69	3330.58
417.88	3466.33
418.07	3442.93
418.26	3524.85
418.45	3487.40
418.64	3672.30
418.83	3602.08
419.02	3611.45
419.21	3676.98
419.39	3658.26
419.58	3555.27
419.77	3550.59
419.96	3588.04
420.15	3712.09
420.34	3588.04
420.53	3887.63
420.72	3971.89
420.91	3829.12
421.10	4056.15
421.29	3960.19
421.48	3875.93
421.67	3824.44
421.86	3749.54
422.05	3805.71
422.24	3789.33
422.43	3803.37
422.61	3955.51
422.80	3908.69
422.99	4058.49
423.18	3948.48
423.37	4009.34
423.56	3953.16
423.75	3953.16
423.94	3901.67
424.13	3747.20
424.32	3953.16
424.50	3927.42
424.69	4021.04
424.88	4044.45
425.07	3831.46
425.26	3936.78
425.45	4032.74
425.64	3854.86
425.83	4004.66
426.01	4091.26
426.20	4025.72
426.39	4028.06
426.58	4044.45
426.77	4070.19
426.96	4039.76
427.15	4032.74
427.33	4255.09
427.52	4126.36
427.71	4128.70
427.90	4119.34
428.09	4234.03
428.28	4102.96
428.46	4161.47
428.65	4135.73
428.84	4322.97
429.03	4271.48
429.22	4219.99
429.40	4189.56
429.59	4205.94
429.78	4007.00
429.97	3960.19
430.16	4016.36
430.34	4018.70
430.53	4168.49
430.72	4217.65
430.91	4308.93
431.10	4416.59
431.28	4477.44
431.47	4711.50
431.66	4727.88
431.85	4667.03
432.03	4725.54
432.22	4627.24
432.41	4709.16
432.60	4603.83
432.79	4786.40
432.97	4823.84
433.16	4800.44
433.35	4636.60
433.54	4709.16
433.72	4655.33
433.91	4627.24
434.10	4884.70
434.28	4873.00
434.47	4854.27
434.66	5116.41
434.85	5128.11
435.03	5151.52
435.22	4875.34
435.41	5193.65
435.59	5186.63
435.78	5095.35
435.97	5277.91
436.16	5273.23
436.34	5198.33
436.53	5111.73
436.72	5188.97
436.90	5146.84
437.09	5282.59
437.28	5205.35
437.46	5217.05
437.65	5153.86
437.84	5228.76
438.02	5095.35
438.21	5259.18
438.40	5224.08
438.58	5568.13
438.77	5423.02
438.96	5444.09
439.14	5638.35
439.33	5701.54
439.52	5687.50
439.70	5757.72
439.89	5720.27
440.08	5804.53
440.26	5703.89
440.45	5729.63
440.63	5966.03
440.82	6129.86
441.01	5940.28
441.19	6129.86
441.38	6228.17
441.57	6043.26
441.75	6104.12
441.94	6368.60
442.12	6328.81
442.31	6471.58
442.50	6370.94
442.68	6335.83
442.87	6422.43
443.05	6169.65
443.24	6677.55
443.43	6462.22
443.61	6623.72
443.80	6693.93
443.98	6389.66
444.17	6279.66
444.35	6525.41
444.54	6806.28
444.73	6604.99
444.91	6628.40
445.10	6682.23
445.28	6499.67
445.47	6406.05
445.65	6478.60
445.84	6705.63
446.02	6600.31
446.21	6743.08
446.39	6637.76
446.58	6881.18
446.77	6722.02
446.95	6717.34
447.14	6974.80
447.32	6771.17
447.51	6682.23
447.69	6799.26
447.88	6902.24
448.06	6754.79
448.25	6574.56
448.43	6892.88
448.62	6715.00
448.80	6803.94
448.99	7016.93
449.17	6993.52
449.36	6827.34
449.54	6916.28
449.73	7133.95
449.91	7150.34
450.10	7185.44
450.28	7206.51
450.46	7363.33
450.65	7396.09
450.83	7293.11
451.02	7091.82
451.20	7480.35
451.39	7258.00
451.57	7283.75
451.76	7290.77
451.94	7255.66
452.13	7318.86
452.31	7140.97
452.49	7225.23
452.68	7410.14
452.86	7190.13
453.05	7438.22
453.23	7463.97
453.42	7372.69
453.60	7316.51
453.78	7550.57
453.97	7566.95
454.15	7480.35
454.34	7382.05
454.52	7686.32
454.70	7595.04
454.89	7620.78
455.07	7541.21
455.26	7669.94
455.44	7899.31
455.62	7815.05
455.81	7709.72
455.99	7932.08
456.17	7939.10
456.36	7981.23
456.54	8035.06
456.73	8100.59
456.91	8105.28
457.09	8276.13
457.28	8248.05
457.46	8175.49
457.64	8386.14
457.83	8219.96
458.01	8016.33
458.19	8425.93
458.38	8189.53
458.56	8456.36
458.74	8369.76
458.93	8393.16
459.11	8292.52
459.29	8353.37
459.48	8479.76
459.66	8327.63
459.84	8542.96
460.03	8613.17
460.21	8681.05
460.39	8592.11
460.57	8617.85
460.76	8711.47
460.94	8737.22
461.12	8643.60
461.31	8758.28
461.49	8739.56
461.67	8748.92
461.85	9130.43
462.04	9004.04
462.22	9500.23
462.40	9181.92
462.59	8964.25
462.77	8943.19
462.95	9032.13
463.13	8966.59
463.32	9172.56
463.50	8980.64
463.68	8926.80
463.86	9191.28
464.05	9090.64
464.23	9053.19
464.41	9181.92
464.59	8889.35
464.78	9289.59
464.96	9312.99
465.14	8877.65
465.32	9298.95
465.50	9558.75
465.69	9453.42
465.87	9380.87
466.05	9270.86
466.23	9181.92
466.41	9263.84
466.60	9408.95
466.78	9261.50
466.96	9177.24
467.14	9202.99
467.32	9427.68
467.51	9736.63
467.69	9247.46
467.87	9472.15
468.05	9628.96
468.23	9535.34
468.41	9479.17
468.60	9554.07
468.78	9823.23
468.96	9551.73
469.14	9872.38
469.32	9968.34
469.50	9666.41
469.69	9886.42
469.87	10129.84
470.05	9998.77
470.23	9966.00
470.41	9928.55
470.59	10237.50
470.77	10150.90
470.95	10260.91
471.14	10169.63
471.32	10031.54
471.50	10607.31
471.68	10462.19
471.86	10387.30
472.04	10452.83
472.22	10560.50
472.40	10345.17
472.58	10312.40
472.77	10607.31
472.95	10750.08
473.13	11126.91
473.31	10707.95
473.49	10726.68
473.67	10607.31
473.85	10930.30
474.03	10991.16
474.21	11253.30
474.39	10927.96
474.57	11314.15
474.75	11304.79
474.93	11346.92
475.12	11393.73
475.30	11353.94
475.48	11492.03
475.66	11356.28
475.84	11248.61
476.02	11482.67
476.20	11545.86
476.38	11637.14
476.56	12056.10
476.74	11899.28
476.92	11824.39
477.10	11932.05
477.28	12238.66
477.46	12306.54
477.64	12030.35
477.82	12334.62
478.00	12744.22
478.18	12578.04
478.36	12737.20
478.54	12978.27
478.72	12954.87
478.90	13341.05
479.08	13205.30
479.26	13296.58
479.44	12910.40
479.62	13511.91
479.80	13540.00
479.98	13659.37
480.16	13818.52
480.34	13788.10
480.52	14005.77
480.70	13823.20
480.88	13788.10
481.06	13996.40
481.24	14244.50
481.41	14689.20
481.59	14764.10
481.77	14963.04
481.95	14375.57
482.13	15007.52
482.31	14888.15
482.49	14909.21
482.67	14860.06
482.85	15386.68
483.03	15456.90
483.21	15508.39
483.39	15557.54
483.57	15641.80
483.74	15812.66
483.92	15894.58
484.10	15779.89
484.28	16166.08
484.46	16308.85
484.64	16465.67
484.82	16243.32
485.00	16269.06
485.18	16463.33
485.35	16695.04
485.53	16393.11
485.71	16252.68
485.89	16706.74
486.07	16645.89
486.25	16819.09
486.43	17104.64
486.61	17322.30
486.78	17334.01
486.96	17345.71
487.14	17884.03
487.32	18176.60
487.50	18347.46
487.68	18253.84
487.85	18525.34
488.03	18796.84
488.21	18754.71
488.39	18663.43
488.57	18726.63
488.75	18892.80
488.92	19283.67
489.10	19461.55
489.28	19463.90
489.46	19721.35
489.64	19786.89
489.81	20095.84
489.99	20372.02
490.17	20549.90
490.35	20666.93
490.53	20334.57
490.70	20573.31
490.88	20882.26
491.06	21221.64
491.24	20765.23
491.41	20744.17
491.59	20844.81
491.77	20980.56
491.95	21380.79
492.13	21776.34
492.30	22136.79
492.48	22162.53
492.66	22211.68
492.84	22391.91
493.01	22485.53
493.19	22408.29
493.37	22679.79
493.54	22621.28
493.72	23339.82
493.90	22986.40
494.08	23316.42
494.25	23438.12
494.43	23433.44
494.61	23503.66
494.79	23723.67
494.96	23601.96
495.14	23990.49
495.32	23964.75
495.49	24350.93
495.67	24123.90
495.85	24393.06
496.02	24734.78
496.20	24463.28
496.38	24666.91
496.55	24886.92
496.73	25315.23
496.91	25118.63
497.09	25287.15
497.26	25333.96
497.44	25355.02
497.62	25542.27
497.79	25640.57
497.97	25626.53
498.14	25769.30
498.32	25827.81
498.50	25827.81
498.67	26487.84
498.85	26211.66
499.03	26497.20
499.20	26696.15
499.38	26590.83
499.56	26625.93
499.73	26827.22
499.91	26876.37
500.08	26916.16
500.26	26576.78
500.44	26574.44
500.61	26902.12
500.79	26600.19
500.97	27236.81
501.14	27550.45
501.32	27583.21
501.49	27353.84
501.67	27524.70
501.84	27662.79
502.02	27817.27
502.20	28060.68
502.37	28325.16
502.55	28247.93
502.72	28276.01
502.90	28355.59
503.07	28430.49
503.25	28439.85
503.43	28292.40
503.60	28402.40
503.78	28395.38
503.95	28407.08
504.13	28868.17
504.30	28975.83
504.48	28893.91
504.65	29415.85
504.83	29446.28
505.01	29247.33
505.18	29542.24
505.36	29780.98
505.53	29710.76
505.71	30008.01
505.88	30171.85
506.06	29872.26
506.23	30075.88
506.41	29888.64
506.58	30419.94
506.76	30171.85
506.93	30279.51
507.11	30590.80
507.28	30040.78
507.46	30670.38
507.63	30321.64
507.81	30331.00
507.98	30572.08
508.16	30792.09
508.33	31077.63
508.50	31215.72
508.68	31573.83
508.85	31508.29
509.03	31157.21
509.20	31147.85
509.38	31604.25
509.55	31417.01
509.73	31580.85
509.90	31957.67
510.08	31772.77
510.25	31777.45
510.42	31913.20
510.60	31814.90
510.77	32510.04
510.95	32247.90
511.12	32182.37
511.30	32201.09
511.47	32851.76
511.64	32954.74
511.82	32842.40
511.99	32638.77
512.17	32449.19
512.34	32456.21
512.51	32650.47
512.69	33146.67
512.86	32657.49
513.04	33256.67
513.21	32840.06
513.38	33385.40
513.56	33427.53
513.73	33209.86
513.90	33195.82
514.08	33242.63
514.25	33436.89
514.43	33551.58
514.60	33841.81
514.77	33919.04
514.95	33895.64
515.12	33745.84
515.29	34031.39
515.47	34263.10
515.64	34597.80
515.81	34059.48
515.99	34398.85
516.16	34263.10
516.33	34064.16
516.51	33989.26
516.68	33865.21
516.85	33659.24
517.03	34155.44
517.20	34412.90
517.37	34567.37
517.54	34965.26
517.72	34316.93
517.89	34089.90
518.06	34356.72
518.24	34625.89
518.41	34494.82
518.58	35161.87
518.75	34824.83
518.93	35105.70
519.10	35049.52
519.27	35646.36
519.45	35398.26
519.62	36009.14
519.79	35592.53
519.96	35749.34
520.14	35789.13
520.31	35585.50
520.48	36376.61
520.65	35480.18
520.83	36528.74
521.00	36456.18
521.17	36301.71
521.34	36175.32
521.52	36301.71
521.69	36683.22
521.86	37036.64
522.03	36652.79
522.20	36732.37
522.38	36947.70
522.55	36844.71
522.72	36444.48
522.89	36407.03
523.07	37289.42
523.24	36854.08
523.41	37022.59
523.58	37411.12
523.75	37886.25
523.92	37773.91
524.10	37787.95
524.27	37600.71
524.44	37542.19
524.61	38000.94
524.78	37460.27
524.96	37731.78
525.13	37280.05
525.30	38485.43
525.47	37914.34
525.64	38232.65
525.81	38127.33
525.98	37766.88
526.16	37783.27
526.33	37610.07
526.50	37949.45
526.67	37645.18
526.84	37940.08
527.01	37610.07
527.18	38190.52
527.36	38391.81
527.53	38733.53
527.70	39241.42
527.87	38401.17
528.04	38646.93
528.21	38773.31
528.38	38660.97
528.55	38857.57
528.72	39082.27
528.89	39328.02
529.07	39171.21
529.24	39178.23
529.41	38824.81
529.58	39332.70
529.75	39274.19
529.92	39557.39
530.09	39526.97
530.26	39536.33
530.43	39613.57
530.60	39625.27
530.77	39110.35
530.94	39660.38
531.11	39936.56
531.28	39742.30
531.46	39669.74
531.63	39899.11
531.80	39959.97
531.97	39777.40
532.14	39632.29
532.31	39356.11
532.48	39735.27
532.65	39746.98
532.82	39959.97
532.99	40526.38
533.16	40058.27
533.33	40488.93
533.50	40545.10
533.67	40423.39
533.84	40158.91
534.01	40554.46
534.18	40182.32
534.35	40701.92
534.52	40430.41
534.69	40662.13
534.86	40872.78
535.03	41165.34
535.20	41633.45
535.37	41174.70
535.54	40898.52
535.71	40706.60
535.88	41050.66
536.05	41415.78
536.22	41511.74
536.38	41448.55
536.55	41326.84
536.72	40861.07
536.89	41153.64
537.06	41177.04
537.23	41317.48
537.40	41179.39
537.57	41591.32
537.74	41287.05
537.91	41750.48
538.08	41446.21
538.25	41565.57
538.42	41696.64
538.59	41900.27
538.75	41221.52
538.92	41261.30
539.09	41797.29
539.26	41897.93
539.43	41584.30
539.60	41612.38
539.77	41659.20
539.94	41783.24
540.11	41818.35
540.28	41764.52
540.44	41785.58
540.61	41312.80
540.78	41848.78
540.95	41677.92
541.12	41720.05
541.29	42059.43
541.46	41977.51
541.62	42368.38
541.79	42766.27
541.96	41916.65
542.13	42354.33
542.30	42382.42
542.47	42564.98
542.63	42480.72
542.80	42635.20
542.97	42939.47
543.14	43157.14
543.31	42717.12
543.48	42925.42
543.64	43210.97
543.81	43358.42
543.98	43063.52
544.15	43103.31
544.32	43019.05
544.48	43468.43
544.65	43529.28
544.82	43316.29
544.99	43239.06
545.16	43103.31
545.32	43208.63
545.49	43863.98
545.66	43606.52
545.83	43489.49
546.00	43906.11
546.16	43358.42
546.33	43281.19
546.50	43524.60
546.67	43852.28
546.83	42930.11
547.00	43487.15
547.17	43524.60
547.34	43662.69
547.50	43482.47
547.67	44287.62
547.84	43739.93
548.00	43852.28
548.17	44292.30
548.34	43985.69
548.51	44329.75
548.67	44093.35
548.84	44308.68
549.01	44079.31
549.18	44091.01
549.34	43810.15
549.51	44561.46
549.68	44547.42
549.84	44325.07
550.01	44636.36
550.18	44133.14
550.34	44268.89
550.51	44392.94
550.68	43931.86
550.84	44320.38
551.01	44516.99
551.18	44484.22
551.34	44652.74
551.51	44570.82
551.68	44552.10
551.84	44807.22
552.01	44509.97
552.18	44493.58
552.34	44201.02
552.51	44451.45
552.68	44755.72
552.84	44755.72
553.01	44910.20
553.18	44973.39
553.34	44809.56
553.51	44978.07
553.67	45137.23
553.84	45067.02
554.01	45017.86
554.17	45450.86
554.34	45193.40
554.51	45385.33
554.67	45305.75
554.84	45083.40
555.00	45219.15
555.17	45125.53
555.33	45085.74
555.50	45352.56
555.67	45626.40
555.83	45270.64
556.00	45181.70
556.16	45392.35
556.33	45219.15
556.50	45202.77
556.66	45371.28
556.83	45235.53
556.99	45315.11
557.16	45837.05
557.32	45539.80
557.49	45666.19
557.65	45401.71
557.82	45565.55
557.98	45682.58
558.15	45102.12
558.32	45446.18
558.48	45015.52
558.65	45539.80
558.81	45366.60
558.98	45375.97
559.14	45151.27
559.31	45642.79
559.47	45947.06
559.64	45645.13
559.80	45963.44
559.97	45666.19
560.13	45675.55
560.30	45675.55
560.46	45757.47
560.63	45918.97
560.79	46019.61
560.96	45507.04
561.12	46253.67
561.29	45759.81
561.45	45799.60
561.61	45490.65
561.78	45663.85
561.94	45474.27
562.11	45530.44
562.27	45736.41
562.44	46040.68
562.60	45972.80
562.77	46260.69
562.93	45570.23
563.10	45792.58
563.26	45668.53
563.42	46295.80
563.59	46089.83
563.75	46066.42
563.92	46204.52
564.08	46066.42
564.24	46148.34
564.41	46007.91
564.57	45855.78
564.74	45792.58
564.90	45895.56
565.07	45900.25
565.23	45876.84
565.39	46246.65
565.56	46066.42
565.72	45715.34
565.88	45605.34
566.05	45958.76
566.21	46288.77
566.38	46148.34
566.54	45764.49
566.70	46251.33
566.87	46309.84
567.03	46426.87
567.19	46656.24
567.36	46377.72
567.52	45965.78
567.68	46447.93
567.85	46176.43
568.01	46246.65
568.17	46174.09
568.34	46319.20
568.50	46410.48
568.66	46370.69
568.83	46050.04
568.99	46045.36
569.15	46136.64
569.32	45764.49
569.48	46183.45
569.64	46080.47
569.81	46288.77
569.97	46550.91
570.13	46431.55
570.30	45874.50
570.46	46099.19
570.62	45883.86
570.78	45890.88
570.95	46251.33
571.11	46574.32
571.27	45745.77
571.43	46036.00
571.60	46501.76
571.76	45977.48
571.92	46043.02
572.09	46335.59
572.25	45883.86
572.41	46564.96
572.57	46382.40
572.74	46960.51
572.90	46684.33
573.06	46312.18
573.22	46576.66
573.38	46138.98
573.55	46209.20
573.71	46646.88
573.87	46632.83
574.03	46452.61
574.20	46120.26
574.36	46431.55
574.52	46314.52
574.68	46356.65
574.84	46382.40
575.01	46174.09
575.17	46429.21
575.33	46370.69
575.49	46138.98
575.65	46162.39
575.82	46651.56
575.98	46192.81
576.14	46553.26
576.30	46569.64
576.46	46555.60
576.62	46171.75
576.79	46265.37
576.95	46281.75
577.11	46621.13
577.27	46677.30
577.43	46529.85
577.59	46106.21
577.75	46256.01
577.92	46000.89
578.08	46457.29
578.24	46204.52
578.40	46691.35
578.56	46478.36
578.72	46178.77
578.88	46639.86
579.04	46780.29
579.21	46681.98
579.37	46660.92
579.53	46478.36
579.69	46150.68
579.85	46452.61
580.01	46536.87
580.17	46115.58
580.33	46660.92
580.49	46387.08
580.65	46780.29
580.82	46548.57
580.98	46450.27
581.14	46473.68
581.30	46766.24
581.46	46691.35
581.62	46824.76
581.78	46466.66
581.94	46693.69
582.10	46520.49
582.26	46398.78
582.42	46522.83
582.58	46630.49
582.74	46375.37
582.90	46806.03
583.06	46548.57
583.22	46768.58
583.38	46663.26
583.54	47164.14
583.70	46948.81
583.86	46600.07
584.02	46272.39
584.18	47065.83
584.34	46178.77
584.50	47056.47
584.66	46499.42
584.82	46335.59
584.98	46913.70
585.14	46586.02
585.30	46155.36
585.46	46288.77
585.62	46347.29
585.78	46843.48
585.94	46319.20
586.10	46454.95
586.26	46492.40
586.42	46873.91
586.58	46850.50
586.74	46763.90
586.90	46529.85
587.06	46293.46
587.22	46721.77
587.38	46213.88
587.54	46373.03
587.70	46593.04
587.86	46784.97
588.02	46756.88
588.18	46588.36
588.34	46092.17
588.49	46370.69
588.65	45628.74
588.81	46223.24
588.97	46026.63
589.13	46277.07
589.29	46220.90
589.45	46382.40
589.61	46609.43
589.77	46710.07
589.93	46827.10
590.08	46768.58
590.24	46571.98
590.40	46993.28
590.56	46646.88
590.72	46913.70
590.88	46241.96
591.04	46291.12
591.20	47030.72
591.35	46539.21
591.51	46555.60
591.67	46642.20
591.83	46719.43
591.99	46885.61
592.15	46403.46
592.31	46469.00
592.46	46639.86
592.62	46763.90
592.78	46838.80
592.94	46848.16
593.10	46714.75
593.26	47334.99
593.41	46979.23
593.57	46302.82
593.73	46560.28
593.89	46852.84
594.05	46293.46
594.20	46808.37
594.36	46738.16
594.52	46550.91
594.68	46894.97
594.84	46288.77
594.99	47014.34
595.15	46930.08
595.31	46981.57
595.47	46836.46
595.62	46836.46
595.78	46508.79
595.94	47152.43
596.10	46665.60
596.25	46904.34
596.41	46899.65
596.57	46604.75
596.73	46834.12
596.88	46419.84
597.04	46604.75
597.20	47224.99
597.36	46677.30
597.51	47044.77
597.67	46906.68
597.83	47173.50
597.99	46887.95
598.14	47253.08
598.30	46696.03
598.46	46621.13
598.61	46656.24
598.77	46681.98
598.93	46834.12
599.09	46934.76
599.24	46923.06
599.40	46927.74
599.56	46953.49
599.71	46836.46
599.87	46649.22
600.03	46871.57
600.18	46789.65
600.34	46557.94
600.50	46719.43
600.65	46520.49
600.81	47107.96
600.97	46845.82
601.12	46841.14
601.28	46658.58
601.44	46782.63
601.59	46480.70
601.75	46206.86
601.91	46686.67
602.06	46766.24
602.22	46618.79
602.37	46674.96
602.53	46674.96
602.69	47367.76
602.84	46295.80
603.00	46429.21
603.16	46937.10
603.31	46827.10
603.47	46504.10
603.62	46653.90
603.78	46871.57
603.94	46784.97
604.09	46621.13
604.25	47103.28
604.40	46323.88
604.56	46368.35
604.71	46822.42
604.87	46396.44
605.03	46773.27
605.18	46583.68
605.34	46483.04
605.49	46408.14
605.65	46445.59
605.80	46522.83
605.96	46602.41
606.12	46848.16
606.27	46480.70
606.43	46171.75
606.58	46773.27
606.74	46239.62
606.89	46653.90
607.05	46609.43
607.20	46621.13
607.36	46227.92
607.51	46672.62
607.67	46476.02
607.82	46511.13
607.98	46377.72
608.13	45935.35
608.29	46363.67
608.44	45713.00
608.60	45717.68
608.75	46454.95
608.91	46822.42
609.06	46424.53
609.22	46274.73
609.37	46106.21
609.53	46202.18
609.68	46476.02
609.84	46007.91
609.99	45815.99
610.15	45773.86
610.30	45745.77
610.46	45947.06
610.61	45722.37
610.76	46370.69
610.92	46410.48
611.07	46127.28
611.23	45808.96
611.38	46045.36
611.54	46202.18
611.69	46017.27
611.84	45715.34
612.00	45710.66
612.15	45404.05
612.31	46124.94
612.46	45469.59
612.62	46218.56
612.77	45607.68
612.92	46155.36
613.08	45392.35
613.23	45752.79
613.39	45762.15
613.54	45308.09
613.69	45626.40
613.85	45418.10
614.00	45794.92
614.15	45509.38
614.31	46019.61
614.46	45968.12
614.62	45991.53
614.77	45390.01
614.92	45485.97
615.08	45045.95
615.23	45172.34
615.38	45478.95
615.54	45132.55
615.69	45280.00
615.84	45003.82
616.00	45727.05
616.15	45324.47
616.30	45265.96
616.46	45130.21
616.61	44786.15
616.76	45652.15
616.92	44762.75
617.07	44975.73
617.22	44615.29
617.37	44933.60
617.53	45263.62
617.68	45029.57
617.83	45272.98
617.99	45076.38
618.14	45003.82
618.29	44928.92
618.45	44296.98
618.60	44655.08
618.75	44818.92
618.90	44825.94
619.06	44872.75
619.21	45057.65
619.36	45116.17
619.51	45228.51
619.67	45106.80
619.82	44879.77
619.97	44697.21
620.12	44547.42
620.28	44388.26
620.43	44526.35
620.58	44694.87
620.73	44711.25
620.89	44680.83
621.04	44573.16
621.19	44395.28
621.34	45109.14
621.49	44397.62
621.65	44381.24
621.80	44706.57
621.95	44322.72
622.10	43978.67
622.25	43782.06
622.41	44472.52
622.56	44011.43
622.71	44201.02
622.86	44327.41
623.01	44041.86
623.16	44346.13
623.32	44186.97
623.47	43770.36
623.62	44119.10
623.77	44055.90
623.92	43995.05
624.07	43976.33
624.23	44051.22
624.38	43906.11
624.53	43704.82
624.68	43721.21
624.83	43821.85
624.98	44006.75
625.13	43023.73
625.29	43831.21
625.44	43824.19
625.59	43742.27
625.74	43571.41
625.89	43269.48
626.04	43426.30
626.19	43206.29
626.34	43562.05
626.49	43697.80
626.65	43276.51
626.80	43503.54
626.95	43466.09
627.10	42967.55
627.25	43430.98
627.40	43229.69
627.55	42286.46
627.70	42707.76
627.85	43058.84
628.00	43470.77
628.15	43126.71
628.30	42934.79
628.45	42972.24
628.60	42714.78
628.76	43058.84
628.91	43346.72
629.06	42906.70
629.21	42464.34
629.36	42691.37
629.51	42560.30
629.66	42834.14
629.81	42836.48
629.96	42454.98
630.11	42630.52
630.26	42803.72
630.41	43157.14
630.56	42784.99
630.71	42532.22
630.86	42366.04
631.01	42122.62
631.16	42466.68
631.31	42014.96
631.46	41933.04
631.61	42632.86
631.76	42223.26
631.91	42263.05
632.06	42698.39
632.21	42471.36
632.36	42759.25
632.51	41921.34
632.66	42139.00
632.81	42103.90
632.96	41881.55
633.10	42141.35
633.25	42410.51
633.40	42153.05
633.55	42698.39
633.70	41846.44
633.85	42047.72
634.00	42066.45
634.15	42429.23
634.30	41954.10
634.45	41949.42
634.60	41975.17
634.75	41801.97
634.90	41958.78
635.05	41972.83
635.19	41879.21
635.34	42181.13
635.49	41631.11
635.64	41528.13
635.79	41862.82
635.94	41825.37
636.09	41390.03
636.24	41331.52
636.39	40884.48
636.53	41638.13
636.68	41411.10
636.83	41638.13
636.98	41577.28
637.13	41184.07
637.28	41703.67
637.43	41762.18
637.57	41617.07
637.72	41556.21
637.87	41109.17
638.02	41385.35
638.17	41439.18
638.32	41577.28
638.46	41516.42
638.61	41408.76
638.76	41315.14
638.91	41191.09
639.06	41090.44
639.20	41151.30
639.35	41053.00
639.50	41301.09
639.65	41427.48
639.80	41130.23
639.94	40793.20
640.09	41172.36
640.24	41394.71
640.39	40802.56
640.54	40524.04
640.68	40999.16
640.83	41139.60
640.98	40491.27
641.13	41017.89
641.27	40718.30
641.42	40989.80
641.57	40811.92
641.72	40531.06
641.86	40430.41
642.01	40149.55
642.16	40376.58
642.31	40154.23
642.45	40439.78
642.60	40095.72
642.75	40552.12
642.90	40900.86
643.04	40226.79
643.19	40165.93
643.34	40528.72
643.48	40034.86
643.63	39838.26
643.78	40088.70
643.93	40245.51
644.07	40388.28
644.22	39941.24
644.37	40027.84
644.51	40126.14
644.66	40439.78
644.81	40067.63
644.95	40371.90
645.10	40268.92
645.25	40191.68
645.39	40250.19
645.54	39999.76
645.69	39976.35
645.83	39651.02
645.98	40161.25
646.13	40243.17
646.27	40175.30
646.42	39658.04
646.57	39353.77
646.71	39789.11
646.86	39646.33
647.00	40182.32
647.15	39861.66
647.30	39533.99
647.44	39512.92
647.59	39283.55
647.74	39487.18
647.88	39445.05
648.03	39477.82
648.17	39599.52
648.32	39412.28
648.47	39447.39
648.61	39501.22
648.76	39398.24
648.90	39108.01
649.05	39119.71
649.20	39157.16
649.34	39328.02
649.49	39210.99
649.63	39395.90
649.78	39302.28
649.92	39332.70
650.07	39807.83
650.21	38993.32
650.36	39056.52
650.51	39171.21
650.65	39667.40
650.80	39672.08
650.94	39143.12
651.09	39196.95
651.23	39016.73
651.38	39339.72
651.52	38897.36
651.67	38433.94
651.81	39103.33
651.96	39063.54
652.10	38602.46
652.25	38628.20
652.39	38459.68
652.54	38719.48
652.68	38820.13
652.83	38822.47
652.97	38923.11
653.12	38789.70
653.26	38499.47
653.41	38417.55
653.55	38635.22
653.70	38820.13
653.84	38429.26
653.99	38279.46
654.13	38167.12
654.27	38314.57
654.42	38359.04
654.56	38256.06
654.71	38609.48
654.85	38429.26
655.00	38256.06
655.14	38164.78
655.29	38099.24
655.43	38022.00
655.57	37731.78
655.72	37724.75
655.86	37553.90
656.01	37462.61
656.15	37446.23
656.30	37839.44
656.44	37649.86
656.58	37656.88
656.73	37724.75
656.87	38122.65
657.01	37715.39
657.16	37635.81
657.30	37666.24
657.45	37851.14
657.59	37504.74
657.73	37654.54
657.88	37324.52
658.02	37916.68
658.16	37755.18
658.31	37780.93
658.45	37823.06
658.60	37443.89
658.74	37720.07
658.88	37340.91
659.03	37469.64
659.17	36919.61
659.31	37294.10
659.46	36999.19
659.60	37326.86
659.74	37184.09
659.89	36924.29
660.03	36762.79
660.17	37242.60
660.32	37191.11
660.46	37345.59
660.60	36924.29
660.74	36718.32
660.89	36669.17
661.03	36594.28
661.17	36793.22
661.32	36694.92
661.46	36446.82
661.60	36779.18
661.74	36385.97
661.89	36685.56
662.03	36006.80
662.17	36470.23
662.31	36149.57
662.46	37038.98
662.60	36378.95
662.74	36395.33
662.88	35957.65
663.03	36119.15
663.17	35990.42
663.31	36011.48
663.45	35964.67
663.60	36222.13
663.74	35985.74
663.88	36226.81
664.02	35541.03
664.17	36290.01
664.31	35835.94
664.45	35585.50
664.59	35475.50
664.73	35447.41
664.88	35412.31
665.02	35424.01
665.16	35192.30
665.30	35115.06
665.44	35154.85
665.59	34731.21
665.73	34885.68
665.87	35040.16
666.01	35276.55
666.15	34993.35
666.29	35119.74
666.44	35480.18
666.58	34813.13
666.72	35089.31
666.86	34986.33
667.00	34536.94
667.14	34501.84
667.28	34192.89
667.43	34218.63
667.57	34759.30
667.71	34733.55
667.85	34752.27
667.99	34235.02
668.13	34302.89
668.27	34066.50
668.41	34359.06
668.56	34050.11
668.70	34211.61
668.84	34066.50
668.98	33682.65
669.12	33909.68
669.26	33900.32
669.40	33783.29
669.54	33610.09
669.68	33509.45
669.82	33455.62
669.96	33406.47
670.10	32975.81
670.25	33397.10
670.39	33233.27
670.53	32980.49
670.67	32980.49
670.81	33369.02
670.95	33116.24
671.09	33429.87
671.23	32929.00
671.37	33057.73
671.51	32811.97
671.65	32486.64
671.79	32687.92
671.93	33034.32
672.07	32620.05
672.21	32795.59
672.35	32381.31
672.49	32308.76
672.63	32458.55
672.77	32566.21
672.91	32615.37
673.05	32065.34
673.19	32165.98
673.33	32016.19
673.47	31655.75
673.61	31906.18
673.75	31779.79
673.89	31173.60
674.03	30958.27
674.17	31814.90
674.31	31487.23
674.45	31096.36
674.59	31620.64
674.73	31587.87
674.87	31564.46
675.01	31220.41
675.15	31089.34
675.29	31147.85
675.43	30829.54
675.56	30780.39
675.70	30829.54
675.84	30789.75
675.98	30019.71
676.12	30499.52
676.26	30878.69
676.40	30265.47
676.54	30471.43
676.68	30742.94
676.82	30176.53
676.96	29940.13
677.10	30192.91
677.23	29961.20
677.37	29951.84
677.51	30003.33
677.65	30164.82
677.79	29350.32
677.93	29479.05
678.07	29659.27
678.21	28781.57
678.34	29275.42
678.48	28924.34
678.62	28781.57
678.76	28971.15
678.90	28304.10
679.04	28470.28
679.18	28680.92
679.31	28552.20
679.45	28130.90
679.59	28116.86
679.73	27953.02
679.87	27854.72
680.00	28114.52
680.14	28290.06
680.28	28397.72
680.42	28229.20
680.56	27749.39
680.70	27566.83
680.83	28348.57
680.97	27740.03
681.11	27723.65
681.25	26838.92
681.39	27410.01
681.52	27480.23
681.66	27321.07
681.80	27220.43
681.94	27346.82
682.07	27250.86
682.21	26848.29
682.35	26981.70
682.49	26780.41
682.62	26801.47
682.76	26377.84
682.90	26499.55
683.04	25998.67
683.17	26394.22
683.31	25986.97
683.45	25771.64
683.59	26010.37
683.72	25883.98
683.86	25640.57
684.00	26080.59
684.13	26061.87
684.27	25696.74
684.41	25647.59
684.55	25366.73
684.68	25371.41
684.82	25291.83
684.96	25221.61
685.09	25223.95
685.23	25055.43
685.37	24989.90
685.50	25177.14
685.64	24840.11
685.78	24655.20
685.91	24404.77
686.05	24159.01
686.19	24079.43
686.32	24116.88
686.46	23688.56
686.60	23934.32
686.73	23358.55
686.87	22991.08
687.01	23480.25
687.14	23211.09
687.28	23042.57
687.42	22955.97
687.55	23138.54
687.69	23407.70
687.82	23098.75
687.96	22862.35
688.10	22602.55
688.23	22562.76
688.37	22565.10
688.50	22967.68
688.64	22506.59
688.78	22752.35
688.91	22572.13
689.05	22642.34
689.18	22366.16
689.32	22043.17
689.46	22239.77
689.59	22415.31
689.73	22164.87
689.86	22050.19
690.00	21738.90
690.13	21914.44
690.27	21654.64
690.41	21488.46
690.54	21549.31
690.68	21448.67
690.81	21565.70
690.95	21612.51
691.08	21514.20
691.22	21207.59
691.35	21422.92
691.49	21298.88
691.62	21427.60
691.76	20882.26
691.89	21064.82
692.03	20772.25
692.16	20882.26
692.30	20760.55
692.43	20496.07
692.57	20463.30
692.70	20444.58
692.84	20393.09
692.97	20058.39
693.11	19943.70
693.24	19885.19
693.38	19571.56
693.51	19590.28
693.65	20311.17
693.78	19807.95
693.92	19726.04
694.05	19543.47
694.19	19293.04
694.32	19309.42
694.45	19192.39
694.59	19435.81
694.72	18768.76
694.86	19000.47
694.99	18881.10
695.13	18953.66
695.26	18778.12
695.39	18588.53
695.53	18728.97
695.66	18686.84
695.80	18759.39
695.93	18614.28
696.07	18263.20
696.20	18504.28
696.33	18415.34
696.47	18221.07
696.60	17905.10
696.73	17853.61
696.87	17935.53
697.00	17914.46
697.14	18008.08
697.27	17748.28
697.40	17516.57
697.54	17708.49
697.67	17619.55
697.80	17289.54
697.94	17322.30
698.07	17135.06
698.21	17160.81
698.34	17139.74
698.47	16940.80
698.61	16847.18
698.74	16622.48
698.87	16688.02
699.01	16556.95
699.14	16592.06
699.27	16617.80
699.40	16713.77
699.54	16456.31
699.67	16287.79
699.80	16582.70
699.94	16322.90
700.07	16430.56
700.20	16023.31
700.34	15763.51
700.47	16091.18
700.60	16088.84
700.73	16603.76
700.87	15906.28
701.00	15840.75
701.13	15646.48
701.26	15323.49
701.40	15435.83
701.53	15424.13
701.66	15339.87
701.79	15403.07
701.93	15253.27
702.06	15040.28
702.19	14913.89
702.32	14958.36
702.46	14918.57
702.59	15056.67
702.72	14831.97
702.85	14899.85
702.99	14789.85
703.12	14717.29
703.25	14897.51
703.38	14574.52
703.51	14148.54
703.65	14249.18
703.78	14193.01
703.91	14068.96
704.04	14029.17
704.17	14043.21
704.31	14073.64
704.44	14066.62
704.57	13947.25
704.70	13905.12
704.83	13919.17
704.96	13682.77
705.10	13600.85
705.23	13767.03
>>>>>End Processed Spectral Data<<<<<
