SpectraSuite Data File
++++++++++++++++++++++++++++++++++++
Date: Fri Oct 25 10:43:22 EDT 2013
User: price-jones
Dark Spectrum Present: No
Reference Spectrum Present: No
Number of Sampled Component Spectra: 1
Spectrometers: USB2+H05261
Integration Time (usec): 100000 (USB2+H05261)
Spectra Averaged: 1 (USB2+H05261)
Boxcar Smoothing: 0 (USB2+H05261)
Correct for Electrical Dark: No (USB2+H05261)
Strobe/Lamp Enabled: No (USB2+H05261)
Correct for Detector Non-linearity: No (USB2+H05261)
Correct for Stray Light: No (USB2+H05261)
Number of Pixels in Processed Spectrum: 2048
>>>>>Begin Processed Spectral Data<<<<<
365.73	56.17
365.92	56.17
366.12	56.17
366.32	32.77
366.52	25.75
366.72	79.58
366.91	0.00
367.11	0.00
367.31	32.77
367.51	0.00
367.70	37.45
367.90	14.04
368.10	23.41
368.30	0.00
368.49	30.43
368.69	95.96
368.89	0.00
369.09	37.45
369.28	86.60
369.48	9.36
369.68	67.88
369.87	138.09
370.07	28.09
370.27	152.13
370.47	248.10
370.66	395.55
370.86	390.87
371.06	414.27
371.25	510.24
371.45	425.98
371.65	528.96
371.84	425.98
372.04	379.17
372.24	449.38
372.44	414.27
372.63	510.24
372.83	458.74
373.03	454.06
373.22	484.49
373.42	517.26
373.62	585.13
373.81	505.56
374.01	575.77
374.21	564.07
374.40	561.73
374.60	535.98
374.79	517.26
374.99	601.52
375.19	657.69
375.38	617.90
375.58	634.29
375.78	613.22
375.97	608.54
376.17	629.60
376.37	550.03
376.56	608.54
376.76	594.50
376.95	662.37
377.15	664.71
377.35	559.39
377.54	692.80
377.74	594.50
377.93	624.92
378.13	704.50
378.33	650.67
378.52	662.37
378.72	613.22
378.91	664.71
379.11	699.82
379.31	636.63
379.50	671.73
379.70	634.29
379.89	725.57
380.09	744.29
380.28	704.50
380.48	760.67
380.68	713.86
380.87	767.70
381.07	671.73
381.26	812.17
381.46	706.84
381.65	634.29
381.85	774.72
382.04	725.57
382.24	763.01
382.43	730.25
382.63	706.84
382.83	667.05
383.02	812.17
383.22	786.42
383.41	706.84
383.61	781.74
383.80	807.48
384.00	781.74
384.19	833.23
384.39	795.78
384.58	809.83
384.78	770.04
384.97	748.97
385.17	844.93
385.36	847.27
385.56	858.98
385.75	751.31
385.95	851.96
386.14	823.87
386.34	851.96
386.53	863.66
386.72	856.64
386.92	903.45
387.11	870.68
387.31	891.74
387.50	816.85
387.70	854.30
387.89	856.64
388.09	840.25
388.28	844.93
388.48	945.58
388.67	980.68
388.86	940.90
389.06	905.79
389.25	887.06
389.45	990.05
389.64	894.08
389.84	1055.58
390.03	1011.11
390.22	954.94
390.42	1011.11
390.61	1015.79
390.81	1025.15
391.00	1039.20
391.19	1128.14
391.39	1027.50
391.58	1018.13
391.78	1090.69
391.97	1060.26
392.16	1048.56
392.36	1034.52
392.55	973.66
392.75	1034.52
392.94	966.64
393.13	1046.22
393.33	926.85
393.52	1041.54
393.71	1076.65
393.91	1062.60
394.10	1107.07
394.29	1191.33
394.49	1057.92
394.68	1240.48
394.88	1252.19
395.07	1275.59
395.26	1186.65
395.46	1179.63
395.65	1247.51
395.84	1163.25
396.04	1294.32
396.23	1219.42
396.42	1135.16
396.62	1249.85
396.81	1193.67
397.00	1226.44
397.19	1320.06
397.39	1341.13
397.58	1364.53
397.77	1366.87
397.97	1511.99
398.16	1390.28
398.35	1490.92
398.55	1476.88
398.74	1465.18
398.93	1528.37
399.12	1511.99
399.32	1533.05
399.51	1486.24
399.70	1586.88
399.90	1584.54
400.09	1657.10
400.28	1514.33
400.47	1579.86
400.67	1837.32
400.86	1598.59
401.05	1605.61
401.24	1694.55
401.44	1785.83
401.63	1746.04
401.82	1717.95
402.01	1717.95
402.21	1750.72
402.40	1739.02
402.59	1741.36
402.78	1837.32
402.97	1802.21
403.17	1762.42
403.36	1870.09
403.55	1879.45
403.74	1870.09
403.93	1900.52
404.13	1839.66
404.32	1804.55
404.51	1858.39
404.70	1952.01
404.89	1858.39
405.09	1959.03
405.28	1977.75
405.47	2031.58
405.66	2022.22
405.85	2033.93
406.05	1879.45
406.24	2057.33
406.43	2029.24
406.62	2001.16
406.81	2139.25
407.00	2085.42
407.20	2008.18
407.39	2090.10
407.58	2183.72
407.77	2216.49
407.96	2228.19
408.15	2249.25
408.34	2216.49
408.54	2209.47
408.73	2363.94
408.92	2300.75
409.11	2319.47
409.30	2366.28
409.49	2326.49
409.68	2286.70
409.87	2275.00
410.07	2380.32
410.26	2410.75
410.45	2406.07
410.64	2436.50
410.83	2445.86
411.02	2523.10
411.21	2586.29
411.40	2574.59
411.59	2616.72
411.78	2605.02
411.98	2586.29
412.17	2574.59
412.36	2614.38
412.55	2677.57
412.74	2766.51
412.93	2731.41
413.12	2675.23
413.31	2820.35
413.50	2930.35
413.69	2834.39
413.88	2956.10
414.07	2876.52
414.26	2984.18
414.45	2967.80
414.64	3049.72
414.83	3098.87
415.02	3054.40
415.22	3061.42
415.41	3068.44
415.60	3124.62
415.79	3274.41
415.98	3290.79
416.17	3269.73
416.36	3344.63
416.55	3290.79
416.74	3283.77
416.93	3148.02
417.12	3302.50
417.31	3370.37
417.50	3391.44
417.69	3428.88
417.88	3332.92
418.07	3440.59
418.26	3524.85
418.45	3442.93
418.64	3555.27
418.83	3655.92
419.02	3562.30
419.21	3543.57
419.39	3576.34
419.58	3691.02
419.77	3716.77
419.96	3744.86
420.15	3726.13
420.34	3562.30
420.53	3726.13
420.72	3756.56
420.91	3784.65
421.10	3782.31
421.29	3829.12
421.48	3887.63
421.67	3754.22
421.86	3936.78
422.05	3756.56
422.24	3838.48
422.43	3887.63
422.61	3796.35
422.80	3932.10
422.99	4032.74
423.18	3960.19
423.37	4046.79
423.56	3997.64
423.75	4030.40
423.94	3978.91
424.13	3639.53
424.32	3782.31
424.50	3962.53
424.69	4028.06
424.88	4023.38
425.07	4030.40
425.26	3955.51
425.45	3969.55
425.64	3904.01
425.83	3894.65
426.01	4072.53
426.20	3985.93
426.39	4091.26
426.58	3950.82
426.77	3948.48
426.96	4063.17
427.15	3901.67
427.33	4079.55
427.52	4142.75
427.71	4058.49
427.90	4051.47
428.09	4170.83
428.28	4091.26
428.46	4175.52
428.65	4124.02
428.84	4325.31
429.03	4208.28
429.22	4135.73
429.40	4280.84
429.59	4177.86
429.78	3913.38
429.97	3934.44
430.16	3974.23
430.34	4135.73
430.53	4212.96
430.72	4196.58
430.91	4236.37
431.10	4372.12
431.28	4622.56
431.47	4657.67
431.66	4685.75
431.85	4461.06
432.03	4652.98
432.22	4774.69
432.41	4655.33
432.60	4608.51
432.79	4683.41
432.97	4828.53
433.16	4734.90
433.35	4674.05
433.54	4737.24
433.72	4779.37
433.91	4737.24
434.10	4798.10
434.28	4622.56
434.47	4968.96
434.66	4919.81
434.85	4903.42
435.03	4917.47
435.22	4910.44
435.41	5128.11
435.59	5151.52
435.78	5064.92
435.97	5107.05
436.16	5151.52
436.34	5214.71
436.53	5254.50
436.72	5210.03
436.90	5085.98
437.09	5135.14
437.28	5191.31
437.46	5153.86
437.65	5224.08
437.84	5214.71
438.02	5165.56
438.21	5408.98
438.40	5259.18
438.58	5394.93
438.77	5352.81
438.96	5366.85
439.14	5640.69
439.33	5619.63
439.52	5668.78
439.70	5680.48
439.89	5537.71
440.08	5617.29
440.26	5692.18
440.45	5612.60
440.63	5715.59
440.82	6071.35
441.01	6057.31
441.19	5933.26
441.38	6132.20
441.57	6221.14
441.75	6242.21
441.94	6274.98
442.12	6265.61
442.31	6513.71
442.50	6380.30
442.68	6331.15
442.87	6408.39
443.05	6239.87
443.24	6443.49
443.43	6354.55
443.61	6452.86
443.80	6642.44
443.98	6366.26
444.17	6228.17
444.35	6628.40
444.54	6628.40
444.73	6443.49
444.91	6516.05
445.10	6340.51
445.28	6473.92
445.47	6513.71
445.65	6560.52
445.84	6389.66
446.02	6511.37
446.21	6560.52
446.39	6471.58
446.58	6806.28
446.77	6803.94
446.95	6431.79
447.14	6757.13
447.32	6626.06
447.51	6590.95
447.69	6579.25
447.88	6724.36
448.06	6754.79
448.25	6778.19
448.43	6857.77
448.62	6670.53
448.80	6799.26
448.99	6815.64
449.17	6906.92
449.36	6942.03
449.54	7077.78
449.73	7077.78
449.91	7075.44
450.10	7183.10
450.28	7183.10
450.46	7349.28
450.65	7241.62
450.83	7440.56
451.02	7068.42
451.20	7169.06
451.39	7239.28
451.57	7358.64
451.76	7150.34
451.94	7279.07
452.13	7363.33
452.31	7267.36
452.49	7115.23
452.68	7250.98
452.86	7159.70
453.05	7323.54
453.23	7447.58
453.42	7276.73
453.60	7503.76
453.78	7480.35
453.97	7112.89
454.15	7368.01
454.34	7480.35
454.52	7595.04
454.70	7651.21
454.89	7445.24
455.07	7597.38
455.26	7531.84
455.44	7719.09
455.62	7702.70
455.81	7761.22
455.99	7707.38
456.17	7955.48
456.36	7777.60
456.54	8112.30
456.73	7906.33
456.91	8379.12
457.09	8166.13
457.28	8194.22
457.46	8021.02
457.64	8203.58
457.83	8140.38
458.01	8107.62
458.19	8390.82
458.38	8177.83
458.56	8215.28
458.74	8236.35
458.93	8287.84
459.11	8320.60
459.29	8482.10
459.48	8442.31
459.66	8360.39
459.84	8496.14
460.03	8690.41
460.21	8566.36
460.39	8594.45
460.57	8585.08
460.76	8683.39
460.94	8795.73
461.12	8617.85
461.31	8788.71
461.49	8697.43
461.67	8716.16
461.85	9109.36
462.04	8732.54
462.22	9294.27
462.40	8903.40
462.59	8922.12
462.77	8774.67
462.95	9074.26
463.13	8964.25
463.32	9020.42
463.50	9041.49
463.68	8865.95
463.86	9088.30
464.05	8802.75
464.23	8805.10
464.41	8931.48
464.59	8917.44
464.78	9221.71
464.96	9177.24
465.14	9043.83
465.32	9233.41
465.50	9160.86
465.69	9423.00
465.87	9202.99
466.05	9324.69
466.23	9259.16
466.41	9277.88
466.60	9352.78
466.78	9217.03
466.96	9324.69
467.14	9404.27
467.32	9507.26
467.51	9324.69
467.69	9327.03
467.87	9413.63
468.05	9444.06
468.23	9514.28
468.41	9500.23
468.60	9596.20
468.78	9577.47
468.96	9671.09
469.14	9717.90
469.32	9701.52
469.50	9418.32
469.69	9741.31
469.87	9783.44
470.05	9912.17
470.23	9806.84
470.41	9863.02
470.59	10059.62
470.77	10076.01
470.95	9933.23
471.14	10274.95
471.32	10045.58
471.50	10506.66
471.68	10303.04
471.86	10534.75
472.04	10382.62
472.22	10509.01
472.40	10101.75
472.58	10420.06
472.77	10448.15
472.95	10560.50
473.13	10970.09
473.31	10527.73
473.49	10637.73
473.67	10597.95
473.85	10478.58
474.03	11119.89
474.21	10906.90
474.39	11164.36
474.57	11103.50
474.75	11089.46
474.93	11323.51
475.12	11253.30
475.30	11225.21
475.48	11253.30
475.66	11157.33
475.84	11260.32
476.02	11075.42
476.20	11386.71
476.38	11653.53
476.56	11798.64
476.74	11716.72
476.92	11960.14
477.10	11843.11
477.28	11910.99
477.46	12226.96
477.64	12461.01
477.82	12400.16
478.00	12585.06
478.18	12575.70
478.36	12470.37
478.54	12688.04
478.72	12526.55
478.90	12706.77
479.08	13123.38
479.26	13434.68
479.44	12943.16
479.62	13366.80
479.80	13214.66
479.98	13472.12
480.16	13687.45
480.34	13703.84
480.52	13816.18
480.70	13872.36
480.88	13638.30
481.06	13799.80
481.24	14029.17
481.41	14040.87
481.59	14492.60
481.77	14497.28
481.95	14520.68
482.13	14799.21
482.31	14457.49
482.49	14827.29
482.67	14771.12
482.85	14906.87
483.03	15197.10
483.21	15510.73
483.39	15407.75
483.57	15150.29
483.74	15639.46
483.92	15716.70
484.10	15690.95
484.28	15969.48
484.46	16318.22
484.64	16533.54
484.82	16285.45
485.00	16262.04
485.18	16603.76
485.35	16496.10
485.53	16049.05
485.71	16240.98
485.89	16690.36
486.07	16336.94
486.25	16641.21
486.43	16947.82
486.61	17078.89
486.78	17261.45
486.96	17479.12
487.14	17701.47
487.32	17575.08
487.50	17884.03
487.68	18225.75
487.85	18272.56
488.03	18317.03
488.21	18789.82
488.39	18569.81
488.57	18548.75
488.75	18789.82
488.92	19084.73
489.10	19328.14
489.28	19742.42
489.46	19676.88
489.64	19934.34
489.81	20533.52
489.99	20264.36
490.17	20149.67
490.35	20538.20
490.53	20444.58
490.70	20521.82
490.88	20713.74
491.06	20676.29
491.24	20772.25
491.41	20882.26
491.59	20634.16
491.77	20886.94
491.95	21212.28
492.13	21312.92
492.30	21682.72
492.48	21692.08
492.66	21937.84
492.84	21965.93
493.01	22366.16
493.19	22075.93
493.37	21998.70
493.54	22174.24
493.72	22684.47
493.90	22747.67
494.08	22822.56
494.25	23215.77
494.43	23136.20
494.61	23564.51
494.79	23590.26
494.96	23646.43
495.14	23704.95
495.32	23613.66
495.49	23761.12
495.67	24002.19
495.85	23931.98
496.02	24348.59
496.20	24273.70
496.38	24056.03
496.55	24685.63
496.73	25296.51
496.91	24814.36
497.09	25221.61
497.26	25242.68
497.44	25198.21
497.62	25200.55
497.79	25256.72
497.97	25401.83
498.14	25436.94
498.32	25827.81
498.50	25556.31
498.67	26146.12
498.85	25898.03
499.03	26480.82
499.20	26068.89
499.38	26251.45
499.56	26230.38
499.73	26515.93
499.91	26405.92
500.08	26902.12
500.26	26302.94
500.44	26801.47
500.61	26625.93
500.79	26878.71
500.97	27082.34
501.14	27190.00
501.32	27026.17
501.49	27143.19
501.67	27164.26
501.84	27475.55
502.02	27955.36
502.20	27714.28
502.37	27744.71
502.55	27555.13
502.72	27908.55
502.90	27981.10
503.07	27709.60
503.25	28037.28
503.43	28156.64
503.60	27948.34
503.78	28009.19
503.95	28315.80
504.13	28435.17
504.30	28650.50
504.48	28599.01
504.65	28671.56
504.83	29455.64
505.01	28971.15
505.18	29242.65
505.36	29600.76
505.53	29518.84
505.71	29436.92
505.88	29823.11
506.06	29560.97
506.23	29996.31
506.41	29450.96
506.58	29898.00
506.76	29919.07
506.93	29975.24
507.11	29846.51
507.28	29961.20
507.46	29570.33
507.63	30026.73
507.81	30199.93
507.98	30045.46
508.16	30511.22
508.33	30731.23
508.50	30462.07
508.68	30923.16
508.85	31512.97
509.03	31016.78
509.20	31344.45
509.38	31232.11
509.55	31117.42
509.73	31089.34
509.90	31307.01
510.08	31697.88
510.25	31318.71
510.42	31777.45
510.60	31873.42
510.77	31775.11
510.95	32053.64
511.12	31756.39
511.30	32240.88
511.47	32065.34
511.64	32580.26
511.82	32933.68
511.99	32025.55
512.17	32488.98
512.34	32559.19
512.51	32414.08
512.69	32671.54
512.86	33284.76
513.04	33282.42
513.21	32875.16
513.38	32643.45
513.56	32620.05
513.73	32847.08
513.90	32898.57
514.08	33031.98
514.25	33149.01
514.43	33415.83
514.60	33347.95
514.77	33230.93
514.95	33612.43
515.12	33165.39
515.29	33813.72
515.47	33928.41
515.64	33677.97
515.81	33778.61
515.99	33785.63
516.16	33914.36
516.33	33795.00
516.51	33977.56
516.68	33237.95
516.85	33050.70
517.03	33476.68
517.20	33998.62
517.37	34122.67
517.54	34546.31
517.72	34216.29
517.89	33731.80
518.06	34003.30
518.24	33947.13
518.41	34527.58
518.58	34464.39
518.75	34363.75
518.93	34600.14
519.10	34958.24
519.27	35140.80
519.45	35236.77
519.62	35199.32
519.79	35644.02
519.96	35140.80
520.14	35608.91
520.31	34969.94
520.48	35112.72
520.65	35295.28
520.83	35861.69
521.00	35789.13
521.17	35920.20
521.34	35868.71
521.52	36781.52
521.69	36212.77
521.86	36694.92
522.03	36498.31
522.20	36266.60
522.38	36163.62
522.55	36238.51
522.72	36374.27
522.89	36643.43
523.07	36830.67
523.24	36863.44
523.41	36959.40
523.58	37020.25
523.75	37376.01
523.92	37233.24
524.10	37408.78
524.27	37434.53
524.44	37156.00
524.61	37605.39
524.78	37635.81
524.96	37205.16
525.13	37677.94
525.30	37523.47
525.47	38082.86
525.64	37560.92
525.81	37612.41
525.98	37493.04
526.16	37368.99
526.33	37230.90
526.50	37570.28
526.67	37179.41
526.84	37563.26
527.01	37034.30
527.18	37813.70
527.36	38417.55
527.53	38075.84
527.70	38586.07
527.87	38302.87
528.04	38398.83
528.21	38377.76
528.38	38529.90
528.55	38902.04
528.72	38930.13
528.89	38911.41
529.07	38951.20
529.24	38326.27
529.41	38529.90
529.58	38630.54
529.75	38426.92
529.92	39089.29
530.09	39313.98
530.26	39508.24
530.43	39342.06
530.60	39126.74
530.77	39210.99
530.94	39653.36
531.11	39512.92
531.28	39466.11
531.46	39732.93
531.63	39533.99
531.80	39440.37
531.97	39297.59
532.14	39255.46
532.31	39180.57
532.48	38925.45
532.65	39622.93
532.82	39992.73
532.99	40446.80
533.16	39723.57
533.33	39749.32
533.50	40172.96
533.67	40109.76
533.84	40189.34
534.01	39964.65
534.18	40119.12
534.35	40725.32
534.52	39964.65
534.69	40669.15
534.86	40650.42
535.03	40233.81
535.20	40903.20
535.37	40612.98
535.54	40847.03
535.71	40926.61
535.88	40809.58
536.05	40708.94
536.22	40903.20
536.38	40832.99
536.55	40636.38
536.72	40722.98
536.89	40540.42
537.06	40575.53
537.23	41095.13
537.40	40884.48
537.57	41130.23
537.74	41291.73
537.91	41528.13
538.08	41474.29
538.25	41109.17
538.42	40919.59
538.59	41722.39
538.75	41198.11
538.92	41219.17
539.09	41441.53
539.26	40971.08
539.43	41523.44
539.60	41282.37
539.77	41137.26
539.94	41422.80
540.11	41598.34
540.28	41537.49
540.44	41537.49
540.61	41565.57
540.78	41361.95
540.95	41610.04
541.12	41600.68
541.29	41439.18
541.46	41752.82
541.62	41944.74
541.79	41991.55
541.96	41626.43
542.13	41640.47
542.30	42127.30
542.47	41846.44
542.63	41750.48
542.80	42209.22
542.97	42876.27
543.14	42454.98
543.31	42593.07
543.48	42859.89
543.64	42658.60
543.81	43091.60
543.98	42824.78
544.15	42623.50
544.32	43091.60
544.48	43391.19
544.65	42883.30
544.82	42988.62
544.99	42333.27
545.16	42710.10
545.32	42546.26
545.49	43456.73
545.66	43587.80
545.83	43189.91
546.00	43103.31
546.16	42803.72
546.33	43234.38
546.50	42698.39
546.67	42930.11
546.83	42883.30
547.00	43285.87
547.17	43103.31
547.34	43086.92
547.50	43405.23
547.67	43772.70
547.84	43484.81
548.00	43697.80
548.17	44046.54
548.34	43475.45
548.51	43625.25
548.67	43590.14
548.84	43676.74
549.01	43700.14
549.18	44051.22
549.34	43667.37
549.51	43613.54
549.68	43819.51
549.84	43849.94
550.01	43667.37
550.18	43512.90
550.34	44240.81
550.51	43887.39
550.68	43868.66
550.84	43519.92
551.01	44091.01
551.18	44313.36
551.34	43861.64
551.51	44208.04
551.68	44296.98
551.84	43901.43
552.01	43730.57
552.18	44009.09
552.34	43533.96
552.51	43973.98
552.68	44135.48
552.84	44381.24
553.01	44676.15
553.18	44430.39
553.34	44725.30
553.51	43948.24
553.67	44362.51
553.84	45090.42
554.01	44914.88
554.17	44783.81
554.34	44886.79
554.51	44802.53
554.67	45200.43
554.84	44271.23
555.00	44437.41
555.17	44076.97
555.33	45027.23
555.50	45102.12
555.67	44802.53
555.83	44793.17
556.00	44638.70
556.16	45174.68
556.33	44378.90
556.50	44734.66
556.66	44868.07
556.83	44362.51
556.99	44636.36
557.16	45074.04
557.32	45076.38
557.49	45081.06
557.65	44619.97
557.82	44847.00
557.98	45092.76
558.15	44648.06
558.32	45338.52
558.48	44886.79
558.65	44889.13
558.81	45258.94
558.98	45244.90
559.14	45015.52
559.31	45102.12
559.47	44954.67
559.64	45518.74
559.80	45322.13
559.97	45116.17
560.13	45294.05
560.30	45118.51
560.46	45322.13
560.63	45432.14
560.79	45801.94
560.96	45748.11
561.12	45579.59
561.29	45268.30
561.45	45113.83
561.61	45088.08
561.78	45113.83
561.94	45237.87
562.11	45162.98
562.27	45118.51
562.44	45216.81
562.60	45350.22
562.77	45684.92
562.93	45553.85
563.10	45998.55
563.26	44954.67
563.42	45666.19
563.59	45593.64
563.75	45766.84
563.92	46033.66
564.08	45752.79
564.24	45928.33
564.41	45581.93
564.57	45448.52
564.74	45911.95
564.90	45811.31
565.07	45790.24
565.23	45944.72
565.39	45350.22
565.56	45687.26
565.72	45425.12
565.88	45558.53
566.05	45083.40
566.21	45507.04
566.38	45628.74
566.54	45769.18
566.70	45443.84
566.87	45963.44
567.03	46054.72
567.19	45797.26
567.36	45687.26
567.52	45769.18
567.68	45490.65
567.85	45741.09
568.01	45701.30
568.17	45703.64
568.34	46316.86
568.50	45722.37
568.66	45734.07
568.83	45801.94
568.99	45537.46
569.15	45750.45
569.32	45631.08
569.48	45523.42
569.64	45834.71
569.81	45715.34
569.97	45668.53
570.13	46204.52
570.30	45111.49
570.46	45223.83
570.62	45619.38
570.78	45429.80
570.95	45420.44
571.11	46136.64
571.27	46099.19
571.43	45357.24
571.60	45851.09
571.76	45755.13
571.92	45502.35
572.09	46358.99
572.25	45928.33
572.41	46124.94
572.57	46153.02
572.74	46735.82
572.90	46021.95
573.06	46164.73
573.22	45745.77
573.38	45886.20
573.55	45832.37
573.71	46525.17
573.87	45771.52
574.03	45759.81
574.20	45947.06
574.36	45439.16
574.52	45673.21
574.68	45769.18
574.84	46108.55
575.01	45696.62
575.17	45598.32
575.33	45879.18
575.49	46176.43
575.65	46190.47
575.82	46164.73
575.98	45738.75
576.14	46038.34
576.30	45841.73
576.46	45724.71
576.62	45900.25
576.79	45670.87
576.95	45694.28
577.11	45799.60
577.27	45925.99
577.43	45708.32
577.59	45731.73
577.75	45773.86
577.92	45755.13
578.08	45382.99
578.24	45792.58
578.40	45722.37
578.56	45897.91
578.72	45984.51
578.88	46190.47
579.04	46040.68
579.21	45893.22
579.37	46019.61
579.53	45982.16
579.69	45539.80
579.85	45717.68
580.01	45965.78
580.17	46277.07
580.33	46120.26
580.49	46183.45
580.65	45713.00
580.82	46183.45
580.98	46080.47
581.14	45783.22
581.30	46438.57
581.46	46384.74
581.62	46356.65
581.78	46071.10
581.94	46232.60
582.10	46028.98
582.26	45954.08
582.42	45923.65
582.58	46000.89
582.74	45834.71
582.90	46138.98
583.06	46120.26
583.22	45741.09
583.38	46340.27
583.54	46073.45
583.70	46326.22
583.86	46335.59
584.02	45813.65
584.18	45881.52
584.34	46150.68
584.50	46066.42
584.66	46326.22
584.82	45595.98
584.98	46270.05
585.14	46632.83
585.30	46115.58
585.46	45982.16
585.62	45893.22
585.78	45933.01
585.94	45645.13
586.10	45844.07
586.26	45940.04
586.42	45921.31
586.58	46007.91
586.74	46284.09
586.90	46028.98
587.06	45820.67
587.22	46307.50
587.38	45944.72
587.54	46073.45
587.70	46033.66
587.86	46129.62
588.02	46209.20
588.18	46637.51
588.34	45865.14
588.49	45872.16
588.65	45546.82
588.81	45343.20
588.97	45492.99
589.13	45591.30
589.29	45439.16
589.45	45918.97
589.61	45958.76
589.77	46461.97
589.93	46464.32
590.08	46244.30
590.24	46115.58
590.40	45778.54
590.56	46492.40
590.72	46520.49
590.88	45785.56
591.04	46480.70
591.20	46321.54
591.35	46579.00
591.51	46691.35
591.67	46164.73
591.83	46546.23
591.99	45708.32
592.15	46555.60
592.31	46129.62
592.46	46246.65
592.62	46557.94
592.78	46344.95
592.94	46300.48
593.10	46611.77
593.26	46382.40
593.41	46452.61
593.57	46071.10
593.73	45579.59
593.89	46239.62
594.05	46344.95
594.20	46169.41
594.36	46419.84
594.52	46223.24
594.68	46244.30
594.84	46216.22
594.99	46447.93
595.15	46160.05
595.31	46157.70
595.47	46241.96
595.62	46307.50
595.78	46052.38
595.94	46607.09
596.10	46195.15
596.25	46199.83
596.41	45970.46
596.57	45841.73
596.73	46021.95
596.88	46218.56
597.04	46412.82
597.20	45916.63
597.36	46155.36
597.51	46581.34
597.67	46199.83
597.83	46576.66
597.99	46731.14
598.14	46131.96
598.30	46326.22
598.46	46017.27
598.61	46223.24
598.77	46150.68
598.93	45888.54
599.09	46426.87
599.24	46653.90
599.40	46284.09
599.56	46646.88
599.71	46129.62
599.87	46162.39
600.03	46394.10
600.18	46007.91
600.34	46230.26
600.50	46618.79
600.65	46038.34
600.81	46389.42
600.97	46707.73
601.12	46478.36
601.28	46330.90
601.44	46087.49
601.59	46719.43
601.75	45907.27
601.91	46380.06
602.06	46068.76
602.22	46124.94
602.37	46164.73
602.53	46323.88
602.69	46480.70
602.84	45759.81
603.00	46281.75
603.16	46000.89
603.31	46520.49
603.47	46284.09
603.62	45921.31
603.78	46181.11
603.94	46286.43
604.09	46454.95
604.25	46447.93
604.40	45792.58
604.56	46284.09
604.71	46232.60
604.87	46068.76
605.03	45666.19
605.18	46347.29
605.34	46312.18
605.49	45717.68
605.65	46160.05
605.80	45947.06
605.96	46064.08
606.12	46113.23
606.27	46052.38
606.43	45823.01
606.58	46237.28
606.74	46045.36
606.89	45961.10
607.05	45823.01
607.20	46120.26
607.36	46183.45
607.51	46092.17
607.67	46160.05
607.82	45750.45
607.98	46040.68
608.13	45827.69
608.29	45408.73
608.44	45893.22
608.60	45823.01
608.75	45844.07
608.91	45483.63
609.06	45525.76
609.22	45844.07
609.37	45572.57
609.53	45951.74
609.68	45645.13
609.84	45549.17
609.99	45532.78
610.15	45537.46
610.30	45792.58
610.46	45289.37
610.61	45542.14
610.76	45869.82
610.92	45556.19
611.07	45982.16
611.23	45525.76
611.38	45916.63
611.54	45294.05
611.69	45280.00
611.84	45420.44
612.00	45251.92
612.15	45404.05
612.31	45759.81
612.46	45654.49
612.62	45439.16
612.77	44758.06
612.92	45560.87
613.08	45244.90
613.23	45244.90
613.39	44671.46
613.54	44711.25
613.69	44854.03
613.85	44814.24
614.00	45043.61
614.15	44959.35
614.31	45511.72
614.46	45689.60
614.62	44893.82
614.77	45116.17
614.92	44921.90
615.08	44900.84
615.23	44975.73
615.38	44952.33
615.54	44776.79
615.69	44638.70
615.84	44626.99
616.00	44851.69
616.15	44474.86
616.30	45031.91
616.46	44355.49
616.61	44486.56
616.76	44453.79
616.92	44215.06
617.07	44596.57
617.22	44512.31
617.37	44549.76
617.53	45247.24
617.68	45102.12
617.83	44369.54
617.99	44783.81
618.14	44568.48
618.29	44687.85
618.45	44414.01
618.60	44708.91
618.75	43894.41
618.90	44332.09
619.06	43973.98
619.21	44451.45
619.36	44397.62
619.51	44133.14
619.67	44072.29
619.82	44151.87
619.97	43866.32
620.12	43679.08
620.28	43524.60
620.43	44147.18
620.58	44065.27
620.73	44243.15
620.89	44306.34
621.04	44065.27
621.19	44151.87
621.34	43969.30
621.49	43943.56
621.65	43810.15
621.80	43777.38
621.95	43735.25
622.10	43873.34
622.25	43676.74
622.41	43878.02
622.56	43716.53
622.71	43852.28
622.86	43433.32
623.01	43543.33
623.16	43753.97
623.32	43863.98
623.47	43562.05
623.62	43915.47
623.77	43409.92
623.92	43517.58
624.07	43159.48
624.23	43363.11
624.38	43260.12
624.53	43828.87
624.68	43409.92
624.83	43566.73
624.98	43386.51
625.13	43014.37
625.29	43377.15
625.44	43196.93
625.59	43086.92
625.74	42691.37
625.89	43112.67
626.04	42684.35
626.19	42880.95
626.34	43632.27
626.49	43545.67
626.65	42454.98
626.80	43374.81
626.95	42621.16
627.10	42249.01
627.25	42902.02
627.40	42286.46
627.55	42679.67
627.70	42330.93
627.85	42384.76
628.00	42691.37
628.15	42464.34
628.30	42593.07
628.45	42829.46
628.60	42749.88
628.76	42724.14
628.91	42471.36
629.06	42040.70
629.21	42520.51
629.36	42717.12
629.51	42431.57
629.66	42522.85
629.81	42286.46
629.96	42124.96
630.11	42342.63
630.26	42190.50
630.41	42717.12
630.56	42462.00
630.71	42153.05
630.86	41844.10
631.01	42146.03
631.16	41811.33
631.31	41743.45
631.46	41509.40
631.61	42099.22
631.76	41989.21
631.91	41799.63
632.06	42124.96
632.21	42192.84
632.36	42223.26
632.51	41752.82
632.66	41572.60
632.81	41500.04
632.96	41383.01
633.10	41525.78
633.25	41394.71
633.40	41532.81
633.55	41649.83
633.70	41759.84
633.85	41631.11
634.00	41635.79
634.15	42080.49
634.30	41310.46
634.45	41574.94
634.60	41787.92
634.75	41326.84
634.90	41244.92
635.05	41544.51
635.19	41226.20
635.34	41734.09
635.49	41305.77
635.64	41509.40
635.79	41221.52
635.94	40783.83
636.09	41015.55
636.24	40968.74
636.39	40825.96
636.53	40966.40
636.68	40851.71
636.83	40797.88
636.98	41013.21
637.13	41174.70
637.28	41542.17
637.43	41741.11
637.57	41387.69
637.72	41062.36
637.87	41296.41
638.02	40907.88
638.17	41078.74
638.32	40898.52
638.46	40484.25
638.61	40650.42
638.76	40774.47
638.91	40383.60
639.06	40971.08
639.20	40978.10
639.35	40917.25
639.50	40645.74
639.65	40521.69
639.80	40355.52
639.94	40704.26
640.09	40364.88
640.24	40226.79
640.39	40453.82
640.54	40327.43
640.68	40231.47
640.83	40467.86
640.98	40318.07
641.13	39770.38
641.27	40421.05
641.42	40212.74
641.57	40091.04
641.72	40205.72
641.86	39856.98
642.01	39779.74
642.16	40334.45
642.31	39381.85
642.45	40069.97
642.60	39435.69
642.75	40282.96
642.90	40060.61
643.04	40203.38
643.19	39934.22
643.34	40299.34
643.48	39983.37
643.63	39746.98
643.78	39819.53
643.93	39667.40
644.07	39639.31
644.22	39229.72
644.37	39580.80
644.51	39658.04
644.66	39924.86
644.81	39924.86
644.95	39849.96
645.10	39571.44
645.25	39957.63
645.39	39501.22
645.54	39849.96
645.69	39292.91
645.83	39360.79
645.98	39299.94
646.13	39283.55
646.27	38953.54
646.42	39454.41
646.57	38768.63
646.71	39065.88
646.86	39688.46
647.00	38911.41
647.15	39321.00
647.30	39299.94
647.44	39182.91
647.59	39526.97
647.74	39019.07
647.88	38651.61
648.03	39194.61
648.17	38899.70
648.32	39421.64
648.47	38885.66
648.61	38733.53
648.76	39196.95
648.90	38543.94
649.05	39119.71
649.20	38438.62
649.34	39054.18
649.49	38710.12
649.63	38979.28
649.78	38845.87
649.92	38202.22
650.07	38782.68
650.21	38424.57
650.36	38721.82
650.51	38890.34
650.65	38967.58
650.80	39023.75
650.94	38698.42
651.09	38377.76
651.23	38237.33
651.38	38256.06
651.52	38267.76
651.67	38326.27
651.81	38110.94
651.96	38380.10
652.10	38560.33
652.25	38075.84
652.39	38391.81
652.54	38368.40
652.68	38272.44
652.83	38520.54
652.97	38803.74
653.12	38653.95
653.26	38122.65
653.41	38539.26
653.55	38089.88
653.70	38195.20
653.84	37991.58
653.99	37778.59
654.13	37792.63
654.27	38124.99
654.42	37818.38
654.56	38197.54
654.71	37773.91
654.85	38007.96
655.00	37734.12
655.14	37731.78
655.29	37722.41
655.43	37544.53
655.57	37130.26
655.72	37413.46
655.86	37289.42
656.01	37301.12
656.15	36690.24
656.30	36755.77
656.44	37181.75
656.58	37296.44
656.73	37376.01
656.87	37284.73
657.01	37317.50
657.16	37001.53
657.30	36591.94
657.45	36676.19
657.59	37354.95
657.73	37383.04
657.88	37207.50
658.02	37301.12
658.16	36821.31
658.31	37312.82
658.45	37420.48
658.60	37034.30
658.74	36893.86
658.88	37095.15
659.03	36400.01
659.17	36526.40
659.31	36542.78
659.46	36624.70
659.60	36954.72
659.74	36978.12
659.89	36479.59
660.03	36233.83
660.17	36879.82
660.32	36596.62
660.46	36898.55
660.60	36601.30
660.74	36116.81
660.89	36163.62
661.03	35793.81
661.17	36219.79
661.32	36191.70
661.46	36086.38
661.60	35847.64
661.74	35700.19
661.89	35807.86
662.03	35924.88
662.17	36084.04
662.31	36130.85
662.46	35962.33
662.60	35777.43
662.74	35735.30
662.88	36116.81
663.03	35456.78
663.17	35615.93
663.31	35754.02
663.45	35747.00
663.60	35887.43
663.74	35332.73
663.88	35381.88
664.02	35264.85
664.17	35693.17
664.31	35070.59
664.45	35367.84
664.59	35393.58
664.73	35372.52
664.88	35150.17
665.02	34288.85
665.16	34820.15
665.30	34265.44
665.44	34363.75
665.59	34469.07
665.73	35110.38
665.87	34801.43
666.01	34738.23
666.15	34295.87
666.29	34366.09
666.44	34347.36
666.58	34534.60
666.72	34632.91
666.86	34513.54
667.00	34555.67
667.14	33998.62
667.28	34410.56
667.43	34338.00
667.57	34340.34
667.71	33954.15
667.85	34031.39
667.99	34160.12
668.13	34080.54
668.27	34078.20
668.41	34108.63
668.56	33479.02
668.70	33591.37
668.84	33177.09
668.98	33614.77
669.12	33060.07
669.26	33607.75
669.40	32833.04
669.54	33266.03
669.68	33050.70
669.82	32989.85
669.96	33064.75
670.10	33099.86
670.25	32954.74
670.39	32837.72
670.53	33153.69
670.67	32779.20
670.81	32378.97
670.95	32666.86
671.09	32376.63
671.23	32472.59
671.37	32732.39
671.51	32666.86
671.65	32238.54
671.79	31852.35
671.93	31929.59
672.07	31814.90
672.21	31644.04
672.35	31826.60
672.49	31955.33
672.63	32357.91
672.77	31850.01
672.91	31894.48
673.05	31800.86
673.19	31688.51
673.33	31515.31
673.47	31475.52
673.61	31267.22
673.75	31384.24
673.89	31281.26
674.03	31129.12
674.17	31417.01
674.31	30909.11
674.45	31061.25
674.59	31332.75
674.73	31501.27
674.87	31075.29
675.01	30609.53
675.15	30616.55
675.29	31180.62
675.43	30717.19
675.56	30534.63
675.70	30572.08
675.84	30492.50
675.98	29490.75
676.12	30548.67
676.26	30677.40
676.40	30284.19
676.54	30429.30
676.68	30387.18
676.82	29530.54
676.96	29972.90
677.10	29832.47
677.23	29511.81
677.37	29579.69
677.51	29490.75
677.65	28854.12
677.79	28868.17
677.93	28826.04
678.07	28924.34
678.21	28575.60
678.34	29067.11
678.48	28587.30
678.62	28313.46
678.76	28348.57
678.90	28299.42
679.04	28205.80
679.18	28322.82
679.31	27978.76
679.45	28025.57
679.59	27915.57
679.73	28128.56
679.87	27775.14
680.00	27672.15
680.14	27676.83
680.28	27562.15
680.42	27379.59
680.56	27407.67
680.70	27140.85
680.83	27330.44
680.97	27632.36
681.11	27227.45
681.25	27374.91
681.39	27213.41
681.52	27122.13
681.66	26473.80
681.80	27014.46
681.94	26426.99
682.07	26373.16
682.21	26462.10
682.35	26314.64
682.49	26136.76
682.62	26073.57
682.76	25764.62
682.90	26309.96
683.04	25886.32
683.17	25790.36
683.31	26050.16
683.45	25399.49
683.59	25848.88
683.72	25497.80
683.86	25635.89
684.00	25607.80
684.13	25039.05
684.27	24875.21
684.41	25163.10
684.55	24652.86
684.68	24943.09
684.82	25104.59
684.96	24800.32
685.09	24659.88
685.23	24437.53
685.37	24704.35
685.50	24486.68
685.64	24219.86
685.78	24116.88
685.91	24166.03
686.05	24259.65
686.19	23704.95
686.32	23971.77
686.46	23597.28
686.60	23220.45
686.73	22920.87
686.87	23183.01
687.01	23302.37
687.14	23222.80
687.28	22899.80
687.42	22586.17
687.55	22939.59
687.69	22878.74
687.82	23087.04
687.96	23042.57
688.10	22462.12
688.23	22684.47
688.37	22462.12
688.50	22593.19
688.64	22441.06
688.78	21818.47
688.91	21795.07
689.05	21914.44
689.18	21872.31
689.32	22134.45
689.46	22059.55
689.59	22003.38
689.73	22104.02
689.86	21729.53
690.00	21579.74
690.13	21376.11
690.27	21387.82
690.41	21401.86
690.54	21172.49
690.68	20774.60
690.81	21142.06
690.95	21214.62
691.08	21097.59
691.22	20760.55
691.35	20706.72
691.49	20690.34
691.62	21111.63
691.76	21027.37
691.89	20980.56
692.03	20563.95
692.16	20470.33
692.30	20269.04
692.43	20205.84
692.57	20386.07
692.70	20166.06
692.84	19999.88
692.97	19793.91
693.11	19491.98
693.24	19852.42
693.38	19756.46
693.51	19391.34
693.65	19569.22
693.78	19147.92
693.92	19576.24
694.05	19374.95
694.19	19173.67
694.32	19033.24
694.45	19168.99
694.59	19075.37
694.72	19005.15
694.86	18836.63
694.99	18831.95
695.13	18768.76
695.26	18441.08
695.39	18235.11
695.53	18417.68
695.66	18654.07
695.80	18335.76
695.93	18235.11
696.07	18197.67
696.20	18448.10
696.33	18195.32
696.47	17816.16
696.60	17886.37
696.73	17689.77
696.87	17708.49
697.00	17647.64
697.14	17121.02
697.27	17439.33
697.40	17713.17
697.54	17371.46
697.67	17329.33
697.80	17235.70
697.94	17078.89
698.07	17074.21
698.21	16568.65
698.34	16968.88
698.47	17006.33
698.61	16566.31
698.74	17046.12
698.87	16842.50
699.01	16350.98
699.14	16423.54
699.27	15969.48
699.40	16343.96
699.54	16231.62
699.67	16231.62
699.80	16149.70
699.94	16086.50
700.07	16107.57
700.20	16035.01
700.34	15712.02
700.47	15896.92
700.60	15728.40
700.73	15726.06
700.87	15625.42
701.00	15501.37
701.13	15431.15
701.26	15304.76
701.40	15309.44
701.53	14981.77
701.66	15073.05
701.79	15176.03
701.93	15386.68
702.06	14850.70
702.19	15215.82
702.32	14817.93
702.46	14829.63
702.59	14782.82
702.72	14721.97
702.85	15021.56
702.99	14466.85
703.12	14504.30
703.25	14377.91
703.38	14422.38
703.51	14410.68
703.65	14099.39
703.78	13994.06
703.91	13848.95
704.04	13987.04
704.17	14061.94
704.31	13926.19
704.44	13755.33
704.57	13825.54
704.70	13797.46
704.83	13408.93
704.96	13537.66
705.10	13474.46
705.23	13366.80
>>>>>End Processed Spectral Data<<<<<
