SpectraSuite Data File
++++++++++++++++++++++++++++++++++++
Date: Fri Oct 25 10:48:20 EDT 2013
User: price-jones
Dark Spectrum Present: No
Reference Spectrum Present: No
Number of Sampled Component Spectra: 1
Spectrometers: USB2+H05261
Integration Time (usec): 100000 (USB2+H05261)
Spectra Averaged: 1 (USB2+H05261)
Boxcar Smoothing: 0 (USB2+H05261)
Correct for Electrical Dark: No (USB2+H05261)
Strobe/Lamp Enabled: No (USB2+H05261)
Correct for Detector Non-linearity: No (USB2+H05261)
Correct for Stray Light: No (USB2+H05261)
Number of Pixels in Processed Spectrum: 2048
>>>>>Begin Processed Spectral Data<<<<<
365.73	152.13
365.92	152.13
366.12	152.13
366.32	79.58
366.52	16.38
366.72	49.15
366.91	2.34
367.11	23.41
367.31	7.02
367.51	32.77
367.70	7.02
367.90	124.05
368.10	91.28
368.30	0.00
368.49	37.45
368.69	126.39
368.89	67.88
369.09	126.39
369.28	35.11
369.48	32.77
369.68	131.07
369.87	184.90
370.07	156.82
370.27	154.48
370.47	222.35
370.66	512.58
370.86	496.19
371.06	519.60
371.25	547.69
371.45	496.19
371.65	524.28
371.84	552.37
372.04	503.22
372.24	543.00
372.44	491.51
372.63	425.98
372.83	573.43
373.03	512.58
373.22	482.15
373.42	629.60
373.62	545.34
373.81	552.37
374.01	638.97
374.21	624.92
374.40	601.52
374.60	601.52
374.79	610.88
374.99	585.13
375.19	573.43
375.38	657.69
375.58	594.50
375.78	606.20
375.97	610.88
376.17	636.63
376.37	718.54
376.56	706.84
376.76	732.59
376.95	638.97
377.15	793.44
377.35	650.67
377.54	725.57
377.74	620.24
377.93	748.97
378.13	711.52
378.33	674.07
378.52	732.59
378.72	704.50
378.91	730.25
379.11	678.76
379.31	622.58
379.50	751.31
379.70	727.91
379.89	774.72
380.09	676.41
380.28	692.80
380.48	746.63
380.68	699.82
380.87	681.10
381.07	704.50
381.26	730.25
381.46	725.57
381.65	821.53
381.85	711.52
382.04	713.86
382.24	784.08
382.43	734.93
382.63	716.20
382.83	746.63
383.02	741.95
383.22	779.40
383.41	779.40
383.61	791.10
383.80	884.72
384.00	847.27
384.19	777.06
384.39	861.32
384.58	856.64
384.78	873.02
384.97	781.74
385.17	772.38
385.36	819.19
385.56	746.63
385.75	936.21
385.95	877.70
386.14	898.77
386.34	884.72
386.53	938.55
386.72	884.72
386.92	947.92
387.11	889.40
387.31	877.70
387.50	908.13
387.70	961.96
387.89	954.94
388.09	905.79
388.28	915.15
388.48	1008.77
388.67	990.05
388.86	1048.56
389.06	936.21
389.25	1053.24
389.45	1067.28
389.64	976.00
389.84	1018.13
390.03	1018.13
390.22	1071.97
390.42	1118.78
390.61	1039.20
390.81	1055.58
391.00	1107.07
391.19	1053.24
391.39	1149.20
391.58	1111.75
391.78	1191.33
391.97	1144.52
392.16	1125.80
392.36	1142.18
392.55	1041.54
392.75	1029.84
392.94	1018.13
393.13	1053.24
393.33	1018.13
393.52	1029.84
393.71	1149.20
393.91	1139.84
394.10	1170.27
394.29	1118.78
394.49	1254.53
394.68	1238.14
394.88	1303.68
395.07	1270.91
395.26	1273.25
395.46	1383.26
395.65	1329.42
395.84	1369.21
396.04	1306.02
396.23	1289.64
396.42	1252.19
396.62	1186.65
396.81	1299.00
397.00	1306.02
397.19	1315.38
397.39	1411.34
397.58	1483.90
397.77	1483.90
397.97	1472.20
398.16	1549.43
398.35	1568.16
398.55	1549.43
398.74	1563.48
398.93	1650.08
399.12	1526.03
399.32	1533.05
399.51	1680.50
399.70	1722.63
399.90	1708.59
400.09	1720.29
400.28	1689.87
400.47	1678.16
400.67	1797.53
400.86	1696.89
401.05	1788.17
401.24	1771.79
401.44	1914.56
401.63	1867.75
401.82	1853.70
402.01	1722.63
402.21	1806.89
402.40	1851.36
402.59	1928.60
402.78	1842.00
402.97	1902.86
403.17	1877.11
403.36	1970.73
403.55	1909.88
403.74	1928.60
403.93	1921.58
404.13	1893.49
404.32	1944.99
404.51	1963.71
404.70	2001.16
404.89	2073.71
405.09	2134.57
405.28	1963.71
405.47	2120.53
405.66	2092.44
405.85	2022.22
406.05	1944.99
406.24	2090.10
406.43	2069.03
406.62	2179.04
406.81	2272.66
407.00	2188.40
407.20	2183.72
407.39	2197.76
407.58	2289.04
407.77	2370.96
407.96	2422.45
408.15	2307.77
408.34	2279.68
408.54	2375.64
408.73	2253.94
408.92	2422.45
409.11	2546.50
409.30	2424.80
409.49	2476.29
409.68	2377.98
409.87	2366.28
410.07	2452.88
410.26	2445.86
410.45	2537.14
410.64	2532.46
410.83	2630.76
411.02	2665.87
411.21	2654.17
411.40	2794.60
411.59	2705.66
411.78	2822.69
411.98	2820.35
412.17	2726.72
412.36	2808.64
412.55	2766.51
412.74	2916.31
412.93	2930.35
413.12	2834.39
413.31	3000.57
413.50	3019.29
413.69	2944.39
413.88	3038.02
414.07	3059.08
414.26	3119.93
414.45	3047.38
414.64	3075.46
414.83	3124.62
415.02	3197.17
415.22	3232.28
415.41	3213.56
415.60	3290.79
415.79	3239.30
415.98	3571.66
416.17	3248.66
416.36	3346.97
416.55	3353.99
416.74	3517.83
416.93	3478.04
417.12	3442.93
417.31	3529.53
417.50	3452.29
417.69	3602.08
417.88	3679.32
418.07	3461.65
418.26	3669.96
418.45	3595.06
418.64	3740.18
418.83	3826.78
419.02	3730.81
419.21	3779.97
419.39	3833.80
419.58	3721.45
419.77	3803.37
419.96	3845.50
420.15	3822.09
420.34	3857.20
420.53	4025.72
420.72	4102.96
420.91	3995.29
421.10	3873.59
421.29	4070.19
421.48	3960.19
421.67	3939.12
421.86	4011.68
422.05	3896.99
422.24	3957.85
422.43	4067.85
422.61	3981.25
422.80	4035.08
422.99	4124.02
423.18	4102.96
423.37	4196.58
423.56	4105.30
423.75	4084.23
423.94	4009.34
424.13	3843.16
424.32	3861.88
424.50	4252.75
424.69	4219.99
424.88	4058.49
425.07	4032.74
425.26	4142.75
425.45	4203.60
425.64	4184.88
425.83	4292.54
426.01	4329.99
426.20	4423.61
426.39	4271.48
426.58	4016.36
426.77	4072.53
426.96	4107.64
427.15	4222.33
427.33	4203.60
427.52	4124.02
427.71	4477.44
427.90	4290.20
428.09	4355.74
428.28	4402.55
428.46	4222.33
428.65	4367.44
428.84	4484.47
429.03	4428.29
429.22	4416.59
429.40	4334.67
429.59	4440.00
429.78	3927.42
429.97	4088.92
430.16	4217.65
430.34	4196.58
430.53	4489.15
430.72	4381.48
430.91	4449.36
431.10	4664.69
431.28	4851.93
431.47	4823.84
431.66	4798.10
431.85	4624.90
432.03	4786.40
432.22	4917.47
432.41	4732.56
432.60	4933.85
432.79	4854.27
432.97	4947.89
433.16	4898.74
433.35	4753.63
433.54	4954.91
433.72	4919.81
433.91	4954.91
434.10	4908.10
434.28	4971.30
434.47	5013.43
434.66	5081.30
434.85	5210.03
435.03	5207.69
435.22	4990.02
435.41	5198.33
435.59	5359.83
435.78	5387.91
435.97	5406.64
436.16	5427.70
436.34	5369.19
436.53	5348.12
436.72	5364.51
436.90	5308.34
437.09	5247.48
437.28	5348.12
437.46	5392.59
437.65	5483.88
437.84	5345.78
438.02	5259.18
438.21	5401.96
438.40	5254.50
438.58	5626.65
438.77	5729.63
438.96	5493.24
439.14	5788.14
439.33	5860.70
439.52	5748.36
439.70	5834.96
439.89	5870.06
440.08	5980.07
440.26	6069.01
440.45	6008.16
440.63	6251.57
440.82	6263.27
441.01	6209.44
441.19	6384.98
441.38	6429.45
441.57	6410.73
441.75	6349.87
441.94	6427.11
442.12	6537.12
442.31	6534.78
442.50	6560.52
442.68	6567.54
442.87	6733.72
443.05	6597.97
443.24	6663.51
443.43	6654.14
443.61	6792.23
443.80	6904.58
443.98	6619.04
444.17	6560.52
444.35	6937.35
444.54	6876.49
444.73	6899.90
444.91	6958.41
445.10	6813.30
445.28	6843.73
445.47	6588.61
445.65	6841.39
445.84	6668.19
446.02	6963.09
446.21	6860.11
446.39	6965.43
446.58	6862.45
446.77	7035.65
446.95	6768.83
447.14	6906.92
447.32	7030.97
447.51	6853.09
447.69	6916.28
447.88	6974.80
448.06	7026.29
448.25	7045.01
448.43	6998.20
448.62	6897.56
448.80	6993.52
448.99	7176.08
449.17	7119.91
449.36	7016.93
449.54	7124.59
449.73	7414.82
449.91	7478.01
450.10	7405.46
450.28	7646.53
450.46	7461.63
450.65	7538.87
450.83	7452.27
451.02	7428.86
451.20	7592.70
451.39	7534.18
451.57	7503.76
451.76	7431.20
451.94	7473.33
452.13	7786.96
452.31	7719.09
452.49	7426.52
452.68	7496.74
452.86	7426.52
453.05	7653.55
453.23	7681.64
453.42	7639.51
453.60	7438.22
453.78	7796.32
453.97	7634.83
454.15	7765.90
454.34	7747.17
454.52	7803.35
454.70	7789.30
454.89	7866.54
455.07	7777.60
455.26	7903.99
455.44	8004.63
455.62	7915.69
455.81	8196.56
455.99	8212.94
456.17	8131.02
456.36	8091.23
456.54	8273.79
456.73	8224.64
456.91	8594.45
457.09	8489.12
457.28	8484.44
457.46	8423.59
457.64	8353.37
457.83	8344.01
458.01	8212.94
458.19	8540.61
458.38	8486.78
458.56	8711.47
458.74	8697.43
458.93	8456.36
459.11	8692.75
459.29	8741.90
459.48	8779.35
459.66	8854.25
459.84	8945.53
460.03	8891.70
460.21	8777.01
460.39	8929.14
460.57	8856.59
460.76	8929.14
460.94	8936.17
461.12	8861.27
461.31	9083.62
461.49	9025.11
461.67	9104.68
461.85	9345.76
462.04	9125.75
462.22	9603.22
462.40	9441.72
462.59	9207.67
462.77	9142.13
462.95	9366.82
463.13	9303.63
463.32	9231.07
463.50	9338.74
463.68	9425.34
463.86	9383.21
464.05	9095.32
464.23	9572.79
464.41	9320.01
464.59	9266.18
464.78	9460.45
464.96	9476.83
465.14	9423.00
465.32	9666.41
465.50	9568.11
465.69	9799.82
465.87	9675.77
466.05	9722.59
466.23	9509.60
466.41	9444.06
466.60	9907.49
466.78	9540.02
466.96	9654.71
467.14	9437.04
467.32	9762.37
467.51	9909.83
467.69	9362.14
467.87	9738.97
468.05	9989.41
468.23	9888.76
468.41	9699.18
468.60	10003.45
468.78	10052.60
468.96	10010.47
469.14	10106.43
469.32	10113.45
469.50	9788.12
469.69	10195.37
469.87	10134.52
470.05	10120.48
470.23	10258.57
470.41	10073.67
470.59	10284.31
470.77	10209.42
470.95	10525.39
471.14	10665.82
471.32	10492.62
471.50	10663.48
471.68	10630.71
471.86	10888.17
472.04	10946.69
472.22	11030.94
472.40	10527.73
472.58	10944.34
472.77	10899.87
472.95	11023.92
473.13	11332.87
473.31	10881.15
473.49	10853.06
473.67	11124.57
473.85	11236.91
474.03	11304.79
474.21	11335.21
474.39	11428.84
474.57	11529.48
474.75	11522.46
474.93	11840.77
475.12	11695.66
475.30	11744.81
475.48	11812.68
475.66	11520.12
475.84	11648.85
476.02	11990.56
476.20	11880.56
476.38	12123.98
476.56	12306.54
476.74	12379.09
476.92	12088.87
477.10	12222.28
477.28	12608.47
477.46	12470.37
477.64	12753.58
477.82	13151.47
478.00	13008.70
478.18	13088.28
478.36	13212.32
478.54	13439.36
478.72	13116.36
478.90	13659.37
479.08	13741.29
479.26	13738.94
479.44	13848.95
479.62	13743.63
479.80	13678.09
479.98	13998.74
480.16	14127.47
480.34	13895.76
480.52	14300.67
480.70	14476.21
480.88	14251.52
481.06	14586.22
481.24	14576.86
481.41	14876.44
481.59	15262.63
481.77	15117.52
481.95	15192.42
482.13	15328.17
482.31	15286.04
482.49	15379.66
482.67	15400.72
482.85	15679.25
483.03	15695.63
483.21	15812.66
483.39	16240.98
483.57	15990.54
483.74	16116.93
483.92	16423.54
484.10	16311.19
484.28	16152.04
484.46	16947.82
484.64	16978.25
484.82	16624.83
485.00	16718.45
485.18	16877.60
485.35	17174.85
485.53	16524.18
485.71	16844.84
485.89	17144.42
486.07	16964.20
486.25	17135.06
486.43	17429.97
486.61	17703.81
486.78	17994.04
486.96	18260.86
487.14	18405.97
487.32	18396.61
487.50	18637.69
487.68	18906.85
487.85	19213.46
488.03	19295.38
488.21	19449.85
488.39	19370.27
488.57	19398.36
488.75	19417.08
488.92	19690.93
489.10	19810.29
489.28	20135.63
489.46	20580.33
489.64	20645.87
489.81	21029.71
489.99	21069.50
490.17	20957.16
490.35	21214.62
490.53	21212.28
490.70	21305.90
490.88	21336.32
491.06	21680.38
491.24	21586.76
491.41	21490.80
491.59	21556.33
491.77	21699.11
491.95	21752.94
492.13	21876.99
492.30	22398.93
492.48	22614.26
492.66	22593.19
492.84	22551.06
493.01	23068.32
493.19	22932.57
493.37	23204.07
493.54	23356.21
493.72	23253.22
493.90	23391.31
494.08	23754.10
494.25	24283.06
494.43	23990.49
494.61	24278.38
494.79	24472.64
494.96	24140.29
495.14	24479.66
495.32	24641.16
495.49	24800.32
495.67	24863.51
495.85	25113.95
496.02	25266.08
496.20	25406.52
496.38	25223.95
496.55	25340.98
496.73	26202.30
496.91	25841.85
497.09	26019.74
497.26	26129.74
497.44	25685.04
497.62	25993.99
497.79	26513.59
497.97	26047.82
498.14	26274.85
498.32	26991.06
498.50	26747.64
498.67	27250.86
498.85	26981.70
499.03	27080.00
499.20	27068.30
499.38	27367.88
499.56	27541.08
499.73	27421.72
499.91	27548.11
500.08	27611.30
500.26	27267.24
500.44	27594.92
500.61	27716.62
500.79	27543.42
500.97	27786.84
501.14	27995.15
501.32	28311.12
501.49	28243.24
501.67	28320.48
501.84	28416.44
502.02	28329.84
502.20	28811.99
502.37	28830.72
502.55	28886.89
502.72	29036.69
502.90	29017.96
503.07	28865.83
503.25	28954.77
503.43	29174.78
503.60	29097.54
503.78	29530.54
503.95	29633.52
504.13	29713.10
504.30	29860.55
504.48	29717.78
504.65	30539.31
504.83	30181.21
505.01	29844.17
505.18	30590.80
505.36	30621.23
505.53	30649.32
505.71	31035.50
505.88	30852.94
506.06	30930.18
506.23	31047.21
506.41	30705.49
506.58	30988.69
506.76	30918.48
506.93	31005.08
507.11	31117.42
507.28	31386.58
507.46	31005.08
507.63	31091.68
507.81	31194.66
507.98	30862.30
508.16	31447.44
508.33	31613.62
508.50	31824.26
508.68	32126.19
508.85	32126.19
509.03	32203.43
509.20	32046.62
509.38	32301.73
509.55	32615.37
509.73	32488.98
509.90	32477.27
510.08	32343.86
510.25	32753.46
510.42	32907.93
510.60	33041.34
510.77	33305.82
510.95	33378.38
511.12	32800.27
511.30	33333.91
511.47	33565.62
511.64	33813.72
511.82	33556.26
511.99	33479.02
512.17	33776.27
512.34	33223.90
512.51	33759.89
512.69	33879.25
512.86	34258.42
513.04	34560.35
513.21	34075.86
513.38	33816.06
513.56	33949.47
513.73	33764.57
513.90	34436.30
514.08	34270.12
514.25	34125.01
514.43	34342.68
514.60	34593.12
514.77	34616.52
514.95	34597.80
515.12	34815.47
515.29	34979.31
515.47	35400.60
515.64	35150.17
515.81	35079.95
515.99	34848.24
516.16	35093.99
516.33	34635.25
516.51	35079.95
516.68	34377.79
516.85	34471.41
517.03	34494.82
517.20	35187.61
517.37	35255.49
517.54	35934.24
517.72	35204.00
517.89	35372.52
518.06	35386.56
518.24	35526.99
518.41	35761.05
518.58	35777.43
518.75	35632.32
518.93	36278.30
519.10	35990.42
519.27	35934.24
519.45	36418.74
519.62	36699.60
519.79	36507.68
519.96	36694.92
520.14	36678.54
520.31	36348.52
520.48	36844.71
520.65	36659.81
520.83	37116.22
521.00	37228.56
521.17	37174.73
521.34	37326.86
521.52	37479.00
521.69	37083.45
521.86	37652.20
522.03	37303.46
522.20	37614.75
522.38	37713.05
522.55	37418.14
522.72	37638.15
522.89	37509.43
523.07	37720.07
523.24	37710.71
523.41	38263.08
523.58	37954.13
523.75	38508.83
523.92	38635.22
524.10	38480.75
524.27	38660.97
524.44	38649.27
524.61	38520.54
524.78	38675.01
524.96	38876.30
525.13	39133.76
525.30	39435.69
525.47	39299.94
525.64	39037.80
525.81	39023.75
525.98	38810.76
526.16	38494.79
526.33	38110.94
526.50	38937.15
526.67	38473.73
526.84	38663.31
527.01	38717.14
527.18	39061.20
527.36	39468.45
527.53	39346.75
527.70	39634.63
527.87	39651.02
528.04	39934.22
528.21	39803.15
528.38	39819.53
528.55	39950.60
528.72	40524.04
528.89	40219.77
529.07	40355.52
529.24	39988.05
529.41	40341.47
529.58	40006.78
529.75	40304.02
529.92	40577.87
530.09	40533.40
530.26	40744.05
530.43	40458.50
530.60	40226.79
530.77	40872.78
530.94	41008.53
531.11	40289.98
531.28	40746.39
531.46	40945.33
531.63	40961.72
531.80	40512.33
531.97	40690.21
532.14	40809.58
532.31	40629.36
532.48	40552.12
532.65	41069.38
532.82	41097.47
532.99	41237.90
533.16	41165.34
533.33	40964.06
533.50	41450.89
533.67	41188.75
533.84	41254.28
534.01	41148.96
534.18	41273.01
534.35	41633.45
534.52	41249.60
534.69	41874.52
534.86	42139.00
535.03	41528.13
535.20	41897.93
535.37	42305.18
535.54	42911.38
535.71	42129.64
535.88	41911.97
536.05	42155.39
536.22	42272.42
536.38	42274.76
536.55	42143.69
536.72	42515.83
536.89	41963.46
537.06	42054.75
537.23	42518.17
537.40	42263.05
537.57	42377.74
537.74	42117.94
537.91	42824.78
538.08	42817.76
538.25	42089.85
538.42	42780.31
538.59	42937.13
538.75	42288.80
538.92	42705.41
539.09	42883.30
539.26	42740.52
539.43	42705.41
539.60	42960.53
539.77	42824.78
539.94	43084.58
540.11	42803.72
540.28	42689.03
540.44	42808.40
540.61	42899.68
540.78	42431.57
540.95	43182.88
541.12	42522.85
541.29	43414.60
541.46	43320.98
541.62	43299.91
541.79	43033.09
541.96	43285.87
542.13	43260.12
542.30	43442.68
542.47	43700.14
542.63	43154.80
542.80	43344.38
542.97	43480.13
543.14	44392.94
543.31	44182.29
543.48	43854.62
543.64	44432.73
543.81	44589.55
543.98	44135.48
544.15	44002.07
544.32	44605.93
544.48	44378.90
544.65	44484.22
544.82	44177.61
544.99	44065.27
545.16	44465.50
545.32	44350.81
545.49	44432.73
545.66	44500.61
545.83	44699.55
546.00	45186.38
546.16	44907.86
546.33	44409.32
546.50	44149.53
546.67	44573.16
546.83	44107.40
547.00	44573.16
547.17	44655.08
547.34	44374.22
547.50	44725.30
547.67	45200.43
547.84	44734.66
548.00	45029.57
548.17	44985.10
548.34	44582.52
548.51	44498.26
548.67	44954.67
548.84	45511.72
549.01	45329.16
549.18	45088.08
549.34	45394.69
549.51	44945.31
549.68	45191.06
549.84	45476.61
550.01	44987.44
550.18	44992.12
550.34	45275.32
550.51	44989.78
550.68	45642.79
550.84	44924.24
551.01	45415.76
551.18	45392.35
551.34	45319.79
551.51	45525.76
551.68	45380.65
551.84	46134.30
552.01	45542.14
552.18	45691.94
552.34	45102.12
552.51	45750.45
552.68	45759.81
552.84	45785.56
553.01	45879.18
553.18	45677.90
553.34	45968.12
553.51	45268.30
553.67	45979.82
553.84	46101.53
554.01	46078.13
554.17	46384.74
554.34	46543.89
554.51	46263.03
554.67	46380.06
554.84	45975.14
555.00	45771.52
555.17	45940.04
555.33	46401.12
555.50	45961.10
555.67	46358.99
555.83	46265.37
556.00	46148.34
556.16	46941.78
556.33	46174.09
556.50	46157.70
556.66	46431.55
556.83	46174.09
556.99	46621.13
557.16	46349.63
557.32	46583.68
557.49	46625.81
557.65	46272.39
557.82	46436.23
557.98	46593.04
558.15	46674.96
558.32	46265.37
558.48	46361.33
558.65	46403.46
558.81	46202.18
558.98	46328.56
559.14	46237.28
559.31	46473.68
559.47	46377.72
559.64	46841.14
559.80	47063.49
559.97	46806.03
560.13	46649.22
560.30	46450.27
560.46	46817.74
560.63	46635.17
560.79	46742.84
560.96	46703.05
561.12	46733.48
561.29	46897.31
561.45	46822.42
561.61	46841.14
561.78	46581.34
561.94	46604.75
562.11	47239.03
562.27	47096.26
562.44	46850.50
562.60	46787.31
562.77	47433.30
562.93	47136.05
563.10	46965.19
563.26	46698.37
563.42	47061.15
563.59	46976.89
563.75	46782.63
563.92	47136.05
564.08	46906.68
564.24	47138.39
564.41	46897.31
564.57	47229.67
564.74	47040.09
564.90	47021.36
565.07	46878.59
565.23	46969.87
565.39	46801.35
565.56	47248.39
565.72	46775.61
565.88	47105.62
566.05	46836.46
566.21	46939.44
566.38	47196.90
566.54	47114.98
566.70	47524.58
566.87	47360.74
567.03	47264.78
567.19	47508.19
567.36	47435.64
567.52	46983.91
567.68	47508.19
567.85	46969.87
568.01	47075.19
568.17	47000.30
568.34	47178.18
568.50	47122.01
568.66	47435.64
568.83	46909.02
568.99	46820.08
569.15	47164.14
569.32	47283.50
569.48	47199.24
569.64	47065.83
569.81	47428.62
569.97	46579.00
570.13	47026.04
570.30	46948.81
570.46	47033.07
570.62	46806.03
570.78	47253.08
570.95	47033.07
571.11	47367.76
571.27	46941.78
571.43	47098.60
571.60	47232.01
571.76	47182.86
571.92	47384.15
572.09	47063.49
572.25	46904.34
572.41	47075.19
572.57	46974.55
572.74	48170.57
572.90	47196.90
573.06	47292.86
573.22	47456.70
573.38	47105.62
573.55	47077.54
573.71	47566.71
573.87	47353.72
574.03	46976.89
574.20	47515.22
574.36	46962.85
574.52	47442.66
574.68	47131.37
574.84	47435.64
575.01	47489.47
575.17	47442.66
575.33	47072.85
575.49	47217.97
575.65	47203.92
575.82	47026.04
575.98	47189.88
576.14	47533.94
576.30	47704.80
576.46	47290.52
576.62	47306.91
576.79	46784.97
576.95	46923.06
577.11	46953.49
577.27	47463.72
577.43	47489.47
577.59	47477.77
577.75	47110.30
577.92	47021.36
578.08	46951.15
578.24	46848.16
578.40	47220.31
578.56	47342.02
578.72	47164.14
578.88	47393.51
579.04	47566.71
579.21	46932.42
579.37	47047.11
579.53	47297.55
579.69	47468.40
579.85	47765.65
580.01	47526.92
580.17	47632.24
580.33	47653.31
580.49	47498.83
580.65	47571.39
580.82	47620.54
580.98	47445.00
581.14	46969.87
581.30	47468.40
581.46	47655.65
581.62	47566.71
581.78	47243.71
581.94	47452.02
582.10	47576.07
582.26	47807.78
582.42	47533.94
582.58	47845.23
582.74	47679.05
582.90	47643.94
583.06	47665.01
583.22	47711.82
583.38	47615.86
583.54	47812.46
583.70	47636.92
583.86	47824.17
584.02	46995.62
584.18	47452.02
584.34	47435.64
584.50	47178.18
584.66	47639.26
584.82	47473.09
584.98	47695.44
585.14	47599.47
585.30	47632.24
585.46	47648.63
585.62	47091.58
585.78	47470.75
585.94	47468.40
586.10	47524.58
586.26	47189.88
586.42	47501.17
586.58	48076.94
586.74	47557.35
586.90	47660.33
587.06	47234.35
587.22	47430.96
587.38	47283.50
587.54	47690.76
587.70	47779.70
587.86	47821.83
588.02	47590.11
588.18	47421.59
588.34	47033.07
588.49	47014.34
588.65	46766.24
588.81	47030.72
588.97	47370.10
589.13	47072.85
589.29	47227.33
589.45	46806.03
589.61	47239.03
589.77	47447.34
589.93	47791.40
590.08	47393.51
590.24	47800.76
590.40	47700.12
590.56	47842.89
590.72	47690.76
590.88	47257.76
591.04	47737.57
591.20	47772.67
591.35	47927.15
591.51	48076.94
591.67	47875.66
591.83	47557.35
591.99	47194.56
592.15	47529.26
592.31	47515.22
592.46	47779.70
592.62	47608.84
592.78	47896.72
592.94	47669.69
593.10	47564.37
593.26	47791.40
593.41	47611.18
593.57	47798.42
593.73	47601.82
593.89	47590.11
594.05	47360.74
594.20	47805.44
594.36	47704.80
594.52	47751.61
594.68	47772.67
594.84	47604.16
594.99	48240.78
595.15	47459.04
595.31	47709.48
595.47	47494.15
595.62	47430.96
595.78	47814.80
595.94	47980.98
596.10	48203.33
596.25	47681.39
596.41	47707.14
596.57	47796.08
596.73	47849.91
596.88	47571.39
597.04	47903.74
597.20	47842.89
597.36	47908.43
597.51	47718.84
597.67	47709.48
597.83	47681.39
597.99	47988.00
598.14	47650.97
598.30	47543.30
598.46	47508.19
598.61	47695.44
598.77	47571.39
598.93	47632.24
599.09	47456.70
599.24	48039.50
599.40	47835.87
599.56	48116.73
599.71	47807.78
599.87	48053.54
600.03	47632.24
600.18	47915.45
600.34	47845.23
600.50	47543.30
600.65	47386.49
600.81	47875.66
600.97	48116.73
601.12	48051.20
601.28	47826.51
601.44	47777.36
601.59	47611.18
601.75	47182.86
601.91	47594.79
602.06	47646.29
602.22	47416.91
602.37	47669.69
602.53	47531.60
602.69	47922.47
602.84	47681.39
603.00	47793.74
603.16	47543.30
603.31	47445.00
603.47	47742.25
603.62	47480.11
603.78	47746.93
603.94	47480.11
604.09	47849.91
604.25	47494.15
604.40	47606.50
604.56	47505.85
604.71	47826.51
604.87	47526.92
605.03	47578.41
605.18	47594.79
605.34	47672.03
605.49	47419.25
605.65	47742.25
605.80	47461.38
605.96	47655.65
606.12	47856.93
606.27	47564.37
606.43	47400.53
606.58	47915.45
606.74	47501.17
606.89	47236.69
607.05	47585.43
607.20	47215.63
607.36	47955.24
607.51	47477.77
607.67	47721.18
607.82	47105.62
607.98	47370.10
608.13	47217.97
608.29	47515.22
608.44	46831.78
608.60	46887.95
608.75	47178.18
608.91	46824.76
609.06	47337.33
609.22	47311.59
609.37	47147.75
609.53	47306.91
609.68	47405.21
609.84	46815.40
609.99	47501.17
610.15	47107.96
610.30	47171.16
610.46	46784.97
610.61	46948.81
610.76	47318.61
610.92	46997.96
611.07	46948.81
611.23	47089.24
611.38	46885.61
611.54	46855.18
611.69	46890.29
611.84	46937.10
612.00	46529.85
612.15	46890.29
612.31	47253.08
612.46	46539.21
612.62	47199.24
612.77	47047.11
612.92	46525.17
613.08	46885.61
613.23	46712.41
613.39	46965.19
613.54	46581.34
613.69	46710.07
613.85	46862.21
614.00	46740.50
614.15	46602.41
614.31	46714.75
614.46	46789.65
614.62	46426.87
614.77	46579.00
614.92	46440.91
615.08	46382.40
615.23	46321.54
615.38	46461.97
615.54	45881.52
615.69	46103.87
615.84	46078.13
616.00	46309.84
616.15	46176.43
616.30	46038.34
616.46	45851.09
616.61	45724.71
616.76	45970.46
616.92	45605.34
617.07	46181.11
617.22	45907.27
617.37	45914.29
617.53	46164.73
617.68	46356.65
617.83	46410.48
617.99	46377.72
618.14	45830.03
618.29	46192.81
618.45	45544.48
618.60	46143.66
618.75	45998.55
618.90	46080.47
619.06	46387.08
619.21	46164.73
619.36	45965.78
619.51	45989.19
619.67	45883.86
619.82	45986.85
619.97	45853.44
620.12	45633.42
620.28	45429.80
620.43	45490.65
620.58	45443.84
620.73	45631.08
620.89	45464.91
621.04	45397.03
621.19	45610.02
621.34	45380.65
621.49	45275.32
621.65	45076.38
621.80	45951.74
621.95	44786.15
622.10	45595.98
622.25	44844.66
622.41	45401.71
622.56	44804.88
622.71	45254.26
622.86	45184.04
623.01	45361.92
623.16	45567.89
623.32	45507.04
623.47	45265.96
623.62	45488.31
623.77	45223.83
623.92	44968.71
624.07	44631.68
624.23	44596.57
624.38	45015.52
624.53	44414.01
624.68	45036.59
624.83	45200.43
624.98	44673.81
625.13	44626.99
625.29	45277.66
625.44	44605.93
625.59	44526.35
625.74	44399.96
625.89	43929.51
626.04	44301.66
626.19	44198.68
626.34	44524.01
626.49	44706.57
626.65	44397.62
626.80	44814.24
626.95	44542.74
627.10	44051.22
627.25	44212.72
627.40	43971.64
627.55	43955.26
627.70	43690.78
627.85	43655.67
628.00	43868.66
628.15	44390.60
628.30	43915.47
628.45	44137.82
628.60	43964.62
628.76	43997.39
628.91	44168.25
629.06	43917.81
629.21	43948.24
629.36	43620.56
629.51	43714.19
629.66	43854.62
629.81	43597.16
629.96	43906.11
630.11	43938.88
630.26	43828.87
630.41	43686.10
630.56	43597.16
630.71	43913.13
630.86	43384.17
631.01	43494.18
631.16	43732.91
631.31	43508.22
631.46	42852.87
631.61	43562.05
631.76	43489.49
631.91	43669.72
632.06	43482.47
632.21	43442.68
632.36	43718.87
632.51	43150.12
632.66	43597.16
632.81	42993.30
632.96	43400.55
633.10	43126.71
633.25	42574.34
633.40	43051.81
633.55	43559.71
633.70	43070.54
633.85	42843.51
634.00	43250.76
634.15	42876.27
634.30	42904.36
634.45	43196.93
634.60	42988.62
634.75	42768.61
634.90	43072.88
635.05	42941.81
635.19	43283.53
635.34	43262.46
635.49	42838.83
635.64	42808.40
635.79	42611.79
635.94	42698.39
636.09	42588.39
636.24	42698.39
636.39	42344.97
636.53	42515.83
636.68	42440.93
636.83	42501.79
636.98	42728.82
637.13	42120.28
637.28	42909.04
637.43	42415.19
637.57	42752.23
637.72	42457.32
637.87	42532.22
638.02	42389.44
638.17	42391.78
638.32	42115.60
638.46	42487.74
638.61	42373.06
638.76	42239.65
638.91	42387.10
639.06	42356.67
639.20	42087.51
639.35	42286.46
639.50	41940.06
639.65	42380.08
639.80	42239.65
639.94	42085.17
640.09	41755.16
640.24	41876.86
640.39	41397.06
640.54	41977.51
640.68	41649.83
640.83	41783.24
640.98	41539.83
641.13	41240.24
641.27	41982.19
641.42	41848.78
641.57	41860.48
641.72	41888.57
641.86	41478.97
642.01	41277.69
642.16	41696.64
642.31	41226.20
642.45	41778.56
642.60	41244.92
642.75	41127.89
642.90	41563.23
643.04	41542.17
643.19	41443.87
643.34	41504.72
643.48	40954.69
643.63	41848.78
643.78	41324.50
643.93	41053.00
644.07	40793.20
644.22	41347.90
644.37	40772.13
644.51	41074.06
644.66	41331.52
644.81	41216.83
644.95	41336.20
645.10	41064.70
645.25	41123.21
645.39	41361.95
645.54	41221.52
645.69	41099.81
645.83	40802.56
645.98	41191.09
646.13	40933.63
646.27	40966.40
646.42	40416.37
646.57	40715.96
646.71	40540.42
646.86	40886.82
647.00	41074.06
647.15	40713.62
647.30	40744.05
647.44	40428.07
647.59	40423.39
647.74	40411.69
647.88	40304.02
648.03	40109.76
648.17	40383.60
648.32	40322.75
648.47	40512.33
648.61	40203.38
648.76	40421.05
648.90	40219.77
649.05	40577.87
649.20	40336.79
649.34	40339.13
649.49	40540.42
649.63	40009.12
649.78	39901.45
649.92	39917.84
650.07	40322.75
650.21	39861.66
650.36	40016.14
650.51	39995.07
650.65	40378.92
650.80	40229.13
650.94	40348.50
651.09	40334.45
651.23	40095.72
651.38	39861.66
651.52	40205.72
651.67	39636.97
651.81	39955.29
651.96	39541.01
652.10	39728.25
652.25	39557.39
652.39	39613.57
652.54	39501.22
652.68	39929.54
652.83	39913.16
652.97	39873.37
653.12	39707.19
653.26	39398.24
653.41	39643.99
653.55	39002.69
653.70	39440.37
653.84	39559.73
653.99	39199.29
654.13	39552.71
654.27	39349.09
654.42	39311.64
654.56	39679.10
654.71	39599.52
654.85	39569.10
655.00	39367.81
655.14	39157.16
655.29	38960.56
655.43	38806.08
655.57	38663.31
655.72	38370.74
655.86	38452.66
656.01	38553.30
656.15	38504.15
656.30	38646.93
656.44	38515.86
656.58	38546.28
656.73	38857.57
656.87	38927.79
657.01	38724.16
657.16	38216.27
657.30	38293.50
657.45	37982.21
657.59	38012.64
657.73	38099.24
657.88	38637.56
658.02	38199.88
658.16	38155.41
658.31	38686.71
658.45	38660.97
658.60	38321.59
658.74	38162.43
658.88	38494.79
659.03	37914.34
659.17	38286.48
659.31	38073.49
659.46	38054.77
659.60	37879.23
659.74	37710.71
659.89	37867.53
660.03	37708.37
660.17	38014.98
660.32	38110.94
660.46	37937.74
660.60	38007.96
660.74	38089.88
660.89	37502.40
661.03	37584.32
661.17	37504.74
661.32	37493.04
661.46	37406.44
661.60	37097.49
661.74	37331.54
661.89	37132.60
662.03	37507.08
662.17	37244.94
662.31	37167.71
662.46	37357.29
662.60	37184.09
662.74	37069.40
662.88	36804.92
663.03	36947.70
663.17	37010.89
663.31	36552.15
663.45	37092.81
663.60	37170.05
663.74	36542.78
663.88	36353.20
664.02	36713.64
664.17	36840.03
664.31	36751.09
664.45	36119.15
664.59	36334.48
664.73	36638.75
664.88	36559.17
665.02	35952.97
665.16	36095.74
665.30	36407.03
665.44	36182.34
665.59	36154.26
665.73	36191.70
665.87	36222.13
666.01	35920.20
666.15	35644.02
666.29	35597.21
666.44	36299.37
666.58	35524.65
666.72	35681.47
666.86	35807.86
667.00	35721.26
667.14	35276.55
667.28	35260.17
667.43	35372.52
667.57	35079.95
667.71	35400.60
667.85	35194.64
667.99	34969.94
668.13	34487.79
668.27	34859.94
668.41	35669.76
668.56	34976.97
668.70	34855.26
668.84	34909.09
668.98	34623.54
669.12	35023.78
669.26	35016.75
669.40	34555.67
669.54	34567.37
669.68	34590.78
669.82	34473.75
669.96	34246.72
670.10	34270.12
670.25	34548.65
670.39	33989.26
670.53	34204.59
670.67	34185.86
670.81	34223.31
670.95	34433.96
671.09	34092.24
671.23	33759.89
671.37	34164.80
671.51	33809.04
671.65	33916.70
671.79	33406.47
671.93	33347.95
672.07	33469.66
672.21	33333.91
672.35	33268.37
672.49	33200.50
672.63	33359.66
672.77	33095.18
672.91	33017.94
673.05	32961.76
673.19	33593.71
673.33	32620.05
673.47	32680.90
673.61	33130.28
673.75	32465.57
673.89	32435.14
674.03	31742.35
674.17	32161.30
674.31	32217.47
674.45	32058.32
674.59	32147.26
674.73	32243.22
674.87	32535.79
675.01	32498.34
675.15	32627.07
675.29	32102.79
675.43	31857.03
675.56	32498.34
675.70	31793.84
675.84	31580.85
675.98	30646.97
676.12	31461.48
676.26	31328.07
676.40	31150.19
676.54	31330.41
676.68	31154.87
676.82	30696.13
676.96	30998.06
677.10	30323.98
677.23	30668.04
677.37	30890.39
677.51	30527.61
677.65	30614.21
677.79	30490.16
677.93	30314.62
678.07	29968.22
678.21	29619.48
678.34	29998.65
678.48	29869.92
678.62	29940.13
678.76	29720.12
678.90	29769.27
679.04	29743.53
679.18	29614.80
679.31	29401.81
679.45	29055.41
679.59	28943.06
679.73	28987.53
679.87	28823.70
680.00	29111.58
680.14	29034.35
680.28	29149.03
680.42	28552.20
680.56	28383.68
680.70	28563.90
680.83	28446.87
680.97	28414.10
681.11	28357.93
681.25	28271.33
681.39	28187.07
681.52	28060.68
681.66	28161.33
681.80	27833.65
681.94	27817.27
682.07	27754.07
682.21	27655.77
682.35	27353.84
682.49	27559.81
682.62	27733.01
682.76	27159.58
682.90	27213.41
683.04	27304.69
683.17	26953.61
683.31	26733.60
683.45	27007.44
683.59	27014.46
683.72	26586.15
683.86	26274.85
684.00	26312.30
684.13	26340.39
684.27	26235.06
684.41	26216.34
684.55	26188.25
684.68	25865.26
684.82	25340.98
684.96	25727.17
685.09	25771.64
685.23	25235.66
685.37	25736.53
685.50	25914.41
685.64	25610.14
685.78	25399.49
685.91	25287.15
686.05	25191.19
686.19	24849.47
686.32	25427.58
686.46	24531.15
686.60	24346.25
686.73	24191.78
686.87	24151.99
687.01	24189.44
687.14	23836.02
687.28	23821.97
687.42	23718.99
687.55	23681.54
687.69	23580.90
687.82	23613.66
687.96	23667.50
688.10	23480.25
688.23	23564.51
688.37	23515.36
688.50	22967.68
688.64	23236.84
688.78	23080.02
688.91	22824.90
689.05	23105.77
689.18	22750.01
689.32	22642.34
689.46	23096.41
689.59	22520.63
689.73	22775.75
689.86	22532.34
690.00	22618.94
690.13	22785.12
690.27	22527.66
690.41	22389.56
690.54	21745.92
690.68	22127.42
690.81	21961.25
690.95	21982.31
691.08	21891.03
691.22	22059.55
691.35	21766.98
691.49	21692.08
691.62	21542.29
691.76	21699.11
691.89	21865.28
692.03	21359.73
692.16	21064.82
692.30	21275.47
692.43	21366.75
692.57	20851.83
692.70	20638.84
692.84	20868.22
692.97	20390.75
693.11	20601.40
693.24	20372.02
693.38	20386.07
693.51	20416.49
693.65	20416.49
693.78	20210.53
693.92	20020.94
694.05	19810.29
694.19	20130.95
694.32	19665.18
694.45	19770.51
694.59	19814.98
694.72	19726.04
694.86	19503.68
694.99	19690.93
695.13	19517.73
695.26	19042.60
695.39	18806.20
695.53	19206.44
695.66	19044.94
695.80	19023.87
695.93	19009.83
696.07	18939.62
696.20	18845.99
696.33	18885.78
696.47	18857.70
696.60	18600.24
696.73	18394.27
696.87	18424.70
697.00	18597.90
697.14	18338.10
697.27	18270.22
697.40	18029.15
697.54	17968.29
697.67	17645.30
697.80	18087.66
697.94	17408.90
698.07	17788.07
698.21	17687.43
698.34	17682.75
698.47	17495.50
698.61	17336.35
698.74	17348.05
698.87	17200.60
699.01	17280.18
699.14	16980.59
699.27	17156.13
699.40	16905.69
699.54	16690.36
699.67	16676.32
699.80	17071.87
699.94	16538.23
700.07	16673.98
700.20	16512.48
700.34	16320.56
700.47	16638.87
700.60	16369.71
700.73	16519.50
700.87	16212.89
701.00	16180.12
701.13	16161.40
701.26	16180.12
701.40	16145.02
701.53	15824.36
701.66	15606.69
701.79	15800.96
701.93	15531.80
702.06	15417.11
702.19	15651.16
702.32	15459.24
702.46	14953.68
702.59	15463.92
702.72	15194.76
702.85	15096.46
702.99	15417.11
703.12	15009.86
703.25	15075.39
703.38	15019.22
703.51	14806.23
703.65	14831.97
703.78	14780.48
703.91	14761.76
704.04	14724.31
704.17	14764.10
704.31	14504.30
704.44	14431.74
704.57	14181.31
704.70	14094.71
704.83	14132.15
704.96	14146.20
705.10	14249.18
705.23	14122.79
>>>>>End Processed Spectral Data<<<<<
