SpectraSuite Data File
++++++++++++++++++++++++++++++++++++
Date: Fri Oct 25 11:34:37 EDT 2013
User: price-jones
Dark Spectrum Present: No
Reference Spectrum Present: No
Number of Sampled Component Spectra: 1
Spectrometers: USB2+H05261
Integration Time (usec): 100000 (USB2+H05261)
Spectra Averaged: 1 (USB2+H05261)
Boxcar Smoothing: 0 (USB2+H05261)
Correct for Electrical Dark: No (USB2+H05261)
Strobe/Lamp Enabled: No (USB2+H05261)
Correct for Detector Non-linearity: No (USB2+H05261)
Correct for Stray Light: No (USB2+H05261)
Number of Pixels in Processed Spectrum: 2048
>>>>>Begin Processed Spectral Data<<<<<
365.73	292.57
365.92	292.57
366.12	292.57
366.32	156.82
366.52	182.56
366.72	250.44
366.91	142.77
367.11	180.22
367.31	124.05
367.51	152.13
367.70	194.26
367.90	182.56
368.10	182.56
368.30	159.16
368.49	107.66
368.69	198.95
368.89	234.05
369.09	215.33
369.28	276.18
369.48	198.95
369.68	231.71
369.87	217.67
370.07	210.65
370.27	241.08
370.47	334.70
370.66	514.92
370.86	543.00
371.06	498.53
371.25	582.79
371.45	573.43
371.65	573.43
371.84	550.03
372.04	472.79
372.24	557.05
372.44	463.43
372.63	594.50
372.83	608.54
373.03	582.79
373.22	622.58
373.42	566.41
373.62	585.13
373.81	543.00
374.01	681.10
374.21	615.56
374.40	608.54
374.60	592.16
374.79	648.33
374.99	727.91
375.19	657.69
375.38	615.56
375.58	587.47
375.78	643.65
375.97	620.24
376.17	631.94
376.37	683.44
376.56	627.26
376.76	660.03
376.95	627.26
377.15	657.69
377.35	720.88
377.54	688.12
377.74	660.03
377.93	643.65
378.13	732.59
378.33	636.63
378.52	711.52
378.72	692.80
378.91	676.41
379.11	641.31
379.31	718.54
379.50	779.40
379.70	716.20
379.89	676.41
380.09	716.20
380.28	622.58
380.48	744.29
380.68	657.69
380.87	751.31
381.07	704.50
381.26	683.44
381.46	748.97
381.65	842.59
381.85	734.93
382.04	774.72
382.24	739.61
382.43	737.27
382.63	770.04
382.83	755.99
383.02	748.97
383.22	739.61
383.41	802.80
383.61	809.83
383.80	851.96
384.00	880.04
384.19	802.80
384.39	781.74
384.58	777.06
384.78	901.11
384.97	784.08
385.17	840.25
385.36	844.93
385.56	821.53
385.75	767.70
385.95	830.89
386.14	816.85
386.34	912.81
386.53	863.66
386.72	772.38
386.92	802.80
387.11	830.89
387.31	854.30
387.50	891.74
387.70	833.23
387.89	875.36
388.09	814.51
388.28	809.83
388.48	901.11
388.67	889.40
388.86	938.55
389.06	931.53
389.25	947.92
389.45	835.57
389.64	940.90
389.84	917.49
390.03	957.28
390.22	954.94
390.42	891.74
390.61	945.58
390.81	912.81
391.00	917.49
391.19	938.55
391.39	889.40
391.58	997.07
391.78	1025.15
391.97	980.68
392.16	887.06
392.36	1074.31
392.55	947.92
392.75	1067.28
392.94	961.96
393.13	985.37
393.33	997.07
393.52	936.21
393.71	1029.84
393.91	1102.39
394.10	1109.41
394.29	1053.24
394.49	1076.65
394.68	1104.73
394.88	1086.01
395.07	1086.01
395.26	1076.65
395.46	1217.08
395.65	1128.14
395.84	1090.69
396.04	1205.38
396.23	1139.84
396.42	1191.33
396.62	1261.55
396.81	1203.04
397.00	1188.99
397.19	1191.33
397.39	1200.69
397.58	1245.16
397.77	1151.54
397.97	1167.93
398.16	1242.82
398.35	1184.31
398.55	1170.27
398.74	1212.40
398.93	1287.29
399.12	1299.00
399.32	1214.74
399.51	1263.89
399.70	1153.88
399.90	1221.76
400.09	1254.53
400.28	1249.85
400.47	1296.66
400.67	1355.17
400.86	1380.92
401.05	1310.70
401.24	1432.41
401.44	1324.74
401.63	1383.26
401.82	1352.83
402.01	1341.13
402.21	1409.00
402.40	1427.73
402.59	1511.99
402.78	1439.43
402.97	1441.77
403.17	1488.58
403.36	1437.09
403.55	1441.77
403.74	1509.65
403.93	1516.67
404.13	1586.88
404.32	1554.12
404.51	1612.63
404.70	1584.54
404.89	1500.28
405.09	1563.48
405.28	1633.69
405.47	1589.22
405.66	1643.06
405.85	1603.27
406.05	1673.48
406.24	1631.35
406.43	1619.65
406.62	1626.67
406.81	1774.13
407.00	1720.29
407.20	1811.57
407.39	1795.19
407.58	1717.95
407.77	1802.21
407.96	1760.08
408.15	1802.21
408.34	1788.17
408.54	1839.66
408.73	1753.06
408.92	1799.87
409.11	1846.68
409.30	1799.87
409.49	1856.04
409.68	1937.96
409.87	1923.92
410.07	1839.66
410.26	1949.67
410.45	1886.47
410.64	2108.82
410.83	2031.58
411.02	2085.42
411.21	2092.44
411.40	2052.65
411.59	2139.25
411.78	2118.18
411.98	2160.31
412.17	2193.08
412.36	2218.83
412.55	2188.40
412.74	2190.74
412.93	2363.94
413.12	2216.49
413.31	2256.28
413.50	2265.64
413.69	2265.64
413.88	2487.99
414.07	2249.25
414.26	2382.67
414.45	2370.96
414.64	2399.05
414.83	2443.52
415.02	2539.48
415.22	2483.31
415.41	2464.58
415.60	2363.94
415.79	2511.39
415.98	2530.12
416.17	2581.61
416.36	2619.06
416.55	2672.89
416.74	2654.17
416.93	2677.57
417.12	2691.62
417.31	2754.81
417.50	2647.15
417.69	2729.06
417.88	2836.73
418.07	2754.81
418.26	2848.43
418.45	2818.00
418.64	2888.22
418.83	2848.43
419.02	2953.76
419.21	2932.69
419.39	2925.67
419.58	2909.29
419.77	2881.20
419.96	2993.55
420.15	2965.46
420.34	2949.08
420.53	2942.05
420.72	2967.80
420.91	3073.12
421.10	3096.53
421.29	3148.02
421.48	3002.91
421.67	3122.27
421.86	3112.91
422.05	3129.30
422.24	3225.26
422.43	3169.09
422.61	3148.02
422.80	3225.26
422.99	3197.17
423.18	3234.62
423.37	3293.13
423.56	3276.75
423.75	3269.73
423.94	3157.38
424.13	2981.84
424.32	3143.34
424.50	3262.71
424.69	3393.78
424.88	3344.63
425.07	3208.87
425.26	3255.69
425.45	3232.28
425.64	3178.45
425.83	3274.41
426.01	3274.41
426.20	3356.33
426.39	3269.73
426.58	3206.53
426.77	3248.66
426.96	3393.78
427.15	3372.71
427.33	3349.31
427.52	3405.48
427.71	3346.97
427.90	3410.16
428.09	3534.21
428.28	3499.10
428.46	3386.76
428.65	3585.70
428.84	3548.25
429.03	3548.25
429.22	3515.48
429.40	3508.46
429.59	3531.87
429.78	3438.25
429.97	3456.97
430.16	3543.57
430.34	3557.61
430.53	3707.41
430.72	3714.43
430.91	3592.72
431.10	3688.68
431.28	3740.18
431.47	3782.31
431.66	3901.67
431.85	3803.37
432.03	3843.16
432.22	3822.09
432.41	3845.50
432.60	3899.33
432.79	3864.22
432.97	3918.06
433.16	4049.13
433.35	3805.71
433.54	3882.95
433.72	3962.53
433.91	3866.56
434.10	4117.00
434.28	3936.78
434.47	4016.36
434.66	3925.08
434.85	4086.58
435.03	4182.54
435.22	4152.11
435.41	4231.69
435.59	4088.92
435.78	4224.67
435.97	4250.41
436.16	4168.49
436.34	4212.96
436.53	4238.71
436.72	4269.14
436.90	4219.99
437.09	4397.87
437.28	4147.43
437.46	4344.03
437.65	4259.78
437.84	4379.14
438.02	4369.78
438.21	4365.10
438.40	4344.03
438.58	4599.15
438.77	4568.73
438.96	4416.59
439.14	4634.26
439.33	4610.86
439.52	4739.58
439.70	4688.09
439.89	4758.31
440.08	4739.58
440.26	4870.65
440.45	4826.18
440.63	4835.55
440.82	4882.36
441.01	4905.76
441.19	4964.28
441.38	4954.91
441.57	5041.51
441.75	5088.32
441.94	5121.09
442.12	5160.88
442.31	5125.77
442.50	5137.48
442.68	5114.07
442.87	5160.88
443.05	5128.11
443.24	5151.52
443.43	5177.26
443.61	5181.95
443.80	5408.98
443.98	5203.01
444.17	5050.88
444.35	5088.32
444.54	5350.46
444.73	5448.77
444.91	5476.85
445.10	5434.72
445.28	5366.85
445.47	5261.52
445.65	5270.89
445.84	5444.09
446.02	5561.11
446.21	5446.43
446.39	5423.02
446.58	5394.93
446.77	5490.90
446.95	5408.98
447.14	5390.25
447.32	5563.45
447.51	5476.85
447.69	5418.34
447.88	5504.94
448.06	5514.30
448.25	5579.84
448.43	5584.52
448.62	5591.54
448.80	5518.98
448.99	5542.39
449.17	5558.77
449.36	5605.58
449.54	5619.63
449.73	5806.87
449.91	5879.43
450.10	5935.60
450.28	5689.84
450.46	5783.46
450.65	5722.61
450.83	5750.70
451.02	5827.93
451.20	5783.46
451.39	5809.21
451.57	5916.87
451.76	5802.19
451.94	5888.79
452.13	6008.16
452.31	6101.78
452.49	5827.93
452.68	6045.60
452.86	5916.87
453.05	5923.90
453.23	6279.66
453.42	6043.26
453.60	6008.16
453.78	6066.67
453.97	5935.60
454.15	6125.18
454.34	6242.21
454.52	6237.53
454.70	6129.86
454.89	6225.82
455.07	6209.44
455.26	6277.32
455.44	6384.98
455.62	6235.19
455.81	6260.93
455.99	6384.98
456.17	6494.99
456.36	6333.49
456.54	6354.55
456.73	6392.00
456.91	6738.40
457.09	6520.73
457.28	6729.04
457.46	6588.61
457.64	6626.06
457.83	6752.45
458.01	6497.33
458.19	6794.58
458.38	6579.25
458.56	6775.85
458.74	6843.73
458.93	6920.96
459.11	6944.37
459.29	6841.39
459.48	6904.58
459.66	6855.43
459.84	6895.22
460.03	7187.79
460.21	7005.22
460.39	6960.75
460.57	6801.60
460.76	6981.82
460.94	7049.69
461.12	7047.35
461.31	7124.59
461.49	7042.67
461.67	7148.00
461.85	7279.07
462.04	7211.19
462.22	7637.17
462.40	7325.88
462.59	7148.00
462.77	7365.67
462.95	7410.14
463.13	7328.22
463.32	7405.46
463.50	7566.95
463.68	7655.89
463.86	7581.00
464.05	7501.42
464.23	7372.69
464.41	7651.21
464.59	7470.99
464.78	7871.22
464.96	7698.02
465.14	7496.74
465.32	7749.51
465.50	7510.78
465.69	7730.79
465.87	7602.06
466.05	7838.45
466.23	7644.19
466.41	7911.01
466.60	7981.23
466.78	7868.88
466.96	7791.64
467.14	7709.72
467.32	7894.63
467.51	7847.82
467.69	7557.59
467.87	7730.79
468.05	8030.38
468.23	7698.02
468.41	7744.83
468.60	8131.02
468.78	7990.59
468.96	7768.24
469.14	7999.95
469.32	8191.88
469.50	7875.90
469.69	8339.33
469.87	8215.28
470.05	8098.25
470.23	8241.03
470.41	8428.27
470.59	8491.46
470.77	8294.86
470.95	8395.50
471.14	8592.11
471.32	8535.93
471.50	8617.85
471.68	8444.65
471.86	8568.70
472.04	8526.57
472.22	8943.19
472.40	8645.94
472.58	8884.67
472.77	8833.18
472.95	8786.37
473.13	8990.00
473.31	8856.59
473.49	8966.59
473.67	8884.67
473.85	9078.94
474.03	9167.88
474.21	9310.65
474.39	9233.41
474.57	9298.95
474.75	9460.45
474.93	9502.58
475.12	9430.02
475.30	9385.55
475.48	9357.46
475.66	9500.23
475.84	9497.89
476.02	9776.42
476.20	9689.82
476.38	9685.14
476.56	9954.30
476.74	9919.19
476.92	10061.96
477.10	10029.20
477.28	10134.52
477.46	10434.11
477.64	10033.88
477.82	10265.59
478.00	10668.16
478.18	10377.94
478.36	10860.09
478.54	10785.19
478.72	10710.29
478.90	10799.23
479.08	10970.09
479.26	11080.10
479.44	10930.30
479.62	11089.46
479.80	11400.75
479.98	11419.47
480.16	11438.20
480.34	11300.11
480.52	11597.35
480.70	11751.83
480.88	11461.60
481.06	11569.27
481.24	11604.38
481.41	11964.82
481.59	11983.54
481.77	12271.43
481.95	12189.51
482.13	12341.64
482.31	12184.83
482.49	12622.51
482.67	12458.67
482.85	12603.78
483.03	12884.65
483.21	12980.61
483.39	12877.63
483.57	12996.99
483.74	12985.29
483.92	13235.73
484.10	13107.00
484.28	13383.18
484.46	13647.66
484.64	13799.80
484.82	13638.30
485.00	13647.66
485.18	13963.64
485.35	14169.60
485.53	14349.82
485.71	14455.15
485.89	14345.14
486.07	14518.34
486.25	14562.81
486.43	14892.83
486.61	14836.66
486.78	15005.17
486.96	15403.07
487.14	15386.68
487.32	15335.19
487.50	15915.64
487.68	15372.64
487.85	15754.15
488.03	15967.13
488.21	16079.48
488.39	15873.51
488.57	16170.76
488.75	16086.50
488.92	16446.94
489.10	16634.19
489.28	16788.66
489.46	17057.82
489.64	16666.95
489.81	16971.22
489.99	17266.13
490.17	16922.07
490.35	17598.49
490.53	17731.90
490.70	17551.68
490.88	17207.62
491.06	17729.56
491.24	18057.23
491.41	18127.45
491.59	18003.40
491.77	18150.85
491.95	18242.14
492.13	18452.78
492.30	18642.37
492.48	18841.31
492.66	18757.05
492.84	19159.63
493.01	18883.44
493.19	19028.56
493.37	19150.26
493.54	19098.77
493.72	19262.61
493.90	19445.17
494.08	19728.38
494.25	19597.31
494.43	19981.15
494.61	19981.15
494.79	20224.57
494.96	20152.01
495.14	20060.73
495.32	20549.90
495.49	20622.46
495.67	20432.88
495.85	20585.01
496.02	20938.43
496.20	20847.15
496.38	20898.64
496.55	21181.85
496.73	21422.92
496.91	21422.92
497.09	21275.47
497.26	21352.71
497.44	21612.51
497.62	21741.24
497.79	22155.51
497.97	22061.89
498.14	22015.08
498.32	22387.22
498.50	22415.31
498.67	22724.26
498.85	22389.56
499.03	22696.17
499.20	22895.12
499.38	22721.92
499.56	23108.11
499.73	22764.05
499.91	23241.52
500.08	23236.84
500.26	23381.95
500.44	23538.77
500.61	23346.84
500.79	23498.98
500.97	23969.43
501.14	24011.56
501.32	23967.09
501.49	23915.59
501.67	23983.47
501.84	24086.45
502.02	24189.44
502.20	24353.27
502.37	24236.25
502.55	24393.06
502.72	24636.48
502.90	24252.63
503.07	24315.83
503.25	24783.93
503.43	24629.46
503.60	24596.69
503.78	25116.29
503.95	24830.74
504.13	24950.11
504.30	25373.75
504.48	25376.09
504.65	25223.95
504.83	25289.49
505.01	25907.39
505.18	25586.74
505.36	25993.99
505.53	25844.20
505.71	25727.17
505.88	26256.13
506.06	25738.87
506.23	26099.31
506.41	26263.15
506.58	26326.35
506.76	26508.91
506.93	26483.16
507.11	26389.54
507.28	26391.88
507.46	26738.28
507.63	26867.01
507.81	26717.22
507.98	26829.56
508.16	26906.80
508.33	26679.77
508.50	27161.92
508.68	27515.34
508.85	27482.57
509.03	27026.17
509.20	27353.84
509.38	27470.87
509.55	27800.88
509.73	27875.78
509.90	27779.82
510.08	27721.30
510.25	27960.04
510.42	28276.01
510.60	27716.62
510.77	28329.84
510.95	28428.15
511.12	28147.28
511.30	28203.46
511.47	28189.41
511.64	28395.38
511.82	28966.47
511.99	28467.94
512.17	28629.43
512.34	28669.22
512.51	29158.39
512.69	29039.03
512.86	29083.50
513.04	29252.02
513.21	29165.42
513.38	29127.97
513.56	29521.18
513.73	29532.88
513.90	29773.95
514.08	29329.25
514.25	29727.14
514.43	29771.61
514.60	29907.37
514.77	29694.38
514.95	29993.97
515.12	29790.34
515.29	29888.64
515.47	30108.65
515.64	30129.72
515.81	30122.69
515.99	30103.97
516.16	30504.20
516.33	30480.80
516.51	30618.89
516.68	30438.67
516.85	30654.00
517.03	30993.37
517.20	30801.45
517.37	30909.11
517.54	30948.90
517.72	31489.57
517.89	31433.39
518.06	30670.38
518.24	31388.92
518.41	31314.03
518.58	31283.60
518.75	31201.68
518.93	31189.98
519.10	31578.51
519.27	31594.89
519.45	31468.50
519.62	31978.74
519.79	31644.04
519.96	31768.09
520.14	31782.13
520.31	31929.59
520.48	32135.56
520.65	32292.37
520.83	32432.80
521.00	32650.47
521.17	32229.18
521.34	32191.73
521.52	32727.71
521.69	32933.68
521.86	32694.94
522.03	32598.98
522.20	32807.29
522.38	33467.32
522.55	32856.44
522.72	32999.21
522.89	33020.28
523.07	33422.85
523.24	32996.87
523.41	33228.59
523.58	33027.30
523.75	33645.20
523.92	33413.49
524.10	33596.05
524.27	33984.58
524.44	33958.83
524.61	33621.80
524.78	34031.39
524.96	33720.10
525.13	34316.93
525.30	34478.43
525.47	34218.63
525.64	34059.48
525.81	34239.70
525.98	34167.14
526.16	34326.30
526.33	34279.49
526.50	34761.64
526.67	34330.98
526.84	34792.06
527.01	34747.59
527.18	34759.30
527.36	34768.66
527.53	34387.15
527.70	35096.33
527.87	34684.40
528.04	34848.24
528.21	35154.85
528.38	34932.50
528.55	35248.47
528.72	35454.44
528.89	35367.84
529.07	34944.20
529.24	35147.82
529.41	35545.72
529.58	35264.85
529.75	35608.91
529.92	35386.56
530.09	35704.87
530.26	35756.36
530.43	35299.96
530.60	35761.05
530.77	35892.12
530.94	35463.80
531.11	35936.59
531.28	35564.44
531.46	36102.76
531.63	36439.80
531.80	36182.34
531.97	36002.12
532.14	36212.77
532.31	36322.77
532.48	36203.41
532.65	36830.67
532.82	36177.66
532.99	36458.52
533.16	36498.31
533.33	36505.34
533.50	37020.25
533.67	36776.84
533.84	36591.94
534.01	36617.68
534.18	36919.61
534.35	37153.66
534.52	36954.72
534.69	37179.41
534.86	37291.76
535.03	36676.19
535.20	37507.08
535.37	37329.20
535.54	37528.15
535.71	37015.57
535.88	37240.26
536.05	37298.78
536.22	37301.12
536.38	37897.95
536.55	37413.46
536.72	37560.92
536.89	37853.48
537.06	37621.77
537.23	38026.68
537.40	37607.73
537.57	37603.05
537.74	37738.80
537.91	38033.71
538.08	37546.87
538.25	37490.70
538.42	38040.73
538.59	38312.23
538.75	38019.66
538.92	38410.53
539.09	38766.29
539.26	38550.96
539.43	38380.10
539.60	38363.72
539.77	38230.31
539.94	38433.94
540.11	38885.66
540.28	38478.41
540.44	38569.69
540.61	38476.07
540.78	38630.54
540.95	38256.06
541.12	38265.42
541.29	38300.53
541.46	38787.36
541.62	38834.17
541.79	39180.57
541.96	38717.14
542.13	38831.83
542.30	38871.62
542.47	39164.18
542.63	39016.73
542.80	39489.52
542.97	39562.08
543.14	39538.67
543.31	39304.62
543.48	39725.91
543.64	39700.17
543.81	39651.02
543.98	39421.64
544.15	39606.55
544.32	39938.90
544.48	40339.13
544.65	40046.57
544.82	40053.59
544.99	39655.70
545.16	40439.78
545.32	39817.19
545.49	40414.03
545.66	39943.58
545.83	40320.41
546.00	40301.68
546.16	40219.77
546.33	40304.02
546.50	40378.92
546.67	40039.54
546.83	39962.31
547.00	40212.74
547.17	40360.20
547.34	40545.10
547.50	40421.05
547.67	40582.55
547.84	40556.80
548.00	40730.00
548.17	41184.07
548.34	40889.16
548.51	40776.81
548.67	40725.32
548.84	40889.16
549.01	40933.63
549.18	41214.49
549.34	41216.83
549.51	40896.18
549.68	41102.15
549.84	41364.29
550.01	41713.03
550.18	40842.35
550.34	40989.80
550.51	41429.82
550.68	41315.14
550.84	41053.00
551.01	41799.63
551.18	41642.81
551.34	41752.82
551.51	41483.66
551.68	41584.30
551.84	41706.01
552.01	41020.23
552.18	41453.23
552.34	41368.97
552.51	41436.84
552.68	41275.35
552.84	41287.05
553.01	41766.86
553.18	41865.16
553.34	41380.67
553.51	41684.94
553.67	41621.75
553.84	41956.44
554.01	42380.08
554.17	42019.64
554.34	42419.87
554.51	42150.71
554.67	42148.37
554.84	41846.44
555.00	42230.29
555.17	42220.92
555.33	42110.92
555.50	41869.84
555.67	42267.73
555.83	42288.80
556.00	42368.38
556.16	42635.20
556.33	42677.33
556.50	42373.06
556.66	42422.21
556.83	42450.30
556.99	42775.63
557.16	42806.06
557.32	42679.67
557.49	42452.64
557.65	42438.59
557.82	42789.67
557.98	42342.63
558.15	42529.87
558.32	42246.67
558.48	42684.35
558.65	42408.17
558.81	42918.40
558.98	42742.86
559.14	43447.36
559.31	42632.86
559.47	43264.80
559.64	43552.69
559.80	42735.84
559.97	43203.95
560.13	42740.52
560.30	43042.45
560.46	43002.66
560.63	43044.79
560.79	43260.12
560.96	43257.78
561.12	43313.95
561.29	43236.72
561.45	43391.19
561.61	43742.27
561.78	43201.61
561.94	43370.13
562.11	43220.33
562.27	43313.95
562.44	43454.39
562.60	43557.37
562.77	43655.67
562.93	43194.59
563.10	43440.34
563.26	43634.61
563.42	43711.84
563.59	43672.06
563.75	43487.15
563.92	43201.61
564.08	43653.33
564.24	43655.67
564.41	43292.89
564.57	43615.88
564.74	43871.00
564.90	43604.18
565.07	43159.48
565.23	43335.02
565.39	43531.62
565.56	43957.60
565.72	43505.88
565.88	43929.51
566.05	43878.02
566.21	43805.47
566.38	43805.47
566.54	44165.91
566.70	43885.04
566.87	43805.47
567.03	43674.40
567.19	44308.68
567.36	44114.42
567.52	43969.30
567.68	43922.49
567.85	43929.51
568.01	44259.53
568.17	43866.32
568.34	43955.26
568.50	43856.96
568.66	43753.97
568.83	44018.46
568.99	44025.48
569.15	44289.96
569.32	43821.85
569.48	44212.72
569.64	44329.75
569.81	44367.20
569.97	44240.81
570.13	44493.58
570.30	44100.37
570.46	43901.43
570.62	44004.41
570.78	44172.93
570.95	44285.28
571.11	44439.75
571.27	44446.77
571.43	44196.34
571.60	44175.27
571.76	44088.67
571.92	44479.54
572.09	44175.27
572.25	44327.41
572.41	44350.81
572.57	44556.78
572.74	44528.69
572.90	44545.08
573.06	44760.40
573.22	44369.54
573.38	44631.68
573.55	44116.76
573.71	44744.02
573.87	44964.03
574.03	44327.41
574.20	44687.85
574.36	44315.70
574.52	44636.36
574.68	44549.76
574.84	44788.49
575.01	44975.73
575.17	44334.43
575.33	44416.35
575.49	44463.16
575.65	44533.37
575.82	44715.93
575.98	44484.22
576.14	44737.00
576.30	44933.60
576.46	44612.95
576.62	44605.93
576.79	44388.26
576.95	43992.71
577.11	44261.87
577.27	44360.17
577.43	44098.03
577.59	44641.04
577.75	44364.85
577.92	44095.69
578.08	44170.59
578.24	44739.34
578.40	44879.77
578.56	44959.35
578.72	44837.64
578.88	44947.65
579.04	44556.78
579.21	44814.24
579.37	45001.48
579.53	44734.66
579.69	44882.11
579.85	44605.93
580.01	44737.00
580.17	44439.75
580.33	44832.96
580.49	44737.00
580.65	44573.16
580.82	44460.82
580.98	44535.71
581.14	44556.78
581.30	44521.67
581.46	44479.54
581.62	44542.74
581.78	44879.77
581.94	44704.23
582.10	44978.07
582.26	44842.32
582.42	44704.23
582.58	44772.11
582.74	45336.18
582.90	44453.79
583.06	44985.10
583.22	44626.99
583.38	44521.67
583.54	44411.67
583.70	45069.36
583.86	44573.16
584.02	44914.88
584.18	45092.76
584.34	44896.16
584.50	44949.99
584.66	45280.00
584.82	45057.65
584.98	45179.36
585.14	45048.29
585.30	44891.48
585.46	44758.06
585.62	45361.92
585.78	44938.29
585.94	44589.55
586.10	45216.81
586.26	44830.62
586.42	44442.09
586.58	44863.39
586.74	45010.84
586.90	44898.50
587.06	44971.05
587.22	44935.95
587.38	45029.57
587.54	44987.44
587.70	45177.02
587.86	44921.90
588.02	45408.73
588.18	45078.72
588.34	44711.25
588.49	45160.64
588.65	44992.12
588.81	44825.94
588.97	45294.05
589.13	45153.62
589.29	45294.05
589.45	45350.22
589.61	45359.58
589.77	45408.73
589.93	45179.36
590.08	45502.35
590.24	45682.58
590.40	45251.92
590.56	45123.19
590.72	45097.44
590.88	45111.49
591.04	45130.21
591.20	45301.07
591.35	45345.54
591.51	45743.43
591.67	45635.77
591.83	46110.89
591.99	45289.37
592.15	45823.01
592.31	45228.51
592.46	45284.68
592.62	45605.34
592.78	45537.46
592.94	45778.54
593.10	45731.73
593.26	45947.06
593.41	45804.28
593.57	45755.13
593.73	45738.75
593.89	45876.84
594.05	45808.96
594.20	45464.91
594.36	45375.97
594.52	45673.21
594.68	45556.19
594.84	45373.63
594.99	45937.69
595.15	45200.43
595.31	45764.49
595.47	45420.44
595.62	45413.41
595.78	45773.86
595.94	45642.79
596.10	45614.70
596.25	46045.36
596.41	46021.95
596.57	45881.52
596.73	45588.95
596.88	46169.41
597.04	45886.20
597.20	45649.81
597.36	45701.30
597.51	45593.64
597.67	45855.78
597.83	45457.88
597.99	46078.13
598.14	45640.45
598.30	45855.78
598.46	45750.45
598.61	46131.96
598.77	45808.96
598.93	46014.93
599.09	45801.94
599.24	46047.70
599.40	45654.49
599.56	45731.73
599.71	46199.83
599.87	46094.51
600.03	46007.91
600.18	45827.69
600.34	45666.19
600.50	45757.47
600.65	45961.10
600.81	46124.94
600.97	45797.26
601.12	46316.86
601.28	45921.31
601.44	46073.45
601.59	45598.32
601.75	45811.31
601.91	46270.05
602.06	45570.23
602.22	46094.51
602.37	45626.40
602.53	46014.93
602.69	46457.29
602.84	45698.96
603.00	45771.52
603.16	45897.91
603.31	45471.93
603.47	46073.45
603.62	45659.17
603.78	46167.07
603.94	45986.85
604.09	45977.48
604.25	45673.21
604.40	45940.04
604.56	45940.04
604.71	45839.39
604.87	45947.06
605.03	45464.91
605.18	45661.51
605.34	46185.79
605.49	45265.96
605.65	45851.09
605.80	45600.66
605.96	45567.89
606.12	45605.34
606.27	45731.73
606.43	45331.50
606.58	45968.12
606.74	45724.71
606.89	45759.81
607.05	45778.54
607.20	45652.15
607.36	45708.32
607.51	45584.27
607.67	45514.06
607.82	45492.99
607.98	45776.20
608.13	45935.35
608.29	45621.72
608.44	45614.70
608.60	45823.01
608.75	45811.31
608.91	45818.33
609.06	45006.16
609.22	45336.18
609.37	45549.17
609.53	45799.60
609.68	45642.79
609.84	45125.53
609.99	45570.23
610.15	45743.43
610.30	45406.39
610.46	45546.82
610.61	45500.01
610.76	45497.67
610.92	45165.32
611.07	45722.37
611.23	45048.29
611.38	45425.12
611.54	45443.84
611.69	45411.07
611.84	45102.12
612.00	45221.49
612.15	45193.40
612.31	45425.12
612.46	44809.56
612.62	45415.76
612.77	45031.91
612.92	45661.51
613.08	45020.20
613.23	45390.01
613.39	45263.62
613.54	45673.21
613.69	45387.67
613.85	45207.45
614.00	45256.60
614.15	45289.37
614.31	44816.58
614.46	44921.90
614.62	45186.38
614.77	45146.59
614.92	44868.07
615.08	44994.46
615.23	44746.36
615.38	45460.23
615.54	45099.78
615.69	45144.25
615.84	45130.21
616.00	45158.30
616.15	45008.50
616.30	44774.45
616.46	45179.36
616.61	44903.18
616.76	44947.65
616.92	44734.66
617.07	45071.70
617.22	44821.26
617.37	44664.44
617.53	44907.86
617.68	44631.68
617.83	44624.65
617.99	45308.09
618.14	45226.17
618.29	44940.63
618.45	44877.43
618.60	44645.72
618.75	44460.82
618.90	44596.57
619.06	44540.39
619.21	44722.96
619.36	44954.67
619.51	44280.60
619.67	44271.23
619.82	44584.86
619.97	44722.96
620.12	44374.22
620.28	44879.77
620.43	44889.13
620.58	44395.28
620.73	44273.57
620.89	44790.83
621.04	44776.79
621.19	44725.30
621.34	44456.14
621.49	44346.13
621.65	44353.15
621.80	44643.38
621.95	44362.51
622.10	44292.30
622.25	44219.74
622.41	44519.33
622.56	43957.60
622.71	44224.42
622.86	44179.95
623.01	44402.30
623.16	44151.87
623.32	44226.76
623.47	44332.09
623.62	44243.15
623.77	44385.92
623.92	44315.70
624.07	43999.73
624.23	44322.72
624.38	43768.02
624.53	44432.73
624.68	43423.96
624.83	43938.88
624.98	43681.42
625.13	43723.55
625.29	43871.00
625.44	43793.76
625.59	44301.66
625.74	43831.21
625.89	43304.59
626.04	43454.39
626.19	43880.36
626.34	43686.10
626.49	43323.32
626.65	42918.40
626.80	43597.16
626.95	42787.33
627.10	43473.11
627.25	43875.68
627.40	43241.40
627.55	43707.16
627.70	43447.36
627.85	43452.05
628.00	43491.83
628.15	43540.99
628.30	42658.60
628.45	42850.53
628.60	42965.21
628.76	43241.40
628.91	43019.05
629.06	43330.34
629.21	43115.01
629.36	43285.87
629.51	43117.35
629.66	43227.35
629.81	42995.64
629.96	43435.66
630.11	42911.38
630.26	43194.59
630.41	43379.49
630.56	42923.08
630.71	42972.24
630.86	42897.34
631.01	42588.39
631.16	42686.69
631.31	42574.34
631.46	42777.97
631.61	43056.50
631.76	43065.86
631.91	42581.37
632.06	43098.62
632.21	42815.42
632.36	43049.47
632.51	42387.10
632.66	42527.53
632.81	42621.16
632.96	42574.34
633.10	42536.90
633.25	42745.20
633.40	42710.10
633.55	42366.04
633.70	42583.71
633.85	42169.43
634.00	42234.97
634.15	42192.84
634.30	41989.21
634.45	41993.89
634.60	42185.82
634.75	42026.66
634.90	42141.35
635.05	42237.31
635.19	42082.83
635.34	42646.90
635.49	42153.05
635.64	42527.53
635.79	42223.26
635.94	42232.63
636.09	42333.27
636.24	42256.03
636.39	42234.97
636.53	42466.68
636.68	41741.11
636.83	41570.25
636.98	41652.17
637.13	41713.03
637.28	41652.17
637.43	41439.18
637.57	41918.99
637.72	41507.06
637.87	41771.54
638.02	41617.07
638.17	41722.39
638.32	41626.43
638.46	41486.00
638.61	41368.97
638.76	41343.22
638.91	41823.03
639.06	41219.17
639.20	41436.84
639.35	41436.84
639.50	41357.27
639.65	41453.23
639.80	41359.61
639.94	41523.44
640.09	41462.59
640.24	41713.03
640.39	41130.23
640.54	40868.09
640.68	41593.66
640.83	41120.87
640.98	41284.71
641.13	40992.14
641.27	41202.79
641.42	41001.50
641.57	41099.81
641.72	41397.06
641.86	40954.69
642.01	41308.11
642.16	40896.18
642.31	40566.16
642.45	40790.86
642.60	40734.68
642.75	41249.60
642.90	41099.81
643.04	40891.50
643.19	40945.33
643.34	40528.72
643.48	40701.92
643.63	40561.48
643.78	40554.46
643.93	41083.42
644.07	40622.34
644.22	40790.86
644.37	40893.84
644.51	41158.32
644.66	41074.06
644.81	40643.40
644.95	41027.25
645.10	40732.34
645.25	40622.34
645.39	40016.14
645.54	40374.24
645.69	40208.06
645.83	39864.00
645.98	40156.57
646.13	39948.26
646.27	39974.01
646.42	40280.62
646.57	40570.85
646.71	40421.05
646.86	40715.96
647.00	40091.04
647.15	40589.57
647.30	39934.22
647.44	40355.52
647.59	40179.98
647.74	40336.79
647.88	40245.51
648.03	40577.87
648.17	40519.35
648.32	40264.24
648.47	40271.26
648.61	39842.94
648.76	40011.46
648.90	39840.60
649.05	39718.89
649.20	39676.76
649.34	40212.74
649.49	39985.71
649.63	39875.71
649.78	39791.45
649.92	39978.69
650.07	40313.39
650.21	39632.29
650.36	39959.97
650.51	40034.86
650.65	40032.52
650.80	39709.53
650.94	39768.04
651.09	39765.70
651.23	39772.72
651.38	39377.17
651.52	38911.41
651.67	39587.82
651.81	39564.42
651.96	39363.13
652.10	39587.82
652.25	39070.56
652.39	39782.09
652.54	39491.86
652.68	39241.42
652.83	39426.32
652.97	39372.49
653.12	39391.22
653.26	39454.41
653.41	39075.24
653.55	39079.92
653.70	39423.98
653.84	39323.34
653.99	39571.44
654.13	39086.95
654.27	38815.44
654.42	39086.95
654.56	38817.78
654.71	38799.06
654.85	39161.84
655.00	38689.06
655.14	39377.17
655.29	38986.30
655.43	39250.78
655.57	38483.09
655.72	38724.16
655.86	38593.09
656.01	38457.34
656.15	38464.36
656.30	38955.88
656.44	38782.68
656.58	38623.52
656.73	38539.26
656.87	38700.76
657.01	38663.31
657.16	38731.18
657.30	39119.71
657.45	38625.86
657.59	38429.26
657.73	38279.46
657.88	38216.27
658.02	38319.25
658.16	38906.73
658.31	38625.86
658.45	38974.60
658.60	38492.45
658.74	38618.84
658.88	37996.26
659.03	38164.78
659.17	38017.32
659.31	38246.69
659.46	37642.84
659.60	38146.05
659.74	38244.35
659.89	37930.72
660.03	37509.43
660.17	37642.84
660.32	37862.85
660.46	37935.40
660.60	37488.36
660.74	37776.25
660.89	37876.89
661.03	37329.20
661.17	37083.45
661.32	36886.84
661.46	37294.10
661.60	37256.65
661.74	37577.30
661.89	37640.50
662.03	37586.66
662.17	37050.68
662.31	37172.39
662.46	37064.72
662.60	37123.24
662.74	36713.64
662.88	36769.82
663.03	36641.09
663.17	36868.12
663.31	36465.55
663.45	36645.77
663.60	36863.44
663.74	36790.88
663.88	36858.76
664.02	36313.41
664.17	36769.82
664.31	36182.34
664.45	35901.48
664.59	36238.51
664.73	35866.37
664.88	36018.50
665.02	36032.55
665.16	36268.94
665.30	36128.51
665.44	35828.92
665.59	35871.05
665.73	36074.68
665.87	35328.05
666.01	35878.07
666.15	35997.44
666.29	35555.08
666.44	35627.63
666.58	35576.14
666.72	35634.66
666.86	35466.14
667.00	35538.69
667.14	35335.07
667.28	34991.01
667.43	35412.31
667.57	35433.37
667.71	35489.54
667.85	35512.95
667.99	35288.26
668.13	34850.58
668.27	34967.60
668.41	34820.15
668.56	34354.38
668.70	34953.56
668.84	34653.97
668.98	34534.60
669.12	34703.12
669.26	34349.70
669.40	34719.51
669.54	34328.64
669.68	34410.56
669.82	34291.19
669.96	33467.32
670.10	34174.16
670.25	33916.70
670.39	34103.95
670.53	33933.09
670.67	34256.08
670.81	34038.41
670.95	34106.29
671.09	33783.29
671.23	33649.88
671.37	33640.52
671.51	33666.27
671.65	33294.12
671.79	33373.70
671.93	33652.22
672.07	33799.68
672.21	33392.42
672.35	33036.66
672.49	33127.94
672.63	33322.21
672.77	32952.40
672.91	33315.19
673.05	32669.20
673.19	32858.78
673.33	32531.11
673.47	32882.19
673.61	32737.07
673.75	32547.49
673.89	32395.35
674.03	32170.66
674.17	31997.46
674.31	31915.54
674.45	32051.30
674.59	31639.36
674.73	31583.19
674.87	31587.87
675.01	31660.43
675.15	31435.74
675.29	31747.03
675.43	31517.65
675.56	31515.31
675.70	31353.82
675.84	31281.26
675.98	30745.28
676.12	30897.41
676.26	31386.58
676.40	31056.57
676.54	30792.09
676.68	30740.60
676.82	30377.81
676.96	30862.30
677.10	30705.49
677.23	30473.78
677.37	30731.23
677.51	30326.32
677.65	30253.76
677.79	30120.35
677.93	30089.93
678.07	30183.55
678.21	29811.40
678.34	29614.80
678.48	29179.46
678.62	29476.71
678.76	29296.49
678.90	29603.10
679.04	29280.10
679.18	29535.22
679.31	28865.83
679.45	28730.08
679.59	28950.09
679.73	28697.31
679.87	28842.42
680.00	28776.89
680.14	28753.48
680.28	28210.48
680.42	28360.27
680.56	28070.04
680.70	28037.28
680.83	27852.38
680.97	27744.71
681.11	28191.75
681.25	27838.33
681.39	27311.71
681.52	27686.20
681.66	27206.39
681.80	27023.83
681.94	27243.84
682.07	26822.54
682.21	27175.96
682.35	27056.59
682.49	26810.84
682.62	27051.91
682.76	27328.10
682.90	26890.41
683.04	26745.30
683.17	26700.83
683.31	26497.20
683.45	26188.25
683.59	25736.53
683.72	25832.49
683.86	26071.23
684.00	25750.57
684.13	25907.39
684.27	25837.17
684.41	25406.52
684.55	25949.52
684.68	25191.19
684.82	25497.80
684.96	25216.93
685.09	25282.47
685.23	25158.42
685.37	25663.97
685.50	25287.15
685.64	25139.69
685.78	24975.86
685.91	24666.91
686.05	24603.71
686.19	24325.19
686.32	24460.94
686.46	23840.70
686.60	23875.80
686.73	23995.17
686.87	23770.48
687.01	24463.28
687.14	23962.40
687.28	23882.83
687.42	23922.62
687.55	23466.21
687.69	23728.35
687.82	23332.80
687.96	23138.54
688.10	23477.91
688.23	23477.91
688.37	23693.24
688.50	23510.68
688.64	22874.06
688.78	23084.70
688.91	22953.63
689.05	22649.36
689.18	22382.54
689.32	22574.47
689.46	22246.79
689.59	22459.78
689.73	22579.15
689.86	22766.39
690.00	22307.65
690.13	22235.09
690.27	21757.62
690.41	21994.01
690.54	21563.36
690.68	21553.99
690.81	21537.61
690.95	21504.84
691.08	21556.33
691.22	21425.26
691.35	20994.61
691.49	21570.38
691.62	21348.03
691.76	20723.10
691.89	20732.47
692.03	20439.90
692.16	20643.52
692.30	20709.06
692.43	20444.58
692.57	20306.49
692.70	20243.29
692.84	20119.24
692.97	20016.26
693.11	19934.34
693.24	19531.77
693.38	19775.19
693.51	19824.34
693.65	19648.80
693.78	19363.25
693.92	19356.23
694.05	19417.08
694.19	19337.51
694.32	19328.14
694.45	19508.37
694.59	19573.90
694.72	19386.66
694.86	19166.65
694.99	18972.38
695.13	18768.76
695.26	18391.93
695.39	18408.31
695.53	18628.32
695.66	18644.71
695.80	18532.36
695.93	18443.42
696.07	18246.82
696.20	18118.09
696.33	17556.36
696.47	17804.46
696.60	17823.18
696.73	17715.51
696.87	17877.01
697.00	17759.98
697.14	17652.32
697.27	17268.47
697.40	17778.71
697.54	17509.55
697.67	17394.86
697.80	17214.64
697.94	17228.68
698.07	17036.76
698.21	17165.49
698.34	17001.65
698.47	16690.36
698.61	16573.33
698.74	16472.69
698.87	16285.45
699.01	16365.03
699.14	16362.69
699.27	16358.00
699.40	16460.99
699.54	16325.24
699.67	16273.74
699.80	16255.02
699.94	16114.59
700.07	15922.66
700.20	15838.41
700.34	15468.60
700.47	15730.74
700.60	15999.90
700.73	15681.59
700.87	15187.74
701.00	15407.75
701.13	15119.86
701.26	15105.82
701.40	15131.56
701.53	15040.28
701.66	15215.82
701.79	15157.31
701.93	14817.93
702.06	14684.52
702.19	14520.68
702.32	14764.10
702.46	14635.37
702.59	14501.96
702.72	14787.50
702.85	14448.13
702.99	14249.18
703.12	14237.48
703.25	13933.21
703.38	14108.75
703.51	14214.07
703.65	13968.32
703.78	13750.65
703.91	13642.98
704.04	13336.37
704.17	13710.86
704.31	13811.50
704.44	13827.88
704.57	13694.47
704.70	13549.36
704.83	13233.39
704.96	13200.62
705.10	13163.17
705.23	13104.66
>>>>>End Processed Spectral Data<<<<<
