SpectraSuite Data File
++++++++++++++++++++++++++++++++++++
Date: Fri Oct 25 10:48:20 EDT 2013
User: price-jones
Dark Spectrum Present: No
Reference Spectrum Present: No
Number of Sampled Component Spectra: 1
Spectrometers: USB2+H05261
Integration Time (usec): 100000 (USB2+H05261)
Spectra Averaged: 1 (USB2+H05261)
Boxcar Smoothing: 0 (USB2+H05261)
Correct for Electrical Dark: No (USB2+H05261)
Strobe/Lamp Enabled: No (USB2+H05261)
Correct for Detector Non-linearity: No (USB2+H05261)
Correct for Stray Light: No (USB2+H05261)
Number of Pixels in Processed Spectrum: 2048
>>>>>Begin Processed Spectral Data<<<<<
365.73	145.11
365.92	145.11
366.12	145.11
366.32	28.09
366.52	58.51
366.72	79.58
366.91	72.56
367.11	84.26
367.31	91.28
367.51	21.06
367.70	53.83
367.90	0.00
368.10	32.77
368.30	18.72
368.49	14.04
368.69	77.24
368.89	58.51
369.09	81.92
369.28	95.96
369.48	81.92
369.68	135.75
369.87	81.92
370.07	119.37
370.27	147.45
370.47	299.59
370.66	440.02
370.86	395.55
371.06	472.79
371.25	547.69
371.45	489.17
371.65	458.74
371.84	535.98
372.04	388.53
372.24	559.39
372.44	559.39
372.63	554.71
372.83	545.34
373.03	554.71
373.22	482.15
373.42	547.69
373.62	552.37
373.81	526.62
374.01	592.16
374.21	606.20
374.40	624.92
374.60	664.71
374.79	543.00
374.99	676.41
375.19	631.94
375.38	692.80
375.58	704.50
375.78	617.90
375.97	641.31
376.17	711.52
376.37	662.37
376.56	631.94
376.76	697.48
376.95	617.90
377.15	678.76
377.35	727.91
377.54	727.91
377.74	645.99
377.93	662.37
378.13	727.91
378.33	713.86
378.52	615.56
378.72	692.80
378.91	695.14
379.11	711.52
379.31	664.71
379.50	655.35
379.70	699.82
379.89	770.04
380.09	746.63
380.28	727.91
380.48	753.65
380.68	695.14
380.87	746.63
381.07	765.36
381.26	795.78
381.46	631.94
381.65	720.88
381.85	840.25
382.04	734.93
382.24	751.31
382.43	725.57
382.63	746.63
382.83	786.42
383.02	732.59
383.22	781.74
383.41	765.36
383.61	737.27
383.80	847.27
384.00	795.78
384.19	720.88
384.39	854.30
384.58	788.76
384.78	901.11
384.97	898.77
385.17	863.66
385.36	842.59
385.56	798.12
385.75	863.66
385.95	896.43
386.14	826.21
386.34	903.45
386.53	837.91
386.72	870.68
386.92	1011.11
387.11	987.71
387.31	1001.75
387.50	894.08
387.70	891.74
387.89	896.43
388.09	950.26
388.28	929.19
388.48	917.49
388.67	1062.60
388.86	1055.58
389.06	973.66
389.25	1041.54
389.45	987.71
389.64	1043.88
389.84	1022.81
390.03	1116.44
390.22	1029.84
390.42	1029.84
390.61	1104.73
390.81	1071.97
391.00	1062.60
391.19	1123.46
391.39	1076.65
391.58	1144.52
391.78	1076.65
391.97	1144.52
392.16	1069.62
392.36	1139.84
392.55	1095.37
392.75	1043.88
392.94	1036.86
393.13	997.07
393.33	990.05
393.52	1135.16
393.71	1149.20
393.91	1167.93
394.10	1212.40
394.29	1210.06
394.49	1188.99
394.68	1299.00
394.88	1268.57
395.07	1303.68
395.26	1287.29
395.46	1350.49
395.65	1306.02
395.84	1256.87
396.04	1240.48
396.23	1296.66
396.42	1256.87
396.62	1268.57
396.81	1350.49
397.00	1341.13
397.19	1266.23
397.39	1371.55
397.58	1483.90
397.77	1434.75
397.97	1495.60
398.16	1479.22
398.35	1603.27
398.55	1497.94
398.74	1533.05
398.93	1626.67
399.12	1561.14
399.32	1549.43
399.51	1673.48
399.70	1671.14
399.90	1654.76
400.09	1654.76
400.28	1743.70
400.47	1767.10
400.67	1764.76
400.86	1654.76
401.05	1818.60
401.24	1804.55
401.44	1844.34
401.63	1825.62
401.82	1710.93
402.01	1699.23
402.21	1832.64
402.40	1858.39
402.59	1867.75
402.78	1867.75
402.97	1816.26
403.17	1806.89
403.36	1839.66
403.55	1900.52
403.74	1921.58
403.93	2003.50
404.13	1891.15
404.32	1884.13
404.51	1989.46
404.70	2024.56
404.89	1926.26
405.09	2043.29
405.28	2106.48
405.47	2033.93
405.66	2183.72
405.85	2172.02
406.05	2015.20
406.24	2155.63
406.43	2078.40
406.62	2155.63
406.81	2312.45
407.00	2223.51
407.20	2092.44
407.39	2099.46
407.58	2202.44
407.77	2256.28
407.96	2305.43
408.15	2270.32
408.34	2326.49
408.54	2349.90
408.73	2368.62
408.92	2448.20
409.11	2359.26
409.30	2340.54
409.49	2424.80
409.68	2342.88
409.87	2373.30
410.07	2345.22
410.26	2450.54
410.45	2438.84
410.64	2525.44
410.83	2567.57
411.02	2691.62
411.21	2696.30
411.40	2717.36
411.59	2679.91
411.78	2754.81
411.98	2766.51
412.17	2754.81
412.36	2818.00
412.55	2923.33
412.74	2841.41
412.93	2717.36
413.12	2827.37
413.31	2892.90
413.50	2916.31
413.69	2918.65
413.88	3019.29
414.07	3035.67
414.26	3056.74
414.45	3108.23
414.64	3047.38
414.83	3035.67
415.02	3183.13
415.22	3325.90
415.41	3218.24
415.60	3288.45
415.79	3307.18
415.98	3307.18
416.17	3396.12
416.36	3438.25
416.55	3396.12
416.74	3351.65
416.93	3417.18
417.12	3538.89
417.31	3377.39
417.50	3433.57
417.69	3583.36
417.88	3520.17
418.07	3541.23
418.26	3545.91
418.45	3655.92
418.64	3723.79
418.83	3747.20
419.02	3751.88
419.21	3721.45
419.39	3726.13
419.58	3639.53
419.77	3606.77
419.96	3646.55
420.15	3906.35
420.34	3758.90
420.53	3904.01
420.72	4081.89
420.91	3908.69
421.10	3967.21
421.29	4105.30
421.48	3962.53
421.67	3913.38
421.86	3770.60
422.05	3922.74
422.24	3929.76
422.43	3971.89
422.61	3932.10
422.80	4018.70
422.99	3946.14
423.18	3988.27
423.37	4126.36
423.56	3999.98
423.75	4084.23
423.94	4131.05
424.13	3829.12
424.32	3946.14
424.50	4100.62
424.69	4250.41
424.88	4145.09
425.07	4018.70
425.26	4107.64
425.45	4135.73
425.64	4060.83
425.83	4016.36
426.01	4170.83
426.20	4046.79
426.39	4135.73
426.58	4053.81
426.77	4053.81
426.96	4131.05
427.15	4042.11
427.33	4149.77
427.52	4072.53
427.71	4252.75
427.90	4250.41
428.09	4231.69
428.28	4407.23
428.46	4325.31
428.65	4332.33
428.84	4447.02
429.03	4402.55
429.22	4269.14
429.40	4376.80
429.59	4224.67
429.78	4072.53
429.97	3976.57
430.16	4227.01
430.34	4189.56
430.53	4231.69
430.72	4234.03
430.91	4440.00
431.10	4461.06
431.28	4550.00
431.47	4835.55
431.66	4723.20
431.85	4681.07
432.03	4830.87
432.22	4762.99
432.41	4741.93
432.60	4868.31
432.79	4908.10
432.97	4851.93
433.16	4821.50
433.35	4744.27
433.54	4723.20
433.72	4793.42
433.91	4844.91
434.10	5018.11
434.28	4905.76
434.47	5078.96
434.66	5006.41
434.85	5123.43
435.03	5071.94
435.22	5210.03
435.41	5263.86
435.59	5245.14
435.78	5371.53
435.97	5408.98
436.16	5350.46
436.34	5408.98
436.53	5401.96
436.72	5526.00
436.90	5235.78
437.09	5373.87
437.28	5275.57
437.46	5380.89
437.65	5589.20
437.84	5521.32
438.02	5462.81
438.21	5296.63
438.40	5348.12
438.58	5624.31
438.77	5521.32
438.96	5703.89
439.14	5671.12
439.33	5771.76
439.52	5774.10
439.70	5685.16
439.89	5776.44
440.08	5827.93
440.26	5942.62
440.45	5863.04
440.63	6183.70
440.82	6143.91
441.01	6015.18
441.19	6249.23
441.38	6256.25
441.57	6284.34
441.75	6473.92
441.94	6448.18
442.12	6469.24
442.31	6642.44
442.50	6509.03
442.68	6600.31
442.87	6534.78
443.05	6532.44
443.24	6794.58
443.43	6775.85
443.61	6757.13
443.80	6857.77
443.98	6600.31
444.17	6382.64
444.35	6640.10
444.54	6724.36
444.73	6876.49
444.91	6810.96
445.10	6691.59
445.28	6619.04
445.47	6649.46
445.65	6654.14
445.84	6658.82
446.02	6888.20
446.21	6857.77
446.39	6848.41
446.58	6946.71
446.77	6890.54
446.95	6782.87
447.14	7047.35
447.32	7122.25
447.51	6883.52
447.69	6984.16
447.88	6951.39
448.06	6923.30
448.25	7089.48
448.43	7000.54
448.62	7012.24
448.80	7098.84
448.99	7162.04
449.17	7136.29
449.36	7159.70
449.54	7384.39
449.73	7265.02
449.91	7243.96
450.10	7346.94
450.28	7389.07
450.46	7391.41
450.65	7590.36
450.83	7435.88
451.02	7541.21
451.20	7616.10
451.39	7552.91
451.57	7456.95
451.76	7269.70
451.94	7524.82
452.13	7459.29
452.31	7353.96
452.49	7344.60
452.68	7468.65
452.86	7501.42
453.05	7620.78
453.23	7784.62
453.42	7522.48
453.60	7712.07
453.78	7709.72
453.97	7728.45
454.15	7761.22
454.34	7461.63
454.52	7751.85
454.70	7693.34
454.89	7880.58
455.07	7758.88
455.26	8039.74
455.44	7934.42
455.62	8056.12
455.81	8079.53
455.99	8140.38
456.17	7999.95
456.36	8198.90
456.54	8194.22
456.73	8177.83
456.91	8678.71
457.09	8517.21
457.28	8547.64
457.46	8292.52
457.64	8461.04
457.83	8402.52
458.01	8184.85
458.19	8587.43
458.38	8479.76
458.56	8545.30
458.74	8507.85
458.93	8489.12
459.11	8421.25
459.29	8727.86
459.48	8622.53
459.66	8624.87
459.84	8704.45
460.03	8908.08
460.21	8884.67
460.39	8718.50
460.57	8674.03
460.76	8961.91
460.94	8952.55
461.12	9078.94
461.31	9034.47
461.49	8966.59
461.67	8854.25
461.85	9102.34
462.04	9083.62
462.22	9748.33
462.40	9071.92
462.59	9153.84
462.77	9233.41
462.95	9128.09
463.13	9184.26
463.32	9315.33
463.50	9423.00
463.68	9324.69
463.86	9441.72
464.05	9069.58
464.23	9289.59
464.41	9291.93
464.59	9146.81
464.78	9458.10
464.96	9415.98
465.14	9472.15
465.32	9270.86
465.50	9703.86
465.69	9685.14
465.87	9582.15
466.05	9556.41
466.23	9533.00
466.41	9476.83
466.60	9776.42
466.78	9359.80
466.96	9462.79
467.14	9825.57
467.32	9863.02
467.51	9989.41
467.69	9554.07
467.87	9877.06
468.05	9989.41
468.23	9809.19
468.41	9839.61
468.60	9891.10
468.78	9996.43
468.96	9764.72
469.14	9914.51
469.32	10289.00
469.50	9844.29
469.69	10106.43
469.87	10064.30
470.05	10045.58
470.23	10094.73
470.41	9951.96
470.59	10066.64
470.77	10277.29
470.95	10228.14
471.14	10530.07
471.32	10141.54
471.50	10736.04
471.68	10637.73
471.86	10785.19
472.04	10832.00
472.22	10958.39
472.40	10626.03
472.58	10883.49
472.77	10759.44
472.95	11061.37
473.13	11358.62
473.31	10799.23
473.49	10789.87
473.67	11094.14
473.85	11059.03
474.03	11344.58
474.21	11283.72
474.39	11225.21
474.57	11676.93
474.75	11503.73
474.93	11367.98
475.12	11719.06
475.30	11695.66
475.48	11557.57
475.66	11796.30
475.84	11756.51
476.02	11676.93
476.20	11798.64
476.38	12109.93
476.56	12222.28
476.74	12070.14
476.92	12283.13
477.10	12259.73
477.28	12297.17
477.46	12432.93
477.64	12671.66
477.82	12821.45
478.00	12999.34
478.18	12919.76
478.36	12910.40
478.54	12961.89
478.72	13123.38
478.90	13247.43
479.08	13575.11
479.26	13633.62
479.44	13607.87
479.62	13839.59
479.80	13736.60
479.98	13736.60
480.16	14279.61
480.34	14040.87
480.52	14122.79
480.70	14244.50
480.88	14265.57
481.06	14508.98
481.24	14532.39
481.41	14757.08
481.59	14714.95
481.77	15080.07
481.95	15066.03
482.13	15234.55
482.31	14949.00
482.49	15241.57
482.67	15337.53
482.85	15655.84
483.03	15681.59
483.21	15667.55
483.39	15854.79
483.57	15662.86
483.74	16030.33
483.92	16145.02
484.10	15948.41
484.28	16482.05
484.46	16596.74
484.64	16690.36
484.82	16397.79
485.00	16875.26
485.18	16833.13
485.35	16917.39
485.53	16524.18
485.71	16772.28
485.89	16915.05
486.07	16828.45
486.25	17018.04
486.43	17216.98
486.61	17589.13
486.78	17722.54
486.96	17940.21
487.14	18211.71
487.32	18253.84
487.50	18370.86
487.68	18579.17
487.85	19117.50
488.03	18885.78
488.21	19396.02
488.39	18775.78
488.57	19501.34
488.75	19119.84
488.92	19517.73
489.10	19737.74
489.28	20100.52
489.46	20542.88
489.64	20388.41
489.81	20870.56
489.99	20641.18
490.17	21010.99
490.35	21378.45
490.53	20837.79
490.70	21130.36
490.88	21088.23
491.06	21432.29
491.24	21752.94
491.41	21563.36
491.59	21338.66
491.77	21336.32
491.95	21886.35
492.13	22029.12
492.30	22391.91
492.48	22654.05
492.66	22661.07
492.84	22188.28
493.01	22476.16
493.19	22869.37
493.37	23166.62
493.54	23131.51
493.72	23398.34
493.90	23391.31
494.08	23999.85
494.25	23796.23
494.43	23983.47
494.61	24084.11
494.79	24067.73
494.96	24041.98
495.14	24205.82
495.32	24306.46
495.49	24666.91
495.67	24774.57
495.85	24795.64
496.02	25212.25
496.20	24968.84
496.38	25130.33
496.55	25104.59
496.73	25806.75
496.91	25415.88
497.09	25954.20
497.26	25809.09
497.44	25771.64
497.62	25827.81
497.79	25750.57
497.97	26024.42
498.14	26415.29
498.32	26181.23
498.50	26405.92
498.67	26471.46
498.85	26834.24
499.03	26909.14
499.20	27082.34
499.38	27047.23
499.56	27157.24
499.73	27185.32
499.91	27311.71
500.08	27428.74
500.26	27180.64
500.44	27683.86
500.61	27608.96
500.79	27339.80
500.97	27805.56
501.14	28290.06
501.32	27751.73
501.49	27990.47
501.67	28332.18
501.84	28336.87
502.02	28238.56
502.20	28540.49
502.37	28947.75
502.55	28584.96
502.72	28751.14
502.90	29247.33
503.07	28802.63
503.25	29130.31
503.43	28945.41
503.60	29106.90
503.78	28582.62
503.95	29200.52
504.13	29401.81
504.30	29682.67
504.48	29434.58
504.65	29942.47
504.83	29986.94
505.01	30068.86
505.18	29926.09
505.36	30593.14
505.53	30485.48
505.71	30448.03
505.88	30785.07
506.06	30469.09
506.23	30572.08
506.41	30195.25
506.58	30658.68
506.76	31075.29
506.93	30618.89
507.11	31044.87
507.28	31063.59
507.46	31082.31
507.63	30625.91
507.81	31615.96
507.98	31051.89
508.16	31267.22
508.33	31426.37
508.50	31791.50
508.68	31489.57
508.85	32198.75
509.03	32362.59
509.20	32144.92
509.38	32140.24
509.55	32339.18
509.73	31868.73
509.90	32533.45
510.08	32685.58
510.25	32257.26
510.42	32217.47
510.60	32720.69
510.77	32673.88
510.95	32940.70
511.12	33022.62
511.30	32720.69
511.47	33523.49
511.64	33373.70
511.82	33132.62
511.99	33165.39
512.17	33460.30
512.34	33081.13
512.51	33415.83
512.69	33411.15
512.86	33544.56
513.04	33734.14
513.21	34164.80
513.38	33490.73
513.56	33783.29
513.73	33600.73
513.90	34122.67
514.08	33776.27
514.25	34038.41
514.43	34319.28
514.60	34347.36
514.77	34506.52
514.95	34534.60
515.12	34543.97
515.29	34574.39
515.47	35239.11
515.64	34988.67
515.81	34576.73
515.99	34864.62
516.16	35012.07
516.33	34504.18
516.51	34583.76
516.68	34209.27
516.85	34192.89
517.03	34761.64
517.20	35173.57
517.37	35175.91
517.54	35377.20
517.72	35122.08
517.89	34960.58
518.06	34873.98
518.24	35206.34
518.41	35051.86
518.58	35601.89
518.75	35229.74
518.93	36149.57
519.10	35852.33
519.27	35864.03
519.45	35835.94
519.62	36191.70
519.79	36591.94
519.96	36453.84
520.14	36758.11
520.31	36165.96
520.48	36500.65
520.65	36519.38
520.83	37170.05
521.00	36959.40
521.17	36664.49
521.34	37256.65
521.52	37191.11
521.69	37144.30
521.86	37282.39
522.03	37530.49
522.20	37701.35
522.38	37546.87
522.55	37518.79
522.72	37645.18
522.89	37226.22
523.07	37560.92
523.24	37741.14
523.41	38075.84
523.58	38029.02
523.75	38447.98
523.92	38115.62
524.10	38731.18
524.27	38244.35
524.44	38796.72
524.61	38572.03
524.78	38337.98
524.96	38541.60
525.13	38698.42
525.30	39061.20
525.47	38808.42
525.64	38625.86
525.81	38569.69
525.98	38244.35
526.16	38656.29
526.33	38026.68
526.50	38445.64
526.67	38384.79
526.84	38548.62
527.01	38494.79
527.18	38485.43
527.36	39117.37
527.53	39552.71
527.70	39999.76
527.87	39842.94
528.04	39936.56
528.21	39548.03
528.38	39643.99
528.55	39800.81
528.72	39969.33
528.89	39971.67
529.07	39791.45
529.24	39695.49
529.41	40374.24
529.58	39894.43
529.75	39796.13
529.92	40074.65
530.09	40191.68
530.26	40575.53
530.43	40610.64
530.60	40320.41
530.77	40320.41
530.94	40519.35
531.11	40170.61
531.28	40528.72
531.46	41130.23
531.63	40926.61
531.80	40786.18
531.97	40418.71
532.14	40425.73
532.31	40390.62
532.48	40704.26
532.65	40739.36
532.82	40926.61
532.99	40987.46
533.16	41024.91
533.33	41277.69
533.50	41748.14
533.67	40957.03
533.84	41053.00
534.01	40877.46
534.18	40952.35
534.35	41462.59
534.52	41738.77
534.69	41364.29
534.86	41383.01
535.03	42014.96
535.20	41567.91
535.37	42209.22
535.54	42045.38
535.71	41865.16
535.88	41727.07
536.05	41668.56
536.22	41982.19
536.38	41691.96
536.55	41799.63
536.72	41916.65
536.89	41516.42
537.06	41801.97
537.23	42029.00
537.40	42328.59
537.57	42281.78
537.74	41907.29
537.91	42480.72
538.08	42513.49
538.25	42127.30
538.42	42391.78
538.59	42770.95
538.75	42012.62
538.92	42490.09
539.09	42707.76
539.26	42548.60
539.43	42438.59
539.60	42300.50
539.77	42614.13
539.94	42534.56
540.11	42218.58
540.28	42773.29
540.44	42534.56
540.61	42997.98
540.78	42993.30
540.95	42543.92
541.12	43281.19
541.29	42836.48
541.46	43154.80
541.62	43056.50
541.79	43274.16
541.96	42450.30
542.13	43122.03
542.30	43374.81
542.47	42787.33
542.63	42997.98
542.80	43187.56
542.97	43426.30
543.14	44154.21
543.31	43679.08
543.48	43800.79
543.64	44828.28
543.81	44781.47
543.98	43863.98
544.15	44044.20
544.32	44116.76
544.48	44524.01
544.65	44060.58
544.82	44126.12
544.99	44081.65
545.16	44170.59
545.32	43777.38
545.49	44603.59
545.66	44130.80
545.83	44428.05
546.00	44582.52
546.16	44559.12
546.33	44371.88
546.50	44079.31
546.67	44737.00
546.83	44067.61
547.00	43924.83
547.17	44226.76
547.34	44081.65
547.50	44910.20
547.67	44282.94
547.84	44676.15
548.00	44973.39
548.17	44713.59
548.34	44722.96
548.51	44662.10
548.67	45205.11
548.84	44729.98
549.01	45282.34
549.18	45052.97
549.34	44832.96
549.51	44884.45
549.68	44978.07
549.84	45177.02
550.01	45277.66
550.18	45050.63
550.34	45052.97
550.51	45179.36
550.68	45090.42
550.84	44786.15
551.01	45104.46
551.18	44980.42
551.34	45563.21
551.51	45385.33
551.68	45439.16
551.84	45516.40
552.01	45310.43
552.18	45762.15
552.34	44828.28
552.51	45338.52
552.68	45390.01
552.84	45645.13
553.01	46176.43
553.18	45759.81
553.34	45364.26
553.51	45469.59
553.67	45565.55
553.84	46176.43
554.01	45792.58
554.17	45839.39
554.34	46134.30
554.51	45855.78
554.67	45975.14
554.84	45986.85
555.00	45528.10
555.17	45961.10
555.33	45720.02
555.50	46412.82
555.67	46595.38
555.83	45900.25
556.00	46387.08
556.16	46593.04
556.33	46162.39
556.50	46370.69
556.66	46197.49
556.83	46089.83
556.99	46403.46
557.16	46183.45
557.32	45778.54
557.49	46309.84
557.65	45581.93
557.82	46454.95
557.98	46010.25
558.15	46291.12
558.32	46429.21
558.48	46078.13
558.65	46497.08
558.81	46064.08
558.98	46246.65
559.14	46195.15
559.31	46569.64
559.47	46637.51
559.64	46700.71
559.80	46773.27
559.97	46190.47
560.13	46438.57
560.30	46518.15
560.46	46478.36
560.63	46859.87
560.79	46934.76
560.96	46539.21
561.12	46916.04
561.29	46588.36
561.45	46335.59
561.61	46412.82
561.78	46583.68
561.94	46358.99
562.11	46511.13
562.27	46876.25
562.44	46616.45
562.60	46981.57
562.77	46586.02
562.93	46834.12
563.10	47145.41
563.26	46391.76
563.42	46773.27
563.59	46794.33
563.75	46827.10
563.92	46951.15
564.08	46550.91
564.24	47058.81
564.41	47145.41
564.57	46857.52
564.74	46639.86
564.90	47065.83
565.07	47196.90
565.23	46894.97
565.39	46621.13
565.56	46710.07
565.72	46770.93
565.88	46534.53
566.05	46784.97
566.21	46780.29
566.38	46997.96
566.54	46782.63
566.70	47580.75
566.87	47639.26
567.03	47241.37
567.19	47484.79
567.36	46801.35
567.52	47437.98
567.68	46829.44
567.85	46639.86
568.01	47220.31
568.17	47103.28
568.34	46890.29
568.50	46878.59
568.66	46939.44
568.83	47344.36
568.99	46747.52
569.15	46852.84
569.32	47033.07
569.48	46815.40
569.64	47613.52
569.81	46808.37
569.97	46944.12
570.13	47161.79
570.30	46536.87
570.46	46993.28
570.62	46614.11
570.78	46501.76
570.95	46969.87
571.11	47147.75
571.27	46932.42
571.43	47297.55
571.60	47543.30
571.76	47021.36
571.92	47164.14
572.09	47360.74
572.25	47629.90
572.41	47065.83
572.57	47657.99
572.74	47828.85
572.90	47533.94
573.06	47215.63
573.22	47126.69
573.38	47077.54
573.55	46997.96
573.71	46918.38
573.87	47150.09
574.03	46969.87
574.20	47463.72
574.36	47398.19
574.52	47416.91
574.68	47313.93
574.84	46911.36
575.01	47330.31
575.17	47473.09
575.33	47119.66
575.49	46838.80
575.65	47690.76
575.82	47641.60
575.98	47344.36
576.14	47557.35
576.30	47274.14
576.46	47122.01
576.62	47147.75
576.79	47407.55
576.95	46639.86
577.11	46796.67
577.27	47395.85
577.43	47767.99
577.59	47220.31
577.75	47421.59
577.92	46806.03
578.08	47138.39
578.24	46808.37
578.40	47285.84
578.56	47304.57
578.72	47070.51
578.88	47826.51
579.04	47070.51
579.21	47660.33
579.37	47285.84
579.53	46997.96
579.69	46983.91
579.85	47012.00
580.01	47533.94
580.17	47536.28
580.33	47304.57
580.49	47756.29
580.65	47281.16
580.82	47402.87
580.98	47079.88
581.14	47178.18
581.30	47854.59
581.46	47440.32
581.62	47569.05
581.78	47079.88
581.94	47976.30
582.10	47400.53
582.26	47398.19
582.42	47767.99
582.58	47215.63
582.74	47356.06
582.90	47505.85
583.06	47657.99
583.22	47681.39
583.38	47704.80
583.54	47349.04
583.70	47751.61
583.86	47667.35
584.02	47452.02
584.18	47545.64
584.34	47154.77
584.50	47353.72
584.66	47351.38
584.82	47297.55
584.98	47625.22
585.14	47571.39
585.30	47515.22
585.46	47608.84
585.62	46986.25
585.78	47257.76
585.94	46850.50
586.10	47313.93
586.26	47056.47
586.42	47379.46
586.58	47196.90
586.74	47426.28
586.90	47173.50
587.06	47372.44
587.22	47276.48
587.38	47311.59
587.54	47388.83
587.70	47571.39
587.86	47421.59
588.02	47505.85
588.18	47515.22
588.34	47079.88
588.49	46838.80
588.65	46815.40
588.81	46602.41
588.97	47100.94
589.13	46501.76
589.29	46693.69
589.45	47199.24
589.61	47082.22
589.77	47290.52
589.93	47533.94
590.08	47737.57
590.24	47655.65
590.40	47201.58
590.56	47262.44
590.72	47730.54
590.88	46934.76
591.04	47292.86
591.20	47192.22
591.35	47767.99
591.51	47899.06
591.67	47494.15
591.83	47569.05
591.99	46876.25
592.15	47192.22
592.31	47445.00
592.46	47725.86
592.62	47278.82
592.78	47496.49
592.94	47870.98
593.10	47487.13
593.26	47950.56
593.41	47349.04
593.57	47004.98
593.73	47323.29
593.89	47543.30
594.05	47210.95
594.20	47379.46
594.36	47859.27
594.52	47143.07
594.68	47709.48
594.84	47447.34
594.99	47889.70
595.15	47248.39
595.31	47695.44
595.47	47676.71
595.62	47243.71
595.78	47861.61
595.94	47386.49
596.10	47540.96
596.25	47922.47
596.41	47503.51
596.57	47796.08
596.73	47405.21
596.88	47033.07
597.04	47660.33
597.20	47398.19
597.36	47470.75
597.51	47428.62
597.67	47571.39
597.83	47636.92
597.99	47784.38
598.14	47669.69
598.30	47650.97
598.46	47510.53
598.61	47592.45
598.77	47098.60
598.93	47185.20
599.09	47737.57
599.24	47859.27
599.40	47690.76
599.56	47772.67
599.71	47824.17
599.87	47716.50
600.03	47264.78
600.18	47842.89
600.34	47250.74
600.50	47215.63
600.65	47615.86
600.81	47384.15
600.97	47842.89
601.12	47814.80
601.28	47442.66
601.44	47374.78
601.59	47470.75
601.75	47587.77
601.91	47550.32
602.06	47288.18
602.22	47587.77
602.37	47672.03
602.53	47447.34
602.69	48289.93
602.84	47550.32
603.00	47531.60
603.16	47805.44
603.31	46841.14
603.47	47189.88
603.62	47255.42
603.78	47798.42
603.94	47239.03
604.09	47552.66
604.25	47454.36
604.40	47271.80
604.56	47667.35
604.71	47512.88
604.87	47552.66
605.03	47531.60
605.18	47358.40
605.34	47330.31
605.49	46859.87
605.65	47234.35
605.80	47496.49
605.96	47409.89
606.12	47313.93
606.27	47552.66
606.43	47164.14
606.58	47440.32
606.74	47157.11
606.89	47292.86
607.05	47210.95
607.20	47122.01
607.36	47714.16
607.51	47695.44
607.67	47093.92
607.82	47260.10
607.98	47248.39
608.13	46848.16
608.29	46944.12
608.44	46845.82
608.60	46281.75
608.75	46518.15
608.91	46747.52
609.06	46663.26
609.22	47180.52
609.37	46946.47
609.53	46939.44
609.68	47152.43
609.84	46789.65
609.99	47334.99
610.15	46689.01
610.30	46799.01
610.46	46721.77
610.61	46689.01
610.76	46909.02
610.92	47028.38
611.07	46351.97
611.23	46763.90
611.38	46951.15
611.54	46700.71
611.69	46464.32
611.84	46218.56
612.00	46733.48
612.15	46618.79
612.31	47173.50
612.46	46520.49
612.62	47283.50
612.77	46609.43
612.92	46923.06
613.08	46731.14
613.23	46176.43
613.39	46433.89
613.54	46363.67
613.69	46382.40
613.85	46642.20
614.00	46574.32
614.15	46745.18
614.31	46295.80
614.46	46813.05
614.62	46286.43
614.77	46216.22
614.92	46251.33
615.08	46419.84
615.23	46052.38
615.38	46445.59
615.54	45986.85
615.69	46422.19
615.84	45696.62
616.00	45815.99
616.15	46162.39
616.30	46064.08
616.46	45729.39
616.61	45883.86
616.76	45717.68
616.92	46026.63
617.07	45546.82
617.22	45982.16
617.37	45879.18
617.53	46267.71
617.68	46124.94
617.83	46096.85
617.99	46476.02
618.14	45954.08
618.29	45851.09
618.45	45340.86
618.60	45876.84
618.75	45778.54
618.90	45872.16
619.06	45521.08
619.21	45310.43
619.36	46012.59
619.51	45790.24
619.67	45233.19
619.82	46113.23
619.97	45998.55
620.12	45640.45
620.28	45373.63
620.43	45682.58
620.58	45380.65
620.73	45085.74
620.89	44935.95
621.04	45188.72
621.19	45247.24
621.34	45174.68
621.49	44851.69
621.65	45067.02
621.80	45773.86
621.95	44985.10
622.10	45296.39
622.25	44847.00
622.41	44650.40
622.56	44945.31
622.71	45270.64
622.86	44851.69
623.01	44748.70
623.16	45120.85
623.32	45172.34
623.47	44837.64
623.62	45165.32
623.77	44952.33
623.92	44994.46
624.07	44245.49
624.23	44367.20
624.38	44774.45
624.53	44240.81
624.68	45141.91
624.83	44889.13
624.98	44357.83
625.13	44610.61
625.29	44837.64
625.44	44399.96
625.59	44399.96
625.74	44224.42
625.89	44250.17
626.04	44343.79
626.19	44116.76
626.34	44680.83
626.49	44364.85
626.65	44271.23
626.80	44289.96
626.95	44446.77
627.10	44233.78
627.25	44208.04
627.40	43526.94
627.55	43456.73
627.70	43395.87
627.85	43643.97
628.00	43971.64
628.15	44266.55
628.30	43779.72
628.45	43753.97
628.60	43381.83
628.76	44048.88
628.91	43807.81
629.06	43866.32
629.21	44032.50
629.36	42944.15
629.51	43440.34
629.66	43316.29
629.81	43627.59
629.96	43636.95
630.11	43688.44
630.26	43545.67
630.41	43863.98
630.56	43625.25
630.71	43594.82
630.86	43133.73
631.01	43213.31
631.16	43665.03
631.31	43089.26
631.46	42609.45
631.61	43075.22
631.76	43648.65
631.91	43407.58
632.06	43409.92
632.21	43325.66
632.36	43332.68
632.51	43138.41
632.66	43384.17
632.81	43159.48
632.96	43203.95
633.10	42789.67
633.25	42731.16
633.40	43072.88
633.55	43133.73
633.70	43185.22
633.85	42857.55
634.00	42969.90
634.15	42775.63
634.30	42937.13
634.45	42958.19
634.60	43084.58
634.75	43119.69
634.90	42588.39
635.05	42895.00
635.19	42368.38
635.34	42754.57
635.49	42576.69
635.64	42557.96
635.79	42543.92
635.94	42188.16
636.09	42616.47
636.24	42665.63
636.39	42188.16
636.53	42511.15
636.68	42366.04
636.83	42347.31
636.98	43082.24
637.13	41970.49
637.28	42506.47
637.43	42351.99
637.57	42316.89
637.72	42464.34
637.87	42473.70
638.02	42972.24
638.17	42328.59
638.32	42398.80
638.46	41963.46
638.61	41911.97
638.76	41647.49
638.91	42064.11
639.06	42024.32
639.20	42052.41
639.35	42029.00
639.50	41886.23
639.65	41677.92
639.80	42396.46
639.94	41942.40
640.09	41823.03
640.24	41310.46
640.39	41427.48
640.54	41174.70
640.68	41677.92
640.83	41631.11
640.98	41581.96
641.13	41373.65
641.27	41596.00
641.42	41579.62
641.57	41830.05
641.72	41273.01
641.86	41406.42
642.01	41383.01
642.16	41228.54
642.31	40879.80
642.45	41717.71
642.60	41034.27
642.75	41443.87
642.90	40994.48
643.04	41034.27
643.19	41244.92
643.34	41359.61
643.48	41656.85
643.63	41081.08
643.78	40992.14
643.93	40687.87
644.07	40851.71
644.22	40924.27
644.37	40238.49
644.51	40584.89
644.66	40942.99
644.81	41055.34
644.95	41078.74
645.10	41104.49
645.25	41134.92
645.39	40854.05
645.54	40896.18
645.69	41006.19
645.83	40921.93
645.98	40907.88
646.13	40748.73
646.27	40615.32
646.42	40554.46
646.57	40444.46
646.71	40879.80
646.86	40610.64
647.00	40631.70
647.15	40477.22
647.30	40669.15
647.44	40744.05
647.59	40301.68
647.74	40245.51
647.88	40179.98
648.03	40289.98
648.17	40072.31
648.32	39929.54
648.47	40091.04
648.61	40233.81
648.76	40353.18
648.90	39976.35
649.05	39765.70
649.20	39927.20
649.34	40123.80
649.49	40177.64
649.63	39828.90
649.78	39669.74
649.92	39903.79
650.07	40245.51
650.21	39746.98
650.36	40013.80
650.51	39828.90
650.65	40629.36
650.80	40297.00
650.94	39812.51
651.09	39948.26
651.23	39459.09
651.38	40208.06
651.52	39445.05
651.67	39835.92
651.81	39171.21
651.96	39573.78
652.10	39629.95
652.25	39491.86
652.39	39372.49
652.54	39732.93
652.68	39557.39
652.83	39651.02
652.97	39651.02
653.12	39056.52
653.26	39445.05
653.41	39405.26
653.55	39510.58
653.70	39203.97
653.84	39405.26
653.99	39260.15
654.13	38995.67
654.27	39234.40
654.42	39206.31
654.56	39213.34
654.71	39103.33
654.85	39306.96
655.00	39103.33
655.14	38595.43
655.29	38778.00
655.43	38689.06
655.57	38546.28
655.72	38242.01
655.86	38925.45
656.01	38412.87
656.15	37912.00
656.30	38389.47
656.44	38398.83
656.58	38340.32
656.73	37930.72
656.87	38691.40
657.01	38225.63
657.16	38054.77
657.30	38445.64
657.45	37933.06
657.59	38117.96
657.73	38300.53
657.88	38520.54
658.02	38291.16
658.16	38307.55
658.31	38686.71
658.45	38618.84
658.60	38382.45
658.74	38417.55
658.88	38274.78
659.03	37670.92
659.17	37738.80
659.31	38124.99
659.46	38007.96
659.60	37886.25
659.74	37909.66
659.89	37680.28
660.03	37947.11
660.17	38057.11
660.32	37846.46
660.46	37848.80
660.60	38066.47
660.74	37762.20
660.89	37139.62
661.03	37113.87
661.17	37167.71
661.32	36926.63
661.46	37722.41
661.60	36697.26
661.74	37266.01
661.89	37481.34
662.03	37570.28
662.17	37038.98
662.31	37088.13
662.46	37338.57
662.60	37198.13
662.74	37088.13
662.88	36994.51
663.03	36947.70
663.17	36833.01
663.31	36748.75
663.45	36807.26
663.60	36641.09
663.74	36346.18
663.88	36582.57
664.02	36187.02
664.17	36634.06
664.31	36149.57
664.45	36219.79
664.59	36121.49
664.73	36430.44
664.88	36254.90
665.02	36032.55
665.16	36392.99
665.30	36126.17
665.44	36046.59
665.59	35463.80
665.73	35732.96
665.87	35906.16
666.01	35653.38
666.15	35421.67
666.29	35424.01
666.44	36027.87
666.58	35531.67
666.72	35587.85
666.86	35676.79
667.00	35564.44
667.14	35473.16
667.28	35220.38
667.43	35201.66
667.57	34953.56
667.71	35229.74
667.85	34965.26
667.99	34969.94
668.13	34829.51
668.27	34663.33
668.41	34794.40
668.56	35225.06
668.70	34967.60
668.84	34462.05
668.98	34787.38
669.12	35014.41
669.26	34490.13
669.40	34471.41
669.54	34356.72
669.68	34576.73
669.82	34277.15
669.96	34101.61
670.10	33776.27
670.25	34440.98
670.39	34108.63
670.53	33668.61
670.67	34026.71
670.81	33907.34
670.95	34345.02
671.09	33947.13
671.23	34153.10
671.37	33708.40
671.51	33413.49
671.65	33560.94
671.79	33598.39
671.93	33333.91
672.07	33736.48
672.21	33420.51
672.35	33074.11
672.49	33282.42
672.63	33497.75
672.77	33362.00
672.91	33378.38
673.05	32957.08
673.19	32650.47
673.33	32507.70
673.47	32683.24
673.61	32598.98
673.75	32212.79
673.89	32201.09
674.03	31948.31
674.17	32290.03
674.31	32198.75
674.45	32247.90
674.59	32077.04
674.73	31868.73
674.87	32442.17
675.01	31812.56
675.15	32074.70
675.29	31948.31
675.43	31793.84
675.56	31388.92
675.70	31356.16
675.84	32004.49
675.98	30848.26
676.12	31541.06
676.26	31351.48
676.40	31133.81
676.54	31260.20
676.68	30682.08
676.82	30375.47
676.96	30728.89
677.10	30295.89
677.23	30911.46
677.37	30354.41
677.51	30536.97
677.65	30499.52
677.79	29951.84
677.93	30188.23
678.07	30012.69
678.21	29846.51
678.34	30108.65
678.48	29713.10
678.62	29696.72
678.76	29399.47
678.90	29823.11
679.04	29516.50
679.18	29778.64
679.31	29074.13
679.45	29181.80
679.59	29092.86
679.73	29048.39
679.87	29296.49
680.00	29020.30
680.14	28840.08
680.28	28776.89
680.42	28575.60
680.56	28350.91
680.70	28531.13
680.83	28278.35
680.97	27791.52
681.11	27950.68
681.25	27948.34
681.39	28238.56
681.52	27997.49
681.66	27871.10
681.80	27938.97
681.94	27653.43
682.07	27683.86
682.21	27414.69
682.35	27278.94
682.49	27552.79
682.62	27395.97
682.76	27115.11
682.90	27175.96
683.04	27173.62
683.17	26672.74
683.31	27063.61
683.45	27091.70
683.59	26469.12
683.72	26532.31
683.86	26216.34
684.00	26459.76
684.13	26148.46
684.27	26228.04
684.41	26178.89
684.55	25874.62
684.68	25799.73
684.82	25652.27
684.96	25736.53
685.09	25902.71
685.23	25731.85
685.37	25542.27
685.50	25556.31
685.64	25060.12
685.78	25415.88
685.91	25415.88
686.05	25137.35
686.19	24959.47
686.32	24807.34
686.46	24428.17
686.60	24105.18
686.73	24037.30
686.87	23850.06
687.01	23936.66
687.14	23772.82
687.28	23744.73
687.42	23716.65
687.55	23332.80
687.69	23573.88
687.82	23356.21
687.96	23541.11
688.10	23318.76
688.23	23405.36
688.37	23178.33
688.50	23323.44
688.64	22965.34
688.78	22852.99
688.91	22684.47
689.05	22733.62
689.18	22593.19
689.32	22398.93
689.46	22721.92
689.59	22953.63
689.73	22518.29
689.86	22586.17
690.00	22600.21
690.13	22698.52
690.27	22321.69
690.41	21905.07
690.54	22146.15
690.68	21832.52
690.81	22132.11
690.95	21914.44
691.08	21607.83
691.22	21979.97
691.35	21577.40
691.49	21752.94
691.62	21848.90
691.76	21390.16
691.89	21619.53
692.03	21315.26
692.16	21113.97
692.30	21109.29
692.43	21067.16
692.57	20507.77
692.70	20311.17
692.84	20655.23
692.97	20589.69
693.11	20128.61
693.24	20510.11
693.38	19957.75
693.51	20432.88
693.65	20332.23
693.78	20264.36
693.92	20240.95
694.05	19990.52
694.19	20095.84
694.32	19814.98
694.45	19796.25
694.59	19915.62
694.72	19309.42
694.86	19454.53
694.99	19513.05
695.13	19363.25
695.26	19208.78
695.39	18960.68
695.53	19309.42
695.66	19351.55
695.80	19309.42
695.93	18988.77
696.07	18714.92
696.20	18625.98
696.33	18602.58
696.47	18569.81
696.60	18431.72
696.73	18703.22
696.87	18579.17
697.00	18375.55
697.14	18415.34
697.27	18106.38
697.40	18389.59
697.54	17832.54
697.67	18169.58
697.80	17930.84
697.94	17640.62
698.07	17699.13
698.21	17523.59
698.34	17404.22
698.47	17799.77
698.61	17352.73
698.74	17434.65
698.87	17263.79
699.01	17011.01
699.14	17015.69
699.27	16882.28
699.40	17039.10
699.54	17071.87
699.67	16596.74
699.80	16781.64
699.94	16442.26
700.07	16421.20
700.20	16620.14
700.34	16278.43
700.47	16503.12
700.60	16437.58
700.73	16430.56
700.87	16255.02
701.00	16212.89
701.13	16058.42
701.26	15971.82
701.40	15950.75
701.53	16013.95
701.66	15733.08
701.79	15845.43
701.93	15625.42
702.06	15300.08
702.19	15531.80
702.32	15206.46
702.46	15351.57
702.59	15517.75
702.72	15173.69
702.85	15192.42
702.99	15398.38
703.12	15129.22
703.25	15122.20
703.38	15059.01
703.51	14794.53
703.65	14892.83
703.78	14981.77
703.91	14677.50
704.04	14731.33
704.17	14640.05
704.31	14654.09
704.44	14291.31
704.57	14033.85
704.70	14171.94
704.83	14237.48
704.96	14310.04
705.10	14406.00
705.23	14305.35
>>>>>End Processed Spectral Data<<<<<
