SpectraSuite Data File
++++++++++++++++++++++++++++++++++++
Date: Fri Oct 25 10:44:08 EDT 2013
User: price-jones
Dark Spectrum Present: No
Reference Spectrum Present: No
Number of Sampled Component Spectra: 1
Spectrometers: USB2+H05261
Integration Time (usec): 100000 (USB2+H05261)
Spectra Averaged: 1 (USB2+H05261)
Boxcar Smoothing: 0 (USB2+H05261)
Correct for Electrical Dark: No (USB2+H05261)
Strobe/Lamp Enabled: No (USB2+H05261)
Correct for Detector Non-linearity: No (USB2+H05261)
Correct for Stray Light: No (USB2+H05261)
Number of Pixels in Processed Spectrum: 2048
>>>>>Begin Processed Spectral Data<<<<<
365.73	175.54
365.92	175.54
366.12	175.54
366.32	42.13
366.52	56.17
366.72	65.54
366.91	14.04
367.11	30.43
367.31	60.85
367.51	32.77
367.70	7.02
367.90	49.15
368.10	0.00
368.30	39.79
368.49	0.00
368.69	65.54
368.89	46.81
369.09	37.45
369.28	9.36
369.48	56.17
369.68	53.83
369.87	88.94
370.07	126.39
370.27	119.37
370.47	135.75
370.66	435.34
370.86	440.02
371.06	482.15
371.25	440.02
371.45	367.46
371.65	568.75
371.84	369.80
372.04	409.59
372.24	493.85
372.44	498.53
372.63	491.51
372.83	498.53
373.03	470.45
373.22	470.45
373.42	624.92
373.62	503.22
373.81	477.47
374.01	578.11
374.21	547.69
374.40	491.51
374.60	674.07
374.79	568.75
374.99	496.19
375.19	528.96
375.38	657.69
375.58	589.82
375.78	580.45
375.97	580.45
376.17	713.86
376.37	627.26
376.56	620.24
376.76	566.41
376.95	587.47
377.15	669.39
377.35	587.47
377.54	657.69
377.74	582.79
377.93	678.76
378.13	664.71
378.33	596.84
378.52	606.20
378.72	660.03
378.91	671.73
379.11	770.04
379.31	645.99
379.50	699.82
379.70	678.76
379.89	795.78
380.09	674.07
380.28	657.69
380.48	709.18
380.68	765.36
380.87	671.73
381.07	727.91
381.26	683.44
381.46	678.76
381.65	734.93
381.85	758.33
382.04	732.59
382.24	723.23
382.43	718.54
382.63	624.92
382.83	688.12
383.02	723.23
383.22	800.46
383.41	746.63
383.61	786.42
383.80	777.06
384.00	720.88
384.19	788.76
384.39	777.06
384.58	835.57
384.78	854.30
384.97	746.63
385.17	781.74
385.36	702.16
385.56	840.25
385.75	870.68
385.95	837.91
386.14	868.34
386.34	842.59
386.53	800.46
386.72	844.93
386.92	976.00
387.11	940.90
387.31	908.13
387.50	816.85
387.70	837.91
387.89	837.91
388.09	873.02
388.28	812.17
388.48	908.13
388.67	884.72
388.86	1015.79
389.06	985.37
389.25	858.98
389.45	1078.99
389.64	947.92
389.84	1001.75
390.03	957.28
390.22	1102.39
390.42	945.58
390.61	1043.88
390.81	1008.77
391.00	1013.45
391.19	1043.88
391.39	1076.65
391.58	1029.84
391.78	1015.79
391.97	1022.81
392.16	1050.90
392.36	1078.99
392.55	1053.24
392.75	961.96
392.94	901.11
393.13	1043.88
393.33	1018.13
393.52	1011.11
393.71	1107.07
393.91	1062.60
394.10	1163.25
394.29	1093.03
394.49	1165.59
394.68	1240.48
394.88	1221.76
395.07	1221.76
395.26	1270.91
395.46	1207.72
395.65	1266.23
395.84	1130.48
396.04	1193.67
396.23	1165.59
396.42	1100.05
396.62	1191.33
396.81	1203.04
397.00	1135.16
397.19	1308.36
397.39	1280.27
397.58	1409.00
397.77	1357.51
397.97	1348.15
398.16	1432.41
398.35	1453.47
398.55	1453.47
398.74	1432.41
398.93	1572.84
399.12	1528.37
399.32	1502.62
399.51	1537.73
399.70	1563.48
399.90	1556.46
400.09	1614.97
400.28	1579.86
400.47	1633.69
400.67	1659.44
400.86	1696.89
401.05	1612.63
401.24	1636.03
401.44	1694.55
401.63	1755.40
401.82	1743.70
402.01	1647.74
402.21	1755.40
402.40	1755.40
402.59	1739.02
402.78	1678.16
402.97	1694.55
403.17	1764.76
403.36	1811.57
403.55	1783.49
403.74	1832.64
403.93	1813.92
404.13	1790.51
404.32	1837.32
404.51	1849.02
404.70	1839.66
404.89	1844.34
405.09	2036.27
405.28	1984.77
405.47	1954.35
405.66	1963.71
405.85	1947.33
406.05	1977.75
406.24	2036.27
406.43	1994.14
406.62	2040.95
406.81	2174.36
407.00	2193.08
407.20	2132.23
407.39	2150.95
407.58	2071.37
407.77	2118.18
407.96	2197.76
408.15	2136.91
408.34	2225.85
408.54	2172.02
408.73	2284.36
408.92	2347.56
409.11	2296.07
409.30	2263.30
409.49	2312.45
409.68	2324.15
409.87	2230.53
410.07	2244.57
410.26	2352.24
410.45	2359.26
410.64	2420.11
410.83	2476.29
411.02	2497.35
411.21	2630.76
411.40	2516.08
411.59	2562.89
411.78	2562.89
411.98	2532.46
412.17	2637.78
412.36	2665.87
412.55	2633.10
412.74	2703.32
412.93	2712.68
413.12	2747.79
413.31	2836.73
413.50	2799.28
413.69	2717.36
413.88	2874.18
414.07	2754.81
414.26	3030.99
414.45	2874.18
414.64	2881.20
414.83	3026.31
415.02	2944.39
415.22	3016.95
415.41	3049.72
415.60	3016.95
415.79	3061.42
415.98	3225.26
416.17	3208.87
416.36	3145.68
416.55	3229.94
416.74	3239.30
416.93	3211.22
417.12	3300.16
417.31	3353.99
417.50	3239.30
417.69	3424.20
417.88	3344.63
418.07	3508.46
418.26	3454.63
418.45	3454.63
418.64	3574.00
418.83	3574.00
419.02	3487.40
419.21	3536.55
419.39	3529.53
419.58	3503.78
419.77	3543.57
419.96	3644.21
420.15	3744.86
420.34	3700.39
420.53	3728.47
420.72	3721.45
420.91	3742.52
421.10	3857.20
421.29	3852.52
421.48	3822.09
421.67	3918.06
421.86	3812.73
422.05	3875.93
422.24	3737.84
422.43	3911.04
422.61	3873.59
422.80	3882.95
422.99	3995.29
423.18	3997.64
423.37	3995.29
423.56	3822.09
423.75	3852.52
423.94	3761.24
424.13	3733.15
424.32	3770.60
424.50	3861.88
424.69	3995.29
424.88	3929.76
425.07	3880.61
425.26	3885.29
425.45	3815.07
425.64	3950.82
425.83	3911.04
426.01	4004.66
426.20	4007.00
426.39	3852.52
426.58	3929.76
426.77	3850.18
426.96	4114.66
427.15	3988.27
427.33	4079.55
427.52	3995.29
427.71	4180.20
427.90	3997.64
428.09	4170.83
428.28	4170.83
428.46	4217.65
428.65	4063.17
428.84	4337.01
429.03	4276.16
429.22	4056.15
429.40	4147.43
429.59	4070.19
429.78	3882.95
429.97	3925.08
430.16	4175.52
430.34	4168.49
430.53	4212.96
430.72	4112.32
430.91	4042.11
431.10	4372.12
431.28	4496.17
431.47	4634.26
431.66	4507.87
431.85	4514.89
432.03	4629.58
432.22	4690.43
432.41	4477.44
432.60	4685.75
432.79	4472.76
432.97	4821.50
433.16	4842.57
433.35	4704.48
433.54	4540.64
433.72	4648.30
433.91	4510.21
434.10	4765.33
434.28	4753.63
434.47	4697.46
434.66	4739.58
434.85	4856.61
435.03	4880.02
435.22	4959.60
435.41	4945.55
435.59	5109.39
435.78	5027.47
435.97	5114.07
436.16	5144.50
436.34	5064.92
436.53	5109.39
436.72	5165.56
436.90	5011.09
437.09	5114.07
437.28	5081.30
437.46	5149.18
437.65	5277.91
437.84	5186.63
438.02	5167.90
438.21	5139.82
438.40	5160.88
438.58	5331.74
438.77	5446.43
438.96	5430.04
439.14	5638.35
439.33	5432.38
439.52	5563.45
439.70	5542.39
439.89	5577.50
440.08	5640.69
440.26	5689.84
440.45	5715.59
440.63	5827.93
440.82	6019.86
441.01	5888.79
441.19	5944.96
441.38	6113.48
441.57	6113.48
441.75	6200.08
441.94	6319.45
442.12	6424.77
442.31	6162.63
442.50	6265.61
442.68	6251.57
442.87	6459.88
443.05	6422.43
443.24	6293.70
443.43	6448.18
443.61	6483.28
443.80	6663.51
443.98	6307.74
444.17	6282.00
444.35	6399.02
444.54	6715.00
444.73	6389.66
444.91	6272.64
445.10	6394.34
445.28	6574.56
445.47	6396.68
445.65	6443.49
445.84	6445.84
446.02	6544.14
446.21	6665.85
446.39	6457.54
446.58	6600.31
446.77	6607.33
446.95	6499.67
447.14	6621.38
447.32	6712.66
447.51	6600.31
447.69	6534.78
447.88	6689.25
448.06	6572.22
448.25	6635.42
448.43	6693.93
448.62	6719.68
448.80	6654.14
448.99	6693.93
449.17	6808.62
449.36	6707.98
449.54	6876.49
449.73	7014.59
449.91	7143.32
450.10	7152.68
450.28	7253.32
450.46	7133.95
450.65	7250.98
450.83	7253.32
451.02	7033.31
451.20	7136.29
451.39	7129.27
451.57	7103.53
451.76	7023.95
451.94	7169.06
452.13	7197.15
452.31	7204.17
452.49	7162.04
452.68	7096.50
452.86	7131.61
453.05	7269.70
453.23	7250.98
453.42	7082.46
453.60	7431.20
453.78	7407.80
453.97	7246.30
454.15	7204.17
454.34	7330.56
454.52	7426.52
454.70	7314.17
454.89	7445.24
455.07	7550.57
455.26	7569.29
455.44	7618.44
455.62	7541.21
455.81	7831.43
455.99	7695.68
456.17	7744.83
456.36	7983.57
456.54	7777.60
456.73	7852.50
456.91	8203.58
457.09	7901.65
457.28	8201.24
457.46	7705.04
457.64	8170.81
457.83	8236.35
458.01	8058.46
458.19	8102.93
458.38	8140.38
458.56	8344.01
458.74	8369.76
458.93	8203.58
459.11	8063.15
459.29	8159.11
459.48	8229.32
459.66	8124.00
459.84	8313.58
460.03	8381.46
460.21	8482.10
460.39	8568.70
460.57	8676.37
460.76	8484.44
460.94	8580.40
461.12	8573.38
461.31	8568.70
461.49	8767.65
461.67	8545.30
461.85	8929.14
462.04	8524.23
462.22	9181.92
462.40	8898.72
462.59	8910.42
462.77	8788.71
462.95	9121.07
463.13	8847.22
463.32	8961.91
463.50	8903.40
463.68	8882.33
463.86	8957.23
464.05	8854.25
464.23	8912.76
464.41	9055.53
464.59	8978.30
464.78	9191.28
464.96	8994.68
465.14	8926.80
465.32	9284.91
465.50	9165.54
465.69	9142.13
465.87	9081.28
466.05	9231.07
466.23	9163.20
466.41	9125.75
466.60	9408.95
466.78	9039.15
466.96	9343.42
467.14	9327.03
467.32	9359.80
467.51	9533.00
467.69	9022.77
467.87	9390.23
468.05	9404.27
468.23	9287.25
468.41	9451.08
468.60	9362.14
468.78	9518.96
468.96	9528.32
469.14	9760.03
469.32	9797.48
469.50	9643.01
469.69	9668.75
469.87	9846.63
470.05	9689.82
470.23	9774.08
470.41	9884.08
470.59	9984.73
470.77	9881.74
470.95	9907.49
471.14	10099.41
471.32	9982.38
471.50	10024.51
471.68	10333.47
471.86	10200.05
472.04	10501.98
472.22	10466.88
472.40	10181.33
472.58	10391.98
472.77	10530.07
472.95	10560.50
473.13	10846.04
473.31	10429.43
473.49	10352.19
473.67	10761.78
473.85	10757.10
474.03	11049.67
474.21	10986.47
474.39	10839.02
474.57	10883.49
474.75	11021.58
474.93	11197.12
475.12	11260.32
475.30	11091.80
475.48	11054.35
475.66	11173.72
475.84	11255.64
476.02	11403.09
476.20	11407.77
476.38	11529.48
476.56	11803.32
476.74	11880.56
476.92	11798.64
477.10	11892.26
477.28	11918.01
477.46	12009.29
477.64	12355.69
477.82	12276.11
478.00	12362.71
478.18	12479.74
478.36	12458.67
478.54	12681.02
478.72	12264.41
478.90	12669.32
479.08	13060.19
479.26	13015.72
479.44	12994.65
479.62	13081.25
479.80	13303.60
479.98	13275.52
480.16	13547.02
480.34	13703.84
480.52	13605.53
480.70	13631.28
480.88	13542.34
481.06	14230.46
481.24	14129.81
481.41	14354.51
481.59	14349.82
481.77	14459.83
481.95	14214.07
482.13	14604.94
482.31	14466.85
482.49	14747.72
482.67	14876.44
482.85	14738.35
483.03	15119.86
483.21	15187.74
483.39	15342.21
483.57	15410.09
483.74	15351.57
483.92	15667.55
484.10	15447.54
484.28	15730.74
484.46	16091.18
484.64	16205.87
484.82	15815.00
485.00	16107.57
485.18	16360.34
485.35	16517.16
485.53	16102.89
485.71	16051.39
485.89	16269.06
486.07	16301.83
486.25	16493.76
486.43	16720.79
486.61	17074.21
486.78	17554.02
486.96	17486.14
487.14	17408.90
487.32	17689.77
487.50	17928.50
487.68	17944.89
487.85	18134.47
488.03	18548.75
488.21	18295.97
488.39	18597.90
488.57	18471.51
488.75	18675.13
488.92	18937.27
489.10	19070.68
489.28	19360.91
489.46	19665.18
489.64	19585.60
489.81	19868.81
489.99	20240.95
490.17	20322.87
490.35	20081.80
490.53	20133.29
490.70	20369.68
490.88	20428.20
491.06	20732.47
491.24	20716.08
491.41	20563.95
491.59	20800.34
491.77	20638.84
491.95	21041.42
492.13	21259.09
492.30	21619.53
492.48	21469.73
492.66	21706.13
492.84	21694.43
493.01	22087.64
493.19	22045.51
493.37	22335.73
493.54	22338.07
493.72	22434.03
493.90	22352.12
494.08	22799.16
494.25	22981.72
494.43	23002.78
494.61	23569.19
494.79	23449.83
494.96	23531.75
495.14	23367.91
495.32	23740.05
495.49	23599.62
495.67	23765.80
495.85	24020.92
496.02	24102.84
496.20	24086.45
496.38	23903.89
496.55	24528.81
496.73	24936.07
496.91	25179.48
497.09	25116.29
497.26	25003.94
497.44	25135.01
497.62	24917.34
497.79	25399.49
497.97	25170.12
498.14	25331.62
498.32	25493.12
498.50	25593.76
498.67	25795.04
498.85	26127.40
499.03	26026.76
499.20	25909.73
499.38	26162.51
499.56	26068.89
499.73	26139.10
499.91	26567.42
500.08	26356.77
500.26	26291.24
500.44	26710.19
500.61	26260.81
500.79	26431.67
500.97	26841.26
501.14	27101.06
501.32	26993.40
501.49	27091.70
501.67	27185.32
501.84	27077.66
502.02	27463.85
502.20	27585.55
502.37	27709.60
502.55	28079.41
502.72	27999.83
502.90	27758.75
503.07	28063.02
503.25	27835.99
503.43	27917.91
503.60	28360.27
503.78	28407.08
503.95	28264.31
504.13	28453.89
504.30	28584.96
504.48	28723.05
504.65	28652.84
504.83	28650.50
505.01	29076.48
505.18	29039.03
505.36	29654.59
505.53	29233.29
505.71	29579.69
505.88	29617.14
506.06	29188.82
506.23	29717.78
506.41	29429.90
506.58	29670.97
506.76	29666.29
506.93	30082.91
507.11	30096.95
507.28	29663.95
507.46	30061.84
507.63	29713.10
507.81	29949.50
507.98	30153.12
508.16	30785.07
508.33	30579.10
508.50	30546.33
508.68	30850.60
508.85	30974.65
509.03	31084.65
509.20	30778.04
509.38	30937.20
509.55	31049.55
509.73	31042.53
509.90	31232.11
510.08	31087.00
510.25	31185.30
510.42	31351.48
510.60	31960.02
510.77	31768.09
510.95	31917.89
511.12	32161.30
511.30	31751.71
511.47	32404.72
511.64	32680.90
511.82	32346.20
511.99	32156.62
512.17	32556.85
512.34	32182.37
512.51	32519.40
512.69	32608.34
512.86	32414.08
513.04	32968.79
513.21	32563.87
513.38	32701.96
513.56	33008.58
513.73	32561.53
513.90	33090.49
514.08	32896.23
514.25	33064.75
514.43	32879.85
514.60	33184.12
514.77	32924.32
514.95	33603.07
515.12	33446.26
515.29	33600.73
515.47	33560.94
515.64	33897.98
515.81	33649.88
515.99	34103.95
516.16	33930.75
516.33	33727.12
516.51	33586.69
516.68	33249.65
516.85	33352.63
517.03	33647.54
517.20	34096.92
517.37	33841.81
517.54	34649.29
517.72	34415.24
517.89	33933.09
518.06	34279.49
518.24	34302.89
518.41	34153.10
518.58	34192.89
518.75	34670.36
518.93	34993.35
519.10	35012.07
519.27	34656.31
519.45	35021.44
519.62	35225.06
519.79	35299.96
519.96	35452.09
520.14	35711.89
520.31	35365.49
520.48	35126.76
520.65	35522.31
520.83	36044.25
521.00	35892.12
521.17	35674.45
521.34	35896.80
521.52	35824.24
521.69	36332.14
521.86	36566.19
522.03	36847.05
522.20	36123.83
522.38	36273.62
522.55	36535.76
522.72	36091.06
522.89	36004.46
523.07	36814.29
523.24	36573.21
523.41	36926.63
523.58	36521.72
523.75	37275.37
523.92	37202.82
524.10	36765.14
524.27	37415.80
524.44	37060.04
524.61	37209.84
524.78	37556.24
524.96	37258.99
525.13	37212.18
525.30	37706.03
525.47	37806.67
525.64	37574.96
525.81	37919.02
525.98	37092.81
526.16	37228.56
526.33	37170.05
526.50	37448.57
526.67	37174.73
526.84	37392.40
527.01	37240.26
527.18	37713.05
527.36	37930.72
527.53	38272.44
527.70	38309.89
527.87	38607.14
528.04	37954.13
528.21	38497.13
528.38	38391.81
528.55	38494.79
528.72	38721.82
528.89	39093.97
529.07	38878.64
529.24	38387.13
529.41	38724.16
529.58	38726.50
529.75	38752.25
529.92	39028.43
530.09	39089.29
530.26	39157.16
530.43	39147.80
530.60	39236.74
530.77	38803.74
530.94	39405.26
531.11	39620.59
531.28	39714.21
531.46	39007.37
531.63	39552.71
531.80	39653.36
531.97	39182.91
532.14	39505.90
532.31	38967.58
532.48	39379.51
532.65	39470.79
532.82	39580.80
532.99	39618.25
533.16	39758.68
533.33	39887.41
533.50	40350.84
533.67	40112.10
533.84	39819.53
534.01	40074.65
534.18	40172.96
534.35	40479.57
534.52	39819.53
534.69	40528.72
534.86	40184.66
535.03	40624.68
535.20	40617.66
535.37	41151.30
535.54	40924.27
535.71	40673.83
535.88	40418.71
536.05	40722.98
536.22	40823.62
536.38	40694.89
536.55	40531.06
536.72	40767.45
536.89	40697.24
537.06	40968.74
537.23	40788.52
537.40	40966.40
537.57	41055.34
537.74	41361.95
537.91	40996.82
538.08	40898.52
538.25	40879.80
538.42	41528.13
538.59	41593.66
538.75	41181.73
538.92	41228.54
539.09	41394.71
539.26	41268.33
539.43	41469.61
539.60	41221.52
539.77	40907.88
539.94	41514.08
540.11	41275.35
540.28	41249.60
540.44	41893.25
540.61	41317.48
540.78	41675.58
540.95	41490.68
541.12	41486.00
541.29	41764.52
541.46	42059.43
541.62	42106.24
541.79	42059.43
541.96	41900.27
542.13	41600.68
542.30	41940.06
542.47	42230.29
542.63	42007.94
542.80	42504.13
542.97	42342.63
543.14	42829.46
543.31	42892.66
543.48	42600.09
543.64	43353.74
543.81	42866.91
543.98	42351.99
544.15	42892.66
544.32	43154.80
544.48	43180.54
544.65	42892.66
544.82	42700.73
544.99	43084.58
545.16	42590.73
545.32	42682.01
545.49	42974.58
545.66	43089.26
545.83	43414.60
546.00	43323.32
546.16	43208.63
546.33	42878.61
546.50	43295.23
546.67	43548.01
546.83	42799.04
547.00	42918.40
547.17	43047.13
547.34	43328.00
547.50	43313.95
547.67	43381.83
547.84	43213.31
548.00	43721.21
548.17	43945.90
548.34	44105.06
548.51	43704.82
548.67	43709.50
548.84	43964.62
549.01	43456.73
549.18	43611.20
549.34	43440.34
549.51	44020.80
549.68	43475.45
549.84	44156.55
550.01	44376.56
550.18	43840.57
550.34	43522.26
550.51	43374.81
550.68	43845.26
550.84	43576.09
551.01	43798.44
551.18	44315.70
551.34	44341.45
551.51	43973.98
551.68	44545.08
551.84	44542.74
552.01	43753.97
552.18	44018.46
552.34	44264.21
552.51	44044.20
552.68	44404.64
552.84	44470.18
553.01	44524.01
553.18	44435.07
553.34	44449.11
553.51	44205.70
553.67	44481.88
553.84	45076.38
554.01	44751.04
554.17	44725.30
554.34	44566.14
554.51	44652.74
554.67	44395.28
554.84	45158.30
555.00	44406.98
555.17	44957.01
555.33	45167.66
555.50	44411.67
555.67	44524.01
555.83	44432.73
556.00	44774.45
556.16	45144.25
556.33	44989.78
556.50	45205.11
556.66	45272.98
556.83	44662.10
556.99	45041.27
557.16	45371.28
557.32	44772.11
557.49	45352.56
557.65	45209.79
557.82	45043.61
557.98	45205.11
558.15	45097.44
558.32	45102.12
558.48	45003.82
558.65	45141.91
558.81	45296.39
558.98	44982.76
559.14	45251.92
559.31	45352.56
559.47	45542.14
559.64	44968.71
559.80	45724.71
559.97	45500.01
560.13	44928.92
560.30	45230.85
560.46	45624.06
560.63	45848.75
560.79	45982.16
560.96	45521.08
561.12	44980.42
561.29	45680.24
561.45	45329.16
561.61	45509.38
561.78	45500.01
561.94	45418.10
562.11	45160.64
562.27	45282.34
562.44	45684.92
562.60	45832.37
562.77	45598.32
562.93	45507.04
563.10	45509.38
563.26	45258.94
563.42	45736.41
563.59	45315.11
563.75	45581.93
563.92	45865.14
564.08	45485.97
564.24	46024.29
564.41	45242.56
564.57	45631.08
564.74	45528.10
564.90	45511.72
565.07	45834.71
565.23	45670.87
565.39	45595.98
565.56	45638.11
565.72	45443.84
565.88	45385.33
566.05	45783.22
566.21	45539.80
566.38	45628.74
566.54	45844.07
566.70	45883.86
566.87	46340.27
567.03	45710.66
567.19	46260.69
567.36	46075.79
567.52	45846.41
567.68	45886.20
567.85	45607.68
568.01	46204.52
568.17	45560.87
568.34	46019.61
568.50	46251.33
568.66	45820.67
568.83	45851.09
568.99	45635.77
569.15	45605.34
569.32	45371.28
569.48	45553.85
569.64	45935.35
569.81	45579.59
569.97	46082.81
570.13	45968.12
570.30	45823.01
570.46	45460.23
570.62	45434.48
570.78	45310.43
570.95	46108.55
571.11	45975.14
571.27	45909.61
571.43	45525.76
571.60	46174.09
571.76	45984.51
571.92	46052.38
572.09	46050.04
572.25	45930.67
572.41	46106.21
572.57	46213.88
572.74	46487.72
572.90	45848.75
573.06	45748.11
573.22	45832.37
573.38	45729.39
573.55	45820.67
573.71	46284.09
573.87	45993.87
574.03	46333.24
574.20	46394.10
574.36	45975.14
574.52	45762.15
574.68	46054.72
574.84	46036.00
575.01	45975.14
575.17	45778.54
575.33	46017.27
575.49	45631.08
575.65	46183.45
575.82	45933.01
575.98	45993.87
576.14	45893.22
576.30	46440.91
576.46	46103.87
576.62	46178.77
576.79	46370.69
576.95	45935.35
577.11	46031.32
577.27	46342.61
577.43	46337.93
577.59	46033.66
577.75	45900.25
577.92	45780.88
578.08	45703.64
578.24	45652.15
578.40	46075.79
578.56	46270.05
578.72	45933.01
578.88	46272.39
579.04	45942.38
579.21	46017.27
579.37	46204.52
579.53	46117.92
579.69	46124.94
579.85	46464.32
580.01	46216.22
580.17	45876.84
580.33	45893.22
580.49	46216.22
580.65	46223.24
580.82	46204.52
580.98	46043.02
581.14	46258.35
581.30	46377.72
581.46	46153.02
581.62	46195.15
581.78	46099.19
581.94	46520.49
582.10	45979.82
582.26	45984.51
582.42	46660.92
582.58	46120.26
582.74	46239.62
582.90	46073.45
583.06	46492.40
583.22	46396.44
583.38	46579.00
583.54	46239.62
583.70	46326.22
583.86	46417.50
584.02	46061.74
584.18	46522.83
584.34	46033.66
584.50	45968.12
584.66	45834.71
584.82	46258.35
584.98	46646.88
585.14	46260.69
585.30	46178.77
585.46	46586.02
585.62	46014.93
585.78	46019.61
585.94	45638.11
586.10	46190.47
586.26	45879.18
586.42	46382.40
586.58	46298.14
586.74	46316.86
586.90	46024.29
587.06	46450.27
587.22	46237.28
587.38	46216.22
587.54	46410.48
587.70	46656.24
587.86	46373.03
588.02	45743.43
588.18	46328.56
588.34	46115.58
588.49	45670.87
588.65	45523.42
588.81	46014.93
588.97	46110.89
589.13	45918.97
589.29	45757.47
589.45	45993.87
589.61	46110.89
589.77	46356.65
589.93	46195.15
590.08	46366.01
590.24	46211.54
590.40	46672.62
590.56	46380.06
590.72	46564.96
590.88	46059.40
591.04	46583.68
591.20	46916.04
591.35	46656.24
591.51	46986.25
591.67	46735.82
591.83	46454.95
591.99	46469.00
592.15	46368.35
592.31	46232.60
592.46	46436.23
592.62	46188.13
592.78	46424.53
592.94	46258.35
593.10	46314.52
593.26	46426.87
593.41	46248.99
593.57	46174.09
593.73	46099.19
593.89	46710.07
594.05	46464.32
594.20	45918.97
594.36	46564.96
594.52	46293.46
594.68	46483.04
594.84	45825.35
594.99	46637.51
595.15	46351.97
595.31	46302.82
595.47	46284.09
595.62	46651.56
595.78	46298.14
595.94	46625.81
596.10	46433.89
596.25	46637.51
596.41	46632.83
596.57	46340.27
596.73	46373.03
596.88	46169.41
597.04	46843.48
597.20	46387.08
597.36	46323.88
597.51	46909.02
597.67	46590.70
597.83	46358.99
597.99	46735.82
598.14	46391.76
598.30	46398.78
598.46	46422.19
598.61	46576.66
598.77	46087.49
598.93	46644.54
599.09	46763.90
599.24	46862.21
599.40	46838.80
599.56	46532.19
599.71	46508.79
599.87	46564.96
600.03	46553.26
600.18	46164.73
600.34	46667.94
600.50	46279.41
600.65	46206.86
600.81	46850.50
600.97	46457.29
601.12	46506.44
601.28	46618.79
601.44	46340.27
601.59	46389.42
601.75	46188.13
601.91	46508.79
602.06	46225.58
602.22	46319.20
602.37	46653.90
602.53	46780.29
602.69	46440.91
602.84	46326.22
603.00	45949.40
603.16	46426.87
603.31	46375.37
603.47	46511.13
603.62	46532.19
603.78	46550.91
603.94	46096.85
604.09	46806.03
604.25	46504.10
604.40	46504.10
604.56	46110.89
604.71	46770.93
604.87	46469.00
605.03	45977.48
605.18	46047.70
605.34	46300.48
605.49	45972.80
605.65	46284.09
605.80	46019.61
605.96	46265.37
606.12	46195.15
606.27	46827.10
606.43	46298.14
606.58	46684.33
606.74	46106.21
606.89	46026.63
607.05	46513.47
607.20	46288.77
607.36	45888.54
607.51	46192.81
607.67	46209.20
607.82	46014.93
607.98	46092.17
608.13	45605.34
608.29	46073.45
608.44	45961.10
608.60	45687.26
608.75	45563.21
608.91	46258.35
609.06	46017.27
609.22	45626.40
609.37	45663.85
609.53	46061.74
609.68	45944.72
609.84	45942.38
609.99	45940.04
610.15	45954.08
610.30	45741.09
610.46	45467.25
610.61	45794.92
610.76	46017.27
610.92	46019.61
611.07	45841.73
611.23	45481.29
611.38	45558.53
611.54	45574.91
611.69	45694.28
611.84	45422.78
612.00	45441.50
612.15	45303.41
612.31	45324.47
612.46	45462.57
612.62	45652.15
612.77	45745.77
612.92	46110.89
613.08	45287.03
613.23	45635.77
613.39	45523.42
613.54	44994.46
613.69	45310.43
613.85	45298.73
614.00	45741.09
614.15	45560.87
614.31	45483.63
614.46	45668.53
614.62	45560.87
614.77	45825.35
614.92	45130.21
615.08	45074.04
615.23	45118.51
615.38	44769.77
615.54	44947.65
615.69	44907.86
615.84	45535.12
616.00	44893.82
616.15	44563.80
616.30	44896.16
616.46	44673.81
616.61	44875.09
616.76	44769.77
616.92	44374.22
617.07	44722.96
617.22	44540.39
617.37	44353.15
617.53	45357.24
617.68	45144.25
617.83	44624.65
617.99	44744.02
618.14	44919.56
618.29	45090.42
618.45	44240.81
618.60	44383.58
618.75	44355.49
618.90	44428.05
619.06	44664.44
619.21	44671.46
619.36	44898.50
619.51	44854.03
619.67	44514.65
619.82	44444.43
619.97	44650.40
620.12	44439.75
620.28	43889.73
620.43	44348.47
620.58	44271.23
620.73	44402.30
620.89	44643.38
621.04	43973.98
621.19	44062.93
621.34	44271.23
621.49	44430.39
621.65	44285.28
621.80	44109.74
621.95	44039.52
622.10	44261.87
622.25	43791.42
622.41	43454.39
622.56	44142.50
622.71	44313.36
622.86	44037.18
623.01	43901.43
623.16	44348.47
623.32	43746.95
623.47	43966.96
623.62	43831.21
623.77	43709.50
623.92	43840.57
624.07	43650.99
624.23	43536.30
624.38	43707.16
624.53	43655.67
624.68	43669.72
624.83	43789.08
624.98	43388.85
625.13	42946.49
625.29	43545.67
625.44	43356.08
625.59	43421.62
625.74	43241.40
625.89	43171.18
626.04	43042.45
626.19	43168.84
626.34	43112.67
626.49	43194.59
626.65	43285.87
626.80	43562.05
626.95	43344.38
627.10	43213.31
627.25	43309.27
627.40	42836.48
627.55	43014.37
627.70	42726.48
627.85	42539.24
628.00	42422.21
628.15	42635.20
628.30	42752.23
628.45	43079.90
628.60	42815.42
628.76	42834.14
628.91	42766.27
629.06	42525.19
629.21	42724.14
629.36	42583.71
629.51	42321.57
629.66	42480.72
629.81	42707.76
629.96	42279.44
630.11	42600.09
630.26	42904.36
630.41	42857.55
630.56	42410.51
630.71	42691.37
630.86	42447.96
631.01	42178.79
631.16	42239.65
631.31	41851.12
631.46	42167.09
631.61	42445.62
631.76	42462.00
631.91	42363.70
632.06	42291.14
632.21	42328.59
632.36	41998.57
632.51	41811.33
632.66	42031.34
632.81	42010.28
632.96	42316.89
633.10	42113.26
633.25	41617.07
633.40	41816.01
633.55	42265.39
633.70	41780.90
633.85	41848.78
634.00	41949.42
634.15	41591.32
634.30	41696.64
634.45	41680.26
634.60	41670.90
634.75	41383.01
634.90	41460.25
635.05	41324.50
635.19	41783.24
635.34	41797.29
635.49	41497.70
635.64	41670.90
635.79	41446.21
635.94	41289.39
636.09	41827.71
636.24	41263.64
636.39	40680.85
636.53	41333.86
636.68	41378.33
636.83	41331.52
636.98	41350.24
637.13	40828.30
637.28	41371.31
637.43	41528.13
637.57	41467.27
637.72	40992.14
637.87	41443.87
638.02	41872.18
638.17	41134.92
638.32	41380.67
638.46	41209.81
638.61	41095.13
638.76	41184.07
638.91	40910.22
639.06	40804.90
639.20	40781.49
639.35	41022.57
639.50	40966.40
639.65	41029.59
639.80	40928.95
639.94	41069.38
640.09	40493.61
640.24	40549.78
640.39	40711.28
640.54	40261.90
640.68	40722.98
640.83	40837.67
640.98	40844.69
641.13	40603.61
641.27	40631.70
641.42	40636.38
641.57	40428.07
641.72	40404.67
641.86	40636.38
642.01	39840.60
642.16	40217.43
642.31	39803.15
642.45	40416.37
642.60	40079.33
642.75	40210.40
642.90	40325.09
643.04	40392.97
643.19	40060.61
643.34	40383.60
643.48	39983.37
643.63	40044.23
643.78	39803.15
643.93	40196.36
644.07	39807.83
644.22	40205.72
644.37	39768.04
644.51	39817.19
644.66	39880.39
644.81	40137.85
644.95	39971.67
645.10	39849.96
645.25	40079.33
645.39	40154.23
645.54	40292.32
645.69	39648.68
645.83	39803.15
645.98	39856.98
646.13	39924.86
646.27	39639.31
646.42	39777.40
646.57	39248.44
646.71	39285.89
646.86	39573.78
647.00	39992.73
647.15	40100.40
647.30	39189.93
647.44	39377.17
647.59	39707.19
647.74	39452.07
647.88	39475.48
648.03	39243.76
648.17	39578.46
648.32	39512.92
648.47	39126.74
648.61	39220.36
648.76	39512.92
648.90	39728.25
649.05	39009.71
649.20	39243.76
649.34	39072.90
649.49	39007.37
649.63	38862.26
649.78	39480.16
649.92	38590.75
650.07	39496.54
650.21	39005.03
650.36	39180.57
650.51	39089.29
650.65	39388.88
650.80	39189.93
650.94	39255.46
651.09	39302.28
651.23	39180.57
651.38	38246.69
651.52	38703.10
651.67	38665.65
651.81	38747.57
651.96	38684.37
652.10	38593.09
652.25	38976.94
652.39	38417.55
652.54	38515.86
652.68	38724.16
652.83	38677.35
652.97	38773.31
653.12	38417.55
653.26	38080.52
653.41	38567.35
653.55	38302.87
653.70	38005.62
653.84	38841.19
653.99	38209.25
654.13	38300.53
654.27	38110.94
654.42	38085.20
654.56	37951.79
654.71	38190.52
654.85	38445.64
655.00	38038.39
655.14	37858.17
655.29	37858.17
655.43	37598.37
655.57	37890.93
655.72	37785.61
655.86	37474.32
656.01	37345.59
656.15	37436.87
656.30	37832.42
656.44	37268.35
656.58	37378.36
656.73	37584.32
656.87	37684.97
657.01	37455.59
657.16	37586.66
657.30	37099.83
657.45	37223.88
657.59	37521.13
657.73	37457.93
657.88	37743.48
658.02	37755.18
658.16	37579.64
658.31	37490.70
658.45	37558.58
658.60	37029.62
658.74	37364.31
658.88	37399.42
659.03	36861.10
659.17	37029.62
659.31	37046.00
659.46	36931.31
659.60	37102.17
659.74	36802.58
659.89	36879.82
660.03	36477.25
660.17	36912.59
660.32	36870.46
660.46	37181.75
660.60	36821.31
660.74	36676.19
660.89	36608.32
661.03	36678.54
661.17	36517.04
661.32	36325.11
661.46	36437.46
661.60	36503.00
661.74	36608.32
661.89	36266.60
662.03	36147.23
662.17	36161.28
662.31	36142.55
662.46	36519.38
662.60	36027.87
662.74	35817.22
662.88	36201.07
663.03	35803.17
663.17	35833.60
663.31	35573.80
663.45	35477.84
663.60	36062.97
663.74	35737.64
663.88	35819.56
664.02	35592.53
664.17	35910.84
664.31	35587.85
664.45	35278.89
664.59	35744.66
664.73	35337.41
664.88	35487.20
665.02	35484.86
665.16	35229.74
665.30	34965.26
665.44	35068.25
665.59	34642.27
665.73	35150.17
665.87	34586.10
666.01	35119.74
666.15	34728.87
666.29	34991.01
666.44	35061.22
666.58	34527.58
666.72	34197.57
666.86	34602.48
667.00	34946.54
667.14	34373.11
667.28	34536.94
667.43	34412.90
667.57	34389.49
667.71	34476.09
667.85	34583.76
667.99	34078.20
668.13	34345.02
668.27	34038.41
668.41	34265.44
668.56	33895.64
668.70	34040.75
668.84	33897.98
668.98	33448.60
669.12	33846.49
669.26	33324.55
669.40	33233.27
669.54	33469.66
669.68	33729.46
669.82	33415.83
669.96	33336.25
670.10	33249.65
670.25	33415.83
670.39	33118.58
670.53	33254.33
670.67	33240.29
670.81	32844.74
670.95	33081.13
671.09	32989.85
671.23	33048.36
671.37	32753.46
671.51	32388.33
671.65	32301.73
671.79	32472.59
671.93	32519.40
672.07	32968.79
672.21	32217.47
672.35	32315.78
672.49	32350.88
672.63	32589.62
672.77	32245.56
672.91	32348.54
673.05	32016.19
673.19	32095.77
673.33	31690.85
673.47	31737.66
673.61	31510.63
673.75	31456.80
673.89	31246.15
674.03	31129.12
674.17	31599.57
674.31	31440.42
674.45	31159.55
674.59	31405.31
674.73	31197.00
674.87	31218.07
675.01	31136.15
675.15	31070.61
675.29	31227.43
675.43	31187.64
675.56	31044.87
675.70	31246.15
675.84	30492.50
675.98	30197.59
676.12	30520.59
676.26	30614.21
676.40	30249.08
676.54	30738.26
676.68	30749.96
676.82	30291.21
676.96	30415.26
677.10	30239.72
677.23	30096.95
677.37	29729.48
677.51	29944.81
677.65	29659.27
677.79	29273.08
677.93	29069.45
678.07	28800.29
678.21	29158.39
678.34	28807.31
678.48	28938.38
678.62	28858.81
678.76	28154.30
678.90	28910.30
679.04	28781.57
679.18	28669.22
679.31	28332.18
679.45	27861.74
679.59	27917.91
679.73	28222.18
679.87	28142.60
680.00	28290.06
680.14	28189.41
680.28	28308.78
680.42	28088.77
680.56	27728.33
680.70	27733.01
680.83	27887.48
680.97	27742.37
681.11	27583.21
681.25	27000.42
681.39	27594.92
681.52	27459.16
681.66	27241.50
681.80	26911.48
681.94	27225.11
682.07	26675.09
682.21	26913.82
682.35	26560.40
682.49	26911.48
682.62	26410.60
682.76	26642.32
682.90	26394.22
683.04	26340.39
683.17	26249.11
683.31	25710.78
683.45	26118.04
683.59	25867.60
683.72	25912.07
683.86	25942.50
684.00	25940.16
684.13	25273.10
684.27	25188.85
684.41	25345.66
684.55	25240.34
684.68	25509.50
684.82	25212.25
684.96	25116.29
685.09	25090.54
685.23	25111.61
685.37	24680.95
685.50	24828.40
685.64	24336.89
685.78	24126.24
685.91	24348.59
686.05	24318.17
686.19	24236.25
686.32	24098.16
686.46	23529.41
686.60	23669.84
686.73	23630.05
686.87	23269.61
687.01	23101.09
687.14	23484.94
687.28	23037.89
687.42	23267.27
687.55	23101.09
687.69	23332.80
687.82	22855.33
687.96	23218.11
688.10	22911.50
688.23	22817.88
688.37	22544.04
688.50	22689.15
688.64	22768.73
688.78	22792.14
688.91	22125.08
689.05	22525.32
689.18	22164.87
689.32	22136.79
689.46	22195.30
689.59	22197.64
689.73	22403.61
689.86	22033.80
690.00	21851.24
690.13	21820.81
690.27	21429.94
690.41	21626.55
690.54	21191.21
690.68	21172.49
690.81	21343.35
690.95	21600.80
691.08	21160.78
691.22	21130.36
691.35	21277.81
691.49	21116.31
691.62	21256.75
691.76	20987.58
691.89	20718.42
692.03	20648.21
692.16	20521.82
692.30	20329.89
692.43	20383.73
692.57	20367.34
692.70	20144.99
692.84	20205.84
692.97	20149.67
693.11	19985.83
693.24	19761.14
693.38	19789.23
693.51	19770.51
693.65	19871.15
693.78	19702.63
693.92	19473.26
694.05	19613.69
694.19	19442.83
694.32	19499.00
694.45	19140.90
694.59	19002.81
694.72	19044.94
694.86	19044.94
694.99	18944.30
695.13	18806.20
695.26	18841.31
695.39	18775.78
695.53	18956.00
695.66	18457.46
695.80	18869.40
695.93	18579.17
696.07	18420.02
696.20	18324.05
696.33	18377.89
696.47	18466.83
696.60	18204.69
696.73	17961.27
696.87	17685.09
697.00	17846.58
697.14	18038.51
697.27	17563.38
697.40	17591.47
697.54	17649.98
697.67	17334.01
697.80	17614.87
697.94	17041.44
698.07	17275.49
698.21	17137.40
698.34	16989.95
698.47	17193.58
698.61	16690.36
698.74	16886.97
698.87	16720.79
699.01	16322.90
699.14	16372.05
699.27	16362.69
699.40	16453.97
699.54	16519.50
699.67	16184.80
699.80	16320.56
699.94	16067.78
700.07	15943.73
700.20	16116.93
700.34	16133.31
700.47	16280.77
700.60	15995.22
700.73	16107.57
700.87	15934.37
701.00	15686.27
701.13	15695.63
701.26	15410.09
701.40	15536.48
701.53	15276.68
701.66	15358.60
701.79	15084.75
701.93	15147.95
702.06	15112.84
702.19	14890.49
702.32	15152.63
702.46	14752.40
702.59	14731.33
702.72	15002.83
702.85	14813.25
702.99	14773.46
703.12	14768.78
703.25	14415.36
703.38	14530.05
703.51	14401.32
703.65	14504.30
703.78	14471.53
703.91	14071.30
704.04	14080.66
704.17	14115.77
704.31	13965.98
704.44	14024.49
704.57	13818.52
704.70	13989.38
704.83	13755.33
704.96	13762.35
705.10	13837.25
705.23	13767.03
>>>>>End Processed Spectral Data<<<<<
