SpectraSuite Data File
++++++++++++++++++++++++++++++++++++
Date: Fri Oct 25 10:47:36 EDT 2013
User: price-jones
Dark Spectrum Present: No
Reference Spectrum Present: No
Number of Sampled Component Spectra: 1
Spectrometers: USB2+H05261
Integration Time (usec): 100000 (USB2+H05261)
Spectra Averaged: 1 (USB2+H05261)
Boxcar Smoothing: 0 (USB2+H05261)
Correct for Electrical Dark: No (USB2+H05261)
Strobe/Lamp Enabled: No (USB2+H05261)
Correct for Detector Non-linearity: No (USB2+H05261)
Correct for Stray Light: No (USB2+H05261)
Number of Pixels in Processed Spectrum: 2048
>>>>>Begin Processed Spectral Data<<<<<
365.73	65.54
365.92	65.54
366.12	65.54
366.32	23.41
366.52	39.79
366.72	81.92
366.91	49.15
367.11	77.24
367.31	58.51
367.51	53.83
367.70	28.09
367.90	135.75
368.10	72.56
368.30	44.47
368.49	28.09
368.69	81.92
368.89	95.96
369.09	42.13
369.28	53.83
369.48	88.94
369.68	74.90
369.87	74.90
370.07	65.54
370.27	147.45
370.47	147.45
370.66	290.23
370.86	395.55
371.06	409.59
371.25	596.84
371.45	468.11
371.65	428.32
371.84	407.25
372.04	416.62
372.24	435.34
372.44	416.62
372.63	463.43
372.83	482.15
373.03	493.85
373.22	519.60
373.42	526.62
373.62	596.84
373.81	491.51
374.01	554.71
374.21	559.39
374.40	535.98
374.60	519.60
374.79	512.58
374.99	573.43
375.19	526.62
375.38	559.39
375.58	547.69
375.78	648.33
375.97	608.54
376.17	674.07
376.37	580.45
376.56	552.37
376.76	550.03
376.95	540.66
377.15	521.94
377.35	606.20
377.54	615.56
377.74	641.31
377.93	615.56
378.13	613.22
378.33	702.16
378.52	660.03
378.72	645.99
378.91	706.84
379.11	599.18
379.31	624.92
379.50	622.58
379.70	718.54
379.89	664.71
380.09	610.88
380.28	629.60
380.48	667.05
380.68	601.52
380.87	662.37
381.07	648.33
381.26	751.31
381.46	631.94
381.65	685.78
381.85	606.20
382.04	610.88
382.24	681.10
382.43	643.65
382.63	552.37
382.83	653.01
383.02	653.01
383.22	676.41
383.41	730.25
383.61	624.92
383.80	727.91
384.00	781.74
384.19	800.46
384.39	798.12
384.58	685.78
384.78	812.17
384.97	800.46
385.17	835.57
385.36	767.70
385.56	704.50
385.75	851.96
385.95	713.86
386.14	823.87
386.34	734.93
386.53	901.11
386.72	795.78
386.92	812.17
387.11	786.42
387.31	795.78
387.50	777.06
387.70	793.44
387.89	854.30
388.09	798.12
388.28	758.33
388.48	788.76
388.67	868.34
388.86	917.49
389.06	880.04
389.25	842.59
389.45	903.45
389.64	884.72
389.84	849.61
390.03	877.70
390.22	915.15
390.42	919.83
390.61	898.77
390.81	964.30
391.00	922.17
391.19	943.24
391.39	880.04
391.58	1057.92
391.78	936.21
391.97	1013.45
392.16	947.92
392.36	1008.77
392.55	973.66
392.75	926.85
392.94	1001.75
393.13	973.66
393.33	1001.75
393.52	1036.86
393.71	1116.44
393.91	1055.58
394.10	1001.75
394.29	1109.41
394.49	985.37
394.68	1116.44
394.88	1083.67
395.07	1090.69
395.26	1029.84
395.46	1167.93
395.65	1196.01
395.84	1074.31
396.04	1174.95
396.23	1032.18
396.42	1123.46
396.62	1160.91
396.81	1200.69
397.00	1118.78
397.19	1144.52
397.39	1156.22
397.58	1320.06
397.77	1235.80
397.97	1329.42
398.16	1245.16
398.35	1369.21
398.55	1341.13
398.74	1345.81
398.93	1404.32
399.12	1343.47
399.32	1336.45
399.51	1392.62
399.70	1493.26
399.90	1453.47
400.09	1416.02
400.28	1423.05
400.47	1385.60
400.67	1488.58
400.86	1521.35
401.05	1598.59
401.24	1453.47
401.44	1537.73
401.63	1502.62
401.82	1584.54
402.01	1514.33
402.21	1565.82
402.40	1619.65
402.59	1549.43
402.78	1542.41
402.97	1490.92
403.17	1675.82
403.36	1636.03
403.55	1640.72
403.74	1643.06
403.93	1652.42
404.13	1750.72
404.32	1678.16
404.51	1703.91
404.70	1708.59
404.89	1626.67
405.09	1743.70
405.28	1774.13
405.47	1830.30
405.66	1785.83
405.85	1682.85
406.05	1806.89
406.24	1834.98
406.43	1865.41
406.62	1886.47
406.81	1909.88
407.00	1879.45
407.20	1865.41
407.39	1856.04
407.58	1877.11
407.77	1849.02
407.96	1994.14
408.15	1998.82
408.34	1942.64
408.54	2104.14
408.73	2036.27
408.92	2017.54
409.11	2036.27
409.30	2176.70
409.49	2017.54
409.68	2026.90
409.87	2120.53
410.07	2132.23
410.26	2141.59
410.45	2169.68
410.64	2246.91
410.83	2270.32
411.02	2246.91
411.21	2298.41
411.40	2338.20
411.59	2279.68
411.78	2298.41
411.98	2389.69
412.17	2392.03
412.36	2417.77
412.55	2464.58
412.74	2525.44
412.93	2373.30
413.12	2464.58
413.31	2672.89
413.50	2656.51
413.69	2609.70
413.88	2761.83
414.07	2534.80
414.26	2717.36
414.45	2705.66
414.64	2593.31
414.83	2759.49
415.02	2750.13
415.22	2878.86
415.41	2883.54
415.60	2857.79
415.79	2904.60
415.98	2909.29
416.17	2949.08
416.36	2932.69
416.55	2951.42
416.74	3045.04
416.93	2911.63
417.12	2993.55
417.31	3030.99
417.50	3094.19
417.69	3131.64
417.88	3077.80
418.07	3075.46
418.26	3089.51
418.45	3108.23
418.64	3215.90
418.83	3255.69
419.02	3192.49
419.21	3199.51
419.39	3180.79
419.58	3152.70
419.77	3122.27
419.96	3349.31
420.15	3332.92
420.34	3293.13
420.53	3480.38
420.72	3363.35
420.91	3389.10
421.10	3365.69
421.29	3412.50
421.48	3400.80
421.67	3637.19
421.86	3351.65
422.05	3517.83
422.24	3480.38
422.43	3452.29
422.61	3658.26
422.80	3482.72
422.99	3513.14
423.18	3510.80
423.37	3627.83
423.56	3578.68
423.75	3679.32
423.94	3592.72
424.13	3384.41
424.32	3454.63
424.50	3501.44
424.69	3520.17
424.88	3763.58
425.07	3613.79
425.26	3475.70
425.45	3630.17
425.64	3529.53
425.83	3583.36
426.01	3815.07
426.20	3590.38
426.39	3566.98
426.58	3548.25
426.77	3564.64
426.96	3705.07
427.15	3620.81
427.33	3691.02
427.52	3737.84
427.71	3602.08
427.90	3674.64
428.09	3611.45
428.28	3941.46
428.46	3763.58
428.65	3772.94
428.84	3899.33
429.03	4025.72
429.22	3712.09
429.40	3915.72
429.59	3906.35
429.78	3765.92
429.97	3770.60
430.16	3604.42
430.34	3880.61
430.53	3997.64
430.72	3978.91
430.91	3950.82
431.10	4095.94
431.28	4140.41
431.47	4217.65
431.66	4379.14
431.85	4152.11
432.03	4212.96
432.22	4327.65
432.41	4257.43
432.60	4411.91
432.79	4320.63
432.97	4337.01
433.16	4376.80
433.35	4177.86
433.54	4351.06
433.72	4280.84
433.91	4269.14
434.10	4503.19
434.28	4360.42
434.47	4432.97
434.66	4482.13
434.85	4550.00
435.03	4571.07
435.22	4669.37
435.41	4779.37
435.59	4622.56
435.78	4765.33
435.97	4571.07
436.16	4652.98
436.34	4552.34
436.53	4636.60
436.72	4952.57
436.90	4641.28
437.09	4786.40
437.28	4589.79
437.46	4641.28
437.65	4788.74
437.84	4662.35
438.02	4849.59
438.21	4828.53
438.40	4741.93
438.58	5057.90
438.77	4924.49
438.96	4901.08
439.14	5186.63
439.33	5144.50
439.52	5259.18
439.70	5076.62
439.89	5212.37
440.08	5146.84
440.26	5165.56
440.45	5142.16
440.63	5331.74
440.82	5366.85
441.01	5322.38
441.19	5411.32
441.38	5507.28
441.57	5591.54
441.75	5631.33
441.94	5654.73
442.12	5731.97
442.31	5816.23
442.50	5741.33
442.68	5689.84
442.87	5731.97
443.05	5790.49
443.24	5813.89
443.43	5909.85
443.61	5968.37
443.80	6031.56
443.98	5675.80
444.17	5589.20
444.35	5870.06
444.54	6090.07
444.73	5806.87
444.91	5907.51
445.10	5867.72
445.28	5977.73
445.47	5933.26
445.65	5898.15
445.84	5933.26
446.02	6005.81
446.21	5994.11
446.39	5832.62
446.58	6059.65
446.77	6164.97
446.95	5858.36
447.14	6022.20
447.32	6246.89
447.51	6047.94
447.69	6150.93
447.88	6031.56
448.06	6071.35
448.25	6118.16
448.43	6186.04
448.62	6115.82
448.80	6092.41
448.99	5987.09
449.17	6207.10
449.36	6305.40
449.54	6513.71
449.73	6335.83
449.91	6502.01
450.10	6476.26
450.28	6445.84
450.46	6546.48
450.65	6593.29
450.83	6628.40
451.02	6520.73
451.20	6665.85
451.39	6509.03
451.57	6590.95
451.76	6401.37
451.94	6579.25
452.13	6670.53
452.31	6590.95
452.49	6457.54
452.68	6722.02
452.86	6651.80
453.05	6672.87
453.23	6670.53
453.42	6633.08
453.60	6782.87
453.78	6771.17
453.97	6640.10
454.15	6832.02
454.34	6719.68
454.52	6909.26
454.70	6743.08
454.89	7012.24
455.07	6836.70
455.26	6902.24
455.44	7040.33
455.62	7012.24
455.81	6867.13
455.99	7098.84
456.17	7185.44
456.36	7218.21
456.54	7162.04
456.73	7129.27
456.91	7489.71
457.09	7419.50
457.28	7501.42
457.46	7286.09
457.64	7304.81
457.83	7597.38
458.01	7463.97
458.19	7391.41
458.38	7435.88
458.56	7616.10
458.74	7517.80
458.93	7588.02
459.11	7548.23
459.29	7644.19
459.48	7786.96
459.66	7480.35
459.84	7625.47
460.03	7763.56
460.21	7990.59
460.39	7768.24
460.57	7843.14
460.76	7941.44
460.94	7920.37
461.12	7714.41
461.31	7906.33
461.49	7932.08
461.67	7761.22
461.85	8004.63
462.04	8063.15
462.22	8477.42
462.40	8021.02
462.59	8081.87
462.77	8189.53
462.95	8236.35
463.13	8140.38
463.32	8140.38
463.50	8318.26
463.68	8112.30
463.86	8226.98
464.05	8051.44
464.23	8084.21
464.41	8374.44
464.59	8182.51
464.78	8456.36
464.96	8386.14
465.14	8161.45
465.32	8409.54
465.50	8498.49
465.69	8454.02
465.87	8208.26
466.05	8311.24
466.23	8407.20
466.41	8381.46
466.60	8606.15
466.78	8299.54
466.96	8411.89
467.14	8514.87
467.32	8540.61
467.51	8622.53
467.69	8472.74
467.87	8657.64
468.05	8741.90
468.23	8547.64
468.41	8500.83
468.60	8688.07
468.78	8919.78
468.96	8688.07
469.14	8917.44
469.32	8884.67
469.50	8739.56
469.69	8779.35
469.87	8896.38
470.05	9020.42
470.23	9149.15
470.41	9102.34
470.59	9210.01
470.77	9231.07
470.95	9158.52
471.14	9305.97
471.32	9022.77
471.50	9558.75
471.68	9600.88
471.86	9432.36
472.04	9406.61
472.22	9652.37
472.40	9305.97
472.58	9547.05
472.77	9701.52
472.95	9645.35
473.13	9928.55
473.31	9619.60
473.49	9678.12
473.67	9816.21
473.85	9921.53
474.03	10026.86
474.21	9935.57
474.39	9966.00
474.57	9984.73
474.75	10263.25
474.93	10422.41
475.12	10153.24
475.30	10368.57
475.48	10394.32
475.66	10431.77
475.84	10377.94
476.02	10349.85
476.20	10532.41
476.38	10689.23
476.56	10965.41
476.74	10998.18
476.92	10949.03
477.10	10754.76
477.28	11096.48
477.46	11084.78
477.64	11122.23
477.82	11316.49
478.00	11641.82
478.18	11515.44
478.36	11468.62
478.54	11777.58
478.72	11810.34
478.90	11812.68
479.08	11983.54
479.26	11983.54
479.44	12217.60
479.62	12308.88
479.80	12084.19
479.98	12400.16
480.16	12498.46
480.34	12428.24
480.52	12769.96
480.70	12875.29
480.88	12510.16
481.06	12996.99
481.24	12929.12
481.41	12980.61
481.59	13069.55
481.77	13301.26
481.95	13474.46
482.13	13322.33
482.31	13453.40
482.49	13752.99
482.67	13493.19
482.85	14033.85
483.03	14054.92
483.21	14071.30
483.39	14216.41
483.57	14185.99
483.74	14260.88
483.92	14537.07
484.10	14317.06
484.28	14640.05
484.46	14902.19
484.64	14967.73
484.82	15047.30
485.00	15016.88
485.18	15192.42
485.35	15421.79
485.53	15119.86
485.71	15103.48
485.89	15484.98
486.07	15290.72
486.25	15742.44
486.43	15735.42
486.61	15845.43
486.78	16039.69
486.96	16240.98
487.14	16409.50
487.32	16308.85
487.50	16486.73
487.68	16521.84
487.85	17027.40
488.03	17568.06
488.21	17460.40
488.39	17268.47
488.57	17371.46
488.75	17909.78
488.92	17568.06
489.10	18015.10
489.28	18242.14
489.46	18097.02
489.64	18398.95
489.81	18352.14
489.99	18731.31
490.17	18508.96
490.35	18892.80
490.53	18993.45
490.70	19103.45
490.88	19283.67
491.06	19232.18
491.24	19206.44
491.41	19257.93
491.59	19754.12
491.77	19335.17
491.95	19728.38
492.13	20030.30
492.30	20142.65
492.48	20051.37
492.66	20130.95
492.84	20229.25
493.01	20699.70
493.19	20699.70
493.37	20697.36
493.54	20657.57
493.72	21085.89
493.90	20929.07
494.08	21352.71
494.25	21341.00
494.43	21582.08
494.61	21582.08
494.79	21727.19
494.96	21336.32
495.14	21673.36
495.32	22167.21
495.49	21841.88
495.67	22059.55
495.85	22293.60
496.02	22644.68
496.20	22651.70
496.38	22602.55
496.55	22738.30
496.73	23393.65
496.91	22909.16
497.09	23356.21
497.26	23442.81
497.44	23428.76
497.62	23234.50
497.79	23644.09
497.97	23770.48
498.14	23793.89
498.32	23950.70
498.50	23976.45
498.67	24210.50
498.85	24123.90
499.03	24245.61
499.20	24334.55
499.38	24809.68
499.56	24868.19
499.73	24556.90
499.91	24753.51
500.08	25170.12
500.26	24793.29
500.44	24945.43
500.61	24889.26
500.79	24863.51
500.97	25369.07
501.14	25755.26
501.32	25556.31
501.49	25474.39
501.67	25586.74
501.84	25750.57
502.02	25680.36
502.20	25811.43
502.37	25991.65
502.55	25741.21
502.72	25600.78
502.90	26302.94
503.07	26541.68
503.25	26354.43
503.43	26352.09
503.60	26426.99
503.78	26459.76
503.95	26324.01
504.13	26749.98
504.30	26724.24
504.48	27002.76
504.65	27157.24
504.83	27040.21
505.01	27452.14
505.18	27634.71
505.36	27850.03
505.53	27449.80
505.71	27655.77
505.88	27798.54
506.06	27356.18
506.23	27669.81
506.41	27679.18
506.58	28245.58
506.76	27681.52
506.93	28603.69
507.11	28116.86
507.28	28217.50
507.46	28053.66
507.63	28147.28
507.81	28606.03
507.98	28545.17
508.16	28229.20
508.33	28556.88
508.50	28943.06
508.68	29020.30
508.85	29230.95
509.03	29216.91
509.20	29282.44
509.38	29160.73
509.55	29528.20
509.73	29523.52
509.90	29448.62
510.08	29338.62
510.25	29240.31
510.42	29376.06
510.60	30036.09
510.77	30146.10
510.95	30195.25
511.12	29982.26
511.30	30024.39
511.47	30206.95
511.64	30672.72
511.82	30286.53
511.99	30141.42
512.17	30586.12
512.34	30562.72
512.51	31082.31
512.69	30930.18
512.86	31068.27
513.04	31138.49
513.21	30672.72
513.38	31108.06
513.56	31079.97
513.73	30890.39
513.90	31630.00
514.08	31211.04
514.25	31241.47
514.43	31608.93
514.60	31442.76
514.77	31185.30
514.95	31721.28
515.12	31934.27
515.29	31800.86
515.47	31725.96
515.64	31974.06
515.81	32133.21
515.99	32088.74
516.16	32142.58
516.33	31761.07
516.51	31934.27
516.68	31548.08
516.85	31831.29
517.03	31934.27
517.20	32355.57
517.37	32526.42
517.54	32538.13
517.72	32517.06
517.89	32271.31
518.06	32669.20
518.24	32507.70
518.41	33123.26
518.58	32577.92
518.75	33055.39
518.93	32879.85
519.10	33109.22
519.27	33261.35
519.45	33507.11
519.62	33567.96
519.79	33818.40
519.96	33401.79
520.14	33792.65
520.31	33518.81
520.48	33858.19
520.65	34007.98
520.83	33977.56
521.00	33919.04
521.17	34164.80
521.34	33928.41
521.52	34529.92
521.69	34073.52
521.86	34197.57
522.03	34567.37
522.20	34382.47
522.38	34682.06
522.55	34588.44
522.72	34403.53
522.89	34597.80
523.07	34555.67
523.24	34185.86
523.41	34422.26
523.58	34752.27
523.75	35414.65
523.92	35236.77
524.10	35321.02
524.27	35452.09
524.44	35498.91
524.61	35475.50
524.78	35365.49
524.96	35681.47
525.13	35735.30
525.30	35871.05
525.47	35978.72
525.64	36067.66
525.81	35934.24
525.98	35295.28
526.16	35880.41
526.33	35625.29
526.50	36226.81
526.67	35901.48
526.84	35819.56
527.01	35641.68
527.18	36247.88
527.36	36187.02
527.53	36034.89
527.70	36676.19
527.87	36444.48
528.04	36374.27
528.21	36322.77
528.38	36514.70
528.55	36753.43
528.72	36811.95
528.89	37184.09
529.07	37186.43
529.24	36835.35
529.41	37031.96
529.58	37003.87
529.75	37013.23
529.92	37184.09
530.09	37502.40
530.26	37347.93
530.43	37303.46
530.60	36573.21
530.77	37869.87
530.94	37673.26
531.11	37841.78
531.28	37624.11
531.46	37748.16
531.63	37574.96
531.80	37387.72
531.97	37483.68
532.14	37544.53
532.31	37347.93
532.48	37691.99
532.65	38192.86
532.82	37687.31
532.99	37750.50
533.16	37776.25
533.33	37621.77
533.50	38040.73
533.67	38223.29
533.84	37904.98
534.01	38541.60
534.18	37909.66
534.35	37942.42
534.52	38646.93
534.69	38333.29
534.86	38883.32
535.03	38286.48
535.20	38796.72
535.37	38948.85
535.54	38913.75
535.71	38469.04
535.88	38803.74
536.05	38370.74
536.22	39110.35
536.38	39384.19
536.55	38590.75
536.72	38953.54
536.89	39007.37
537.06	38967.58
537.23	39332.70
537.40	39210.99
537.57	39194.61
537.74	39313.98
537.91	39641.65
538.08	39754.00
538.25	39421.64
538.42	38983.96
538.59	39728.25
538.75	39023.75
538.92	39463.77
539.09	39351.43
539.26	39831.24
539.43	39732.93
539.60	39639.31
539.77	39484.84
539.94	39711.87
540.11	39564.42
540.28	39676.76
540.44	39512.92
540.61	39709.53
540.78	39625.27
540.95	40282.96
541.12	39969.33
541.29	40088.70
541.46	39992.73
541.62	39714.21
541.79	40472.54
541.96	39969.33
542.13	40236.15
542.30	40102.74
542.47	39971.67
542.63	40189.34
542.80	40194.02
542.97	40821.28
543.14	40727.66
543.31	40825.96
543.48	40891.50
543.64	41282.37
543.81	40687.87
543.98	41109.17
544.15	40676.17
544.32	40924.27
544.48	41413.44
544.65	40928.95
544.82	41219.17
544.99	40678.51
545.16	41137.26
545.32	41249.60
545.49	41186.41
545.66	41200.45
545.83	41434.50
546.00	41518.76
546.16	41427.48
546.33	40994.48
546.50	41244.92
546.67	41418.12
546.83	40945.33
547.00	41111.51
547.17	41565.57
547.34	41448.55
547.50	41961.12
547.67	41806.65
547.84	41696.64
548.00	41713.03
548.17	41947.08
548.34	41801.97
548.51	42237.31
548.67	42204.54
548.84	42391.78
549.01	41998.57
549.18	41940.06
549.34	42150.71
549.51	42253.69
549.68	42288.80
549.84	42454.98
550.01	42101.56
550.18	42134.32
550.34	41862.82
550.51	42071.13
550.68	42124.96
550.84	42192.84
551.01	42347.31
551.18	42288.80
551.34	42490.09
551.51	42735.84
551.68	42391.78
551.84	42525.19
552.01	42504.13
552.18	42658.60
552.34	42618.81
552.51	43084.58
552.68	42913.72
552.84	43019.05
553.01	43414.60
553.18	42635.20
553.34	42885.64
553.51	42366.04
553.67	42916.06
553.84	43395.87
554.01	43091.60
554.17	43316.29
554.34	43201.61
554.51	43318.64
554.67	42820.10
554.84	43049.47
555.00	42866.91
555.17	43297.57
555.33	43117.35
555.50	43650.99
555.67	43325.66
555.83	43271.82
556.00	43246.08
556.16	43400.55
556.33	43323.32
556.50	43262.46
556.66	43716.53
556.83	43351.40
556.99	43576.09
557.16	43922.49
557.32	43622.90
557.49	43812.49
557.65	43054.15
557.82	43419.28
557.98	43049.47
558.15	43557.37
558.32	43173.52
558.48	43922.49
558.65	43604.18
558.81	43281.19
558.98	43335.02
559.14	43356.08
559.31	43285.87
559.47	43285.87
559.64	44121.44
559.80	43711.84
559.97	43686.10
560.13	43571.41
560.30	43477.79
560.46	43737.59
560.63	43924.83
560.79	44278.25
560.96	44151.87
561.12	43927.17
561.29	43931.86
561.45	44025.48
561.61	44116.76
561.78	44170.59
561.94	43962.28
562.11	43831.21
562.27	44264.21
562.44	44261.87
562.60	44072.29
562.77	44069.95
562.93	43866.32
563.10	44694.87
563.26	44018.46
563.42	44282.94
563.59	43899.09
563.75	44367.20
563.92	44409.32
564.08	44121.44
564.24	44516.99
564.41	44788.49
564.57	44194.00
564.74	44126.12
564.90	44367.20
565.07	44470.18
565.23	44369.54
565.39	43927.17
565.56	44624.65
565.72	44126.12
565.88	44289.96
566.05	44467.84
566.21	43915.47
566.38	44554.44
566.54	44308.68
566.70	44622.31
566.87	44940.63
567.03	44322.72
567.19	45167.66
567.36	44624.65
567.52	44091.01
567.68	44821.26
567.85	44612.95
568.01	44575.50
568.17	44463.16
568.34	44935.95
568.50	44252.51
568.66	44509.97
568.83	44664.44
568.99	44233.78
569.15	44451.45
569.32	44336.77
569.48	44205.70
569.64	44870.41
569.81	44498.26
569.97	44194.00
570.13	44451.45
570.30	44524.01
570.46	44474.86
570.62	44163.57
570.78	44311.02
570.95	44741.68
571.11	44596.57
571.27	44477.20
571.43	44507.63
571.60	45006.16
571.76	44748.70
571.92	44729.98
572.09	44308.68
572.25	44795.51
572.41	44236.12
572.57	44662.10
572.74	45188.72
572.90	44884.45
573.06	44996.80
573.22	44982.76
573.38	44671.46
573.55	44439.75
573.71	44935.95
573.87	44575.50
574.03	44339.11
574.20	44975.73
574.36	44367.20
574.52	44975.73
574.68	45036.59
574.84	44584.86
575.01	44498.26
575.17	44552.10
575.33	44765.09
575.49	44531.03
575.65	44917.22
575.82	45380.65
575.98	44903.18
576.14	44847.00
576.30	45015.52
576.46	44128.46
576.62	44987.44
576.79	44992.12
576.95	44318.04
577.11	44886.79
577.27	44917.22
577.43	44692.53
577.59	44673.81
577.75	44725.30
577.92	44832.96
578.08	44446.77
578.24	44472.52
578.40	44414.01
578.56	44706.57
578.72	44865.73
578.88	44886.79
579.04	45202.77
579.21	44655.08
579.37	44566.14
579.53	44926.58
579.69	45013.18
579.85	44809.56
580.01	45127.87
580.17	44671.46
580.33	45198.09
580.49	44942.97
580.65	44753.38
580.82	45104.46
580.98	44715.93
581.14	44907.86
581.30	44942.97
581.46	44715.93
581.62	44832.96
581.78	44858.71
581.94	44945.31
582.10	44713.59
582.26	45523.42
582.42	44680.83
582.58	44921.90
582.74	45113.83
582.90	45118.51
583.06	45125.53
583.22	45558.53
583.38	44825.94
583.54	45532.78
583.70	45109.14
583.86	45265.96
584.02	44772.11
584.18	45160.64
584.34	45095.10
584.50	45354.90
584.66	44924.24
584.82	44851.69
584.98	45310.43
585.14	45102.12
585.30	44594.23
585.46	44959.35
585.62	44971.05
585.78	44533.37
585.94	44449.11
586.10	45015.52
586.26	44381.24
586.42	45242.56
586.58	45301.07
586.74	45209.79
586.90	45134.89
587.06	44746.36
587.22	44711.25
587.38	44926.58
587.54	44978.07
587.70	45553.85
587.86	44680.83
588.02	45331.50
588.18	45640.45
588.34	45076.38
588.49	44776.79
588.65	44898.50
588.81	44662.10
588.97	44638.70
589.13	44765.09
589.29	45111.49
589.45	44968.71
589.61	45031.91
589.77	44980.42
589.93	45303.41
590.08	45345.54
590.24	45347.88
590.40	45158.30
590.56	45390.01
590.72	45387.67
590.88	44973.39
591.04	45081.06
591.20	45687.26
591.35	45406.39
591.51	45614.70
591.67	45680.24
591.83	45282.34
591.99	45008.50
592.15	44769.77
592.31	45052.97
592.46	45057.65
592.62	45024.89
592.78	45642.79
592.94	45237.87
593.10	45244.90
593.26	45214.47
593.41	45113.83
593.57	44903.18
593.73	45036.59
593.89	45600.66
594.05	45230.85
594.20	45202.77
594.36	45560.87
594.52	45284.68
594.68	45525.76
594.84	45144.25
594.99	45605.34
595.15	45322.13
595.31	45715.34
595.47	45326.81
595.62	45209.79
595.78	45642.79
595.94	45319.79
596.10	45401.71
596.25	45411.07
596.41	45092.76
596.57	45420.44
596.73	45577.25
596.88	45160.64
597.04	45324.47
597.20	45270.64
597.36	45057.65
597.51	45418.10
597.67	45488.31
597.83	45340.86
597.99	46045.36
598.14	45490.65
598.30	45258.94
598.46	45432.14
598.61	45509.38
598.77	45322.13
598.93	45141.91
599.09	45418.10
599.24	45642.79
599.40	45916.63
599.56	45911.95
599.71	45464.91
599.87	45696.62
600.03	45682.58
600.18	44978.07
600.34	45289.37
600.50	45432.14
600.65	45537.46
600.81	45806.62
600.97	46007.91
601.12	45996.21
601.28	46160.05
601.44	45048.29
601.59	45434.48
601.75	45378.31
601.91	45242.56
602.06	45275.32
602.22	45038.93
602.37	45605.34
602.53	45354.90
602.69	45577.25
602.84	45436.82
603.00	45778.54
603.16	45488.31
603.31	45457.88
603.47	45495.33
603.62	45102.12
603.78	45811.31
603.94	45392.35
604.09	45755.13
604.25	45591.30
604.40	45296.39
604.56	45256.60
604.71	45572.57
604.87	45228.51
605.03	45909.61
605.18	45132.55
605.34	45336.18
605.49	45516.40
605.65	44935.95
605.80	44903.18
605.96	45551.51
606.12	45366.60
606.27	45422.78
606.43	45186.38
606.58	45167.66
606.74	44807.22
606.89	44994.46
607.05	45162.98
607.20	45551.51
607.36	44973.39
607.51	45649.81
607.67	45413.41
607.82	45038.93
607.98	45230.85
608.13	45310.43
608.29	45478.95
608.44	44715.93
608.60	44521.67
608.75	44928.92
608.91	45315.11
609.06	44601.25
609.22	45055.31
609.37	45038.93
609.53	45141.91
609.68	45069.36
609.84	44839.98
609.99	44957.01
610.15	44554.44
610.30	44795.51
610.46	44601.25
610.61	44907.86
610.76	44959.35
610.92	44650.40
611.07	45006.16
611.23	44966.37
611.38	44788.49
611.54	44556.78
611.69	44418.69
611.84	44837.64
612.00	44573.16
612.15	44605.93
612.31	44725.30
612.46	44708.91
612.62	44713.59
612.77	44641.04
612.92	44807.22
613.08	44603.59
613.23	44783.81
613.39	44514.65
613.54	44203.36
613.69	44542.74
613.85	44069.95
614.00	44603.59
614.15	44868.07
614.31	44629.34
614.46	45209.79
614.62	44414.01
614.77	44130.80
614.92	44734.66
615.08	44165.91
615.23	44151.87
615.38	44186.97
615.54	43995.05
615.69	44357.83
615.84	43789.08
616.00	43892.07
616.15	44112.08
616.30	43917.81
616.46	43845.26
616.61	44058.24
616.76	44329.75
616.92	44030.16
617.07	43875.68
617.22	44102.71
617.37	44002.07
617.53	44334.43
617.68	44037.18
617.83	44140.16
617.99	44294.64
618.14	43824.19
618.29	43810.15
618.45	43842.92
618.60	43990.37
618.75	43985.69
618.90	43641.63
619.06	44201.02
619.21	43835.89
619.36	43620.56
619.51	43730.57
619.67	43758.66
619.82	43494.18
619.97	43856.96
620.12	43522.26
620.28	43129.05
620.43	43304.59
620.58	43882.70
620.73	43421.62
620.89	43367.79
621.04	43353.74
621.19	43519.92
621.34	43276.51
621.49	42997.98
621.65	43349.06
621.80	43405.23
621.95	43241.40
622.10	43416.94
622.25	42782.65
622.41	43089.26
622.56	43138.41
622.71	43730.57
622.86	43332.68
623.01	43161.82
623.16	42866.91
623.32	43615.88
623.47	43213.31
623.62	43522.26
623.77	43129.05
623.92	43515.24
624.07	43210.97
624.23	43136.07
624.38	42932.45
624.53	42913.72
624.68	42705.41
624.83	42979.26
624.98	42974.58
625.13	42295.82
625.29	42562.64
625.44	42756.91
625.59	42354.33
625.74	42417.53
625.89	42284.12
626.04	42541.58
626.19	42543.92
626.34	42588.39
626.49	42887.98
626.65	42270.08
626.80	42763.93
626.95	42256.03
627.10	42302.84
627.25	41937.72
627.40	42089.85
627.55	42021.98
627.70	41708.35
627.85	41888.57
628.00	42061.77
628.15	42728.82
628.30	42059.43
628.45	42344.97
628.60	41811.33
628.76	42131.98
628.91	42321.57
629.06	42162.41
629.21	42164.75
629.36	42206.88
629.51	41792.61
629.66	41937.72
629.81	41979.85
629.96	41563.23
630.11	42167.09
630.26	41928.36
630.41	41900.27
630.56	41764.52
630.71	41631.11
630.86	41687.28
631.01	41558.55
631.16	41624.09
631.31	41261.30
631.46	40751.07
631.61	41563.23
631.76	41570.25
631.91	41600.68
632.06	41567.91
632.21	41474.29
632.36	41883.89
632.51	41493.02
632.66	40985.12
632.81	40987.46
632.96	41612.38
633.10	41397.06
633.25	41134.92
633.40	41120.87
633.55	41738.77
633.70	41420.46
633.85	41120.87
634.00	41439.18
634.15	41282.37
634.30	41141.94
634.45	41088.10
634.60	40924.27
634.75	40793.20
634.90	40999.16
635.05	41329.18
635.19	40989.80
635.34	41593.66
635.49	41359.61
635.64	41038.95
635.79	40809.58
635.94	41085.76
636.09	40854.05
636.24	40612.98
636.39	40678.51
636.53	40294.66
636.68	40325.09
636.83	40582.55
636.98	41060.02
637.13	40538.08
637.28	40650.42
637.43	40627.02
637.57	40851.71
637.72	40690.21
637.87	40538.08
638.02	40378.92
638.17	40212.74
638.32	40486.59
638.46	40542.76
638.61	40390.62
638.76	40144.87
638.91	40402.33
639.06	40474.88
639.20	40491.27
639.35	40608.29
639.50	40374.24
639.65	40809.58
639.80	40737.02
639.94	39856.98
640.09	39995.07
640.24	40156.57
640.39	39606.55
640.54	39812.51
640.68	40072.31
640.83	39580.80
640.98	40198.70
641.13	39882.73
641.27	40079.33
641.42	39943.58
641.57	40062.95
641.72	40397.65
641.86	39711.87
642.01	39646.33
642.16	39793.79
642.31	39311.64
642.45	39707.19
642.60	39459.09
642.75	39662.72
642.90	39725.91
643.04	39580.80
643.19	39915.50
643.34	39489.52
643.48	39641.65
643.63	39688.46
643.78	39290.57
643.93	39316.32
644.07	39243.76
644.22	39218.02
644.37	39440.37
644.51	39370.15
644.66	39311.64
644.81	39309.30
644.95	39700.17
645.10	39381.85
645.25	39592.50
645.39	39548.03
645.54	39480.16
645.69	39592.50
645.83	38995.67
645.98	39321.00
646.13	39459.09
646.27	39187.59
646.42	39026.09
646.57	39377.17
646.71	39267.17
646.86	38895.02
647.00	39442.71
647.15	39056.52
647.30	38937.15
647.44	39056.52
647.59	38803.74
647.74	39171.21
647.88	38651.61
648.03	38651.61
648.17	38618.84
648.32	38635.22
648.47	38597.77
648.61	38478.41
648.76	39086.95
648.90	38557.99
649.05	38719.48
649.20	38555.64
649.34	39136.10
649.49	38555.64
649.63	38543.94
649.78	38801.40
649.92	38576.71
650.07	39117.37
650.21	38644.59
650.36	38132.01
650.51	38897.36
650.65	38653.95
650.80	38529.90
650.94	38876.30
651.09	38630.54
651.23	38199.88
651.38	38169.46
651.52	38422.23
651.67	38234.99
651.81	38003.28
651.96	38314.57
652.10	38225.63
652.25	37860.51
652.39	38120.31
652.54	37893.27
652.68	38473.73
652.83	38153.07
652.97	38061.79
653.12	38176.48
653.26	37958.81
653.41	38012.64
653.55	37624.11
653.70	37479.00
653.84	37619.43
653.99	37844.12
654.13	37785.61
654.27	37553.90
654.42	37876.89
654.56	37813.70
654.71	37530.49
654.85	37933.06
655.00	37439.21
655.14	37567.94
655.29	37118.56
655.43	37516.45
655.57	37425.17
655.72	37174.73
655.86	37874.55
656.01	37251.97
656.15	37249.63
656.30	37249.63
656.44	37315.16
656.58	37153.66
656.73	37099.83
656.87	37268.35
657.01	36781.52
657.16	36975.78
657.30	37291.76
657.45	36847.05
657.59	36898.55
657.73	36961.74
657.88	36917.27
658.02	36809.61
658.16	37397.08
658.31	37055.36
658.45	37111.53
658.60	36540.44
658.74	37179.41
658.88	36898.55
659.03	36776.84
659.17	36629.38
659.31	36669.17
659.46	36128.51
659.60	36900.89
659.74	36500.65
659.89	35920.20
660.03	36425.76
660.17	36734.71
660.32	36458.52
660.46	37312.82
660.60	36275.96
660.74	36147.23
660.89	36332.14
661.03	36044.25
661.17	35922.54
661.32	35737.64
661.46	35828.92
661.60	35601.89
661.74	36149.57
661.89	35672.10
662.03	35747.00
662.17	35861.69
662.31	35625.29
662.46	35555.08
662.60	35859.35
662.74	36027.87
662.88	35192.30
663.03	35842.96
663.17	35952.97
663.31	35604.23
663.45	35667.42
663.60	35426.35
663.74	35253.15
663.88	35096.33
664.02	34700.78
664.17	35644.02
664.31	34991.01
664.45	34789.72
664.59	35372.52
664.73	34740.57
664.88	35133.78
665.02	34735.89
665.16	34806.11
665.30	35040.16
665.44	34190.55
665.59	34466.73
665.73	34321.62
665.87	34396.51
666.01	34054.79
666.15	34824.83
666.29	34602.48
666.44	34590.78
666.58	34646.95
666.72	34347.36
666.86	34665.67
667.00	33956.49
667.14	34094.58
667.28	33867.55
667.43	33495.41
667.57	33684.99
667.71	33694.35
667.85	34000.96
667.99	33596.05
668.13	33654.56
668.27	33605.41
668.41	33802.02
668.56	33319.87
668.70	33509.45
668.84	33621.80
668.98	33198.16
669.12	33310.50
669.26	33383.06
669.40	32503.02
669.54	32968.79
669.68	33186.46
669.82	33457.96
669.96	33013.26
670.10	32627.07
670.25	32816.65
670.39	33266.03
670.53	32996.87
670.67	32638.77
670.81	32816.65
670.95	33226.24
671.09	32606.00
671.23	32552.17
671.37	32528.77
671.51	32156.62
671.65	32657.49
671.79	32275.99
671.93	32189.39
672.07	32542.81
672.21	32173.00
672.35	32320.46
672.49	32297.05
672.63	32002.14
672.77	31887.46
672.91	31969.38
673.05	31749.37
673.19	31756.39
673.33	31400.63
673.47	31250.83
673.61	31365.52
673.75	31215.72
673.89	31161.89
674.03	31047.21
674.17	31204.02
674.31	31117.42
674.45	31381.90
674.59	31171.25
674.73	31550.42
674.87	31222.75
675.01	31094.02
675.15	31267.22
675.29	30852.94
675.43	30602.50
675.56	30614.21
675.70	30876.35
675.84	30614.21
675.98	29411.17
676.12	30223.34
676.26	29951.84
676.40	30033.75
676.54	29694.38
676.68	29879.28
676.82	29631.18
676.96	29893.32
677.10	29465.00
677.23	29780.98
677.37	29844.17
677.51	29549.26
677.65	29113.92
677.79	29280.10
677.93	29139.67
678.07	29420.53
678.21	28657.52
678.34	29170.10
678.48	28779.23
678.62	28828.38
678.76	28648.16
678.90	28650.50
679.04	28575.60
679.18	28493.68
679.31	28208.14
679.45	28065.36
679.59	28163.67
679.73	28217.50
679.87	28041.96
680.00	28166.01
680.14	27835.99
680.28	28081.75
680.42	27599.60
680.56	27454.48
680.70	27513.00
680.83	27241.50
680.97	27236.81
681.11	27136.17
681.25	27150.21
681.39	26878.71
681.52	27119.79
681.66	26974.67
681.80	27070.64
681.94	26471.46
682.07	26515.93
682.21	26663.38
682.35	26508.91
682.49	26345.07
682.62	26677.43
682.76	26197.62
682.90	26178.89
683.04	26064.21
683.17	26448.05
683.31	26066.55
683.45	25984.63
683.59	25633.55
683.72	25603.12
683.86	25336.30
684.00	25380.77
684.13	25448.64
684.27	25598.44
684.41	25294.17
684.55	25167.78
684.68	24809.68
684.82	25020.33
684.96	24994.58
685.09	24716.06
685.23	24388.38
685.37	24608.39
685.50	24816.70
685.64	24416.47
685.78	24329.87
685.91	24453.92
686.05	24594.35
686.19	23978.79
686.32	23906.23
686.46	23655.79
686.60	23396.00
686.73	23431.10
686.87	23255.56
687.01	23323.44
687.14	23487.28
687.28	23173.64
687.42	23445.15
687.55	22979.38
687.69	23243.86
687.82	22857.67
687.96	22934.91
688.10	22710.22
688.23	22539.36
688.37	22539.36
688.50	22480.85
688.64	22232.75
688.78	22398.93
688.91	22478.50
689.05	22366.16
689.18	22127.42
689.32	21757.62
689.46	22338.07
689.59	22040.82
689.73	22036.14
689.86	22024.44
690.00	21668.68
690.13	22209.34
690.27	21748.26
690.41	21268.45
690.54	21261.43
690.68	21120.99
690.81	21235.68
690.95	21277.81
691.08	20629.48
691.22	20865.88
691.35	20936.09
691.49	21139.72
691.62	20802.68
691.76	20779.28
691.89	20290.10
692.03	20514.80
692.16	20395.43
692.30	20210.53
692.43	20486.71
692.57	20137.97
692.70	20252.66
692.84	20236.27
692.97	20011.58
693.11	19719.01
693.24	19328.14
693.38	19805.61
693.51	19393.68
693.65	19571.56
693.78	19676.88
693.92	19311.76
694.05	19129.20
694.19	19541.13
694.32	19220.48
694.45	19164.31
694.59	18972.38
694.72	18867.06
694.86	18768.76
694.99	18864.72
695.13	18647.05
695.26	18651.73
695.39	18471.51
695.53	18508.96
695.66	18436.40
695.80	18698.54
695.93	18223.41
696.07	18099.36
696.20	18326.39
696.33	18052.55
696.47	18164.90
696.60	17980.00
696.73	17582.10
696.87	17813.82
697.00	17834.88
697.14	17987.02
697.27	17664.02
697.40	17633.60
697.54	17362.09
697.67	17617.21
697.80	17254.43
697.94	17303.58
698.07	17149.11
698.21	17003.99
698.34	17090.59
698.47	17090.59
698.61	16460.99
698.74	16755.90
698.87	16531.20
699.01	16369.71
699.14	16252.68
699.27	16369.71
699.40	16102.89
699.54	16306.51
699.67	16294.81
699.80	16311.19
699.94	16201.19
700.07	16074.80
700.20	16049.05
700.34	16159.06
700.47	15971.82
700.60	15779.89
700.73	15995.22
700.87	16091.18
701.00	15606.69
701.13	15295.40
701.26	15527.11
701.40	15328.17
701.53	15208.80
701.66	15508.39
701.79	15281.36
701.93	14960.70
702.06	14707.93
702.19	14923.26
702.32	14899.85
702.46	14998.15
702.59	14864.74
702.72	14672.82
702.85	14520.68
702.99	14728.99
703.12	14579.20
703.25	14728.99
703.38	14457.49
703.51	14153.22
703.65	14209.39
703.78	14239.82
703.91	14092.37
704.04	13830.23
704.17	14036.19
704.31	13970.66
704.44	13713.20
704.57	13659.37
704.70	13624.26
704.83	13532.98
704.96	13888.74
705.10	13853.63
705.23	13792.78
>>>>>End Processed Spectral Data<<<<<
