SpectraSuite Data File
++++++++++++++++++++++++++++++++++++
Date: Fri Oct 25 11:33:34 EDT 2013
User: price-jones
Dark Spectrum Present: No
Reference Spectrum Present: No
Number of Sampled Component Spectra: 1
Spectrometers: USB2+H05261
Integration Time (usec): 100000 (USB2+H05261)
Spectra Averaged: 1 (USB2+H05261)
Boxcar Smoothing: 0 (USB2+H05261)
Correct for Electrical Dark: No (USB2+H05261)
Strobe/Lamp Enabled: No (USB2+H05261)
Correct for Detector Non-linearity: No (USB2+H05261)
Correct for Stray Light: No (USB2+H05261)
Number of Pixels in Processed Spectrum: 2048
>>>>>Begin Processed Spectral Data<<<<<
365.73	236.39
365.92	236.39
366.12	236.39
366.32	215.33
366.52	224.69
366.72	170.86
366.91	184.90
367.11	145.11
367.31	180.22
367.51	180.22
367.70	227.03
367.90	170.86
368.10	210.65
368.30	163.84
368.49	114.69
368.69	238.73
368.89	210.65
369.09	184.90
369.28	212.99
369.48	215.33
369.68	198.95
369.87	234.05
370.07	236.39
370.27	205.97
370.47	325.33
370.66	435.34
370.86	491.51
371.06	561.73
371.25	533.64
371.45	554.71
371.65	526.62
371.84	521.94
372.04	545.34
372.24	587.47
372.44	596.84
372.63	533.64
372.83	538.32
373.03	596.84
373.22	575.77
373.42	554.71
373.62	573.43
373.81	638.97
374.01	685.78
374.21	662.37
374.40	615.56
374.60	657.69
374.79	692.80
374.99	683.44
375.19	610.88
375.38	653.01
375.58	645.99
375.78	667.05
375.97	706.84
376.17	699.82
376.37	662.37
376.56	608.54
376.76	641.31
376.95	589.82
377.15	678.76
377.35	681.10
377.54	624.92
377.74	699.82
377.93	631.94
378.13	650.67
378.33	711.52
378.52	744.29
378.72	716.20
378.91	767.70
379.11	678.76
379.31	702.16
379.50	655.35
379.70	791.10
379.89	732.59
380.09	725.57
380.28	727.91
380.48	704.50
380.68	704.50
380.87	746.63
381.07	734.93
381.26	772.38
381.46	734.93
381.65	746.63
381.85	763.01
382.04	823.87
382.24	821.53
382.43	858.98
382.63	758.33
382.83	746.63
383.02	840.25
383.22	748.97
383.41	819.19
383.61	826.21
383.80	887.06
384.00	737.27
384.19	847.27
384.39	765.36
384.58	772.38
384.78	758.33
384.97	873.02
385.17	741.95
385.36	830.89
385.56	833.23
385.75	908.13
385.95	919.83
386.14	812.17
386.34	882.38
386.53	866.00
386.72	819.19
386.92	856.64
387.11	868.34
387.31	847.27
387.50	905.79
387.70	954.94
387.89	943.24
388.09	868.34
388.28	873.02
388.48	964.30
388.67	858.98
388.86	922.17
389.06	971.32
389.25	880.04
389.45	959.62
389.64	905.79
389.84	954.94
390.03	915.15
390.22	964.30
390.42	919.83
390.61	866.00
390.81	980.68
391.00	1078.99
391.19	1050.90
391.39	1039.20
391.58	1071.97
391.78	1060.26
391.97	980.68
392.16	938.55
392.36	1074.31
392.55	1060.26
392.75	1015.79
392.94	1043.88
393.13	1057.92
393.33	1083.67
393.52	1067.28
393.71	1043.88
393.91	1097.71
394.10	1013.45
394.29	1100.05
394.49	1149.20
394.68	1128.14
394.88	1160.91
395.07	1233.46
395.26	1104.73
395.46	1137.50
395.65	1214.74
395.84	1090.69
396.04	1191.33
396.23	1163.25
396.42	1207.72
396.62	1226.44
396.81	1219.42
397.00	1350.49
397.19	1245.16
397.39	1259.21
397.58	1242.82
397.77	1284.95
397.97	1259.21
398.16	1219.42
398.35	1284.95
398.55	1397.30
398.74	1306.02
398.93	1348.15
399.12	1350.49
399.32	1299.00
399.51	1310.70
399.70	1369.21
399.90	1296.66
400.09	1383.26
400.28	1401.98
400.47	1416.02
400.67	1469.86
400.86	1432.41
401.05	1451.13
401.24	1423.05
401.44	1453.47
401.63	1507.30
401.82	1416.02
402.01	1446.45
402.21	1430.07
402.40	1460.49
402.59	1528.37
402.78	1420.71
402.97	1514.33
403.17	1495.60
403.36	1502.62
403.55	1629.01
403.74	1593.90
403.93	1645.40
404.13	1516.67
404.32	1600.93
404.51	1668.80
404.70	1570.50
404.89	1493.26
405.09	1650.08
405.28	1694.55
405.47	1706.25
405.66	1661.78
405.85	1741.36
406.05	1629.01
406.24	1715.61
406.43	1746.04
406.62	1872.43
406.81	1717.95
407.00	1727.32
407.20	1818.60
407.39	1748.38
407.58	1802.21
407.77	1799.87
407.96	1870.09
408.15	1881.79
408.34	1771.79
408.54	1949.67
408.73	2054.99
408.92	1853.70
409.11	2019.88
409.30	1919.24
409.49	1935.62
409.68	1935.62
409.87	1977.75
410.07	2026.90
410.26	2001.16
410.45	2071.37
410.64	2043.29
410.83	2031.58
411.02	2237.55
411.21	2174.36
411.40	2167.34
411.59	2197.76
411.78	2244.57
411.98	2195.42
412.17	2298.41
412.36	2235.21
412.55	2286.70
412.74	2270.32
412.93	2291.38
413.12	2291.38
413.31	2434.16
413.50	2335.85
413.69	2466.92
413.88	2450.54
414.07	2396.71
414.26	2509.05
414.45	2506.71
414.64	2583.95
414.83	2635.44
415.02	2560.55
415.22	2551.18
415.41	2703.32
415.60	2614.38
415.79	2775.88
415.98	2747.79
416.17	2698.64
416.36	2612.04
416.55	2677.57
416.74	2773.53
416.93	2768.85
417.12	2860.13
417.31	2888.22
417.50	2920.99
417.69	2977.16
417.88	2988.86
418.07	3021.63
418.26	2909.29
418.45	3038.02
418.64	3148.02
418.83	3035.67
419.02	2972.48
419.21	3183.13
419.39	3087.17
419.58	3066.10
419.77	3019.29
419.96	3162.06
420.15	3208.87
420.34	3243.98
420.53	3204.19
420.72	3335.26
420.91	3187.81
421.10	3220.58
421.29	3276.75
421.48	3297.81
421.67	3279.09
421.86	3293.13
422.05	3307.18
422.24	3229.94
422.43	3286.11
422.61	3391.44
422.80	3314.20
422.99	3295.47
423.18	3393.78
423.37	3459.31
423.56	3424.20
423.75	3375.05
423.94	3307.18
424.13	3253.34
424.32	3258.03
424.50	3410.16
424.69	3510.80
424.88	3592.72
425.07	3400.80
425.26	3267.39
425.45	3543.57
425.64	3508.46
425.83	3419.52
426.01	3431.23
426.20	3419.52
426.39	3515.48
426.58	3480.38
426.77	3534.21
426.96	3595.06
427.15	3508.46
427.33	3684.00
427.52	3358.67
427.71	3473.36
427.90	3637.19
428.09	3632.51
428.28	3695.71
428.46	3681.66
428.65	3578.68
428.84	3719.11
429.03	3824.44
429.22	3679.32
429.40	3728.47
429.59	3817.41
429.78	3758.90
429.97	3620.81
430.16	3836.14
430.34	3754.22
430.53	3927.42
430.72	3915.72
430.91	3943.80
431.10	3735.50
431.28	3904.01
431.47	4070.19
431.66	4018.70
431.85	4011.68
432.03	4161.47
432.22	4119.34
432.41	4072.53
432.60	4044.45
432.79	3997.64
432.97	4191.90
433.16	4091.26
433.35	4018.70
433.54	4175.52
433.72	4297.22
433.91	4072.53
434.10	4117.00
434.28	4163.81
434.47	4294.88
434.66	4243.39
434.85	4236.37
435.03	4428.29
435.22	4278.50
435.41	4400.21
435.59	4400.21
435.78	4461.06
435.97	4477.44
436.16	4334.67
436.34	4400.21
436.53	4500.85
436.72	4369.78
436.90	4388.50
437.09	4592.13
437.28	4456.38
437.46	4475.10
437.65	4482.13
437.84	4578.09
438.02	4564.04
438.21	4652.98
438.40	4528.94
438.58	4847.25
438.77	4713.84
438.96	4692.77
439.14	4833.21
439.33	4924.49
439.52	4809.80
439.70	4814.48
439.89	4915.12
440.08	4929.17
440.26	4992.36
440.45	4908.10
440.63	5149.18
440.82	5102.37
441.01	5135.14
441.19	5287.27
441.38	5235.78
441.57	5259.18
441.75	5313.02
441.94	5472.17
442.12	5516.64
442.31	5427.70
442.50	5355.15
442.68	5394.93
442.87	5605.58
443.05	5509.62
443.24	5664.10
443.43	5551.75
443.61	5518.98
443.80	5720.27
443.98	5526.00
444.17	5268.55
444.35	5530.69
444.54	5633.67
444.73	5497.92
444.91	5437.06
445.10	5533.03
445.28	5617.29
445.47	5533.03
445.65	5657.07
445.84	5664.10
446.02	5802.19
446.21	5767.08
446.39	5624.31
446.58	5682.82
446.77	5720.27
446.95	5509.62
447.14	5734.31
447.32	5921.56
447.51	5769.42
447.69	5650.05
447.88	5769.42
448.06	5657.07
448.25	5666.44
448.43	5830.27
448.62	5685.16
448.80	5834.96
448.99	5809.21
449.17	5891.13
449.36	6019.86
449.54	5916.87
449.73	6153.27
449.91	6115.82
450.10	6024.54
450.28	6310.08
450.46	6120.50
450.65	6218.80
450.83	6066.67
451.02	6221.14
451.20	6282.00
451.39	6174.33
451.57	6146.25
451.76	6258.59
451.94	6298.38
452.13	6258.59
452.31	6160.29
452.49	6303.06
452.68	6260.93
452.86	6389.66
453.05	6340.51
453.23	6370.94
453.42	6310.08
453.60	6368.60
453.78	6331.15
453.97	6523.07
454.15	6487.96
454.34	6356.90
454.52	6593.29
454.70	6303.06
454.89	6523.07
455.07	6377.96
455.26	6698.61
455.44	6743.08
455.62	6740.74
455.81	6733.72
455.99	6628.40
456.17	6820.32
456.36	6817.98
456.54	6799.26
456.73	6789.89
456.91	6871.81
457.09	7026.29
457.28	7098.84
457.46	6967.77
457.64	6956.07
457.83	7054.37
458.01	6951.39
458.19	7227.57
458.38	7108.21
458.56	7208.85
458.74	7068.42
458.93	7211.19
459.11	7089.48
459.29	7250.98
459.48	7126.93
459.66	7199.49
459.84	7269.70
460.03	7372.69
460.21	7295.45
460.39	7279.07
460.57	7307.15
460.76	7330.56
460.94	7438.22
461.12	7653.55
461.31	7503.76
461.49	7492.05
461.67	7527.16
461.85	7648.87
462.04	7466.31
462.22	7896.97
462.40	7880.58
462.59	7648.87
462.77	7742.49
462.95	7903.99
463.13	7847.82
463.32	7805.69
463.50	7674.62
463.68	7934.42
463.86	8077.19
464.05	7782.28
464.23	7845.48
464.41	7906.33
464.59	7801.01
464.78	8025.70
464.96	7826.75
465.14	7960.16
465.32	8175.49
465.50	8142.72
465.69	8271.45
465.87	8182.51
466.05	8072.51
466.23	8161.45
466.41	8194.22
466.60	8388.48
466.78	8124.00
466.96	8212.94
467.14	8161.45
467.32	8442.31
467.51	8259.75
467.69	8119.32
467.87	8215.28
468.05	8276.13
468.23	8336.99
468.41	8353.37
468.60	8411.89
468.78	8449.33
468.96	8334.65
469.14	8648.28
469.32	8737.22
469.50	8332.31
469.69	8816.80
469.87	8674.03
470.05	8819.14
470.23	8795.73
470.41	8681.05
470.59	8950.21
470.77	8919.78
470.95	8798.07
471.14	8975.95
471.32	8938.51
471.50	9097.66
471.68	9149.15
471.86	9020.42
472.04	9116.39
472.22	9500.23
472.40	9149.15
472.58	9235.75
472.77	9383.21
472.95	9378.53
473.13	9841.95
473.31	9462.79
473.49	9275.54
473.67	9516.62
473.85	9453.42
474.03	9565.77
474.21	9689.82
474.39	9865.36
474.57	9809.19
474.75	9818.55
474.93	9844.29
475.12	9926.21
475.30	10094.73
475.48	10012.81
475.66	10068.98
475.84	10033.88
476.02	10237.50
476.20	10148.56
476.38	10462.19
476.56	10619.01
476.74	10745.40
476.92	10487.94
477.10	10382.62
477.28	10623.69
477.46	10743.06
477.64	10707.95
477.82	10850.72
478.00	11178.40
478.18	11330.53
478.36	11164.36
478.54	11215.85
478.72	11328.19
478.90	11365.64
479.08	11611.40
479.26	11754.17
479.44	11524.80
479.62	11751.83
479.80	11658.21
479.98	12058.44
480.16	12334.62
480.34	11997.59
480.52	12217.60
480.70	12379.09
480.88	11906.31
481.06	12351.01
481.24	12446.97
481.41	12430.59
481.59	12479.74
481.77	12793.37
481.95	13123.38
482.13	12943.16
482.31	12842.52
482.49	13334.03
482.67	13348.08
482.85	13350.42
483.03	13708.52
483.21	13474.46
483.39	13635.96
483.57	13591.49
483.74	13844.27
483.92	14078.32
484.10	14066.62
484.28	14218.75
484.46	14600.26
484.64	14679.84
484.82	14602.60
485.00	14672.82
485.18	14937.30
485.35	15105.82
485.53	15030.92
485.71	15164.33
485.89	15379.66
486.07	15349.23
486.25	15606.69
486.43	15506.05
486.61	15655.84
486.78	15768.19
486.96	15941.39
487.14	16006.92
487.32	16269.06
487.50	16692.70
487.68	16383.75
487.85	16439.92
488.03	16570.99
488.21	16908.03
488.39	17092.93
488.57	16877.60
488.75	17207.62
488.92	17502.53
489.10	17511.89
489.28	17483.80
489.46	17799.77
489.64	17781.05
489.81	17853.61
489.99	17947.23
490.17	18178.94
490.35	18295.97
490.53	18492.57
490.70	18579.17
490.88	18427.04
491.06	19000.47
491.24	18967.70
491.41	18792.16
491.59	19183.03
491.77	19042.60
491.95	19440.49
492.13	19288.35
492.30	19393.68
492.48	19653.48
492.66	19590.28
492.84	19833.70
493.01	20044.35
493.19	19793.91
493.37	20240.95
493.54	20301.81
493.72	20458.62
493.90	20783.96
494.08	20671.61
494.25	21109.29
494.43	21149.08
494.61	21074.18
494.79	21301.22
494.96	21357.39
495.14	21397.18
495.32	21551.65
495.49	21259.09
495.67	21876.99
495.85	21958.91
496.02	22382.54
496.20	22267.86
496.38	22239.77
496.55	22380.20
496.73	22747.67
496.91	22590.85
497.09	22773.41
497.26	22745.33
497.44	23131.51
497.62	23194.71
497.79	23655.79
497.97	23285.99
498.14	23419.40
498.32	23716.65
498.50	23833.68
498.67	24041.98
498.85	23882.83
499.03	23976.45
499.20	24151.99
499.38	24261.99
499.56	24610.73
499.73	24233.91
499.91	24542.86
500.08	25245.02
500.26	24655.20
500.44	24790.95
500.61	24900.96
500.79	24641.16
500.97	24592.01
501.14	25598.44
501.32	25095.22
501.49	25294.17
501.67	25223.95
501.84	25654.61
502.02	25752.91
502.20	25792.70
502.37	25900.37
502.55	25486.09
502.72	25799.73
502.90	26073.57
503.07	25951.86
503.25	26052.50
503.43	26183.57
503.60	26380.18
503.78	26527.63
503.95	26270.17
504.13	26757.00
504.30	26794.45
504.48	26408.26
504.65	26764.03
504.83	26700.83
505.01	27557.47
505.18	27271.92
505.36	27370.22
505.53	27335.12
505.71	27288.31
505.88	27300.01
506.06	27449.80
506.23	27662.79
506.41	27573.85
506.58	27880.46
506.76	27974.08
506.93	27929.61
507.11	27585.55
507.28	28163.67
507.46	28037.28
507.63	28379.00
507.81	28666.88
507.98	28327.50
508.16	28545.17
508.33	28491.34
508.50	28685.61
508.68	28535.81
508.85	28678.58
509.03	29006.26
509.20	29039.03
509.38	29111.58
509.55	29219.25
509.73	29319.89
509.90	29567.99
510.08	29483.73
510.25	29392.45
510.42	29270.74
510.60	29968.22
510.77	29970.56
510.95	30031.41
511.12	29502.45
511.30	29993.97
511.47	29949.50
511.64	30349.73
511.82	30125.04
511.99	29802.04
512.17	30658.68
512.34	30403.56
512.51	30946.56
512.69	30700.81
512.86	30632.93
513.04	31049.55
513.21	30838.90
513.38	30951.24
513.56	31124.44
513.73	31166.57
513.90	31379.56
514.08	31023.80
514.25	31468.50
514.43	31112.74
514.60	31274.24
514.77	31805.54
514.95	31924.91
515.12	31290.62
515.29	31889.80
515.47	31751.71
515.64	32364.93
515.81	31672.13
515.99	32018.53
516.16	32261.94
516.33	32063.00
516.51	32458.55
516.68	32320.46
516.85	32210.45
517.03	32807.29
517.20	32662.18
517.37	32734.73
517.54	32877.51
517.72	32800.27
517.89	32645.79
518.06	32905.59
518.24	33273.06
518.41	32517.06
518.58	32945.38
518.75	32903.25
518.93	33034.32
519.10	33137.30
519.27	33083.47
519.45	33593.71
519.62	33523.49
519.79	33680.31
519.96	33336.25
520.14	33715.42
520.31	33654.56
520.48	33893.30
520.65	34136.71
520.83	34195.23
521.00	34448.00
521.17	34721.85
521.34	34211.61
521.52	34345.02
521.69	34373.11
521.86	34745.25
522.03	34562.69
522.20	34752.27
522.38	35285.92
522.55	34895.05
522.72	34656.31
522.89	35070.59
523.07	35613.59
523.24	35318.68
523.41	35393.58
523.58	35236.77
523.75	35639.34
523.92	35051.86
524.10	35414.65
524.27	35225.06
524.44	35428.69
524.61	35770.41
524.78	35637.00
524.96	35934.24
525.13	36290.01
525.30	35885.09
525.47	36135.53
525.64	36184.68
525.81	36409.37
525.98	36013.82
526.16	36222.13
526.33	36411.71
526.50	36306.39
526.67	36449.16
526.84	36559.17
527.01	36287.67
527.18	36685.56
527.36	37120.90
527.53	36882.16
527.70	36844.71
527.87	37301.12
528.04	36816.63
528.21	36921.95
528.38	37195.79
528.55	37043.66
528.72	37137.28
528.89	37043.66
529.07	36821.31
529.24	37347.93
529.41	37598.37
529.58	37273.03
529.75	37343.25
529.92	37394.74
530.09	37394.74
530.26	37387.72
530.43	37736.46
530.60	37809.01
530.77	37666.24
530.94	37991.58
531.11	37612.41
531.28	38155.41
531.46	37921.36
531.63	38150.73
531.80	37977.53
531.97	38602.46
532.14	38300.53
532.31	37921.36
532.48	38686.71
532.65	38611.82
532.82	38522.88
532.99	38855.23
533.16	38494.79
533.33	38745.23
533.50	38485.43
533.67	38731.18
533.84	38539.26
534.01	38693.74
534.18	38866.94
534.35	39199.29
534.52	38953.54
534.69	39658.04
534.86	39426.32
535.03	39056.52
535.20	39084.61
535.37	39496.54
535.54	39419.30
535.71	39000.35
535.88	39730.59
536.05	39765.70
536.22	39557.39
536.38	39679.10
536.55	39484.84
536.72	39725.91
536.89	39562.08
537.06	39938.90
537.23	39707.19
537.40	39768.04
537.57	39466.11
537.74	40088.70
537.91	40016.14
538.08	40058.27
538.25	39873.37
538.42	39983.37
538.59	40587.23
538.75	40383.60
538.92	40280.62
539.09	40741.71
539.26	40591.91
539.43	40409.35
539.60	40823.62
539.77	40577.87
539.94	40374.24
540.11	40982.78
540.28	40608.29
540.44	40713.62
540.61	40659.79
540.78	40212.74
540.95	40559.14
541.12	40360.20
541.29	40800.22
541.46	41273.01
541.62	41383.01
541.79	41375.99
541.96	41230.88
542.13	40823.62
542.30	40657.45
542.47	41254.28
542.63	41436.84
542.80	41521.10
542.97	41539.83
543.14	42092.19
543.31	41471.95
543.48	41949.42
543.64	42356.67
543.81	41811.33
543.98	42433.91
544.15	42143.69
544.32	42419.87
544.48	42351.99
544.65	42260.71
544.82	42190.50
544.99	42197.52
545.16	41881.55
545.32	42099.22
545.49	42445.62
545.66	42693.71
545.83	42822.44
546.00	42618.81
546.16	42770.95
546.33	42349.65
546.50	41965.81
546.67	42740.52
546.83	41930.70
547.00	42646.90
547.17	42349.65
547.34	42799.04
547.50	42480.72
547.67	43335.02
547.84	42852.87
548.00	42871.59
548.17	43536.30
548.34	43358.42
548.51	43239.06
548.67	43318.64
548.84	43199.27
549.01	43608.86
549.18	43555.03
549.34	43227.35
549.51	43590.14
549.68	43311.61
549.84	43768.02
550.01	43229.69
550.18	43372.47
550.34	43634.61
550.51	43772.70
550.68	43796.10
550.84	43487.15
551.01	43908.45
551.18	43246.08
551.34	43590.14
551.51	44053.56
551.68	43971.64
551.84	43983.35
552.01	43737.59
552.18	44037.18
552.34	44058.24
552.51	43833.55
552.68	43835.89
552.84	44533.37
553.01	44502.95
553.18	43875.68
553.34	44039.52
553.51	44041.86
553.67	44402.30
553.84	44301.66
554.01	44601.25
554.17	44697.21
554.34	44177.61
554.51	44729.98
554.67	44692.53
554.84	44432.73
555.00	44598.91
555.17	44343.79
555.33	44889.13
555.50	44893.82
555.67	44795.51
555.83	44423.37
556.00	44746.36
556.16	45418.10
556.33	45296.39
556.50	44746.36
556.66	44715.93
556.83	44678.49
556.99	45476.61
557.16	45165.32
557.32	45090.42
557.49	45181.70
557.65	45024.89
557.82	45078.72
557.98	45148.93
558.15	45387.67
558.32	45338.52
558.48	44832.96
558.65	44889.13
558.81	44954.67
558.98	44947.65
559.14	45052.97
559.31	45296.39
559.47	44910.20
559.64	45258.94
559.80	45455.54
559.97	45703.64
560.13	45153.62
560.30	45474.27
560.46	45652.15
560.63	45642.79
560.79	45603.00
560.96	45940.04
561.12	45642.79
561.29	45645.13
561.45	45762.15
561.61	45881.52
561.78	45478.95
561.94	45825.35
562.11	45811.31
562.27	46141.32
562.44	45703.64
562.60	45970.46
562.77	45787.90
562.93	45511.72
563.10	45787.90
563.26	46014.93
563.42	46216.22
563.59	45914.29
563.75	45663.85
563.92	45933.01
564.08	45991.53
564.24	45853.44
564.41	45975.14
564.57	45848.75
564.74	46267.71
564.90	45698.96
565.07	45965.78
565.23	45893.22
565.39	46312.18
565.56	46485.38
565.72	45883.86
565.88	45558.53
566.05	46010.25
566.21	46258.35
566.38	45963.44
566.54	46579.00
566.70	46171.75
566.87	46380.06
567.03	46597.73
567.19	46356.65
567.36	46295.80
567.52	46351.97
567.68	46951.15
567.85	46061.74
568.01	46564.96
568.17	46639.86
568.34	46628.15
568.50	46611.77
568.66	46850.50
568.83	46174.09
568.99	46476.02
569.15	46532.19
569.32	46225.58
569.48	46586.02
569.64	46593.04
569.81	46422.19
569.97	46326.22
570.13	46850.50
570.30	46382.40
570.46	46480.70
570.62	46869.23
570.78	46817.74
570.95	46588.36
571.11	46995.62
571.27	46373.03
571.43	46546.23
571.60	46745.18
571.76	46171.75
571.92	46639.86
572.09	46213.88
572.25	46700.71
572.41	46398.78
572.57	46969.87
572.74	46904.34
572.90	46686.67
573.06	47152.43
573.22	47248.39
573.38	46923.06
573.55	47229.67
573.71	46918.38
573.87	46920.72
574.03	46733.48
574.20	47143.07
574.36	46899.65
574.52	46944.12
574.68	47056.47
574.84	47447.34
575.01	47040.09
575.17	47063.49
575.33	47208.61
575.49	46576.66
575.65	47084.56
575.82	47159.45
575.98	47126.69
576.14	47208.61
576.30	47145.41
576.46	47049.45
576.62	46520.49
576.79	46796.67
576.95	46438.57
577.11	47089.24
577.27	47217.97
577.43	47098.60
577.59	47271.80
577.75	46796.67
577.92	46806.03
578.08	46902.00
578.24	47082.22
578.40	47065.83
578.56	47180.52
578.72	47339.68
578.88	47004.98
579.04	47484.79
579.21	46740.50
579.37	47112.64
579.53	47445.00
579.69	47065.83
579.85	46979.23
580.01	47456.70
580.17	46880.93
580.33	47487.13
580.49	47157.11
580.65	46897.31
580.82	47110.30
580.98	47349.04
581.14	46876.25
581.30	47435.64
581.46	47468.40
581.62	47012.00
581.78	47044.77
581.94	47723.52
582.10	47063.49
582.26	47391.17
582.42	47157.11
582.58	47606.50
582.74	47482.45
582.90	46993.28
583.06	47847.57
583.22	46801.35
583.38	47250.74
583.54	47283.50
583.70	47360.74
583.86	47625.22
584.02	47175.84
584.18	47882.68
584.34	47789.06
584.50	47522.24
584.66	47885.02
584.82	47126.69
584.98	47615.86
585.14	47519.90
585.30	47138.39
585.46	47388.83
585.62	47194.56
585.78	47056.47
585.94	47182.86
586.10	47337.33
586.26	47009.66
586.42	47229.67
586.58	47632.24
586.74	47391.17
586.90	47353.72
587.06	47194.56
587.22	47232.01
587.38	47096.26
587.54	47861.61
587.70	47870.98
587.86	47524.58
588.02	47182.86
588.18	47505.85
588.34	47334.99
588.49	47473.09
588.65	47147.75
588.81	47821.83
588.97	47632.24
589.13	47955.24
589.29	47014.34
589.45	47332.65
589.61	47650.97
589.77	47849.91
589.93	47606.50
590.08	47849.91
590.24	47863.96
590.40	48264.19
590.56	48013.75
590.72	48053.54
590.88	47784.38
591.04	47517.56
591.20	48313.34
591.35	47538.62
591.51	48093.33
591.67	48093.33
591.83	47803.10
591.99	47672.03
592.15	47545.64
592.31	47625.22
592.46	47407.55
592.62	47793.74
592.78	48203.33
592.94	48519.31
593.10	47971.62
593.26	48217.38
593.41	47978.64
593.57	47777.36
593.73	47920.13
593.89	48697.19
594.05	48158.86
594.20	48252.48
594.36	48355.47
594.52	48383.55
594.68	47903.74
594.84	47901.40
594.99	48175.25
595.15	48114.39
595.31	48488.88
595.47	48205.67
595.62	48102.69
595.78	48704.21
595.94	48301.64
596.10	47980.98
596.25	48500.58
596.41	48399.94
596.57	47660.33
596.73	48413.98
596.88	48278.23
597.04	48325.04
597.20	48222.06
597.36	48172.91
597.51	48074.60
597.67	48107.37
597.83	48100.35
597.99	48079.28
598.14	48376.53
598.30	47896.72
598.46	48343.77
598.61	48381.21
598.77	48116.73
598.93	48257.17
599.09	48404.62
599.24	48456.11
599.40	48081.63
599.56	48388.24
599.71	48732.29
599.87	48954.64
600.03	48509.94
600.18	48121.41
600.34	47936.51
600.50	48322.70
600.65	48069.92
600.81	48751.02
600.97	48671.44
601.12	48531.01
601.28	48456.11
601.44	48161.20
601.59	48362.49
601.75	48252.48
601.91	48353.13
602.06	48032.47
602.22	48542.71
602.37	48549.73
602.53	48566.12
602.69	48584.84
602.84	48594.20
603.00	48098.01
603.16	48189.29
603.31	48081.63
603.47	48502.92
603.62	48357.81
603.78	47969.28
603.94	48418.66
604.09	48395.26
604.25	48343.77
604.40	48114.39
604.56	48453.77
604.71	48360.15
604.87	48589.52
605.03	47791.40
605.18	48247.80
605.34	48481.86
605.49	48032.47
605.65	48086.31
605.80	48055.88
605.96	48039.50
606.12	47917.79
606.27	48582.50
606.43	48142.48
606.58	48500.58
606.74	48388.24
606.89	48444.41
607.05	47990.34
607.20	48428.02
607.36	48165.88
607.51	47962.26
607.67	48208.01
607.82	48177.59
607.98	48378.87
608.13	47840.55
608.29	48109.71
608.44	48378.87
608.60	47742.25
608.75	48205.67
608.91	48126.10
609.06	47798.42
609.22	48292.27
609.37	47892.04
609.53	48156.52
609.68	48243.12
609.84	47861.61
609.99	48257.17
610.15	47962.26
610.30	47885.02
610.46	48079.28
610.61	48083.97
610.76	47442.66
610.92	47749.27
611.07	47667.35
611.23	47405.21
611.38	47878.00
611.54	47868.64
611.69	48198.65
611.84	47812.46
612.00	47810.12
612.15	47594.79
612.31	47786.72
612.46	47309.25
612.62	47676.71
612.77	47669.69
612.92	47973.96
613.08	47599.47
613.23	47468.40
613.39	47255.42
613.54	47421.59
613.69	48020.77
613.85	47573.73
614.00	47749.27
614.15	48006.73
614.31	47262.44
614.46	47765.65
614.62	47356.06
614.77	47503.51
614.92	47419.25
615.08	47606.50
615.23	47346.70
615.38	47454.36
615.54	47529.26
615.69	47744.59
615.84	47409.89
616.00	47793.74
616.15	47711.82
616.30	47627.56
616.46	46997.96
616.61	47346.70
616.76	47377.12
616.92	47206.26
617.07	47325.63
617.22	47248.39
617.37	46782.63
617.53	47161.79
617.68	47320.95
617.83	47103.28
617.99	47669.69
618.14	47529.26
618.29	47168.82
618.45	46923.06
618.60	47255.42
618.75	46710.07
618.90	47014.34
619.06	46871.57
619.21	46857.52
619.36	47105.62
619.51	47002.64
619.67	47166.48
619.82	46841.14
619.97	46988.60
620.12	47166.48
620.28	46637.51
620.43	47140.73
620.58	47068.17
620.73	46969.87
620.89	47166.48
621.04	46990.94
621.19	46986.25
621.34	46808.37
621.49	46850.50
621.65	46946.47
621.80	46822.42
621.95	46756.88
622.10	46869.23
622.25	46686.67
622.41	46806.03
622.56	46401.12
622.71	46791.99
622.86	46356.65
623.01	46543.89
623.16	46562.62
623.32	46218.56
623.47	46457.29
623.62	46450.27
623.77	46609.43
623.92	46368.35
624.07	46543.89
624.23	46806.03
624.38	46735.82
624.53	46377.72
624.68	46438.57
624.83	46351.97
624.98	46782.63
625.13	45942.38
625.29	46174.09
625.44	46632.83
625.59	46068.76
625.74	46623.47
625.89	46263.03
626.04	46021.95
626.19	46061.74
626.34	46202.18
626.49	45464.91
626.65	46557.94
626.80	45743.43
626.95	46078.13
627.10	46057.06
627.25	46267.71
627.40	45823.01
627.55	45769.18
627.70	46089.83
627.85	45883.86
628.00	45937.69
628.15	46092.17
628.30	45642.79
628.45	45682.58
628.60	45572.57
628.76	45385.33
628.91	46017.27
629.06	44999.14
629.21	45579.59
629.36	45626.40
629.51	45708.32
629.66	45815.99
629.81	45745.77
629.96	45598.32
630.11	45504.70
630.26	45378.31
630.41	45191.06
630.56	45155.96
630.71	45556.19
630.86	45422.78
631.01	45483.63
631.16	45565.55
631.31	45659.17
631.46	45256.60
631.61	45514.06
631.76	45460.23
631.91	45354.90
632.06	44964.03
632.21	45603.00
632.36	45411.07
632.51	45193.40
632.66	45291.71
632.81	44959.35
632.96	45373.63
633.10	45223.83
633.25	44671.46
633.40	44919.56
633.55	45240.21
633.70	45059.99
633.85	44767.43
634.00	44891.48
634.15	44980.42
634.30	44776.79
634.45	44793.17
634.60	44949.99
634.75	45195.74
634.90	45076.38
635.05	44933.60
635.19	44278.25
635.34	45130.21
635.49	44573.16
635.64	44568.48
635.79	45193.40
635.94	44985.10
636.09	44610.61
636.24	44554.44
636.39	44395.28
636.53	44437.41
636.68	44664.44
636.83	43854.62
636.98	44271.23
637.13	44027.82
637.28	44093.35
637.43	44144.84
637.57	44137.82
637.72	43826.53
637.87	44435.07
638.02	44428.05
638.17	44126.12
638.32	44605.93
638.46	43845.26
638.61	43849.94
638.76	44044.20
638.91	43931.86
639.06	44116.76
639.20	43791.42
639.35	44020.80
639.50	43814.83
639.65	43959.94
639.80	44123.78
639.94	44088.67
640.09	43737.59
640.24	43669.72
640.39	43751.63
640.54	43056.50
640.68	44002.07
640.83	43971.64
640.98	43430.98
641.13	43775.04
641.27	44081.65
641.42	43679.08
641.57	43466.09
641.72	43566.73
641.86	43536.30
642.01	43077.56
642.16	43166.50
642.31	43012.02
642.45	43559.71
642.60	43185.22
642.75	43466.09
642.90	43608.86
643.04	43229.69
643.19	43351.40
643.34	43225.01
643.48	42904.36
643.63	42939.47
643.78	43342.04
643.93	43487.15
644.07	43012.02
644.22	43058.84
644.37	42836.48
644.51	43508.22
644.66	43480.13
644.81	43105.65
644.95	43526.94
645.10	43313.95
645.25	42871.59
645.39	42508.81
645.54	42742.86
645.69	42581.37
645.83	42850.53
645.98	42380.08
646.13	42979.26
646.27	42747.54
646.42	42469.02
646.57	42813.08
646.71	42742.86
646.86	42892.66
647.00	42871.59
647.15	42806.06
647.30	42272.42
647.44	42911.38
647.59	42632.86
647.74	42625.84
647.88	42752.23
648.03	42934.79
648.17	42930.11
648.32	42913.72
648.47	43107.99
648.61	42349.65
648.76	42279.44
648.90	42464.34
649.05	42206.88
649.20	42143.69
649.34	42726.48
649.49	42579.03
649.63	42518.17
649.78	42649.24
649.92	42682.01
650.07	42553.28
650.21	42148.37
650.36	42609.45
650.51	42213.90
650.65	42305.18
650.80	42321.57
650.94	42251.35
651.09	42450.30
651.23	41954.10
651.38	42143.69
651.52	41469.61
651.67	41949.42
651.81	41996.23
651.96	41921.34
652.10	41624.09
652.25	41469.61
652.39	41902.61
652.54	41682.60
652.68	41897.93
652.83	41507.06
652.97	41727.07
653.12	41968.15
653.26	41518.76
653.41	41801.97
653.55	41841.76
653.70	41647.49
653.84	41902.61
653.99	41808.99
654.13	41916.65
654.27	41551.53
654.42	41413.44
654.56	41254.28
654.71	41890.91
654.85	41551.53
655.00	41581.96
655.14	41638.13
655.29	41698.98
655.43	41794.95
655.57	41177.04
655.72	40825.96
655.86	41200.45
656.01	40840.01
656.15	41338.54
656.30	41216.83
656.44	41310.46
656.58	41275.35
656.73	41153.64
656.87	41228.54
657.01	40664.47
657.16	41097.47
657.30	40779.15
657.45	40758.09
657.59	40926.61
657.73	40790.86
657.88	40858.73
658.02	40493.61
658.16	40935.97
658.31	40657.45
658.45	40854.05
658.60	40524.04
658.74	40996.82
658.88	40879.80
659.03	40376.58
659.17	40446.80
659.31	40224.45
659.46	40322.75
659.60	40641.06
659.74	40329.77
659.89	39924.86
660.03	39885.07
660.17	40201.04
660.32	39873.37
660.46	40161.25
660.60	39761.02
660.74	39840.60
660.89	39999.76
661.03	39950.60
661.17	39817.19
661.32	39531.65
661.46	40456.16
661.60	39889.75
661.74	39838.26
661.89	39484.84
662.03	39938.90
662.17	39622.93
662.31	39578.46
662.46	39241.42
662.60	39494.20
662.74	38773.31
662.88	39391.22
663.03	38988.64
663.17	39194.61
663.31	38562.67
663.45	38967.58
663.60	39054.18
663.74	38895.02
663.88	38998.01
664.02	38618.84
664.17	39262.49
664.31	38721.82
664.45	38637.56
664.59	38670.33
664.73	38974.60
664.88	38817.78
665.02	38089.88
665.16	38237.33
665.30	38443.30
665.44	38948.85
665.59	38026.68
665.73	38511.17
665.87	37827.74
666.01	38005.62
666.15	38480.75
666.29	37715.39
666.44	38113.28
666.58	37872.21
666.72	37659.22
666.86	37558.58
667.00	37682.62
667.14	37797.31
667.28	37631.13
667.43	37942.42
667.57	37729.44
667.71	37710.71
667.85	37502.40
667.99	37383.04
668.13	37198.13
668.27	37284.73
668.41	37123.24
668.56	36758.11
668.70	36837.69
668.84	36385.97
668.98	36800.24
669.12	36840.03
669.26	36664.49
669.40	36554.49
669.54	36840.03
669.68	36739.39
669.82	36613.00
669.96	36437.46
670.10	36219.79
670.25	36577.89
670.39	36187.02
670.53	36669.17
670.67	36397.67
670.81	36140.21
670.95	36535.76
671.09	36182.34
671.23	35791.47
671.37	36161.28
671.51	35477.84
671.65	35526.99
671.79	35604.23
671.93	36119.15
672.07	35697.85
672.21	35461.46
672.35	34995.69
672.49	34927.81
672.63	34972.28
672.77	35250.81
672.91	35044.84
673.05	35054.20
673.19	34494.82
673.33	34787.38
673.47	34843.56
673.61	34733.55
673.75	34424.60
673.89	34635.25
674.03	34550.99
674.17	34136.71
674.31	34012.66
674.45	34094.58
674.59	34012.66
674.73	33998.62
674.87	33762.23
675.01	33631.16
675.15	33312.84
675.29	33432.21
675.43	33640.52
675.56	33734.14
675.70	33502.43
675.84	33102.20
675.98	32503.02
676.12	33333.91
676.26	32872.82
676.40	32566.21
676.54	32353.23
676.68	32753.46
676.82	32484.30
676.96	32830.69
677.10	32395.35
677.23	32577.92
677.37	32491.32
677.51	32327.48
677.65	32212.79
677.79	31917.89
677.93	32144.92
678.07	32025.55
678.21	31964.70
678.34	31442.76
678.48	31468.50
678.62	31459.14
678.76	31154.87
678.90	31449.78
679.04	31400.63
679.18	31597.23
679.31	31173.60
679.45	30661.02
679.59	31133.81
679.73	31323.39
679.87	30543.99
680.00	30717.19
680.14	30724.21
680.28	30281.85
680.42	30092.27
680.56	30412.92
680.70	30216.32
680.83	29790.34
680.97	30113.33
681.11	30043.12
681.25	29593.73
681.39	29420.53
681.52	29722.46
681.66	29174.78
681.80	29249.67
681.94	28802.63
682.07	29010.94
682.21	28959.45
682.35	28769.86
682.49	28858.81
682.62	28748.80
682.76	28528.79
682.90	28732.42
683.04	28425.81
683.17	28498.36
683.31	28130.90
683.45	28086.43
683.59	28268.99
683.72	27962.38
683.86	27782.16
684.00	27777.48
684.13	27892.16
684.27	27405.33
684.41	27372.57
684.55	27412.35
684.68	27211.07
684.82	26951.27
684.96	26993.40
685.09	27122.13
685.23	27035.53
685.37	27344.48
685.50	27185.32
685.64	26572.10
685.78	26515.93
685.91	26670.40
686.05	26106.34
686.19	25404.17
686.32	25844.20
686.46	25979.95
686.60	25560.99
686.73	25645.25
686.87	25575.03
687.01	25724.83
687.14	25876.96
687.28	25607.80
687.42	25553.97
687.55	25233.32
687.69	25584.40
687.82	25099.90
687.96	24739.46
688.10	24776.91
688.23	24966.49
688.37	24769.89
688.50	24926.71
688.64	24694.99
688.78	24694.99
688.91	24512.43
689.05	24482.00
689.18	23971.77
689.32	24041.98
689.46	23618.35
689.59	23917.93
689.73	23941.34
689.86	23999.85
690.00	23847.72
690.13	23852.40
690.27	23571.54
690.41	23660.48
690.54	22916.19
690.68	23215.77
690.81	23293.01
690.95	22970.02
691.08	22920.87
691.22	22621.28
691.35	22286.58
691.49	22553.40
691.62	22349.78
691.76	22373.18
691.89	21900.39
692.03	22092.32
692.16	21965.93
692.30	21884.01
692.43	21788.05
692.57	21390.16
692.70	21818.47
692.84	21668.68
692.97	21329.30
693.11	21418.24
693.24	20973.54
693.38	21394.84
693.51	20786.30
693.65	21198.23
693.78	20673.95
693.92	21006.31
694.05	20783.96
694.19	20460.96
694.32	20746.51
694.45	20992.26
694.59	20765.23
694.72	20535.86
694.86	20042.01
694.99	20222.23
695.13	20023.28
695.26	19777.53
695.39	19438.15
695.53	19948.39
695.66	19721.35
695.80	19758.80
695.93	19981.15
696.07	19351.55
696.20	18963.02
696.33	19033.24
696.47	18965.36
696.60	18853.02
696.73	19442.83
696.87	19187.71
697.00	19091.75
697.14	19051.96
697.27	18677.48
697.40	18625.98
697.54	18586.19
697.67	18415.34
697.80	18541.72
697.94	18443.42
698.07	18251.50
698.21	17996.38
698.34	18265.54
698.47	17862.97
698.61	17371.46
698.74	17846.58
698.87	17652.32
699.01	17434.65
699.14	17539.97
699.27	17439.33
699.40	17474.44
699.54	17364.43
699.67	17268.47
699.80	17198.26
699.94	17027.40
700.07	17083.57
700.20	16933.78
700.34	16718.45
700.47	16905.69
700.60	16982.93
700.73	16772.28
700.87	16482.05
701.00	16248.00
701.13	16140.33
701.26	16112.25
701.40	16418.86
701.53	15882.88
701.66	16065.44
701.79	15913.30
701.93	15704.99
702.06	15625.42
702.19	15702.65
702.32	15690.95
702.46	15906.28
702.59	15655.84
702.72	15520.09
702.85	15503.71
702.99	15585.63
703.12	15110.50
703.25	14913.89
703.38	14937.30
703.51	14984.11
703.65	14834.32
703.78	14431.74
703.91	14675.16
704.04	14499.62
704.17	14466.85
704.31	14478.55
704.44	14349.82
704.57	14396.64
704.70	14293.65
704.83	13963.64
704.96	14097.05
705.10	13809.16
705.23	13881.72
>>>>>End Processed Spectral Data<<<<<
