SpectraSuite Data File
++++++++++++++++++++++++++++++++++++
Date: Fri Oct 25 10:44:02 EDT 2013
User: price-jones
Dark Spectrum Present: No
Reference Spectrum Present: No
Number of Sampled Component Spectra: 1
Spectrometers: USB2+H05261
Integration Time (usec): 100000 (USB2+H05261)
Spectra Averaged: 1 (USB2+H05261)
Boxcar Smoothing: 0 (USB2+H05261)
Correct for Electrical Dark: No (USB2+H05261)
Strobe/Lamp Enabled: No (USB2+H05261)
Correct for Detector Non-linearity: No (USB2+H05261)
Correct for Stray Light: No (USB2+H05261)
Number of Pixels in Processed Spectrum: 2048
>>>>>Begin Processed Spectral Data<<<<<
365.73	131.07
365.92	131.07
366.12	131.07
366.32	25.75
366.52	72.56
366.72	7.02
366.91	0.00
367.11	23.41
367.31	32.77
367.51	0.00
367.70	49.15
367.90	56.17
368.10	0.00
368.30	53.83
368.49	88.94
368.69	51.49
368.89	42.13
369.09	121.71
369.28	84.26
369.48	0.00
369.68	46.81
369.87	175.54
370.07	56.17
370.27	117.03
370.47	166.18
370.66	346.40
370.86	365.12
371.06	386.19
371.25	535.98
371.45	402.57
371.65	491.51
371.84	418.96
372.04	496.19
372.24	472.79
372.44	519.60
372.63	475.13
372.83	573.43
373.03	514.92
373.22	540.66
373.42	528.96
373.62	615.56
373.81	507.90
374.01	596.84
374.21	489.17
374.40	596.84
374.60	615.56
374.79	648.33
374.99	587.47
375.19	622.58
375.38	631.94
375.58	610.88
375.78	585.13
375.97	645.99
376.17	699.82
376.37	685.78
376.56	638.97
376.76	645.99
376.95	587.47
377.15	664.71
377.35	676.41
377.54	636.63
377.74	648.33
377.93	606.20
378.13	681.10
378.33	692.80
378.52	692.80
378.72	690.46
378.91	730.25
379.11	688.12
379.31	711.52
379.50	669.39
379.70	713.86
379.89	606.20
380.09	711.52
380.28	746.63
380.48	730.25
380.68	734.93
380.87	713.86
381.07	807.48
381.26	720.88
381.46	774.72
381.65	748.97
381.85	737.27
382.04	681.10
382.24	681.10
382.43	702.16
382.63	734.93
382.83	709.18
383.02	784.08
383.22	809.83
383.41	713.86
383.61	763.01
383.80	798.12
384.00	809.83
384.19	758.33
384.39	833.23
384.58	800.46
384.78	823.87
384.97	856.64
385.17	807.48
385.36	877.70
385.56	784.08
385.75	854.30
385.95	819.19
386.14	812.17
386.34	896.43
386.53	877.70
386.72	835.57
386.92	917.49
387.11	840.25
387.31	938.55
387.50	917.49
387.70	830.89
387.89	908.13
388.09	968.98
388.28	870.68
388.48	870.68
388.67	1001.75
388.86	983.02
389.06	1078.99
389.25	990.05
389.45	947.92
389.64	961.96
389.84	1057.92
390.03	1050.90
390.22	1067.28
390.42	1018.13
390.61	1095.37
390.81	1067.28
391.00	1057.92
391.19	1104.73
391.39	1078.99
391.58	1095.37
391.78	1020.47
391.97	1050.90
392.16	1032.18
392.36	1100.05
392.55	1069.62
392.75	1025.15
392.94	987.71
393.13	1011.11
393.33	1015.79
393.52	1107.07
393.71	1181.97
393.91	1179.63
394.10	1177.29
394.29	1207.72
394.49	1200.69
394.68	1256.87
394.88	1263.89
395.07	1320.06
395.26	1345.81
395.46	1233.46
395.65	1313.04
395.84	1324.74
396.04	1238.14
396.23	1226.44
396.42	1203.04
396.62	1254.53
396.81	1259.21
397.00	1259.21
397.19	1291.98
397.39	1369.21
397.58	1373.89
397.77	1437.09
397.97	1439.43
398.16	1488.58
398.35	1509.65
398.55	1423.05
398.74	1577.52
398.93	1643.06
399.12	1591.56
399.32	1549.43
399.51	1565.82
399.70	1621.99
399.90	1610.29
400.09	1579.86
400.28	1757.74
400.47	1579.86
400.67	1753.06
400.86	1729.66
401.05	1696.89
401.24	1755.40
401.44	1727.32
401.63	1830.30
401.82	1755.40
402.01	1753.06
402.21	1886.47
402.40	1827.96
402.59	1769.44
402.78	1858.39
402.97	1813.92
403.17	1877.11
403.36	1909.88
403.55	1860.73
403.74	1996.48
403.93	1933.28
404.13	1966.05
404.32	1926.26
404.51	2040.95
404.70	2038.61
404.89	2026.90
405.09	2052.65
405.28	2094.78
405.47	2108.82
405.66	2036.27
405.85	2022.22
406.05	2012.86
406.24	2064.35
406.43	2155.63
406.62	2122.87
406.81	2272.66
407.00	2183.72
407.20	2038.61
407.39	2139.25
407.58	2373.30
407.77	2258.62
407.96	2368.62
408.15	2305.43
408.34	2305.43
408.54	2324.15
408.73	2392.03
408.92	2368.62
409.11	2366.28
409.30	2338.20
409.49	2469.27
409.68	2445.86
409.87	2389.69
410.07	2303.09
410.26	2452.88
410.45	2485.65
410.64	2558.21
410.83	2558.21
411.02	2530.12
411.21	2672.89
411.40	2712.68
411.59	2691.62
411.78	2815.66
411.98	2729.06
412.17	2801.62
412.36	2832.05
412.55	2834.39
412.74	2839.07
412.93	2841.41
413.12	2993.55
413.31	3019.29
413.50	2953.76
413.69	2862.48
413.88	3101.21
414.07	3042.70
414.26	3112.91
414.45	3112.91
414.64	3052.06
414.83	3159.72
415.02	3136.32
415.22	3185.47
415.41	3190.15
415.60	3304.84
415.79	3304.84
415.98	3269.73
416.17	3260.37
416.36	3365.69
416.55	3377.39
416.74	3442.93
416.93	3414.84
417.12	3405.48
417.31	3435.91
417.50	3426.54
417.69	3475.70
417.88	3438.25
418.07	3623.15
418.26	3571.66
418.45	3585.70
418.64	3716.77
418.83	3728.47
419.02	3637.19
419.21	3786.99
419.39	3798.69
419.58	3735.50
419.77	3583.36
419.96	3712.09
420.15	3988.27
420.34	3873.59
420.53	3838.48
420.72	3896.99
420.91	3995.29
421.10	3885.29
421.29	3967.21
421.48	3922.74
421.67	4037.42
421.86	4016.36
422.05	3782.31
422.24	3899.33
422.43	3911.04
422.61	4091.26
422.80	4004.66
422.99	4014.02
423.18	4002.32
423.37	4084.23
423.56	4166.15
423.75	4056.15
423.94	4128.70
424.13	3719.11
424.32	3929.76
424.50	4140.41
424.69	4140.41
424.88	4269.14
425.07	3941.46
425.26	4018.70
425.45	4159.13
425.64	4070.19
425.83	4145.09
426.01	4142.75
426.20	4102.96
426.39	4131.05
426.58	4156.79
426.77	3964.87
426.96	4105.30
427.15	4121.68
427.33	4133.39
427.52	4322.97
427.71	4400.21
427.90	4236.37
428.09	4203.60
428.28	4161.47
428.46	4180.20
428.65	4292.54
428.84	4318.29
429.03	4449.36
429.22	4273.82
429.40	4262.12
429.59	4219.99
429.78	4037.42
429.97	4084.23
430.16	4119.34
430.34	4269.14
430.53	4229.35
430.72	4437.66
430.91	4337.01
431.10	4526.60
431.28	4704.48
431.47	4655.33
431.66	4926.83
431.85	4685.75
432.03	4753.63
432.22	4805.12
432.41	4851.93
432.60	4851.93
432.79	4767.67
432.97	4905.76
433.16	4863.63
433.35	4624.90
433.54	4695.11
433.72	4760.65
433.91	4816.82
434.10	4933.85
434.28	5001.72
434.47	5114.07
434.66	5132.79
434.85	5170.24
435.03	5083.64
435.22	5107.05
435.41	5153.86
435.59	5130.45
435.78	5184.29
435.97	5338.76
436.16	5221.74
436.34	5329.40
436.53	5341.10
436.72	5214.71
436.90	5195.99
437.09	5467.49
437.28	5205.35
437.46	5310.68
437.65	5474.51
437.84	5224.08
438.02	5291.95
438.21	5301.31
438.40	5315.36
438.58	5607.92
438.77	5547.07
438.96	5533.03
439.14	5584.52
439.33	5720.27
439.52	5762.40
439.70	5975.39
439.89	5944.96
440.08	5851.34
440.26	5891.13
440.45	5846.66
440.63	6211.78
440.82	6190.72
441.01	6045.60
441.19	6139.23
441.38	6406.05
441.57	6356.90
441.75	6399.02
441.94	6480.94
442.12	6583.93
442.31	6663.51
442.50	6572.22
442.68	6436.47
442.87	6560.52
443.05	6555.84
443.24	6803.94
443.43	6483.28
443.61	6689.25
443.80	6825.00
443.98	6731.38
444.17	6464.56
444.35	6729.04
444.54	6846.07
444.73	6848.41
444.91	6509.03
445.10	6768.83
445.28	6773.51
445.47	6712.66
445.65	6546.48
445.84	6768.83
446.02	6832.02
446.21	6752.45
446.39	6803.94
446.58	6897.56
446.77	6897.56
446.95	6752.45
447.14	6813.30
447.32	6923.30
447.51	6977.14
447.69	6953.73
447.88	6853.09
448.06	7009.90
448.25	6883.52
448.43	6984.16
448.62	6895.22
448.80	6738.40
448.99	7218.21
449.17	7033.31
449.36	7002.88
449.54	7272.04
449.73	7234.60
449.91	7382.05
450.10	7314.17
450.28	7515.46
450.46	7456.95
450.65	7403.11
450.83	7470.99
451.02	7304.81
451.20	7459.29
451.39	7616.10
451.57	7389.07
451.76	7555.25
451.94	7421.84
452.13	7543.55
452.31	7485.03
452.49	7363.33
452.68	7538.87
452.86	7510.78
453.05	7573.97
453.23	7651.21
453.42	7379.71
453.60	7646.53
453.78	7681.64
453.97	7517.80
454.15	7611.42
454.34	7590.36
454.52	7772.92
454.70	7815.05
454.89	7840.79
455.07	7679.30
455.26	7960.16
455.44	8184.85
455.62	7859.52
455.81	7978.89
455.99	8109.96
456.17	8163.79
456.36	8023.36
456.54	8163.79
456.73	8299.54
456.91	8402.52
457.09	8336.99
457.28	8617.85
457.46	8367.42
457.64	8535.93
457.83	8266.77
458.01	8060.80
458.19	8566.36
458.38	8446.99
458.56	8674.03
458.74	8486.78
458.93	8589.77
459.11	8491.46
459.29	8500.83
459.48	8664.66
459.66	8643.60
459.84	8652.96
460.03	8809.78
460.21	8685.73
460.39	8622.53
460.57	8739.56
460.76	8819.14
460.94	9008.72
461.12	8959.57
461.31	9100.00
461.49	8931.48
461.67	8879.99
461.85	9151.49
462.04	8968.93
462.22	9509.60
462.40	9139.79
462.59	9027.45
462.77	9287.25
462.95	9069.58
463.13	9137.45
463.32	9249.80
463.50	9268.52
463.68	9125.75
463.86	9249.80
464.05	9130.43
464.23	9210.01
464.41	9298.95
464.59	9193.62
464.78	9504.92
464.96	9305.97
465.14	9303.63
465.32	9533.00
465.50	9516.62
465.69	9619.60
465.87	9619.60
466.05	9404.27
466.23	9495.55
466.41	9217.03
466.60	9661.73
466.78	9437.04
466.96	9460.45
467.14	9626.62
467.32	9771.74
467.51	9729.61
467.69	9413.63
467.87	9675.77
468.05	9802.16
468.23	9720.24
468.41	9781.10
468.60	9905.15
468.78	9837.27
468.96	9886.42
469.14	9991.75
469.32	10040.90
469.50	9724.93
469.69	10078.35
469.87	10068.98
470.05	10225.80
470.23	10087.71
470.41	9902.81
470.59	10279.63
470.77	10073.67
470.95	10246.87
471.14	10347.51
471.32	10396.66
471.50	10640.08
471.68	10637.73
471.86	10757.10
472.04	10693.91
472.22	10944.34
472.40	10710.29
472.58	10588.58
472.77	10721.99
472.95	10888.17
473.13	11108.18
473.31	10853.06
473.49	10675.18
473.67	10820.30
473.85	10740.72
474.03	11545.86
474.21	11162.01
474.39	11580.97
474.57	11566.93
474.75	11609.06
474.93	11702.68
475.12	11449.90
475.30	11590.33
475.48	11866.52
475.66	11571.61
475.84	11695.66
476.02	11515.44
476.20	11756.51
476.38	11873.54
476.56	12156.74
476.74	12109.93
476.92	12294.83
477.10	11936.73
477.28	12561.66
477.46	12498.46
477.64	12430.59
477.82	12732.51
478.00	12823.80
478.18	12697.41
478.36	12903.37
478.54	13142.11
478.72	13083.59
478.90	13373.82
479.08	13462.76
479.26	13645.32
479.44	13589.15
479.62	13521.27
479.80	13631.28
479.98	14026.83
480.16	13872.36
480.34	14167.26
480.52	14370.89
480.70	14288.97
480.88	13905.12
481.06	14312.38
481.24	14567.49
481.41	14677.50
481.59	14906.87
481.77	14773.46
481.95	14703.25
482.13	14698.56
482.31	15021.56
482.49	15410.09
482.67	15342.21
482.85	15452.22
483.03	15623.08
483.21	15723.72
483.39	15749.46
483.57	15747.12
483.74	16067.78
483.92	16423.54
484.10	16016.29
484.28	16601.42
484.46	16533.54
484.64	16905.69
484.82	16627.17
485.00	16617.80
485.18	16769.94
485.35	17034.42
485.53	16421.20
485.71	16470.35
485.89	16891.65
486.07	16800.37
486.25	17081.23
486.43	17514.23
486.61	17537.63
486.78	17685.09
486.96	17825.52
487.14	17933.18
487.32	18389.59
487.50	18377.89
487.68	18766.42
487.85	18597.90
488.03	18972.38
488.21	19124.52
488.39	18890.46
488.57	19023.87
488.75	19297.72
488.92	19606.67
489.10	19601.99
489.28	20142.65
489.46	20154.35
489.64	20196.48
489.81	20545.22
489.99	20484.37
490.17	20765.23
490.35	20863.54
490.53	20931.41
490.70	20926.73
490.88	20996.95
491.06	21350.37
491.24	21481.44
491.41	21223.98
491.59	21315.26
491.77	21280.15
491.95	21521.23
492.13	21818.47
492.30	22167.21
492.48	22373.18
492.66	22333.39
492.84	22246.79
493.01	22366.16
493.19	22281.90
493.37	23023.85
493.54	22960.66
493.72	23089.38
493.90	23566.85
494.08	23721.33
494.25	23433.44
494.43	23697.92
494.61	23740.05
494.79	23798.57
494.96	24119.22
495.14	24322.85
495.32	24489.03
495.49	24432.85
495.67	24364.98
495.85	24627.12
496.02	24889.26
496.20	25078.84
496.38	25053.09
496.55	25556.31
496.73	25956.54
496.91	25507.16
497.09	26068.89
497.26	25799.73
497.44	25493.12
497.62	25472.05
497.79	26089.95
497.97	25626.53
498.14	26052.50
498.32	26237.41
498.50	26300.60
498.67	26569.76
498.85	26686.79
499.03	27007.44
499.20	26888.07
499.38	27250.86
499.56	27007.44
499.73	26754.66
499.91	26885.73
500.08	27571.51
500.26	26829.56
500.44	27363.20
500.61	27229.79
500.79	27590.24
500.97	27426.40
501.14	27379.59
501.32	27737.69
501.49	27765.78
501.67	27634.71
501.84	28189.41
502.02	28079.41
502.20	28271.33
502.37	28524.11
502.55	28350.91
502.72	28446.87
502.90	29102.22
503.07	28692.63
503.25	28451.55
503.43	28517.09
503.60	28774.55
503.78	28701.99
503.95	28861.15
504.13	29539.90
504.30	29495.43
504.48	29404.15
504.65	29509.47
504.83	29422.87
505.01	30068.86
505.18	29680.33
505.36	29968.22
505.53	30202.27
505.71	30747.62
505.88	30422.28
506.06	30312.28
506.23	30497.18
506.41	30373.13
506.58	30382.49
506.76	30253.76
506.93	31281.26
507.11	30866.98
507.28	30913.80
507.46	30611.87
507.63	31019.12
507.81	30925.50
507.98	31082.31
508.16	31014.44
508.33	31534.04
508.50	31599.57
508.68	31725.96
508.85	31531.70
509.03	31655.75
509.20	32243.22
509.38	32355.57
509.55	31765.75
509.73	32091.09
509.90	32694.94
510.08	32201.09
510.25	32416.42
510.42	32245.56
510.60	32982.83
510.77	32615.37
510.95	32917.29
511.12	32570.90
511.30	33179.43
511.47	33244.97
511.64	33369.02
511.82	33022.62
511.99	32912.61
512.17	33146.67
512.34	32921.98
512.51	33373.70
512.69	33188.80
512.86	33284.76
513.04	33490.73
513.21	33324.55
513.38	33273.06
513.56	33593.71
513.73	33523.49
513.90	33736.48
514.08	33942.45
514.25	34057.14
514.43	33989.26
514.60	34157.78
514.77	34288.85
514.95	34396.51
515.12	34464.39
515.29	34506.52
515.47	34969.94
515.64	35021.44
515.81	34504.18
515.99	34522.90
516.16	34801.43
516.33	34307.57
516.51	34389.49
516.68	33862.87
516.85	33804.36
517.03	34024.37
517.20	34345.02
517.37	35332.73
517.54	35182.93
517.72	34871.64
517.89	34864.62
518.06	34689.08
518.24	34497.16
518.41	34991.01
518.58	35115.06
518.75	35491.88
518.93	35632.32
519.10	35491.88
519.27	35842.96
519.45	36046.59
519.62	35751.68
519.79	36484.27
519.96	36095.74
520.14	36540.44
520.31	36065.31
520.48	36411.71
520.65	35861.69
520.83	36627.04
521.00	37010.89
521.17	36994.51
521.34	36945.36
521.52	36823.65
521.69	36943.02
521.86	37036.64
522.03	37392.40
522.20	36928.97
522.38	37301.12
522.55	37537.51
522.72	36907.91
522.89	37188.77
523.07	37275.37
523.24	36982.80
523.41	37193.45
523.58	37818.38
523.75	38010.30
523.92	38040.73
524.10	38258.40
524.27	37787.95
524.44	38059.45
524.61	38642.24
524.78	38012.64
524.96	38431.60
525.13	38127.33
525.30	38850.55
525.47	38899.70
525.64	38389.47
525.81	37801.99
525.98	38450.32
526.16	38115.62
526.33	37654.54
526.50	38319.25
526.67	38513.52
526.84	38094.56
527.01	38534.58
527.18	38478.41
527.36	38602.46
527.53	39168.87
527.70	39395.90
527.87	39035.45
528.04	39138.44
528.21	39445.05
528.38	39115.03
528.55	39700.17
528.72	39903.79
528.89	39835.92
529.07	39578.46
529.24	39082.27
529.41	40030.18
529.58	39606.55
529.75	39782.09
529.92	39456.75
530.09	39981.03
530.26	39746.98
530.43	39868.69
530.60	39845.28
530.77	39976.35
530.94	40470.20
531.11	40411.69
531.28	40470.20
531.46	40762.77
531.63	40598.93
531.80	39995.07
531.97	40179.98
532.14	40027.84
532.31	40088.70
532.48	40404.67
532.65	40376.58
532.82	40500.63
532.99	40598.93
533.16	40720.64
533.33	40718.30
533.50	40664.47
533.67	41258.96
533.84	40884.48
534.01	40353.18
534.18	40856.39
534.35	41294.07
534.52	40842.35
534.69	41331.52
534.86	41198.11
535.03	41270.67
535.20	41539.83
535.37	42031.34
535.54	42089.85
535.71	41265.99
535.88	41736.43
536.05	41797.29
536.22	41584.30
536.38	41551.53
536.55	41151.30
536.72	41706.01
536.89	41361.95
537.06	41808.99
537.23	42029.00
537.40	41972.83
537.57	41876.86
537.74	41872.18
537.91	42087.51
538.08	42370.72
538.25	41942.40
538.42	42157.73
538.59	42120.28
538.75	41989.21
538.92	41881.55
539.09	42337.95
539.26	42110.92
539.43	42078.15
539.60	42366.04
539.77	41691.96
539.94	42162.41
540.11	42124.96
540.28	42422.21
540.44	42162.41
540.61	42316.89
540.78	42068.79
540.95	42351.99
541.12	42639.88
541.29	42902.02
541.46	42113.26
541.62	42665.63
541.79	43056.50
541.96	42127.30
542.13	42368.38
542.30	43140.75
542.47	42962.87
542.63	42934.79
542.80	42766.27
542.97	43222.67
543.14	42876.27
543.31	43201.61
543.48	43721.21
543.64	43700.14
543.81	43672.06
543.98	43423.96
544.15	43611.20
544.32	43707.16
544.48	43885.04
544.65	43658.01
544.82	44091.01
544.99	43716.53
545.16	43770.36
545.32	43665.03
545.49	44313.36
545.66	43868.66
545.83	44016.11
546.00	44392.94
546.16	43943.56
546.33	44002.07
546.50	43871.00
546.67	44076.97
546.83	43578.43
547.00	44081.65
547.17	43812.49
547.34	43973.98
547.50	43941.22
547.67	44079.31
547.84	44083.99
548.00	44325.07
548.17	44758.06
548.34	44428.05
548.51	44659.76
548.67	44708.91
548.84	44804.88
549.01	44729.98
549.18	44491.24
549.34	44552.10
549.51	44673.81
549.68	44795.51
549.84	44758.06
550.01	44959.35
550.18	44634.02
550.34	44732.32
550.51	44638.70
550.68	44823.60
550.84	44854.03
551.01	44968.71
551.18	44542.74
551.34	44748.70
551.51	44793.17
551.68	45111.49
551.84	45406.39
552.01	45076.38
552.18	44935.95
552.34	45249.58
552.51	45287.03
552.68	44528.69
552.84	45172.34
553.01	45586.61
553.18	45626.40
553.34	45146.59
553.51	45350.22
553.67	45092.76
553.84	45778.54
554.01	45736.41
554.17	45301.07
554.34	45722.37
554.51	45624.06
554.67	45610.02
554.84	45825.35
555.00	45282.34
555.17	45481.29
555.33	45441.50
555.50	45228.51
555.67	45731.73
555.83	45387.67
556.00	45280.00
556.16	45928.33
556.33	45357.24
556.50	45769.18
556.66	45673.21
556.83	45488.31
556.99	45979.82
557.16	45844.07
557.32	45579.59
557.49	45975.14
557.65	45478.95
557.82	45598.32
557.98	45874.50
558.15	45801.94
558.32	45670.87
558.48	45801.94
558.65	45539.80
558.81	45645.13
558.98	45619.38
559.14	46167.07
559.31	45476.61
559.47	45914.29
559.64	46131.96
559.80	46066.42
559.97	46197.49
560.13	45869.82
560.30	45808.96
560.46	45710.66
560.63	46539.21
560.79	45979.82
560.96	46085.15
561.12	46293.46
561.29	45921.31
561.45	46335.59
561.61	45773.86
561.78	45727.05
561.94	46007.91
562.11	45855.78
562.27	46464.32
562.44	46302.82
562.60	46557.94
562.77	46485.38
562.93	46583.68
563.10	46433.89
563.26	46342.61
563.42	46190.47
563.59	45951.74
563.75	46321.54
563.92	46480.70
564.08	46075.79
564.24	46756.88
564.41	46082.81
564.57	46047.70
564.74	46363.67
564.90	46239.62
565.07	46527.51
565.23	46480.70
565.39	46424.53
565.56	46607.09
565.72	45839.39
565.88	46625.81
566.05	45921.31
566.21	46082.81
566.38	46244.30
566.54	46382.40
566.70	46836.46
566.87	46754.54
567.03	46808.37
567.19	46787.31
567.36	46642.20
567.52	46234.94
567.68	46457.29
567.85	46583.68
568.01	46845.82
568.17	46689.01
568.34	46375.37
568.50	46681.98
568.66	46827.10
568.83	46129.62
568.99	46579.00
569.15	46417.50
569.32	46284.09
569.48	46300.48
569.64	47047.11
569.81	46761.56
569.97	46417.50
570.13	46457.29
570.30	46253.67
570.46	46515.81
570.62	46459.63
570.78	46382.40
570.95	46471.34
571.11	46515.81
571.27	46284.09
571.43	46478.36
571.60	46972.21
571.76	46487.72
571.92	47014.34
572.09	46745.18
572.25	46801.35
572.41	46738.16
572.57	46663.26
572.74	47093.92
572.90	46944.12
573.06	46607.09
573.22	46850.50
573.38	46733.48
573.55	46560.28
573.71	46852.84
573.87	46944.12
574.03	46600.07
574.20	46951.15
574.36	46656.24
574.52	46522.83
574.68	46590.70
574.84	46726.46
575.01	46597.73
575.17	46588.36
575.33	46103.87
575.49	46426.87
575.65	46689.01
575.82	46424.53
575.98	46635.17
576.14	46656.24
576.30	46944.12
576.46	47140.73
576.62	46920.72
576.79	46574.32
576.95	46494.74
577.11	46815.40
577.27	47023.70
577.43	46934.76
577.59	46195.15
577.75	46574.32
577.92	46316.86
578.08	46422.19
578.24	46443.25
578.40	46464.32
578.56	46485.38
578.72	46621.13
578.88	46962.85
579.04	47016.68
579.21	46564.96
579.37	46843.48
579.53	47049.45
579.69	46637.51
579.85	46518.15
580.01	46899.65
580.17	46672.62
580.33	47033.07
580.49	46583.68
580.65	46543.89
580.82	46583.68
580.98	46384.74
581.14	46607.09
581.30	46763.90
581.46	46934.76
581.62	47051.79
581.78	46361.33
581.94	47210.95
582.10	46806.03
582.26	46843.48
582.42	46913.70
582.58	46909.02
582.74	46375.37
582.90	47028.38
583.06	47028.38
583.22	47187.54
583.38	47400.53
583.54	47021.36
583.70	47112.64
583.86	46862.21
584.02	46873.91
584.18	47054.13
584.34	46527.51
584.50	46862.21
584.66	47075.19
584.82	46993.28
584.98	47000.30
585.14	47185.20
585.30	46831.78
585.46	46557.94
585.62	46157.70
585.78	46653.90
585.94	46288.77
586.10	46906.68
586.26	46492.40
586.42	46864.55
586.58	47278.82
586.74	46747.52
586.90	46986.25
587.06	46866.89
587.22	47147.75
587.38	46976.89
587.54	46745.18
587.70	47150.09
587.86	46906.68
588.02	46330.90
588.18	47236.69
588.34	46972.21
588.49	46237.28
588.65	46157.70
588.81	46183.45
588.97	46494.74
589.13	46328.56
589.29	46969.87
589.45	46368.35
589.61	46639.86
589.77	47201.58
589.93	46611.77
590.08	47232.01
590.24	47014.34
590.40	47313.93
590.56	47241.37
590.72	46955.83
590.88	46869.23
591.04	47199.24
591.20	47168.82
591.35	46986.25
591.51	47466.06
591.67	46993.28
591.83	47124.35
591.99	46745.18
592.15	47283.50
592.31	47398.19
592.46	46993.28
592.62	47079.88
592.78	47379.46
592.94	46897.31
593.10	46703.05
593.26	47215.63
593.41	46920.72
593.57	46934.76
593.73	46642.20
593.89	46909.02
594.05	46602.41
594.20	46838.80
594.36	47056.47
594.52	46707.73
594.68	46836.46
594.84	46667.94
594.99	47217.97
595.15	46576.66
595.31	47297.55
595.47	47070.51
595.62	46686.67
595.78	47004.98
595.94	47519.90
596.10	47000.30
596.25	47587.77
596.41	47103.28
596.57	46658.58
596.73	46930.08
596.88	46829.44
597.04	46997.96
597.20	47004.98
597.36	47278.82
597.51	47114.98
597.67	47033.07
597.83	47655.65
597.99	47327.97
598.14	46913.70
598.30	46927.74
598.46	46492.40
598.61	47103.28
598.77	46700.71
598.93	46869.23
599.09	47138.39
599.24	47288.18
599.40	47611.18
599.56	47339.68
599.71	47220.31
599.87	46960.51
600.03	46658.58
600.18	46775.61
600.34	46724.11
600.50	46845.82
600.65	47023.70
600.81	47091.58
600.97	47232.01
601.12	46911.36
601.28	47089.24
601.44	46611.77
601.59	46564.96
601.75	46784.97
601.91	46724.11
602.06	46630.49
602.22	46478.36
602.37	46958.17
602.53	46770.93
602.69	47409.89
602.84	46913.70
603.00	46717.09
603.16	47203.92
603.31	46827.10
603.47	47210.95
603.62	46398.78
603.78	47019.02
603.94	47002.64
604.09	47435.64
604.25	46997.96
604.40	46780.29
604.56	46820.08
604.71	47323.29
604.87	46855.18
605.03	47138.39
605.18	46841.14
605.34	46754.54
605.49	46988.60
605.65	46543.89
605.80	46483.04
605.96	46684.33
606.12	46916.04
606.27	47030.72
606.43	46761.56
606.58	46902.00
606.74	47030.72
606.89	46775.61
607.05	46665.60
607.20	46958.17
607.36	46693.69
607.51	46960.51
607.67	47021.36
607.82	46625.81
607.98	46686.67
608.13	46291.12
608.29	46911.36
608.44	46389.42
608.60	46433.89
608.75	46775.61
608.91	46752.20
609.06	46623.47
609.22	46625.81
609.37	46504.10
609.53	46649.22
609.68	46501.76
609.84	46164.73
609.99	46295.80
610.15	46017.27
610.30	46171.75
610.46	46356.65
610.61	46244.30
610.76	46237.28
610.92	45993.87
611.07	46593.04
611.23	46511.13
611.38	46408.14
611.54	46508.79
611.69	46354.31
611.84	46209.20
612.00	45923.65
612.15	46267.71
612.31	46131.96
612.46	45965.78
612.62	46134.30
612.77	46108.55
612.92	46300.48
613.08	45804.28
613.23	46078.13
613.39	45815.99
613.54	45654.49
613.69	45574.91
613.85	45743.43
614.00	46150.68
614.15	46335.59
614.31	45874.50
614.46	46124.94
614.62	45909.61
614.77	46120.26
614.92	46059.40
615.08	45390.01
615.23	45682.58
615.38	45993.87
615.54	45603.00
615.69	45305.75
615.84	45158.30
616.00	45490.65
616.15	45352.56
616.30	46007.91
616.46	45787.90
616.61	45603.00
616.76	45282.34
616.92	45275.32
617.07	45141.91
617.22	45106.80
617.37	45003.82
617.53	45500.01
617.68	45614.70
617.83	45584.27
617.99	45315.11
618.14	45146.59
618.29	44999.14
618.45	44737.00
618.60	44772.11
618.75	44837.64
618.90	44933.60
619.06	45055.31
619.21	45085.74
619.36	45219.15
619.51	45186.38
619.67	45289.37
619.82	45003.82
619.97	45031.91
620.12	44811.90
620.28	44720.62
620.43	44603.59
620.58	45148.93
620.73	44973.39
620.89	44767.43
621.04	44893.82
621.19	44790.83
621.34	44957.01
621.49	44626.99
621.65	44746.36
621.80	44910.20
621.95	44355.49
622.10	44938.29
622.25	43871.00
622.41	44285.28
622.56	44664.44
622.71	44514.65
622.86	44102.71
623.01	44332.09
623.16	44397.62
623.32	44744.02
623.47	44442.09
623.62	44491.24
623.77	44172.93
623.92	44367.20
624.07	44128.46
624.23	44175.27
624.38	44208.04
624.53	43945.90
624.68	44034.84
624.83	44273.57
624.98	44355.49
625.13	43618.22
625.29	43447.36
625.44	43655.67
625.59	43529.28
625.74	43370.13
625.89	43480.13
626.04	43672.06
626.19	43725.89
626.34	44112.08
626.49	43938.88
626.65	44025.48
626.80	44081.65
626.95	43269.48
627.10	43236.72
627.25	43496.52
627.40	43248.42
627.55	42843.51
627.70	42820.10
627.85	43548.01
628.00	43042.45
628.15	43419.28
628.30	43063.52
628.45	43489.49
628.60	43405.23
628.76	43529.28
628.91	42976.92
629.06	43044.79
629.21	43112.67
629.36	42937.13
629.51	42981.60
629.66	42969.90
629.81	43000.32
629.96	43150.12
630.11	43185.22
630.26	43178.20
630.41	43470.77
630.56	43009.68
630.71	42167.09
630.86	42862.23
631.01	42689.03
631.16	42784.99
631.31	42625.84
631.46	42220.92
631.61	42527.53
631.76	42284.12
631.91	42518.17
632.06	42836.48
632.21	42990.96
632.36	42518.17
632.51	42469.02
632.66	42637.54
632.81	42284.12
632.96	42684.35
633.10	42410.51
633.25	42127.30
633.40	42295.82
633.55	42632.86
633.70	42553.28
633.85	42459.66
634.00	42014.96
634.15	42387.10
634.30	42546.26
634.45	42607.11
634.60	42543.92
634.75	42373.06
634.90	41940.06
635.05	41883.89
635.19	41909.63
635.34	42227.95
635.49	42141.35
635.64	42178.79
635.79	42043.04
635.94	41841.76
636.09	41930.70
636.24	41317.48
636.39	41273.01
636.53	41968.15
636.68	41860.48
636.83	41996.23
636.98	41708.35
637.13	41900.27
637.28	41977.51
637.43	41759.84
637.57	41703.67
637.72	41228.54
637.87	41394.71
638.02	41670.90
638.17	41504.72
638.32	41483.66
638.46	41315.14
638.61	41387.69
638.76	41247.26
638.91	41900.27
639.06	41603.02
639.20	41757.50
639.35	41436.84
639.50	41652.17
639.65	41673.24
639.80	41116.19
639.94	41265.99
640.09	41565.57
640.24	40931.29
640.39	41074.06
640.54	40914.90
640.68	41298.75
640.83	41200.45
640.98	40704.26
641.13	40722.98
641.27	41558.55
641.42	41181.73
641.57	40722.98
641.72	41305.77
641.86	40779.15
642.01	40315.73
642.16	40762.77
642.31	40306.37
642.45	40416.37
642.60	40744.05
642.75	40837.67
642.90	40676.17
643.04	41027.25
643.19	39906.13
643.34	40671.49
643.48	40289.98
643.63	40477.22
643.78	40034.86
643.93	40339.13
644.07	40432.75
644.22	40308.71
644.37	40231.47
644.51	40325.09
644.66	40559.14
644.81	40271.26
644.95	40662.13
645.10	40399.99
645.25	40095.72
645.39	40329.77
645.54	40271.26
645.69	40261.90
645.83	39819.53
645.98	40198.70
646.13	40287.64
646.27	39999.76
646.42	39983.37
646.57	40121.46
646.71	39517.60
646.86	39606.55
647.00	40128.48
647.15	39999.76
647.30	39728.25
647.44	39700.17
647.59	39428.66
647.74	40011.46
647.88	39768.04
648.03	39929.54
648.17	39917.84
648.32	39136.10
648.47	39634.63
648.61	39779.74
648.76	40294.66
648.90	39576.12
649.05	39683.78
649.20	39075.24
649.34	39695.49
649.49	38925.45
649.63	38904.38
649.78	39269.51
649.92	39257.81
650.07	39826.56
650.21	39105.67
650.36	39543.35
650.51	39693.15
650.65	39709.53
650.80	39744.64
650.94	39466.11
651.09	39189.93
651.23	39159.50
651.38	39384.19
651.52	38913.75
651.67	39091.63
651.81	38866.94
651.96	39096.31
652.10	38754.59
652.25	38745.23
652.39	39168.87
652.54	39143.12
652.68	38902.04
652.83	39091.63
652.97	38686.71
653.12	38604.80
653.26	38562.67
653.41	38639.90
653.55	38469.04
653.70	38869.28
653.84	38988.64
653.99	38632.88
654.13	38930.13
654.27	38234.99
654.42	38480.75
654.56	38291.16
654.71	38602.46
654.85	38220.95
655.00	38494.79
655.14	38347.34
655.29	38040.73
655.43	38014.98
655.57	37921.36
655.72	37638.15
655.86	37750.50
656.01	37420.48
656.15	37654.54
656.30	37649.86
656.44	38033.71
656.58	37514.11
656.73	37933.06
656.87	37947.11
657.01	38059.45
657.16	37752.84
657.30	37652.20
657.45	38005.62
657.59	37687.31
657.73	37635.81
657.88	38265.42
658.02	37883.91
658.16	38171.80
658.31	37851.14
658.45	37734.12
658.60	37305.80
658.74	37993.92
658.88	37390.06
659.03	37352.61
659.17	37368.99
659.31	37418.14
659.46	37343.25
659.60	37151.32
659.74	37324.52
659.89	36980.46
660.03	37387.72
660.17	37471.98
660.32	37050.68
660.46	37390.06
660.60	36985.15
660.74	36875.14
660.89	36863.44
661.03	36662.15
661.17	36507.68
661.32	36680.88
661.46	36767.48
661.60	36535.76
661.74	36589.59
661.89	36481.93
662.03	36414.05
662.17	36851.73
662.31	36378.95
662.46	36797.90
662.60	36547.47
662.74	36802.58
662.88	36329.80
663.03	36102.76
663.17	36198.73
663.31	35662.74
663.45	36266.60
663.60	35817.22
663.74	35917.86
663.88	36161.28
664.02	35744.66
664.17	36278.30
664.31	35761.05
664.45	35796.15
664.59	35669.76
664.73	35821.90
664.88	35709.55
665.02	35594.87
665.16	35922.54
665.30	35545.72
665.44	35311.66
665.59	35000.37
665.73	34780.36
665.87	35374.86
666.01	34995.69
666.15	35360.81
666.29	35505.93
666.44	35424.01
666.58	35325.71
666.72	35119.74
666.86	34979.31
667.00	34799.08
667.14	34492.47
667.28	34377.79
667.43	34581.42
667.57	34930.16
667.71	34625.89
667.85	34593.12
667.99	34534.60
668.13	34288.85
668.27	34588.44
668.41	34541.63
668.56	34457.37
668.70	34298.21
668.84	34155.44
668.98	33619.46
669.12	33769.25
669.26	33914.36
669.40	33879.25
669.54	33631.16
669.68	33724.78
669.82	33757.55
669.96	33673.29
670.10	33556.26
670.25	33689.67
670.39	33200.50
670.53	33464.98
670.67	33113.90
670.81	33432.21
670.95	33294.12
671.09	33163.05
671.23	33120.92
671.37	33041.34
671.51	33003.89
671.65	32854.10
671.79	32737.07
671.93	32809.63
672.07	33188.80
672.21	32975.81
672.35	32828.35
672.49	32863.46
672.63	32449.19
672.77	32517.06
672.91	32275.99
673.05	32540.47
673.19	32268.97
673.33	32236.20
673.47	31810.22
673.61	31899.16
673.75	31992.78
673.89	31826.60
674.03	31662.77
674.17	31407.65
674.31	31775.11
674.45	31688.51
674.59	31637.02
674.73	31709.58
674.87	31676.81
675.01	31449.78
675.15	31087.00
675.29	31384.24
675.43	31241.47
675.56	31428.71
675.70	30869.33
675.84	30881.03
675.98	30185.89
676.12	31103.38
676.26	30874.01
676.40	30941.88
676.54	30937.20
676.68	30602.50
676.82	30431.65
676.96	30494.84
677.10	30363.77
677.23	30380.15
677.37	29750.55
677.51	29670.97
677.65	30033.75
677.79	29399.47
677.93	29748.21
678.07	29352.66
678.21	29139.67
678.34	29731.83
678.48	29139.67
678.62	29116.26
678.76	28346.23
678.90	28671.56
679.04	28599.01
679.18	28945.41
679.31	28610.71
679.45	28673.90
679.59	28259.63
679.73	28367.29
679.87	28187.07
680.00	28268.99
680.14	28245.58
680.28	28327.50
680.42	27995.15
680.56	27826.63
680.70	27936.63
680.83	27737.69
680.97	27768.12
681.11	27489.59
681.25	27332.78
681.39	27868.76
681.52	27697.90
681.66	27721.30
681.80	27314.05
681.94	27051.91
682.07	27241.50
682.21	27005.10
682.35	26946.59
682.49	27648.75
682.62	26934.88
682.76	26412.95
682.90	26487.84
683.04	26012.71
683.17	26129.74
683.31	26274.85
683.45	26345.07
683.59	25701.42
683.72	25895.69
683.86	25872.28
684.00	26160.17
684.13	25685.04
684.27	25659.29
684.41	25979.95
684.55	25596.10
684.68	25530.56
684.82	25448.64
684.96	25364.39
685.09	25172.46
685.23	24994.58
685.37	25013.31
685.50	25041.39
685.64	24884.58
685.78	24835.42
685.91	24685.63
686.05	24563.92
686.19	24236.25
686.32	24093.47
686.46	23616.01
686.60	23302.37
686.73	23604.30
686.87	23496.64
687.01	23342.16
687.14	22911.50
687.28	23290.67
687.42	23325.78
687.55	23103.43
687.69	23412.38
687.82	23363.23
687.96	23250.88
688.10	23159.60
688.23	23089.38
688.37	22742.99
688.50	22850.65
688.64	22700.86
688.78	22740.64
688.91	22663.41
689.05	22625.96
689.18	22410.63
689.32	21823.16
689.46	22104.02
689.59	22459.78
689.73	22588.51
689.86	22312.33
690.00	21802.09
690.13	22150.83
690.27	22010.40
690.41	21958.91
690.54	21451.01
690.68	21310.58
690.81	21617.19
690.95	21748.26
691.08	21350.37
691.22	21364.41
691.35	21247.38
691.49	21589.10
691.62	21252.06
691.76	21039.08
691.89	20982.90
692.03	20872.90
692.16	20702.04
692.30	20790.98
692.43	20432.88
692.57	20390.75
692.70	20491.39
692.84	20512.46
692.97	20262.02
693.11	20381.38
693.24	20046.69
693.38	20056.05
693.51	19960.09
693.65	20325.21
693.78	19786.89
693.92	19770.51
694.05	19695.61
694.19	19522.41
694.32	19419.42
694.45	19456.87
694.59	19297.72
694.72	19154.94
694.86	19077.71
694.99	18834.29
695.13	19033.24
695.26	19000.47
695.39	18972.38
695.53	18979.40
695.66	18721.95
695.80	19000.47
695.93	18427.04
696.07	18525.34
696.20	18637.69
696.33	18523.00
696.47	18464.49
696.60	18183.62
696.73	18181.28
696.87	17795.09
697.00	18291.29
697.14	17741.26
697.27	17668.70
697.40	17884.03
697.54	17696.79
697.67	17446.35
697.80	17420.61
697.94	17296.56
698.07	17390.18
698.21	17160.81
698.34	17137.40
698.47	17268.47
698.61	16987.61
698.74	17018.04
698.87	16484.39
699.01	16435.24
699.14	16769.94
699.27	16559.29
699.40	16767.60
699.54	16374.39
699.67	16477.37
699.80	16421.20
699.94	16290.13
700.07	16379.07
700.20	16273.74
700.34	16306.51
700.47	16271.40
700.60	16187.14
700.73	16432.90
700.87	15929.69
701.00	16025.65
701.13	15740.10
701.26	15587.97
701.40	15580.95
701.53	15667.55
701.66	15499.03
701.79	15222.84
701.93	15129.22
702.06	15161.99
702.19	14967.73
702.32	14965.39
702.46	14986.45
702.59	15185.40
702.72	15033.26
702.85	14899.85
702.99	14841.34
703.12	14572.18
703.25	14487.92
703.38	14630.69
703.51	14455.15
703.65	14401.32
703.78	14424.72
703.91	14031.51
704.04	14139.18
704.17	14181.31
704.31	13877.04
704.44	13881.72
704.57	14092.37
704.70	14033.85
704.83	13855.97
704.96	13832.57
705.10	14078.32
705.23	13743.63
>>>>>End Processed Spectral Data<<<<<
