SpectraSuite Data File
++++++++++++++++++++++++++++++++++++
Date: Fri Oct 25 11:33:18 EDT 2013
User: price-jones
Dark Spectrum Present: No
Reference Spectrum Present: No
Number of Sampled Component Spectra: 1
Spectrometers: USB2+H05261
Integration Time (usec): 100000 (USB2+H05261)
Spectra Averaged: 1 (USB2+H05261)
Boxcar Smoothing: 0 (USB2+H05261)
Correct for Electrical Dark: No (USB2+H05261)
Strobe/Lamp Enabled: No (USB2+H05261)
Correct for Detector Non-linearity: No (USB2+H05261)
Correct for Stray Light: No (USB2+H05261)
Number of Pixels in Processed Spectrum: 2048
>>>>>Begin Processed Spectral Data<<<<<
365.73	229.37
365.92	229.37
366.12	229.37
366.32	250.44
366.52	224.69
366.72	182.56
366.91	166.18
367.11	135.75
367.31	147.45
367.51	229.37
367.70	124.05
367.90	189.58
368.10	245.76
368.30	184.90
368.49	126.39
368.69	215.33
368.89	189.58
369.09	245.76
369.28	259.80
369.48	224.69
369.68	236.39
369.87	238.73
370.07	262.14
370.27	264.48
370.47	311.29
370.66	482.15
370.86	535.98
371.06	489.17
371.25	540.66
371.45	519.60
371.65	557.05
371.84	554.71
372.04	578.11
372.24	559.39
372.44	622.58
372.63	592.16
372.83	624.92
373.03	620.24
373.22	550.03
373.42	592.16
373.62	641.31
373.81	603.86
374.01	678.76
374.21	620.24
374.40	650.67
374.60	587.47
374.79	685.78
374.99	594.50
375.19	648.33
375.38	671.73
375.58	615.56
375.78	641.31
375.97	671.73
376.17	725.57
376.37	660.03
376.56	653.01
376.76	678.76
376.95	631.94
377.15	592.16
377.35	664.71
377.54	669.39
377.74	643.65
377.93	681.10
378.13	638.97
378.33	763.01
378.52	685.78
378.72	667.05
378.91	631.94
379.11	699.82
379.31	596.84
379.50	744.29
379.70	767.70
379.89	748.97
380.09	711.52
380.28	732.59
380.48	784.08
380.68	671.73
380.87	713.86
381.07	781.74
381.26	774.72
381.46	739.61
381.65	755.99
381.85	753.65
382.04	751.31
382.24	751.31
382.43	702.16
382.63	720.88
382.83	744.29
383.02	791.10
383.22	767.70
383.41	774.72
383.61	847.27
383.80	863.66
384.00	908.13
384.19	812.17
384.39	823.87
384.58	849.61
384.78	880.04
384.97	809.83
385.17	751.31
385.36	884.72
385.56	922.17
385.75	835.57
385.95	884.72
386.14	880.04
386.34	800.46
386.53	837.91
386.72	833.23
386.92	908.13
387.11	842.59
387.31	917.49
387.50	926.85
387.70	793.44
387.89	908.13
388.09	945.58
388.28	950.26
388.48	957.28
388.67	903.45
388.86	924.51
389.06	894.08
389.25	940.90
389.45	940.90
389.64	973.66
389.84	999.41
390.03	1083.67
390.22	1006.43
390.42	945.58
390.61	985.37
390.81	922.17
391.00	978.34
391.19	1043.88
391.39	994.73
391.58	1029.84
391.78	1032.18
391.97	1027.50
392.16	1039.20
392.36	1081.33
392.55	968.98
392.75	971.32
392.94	1034.52
393.13	1060.26
393.33	1076.65
393.52	1083.67
393.71	1125.80
393.91	1071.97
394.10	1095.37
394.29	1158.57
394.49	1137.50
394.68	1128.14
394.88	1146.86
395.07	1191.33
395.26	1165.59
395.46	1144.52
395.65	1200.69
395.84	1188.99
396.04	1289.64
396.23	1254.53
396.42	1207.72
396.62	1268.57
396.81	1268.57
397.00	1247.51
397.19	1198.35
397.39	1177.29
397.58	1214.74
397.77	1266.23
397.97	1338.79
398.16	1245.16
398.35	1291.98
398.55	1273.25
398.74	1303.68
398.93	1409.00
399.12	1317.72
399.32	1348.15
399.51	1259.21
399.70	1418.36
399.90	1313.04
400.09	1397.30
400.28	1430.07
400.47	1409.00
400.67	1390.28
400.86	1462.83
401.05	1409.00
401.24	1423.05
401.44	1371.55
401.63	1458.15
401.82	1359.85
402.01	1458.15
402.21	1530.71
402.40	1511.99
402.59	1495.60
402.78	1514.33
402.97	1523.69
403.17	1568.16
403.36	1533.05
403.55	1533.05
403.74	1603.27
403.93	1624.33
404.13	1540.07
404.32	1617.31
404.51	1605.61
404.70	1603.27
404.89	1605.61
405.09	1612.63
405.28	1760.08
405.47	1685.19
405.66	1685.19
405.85	1760.08
406.05	1769.44
406.24	1736.68
406.43	1778.81
406.62	1895.83
406.81	1849.02
407.00	1856.04
407.20	1816.26
407.39	1823.28
407.58	1802.21
407.77	1867.75
407.96	1816.26
408.15	1893.49
408.34	1853.70
408.54	1987.11
408.73	2010.52
408.92	1886.47
409.11	1956.69
409.30	2085.42
409.49	2022.22
409.68	1900.52
409.87	2097.12
410.07	2118.18
410.26	2076.06
410.45	2019.88
410.64	2001.16
410.83	2064.35
411.02	2097.12
411.21	2207.13
411.40	2134.57
411.59	2209.47
411.78	2172.02
411.98	2230.53
412.17	2293.72
412.36	2401.39
412.55	2326.49
412.74	2342.88
412.93	2291.38
413.12	2413.09
413.31	2373.30
413.50	2345.22
413.69	2450.54
413.88	2483.31
414.07	2387.35
414.26	2466.92
414.45	2459.90
414.64	2546.50
414.83	2628.42
415.02	2607.36
415.22	2745.45
415.41	2586.29
415.60	2656.51
415.79	2726.72
415.98	2825.03
416.17	2801.62
416.36	2759.49
416.55	2827.37
416.74	2818.00
416.93	2881.20
417.12	2874.18
417.31	2843.75
417.50	2965.46
417.69	3052.06
417.88	2953.76
418.07	2946.73
418.26	3040.36
418.45	2930.35
418.64	3192.49
418.83	2986.52
419.02	3143.34
419.21	3066.10
419.39	3126.96
419.58	3035.67
419.77	2981.84
419.96	3157.38
420.15	3251.00
420.34	3159.72
420.53	3166.74
420.72	3251.00
420.91	3152.70
421.10	3328.24
421.29	3419.52
421.48	3295.47
421.67	3262.71
421.86	3316.54
422.05	3382.07
422.24	3215.90
422.43	3442.93
422.61	3433.57
422.80	3417.18
422.99	3468.67
423.18	3447.61
423.37	3480.38
423.56	3384.41
423.75	3515.48
423.94	3386.76
424.13	3190.15
424.32	3356.33
424.50	3440.59
424.69	3517.83
424.88	3475.70
425.07	3527.19
425.26	3309.52
425.45	3431.23
425.64	3365.69
425.83	3620.81
426.01	3468.67
426.20	3447.61
426.39	3454.63
426.58	3508.46
426.77	3503.78
426.96	3611.45
427.15	3653.58
427.33	3590.38
427.52	3618.47
427.71	3676.98
427.90	3496.76
428.09	3784.65
428.28	3698.05
428.46	3681.66
428.65	3613.79
428.84	3871.25
429.03	3943.80
429.22	3667.62
429.40	3721.45
429.59	3765.92
429.78	3702.73
429.97	3854.86
430.16	3765.92
430.34	3913.38
430.53	3911.04
430.72	3929.76
430.91	3955.51
431.10	4046.79
431.28	3955.51
431.47	3922.74
431.66	4037.42
431.85	3946.14
432.03	4187.22
432.22	4191.90
432.41	4046.79
432.60	4217.65
432.79	4109.98
432.97	4056.15
433.16	4100.62
433.35	4194.24
433.54	3995.29
433.72	4294.88
433.91	4152.11
434.10	4245.73
434.28	4236.37
434.47	4255.09
434.66	4329.99
434.85	4402.55
435.03	4444.68
435.22	4313.61
435.41	4538.30
435.59	4358.08
435.78	4432.97
435.97	4344.03
436.16	4477.44
436.34	4386.16
436.53	4507.87
436.72	4519.57
436.90	4465.74
437.09	4484.47
437.28	4568.73
437.46	4613.20
437.65	4514.89
437.84	4461.06
438.02	4676.39
438.21	4610.86
438.40	4702.14
438.58	4702.14
438.77	4601.49
438.96	4807.46
439.14	4809.80
439.33	4990.02
439.52	4723.20
439.70	4826.18
439.89	5074.28
440.08	5053.22
440.26	5104.71
440.45	4945.55
440.63	5125.77
440.82	5289.61
441.01	5158.54
441.19	5245.14
441.38	5364.51
441.57	5345.78
441.75	5324.72
441.94	5610.26
442.12	5500.26
442.31	5352.81
442.50	5521.32
442.68	5596.22
442.87	5481.53
443.05	5446.43
443.24	5666.44
443.43	5668.78
443.61	5671.12
443.80	5916.87
443.98	5652.39
444.17	5568.13
444.35	5643.03
444.54	5736.65
444.73	5621.97
444.91	5596.22
445.10	5621.97
445.28	5762.40
445.47	5631.33
445.65	5664.10
445.84	5767.08
446.02	5727.29
446.21	5816.23
446.39	5746.02
446.58	5841.98
446.77	5776.44
446.95	5652.39
447.14	5715.59
447.32	5762.40
447.51	5750.70
447.69	5701.54
447.88	5813.89
448.06	5870.06
448.25	5818.57
448.43	5841.98
448.62	5830.27
448.80	5827.93
448.99	5849.00
449.17	6108.80
449.36	5928.58
449.54	6043.26
449.73	6141.57
449.91	6113.48
450.10	6174.33
450.28	6246.89
450.46	6253.91
450.65	6143.91
450.83	6263.27
451.02	6359.24
451.20	6368.60
451.39	6218.80
451.57	6230.51
451.76	6186.04
451.94	6303.06
452.13	6396.68
452.31	6406.05
452.49	6328.81
452.68	6527.75
452.86	6303.06
453.05	6349.87
453.23	6473.92
453.42	6331.15
453.60	6403.71
453.78	6555.84
453.97	6443.49
454.15	6438.81
454.34	6476.26
454.52	6576.91
454.70	6614.35
454.89	6623.72
455.07	6534.78
455.26	6443.49
455.44	6857.77
455.62	6775.85
455.81	6710.32
455.99	6761.81
456.17	6848.41
456.36	6927.99
456.54	6820.32
456.73	6946.71
456.91	7117.57
457.09	6998.20
457.28	7110.55
457.46	6883.52
457.64	7136.29
457.83	7061.40
458.01	7115.23
458.19	7171.40
458.38	7199.49
458.56	7206.51
458.74	7279.07
458.93	7353.96
459.11	7377.37
459.29	7262.68
459.48	7318.86
459.66	7227.57
459.84	7543.55
460.03	7707.38
460.21	7548.23
460.39	7293.11
460.57	7349.28
460.76	7616.10
460.94	7461.63
461.12	7485.03
461.31	7440.56
461.49	7478.01
461.67	7564.61
461.85	7735.47
462.04	7676.96
462.22	8060.80
462.40	7803.35
462.59	7812.71
462.77	7733.13
462.95	7796.32
463.13	7908.67
463.32	7950.80
463.50	8002.29
463.68	8231.66
463.86	7918.03
464.05	7793.98
464.23	7768.24
464.41	8135.70
464.59	7868.88
464.78	8135.70
464.96	7969.52
465.14	7826.75
465.32	8149.75
465.50	8255.07
465.69	8187.19
465.87	8163.79
466.05	8334.65
466.23	8222.30
466.41	8222.30
466.60	8135.70
466.78	8161.45
466.96	8414.23
467.14	8479.76
467.32	8177.83
467.51	8407.20
467.69	8180.17
467.87	8187.19
468.05	8585.08
468.23	8397.84
468.41	8437.63
468.60	8519.55
468.78	8844.88
468.96	8699.77
469.14	8667.00
469.32	8748.92
469.50	8465.72
469.69	8477.42
469.87	8872.97
470.05	8589.77
470.23	8842.54
470.41	8730.20
470.59	8816.80
470.77	8753.60
470.95	8861.27
471.14	9060.21
471.32	8982.98
471.50	9195.96
471.68	9256.82
471.86	9296.61
472.04	9217.03
472.22	9518.96
472.40	9245.12
472.58	9240.44
472.77	9460.45
472.95	9453.42
473.13	9750.67
473.31	9554.07
473.49	9591.52
473.67	9514.28
473.85	9617.26
474.03	9750.67
474.21	9689.82
474.39	9905.15
474.57	9823.23
474.75	10052.60
474.93	10214.10
475.12	9975.36
475.30	10146.22
475.48	9980.04
475.66	10277.29
475.84	10043.24
476.02	10139.20
476.20	10235.16
476.38	10387.30
476.56	10829.66
476.74	10623.69
476.92	10452.83
477.10	10593.26
477.28	10778.17
477.46	10778.17
477.64	10780.51
477.82	11042.65
478.00	11089.46
478.18	11154.99
478.36	11178.40
478.54	11543.52
478.72	11412.45
478.90	11419.47
479.08	11768.21
479.26	12107.59
479.44	11775.24
479.62	12002.27
479.80	11962.48
479.98	11964.82
480.16	12383.77
480.34	12257.39
480.52	12451.65
480.70	12470.37
480.88	12273.77
481.06	12418.88
481.24	12620.17
481.41	13015.72
481.59	13116.36
481.77	13029.76
481.95	12769.96
482.13	13039.12
482.31	13116.36
482.49	13362.12
482.67	13561.06
482.85	13603.19
483.03	13788.10
483.21	13731.92
483.39	13811.50
483.57	13699.16
483.74	14008.11
483.92	13975.34
484.10	14164.92
484.28	14785.16
484.46	14649.41
484.64	14897.51
484.82	14714.95
485.00	14707.93
485.18	14822.61
485.35	15257.95
485.53	15220.50
485.71	15365.62
485.89	15602.01
486.07	15536.48
486.25	15639.46
486.43	15786.91
486.61	15721.38
486.78	15925.00
486.96	16065.44
487.14	16402.47
487.32	16170.76
487.50	16428.22
487.68	16229.27
487.85	16486.73
488.03	16964.20
488.21	17015.69
488.39	16915.05
488.57	17289.54
488.75	17383.16
488.92	17350.39
489.10	17900.42
489.28	17703.81
489.46	17603.17
489.64	17942.55
489.81	18349.80
489.99	18012.76
490.17	18492.57
490.35	18735.99
490.53	18750.03
490.70	18827.27
490.88	18984.09
491.06	19112.81
491.24	18738.33
491.41	19091.75
491.59	19243.88
491.77	19482.62
491.95	19403.04
492.13	19695.61
492.30	20025.62
492.48	20180.10
492.66	20168.40
492.84	20456.28
493.01	20315.85
493.19	20063.07
493.37	20692.68
493.54	20439.90
493.72	20779.28
493.90	20507.77
494.08	20996.95
494.25	21298.88
494.43	21123.33
494.61	21135.04
494.79	21392.50
494.96	21172.49
495.14	21518.89
495.32	22104.02
495.49	22061.89
495.67	22085.30
495.85	22204.66
496.02	22457.44
496.20	22431.69
496.38	22541.70
496.55	22644.68
496.73	23307.05
496.91	23082.36
497.09	23103.43
497.26	22848.31
497.44	22939.59
497.62	23608.98
497.79	23641.75
497.97	23496.64
498.14	23737.71
498.32	24051.34
498.50	23828.99
498.67	24191.78
498.85	23957.72
499.03	24163.69
499.20	24011.56
499.38	24161.35
499.56	24322.85
499.73	24856.49
499.91	24861.17
500.08	25125.65
500.26	24950.11
500.44	24388.38
500.61	25146.72
500.79	24711.38
500.97	25336.30
501.14	25825.47
501.32	25364.39
501.49	25551.63
501.67	25539.93
501.84	26162.51
502.02	25645.25
502.20	25607.80
502.37	25874.62
502.55	25993.99
502.72	26279.54
502.90	25972.92
503.07	25919.09
503.25	26052.50
503.43	26082.93
503.60	26457.42
503.78	26752.32
503.95	26747.64
504.13	26693.81
504.30	26974.67
504.48	26757.00
504.65	26761.69
504.83	26955.95
505.01	27428.74
505.18	27470.87
505.36	27576.19
505.53	27550.45
505.71	27679.18
505.88	27751.73
506.06	27718.96
506.23	27845.35
506.41	27953.02
506.58	27550.45
506.76	28203.46
506.93	28175.37
507.11	28144.94
507.28	27845.35
507.46	28348.57
507.63	28517.09
507.81	28449.21
507.98	28320.48
508.16	28613.05
508.33	29043.71
508.50	28900.94
508.68	29195.84
508.85	29043.71
509.03	28891.57
509.20	29048.39
509.38	29284.78
509.55	29401.81
509.73	29509.47
509.90	29479.05
510.08	29521.18
510.25	29544.58
510.42	29546.92
510.60	30082.91
510.77	30394.20
510.95	30712.51
511.12	30190.57
511.30	30085.25
511.47	30213.98
511.64	30670.38
511.82	30948.90
511.99	30412.92
512.17	30883.37
512.34	30518.25
512.51	31175.94
512.69	31082.31
512.86	31014.44
513.04	31232.11
513.21	31019.12
513.38	31398.29
513.56	31152.53
513.73	31264.88
513.90	31679.15
514.08	31321.05
514.25	31578.51
514.43	32051.30
514.60	31990.44
514.77	32465.57
514.95	32133.21
515.12	31997.46
515.29	31821.92
515.47	32137.90
515.64	32357.91
515.81	32243.22
515.99	32318.12
516.16	32788.56
516.33	32598.98
516.51	32725.37
516.68	32620.05
516.85	32648.13
517.03	33034.32
517.20	33158.37
517.37	33394.76
517.54	32809.63
517.72	33256.67
517.89	32952.40
518.06	33441.57
518.24	33354.97
518.41	33205.18
518.58	33284.76
518.75	33317.53
518.93	33514.13
519.10	33373.70
519.27	33827.76
519.45	33638.18
519.62	34087.56
519.79	34026.71
519.96	34178.84
520.14	34309.91
520.31	34209.27
520.48	34487.79
520.65	34164.80
520.83	34712.49
521.00	34820.15
521.17	35035.48
521.34	34724.19
521.52	34710.14
521.69	34998.03
521.86	35138.46
522.03	35108.04
522.20	35150.17
522.38	35330.39
522.55	35491.88
522.72	35271.87
522.89	35269.53
523.07	35716.58
523.24	35613.59
523.41	35796.15
523.58	35606.57
523.75	35945.95
523.92	36023.19
524.10	35915.52
524.27	35964.67
524.44	35922.54
524.61	36301.71
524.78	36563.85
524.96	36306.39
525.13	36594.28
525.30	35931.90
525.47	36666.83
525.64	36474.91
525.81	36568.53
525.98	36734.71
526.16	36697.26
526.33	36547.47
526.50	36854.08
526.67	36510.02
526.84	36795.56
527.01	37209.84
527.18	36825.99
527.36	36776.84
527.53	36989.83
527.70	37486.02
527.87	37706.03
528.04	37041.32
528.21	37376.01
528.38	37652.20
528.55	37586.66
528.72	37570.28
528.89	37441.55
529.07	37326.86
529.24	37516.45
529.41	38024.34
529.58	37862.85
529.75	37755.18
529.92	37787.95
530.09	38036.05
530.26	37970.51
530.43	38064.13
530.60	37958.81
530.77	38050.09
530.94	38642.24
531.11	38073.49
531.28	38354.36
531.46	38373.08
531.63	38359.04
531.80	38244.35
531.97	39012.05
532.14	38841.19
532.31	38653.95
532.48	38976.94
532.65	39091.63
532.82	39129.08
532.99	38801.40
533.16	38775.66
533.33	38719.48
533.50	39725.91
533.67	39047.16
533.84	38618.84
534.01	39082.27
534.18	39367.81
534.35	39618.25
534.52	39269.51
534.69	39665.06
534.86	39721.23
535.03	39515.26
535.20	39852.30
535.37	39861.66
535.54	40154.23
535.71	39445.05
535.88	39793.79
536.05	39924.86
536.22	39927.20
536.38	39665.06
536.55	39887.41
536.72	39917.84
536.89	39927.20
537.06	39899.11
537.23	40479.57
537.40	39910.82
537.57	40243.17
537.74	40341.47
537.91	40713.62
538.08	40697.24
538.25	40552.12
538.42	40704.26
538.59	41160.66
538.75	40720.64
538.92	41078.74
539.09	40678.51
539.26	40758.09
539.43	40971.08
539.60	41088.10
539.77	40554.46
539.94	41280.03
540.11	41151.30
540.28	41397.06
540.44	40802.56
540.61	41298.75
540.78	41488.34
540.95	41043.63
541.12	41139.60
541.29	41296.41
541.46	41336.20
541.62	41610.04
541.79	41401.74
541.96	41326.84
542.13	41153.64
542.30	41549.19
542.47	41640.47
542.63	41696.64
542.80	41818.35
542.97	42134.32
543.14	42307.52
543.31	41846.44
543.48	42539.24
543.64	42799.04
543.81	42260.71
543.98	42195.18
544.15	42071.13
544.32	42529.87
544.48	42710.10
544.65	42789.67
544.82	42588.39
544.99	42117.94
545.16	42665.63
545.32	42607.11
545.49	42969.90
545.66	43274.16
545.83	42988.62
546.00	42864.57
546.16	42789.67
546.33	42808.40
546.50	42618.81
546.67	43316.29
546.83	42827.12
547.00	43210.97
547.17	42986.28
547.34	43175.86
547.50	43421.62
547.67	43739.93
547.84	43388.85
548.00	43335.02
548.17	43192.25
548.34	43573.75
548.51	43697.80
548.67	43992.71
548.84	43608.86
549.01	43753.97
549.18	43508.22
549.34	43798.44
549.51	43489.49
549.68	43959.94
549.84	43796.10
550.01	44055.90
550.18	43203.95
550.34	43852.28
550.51	43744.61
550.68	43952.92
550.84	43913.13
551.01	44224.42
551.18	43697.80
551.34	44037.18
551.51	44044.20
551.68	43978.67
551.84	44039.52
552.01	44149.53
552.18	44437.41
552.34	44004.41
552.51	44671.46
552.68	44149.53
552.84	44781.47
553.01	44311.02
553.18	44315.70
553.34	44591.89
553.51	44631.68
553.67	44563.80
553.84	44619.97
554.01	44912.54
554.17	44996.80
554.34	45184.04
554.51	44526.35
554.67	44973.39
554.84	45116.17
555.00	44657.42
555.17	45120.85
555.33	44814.24
555.50	45188.72
555.67	44727.64
555.83	44917.22
556.00	45500.01
556.16	45392.35
556.33	45352.56
556.50	45361.92
556.66	45106.80
556.83	44926.58
556.99	45324.47
557.16	45375.97
557.32	45294.05
557.49	45006.16
557.65	44814.24
557.82	45694.28
557.98	45485.97
558.15	45738.75
558.32	45804.28
558.48	45280.00
558.65	45682.58
558.81	45591.30
558.98	45427.46
559.14	45382.99
559.31	45666.19
559.47	45689.60
559.64	45911.95
559.80	46050.04
559.97	45876.84
560.13	45670.87
560.30	45757.47
560.46	46017.27
560.63	45736.41
560.79	46089.83
560.96	46181.11
561.12	46712.41
561.29	46225.58
561.45	46351.97
561.61	46106.21
561.78	45879.18
561.94	46190.47
562.11	45909.61
562.27	45996.21
562.44	45619.38
562.60	46398.78
562.77	46195.15
562.93	45970.46
563.10	46227.92
563.26	46000.89
563.42	46347.29
563.59	46110.89
563.75	46167.07
563.92	46541.55
564.08	46190.47
564.24	46866.89
564.41	46309.84
564.57	46354.31
564.74	46623.47
564.90	46358.99
565.07	46464.32
565.23	46841.14
565.39	46574.32
565.56	46429.21
565.72	46520.49
565.88	46286.43
566.05	46178.77
566.21	46642.20
566.38	46232.60
566.54	46703.05
566.70	46553.26
566.87	46614.11
567.03	46522.83
567.19	46791.99
567.36	46581.34
567.52	46223.24
567.68	46958.17
567.85	47047.11
568.01	47114.98
568.17	46773.27
568.34	46803.69
568.50	47098.60
568.66	46703.05
568.83	46845.82
568.99	46632.83
569.15	46801.35
569.32	46642.20
569.48	47044.77
569.64	47246.05
569.81	47000.30
569.97	46995.62
570.13	46913.70
570.30	46604.75
570.46	47194.56
570.62	47377.12
570.78	46799.01
570.95	47007.32
571.11	47215.63
571.27	46490.06
571.43	46653.90
571.60	47309.25
571.76	46864.55
571.92	46759.22
572.09	46714.75
572.25	47248.39
572.41	46944.12
572.57	47093.92
572.74	47842.89
572.90	47047.11
573.06	47241.37
573.22	46834.12
573.38	47386.49
573.55	47253.08
573.71	47648.63
573.87	47318.61
574.03	47201.58
574.20	47257.76
574.36	47533.94
574.52	47323.29
574.68	47489.47
574.84	47070.51
575.01	47346.70
575.17	47337.33
575.33	47201.58
575.49	47199.24
575.65	47030.72
575.82	47381.80
575.98	47012.00
576.14	47395.85
576.30	47746.93
576.46	47323.29
576.62	47456.70
576.79	47543.30
576.95	46761.56
577.11	47323.29
577.27	47484.79
577.43	47489.47
577.59	47498.83
577.75	47391.17
577.92	47339.68
578.08	47543.30
578.24	47276.48
578.40	47632.24
578.56	47826.51
578.72	47725.86
578.88	47622.88
579.04	47168.82
579.21	47494.15
579.37	47526.92
579.53	47831.19
579.69	47681.39
579.85	47578.41
580.01	47047.11
580.17	47358.40
580.33	47379.46
580.49	46951.15
580.65	47332.65
580.82	47643.94
580.98	47526.92
581.14	47381.80
581.30	47608.84
581.46	47229.67
581.62	47398.19
581.78	47344.36
581.94	47412.23
582.10	47540.96
582.26	47510.53
582.42	47690.76
582.58	47887.36
582.74	48013.75
582.90	47704.80
583.06	47779.70
583.22	47274.14
583.38	47306.91
583.54	47798.42
583.70	47817.14
583.86	47833.53
584.02	47372.44
584.18	47976.30
584.34	47873.32
584.50	48067.58
584.66	47896.72
584.82	47859.27
584.98	48105.03
585.14	47496.49
585.30	47543.30
585.46	47910.77
585.62	47569.05
585.78	47716.50
585.94	47016.68
586.10	48062.90
586.26	47461.38
586.42	47700.12
586.58	48112.05
586.74	47480.11
586.90	47416.91
587.06	47538.62
587.22	47742.25
587.38	47875.66
587.54	47700.12
587.70	48154.18
587.86	47615.86
588.02	47681.39
588.18	47725.86
588.34	47966.94
588.49	47810.12
588.65	48011.41
588.81	47711.82
588.97	48011.41
589.13	47817.14
589.29	48128.44
589.45	48294.61
589.61	47962.26
589.77	47962.26
589.93	47814.80
590.08	48245.46
590.24	48100.35
590.40	48416.32
590.56	48168.22
590.72	48425.68
590.88	47796.08
591.04	47758.63
591.20	48144.82
591.35	48170.57
591.51	48507.60
591.67	48376.53
591.83	48320.36
591.99	48289.93
592.15	48013.75
592.31	48428.02
592.46	48170.57
592.62	48385.89
592.78	48439.73
592.94	48165.88
593.10	48519.31
593.26	48774.42
593.41	48610.59
593.57	48252.48
593.73	48301.64
593.89	48254.82
594.05	48425.68
594.20	48446.75
594.36	48722.93
594.52	48687.82
594.68	48556.75
594.84	48243.12
594.99	49043.59
595.15	48507.60
595.31	48266.53
595.47	48318.02
595.62	48200.99
595.78	48458.45
595.94	48514.62
596.10	48648.03
596.25	48488.88
596.41	48800.17
596.57	48666.76
596.73	48671.44
596.88	48556.75
597.04	48587.18
597.20	48622.29
597.36	48177.59
597.51	48554.41
597.67	48416.32
597.83	48683.14
597.99	48854.00
598.14	48474.84
598.30	48596.54
598.46	48460.79
598.61	48818.89
598.77	48568.46
598.93	48818.89
599.09	48516.96
599.24	48872.73
599.40	48800.17
599.56	48732.29
599.71	49001.46
599.87	49174.66
600.03	48971.03
600.18	48952.30
600.34	48615.27
600.50	48722.93
600.65	48617.61
600.81	48701.87
600.97	48877.41
601.12	48655.06
601.28	48598.88
601.44	48584.84
601.59	48659.74
601.75	48559.09
601.91	48802.51
602.06	48788.47
602.22	48919.54
602.37	48416.32
602.53	48652.72
602.69	49045.93
602.84	48271.21
603.00	48657.40
603.16	48409.30
603.31	48149.50
603.47	49205.08
603.62	48648.03
603.78	48987.41
603.94	48706.55
604.09	48549.73
604.25	48729.95
604.40	48596.54
604.56	48580.16
604.71	48669.10
604.87	48542.71
605.03	48673.78
605.18	48177.59
605.34	48816.55
605.49	48481.86
605.65	48523.99
605.80	48678.46
605.96	48472.49
606.12	48596.54
606.27	48488.88
606.43	48472.49
606.58	48481.86
606.74	48624.63
606.89	48093.33
607.05	49158.27
607.20	48849.32
607.36	48488.88
607.51	48685.48
607.67	48006.73
607.82	48390.58
607.98	48563.78
608.13	48626.97
608.29	48315.68
608.44	48690.16
608.60	48191.63
608.75	48856.34
608.91	48397.60
609.06	48369.51
609.22	48629.31
609.37	48477.18
609.53	48395.26
609.68	48722.93
609.84	48329.72
609.99	48184.61
610.15	48219.72
610.30	48622.29
610.46	48367.17
610.61	48231.42
610.76	48552.07
610.92	48266.53
611.07	48573.14
611.23	48334.40
611.38	48240.78
611.54	48421.00
611.69	48528.67
611.84	48184.61
612.00	48257.17
612.15	48041.84
612.31	48493.56
612.46	47657.99
612.62	47892.04
612.77	48048.86
612.92	48114.39
613.08	47929.49
613.23	48081.63
613.39	47789.06
613.54	48060.56
613.69	48203.33
613.85	47824.17
614.00	47997.37
614.15	48165.88
614.31	47971.62
614.46	47882.68
614.62	48081.63
614.77	47742.25
614.92	47655.65
615.08	47739.91
615.23	47908.43
615.38	48320.36
615.54	48170.57
615.69	47810.12
615.84	47842.89
616.00	48172.91
616.15	48130.78
616.30	48168.22
616.46	47224.99
616.61	47686.07
616.76	47964.60
616.92	47765.65
617.07	47894.38
617.22	48023.11
617.37	47430.96
617.53	47805.44
617.68	47669.69
617.83	47533.94
617.99	47690.76
618.14	47655.65
618.29	47227.33
618.45	47716.50
618.60	47175.84
618.75	47234.35
618.90	47473.09
619.06	47349.04
619.21	47161.79
619.36	47718.84
619.51	47381.80
619.67	46981.57
619.82	47267.12
619.97	47517.56
620.12	47423.93
620.28	47217.97
620.43	47943.53
620.58	47353.72
620.73	47562.03
620.89	47253.08
621.04	47641.60
621.19	47416.91
621.34	47208.61
621.49	47026.04
621.65	47091.58
621.80	47327.97
621.95	47213.29
622.10	46988.60
622.25	47075.19
622.41	46944.12
622.56	46983.91
622.71	47327.97
622.86	47412.23
623.01	46815.40
623.16	47297.55
623.32	47040.09
623.47	47042.43
623.62	46621.13
623.77	46749.86
623.92	46902.00
624.07	47061.15
624.23	47138.39
624.38	46960.51
624.53	46768.58
624.68	46576.66
624.83	47580.75
624.98	46869.23
625.13	46337.93
625.29	46078.13
625.44	46707.73
625.59	46721.77
625.74	46834.12
625.89	46274.73
626.04	46646.88
626.19	46328.56
626.34	46424.53
626.49	46532.19
626.65	45921.31
626.80	46820.08
626.95	46307.50
627.10	46028.98
627.25	46440.91
627.40	46220.90
627.55	46670.28
627.70	46452.61
627.85	46536.87
628.00	46188.13
628.15	46148.34
628.30	45825.35
628.45	45928.33
628.60	45633.42
628.76	45991.53
628.91	46073.45
629.06	45865.14
629.21	45514.06
629.36	46410.48
629.51	45478.95
629.66	46305.16
629.81	46195.15
629.96	46064.08
630.11	46068.76
630.26	45581.93
630.41	45914.29
630.56	46129.62
630.71	45565.55
630.86	45783.22
631.01	45469.59
631.16	45764.49
631.31	45401.71
631.46	45521.08
631.61	45881.52
631.76	45560.87
631.91	46113.23
632.06	46017.27
632.21	46291.12
632.36	45923.65
632.51	44863.39
632.66	45380.65
632.81	45184.04
632.96	45904.93
633.10	45420.44
633.25	45909.61
633.40	45310.43
633.55	45514.06
633.70	45296.39
633.85	45067.02
634.00	45312.77
634.15	45235.53
634.30	45092.76
634.45	45177.02
634.60	45069.36
634.75	45130.21
634.90	45277.66
635.05	45663.85
635.19	45205.11
635.34	45235.53
635.49	44528.69
635.64	45305.75
635.79	45301.07
635.94	44992.12
636.09	45170.00
636.24	45162.98
636.39	45141.91
636.53	45034.25
636.68	45184.04
636.83	44896.16
636.98	44240.81
637.13	44439.75
637.28	44556.78
637.43	44666.78
637.57	44758.06
637.72	44437.41
637.87	44624.65
638.02	45034.25
638.17	44467.84
638.32	44713.59
638.46	44652.74
638.61	44278.25
638.76	44343.79
638.91	44369.54
639.06	44231.44
639.20	44144.84
639.35	44308.68
639.50	43793.76
639.65	44589.55
639.80	44587.21
639.94	44783.81
640.09	44437.41
640.24	44336.77
640.39	43812.49
640.54	44414.01
640.68	44048.88
640.83	44208.04
640.98	44158.89
641.13	44116.76
641.27	44425.71
641.42	44257.19
641.57	44023.14
641.72	44161.23
641.86	44079.31
642.01	43770.36
642.16	44076.97
642.31	43632.27
642.45	43650.99
642.60	43667.37
642.75	43807.81
642.90	44107.40
643.04	43697.80
643.19	43784.40
643.34	43454.39
643.48	43564.39
643.63	43358.42
643.78	43751.63
643.93	43316.29
644.07	43908.45
644.22	43873.34
644.37	42979.26
644.51	43779.72
644.66	43442.68
644.81	43697.80
644.95	43257.78
645.10	43871.00
645.25	43339.70
645.39	43620.56
645.54	43002.66
645.69	43103.31
645.83	43051.81
645.98	43452.05
646.13	42693.71
646.27	43136.07
646.42	42689.03
646.57	42836.48
646.71	43320.98
646.86	43297.57
647.00	43466.09
647.15	43466.09
647.30	43271.82
647.44	42967.55
647.59	42862.23
647.74	42838.83
647.88	42866.91
648.03	43044.79
648.17	43269.48
648.32	43409.92
648.47	43257.78
648.61	42749.88
648.76	42880.95
648.90	42703.07
649.05	42906.70
649.20	42745.20
649.34	42960.53
649.49	42965.21
649.63	42988.62
649.78	42948.83
649.92	43112.67
650.07	43180.54
650.21	43096.28
650.36	42707.76
650.51	42883.30
650.65	42974.58
650.80	42637.54
650.94	42843.51
651.09	42103.90
651.23	41792.61
651.38	42562.64
651.52	42183.48
651.67	42342.63
651.81	42609.45
651.96	42171.77
652.10	41911.97
652.25	42040.70
652.39	42518.17
652.54	42382.42
652.68	42066.45
652.83	42305.18
652.97	42560.30
653.12	42263.05
653.26	42019.64
653.41	42003.25
653.55	42197.52
653.70	42021.98
653.84	42562.64
653.99	42349.65
654.13	41879.21
654.27	41560.89
654.42	41659.20
654.56	41813.67
654.71	41970.49
654.85	42403.49
655.00	42003.25
655.14	42328.59
655.29	41951.76
655.43	42122.62
655.57	41715.37
655.72	41626.43
655.86	42241.99
656.01	41415.78
656.15	41235.56
656.30	41045.97
656.44	41532.81
656.58	41596.00
656.73	41408.76
656.87	41205.13
657.01	41127.89
657.16	42117.94
657.30	41560.89
657.45	40978.10
657.59	41120.87
657.73	41109.17
657.88	40996.82
658.02	41256.62
658.16	41486.00
658.31	41336.20
658.45	41572.60
658.60	41097.47
658.74	41071.72
658.88	41031.93
659.03	40734.68
659.17	40697.24
659.31	40662.13
659.46	40816.60
659.60	41045.97
659.74	40505.31
659.89	40292.32
660.03	40039.54
660.17	40430.41
660.32	40437.44
660.46	40662.13
660.60	39971.67
660.74	40020.82
660.89	40376.58
661.03	40039.54
661.17	39983.37
661.32	39676.76
661.46	40285.30
661.60	40144.87
661.74	39892.09
661.89	39999.76
662.03	40093.38
662.17	40116.78
662.31	39779.74
662.46	39636.97
662.60	39718.89
662.74	39063.54
662.88	39503.56
663.03	39143.12
663.17	39290.57
663.31	39299.94
663.45	39426.32
663.60	39906.13
663.74	38911.41
663.88	39321.00
664.02	38897.36
664.17	39332.70
664.31	38843.53
664.45	38827.15
664.59	39140.78
664.73	38946.51
664.88	39248.44
665.02	38363.72
665.16	38789.70
665.30	38965.24
665.44	38728.84
665.59	38576.71
665.73	38878.64
665.87	37977.53
666.01	38314.57
666.15	38850.55
666.29	38333.29
666.44	38770.97
666.58	37790.29
666.72	37598.37
666.86	38382.45
667.00	38244.35
667.14	37907.32
667.28	37846.46
667.43	37682.62
667.57	38270.10
667.71	38087.54
667.85	37935.40
667.99	37752.84
668.13	37600.71
668.27	37102.17
668.41	37537.51
668.56	37188.77
668.70	37055.36
668.84	36992.17
668.98	36882.16
669.12	37532.83
669.26	36987.49
669.40	37160.69
669.54	37120.90
669.68	37254.31
669.82	36830.67
669.96	36797.90
670.10	37024.93
670.25	36830.67
670.39	36435.12
670.53	36589.59
670.67	36964.08
670.81	36809.61
670.95	36465.55
671.09	36378.95
671.23	35959.99
671.37	36521.72
671.51	36170.64
671.65	36151.91
671.79	36376.61
671.93	35976.37
672.07	36102.76
672.21	35868.71
672.35	35669.76
672.49	35372.52
672.63	35819.56
672.77	35489.54
672.91	35318.68
673.05	35126.76
673.19	35204.00
673.33	35056.54
673.47	35007.39
673.61	35241.45
673.75	35213.36
673.89	34714.83
674.03	34843.56
674.17	34199.91
674.31	34527.58
674.45	34349.70
674.59	34574.39
674.73	34511.20
674.87	33682.65
675.01	33876.91
675.15	33855.85
675.29	33809.04
675.43	33977.56
675.56	33844.15
675.70	33979.90
675.84	33462.64
675.98	32680.90
676.12	33645.20
676.26	33827.76
676.40	33596.05
676.54	33195.82
676.68	33219.22
676.82	32563.87
676.96	32566.21
677.10	32893.89
677.23	32943.04
677.37	33151.35
677.51	33106.88
677.65	32617.71
677.79	32311.10
677.93	32376.63
678.07	32517.06
678.21	32032.57
678.34	31910.86
678.48	31674.47
678.62	31952.99
678.76	31543.40
678.90	31700.22
679.04	31800.86
679.18	31662.77
679.31	30930.18
679.45	31054.23
679.59	31288.28
679.73	31311.69
679.87	30815.49
680.00	30850.60
680.14	30740.60
680.28	30841.24
680.42	30913.80
680.56	30813.15
680.70	30431.65
680.83	29996.31
680.97	30143.76
681.11	30359.09
681.25	30279.51
681.39	29411.17
681.52	29823.11
681.66	29542.24
681.80	29216.91
681.94	29064.77
682.07	29455.64
682.21	28922.00
682.35	28966.47
682.49	28854.12
682.62	29411.17
682.76	29174.78
682.90	28734.76
683.04	28772.21
683.17	28903.28
683.31	28538.15
683.45	28287.71
683.59	27861.74
683.72	28264.31
683.86	28044.30
684.00	27969.40
684.13	27887.48
684.27	27613.64
684.41	27948.34
684.55	27470.87
684.68	27597.26
684.82	27283.62
684.96	27103.40
685.09	27044.89
685.23	27255.54
685.37	27901.53
685.50	27243.84
685.64	27262.56
685.78	26569.76
685.91	26766.37
686.05	26361.45
686.19	26202.30
686.32	26345.07
686.46	25699.08
686.60	25909.73
686.73	25942.50
686.87	25893.35
687.01	26050.16
687.14	26075.91
687.28	25874.62
687.42	25663.97
687.55	25261.40
687.69	25450.99
687.82	25378.43
687.96	25401.83
688.10	25083.52
688.23	25404.17
688.37	25069.48
688.50	25303.53
688.64	25097.56
688.78	24868.19
688.91	24772.23
689.05	24575.62
689.18	24322.85
689.32	23934.32
689.46	24002.19
689.59	24023.26
689.73	24271.36
689.86	24467.96
690.00	24060.71
690.13	24077.09
690.27	23676.86
690.41	23831.33
690.54	23587.92
690.68	23508.34
690.81	23550.47
690.95	23108.11
691.08	22986.40
691.22	23007.47
691.35	22860.01
691.49	23058.96
691.62	22684.47
691.76	22345.09
691.89	22307.65
692.03	22387.22
692.16	22228.07
692.30	22232.75
692.43	22328.71
692.57	21633.57
692.70	22052.53
692.84	21685.06
692.97	21776.34
693.11	21549.31
693.24	21626.55
693.38	21273.13
693.51	21308.24
693.65	21223.98
693.78	21333.98
693.92	21067.16
694.05	20706.72
694.19	20781.62
694.32	21036.74
694.45	20882.26
694.59	20912.69
694.72	20692.68
694.86	20585.01
694.99	20327.55
695.13	20224.57
695.26	20020.94
695.39	19648.80
695.53	19824.34
695.66	19875.83
695.80	19630.07
695.93	19676.88
696.07	19456.87
696.20	19225.16
696.33	19110.47
696.47	19145.58
696.60	19061.32
696.73	19274.31
696.87	19164.31
697.00	19234.52
697.14	18883.44
697.27	18520.66
697.40	18625.98
697.54	18691.52
697.67	18614.28
697.80	18452.78
697.94	18499.59
698.07	18228.09
698.21	18396.61
698.34	18104.04
698.47	18082.98
698.61	17809.14
698.74	17872.33
698.87	18108.72
699.01	17666.36
699.14	17675.73
699.27	17750.62
699.40	17472.10
699.54	17254.43
699.67	17216.98
699.80	17310.60
699.94	17195.92
700.07	17348.05
700.20	16896.33
700.34	16819.09
700.47	17092.93
700.60	16943.14
700.73	16861.22
700.87	16793.34
701.00	16339.28
701.13	16507.80
701.26	16339.28
701.40	16400.13
701.53	16074.80
701.66	16133.31
701.79	16217.57
701.93	15707.34
702.06	15651.16
702.19	15765.85
702.32	15672.23
702.46	15747.12
702.59	15934.37
702.72	15943.73
702.85	15641.80
702.99	15475.62
703.12	15412.43
703.25	15192.42
703.38	15314.13
703.51	15152.63
703.65	14993.47
703.78	15103.48
703.91	14684.52
704.04	14949.00
704.17	14471.53
704.31	14654.09
704.44	14768.78
704.57	14480.89
704.70	14754.74
704.83	14298.33
704.96	14195.35
705.10	14029.17
705.23	13944.91
>>>>>End Processed Spectral Data<<<<<
