SpectraSuite Data File
++++++++++++++++++++++++++++++++++++
Date: Fri Oct 25 11:34:12 EDT 2013
User: price-jones
Dark Spectrum Present: No
Reference Spectrum Present: No
Number of Sampled Component Spectra: 1
Spectrometers: USB2+H05261
Integration Time (usec): 100000 (USB2+H05261)
Spectra Averaged: 1 (USB2+H05261)
Boxcar Smoothing: 0 (USB2+H05261)
Correct for Electrical Dark: No (USB2+H05261)
Strobe/Lamp Enabled: No (USB2+H05261)
Correct for Detector Non-linearity: No (USB2+H05261)
Correct for Stray Light: No (USB2+H05261)
Number of Pixels in Processed Spectrum: 2048
>>>>>Begin Processed Spectral Data<<<<<
365.73	227.03
365.92	227.03
366.12	227.03
366.32	248.10
366.52	182.56
366.72	201.29
366.91	140.43
367.11	173.20
367.31	184.90
367.51	138.09
367.70	210.65
367.90	238.73
368.10	187.24
368.30	154.48
368.49	156.82
368.69	184.90
368.89	238.73
369.09	224.69
369.28	152.13
369.48	180.22
369.68	238.73
369.87	220.01
370.07	217.67
370.27	250.44
370.47	301.93
370.66	463.43
370.86	505.56
371.06	543.00
371.25	472.79
371.45	571.09
371.65	550.03
371.84	512.58
372.04	606.20
372.24	662.37
372.44	592.16
372.63	571.09
372.83	606.20
373.03	557.05
373.22	559.39
373.42	596.84
373.62	568.75
373.81	538.32
374.01	634.29
374.21	683.44
374.40	645.99
374.60	650.67
374.79	587.47
374.99	645.99
375.19	699.82
375.38	669.39
375.58	699.82
375.78	627.26
375.97	739.61
376.17	706.84
376.37	587.47
376.56	650.67
376.76	599.18
376.95	608.54
377.15	706.84
377.35	702.16
377.54	674.07
377.74	725.57
377.93	699.82
378.13	767.70
378.33	667.05
378.52	671.73
378.72	678.76
378.91	763.01
379.11	755.99
379.31	709.18
379.50	690.46
379.70	716.20
379.89	713.86
380.09	676.41
380.28	737.27
380.48	758.33
380.68	741.95
380.87	732.59
381.07	631.94
381.26	786.42
381.46	805.14
381.65	751.31
381.85	709.18
382.04	765.36
382.24	828.55
382.43	758.33
382.63	758.33
382.83	758.33
383.02	709.18
383.22	770.04
383.41	826.21
383.61	842.59
383.80	814.51
384.00	837.91
384.19	833.23
384.39	765.36
384.58	795.78
384.78	795.78
384.97	744.29
385.17	772.38
385.36	851.96
385.56	854.30
385.75	807.48
385.95	910.47
386.14	898.77
386.34	884.72
386.53	770.04
386.72	830.89
386.92	816.85
387.11	919.83
387.31	884.72
387.50	866.00
387.70	875.36
387.89	924.51
388.09	896.43
388.28	866.00
388.48	814.51
388.67	964.30
388.86	884.72
389.06	924.51
389.25	1020.47
389.45	938.55
389.64	861.32
389.84	889.40
390.03	957.28
390.22	903.45
390.42	931.53
390.61	919.83
390.81	1027.50
391.00	987.71
391.19	971.32
391.39	1015.79
391.58	931.53
391.78	1025.15
391.97	1004.09
392.16	978.34
392.36	1064.94
392.55	1046.22
392.75	1046.22
392.94	1032.18
393.13	1069.62
393.33	959.62
393.52	1149.20
393.71	1095.37
393.91	1013.45
394.10	1107.07
394.29	1025.15
394.49	1062.60
394.68	1036.86
394.88	1111.75
395.07	1076.65
395.26	1128.14
395.46	1254.53
395.65	1116.44
395.84	1142.18
396.04	1291.98
396.23	1184.31
396.42	1128.14
396.62	1249.85
396.81	1193.67
397.00	1132.82
397.19	1139.84
397.39	1289.64
397.58	1196.01
397.77	1200.69
397.97	1228.78
398.16	1184.31
398.35	1263.89
398.55	1170.27
398.74	1289.64
398.93	1289.64
399.12	1259.21
399.32	1205.38
399.51	1322.40
399.70	1313.04
399.90	1296.66
400.09	1350.49
400.28	1345.81
400.47	1366.87
400.67	1275.59
400.86	1369.21
401.05	1401.98
401.24	1366.87
401.44	1327.08
401.63	1420.71
401.82	1514.33
402.01	1439.43
402.21	1425.39
402.40	1502.62
402.59	1448.79
402.78	1514.33
402.97	1390.28
403.17	1523.69
403.36	1519.01
403.55	1486.24
403.74	1598.59
403.93	1533.05
404.13	1593.90
404.32	1673.48
404.51	1488.58
404.70	1636.03
404.89	1570.50
405.09	1631.35
405.28	1561.14
405.47	1621.99
405.66	1748.38
405.85	1729.66
406.05	1689.87
406.24	1668.80
406.43	1764.76
406.62	1811.57
406.81	1881.79
407.00	1678.16
407.20	1760.08
407.39	1764.76
407.58	1776.47
407.77	1834.98
407.96	1891.15
408.15	1928.60
408.34	1799.87
408.54	1844.34
408.73	1858.39
408.92	1921.58
409.11	1942.64
409.30	2033.93
409.49	1930.94
409.68	2005.84
409.87	1942.64
410.07	2022.22
410.26	1991.80
410.45	1961.37
410.64	2097.12
410.83	1975.41
411.02	2134.57
411.21	2085.42
411.40	2150.95
411.59	2099.46
411.78	2111.16
411.98	2172.02
412.17	2129.89
412.36	2242.23
412.55	2237.55
412.74	2296.07
412.93	2258.62
413.12	2211.81
413.31	2324.15
413.50	2303.09
413.69	2420.11
413.88	2443.52
414.07	2490.33
414.26	2455.22
414.45	2307.77
414.64	2459.90
414.83	2424.80
415.02	2607.36
415.22	2569.91
415.41	2602.68
415.60	2649.49
415.79	2492.67
415.98	2644.81
416.17	2670.55
416.36	2642.46
416.55	2668.21
416.74	2820.35
416.93	2874.18
417.12	2843.75
417.31	2757.15
417.50	2785.24
417.69	2890.56
417.88	2792.26
418.07	2815.66
418.26	2902.26
418.45	2998.23
418.64	2958.44
418.83	2911.63
419.02	2949.08
419.21	2944.39
419.39	3059.08
419.58	3091.85
419.77	2967.80
419.96	3129.30
420.15	3094.19
420.34	3061.42
420.53	3138.66
420.72	3143.34
420.91	3297.81
421.10	3171.43
421.29	3276.75
421.48	3211.22
421.67	3281.43
421.86	3112.91
422.05	3356.33
422.24	3323.56
422.43	3222.92
422.61	3332.92
422.80	3293.13
422.99	3145.68
423.18	3433.57
423.37	3419.52
423.56	3346.97
423.75	3265.05
423.94	3253.34
424.13	3148.02
424.32	3157.38
424.50	3272.07
424.69	3557.61
424.88	3365.69
425.07	3384.41
425.26	3377.39
425.45	3459.31
425.64	3372.71
425.83	3330.58
426.01	3499.10
426.20	3407.82
426.39	3499.10
426.58	3400.80
426.77	3461.65
426.96	3452.29
427.15	3424.20
427.33	3534.21
427.52	3604.42
427.71	3606.77
427.90	3534.21
428.09	3557.61
428.28	3515.48
428.46	3611.45
428.65	3529.53
428.84	3728.47
429.03	3826.78
429.22	3637.19
429.40	3623.15
429.59	3569.32
429.78	3550.59
429.97	3529.53
430.16	3765.92
430.34	3829.12
430.53	3786.99
430.72	3791.67
430.91	3768.26
431.10	3889.97
431.28	3770.60
431.47	3915.72
431.66	3946.14
431.85	3882.95
432.03	3824.44
432.22	4079.55
432.41	3999.98
432.60	4032.74
432.79	4058.49
432.97	4018.70
433.16	4035.08
433.35	4021.04
433.54	4114.66
433.72	4049.13
433.91	4126.36
434.10	4142.75
434.28	4007.00
434.47	4109.98
434.66	4173.18
434.85	4177.86
435.03	4346.37
435.22	4252.75
435.41	4362.76
435.59	4334.67
435.78	4259.78
435.97	4285.52
436.16	4234.03
436.34	4271.48
436.53	4222.33
436.72	4437.66
436.90	4184.88
437.09	4519.57
437.28	4486.81
437.46	4334.67
437.65	4383.82
437.84	4566.39
438.02	4573.41
438.21	4451.70
438.40	4545.32
438.58	4571.07
438.77	4648.30
438.96	4781.71
439.14	4751.29
439.33	4720.86
439.52	4854.27
439.70	4809.80
439.89	5018.11
440.08	5001.72
440.26	4851.93
440.45	4784.06
440.63	4873.00
440.82	5062.58
441.01	5109.39
441.19	5046.20
441.38	5057.90
441.57	5064.92
441.75	5205.35
441.94	5320.04
442.12	5280.25
442.31	5200.67
442.50	5394.93
442.68	5179.61
442.87	5261.52
443.05	5284.93
443.24	5591.54
443.43	5303.65
443.61	5490.90
443.80	5563.45
443.98	5273.23
444.17	5322.38
444.35	5540.05
444.54	5603.24
444.73	5411.32
444.91	5303.65
445.10	5432.38
445.28	5392.59
445.47	5448.77
445.65	5476.85
445.84	5729.63
446.02	5638.35
446.21	5619.63
446.39	5661.76
446.58	5645.37
446.77	5694.52
446.95	5427.70
447.14	5556.43
447.32	5654.73
447.51	5572.82
447.69	5547.07
447.88	5610.26
448.06	5628.99
448.25	5563.45
448.43	5523.66
448.62	5729.63
448.80	5664.10
448.99	5673.46
449.17	5570.48
449.36	5837.30
449.54	5713.25
449.73	6050.28
449.91	6080.71
450.10	5954.32
450.28	5893.47
450.46	5827.93
450.65	5895.81
450.83	5816.23
451.02	6050.28
451.20	5900.49
451.39	5912.19
451.57	6113.48
451.76	5963.68
451.94	5937.94
452.13	5973.05
452.31	6171.99
452.49	6047.94
452.68	6258.59
452.86	6263.27
453.05	6232.85
453.23	6270.30
453.42	6202.42
453.60	6050.28
453.78	6125.18
453.97	6293.70
454.15	6200.08
454.34	6193.06
454.52	6429.45
454.70	6197.74
454.89	6445.84
455.07	6354.55
455.26	6523.07
455.44	6565.20
455.62	6544.14
455.81	6424.77
455.99	6658.82
456.17	6551.16
456.36	6511.37
456.54	6710.32
456.73	6752.45
456.91	6750.10
457.09	6836.70
457.28	6768.83
457.46	6722.02
457.64	6881.18
457.83	6773.51
458.01	6843.73
458.19	7014.59
458.38	7049.69
458.56	7136.29
458.74	7019.27
458.93	7037.99
459.11	6843.73
459.29	7091.82
459.48	7112.89
459.66	7063.74
459.84	7159.70
460.03	7267.36
460.21	7304.81
460.39	7077.78
460.57	7166.72
460.76	7325.88
460.94	7337.58
461.12	7152.68
461.31	7435.88
461.49	7412.48
461.67	7396.09
461.85	7433.54
462.04	7595.04
462.22	7817.39
462.40	7557.59
462.59	7557.59
462.77	7679.30
462.95	7630.15
463.13	7662.91
463.32	7625.47
463.50	7627.81
463.68	7660.57
463.86	7899.31
464.05	7655.89
464.23	7686.32
464.41	7859.52
464.59	7721.43
464.78	7941.44
464.96	7782.28
465.14	7602.06
465.32	7721.43
465.50	8060.80
465.69	8065.49
465.87	8077.19
466.05	7817.39
466.23	8086.55
466.41	7786.96
466.60	8166.13
466.78	8018.68
466.96	7957.82
467.14	8044.42
467.32	7990.59
467.51	8182.51
467.69	8013.99
467.87	8088.89
468.05	8203.58
468.23	8039.74
468.41	8046.76
468.60	8163.79
468.78	8135.70
468.96	8245.71
469.14	8238.69
469.32	8573.38
469.50	8273.79
469.69	8528.91
469.87	8566.36
470.05	8589.77
470.23	8622.53
470.41	8695.09
470.59	8655.30
470.77	8765.31
470.95	8760.63
471.14	8482.10
471.32	8631.90
471.50	8982.98
471.68	8870.63
471.86	9074.26
472.04	8898.72
472.22	9092.98
472.40	9097.66
472.58	8938.51
472.77	9100.00
472.95	9015.74
473.13	9390.23
473.31	9193.62
473.49	9060.21
473.67	9198.31
473.85	9413.63
474.03	9689.82
474.21	9371.50
474.39	9355.12
474.57	9680.46
474.75	9530.66
474.93	9841.95
475.12	9685.14
475.30	9731.95
475.48	9631.30
475.66	9710.88
475.84	9788.12
476.02	9762.37
476.20	9750.67
476.38	10031.54
476.56	10139.20
476.74	10338.15
476.92	10235.16
477.10	10162.61
477.28	10562.84
477.46	10342.83
477.64	10530.07
477.82	10642.42
478.00	10902.22
478.18	10927.96
478.36	10913.92
478.54	11066.05
478.72	11005.20
478.90	11110.52
479.08	11243.93
479.26	11335.21
479.44	11344.58
479.62	11499.05
479.80	11475.65
479.98	11604.38
480.16	11702.68
480.34	11913.33
480.52	12109.93
480.70	11878.22
480.88	11737.79
481.06	12067.80
481.24	12264.41
481.41	11868.86
481.59	12685.70
481.77	12475.06
481.95	12428.24
482.13	12496.12
482.31	12594.42
482.49	12929.12
482.67	13029.76
482.85	13174.88
483.03	13291.90
483.21	13245.09
483.39	13654.69
483.57	13177.22
483.74	13624.26
483.92	13916.83
484.10	13497.87
484.28	13738.94
484.46	14359.19
484.64	14307.69
484.82	14223.44
485.00	14380.25
485.18	14558.13
485.35	14834.32
485.53	14773.46
485.71	14857.72
485.89	15112.84
486.07	14834.32
486.25	14946.66
486.43	15257.95
486.61	15426.47
486.78	15440.51
486.96	15349.23
487.14	15840.75
487.32	15702.65
487.50	15889.90
487.68	15882.88
487.85	16130.97
488.03	16128.63
488.21	16606.10
488.39	16601.42
488.57	16397.79
488.75	16533.54
488.92	16786.32
489.10	17118.68
489.28	17137.40
489.46	17139.74
489.64	17376.14
489.81	17448.69
489.99	17404.22
490.17	17809.14
490.35	17848.93
490.53	17961.27
490.70	18417.68
490.88	18068.94
491.06	18342.78
491.24	18473.85
491.41	18555.77
491.59	18499.59
491.77	18511.30
491.95	18675.13
492.13	19157.28
492.30	19122.18
492.48	19274.31
492.66	19211.12
492.84	19641.78
493.01	19826.68
493.19	19744.76
493.37	19850.08
493.54	19967.11
493.72	19999.88
493.90	19861.79
494.08	20255.00
494.25	20308.83
494.43	20271.38
494.61	20627.14
494.79	20690.34
494.96	20348.62
495.14	21132.70
495.32	20968.86
495.49	21390.16
495.67	21392.50
495.85	21752.94
496.02	21605.49
496.20	21858.26
496.38	21738.90
496.55	21905.07
496.73	22417.65
496.91	22221.05
497.09	21846.56
497.26	22361.48
497.44	22380.20
497.62	22602.55
497.79	22635.32
497.97	22597.87
498.14	23110.45
498.32	22944.27
498.50	23058.96
498.67	23150.24
498.85	23021.51
499.03	23274.29
499.20	23611.32
499.38	23204.07
499.56	23765.80
499.73	23599.62
499.91	23763.46
500.08	24086.45
500.26	23983.47
500.44	24095.82
500.61	23969.43
500.79	24233.91
500.97	24123.90
501.14	24500.73
501.32	24882.24
501.49	24655.20
501.67	24816.70
501.84	25132.67
502.02	24545.20
502.20	24999.26
502.37	25104.59
502.55	25127.99
502.72	25233.32
502.90	25223.95
503.07	25348.00
503.25	25589.08
503.43	25507.16
503.60	25881.64
503.78	25968.24
503.95	25640.57
504.13	25853.56
504.30	25879.30
504.48	25879.30
504.65	26265.49
504.83	26499.55
505.01	26544.02
505.18	26600.19
505.36	26665.72
505.53	26581.46
505.71	26895.10
505.88	26838.92
506.06	26628.27
506.23	26991.06
506.41	26829.56
506.58	27058.93
506.76	27449.80
506.93	27466.19
507.11	27094.04
507.28	27601.94
507.46	27285.97
507.63	27311.71
507.81	27838.33
507.98	27388.95
508.16	27613.64
508.33	27873.44
508.50	28189.41
508.68	28013.87
508.85	28002.17
509.03	28229.20
509.20	28236.22
509.38	28510.07
509.55	28657.52
509.73	28737.10
509.90	28559.22
510.08	28870.51
510.25	28751.14
510.42	29046.05
510.60	29191.16
510.77	29209.89
510.95	29429.90
511.12	29249.67
511.30	28926.68
511.47	29109.24
511.64	29369.04
511.82	29450.96
511.99	29523.52
512.17	29467.34
512.34	29816.08
512.51	29797.36
512.69	29858.21
512.86	29518.84
513.04	30347.39
513.21	29979.92
513.38	30249.08
513.56	30480.80
513.73	30520.59
513.90	30352.07
514.08	30443.35
514.25	30948.90
514.43	30951.24
514.60	31021.46
514.77	31143.17
514.95	31234.45
515.12	30677.40
515.29	31105.72
515.47	30881.03
515.64	30934.86
515.81	30852.94
515.99	31405.31
516.16	31466.16
516.33	31648.72
516.51	31475.52
516.68	31903.84
516.85	31803.20
517.03	31498.93
517.20	31501.27
517.37	31419.35
517.54	31913.20
517.72	31931.93
517.89	32294.71
518.06	31793.84
518.24	32697.28
518.41	32346.20
518.58	32222.16
518.75	32257.26
518.93	32308.76
519.10	32404.72
519.27	32268.97
519.45	33022.62
519.62	32837.72
519.79	32919.63
519.96	32879.85
520.14	33179.43
520.31	33090.49
520.48	33308.16
520.65	33221.56
520.83	33464.98
521.00	33528.17
521.17	33551.58
521.34	33546.90
521.52	33802.02
521.69	33809.04
521.86	33893.30
522.03	33799.68
522.20	33858.19
522.38	34581.42
522.55	33851.17
522.72	34096.92
522.89	34174.16
523.07	34747.59
523.24	34235.02
523.41	34558.01
523.58	34227.99
523.75	34263.10
523.92	34689.08
524.10	34962.92
524.27	34380.13
524.44	34892.71
524.61	34649.29
524.78	34710.14
524.96	35070.59
525.13	35159.53
525.30	35054.20
525.47	35201.66
525.64	35047.18
525.81	35566.78
525.98	35332.73
526.16	35274.21
526.33	35306.98
526.50	35522.31
526.67	35271.87
526.84	35852.33
527.01	35629.98
527.18	35803.17
527.36	35826.58
527.53	35861.69
527.70	36243.20
527.87	36198.73
528.04	35936.59
528.21	35819.56
528.38	35651.04
528.55	36297.03
528.72	36395.33
528.89	36191.70
529.07	36392.99
529.24	36121.49
529.41	36605.98
529.58	36446.82
529.75	36254.90
529.92	36613.00
530.09	36715.98
530.26	36491.29
530.43	36627.04
530.60	36481.93
530.77	36912.59
530.94	37137.28
531.11	36769.82
531.28	36928.97
531.46	37125.58
531.63	37209.84
531.80	37345.59
531.97	37830.08
532.14	37504.74
532.31	37364.31
532.48	37874.55
532.65	37724.75
532.82	37443.89
532.99	37560.92
533.16	37649.86
533.33	37687.31
533.50	37787.95
533.67	37975.19
533.84	37598.37
534.01	37989.24
534.18	38078.18
534.35	38265.42
534.52	37979.87
534.69	38382.45
534.86	38766.29
535.03	38171.80
535.20	38373.08
535.37	38380.10
535.54	38590.75
535.71	38679.69
535.88	38485.43
536.05	38536.92
536.22	38667.99
536.38	38607.14
536.55	39068.22
536.72	38974.60
536.89	38565.01
537.06	38820.13
537.23	39175.89
537.40	38436.28
537.57	38576.71
537.74	38983.96
537.91	39138.44
538.08	39416.96
538.25	38256.06
538.42	39536.33
538.59	39688.46
538.75	39131.42
538.92	39555.05
539.09	39688.46
539.26	39243.76
539.43	39182.91
539.60	39519.95
539.77	39379.51
539.94	40189.34
540.11	39395.90
540.28	40201.04
540.44	39800.81
540.61	40006.78
540.78	39812.51
540.95	40034.86
541.12	39976.35
541.29	39655.70
541.46	39957.63
541.62	40238.49
541.79	40084.01
541.96	39917.84
542.13	40130.83
542.30	40044.23
542.47	40472.54
542.63	40327.43
542.80	40645.74
542.97	40751.07
543.14	40907.88
543.31	40912.56
543.48	40414.03
543.64	40800.22
543.81	41308.11
543.98	41001.50
544.15	40917.25
544.32	41074.06
544.48	41483.66
544.65	41350.24
544.82	41097.47
544.99	41090.44
545.16	41130.23
545.32	40940.65
545.49	41766.86
545.66	41617.07
545.83	41666.22
546.00	41586.64
546.16	41408.76
546.33	41420.46
546.50	41301.09
546.67	41720.05
546.83	41343.22
547.00	41514.08
547.17	41413.44
547.34	41525.78
547.50	41914.31
547.67	42267.73
547.84	41518.76
548.00	41659.20
548.17	42068.79
548.34	41923.68
548.51	42206.88
548.67	42148.37
548.84	42167.09
549.01	42078.15
549.18	42291.14
549.34	42307.52
549.51	42223.26
549.68	42251.35
549.84	42293.48
550.01	42007.94
550.18	42497.11
550.34	42267.73
550.51	42740.52
550.68	42536.90
550.84	42408.17
551.01	42761.59
551.18	42506.47
551.34	42459.66
551.51	42602.43
551.68	42906.70
551.84	42824.78
552.01	42506.47
552.18	42700.73
552.34	42326.25
552.51	42784.99
552.68	42747.54
552.84	43058.84
553.01	43421.62
553.18	42829.46
553.34	42934.79
553.51	43283.53
553.67	43372.47
553.84	43772.70
554.01	43461.41
554.17	43225.01
554.34	43131.39
554.51	43260.12
554.67	43714.19
554.84	43398.21
555.00	43309.27
555.17	43622.90
555.33	43690.78
555.50	43271.82
555.67	43625.25
555.83	43728.23
556.00	44212.72
556.16	44280.60
556.33	43885.04
556.50	44055.90
556.66	43566.73
556.83	43421.62
556.99	44027.82
557.16	43992.71
557.32	44032.50
557.49	44051.22
557.65	43442.68
557.82	44119.10
557.98	44030.16
558.15	43756.32
558.32	43966.96
558.48	44027.82
558.65	44006.75
558.81	43681.42
558.98	44250.17
559.14	44102.71
559.31	43999.73
559.47	44144.84
559.64	44472.52
559.80	44229.10
559.97	44261.87
560.13	44491.24
560.30	44060.58
560.46	44917.22
560.63	44374.22
560.79	44179.95
560.96	44715.93
561.12	44334.43
561.29	44741.68
561.45	44769.77
561.61	44861.05
561.78	44666.78
561.94	44479.54
562.11	44765.09
562.27	44425.71
562.44	44474.86
562.60	44575.50
562.77	44559.12
562.93	44992.12
563.10	45137.23
563.26	44935.95
563.42	45233.19
563.59	44577.84
563.75	44758.06
563.92	44875.09
564.08	44917.22
564.24	44978.07
564.41	45331.50
564.57	45193.40
564.74	44996.80
564.90	44245.49
565.07	44905.52
565.23	44804.88
565.39	45174.68
565.56	45212.13
565.72	44643.38
565.88	44985.10
566.05	45113.83
566.21	44942.97
566.38	45120.85
566.54	44928.92
566.70	44844.66
566.87	45331.50
567.03	44875.09
567.19	45240.21
567.36	45064.67
567.52	45268.30
567.68	45507.04
567.85	45280.00
568.01	45687.26
568.17	45228.51
568.34	45855.78
568.50	45354.90
568.66	45097.44
568.83	45055.31
568.99	45598.32
569.15	45724.71
569.32	45736.41
569.48	45324.47
569.64	45378.31
569.81	45752.79
569.97	45511.72
570.13	45923.65
570.30	45212.13
570.46	45415.76
570.62	45598.32
570.78	45193.40
570.95	45680.24
571.11	45738.75
571.27	45209.79
571.43	45326.81
571.60	45542.14
571.76	45607.68
571.92	45249.58
572.09	45708.32
572.25	45600.66
572.41	45165.32
572.57	45523.42
572.74	46059.40
572.90	45722.37
573.06	45614.70
573.22	45736.41
573.38	45638.11
573.55	45935.35
573.71	46103.87
573.87	45989.19
574.03	45544.48
574.20	45790.24
574.36	45958.76
574.52	45818.33
574.68	45879.18
574.84	46089.83
575.01	45975.14
575.17	46246.65
575.33	45900.25
575.49	45731.73
575.65	46113.23
575.82	46270.05
575.98	45673.21
576.14	46061.74
576.30	46195.15
576.46	45954.08
576.62	46005.57
576.79	45954.08
576.95	45696.62
577.11	45464.91
577.27	45738.75
577.43	45855.78
577.59	46036.00
577.75	46010.25
577.92	45916.63
578.08	45942.38
578.24	46038.34
578.40	46277.07
578.56	46253.67
578.72	46204.52
578.88	46209.20
579.04	46300.48
579.21	45811.31
579.37	46293.46
579.53	46136.64
579.69	45647.47
579.85	45595.98
580.01	46071.10
580.17	46113.23
580.33	45748.11
580.49	45839.39
580.65	46256.01
580.82	46134.30
580.98	46061.74
581.14	45645.13
581.30	45830.03
581.46	45958.76
581.62	45380.65
581.78	46314.52
581.94	46277.07
582.10	46124.94
582.26	46239.62
582.42	46164.73
582.58	45909.61
582.74	46478.36
582.90	46195.15
583.06	46274.73
583.22	45827.69
583.38	46391.76
583.54	46270.05
583.70	45984.51
583.86	46330.90
584.02	45806.62
584.18	46579.00
584.34	45921.31
584.50	46684.33
584.66	46188.13
584.82	46600.07
584.98	46452.61
585.14	46471.34
585.30	46251.33
585.46	46576.66
585.62	45979.82
585.78	46504.10
585.94	46174.09
586.10	46464.32
586.26	46024.29
586.42	46239.62
586.58	46234.94
586.74	45970.46
586.90	46272.39
587.06	46141.32
587.22	46574.32
587.38	46347.29
587.54	46396.44
587.70	46398.78
587.86	46134.30
588.02	46040.68
588.18	46277.07
588.34	46178.77
588.49	46447.93
588.65	46274.73
588.81	46251.33
588.97	46532.19
589.13	46609.43
589.29	46635.17
589.45	46618.79
589.61	46422.19
589.77	46852.84
589.93	46459.63
590.08	46960.51
590.24	46567.30
590.40	47098.60
590.56	47274.14
590.72	46635.17
590.88	46426.87
591.04	46684.33
591.20	47065.83
591.35	46913.70
591.51	47105.62
591.67	46995.62
591.83	47267.12
591.99	46693.69
592.15	46635.17
592.31	47063.49
592.46	46625.81
592.62	46679.64
592.78	46932.42
592.94	46803.69
593.10	47557.35
593.26	47037.75
593.41	47014.34
593.57	47119.66
593.73	46698.37
593.89	47278.82
594.05	47138.39
594.20	46681.98
594.36	47363.08
594.52	46780.29
594.68	47110.30
594.84	47033.07
594.99	47402.87
595.15	46777.95
595.31	47344.36
595.47	46941.78
595.62	47234.35
595.78	47089.24
595.94	47082.22
596.10	46794.33
596.25	46857.52
596.41	46899.65
596.57	46904.34
596.73	47339.68
596.88	46972.21
597.04	47531.60
597.20	47047.11
597.36	47086.90
597.51	47559.69
597.67	46944.12
597.83	46583.68
597.99	47157.11
598.14	46784.97
598.30	46993.28
598.46	46810.71
598.61	47580.75
598.77	46665.60
598.93	47248.39
599.09	47124.35
599.24	47473.09
599.40	47133.71
599.56	47246.05
599.71	47473.09
599.87	47281.16
600.03	47274.14
600.18	47271.80
600.34	47019.02
600.50	47615.86
600.65	47234.35
600.81	47515.22
600.97	47363.08
601.12	47643.94
601.28	46955.83
601.44	47409.89
601.59	47400.53
601.75	46974.55
601.91	47356.06
602.06	47615.86
602.22	47281.16
602.37	47398.19
602.53	46876.25
602.69	47140.73
602.84	47161.79
603.00	47026.04
603.16	47119.66
603.31	47217.97
603.47	47344.36
603.62	47187.54
603.78	47194.56
603.94	47047.11
604.09	47206.26
604.25	46780.29
604.40	47075.19
604.56	46909.02
604.71	47931.83
604.87	47325.63
605.03	46810.71
605.18	46939.44
605.34	47573.73
605.49	46927.74
605.65	47313.93
605.80	46972.21
605.96	47035.41
606.12	47143.07
606.27	47445.00
606.43	46892.63
606.58	47182.86
606.74	46934.76
606.89	46988.60
607.05	47875.66
607.20	46965.19
607.36	46892.63
607.51	47510.53
607.67	46623.47
607.82	46831.78
607.98	47166.48
608.13	46637.51
608.29	46824.76
608.44	47028.38
608.60	47166.48
608.75	47372.44
608.91	46693.69
609.06	46424.53
609.22	46920.72
609.37	46581.34
609.53	47255.42
609.68	46923.06
609.84	46497.08
609.99	46745.18
610.15	46932.42
610.30	47353.72
610.46	46855.18
610.61	46834.12
610.76	46890.29
610.92	46529.85
611.07	46085.15
611.23	46937.10
611.38	46363.67
611.54	47012.00
611.69	47028.38
611.84	47234.35
612.00	46403.46
612.15	46384.74
612.31	46820.08
612.46	46410.48
612.62	45944.72
612.77	46838.80
612.92	46988.60
613.08	46143.66
613.23	46738.16
613.39	46684.33
613.54	46527.51
613.69	46780.29
613.85	46426.87
614.00	46644.54
614.15	46604.75
614.31	46429.21
614.46	46410.48
614.62	46370.69
614.77	46560.28
614.92	46511.13
615.08	46361.33
615.23	46658.58
615.38	46309.84
615.54	46387.08
615.69	46426.87
615.84	46019.61
616.00	46890.29
616.15	46476.02
616.30	46408.14
616.46	45918.97
616.61	46206.86
616.76	46291.12
616.92	46047.70
617.07	46316.86
617.22	46389.42
617.37	46075.79
617.53	46211.54
617.68	45989.19
617.83	45818.33
617.99	46134.30
618.14	46569.64
618.29	46169.41
618.45	45989.19
618.60	46321.54
618.75	45874.50
618.90	45954.08
619.06	45752.79
619.21	45801.94
619.36	45984.51
619.51	45968.12
619.67	45556.19
619.82	46143.66
619.97	46082.81
620.12	45855.78
620.28	45823.01
620.43	46073.45
620.58	45612.36
620.73	45944.72
620.89	46103.87
621.04	45705.98
621.19	45691.94
621.34	45570.23
621.49	45610.02
621.65	46153.02
621.80	46148.34
621.95	45705.98
622.10	45769.18
622.25	45890.88
622.41	45464.91
622.56	45439.16
622.71	45893.22
622.86	45848.75
623.01	45450.86
623.16	45532.78
623.32	45535.12
623.47	45532.78
623.62	45801.94
623.77	45287.03
623.92	45689.60
624.07	45104.46
624.23	45612.36
624.38	45343.20
624.53	45237.87
624.68	45434.48
624.83	45071.70
624.98	45294.05
625.13	44694.87
625.29	45221.49
625.44	44612.95
625.59	45151.27
625.74	45280.00
625.89	44648.06
626.04	45312.77
626.19	45324.47
626.34	44734.66
626.49	44980.42
626.65	44360.17
626.80	44685.51
626.95	44369.54
627.10	44594.23
627.25	44744.02
627.40	44737.00
627.55	44563.80
627.70	44437.41
627.85	44402.30
628.00	44999.14
628.15	44886.79
628.30	44577.84
628.45	44474.86
628.60	44479.54
628.76	44524.01
628.91	44488.90
629.06	43772.70
629.21	44149.53
629.36	44339.11
629.51	44137.82
629.66	44531.03
629.81	44069.95
629.96	44514.65
630.11	44264.21
630.26	44325.07
630.41	44236.12
630.56	43714.19
630.71	43899.09
630.86	44076.97
631.01	43824.19
631.16	44006.75
631.31	44037.18
631.46	43981.01
631.61	44636.36
631.76	44238.47
631.91	44170.59
632.06	44060.58
632.21	43920.15
632.36	44421.03
632.51	43835.89
632.66	43828.87
632.81	43606.52
632.96	44076.97
633.10	44095.69
633.25	43915.47
633.40	43576.09
633.55	44009.09
633.70	43786.74
633.85	43225.01
634.00	43536.30
634.15	43672.06
634.30	43407.58
634.45	43484.81
634.60	43381.83
634.75	44006.75
634.90	43274.16
635.05	43515.24
635.19	43730.57
635.34	43365.45
635.49	43360.76
635.64	43753.97
635.79	43695.46
635.94	43639.29
636.09	43477.79
636.24	43381.83
636.39	43550.35
636.53	43363.11
636.68	43026.07
636.83	42679.67
636.98	43124.37
637.13	43070.54
637.28	43288.21
637.43	43061.18
637.57	43173.52
637.72	43042.45
637.87	42965.21
638.02	43220.33
638.17	42913.72
638.32	42960.53
638.46	42852.87
638.61	42459.66
638.76	42646.90
638.91	42948.83
639.06	42796.70
639.20	42656.26
639.35	42621.16
639.50	42665.63
639.65	42813.08
639.80	42857.55
639.94	42595.41
640.09	42492.43
640.24	43178.20
640.39	42447.96
640.54	42361.36
640.68	42953.51
640.83	42754.57
640.98	43063.52
641.13	42471.36
641.27	42801.38
641.42	42333.27
641.57	42700.73
641.72	42703.07
641.86	42127.30
642.01	42375.40
642.16	42068.79
642.31	42115.60
642.45	42274.76
642.60	42066.45
642.75	42405.83
642.90	42419.87
643.04	42026.66
643.19	42312.20
643.34	41982.19
643.48	42010.28
643.63	41916.65
643.78	41778.56
643.93	42628.18
644.07	42181.13
644.22	42155.39
644.37	42319.23
644.51	41984.53
644.66	42197.52
644.81	42122.62
644.95	41937.72
645.10	41963.46
645.25	41471.95
645.39	41434.50
645.54	41879.21
645.69	41603.02
645.83	41375.99
645.98	41830.05
646.13	41593.66
646.27	41340.88
646.42	41848.78
646.57	41261.30
646.71	41563.23
646.86	41881.55
647.00	42047.72
647.15	41659.20
647.30	41745.80
647.44	41588.98
647.59	41567.91
647.74	41277.69
647.88	41462.59
648.03	41968.15
648.17	41890.91
648.32	41855.80
648.47	41455.57
648.61	41106.83
648.76	41663.88
648.90	41336.20
649.05	40793.20
649.20	41567.91
649.34	41132.57
649.49	41352.58
649.63	41518.76
649.78	41427.48
649.92	41542.17
650.07	41258.96
650.21	41572.60
650.36	41467.27
650.51	41528.13
650.65	41418.12
650.80	41331.52
650.94	41350.24
651.09	41060.02
651.23	40526.38
651.38	40669.15
651.52	40624.68
651.67	40851.71
651.81	40877.46
651.96	40926.61
652.10	40280.62
652.25	40870.43
652.39	40961.72
652.54	40648.08
652.68	40402.33
652.83	40289.98
652.97	40428.07
653.12	40769.79
653.26	40402.33
653.41	40495.95
653.55	40650.42
653.70	40849.37
653.84	40947.67
653.99	40451.48
654.13	40243.17
654.27	40156.57
654.42	40615.32
654.56	40254.87
654.71	40687.87
654.85	40407.01
655.00	40217.43
655.14	40528.72
655.29	40217.43
655.43	40938.31
655.57	40334.45
655.72	39739.96
655.86	40168.27
656.01	39702.51
656.15	39798.47
656.30	40187.00
656.44	40175.30
656.58	40039.54
656.73	40201.04
656.87	39559.73
657.01	39477.82
657.16	39981.03
657.30	39959.97
657.45	39798.47
657.59	39641.65
657.73	39283.55
657.88	39924.86
658.02	39482.50
658.16	39875.71
658.31	39662.72
658.45	39510.58
658.60	39690.80
658.74	39756.34
658.88	39868.69
659.03	39171.21
659.17	39384.19
659.31	39028.43
659.46	39372.49
659.60	39475.48
659.74	38972.26
659.89	38913.75
660.03	38850.55
660.17	39218.02
660.32	39133.76
660.46	38859.91
660.60	38644.59
660.74	38855.23
660.89	38670.33
661.03	38000.94
661.17	38459.68
661.32	38562.67
661.46	38595.43
661.60	38323.93
661.74	38628.20
661.89	38345.00
662.03	38588.41
662.17	38328.61
662.31	38651.61
662.46	38146.05
662.60	38602.46
662.74	37928.38
662.88	37926.04
663.03	37427.51
663.17	38092.22
663.31	38061.79
663.45	38068.81
663.60	38059.45
663.74	37783.27
663.88	37741.14
664.02	37818.38
664.17	38057.11
664.31	37624.11
664.45	37687.31
664.59	37324.52
664.73	37401.76
664.88	37326.86
665.02	37027.28
665.16	37441.55
665.30	37752.84
665.44	37333.89
665.59	36823.65
665.73	36917.27
665.87	36430.44
666.01	37064.72
666.15	36854.08
666.29	36849.39
666.44	36898.55
666.58	36961.74
666.72	36809.61
666.86	37179.41
667.00	36692.58
667.14	36692.58
667.28	36919.61
667.43	36486.61
667.57	36500.65
667.71	36355.54
667.85	36830.67
667.99	36350.86
668.13	35854.67
668.27	36149.57
668.41	36154.26
668.56	35388.90
668.70	35725.94
668.84	35667.42
668.98	35419.33
669.12	35681.47
669.26	36013.82
669.40	36027.87
669.54	35714.23
669.68	35655.72
669.82	35550.40
669.96	35033.14
670.10	34969.94
670.25	35494.22
670.39	34965.26
670.53	35271.87
670.67	35236.77
670.81	35398.26
670.95	35538.69
671.09	34799.08
671.23	34459.71
671.37	34747.59
671.51	34878.66
671.65	34405.88
671.79	34969.94
671.93	34803.77
672.07	34616.52
672.21	34546.31
672.35	34204.59
672.49	34703.12
672.63	34099.26
672.77	34129.69
672.91	34251.40
673.05	34094.58
673.19	33846.49
673.33	33968.19
673.47	33713.08
673.61	33280.08
673.75	33298.80
673.89	33287.10
674.03	33390.08
674.17	33322.21
674.31	33034.32
674.45	33240.29
674.59	33125.60
674.73	33340.93
674.87	32959.42
675.01	32563.87
675.15	32556.85
675.29	32486.64
675.43	32617.71
675.56	32629.41
675.70	32044.27
675.84	32451.53
675.98	30972.31
676.12	32524.08
676.26	32568.55
676.40	31857.03
676.54	31796.18
676.68	31962.36
676.82	31854.69
676.96	31597.23
677.10	31597.23
677.23	31627.66
677.37	31536.38
677.51	31468.50
677.65	31197.00
677.79	30799.11
677.93	31321.05
678.07	31344.45
678.21	30719.53
678.34	30202.27
678.48	30646.97
678.62	30583.78
678.76	30536.97
678.90	30319.30
679.04	30450.37
679.18	30260.79
679.31	30209.29
679.45	29961.20
679.59	29923.75
679.73	30033.75
679.87	29600.76
680.00	29834.81
680.14	29577.35
680.28	29769.27
680.42	29230.95
680.56	29401.81
680.70	29149.03
680.83	29158.39
680.97	29226.27
681.11	29015.62
681.25	28561.56
681.39	28393.04
681.52	28545.17
681.66	28226.86
681.80	28238.56
681.94	27864.08
682.07	27880.46
682.21	28168.35
682.35	27915.57
682.49	27943.66
682.62	27707.26
682.76	27674.49
682.90	28105.15
683.04	27601.94
683.17	27367.88
683.31	27353.84
683.45	27159.58
683.59	26986.38
683.72	26923.18
683.86	27089.36
684.00	26843.60
684.13	27241.50
684.27	26579.12
684.41	26391.88
684.55	26576.78
684.68	26148.46
684.82	25811.43
684.96	26164.85
685.09	26129.74
685.23	25933.14
685.37	26286.56
685.50	26293.58
685.64	25909.73
685.78	25860.58
685.91	25862.92
686.05	25497.80
686.19	24819.04
686.32	25322.26
686.46	25046.07
686.60	24856.49
686.73	25411.20
686.87	24821.38
687.01	25415.88
687.14	24606.05
687.28	24652.86
687.42	24739.46
687.55	24627.12
687.69	24460.94
687.82	24098.16
687.96	24283.06
688.10	24531.15
688.23	23936.66
688.37	23978.79
688.50	24105.18
688.64	23768.14
688.78	23564.51
688.91	23927.30
689.05	23489.62
689.18	23166.62
689.32	22845.97
689.46	23019.17
689.59	23197.05
689.73	23225.14
689.86	23538.77
690.00	22963.00
690.13	22984.06
690.27	22443.40
690.41	22670.43
690.54	22249.13
690.68	22597.87
690.81	22302.96
690.95	22249.13
691.08	22235.09
691.22	22104.02
691.35	22293.60
691.49	22324.03
691.62	21490.80
691.76	21635.91
691.89	21610.17
692.03	21439.31
692.16	21076.52
692.30	21479.10
692.43	21209.93
692.57	21113.97
692.70	21006.31
692.84	20755.87
692.97	20655.23
693.11	20692.68
693.24	20372.02
693.38	20465.64
693.51	20524.16
693.65	20236.27
693.78	20191.80
693.92	20144.99
694.05	20168.40
694.19	19852.42
694.32	19962.43
694.45	19929.66
694.59	20212.87
694.72	19922.64
694.86	19583.26
694.99	19620.71
695.13	19599.65
695.26	19124.52
695.39	19213.46
695.53	19075.37
695.66	19325.80
695.80	19168.99
695.93	19183.03
696.07	18668.11
696.20	18665.77
696.33	18338.10
696.47	18441.08
696.60	18485.55
696.73	18441.08
696.87	18492.57
697.00	18302.99
697.14	18373.21
697.27	17893.40
697.40	17759.98
697.54	18003.40
697.67	17916.80
697.80	17872.33
697.94	17722.54
698.07	17537.63
698.21	17631.26
698.34	17682.75
698.47	17373.80
698.61	17263.79
698.74	16858.88
698.87	17156.13
699.01	17062.51
699.14	17097.61
699.27	16917.39
699.40	16999.31
699.54	16903.35
699.67	16496.10
699.80	16809.73
699.94	16240.98
700.07	16374.39
700.20	16418.86
700.34	16451.63
700.47	16044.37
700.60	16435.24
700.73	15955.43
700.87	15873.51
701.00	15955.43
701.13	15716.70
701.26	15730.74
701.40	15861.81
701.53	15578.61
701.66	15580.95
701.79	15274.34
701.93	15290.72
702.06	15400.72
702.19	15220.50
702.32	15169.01
702.46	15105.82
702.59	15173.69
702.72	15276.68
702.85	15222.84
702.99	15056.67
703.12	14523.02
703.25	14754.74
703.38	14537.07
703.51	14712.61
703.65	14441.11
703.78	14335.78
703.91	14242.16
704.04	14427.06
704.17	14015.13
704.31	13902.78
704.44	13827.88
704.57	13879.38
704.70	13799.80
704.83	13687.45
704.96	13495.53
705.10	13462.76
705.23	13455.74
>>>>>End Processed Spectral Data<<<<<
