SpectraSuite Data File
++++++++++++++++++++++++++++++++++++
Date: Fri Oct 25 10:43:59 EDT 2013
User: price-jones
Dark Spectrum Present: No
Reference Spectrum Present: No
Number of Sampled Component Spectra: 1
Spectrometers: USB2+H05261
Integration Time (usec): 100000 (USB2+H05261)
Spectra Averaged: 1 (USB2+H05261)
Boxcar Smoothing: 0 (USB2+H05261)
Correct for Electrical Dark: No (USB2+H05261)
Strobe/Lamp Enabled: No (USB2+H05261)
Correct for Detector Non-linearity: No (USB2+H05261)
Correct for Stray Light: No (USB2+H05261)
Number of Pixels in Processed Spectrum: 2048
>>>>>Begin Processed Spectral Data<<<<<
365.73	168.52
365.92	168.52
366.12	168.52
366.32	0.00
366.52	2.34
366.72	60.85
366.91	51.49
367.11	49.15
367.31	37.45
367.51	95.96
367.70	2.34
367.90	93.62
368.10	30.43
368.30	70.22
368.49	0.00
368.69	30.43
368.89	0.00
369.09	21.06
369.28	35.11
369.48	25.75
369.68	67.88
369.87	133.41
370.07	49.15
370.27	184.90
370.47	121.71
370.66	308.95
370.86	381.51
371.06	390.87
371.25	442.36
371.45	543.00
371.65	482.15
371.84	477.47
372.04	496.19
372.24	463.43
372.44	505.56
372.63	510.24
372.83	606.20
373.03	550.03
373.22	421.30
373.42	578.11
373.62	489.17
373.81	582.79
374.01	608.54
374.21	603.86
374.40	550.03
374.60	554.71
374.79	554.71
374.99	517.26
375.19	610.88
375.38	636.63
375.58	617.90
375.78	669.39
375.97	615.56
376.17	629.60
376.37	585.13
376.56	634.29
376.76	550.03
376.95	650.67
377.15	615.56
377.35	573.43
377.54	643.65
377.74	575.77
377.93	592.16
378.13	718.54
378.33	716.20
378.52	685.78
378.72	657.69
378.91	641.31
379.11	720.88
379.31	615.56
379.50	638.97
379.70	737.27
379.89	690.46
380.09	629.60
380.28	720.88
380.48	758.33
380.68	662.37
380.87	676.41
381.07	664.71
381.26	798.12
381.46	676.41
381.65	746.63
381.85	699.82
382.04	660.03
382.24	697.48
382.43	711.52
382.63	730.25
382.83	690.46
383.02	695.14
383.22	741.95
383.41	643.65
383.61	770.04
383.80	774.72
384.00	781.74
384.19	833.23
384.39	727.91
384.58	800.46
384.78	814.51
384.97	760.67
385.17	784.08
385.36	699.82
385.56	786.42
385.75	828.55
385.95	919.83
386.14	870.68
386.34	791.10
386.53	779.40
386.72	856.64
386.92	833.23
387.11	781.74
387.31	800.46
387.50	830.89
387.70	968.98
387.89	870.68
388.09	875.36
388.28	940.90
388.48	898.77
388.67	936.21
388.86	1018.13
389.06	980.68
389.25	940.90
389.45	990.05
389.64	1081.33
389.84	994.73
390.03	954.94
390.22	933.87
390.42	950.26
390.61	1018.13
390.81	1034.52
391.00	1074.31
391.19	1025.15
391.39	987.71
391.58	1132.82
391.78	994.73
391.97	1011.11
392.16	1090.69
392.36	1057.92
392.55	978.34
392.75	1041.54
392.94	868.34
393.13	1008.77
393.33	987.71
393.52	1011.11
393.71	1188.99
393.91	1135.16
394.10	1071.97
394.29	1238.14
394.49	1102.39
394.68	1259.21
394.88	1203.04
395.07	1226.44
395.26	1207.72
395.46	1205.38
395.65	1259.21
395.84	1315.38
396.04	1254.53
396.23	1203.04
396.42	1118.78
396.62	1137.50
396.81	1242.82
397.00	1179.63
397.19	1291.98
397.39	1315.38
397.58	1345.81
397.77	1423.05
397.97	1511.99
398.16	1366.87
398.35	1577.52
398.55	1458.15
398.74	1514.33
398.93	1516.67
399.12	1521.35
399.32	1497.94
399.51	1474.54
399.70	1575.18
399.90	1490.92
400.09	1519.01
400.28	1535.39
400.47	1699.23
400.67	1636.03
400.86	1652.42
401.05	1666.46
401.24	1652.42
401.44	1617.31
401.63	1785.83
401.82	1666.46
402.01	1582.20
402.21	1774.13
402.40	1816.26
402.59	1713.27
402.78	1720.29
402.97	1788.17
403.17	1741.36
403.36	1844.34
403.55	1823.28
403.74	1900.52
403.93	1884.13
404.13	1827.96
404.32	1884.13
404.51	1902.86
404.70	1877.11
404.89	1891.15
405.09	1884.13
405.28	2069.03
405.47	2057.33
405.66	2017.54
405.85	1982.43
406.05	1991.80
406.24	2005.84
406.43	2012.86
406.62	2052.65
406.81	2193.08
407.00	2040.95
407.20	2003.50
407.39	2062.01
407.58	2225.85
407.77	2087.76
407.96	2328.83
408.15	2249.25
408.34	2305.43
408.54	2293.72
408.73	2375.64
408.92	2305.43
409.11	2363.94
409.30	2303.09
409.49	2373.30
409.68	2347.56
409.87	2361.60
410.07	2345.22
410.26	2401.39
410.45	2394.37
410.64	2459.90
410.83	2499.69
411.02	2485.65
411.21	2612.04
411.40	2572.25
411.59	2708.00
411.78	2684.59
411.98	2590.97
412.17	2759.49
412.36	2682.25
412.55	2796.94
412.74	2675.23
412.93	2747.79
413.12	2651.83
413.31	2754.81
413.50	2773.53
413.69	2799.28
413.88	2853.11
414.07	2895.24
414.26	3012.27
414.45	3129.30
414.64	3056.74
414.83	3087.17
415.02	3040.36
415.22	3159.72
415.41	3173.77
415.60	3276.75
415.79	3276.75
415.98	3145.68
416.17	3208.87
416.36	3382.07
416.55	3297.81
416.74	3246.32
416.93	3335.26
417.12	3370.37
417.31	3375.05
417.50	3325.90
417.69	3510.80
417.88	3520.17
418.07	3405.48
418.26	3487.40
418.45	3412.50
418.64	3648.90
418.83	3611.45
419.02	3700.39
419.21	3653.58
419.39	3658.26
419.58	3613.79
419.77	3674.64
419.96	3609.11
420.15	3700.39
420.34	3768.26
420.53	3868.91
420.72	3826.78
420.91	3798.69
421.10	3901.67
421.29	3983.59
421.48	3747.20
421.67	3770.60
421.86	3719.11
422.05	3794.01
422.24	3686.34
422.43	3847.84
422.61	3927.42
422.80	3901.67
422.99	4011.68
423.18	3934.44
423.37	4056.15
423.56	3845.50
423.75	4004.66
423.94	4011.68
424.13	3665.28
424.32	3871.25
424.50	3971.89
424.69	3999.98
424.88	3981.25
425.07	3950.82
425.26	4035.08
425.45	4011.68
425.64	3964.87
425.83	3878.27
426.01	3992.95
426.20	4088.92
426.39	3983.59
426.58	3845.50
426.77	3845.50
426.96	3955.51
427.15	3992.95
427.33	4154.45
427.52	4102.96
427.71	4133.39
427.90	4056.15
428.09	4159.13
428.28	4121.68
428.46	4243.39
428.65	4180.20
428.84	4231.69
429.03	4294.88
429.22	4049.13
429.40	4161.47
429.59	4301.90
429.78	4021.04
429.97	4004.66
430.16	4014.02
430.34	4095.94
430.53	4280.84
430.72	4250.41
430.91	4376.80
431.10	4404.89
431.28	4702.14
431.47	4734.90
431.66	4755.97
431.85	4507.87
432.03	4650.64
432.22	4681.07
432.41	4741.93
432.60	4851.93
432.79	4826.18
432.97	4870.65
433.16	4751.29
433.35	4568.73
433.54	4641.28
433.72	4767.67
433.91	4737.24
434.10	4767.67
434.28	4865.97
434.47	4971.30
434.66	4891.72
434.85	4777.03
435.03	4936.19
435.22	4933.85
435.41	5181.95
435.59	5027.47
435.78	5109.39
435.97	5172.58
436.16	5174.92
436.34	5095.35
436.53	5247.48
436.72	5392.59
436.90	5104.71
437.09	5231.10
437.28	5050.88
437.46	5270.89
437.65	5224.08
437.84	5266.21
438.02	5263.86
438.21	5298.97
438.40	5137.48
438.58	5249.82
438.77	5261.52
438.96	5420.68
439.14	5591.54
439.33	5675.80
439.52	5584.52
439.70	5652.39
439.89	5750.70
440.08	5675.80
440.26	5647.71
440.45	5701.54
440.63	6115.82
440.82	5996.45
441.01	6022.20
441.19	6115.82
441.38	6202.42
441.57	6176.67
441.75	6225.82
441.94	6394.34
442.12	6457.54
442.31	6387.32
442.50	6253.91
442.68	6216.46
442.87	6464.56
443.05	6616.69
443.24	6661.16
443.43	6427.11
443.61	6637.76
443.80	6597.97
443.98	6314.77
444.17	6464.56
444.35	6609.67
444.54	6562.86
444.73	6590.95
444.91	6740.74
445.10	6644.78
445.28	6480.94
445.47	6335.83
445.65	6471.58
445.84	6492.65
446.02	6747.76
446.21	6476.26
446.39	6539.46
446.58	6525.41
446.77	6785.21
446.95	6602.65
447.14	6743.08
447.32	6764.15
447.51	6782.87
447.69	6853.09
447.88	6766.49
448.06	6665.85
448.25	6696.27
448.43	6703.29
448.62	6911.60
448.80	6867.13
448.99	6906.92
449.17	6888.20
449.36	6834.36
449.54	6960.75
449.73	7073.10
449.91	7040.33
450.10	7253.32
450.28	7187.79
450.46	7220.55
450.65	7274.38
450.83	7218.21
451.02	7269.70
451.20	7265.02
451.39	7339.92
451.57	7372.69
451.76	7166.72
451.94	7424.18
452.13	7344.60
452.31	7295.45
452.49	7204.17
452.68	7295.45
452.86	7346.94
453.05	7272.04
453.23	7274.38
453.42	7410.14
453.60	7524.82
453.78	7487.37
453.97	7468.65
454.15	7461.63
454.34	7557.59
454.52	7527.16
454.70	7662.91
454.89	7705.04
455.07	7536.52
455.26	7728.45
455.44	7840.79
455.62	7758.88
455.81	7606.74
455.99	7960.16
456.17	7953.14
456.36	7967.18
456.54	8124.00
456.73	7882.92
456.91	8142.72
457.09	8018.68
457.28	8320.60
457.46	8056.12
457.64	8170.81
457.83	8395.50
458.01	8124.00
458.19	8409.54
458.38	8086.55
458.56	8376.78
458.74	8198.90
458.93	8336.99
459.11	8355.71
459.29	8346.35
459.48	8393.16
459.66	8273.79
459.84	8479.76
460.03	8655.30
460.21	8552.32
460.39	8500.83
460.57	8648.28
460.76	8877.65
460.94	8760.63
461.12	8643.60
461.31	8720.84
461.49	8798.07
461.67	8613.17
461.85	9078.94
462.04	8793.39
462.22	8854.25
462.40	8994.68
462.59	8777.01
462.77	9062.55
462.95	8912.76
463.13	9116.39
463.32	8879.99
463.50	9053.19
463.68	9036.81
463.86	8990.00
464.05	8903.40
464.23	8992.34
464.41	9170.22
464.59	8898.72
464.78	9188.94
464.96	9207.67
465.14	9025.11
465.32	9357.46
465.50	9287.25
465.69	9359.80
465.87	9245.12
466.05	9186.60
466.23	9156.18
466.41	9135.11
466.60	9469.81
466.78	9317.67
466.96	9415.98
467.14	9341.08
467.32	9350.44
467.51	9640.67
467.69	9441.72
467.87	9528.32
468.05	9607.90
468.23	9558.75
468.41	9357.46
468.60	9607.90
468.78	9565.77
468.96	9528.32
469.14	9902.81
469.32	9762.37
469.50	9511.94
469.69	9860.68
469.87	9769.40
470.05	9975.36
470.23	9874.72
470.41	9984.73
470.59	9966.00
470.77	9809.19
470.95	10071.33
471.14	10303.04
471.32	10108.77
471.50	10256.23
471.68	10532.41
471.86	10307.72
472.04	10565.18
472.22	10574.54
472.40	10237.50
472.58	10239.84
472.77	10511.35
472.95	10572.20
473.13	11026.26
473.31	10455.17
473.49	10696.25
473.67	10796.89
473.85	10855.40
474.03	11052.01
474.21	11236.91
474.39	11234.57
474.57	11213.51
474.75	11290.74
474.93	11410.11
475.12	11302.45
475.30	11323.51
475.48	11384.37
475.66	11452.24
475.84	11183.08
476.02	11456.92
476.20	11349.26
476.38	11791.62
476.56	11822.05
476.74	11826.73
476.92	11712.04
477.10	11740.13
477.28	12283.13
477.46	12051.42
477.64	12238.66
477.82	12613.15
478.00	12769.96
478.18	12779.32
478.36	12744.22
478.54	12659.96
478.72	12933.80
478.90	13095.30
479.08	13081.25
479.26	13336.37
479.44	13256.79
479.62	13390.20
479.80	13434.68
479.98	13584.47
480.16	13832.57
480.34	13783.41
480.52	13717.88
480.70	13792.78
480.88	13827.88
481.06	14071.30
481.24	14162.58
481.41	14410.68
481.59	14551.11
481.77	14581.54
481.95	14548.77
482.13	14504.30
482.31	14754.74
482.49	15169.01
482.67	15087.09
482.85	15119.86
483.03	15241.57
483.21	15389.02
483.39	15639.46
483.57	15566.90
483.74	15796.28
483.92	15709.68
484.10	15536.48
484.28	16226.93
484.46	16020.97
484.64	16409.50
484.82	16229.27
485.00	16465.67
485.18	16563.97
485.35	16578.01
485.53	16203.53
485.71	16243.32
485.89	16425.88
486.07	16350.98
486.25	17022.72
486.43	16950.16
486.61	17013.35
486.78	17055.48
486.96	17579.76
487.14	17869.99
487.32	17778.71
487.50	17933.18
487.68	18548.75
487.85	18515.98
488.03	18436.40
488.21	18670.45
488.39	18523.00
488.57	18906.85
488.75	18906.85
488.92	18927.91
489.10	19328.14
489.28	19482.62
489.46	19784.55
489.64	19728.38
489.81	20444.58
489.99	20458.62
490.17	20252.66
490.35	20409.47
490.53	20386.07
490.70	20739.49
490.88	21092.91
491.06	21008.65
491.24	20872.90
491.41	21069.50
491.59	21397.18
491.77	21032.05
491.95	21308.24
492.13	21462.71
492.30	21507.18
492.48	21802.09
492.66	22089.98
492.84	21879.33
493.01	22199.98
493.19	21956.57
493.37	22349.78
493.54	22349.78
493.72	22860.01
493.90	22707.88
494.08	23168.96
494.25	23133.86
494.43	23386.63
494.61	23234.50
494.79	23665.16
494.96	23555.15
495.14	23541.11
495.32	23805.59
495.49	24238.59
495.67	24261.99
495.85	23969.43
496.02	24425.83
496.20	24533.50
496.38	24367.32
496.55	24915.00
496.73	25003.94
496.91	25013.31
497.09	25408.86
497.26	25619.50
497.44	25233.32
497.62	25518.86
497.79	25500.14
497.97	25708.44
498.14	25839.51
498.32	25788.02
498.50	26012.71
498.67	26024.42
498.85	26246.77
499.03	26214.00
499.20	26078.25
499.38	26363.79
499.56	26651.68
499.73	26693.81
499.91	26649.34
500.08	27089.36
500.26	26689.13
500.44	26852.97
500.61	26567.42
500.79	26792.11
500.97	26979.36
501.14	27377.25
501.32	27445.12
501.49	27321.07
501.67	27580.87
501.84	27866.42
502.02	27821.95
502.20	27873.44
502.37	28135.58
502.55	27770.46
502.72	28379.00
502.90	28505.38
503.07	28086.43
503.25	28257.29
503.43	27936.63
503.60	28481.98
503.78	28292.40
503.95	28727.74
504.13	28659.86
504.30	28950.09
504.48	29109.24
504.65	29113.92
504.83	29289.46
505.01	29582.03
505.18	29357.34
505.36	29715.44
505.53	29326.91
505.71	30003.33
505.88	30029.07
506.06	29759.91
506.23	30237.38
506.41	29710.76
506.58	30127.38
506.76	29944.81
506.93	30132.06
507.11	30551.01
507.28	30225.68
507.46	29743.53
507.63	29975.24
507.81	30539.31
507.98	30256.11
508.16	30293.55
508.33	30820.17
508.50	31091.68
508.68	31182.96
508.85	31318.71
509.03	31241.47
509.20	31363.18
509.38	31615.96
509.55	31655.75
509.73	31372.54
509.90	31344.45
510.08	31552.76
510.25	31543.40
510.42	31838.31
510.60	32163.64
510.77	32158.96
510.95	32388.33
511.12	32154.28
511.30	32481.95
511.47	32556.85
511.64	32540.47
511.82	32795.59
511.99	32540.47
512.17	32634.09
512.34	32631.75
512.51	32964.10
512.69	33156.03
512.86	33022.62
513.04	33167.73
513.21	32957.08
513.38	32971.13
513.56	33125.60
513.73	32704.31
513.90	33338.59
514.08	33163.05
514.25	32978.15
514.43	33413.49
514.60	33675.63
514.77	33624.14
514.95	33947.13
515.12	33872.23
515.29	34068.84
515.47	34209.27
515.64	34642.27
515.81	33942.45
515.99	34274.80
516.16	34073.52
516.33	33776.27
516.51	33834.78
516.68	33666.27
516.85	33741.16
517.03	33649.88
517.20	34033.73
517.37	34756.96
517.54	34782.70
517.72	34349.70
517.89	34483.11
518.06	33963.51
518.24	34443.32
518.41	34693.76
518.58	34944.20
518.75	34986.33
518.93	34845.90
519.10	35138.46
519.27	35164.21
519.45	35447.41
519.62	35393.58
519.79	35309.32
519.96	35608.91
520.14	36306.39
520.31	35555.08
520.48	35763.39
520.65	35632.32
520.83	35894.46
521.00	35983.40
521.17	36046.59
521.34	36397.67
521.52	36299.37
521.69	36477.25
521.86	36755.77
522.03	36362.56
522.20	36718.32
522.38	36865.78
522.55	36762.79
522.72	36697.26
522.89	36730.03
523.07	36844.71
523.24	36648.11
523.41	37308.14
523.58	37172.39
523.75	37710.71
523.92	37418.14
524.10	37394.74
524.27	37291.76
524.44	37184.09
524.61	37766.88
524.78	37900.29
524.96	37691.99
525.13	38354.36
525.30	37862.85
525.47	38326.27
525.64	37757.52
525.81	38038.39
525.98	37741.14
526.16	37579.64
526.33	37502.40
526.50	38157.75
526.67	37448.57
526.84	37584.32
527.01	37661.56
527.18	38190.52
527.36	38209.25
527.53	38480.75
527.70	38693.74
527.87	38560.33
528.04	38094.56
528.21	38859.91
528.38	39164.18
528.55	39056.52
528.72	38946.51
528.89	39173.55
529.07	38806.08
529.24	38731.18
529.41	38990.98
529.58	39227.38
529.75	38955.88
529.92	39615.91
530.09	39227.38
530.26	39564.42
530.43	39519.95
530.60	39079.92
530.77	39555.05
530.94	39723.57
531.11	39496.54
531.28	39543.35
531.46	40018.48
531.63	39779.74
531.80	39697.83
531.97	39594.84
532.14	40114.44
532.31	39667.40
532.48	39613.57
532.65	39885.07
532.82	39798.47
532.99	40093.38
533.16	39929.54
533.33	40238.49
533.50	40488.93
533.67	40032.52
533.84	40002.10
534.01	40226.79
534.18	40076.99
534.35	40664.47
534.52	40245.51
534.69	40531.06
534.86	40767.45
535.03	40580.21
535.20	41228.54
535.37	40685.53
535.54	41179.39
535.71	40966.40
535.88	41237.90
536.05	40814.26
536.22	40875.12
536.38	41120.87
536.55	41118.53
536.72	40837.67
536.89	40957.03
537.06	41001.50
537.23	41233.22
537.40	41375.99
537.57	41296.41
537.74	41170.02
537.91	41797.29
538.08	41893.25
538.25	41390.03
538.42	41481.31
538.59	41581.96
538.75	41296.41
538.92	41502.38
539.09	41425.14
539.26	41977.51
539.43	41371.31
539.60	42178.79
539.77	41689.62
539.94	41441.53
540.11	41588.98
540.28	41507.06
540.44	41741.11
540.61	41968.15
540.78	41731.75
540.95	41874.52
541.12	41680.26
541.29	41928.36
541.46	42003.25
541.62	42117.94
541.79	42534.56
541.96	41436.84
542.13	42377.74
542.30	42064.11
542.47	42087.51
542.63	42452.64
542.80	42270.08
542.97	42543.92
543.14	43035.43
543.31	42770.95
543.48	42824.78
543.64	43379.49
543.81	43323.32
543.98	43271.82
544.15	42866.91
544.32	43035.43
544.48	42972.24
544.65	43290.55
544.82	43419.28
544.99	43269.48
545.16	43042.45
545.32	43302.25
545.49	43840.57
545.66	43983.35
545.83	43871.00
546.00	43725.89
546.16	43452.05
546.33	43498.86
546.50	42995.64
546.67	43510.56
546.83	43370.13
547.00	43122.03
547.17	43264.80
547.34	43070.54
547.50	43138.41
547.67	43981.01
547.84	43674.40
548.00	43828.87
548.17	44002.07
548.34	43945.90
548.51	44254.85
548.67	44268.89
548.84	43885.04
549.01	43505.88
549.18	44179.95
549.34	44086.33
549.51	44161.23
549.68	44769.77
549.84	44453.79
550.01	44421.03
550.18	43962.28
550.34	44559.12
550.51	43990.37
550.68	44610.61
550.84	43983.35
551.01	44353.15
551.18	44332.09
551.34	44388.26
551.51	44552.10
551.68	44622.31
551.84	44435.07
552.01	44713.59
552.18	44776.79
552.34	44404.64
552.51	44774.45
552.68	44556.78
552.84	44580.18
553.01	44776.79
553.18	44591.89
553.34	44814.24
553.51	44610.61
553.67	44598.91
553.84	45134.89
554.01	45097.44
554.17	45017.86
554.34	45078.72
554.51	44863.39
554.67	45371.28
554.84	45071.70
555.00	44898.50
555.17	44900.84
555.33	45062.33
555.50	45024.89
555.67	44928.92
555.83	45263.62
556.00	45041.27
556.16	45317.45
556.33	44828.28
556.50	45200.43
556.66	45036.59
556.83	44624.65
556.99	44959.35
557.16	45432.14
557.32	45212.13
557.49	45258.94
557.65	45212.13
557.82	45539.80
557.98	45769.18
558.15	45361.92
558.32	45633.42
558.48	45333.84
558.65	45315.11
558.81	45511.72
558.98	45530.44
559.14	45230.85
559.31	45544.48
559.47	45523.42
559.64	45865.14
559.80	45677.90
559.97	45764.49
560.13	45485.97
560.30	45041.27
560.46	45764.49
560.63	45600.66
560.79	45359.58
560.96	45890.88
561.12	45598.32
561.29	45748.11
561.45	45914.29
561.61	45762.15
561.78	45783.22
561.94	45413.41
562.11	45139.57
562.27	45591.30
562.44	45696.62
562.60	46061.74
562.77	45626.40
562.93	45935.35
563.10	45928.33
563.26	45467.25
563.42	46031.32
563.59	45546.82
563.75	45918.97
563.92	45890.88
564.08	46485.38
564.24	46113.23
564.41	46007.91
564.57	45734.07
564.74	45993.87
564.90	45825.35
565.07	45865.14
565.23	45663.85
565.39	46075.79
565.56	45839.39
565.72	45322.13
565.88	45764.49
566.05	46267.71
566.21	45511.72
566.38	45907.27
566.54	46087.49
566.70	45848.75
566.87	46333.24
567.03	46270.05
567.19	46438.57
567.36	46440.91
567.52	46169.41
567.68	46230.26
567.85	46031.32
568.01	46424.53
568.17	45799.60
568.34	46574.32
568.50	46120.26
568.66	46131.96
568.83	45694.28
568.99	46115.58
569.15	46108.55
569.32	45972.80
569.48	46047.70
569.64	46569.64
569.81	45940.04
569.97	45921.31
570.13	45853.44
570.30	45696.62
570.46	45647.47
570.62	45577.25
570.78	46054.72
570.95	45937.69
571.11	45937.69
571.27	45979.82
571.43	45734.07
571.60	46476.02
571.76	46204.52
571.92	46036.00
572.09	46377.72
572.25	46384.74
572.41	46443.25
572.57	46288.77
572.74	46822.42
572.90	46342.61
573.06	46525.17
573.22	46639.86
573.38	46129.62
573.55	45895.56
573.71	46368.35
573.87	46213.88
574.03	45979.82
574.20	46366.01
574.36	46579.00
574.52	46213.88
574.68	46211.54
574.84	46157.70
575.01	45935.35
575.17	46162.39
575.33	46087.49
575.49	46141.32
575.65	46494.74
575.82	46092.17
575.98	46342.61
576.14	46808.37
576.30	46557.94
576.46	46267.71
576.62	46064.08
576.79	46293.46
576.95	45914.29
577.11	46469.00
577.27	46656.24
577.43	46138.98
577.59	46504.10
577.75	46562.62
577.92	46024.29
578.08	45949.40
578.24	46176.43
578.40	46351.97
578.56	46396.44
578.72	46136.64
578.88	46480.70
579.04	46539.21
579.21	46213.88
579.37	46314.52
579.53	46389.42
579.69	46344.95
579.85	46321.54
580.01	46763.90
580.17	46206.86
580.33	46270.05
580.49	46260.69
580.65	46216.22
580.82	46190.47
580.98	46401.12
581.14	46408.14
581.30	46899.65
581.46	46745.18
581.62	46651.56
581.78	46635.17
581.94	46476.02
582.10	46499.42
582.26	46391.76
582.42	46581.34
582.58	46831.78
582.74	46321.54
582.90	46464.32
583.06	46628.15
583.22	46543.89
583.38	46721.77
583.54	46969.87
583.70	46237.28
583.86	46726.46
584.02	46658.58
584.18	46532.19
584.34	46696.03
584.50	46190.47
584.66	46461.97
584.82	46176.43
584.98	46555.60
585.14	46490.06
585.30	46087.49
585.46	46438.57
585.62	46230.26
585.78	45984.51
585.94	45668.53
586.10	46167.07
586.26	46143.66
586.42	46363.67
586.58	46799.01
586.74	46316.86
586.90	46543.89
587.06	46644.54
587.22	46314.52
587.38	46398.78
587.54	46366.01
587.70	46326.22
587.86	46270.05
588.02	46703.05
588.18	46822.42
588.34	46092.17
588.49	46293.46
588.65	45762.15
588.81	45834.71
588.97	46281.75
589.13	45961.10
589.29	46483.04
589.45	46492.40
589.61	46146.00
589.77	46438.57
589.93	46471.34
590.08	46349.63
590.24	46724.11
590.40	47093.92
590.56	47079.88
590.72	46817.74
590.88	46377.72
591.04	46710.07
591.20	47093.92
591.35	46597.73
591.51	46815.40
591.67	46363.67
591.83	46546.23
591.99	46553.26
592.15	46703.05
592.31	46543.89
592.46	46707.73
592.62	46726.46
592.78	46756.88
592.94	46560.28
593.10	46529.85
593.26	46810.71
593.41	46845.82
593.57	46391.76
593.73	46623.47
593.89	46696.03
594.05	46534.53
594.20	46616.45
594.36	46623.47
594.52	46340.27
594.68	46248.99
594.84	46202.18
594.99	46588.36
595.15	46227.92
595.31	46384.74
595.47	46478.36
595.62	46653.90
595.78	46319.20
595.94	47075.19
596.10	46492.40
596.25	46822.42
596.41	46454.95
596.57	46637.51
596.73	46890.29
596.88	46553.26
597.04	46876.25
597.20	46740.50
597.36	46412.82
597.51	47208.61
597.67	46902.00
597.83	47016.68
597.99	46946.47
598.14	46824.76
598.30	46185.79
598.46	46721.77
598.61	46377.72
598.77	46361.33
598.93	46724.11
599.09	46883.27
599.24	46747.52
599.40	46656.24
599.56	46904.34
599.71	46637.51
599.87	46972.21
600.03	46588.36
600.18	46576.66
600.34	46780.29
600.50	46731.14
600.65	46358.99
600.81	46518.15
600.97	46553.26
601.12	46955.83
601.28	46358.99
601.44	46433.89
601.59	46237.28
601.75	46293.46
601.91	46403.46
602.06	46803.69
602.22	46796.67
602.37	46958.17
602.53	46775.61
602.69	46925.40
602.84	46466.66
603.00	46501.76
603.16	46707.73
603.31	46288.77
603.47	46026.63
603.62	46373.03
603.78	46733.48
603.94	46497.08
604.09	46621.13
604.25	46609.43
604.40	46515.81
604.56	46632.83
604.71	46696.03
604.87	46302.82
605.03	46817.74
605.18	46529.85
605.34	46733.48
605.49	45970.46
605.65	46616.45
605.80	46625.81
605.96	46356.65
606.12	46146.00
606.27	46698.37
606.43	46485.38
606.58	46452.61
606.74	46361.33
606.89	46302.82
607.05	46557.94
607.20	46342.61
607.36	46480.70
607.51	46293.46
607.67	46373.03
607.82	46401.12
607.98	46272.39
608.13	46260.69
608.29	46312.18
608.44	45923.65
608.60	45586.61
608.75	46050.04
608.91	46106.21
609.06	46064.08
609.22	46256.01
609.37	45710.66
609.53	45848.75
609.68	46150.68
609.84	46167.07
609.99	45902.59
610.15	46066.42
610.30	46075.79
610.46	46085.15
610.61	45921.31
610.76	46169.41
610.92	46108.55
611.07	45933.01
611.23	46115.58
611.38	46260.69
611.54	45525.76
611.69	45432.14
611.84	45879.18
612.00	45446.18
612.15	45471.93
612.31	45661.51
612.46	45918.97
612.62	46117.92
612.77	45558.53
612.92	45996.21
613.08	45265.96
613.23	45364.26
613.39	45177.02
613.54	44835.30
613.69	45542.14
613.85	45195.74
614.00	45448.52
614.15	45951.74
614.31	45029.57
614.46	45352.56
614.62	45549.17
614.77	45429.80
614.92	45373.63
615.08	45172.34
615.23	45638.11
615.38	44856.37
615.54	45326.81
615.69	45170.00
615.84	45113.83
616.00	45282.34
616.15	45008.50
616.30	45230.85
616.46	44842.32
616.61	44788.49
616.76	44961.69
616.92	44652.74
617.07	44685.51
617.22	44797.85
617.37	44973.39
617.53	45134.89
617.68	45174.68
617.83	45205.11
617.99	45167.66
618.14	44823.60
618.29	44931.26
618.45	44311.02
618.60	44374.22
618.75	44720.62
618.90	44924.24
619.06	44535.71
619.21	44650.40
619.36	45155.96
619.51	45045.95
619.67	44954.67
619.82	44914.88
619.97	44713.59
620.12	44395.28
620.28	43981.01
620.43	44481.88
620.58	44456.14
620.73	44531.03
620.89	44715.93
621.04	44449.11
621.19	44669.12
621.34	44662.10
621.49	44568.48
621.65	43943.56
621.80	44474.86
621.95	44502.95
622.10	44140.16
622.25	43585.46
622.41	43995.05
622.56	43772.70
622.71	44011.43
622.86	43920.15
623.01	44320.38
623.16	44093.35
623.32	44016.11
623.47	43983.35
623.62	43927.17
623.77	44189.31
623.92	44177.61
624.07	43753.97
624.23	43562.05
624.38	43629.93
624.53	43700.14
624.68	43849.94
624.83	44154.21
624.98	43924.83
625.13	43531.62
625.29	43414.60
625.44	43250.76
625.59	43438.00
625.74	43494.18
625.89	43306.93
626.04	43225.01
626.19	43810.15
626.34	43746.95
626.49	43044.79
626.65	43641.63
626.80	43590.14
626.95	43384.17
627.10	42932.45
627.25	43533.96
627.40	42602.43
627.55	42904.36
627.70	43009.68
627.85	43068.20
628.00	42981.60
628.15	43007.34
628.30	42953.51
628.45	43246.08
628.60	42775.63
628.76	43061.18
628.91	42801.38
629.06	43115.01
629.21	42384.76
629.36	42443.27
629.51	42780.31
629.66	42590.73
629.81	42501.79
629.96	43021.39
630.11	42735.84
630.26	42529.87
630.41	42932.45
630.56	42476.04
630.71	42433.91
630.86	42396.46
631.01	42356.67
631.16	42550.94
631.31	41956.44
631.46	42019.64
631.61	42639.88
631.76	42356.67
631.91	42171.77
632.06	42319.23
632.21	42806.06
632.36	42431.57
632.51	41895.59
632.66	42227.95
632.81	41942.40
632.96	41982.19
633.10	42010.28
633.25	42305.18
633.40	42148.37
633.55	42398.80
633.70	42164.75
633.85	42103.90
634.00	41923.68
634.15	41736.43
634.30	42164.75
634.45	41621.75
634.60	41729.41
634.75	41956.44
634.90	41439.18
635.05	41603.02
635.19	41776.22
635.34	42007.94
635.49	41759.84
635.64	41638.13
635.79	41478.97
635.94	41610.04
636.09	41619.41
636.24	41453.23
636.39	41111.51
636.53	41584.30
636.68	41469.61
636.83	41811.33
636.98	41743.45
637.13	41338.54
637.28	41766.86
637.43	41254.28
637.57	41399.40
637.72	41097.47
637.87	41558.55
638.02	41422.80
638.17	41471.95
638.32	41041.29
638.46	40835.33
638.61	41610.04
638.76	40832.99
638.91	41160.66
639.06	41057.68
639.20	41305.77
639.35	41425.14
639.50	41331.52
639.65	41268.33
639.80	41226.20
639.94	41158.32
640.09	40809.58
640.24	40657.45
640.39	40432.75
640.54	40741.71
640.68	40596.59
640.83	40704.26
640.98	40835.33
641.13	40493.61
641.27	40889.16
641.42	40889.16
641.57	40196.36
641.72	40694.89
641.86	40039.54
642.01	40236.15
642.16	40311.05
642.31	40140.19
642.45	40526.38
642.60	39971.67
642.75	40116.78
642.90	40561.48
643.04	40254.87
643.19	40299.34
643.34	40236.15
643.48	40299.34
643.63	40297.00
643.78	39966.99
643.93	40273.60
644.07	40006.78
644.22	39646.33
644.37	40147.21
644.51	40320.41
644.66	39952.94
644.81	40463.18
644.95	40055.93
645.10	40294.66
645.25	39894.43
645.39	39938.90
645.54	39906.13
645.69	40076.99
645.83	39871.03
645.98	40023.16
646.13	39854.64
646.27	40032.52
646.42	39505.90
646.57	39707.19
646.71	39548.03
646.86	39690.80
647.00	39777.40
647.15	39683.78
647.30	39346.75
647.44	39590.16
647.59	39735.27
647.74	39021.41
647.88	39339.72
648.03	39374.83
648.17	39400.58
648.32	39112.69
648.47	39494.20
648.61	39133.76
648.76	39262.49
648.90	39353.77
649.05	39005.03
649.20	39063.54
649.34	39412.28
649.49	38506.49
649.63	39147.80
649.78	39218.02
649.92	39241.42
650.07	39681.44
650.21	38845.87
650.36	38899.70
650.51	39051.84
650.65	39480.16
650.80	39405.26
650.94	39409.94
651.09	39047.16
651.23	39098.65
651.38	38742.89
651.52	39007.37
651.67	38408.19
651.81	38450.32
651.96	38663.31
652.10	38490.11
652.25	39126.74
652.39	38712.46
652.54	39246.10
652.68	38501.81
652.83	38476.07
652.97	38614.16
653.12	38504.15
653.26	38717.14
653.41	38527.56
653.55	38188.18
653.70	38389.47
653.84	38457.34
653.99	38440.96
654.13	38139.03
654.27	38178.82
654.42	37809.01
654.56	38054.77
654.71	38206.90
654.85	38433.94
655.00	38305.21
655.14	38169.46
655.29	37944.76
655.43	37869.87
655.57	37834.76
655.72	37565.60
655.86	37509.43
656.01	37523.47
656.15	37291.76
656.30	37701.35
656.44	37579.64
656.58	37537.51
656.73	37563.26
656.87	37963.49
657.01	37443.89
657.16	37834.76
657.30	37673.26
657.45	37186.43
657.59	36966.42
657.73	37497.72
657.88	37570.28
658.02	37790.29
658.16	37731.78
658.31	37479.00
658.45	37453.25
658.60	37170.05
658.74	37904.98
658.88	37490.70
659.03	36737.05
659.17	37251.97
659.31	37106.85
659.46	36898.55
659.60	37619.43
659.74	36837.69
659.89	36589.59
660.03	36753.43
660.17	37425.17
660.32	37275.37
660.46	37354.95
660.60	36814.29
660.74	36650.45
660.89	36872.80
661.03	36444.48
661.17	35857.01
661.32	36552.15
661.46	36552.15
661.60	36589.59
661.74	36409.37
661.89	36222.13
662.03	36446.82
662.17	36184.68
662.31	36470.23
662.46	36573.21
662.60	36226.81
662.74	36224.47
662.88	36060.63
663.03	35622.95
663.17	35737.64
663.31	35784.45
663.45	35683.81
663.60	35812.54
663.74	36329.80
663.88	35632.32
664.02	35875.73
664.17	35576.14
664.31	35218.04
664.45	35772.75
664.59	35545.72
664.73	35784.45
664.88	35655.72
665.02	35215.70
665.16	35035.48
665.30	35164.21
665.44	35515.29
665.59	34560.35
665.73	35140.80
665.87	34972.28
666.01	34918.45
666.15	35105.70
666.29	34962.92
666.44	34988.67
666.58	34960.58
666.72	34937.18
666.86	34550.99
667.00	34951.22
667.14	34302.89
667.28	35103.35
667.43	34185.86
667.57	34752.27
667.71	34302.89
667.85	34321.62
667.99	34401.19
668.13	33689.67
668.27	34237.36
668.41	34691.42
668.56	34436.30
668.70	34211.61
668.84	34080.54
668.98	33642.86
669.12	33834.78
669.26	33582.01
669.40	33736.48
669.54	33745.84
669.68	33507.11
669.82	33317.53
669.96	33221.56
670.10	33493.07
670.25	33120.92
670.39	33240.29
670.53	33017.94
670.67	33251.99
670.81	33090.49
670.95	33137.30
671.09	33249.65
671.23	33125.60
671.37	32858.78
671.51	32629.41
671.65	32814.31
671.79	32133.21
671.93	32559.19
672.07	33020.28
672.21	32851.76
672.35	32233.86
672.49	32437.48
672.63	32456.21
672.77	32378.97
672.91	32280.67
673.05	32315.78
673.19	32390.67
673.33	32051.30
673.47	32170.66
673.61	31988.10
673.75	31498.93
673.89	31604.25
674.03	31367.86
674.17	31552.76
674.31	31356.16
674.45	31243.81
674.59	31454.46
674.73	31707.24
674.87	31559.78
675.01	31145.51
675.15	31215.72
675.29	31117.42
675.43	30768.68
675.56	30752.30
675.70	30824.86
675.84	30881.03
675.98	30134.40
676.12	30225.68
676.26	30579.10
676.40	30679.74
676.54	30684.42
676.68	30335.68
676.82	30019.71
676.96	29907.37
677.10	29940.13
677.23	29898.00
677.37	29628.84
677.51	29809.06
677.65	29362.02
677.79	29256.70
677.93	29301.17
678.07	29460.32
678.21	28800.29
678.34	28980.51
678.48	28907.96
678.62	28814.34
678.76	28694.97
678.90	28238.56
679.04	28477.30
679.18	28823.70
679.31	28570.92
679.45	28180.05
679.59	28161.33
679.73	27875.78
679.87	28161.33
680.00	27976.42
680.14	28161.33
680.28	27868.76
680.42	27667.47
680.56	27817.27
680.70	27779.82
680.83	27995.15
680.97	27601.94
681.11	27618.32
681.25	27398.31
681.39	27487.25
681.52	27381.93
681.66	27431.08
681.80	27035.53
681.94	27094.04
682.07	26974.67
682.21	26553.38
682.35	26714.87
682.49	26572.10
682.62	26511.25
682.76	26185.91
682.90	26654.02
683.04	26026.76
683.17	26265.49
683.31	26064.21
683.45	25701.42
683.59	26129.74
683.72	25790.36
683.86	25970.58
684.00	26288.90
684.13	25514.18
684.27	25221.61
684.41	25876.96
684.55	25380.77
684.68	25376.09
684.82	25163.10
684.96	25048.41
685.09	25167.78
685.23	25099.90
685.37	25046.07
685.50	24851.81
685.64	24664.57
685.78	24746.48
685.91	24278.38
686.05	24482.00
686.19	23859.42
686.32	23917.93
686.46	23798.57
686.60	23733.03
686.73	23325.78
686.87	23253.22
687.01	23396.00
687.14	23419.40
687.28	23264.92
687.42	23644.09
687.55	23037.89
687.69	22977.04
687.82	22981.72
687.96	23194.71
688.10	22923.21
688.23	22794.48
688.37	22581.49
688.50	22640.00
688.64	22670.43
688.78	22700.86
688.91	22614.26
689.05	22537.02
689.18	22602.55
689.32	21979.97
689.46	22230.41
689.59	22398.93
689.73	22380.20
689.86	22045.51
690.00	21989.33
690.13	22033.80
690.27	21745.92
690.41	21441.65
690.54	21268.45
690.68	21238.02
690.81	21120.99
690.95	21289.51
691.08	21102.27
691.22	21284.83
691.35	21039.08
691.49	20994.61
691.62	21326.96
691.76	20945.45
691.89	20783.96
692.03	20631.82
692.16	20669.27
692.30	20496.07
692.43	20449.26
692.57	20257.34
692.70	20269.04
692.84	20269.04
692.97	19580.92
693.11	20128.61
693.24	19840.72
693.38	19580.92
693.51	19950.73
693.65	20027.96
693.78	19728.38
693.92	19452.19
694.05	19730.72
694.19	19335.17
694.32	19417.08
694.45	19243.88
694.59	18909.19
694.72	19138.56
694.86	18806.20
694.99	18698.54
695.13	18906.85
695.26	18948.98
695.39	18845.99
695.53	18808.54
695.66	18813.23
695.80	18768.76
695.93	18380.23
696.07	18466.83
696.20	18471.51
696.33	18607.26
696.47	18483.21
696.60	18129.79
696.73	18008.08
696.87	17802.11
697.00	17731.90
697.14	17593.81
697.27	17525.93
697.40	17652.32
697.54	17741.26
697.67	17528.27
697.80	17434.65
697.94	17177.19
698.07	17350.39
698.21	17317.62
698.34	17474.44
698.47	17064.85
698.61	16938.46
698.74	16725.47
698.87	16610.78
699.01	16578.01
699.14	16638.87
699.27	16299.49
699.40	16594.40
699.54	16535.88
699.67	16208.21
699.80	16255.02
699.94	16189.49
700.07	16350.98
700.20	16100.55
700.34	15737.76
700.47	15730.74
700.60	16271.40
700.73	16070.12
700.87	16121.61
701.00	15578.61
701.13	15686.27
701.26	15323.49
701.40	15686.27
701.53	15234.55
701.66	15407.75
701.79	14965.39
701.93	15033.26
702.06	14892.83
702.19	14728.99
702.32	15183.06
702.46	14953.68
702.59	14768.78
702.72	15077.73
702.85	14925.60
702.99	14801.55
703.12	14714.95
703.25	14483.24
703.38	14534.73
703.51	14242.16
703.65	14595.58
703.78	14319.40
703.91	13900.44
704.04	14061.94
704.17	14314.72
704.31	14162.58
704.44	13977.68
704.57	14015.13
704.70	14078.32
704.83	13610.22
704.96	14019.81
705.10	13949.59
705.23	13736.60
>>>>>End Processed Spectral Data<<<<<
