SpectraSuite Data File
++++++++++++++++++++++++++++++++++++
Date: Fri Oct 25 11:33:42 EDT 2013
User: price-jones
Dark Spectrum Present: No
Reference Spectrum Present: No
Number of Sampled Component Spectra: 1
Spectrometers: USB2+H05261
Integration Time (usec): 100000 (USB2+H05261)
Spectra Averaged: 1 (USB2+H05261)
Boxcar Smoothing: 0 (USB2+H05261)
Correct for Electrical Dark: No (USB2+H05261)
Strobe/Lamp Enabled: No (USB2+H05261)
Correct for Detector Non-linearity: No (USB2+H05261)
Correct for Stray Light: No (USB2+H05261)
Number of Pixels in Processed Spectrum: 2048
>>>>>Begin Processed Spectral Data<<<<<
365.73	301.93
365.92	301.93
366.12	301.93
366.32	170.86
366.52	210.65
366.72	224.69
366.91	138.09
367.11	159.16
367.31	191.92
367.51	227.03
367.70	163.84
367.90	173.20
368.10	91.28
368.30	119.37
368.49	159.16
368.69	234.05
368.89	234.05
369.09	142.77
369.28	217.67
369.48	175.54
369.68	198.95
369.87	266.82
370.07	201.29
370.27	311.29
370.47	353.42
370.66	451.72
370.86	493.85
371.06	517.26
371.25	538.32
371.45	561.73
371.65	575.77
371.84	617.90
372.04	566.41
372.24	498.53
372.44	535.98
372.63	622.58
372.83	594.50
373.03	624.92
373.22	610.88
373.42	571.09
373.62	629.60
373.81	634.29
374.01	671.73
374.21	608.54
374.40	643.65
374.60	645.99
374.79	608.54
374.99	617.90
375.19	624.92
375.38	653.01
375.58	615.56
375.78	641.31
375.97	718.54
376.17	767.70
376.37	610.88
376.56	734.93
376.76	660.03
376.95	641.31
377.15	678.76
377.35	765.36
377.54	662.37
377.74	662.37
377.93	751.31
378.13	676.41
378.33	711.52
378.52	793.44
378.72	671.73
378.91	739.61
379.11	650.67
379.31	615.56
379.50	674.07
379.70	739.61
379.89	720.88
380.09	725.57
380.28	650.67
380.48	716.20
380.68	758.33
380.87	730.25
381.07	697.48
381.26	737.27
381.46	772.38
381.65	760.67
381.85	763.01
382.04	798.12
382.24	809.83
382.43	821.53
382.63	741.95
382.83	779.40
383.02	877.70
383.22	863.66
383.41	781.74
383.61	823.87
383.80	823.87
384.00	805.14
384.19	844.93
384.39	772.38
384.58	866.00
384.78	793.44
384.97	908.13
385.17	880.04
385.36	898.77
385.56	882.38
385.75	821.53
385.95	901.11
386.14	873.02
386.34	980.68
386.53	873.02
386.72	863.66
386.92	915.15
387.11	858.98
387.31	924.51
387.50	898.77
387.70	807.48
387.89	915.15
388.09	889.40
388.28	924.51
388.48	915.15
388.67	973.66
388.86	823.87
389.06	964.30
389.25	880.04
389.45	905.79
389.64	938.55
389.84	1046.22
390.03	945.58
390.22	922.17
390.42	980.68
390.61	1011.11
390.81	947.92
391.00	994.73
391.19	994.73
391.39	959.62
391.58	1004.09
391.78	1043.88
391.97	1043.88
392.16	1062.60
392.36	1050.90
392.55	1128.14
392.75	1043.88
392.94	952.60
393.13	973.66
393.33	1029.84
393.52	1071.97
393.71	1029.84
393.91	1081.33
394.10	1053.24
394.29	1078.99
394.49	1055.58
394.68	1081.33
394.88	1132.82
395.07	1135.16
395.26	1163.25
395.46	1107.07
395.65	1142.18
395.84	1097.71
396.04	1217.08
396.23	1191.33
396.42	1198.35
396.62	1186.65
396.81	1247.51
397.00	1184.31
397.19	1200.69
397.39	1310.70
397.58	1207.72
397.77	1270.91
397.97	1289.64
398.16	1186.65
398.35	1291.98
398.55	1188.99
398.74	1348.15
398.93	1320.06
399.12	1352.83
399.32	1359.85
399.51	1320.06
399.70	1261.55
399.90	1416.02
400.09	1331.76
400.28	1425.39
400.47	1453.47
400.67	1406.66
400.86	1390.28
401.05	1444.11
401.24	1425.39
401.44	1568.16
401.63	1472.20
401.82	1509.65
402.01	1458.15
402.21	1530.71
402.40	1509.65
402.59	1540.07
402.78	1551.78
402.97	1483.90
403.17	1465.18
403.36	1432.41
403.55	1556.46
403.74	1591.56
403.93	1657.10
404.13	1572.84
404.32	1558.80
404.51	1577.52
404.70	1556.46
404.89	1579.86
405.09	1696.89
405.28	1568.16
405.47	1743.70
405.66	1750.72
405.85	1650.08
406.05	1790.51
406.24	1762.42
406.43	1685.19
406.62	1739.02
406.81	1820.94
407.00	1736.68
407.20	1715.61
407.39	1746.04
407.58	1860.73
407.77	1970.73
407.96	1893.49
408.15	1940.30
408.34	1837.32
408.54	1902.86
408.73	1923.92
408.92	1977.75
409.11	2066.69
409.30	1949.67
409.49	2017.54
409.68	2022.22
409.87	2005.84
410.07	2078.40
410.26	2099.46
410.45	2106.48
410.64	2092.44
410.83	2228.19
411.02	2127.55
411.21	2188.40
411.40	2204.78
411.59	2225.85
411.78	2197.76
411.98	2223.51
412.17	2214.15
412.36	2230.53
412.55	2197.76
412.74	2305.43
412.93	2375.64
413.12	2228.19
413.31	2373.30
413.50	2370.96
413.69	2342.88
413.88	2532.46
414.07	2361.60
414.26	2555.86
414.45	2490.33
414.64	2448.20
414.83	2558.21
415.02	2565.23
415.22	2609.70
415.41	2668.21
415.60	2616.72
415.79	2654.17
415.98	2600.34
416.17	2637.78
416.36	2724.38
416.55	2654.17
416.74	2871.84
416.93	2827.37
417.12	2775.88
417.31	2871.84
417.50	2956.10
417.69	2862.48
417.88	2953.76
418.07	2942.05
418.26	2963.12
418.45	3084.83
418.64	3059.08
418.83	3009.93
419.02	3059.08
419.21	3021.63
419.39	3145.68
419.58	2949.08
419.77	3105.89
419.96	3101.21
420.15	3131.64
420.34	3152.70
420.53	3152.70
420.72	3204.19
420.91	3225.26
421.10	3339.94
421.29	3227.60
421.48	3269.73
421.67	3311.86
421.86	3386.76
422.05	3382.07
422.24	3129.30
422.43	3323.56
422.61	3361.01
422.80	3482.72
422.99	3391.44
423.18	3358.67
423.37	3370.37
423.56	3435.91
423.75	3480.38
423.94	3314.20
424.13	3084.83
424.32	3145.68
424.50	3503.78
424.69	3548.25
424.88	3681.66
425.07	3421.86
425.26	3351.65
425.45	3538.89
425.64	3445.27
425.83	3449.95
426.01	3456.97
426.20	3442.93
426.39	3382.07
426.58	3510.80
426.77	3529.53
426.96	3550.59
427.15	3578.68
427.33	3517.83
427.52	3613.79
427.71	3684.00
427.90	3709.75
428.09	3691.02
428.28	3705.07
428.46	3744.86
428.65	3758.90
428.84	3901.67
429.03	3889.97
429.22	3618.47
429.40	3763.58
429.59	3786.99
429.78	3808.05
429.97	3716.77
430.16	3719.11
430.34	3815.07
430.53	3889.97
430.72	3871.25
430.91	3873.59
431.10	3751.88
431.28	3964.87
431.47	4117.00
431.66	4107.64
431.85	3866.56
432.03	3992.95
432.22	4114.66
432.41	4074.87
432.60	4063.17
432.79	4044.45
432.97	4161.47
433.16	4140.41
433.35	4077.21
433.54	4177.86
433.72	4196.58
433.91	4135.73
434.10	4245.73
434.28	4383.82
434.47	4243.39
434.66	4278.50
434.85	4257.43
435.03	4337.01
435.22	4381.48
435.41	4472.76
435.59	4208.28
435.78	4454.04
435.97	4362.76
436.16	4458.72
436.34	4376.80
436.53	4372.12
436.72	4638.94
436.90	4367.44
437.09	4498.51
437.28	4468.08
437.46	4554.68
437.65	4631.92
437.84	4437.66
438.02	4582.77
438.21	4557.02
438.40	4482.13
438.58	4702.14
438.77	4788.74
438.96	4669.37
439.14	4774.69
439.33	4910.44
439.52	4772.35
439.70	4973.64
439.89	5095.35
440.08	5128.11
440.26	5057.90
440.45	5020.45
440.63	4971.30
440.82	5144.50
441.01	5027.47
441.19	5102.37
441.38	5214.71
441.57	5245.14
441.75	5341.10
441.94	5397.28
442.12	5411.32
442.31	5533.03
442.50	5338.76
442.68	5331.74
442.87	5397.28
443.05	5486.22
443.24	5575.16
443.43	5430.04
443.61	5664.10
443.80	5694.52
443.98	5502.60
444.17	5329.40
444.35	5619.63
444.54	5664.10
444.73	5757.72
444.91	5654.73
445.10	5621.97
445.28	5699.20
445.47	5631.33
445.65	5584.52
445.84	5713.25
446.02	5710.91
446.21	5727.29
446.39	5647.71
446.58	5657.07
446.77	5645.37
446.95	5561.11
447.14	5598.56
447.32	5853.68
447.51	5837.30
447.69	5717.93
447.88	5792.83
448.06	5778.78
448.25	5764.74
448.43	5830.27
448.62	5839.64
448.80	5870.06
448.99	5907.51
449.17	5823.25
449.36	5799.85
449.54	5966.03
449.73	6169.65
449.91	6129.86
450.10	6134.54
450.28	6101.78
450.46	6174.33
450.65	6061.99
450.83	6223.48
451.02	5984.75
451.20	6349.87
451.39	6129.86
451.57	6209.44
451.76	6066.67
451.94	6366.26
452.13	6352.21
452.31	6230.51
452.49	6239.87
452.68	6553.50
452.86	6284.34
453.05	6384.98
453.23	6427.11
453.42	6251.57
453.60	6237.53
453.78	6356.90
453.97	6331.15
454.15	6546.48
454.34	6321.79
454.52	6525.41
454.70	6485.62
454.89	6679.89
455.07	6731.38
455.26	6778.19
455.44	6850.75
455.62	6658.82
455.81	6707.98
455.99	6829.68
456.17	6726.70
456.36	6733.72
456.54	6771.17
456.73	6895.22
456.91	7077.78
457.09	7047.35
457.28	7220.55
457.46	7059.06
457.64	7066.08
457.83	7077.78
458.01	7002.88
458.19	7255.66
458.38	7098.84
458.56	7222.89
458.74	7236.94
458.93	7091.82
459.11	7183.10
459.29	7169.06
459.48	7297.79
459.66	7197.15
459.84	7346.94
460.03	7552.91
460.21	7372.69
460.39	7356.30
460.57	7508.44
460.76	7419.50
460.94	7456.95
461.12	7573.97
461.31	7616.10
461.49	7508.44
461.67	7569.29
461.85	7646.53
462.04	7496.74
462.22	7903.99
462.40	7639.51
462.59	7801.01
462.77	7782.28
462.95	7782.28
463.13	7793.98
463.32	7786.96
463.50	7796.32
463.68	7887.61
463.86	8037.40
464.05	7887.61
464.23	7742.49
464.41	8140.38
464.59	7826.75
464.78	8138.04
464.96	8028.04
465.14	8058.46
465.32	7934.42
465.50	8318.26
465.69	8004.63
465.87	8332.31
466.05	8100.59
466.23	8126.34
466.41	8053.78
466.60	8411.89
466.78	8121.66
466.96	8273.79
467.14	8161.45
467.32	8196.56
467.51	8404.86
467.69	8273.79
467.87	8425.93
468.05	8557.00
468.23	8344.01
468.41	8348.69
468.60	8622.53
468.78	8695.09
468.96	8704.45
469.14	8517.21
469.32	8624.87
469.50	8369.76
469.69	8734.88
469.87	8706.79
470.05	8741.90
470.23	9011.06
470.41	8746.58
470.59	8863.61
470.77	8992.34
470.95	8823.82
471.14	9069.58
471.32	8877.65
471.50	8966.59
471.68	8985.32
471.86	9125.75
472.04	9116.39
472.22	9322.35
472.40	9130.43
472.58	9259.16
472.77	9186.60
472.95	9423.00
473.13	9743.65
473.31	9378.53
473.49	9596.20
473.67	9273.20
473.85	9692.16
474.03	9717.90
474.21	9666.41
474.39	9893.44
474.57	9722.59
474.75	9954.30
474.93	10052.60
475.12	9848.97
475.30	10115.80
475.48	9963.66
475.66	10356.87
475.84	10120.48
476.02	10244.52
476.20	10118.14
476.38	10363.89
476.56	10703.27
476.74	10396.66
476.92	10668.16
477.10	10534.75
477.28	10569.86
477.46	10663.48
477.64	11044.99
477.82	10874.13
478.00	11183.08
478.18	11042.65
478.36	11218.19
478.54	11346.92
478.72	11396.07
478.90	11426.50
479.08	11712.04
479.26	11527.14
479.44	11396.07
479.62	11733.11
479.80	11934.39
479.98	12023.33
480.16	12290.15
480.34	12184.83
480.52	12458.67
480.70	12519.53
480.88	12039.72
481.06	12463.35
481.24	12489.10
481.41	12676.34
481.59	12664.64
481.77	12954.87
481.95	12985.29
482.13	12975.93
482.31	12982.95
482.49	13479.15
482.67	13188.92
482.85	13654.69
483.03	13806.82
483.21	13373.82
483.39	13907.46
483.57	13776.39
483.74	13816.18
483.92	13902.78
484.10	13928.53
484.28	14253.86
484.46	14324.08
484.64	14614.30
484.82	14569.83
485.00	14626.01
485.18	15136.24
485.35	15222.84
485.53	15185.40
485.71	15166.67
485.89	15262.63
486.07	15243.91
486.25	15255.61
486.43	15367.96
486.61	15639.46
486.78	16053.73
486.96	15960.11
487.14	15929.69
487.32	16299.49
487.50	16334.60
487.68	16381.41
487.85	16826.11
488.03	16638.87
488.21	16812.07
488.39	17083.57
488.57	17151.45
488.75	17289.54
488.92	17572.74
489.10	17666.36
489.28	17460.40
489.46	17769.35
489.64	17561.04
489.81	18380.23
489.99	18209.37
490.17	18139.15
490.35	18490.23
490.53	18494.91
490.70	18735.99
490.88	18787.48
491.06	18656.41
491.24	18881.10
491.41	19009.83
491.59	19328.14
491.77	19468.58
491.95	19365.59
492.13	19625.39
492.30	19707.31
492.48	19735.40
492.66	19616.03
492.84	20194.14
493.01	20102.86
493.19	20212.87
493.37	20374.36
493.54	20343.94
493.72	20538.20
493.90	20585.01
494.08	21039.08
494.25	20690.34
494.43	21092.91
494.61	21289.51
494.79	21345.69
494.96	21324.62
495.14	21326.96
495.32	21900.39
495.49	21671.02
495.67	21867.63
495.85	21717.83
496.02	22167.21
496.20	22448.08
496.38	22251.47
496.55	22424.67
496.73	22960.66
496.91	22852.99
497.09	22665.75
497.26	22782.77
497.44	22955.97
497.62	23222.80
497.79	23688.56
497.97	23138.54
498.14	23538.77
498.32	23695.58
498.50	23522.38
498.67	23854.74
498.85	23693.24
499.03	24002.19
499.20	24137.94
499.38	24238.59
499.56	24414.13
499.73	24592.01
499.91	24496.05
500.08	24772.23
500.26	24659.88
500.44	25142.03
500.61	24912.66
500.79	24683.29
500.97	25235.66
501.14	25624.18
501.32	25486.09
501.49	25453.33
501.67	25436.94
501.84	25446.30
502.02	25689.72
502.20	25724.83
502.37	25891.01
502.55	25933.14
502.72	25916.75
502.90	25970.58
503.07	25837.17
503.25	25907.39
503.43	26045.48
503.60	26218.68
503.78	26078.25
503.95	26286.56
504.13	26403.58
504.30	26569.76
504.48	26764.03
504.65	27016.80
504.83	26939.57
505.01	27082.34
505.18	27498.95
505.36	27075.32
505.53	27101.06
505.71	27456.82
505.88	27658.11
506.06	27566.83
506.23	27672.15
506.41	27655.77
506.58	27536.40
506.76	27721.30
506.93	27981.10
507.11	27927.27
507.28	28229.20
507.46	28065.36
507.63	28507.72
507.81	28215.16
507.98	28456.23
508.16	28156.64
508.33	28594.32
508.50	28680.92
508.68	28620.07
508.85	28905.62
509.03	28959.45
509.20	28795.61
509.38	29441.60
509.55	29125.63
509.73	29371.38
509.90	29305.85
510.08	29104.56
510.25	29507.13
510.42	29624.16
510.60	30103.97
510.77	30010.35
510.95	30328.66
511.12	29898.00
511.30	29935.45
511.47	30312.28
511.64	29898.00
511.82	30394.20
511.99	30370.79
512.17	30366.11
512.34	30476.12
512.51	30794.43
512.69	30738.26
512.86	30827.20
513.04	30824.86
513.21	30724.21
513.38	31185.30
513.56	31440.42
513.73	31044.87
513.90	31548.08
514.08	31281.26
514.25	31768.09
514.43	31772.77
514.60	31833.63
514.77	31606.59
514.95	31840.65
515.12	31484.89
515.29	31962.36
515.47	31941.29
515.64	32037.25
515.81	31842.99
515.99	32271.31
516.16	32465.57
516.33	32388.33
516.51	32620.05
516.68	32297.05
516.85	32374.29
517.03	32556.85
517.20	33015.60
517.37	32428.12
517.54	33200.50
517.72	32891.55
517.89	33010.92
518.06	33441.57
518.24	33177.09
518.41	32905.59
518.58	33085.81
518.75	33099.86
518.93	33158.37
519.10	33507.11
519.27	33111.56
519.45	33448.60
519.62	33476.68
519.79	33755.21
519.96	33511.79
520.14	33844.15
520.31	33741.16
520.48	34167.14
520.65	34405.88
520.83	34440.98
521.00	34279.49
521.17	34256.08
521.34	34235.02
521.52	34452.69
521.69	34396.51
521.86	34614.18
522.03	34712.49
522.20	35241.45
522.38	35037.82
522.55	35145.48
522.72	34845.90
522.89	35063.57
523.07	35304.64
523.24	35304.64
523.41	35475.50
523.58	35126.76
523.75	35491.88
523.92	34817.81
524.10	35747.00
524.27	35681.47
524.44	35318.68
524.61	35950.63
524.78	35629.98
524.96	36060.63
525.13	36259.58
525.30	36093.40
525.47	35948.29
525.64	36130.85
525.81	36444.48
525.98	36620.02
526.16	36381.29
526.33	36360.22
526.50	36556.83
526.67	36643.43
526.84	36540.44
527.01	36568.53
527.18	36835.35
527.36	36535.76
527.53	36928.97
527.70	37336.23
527.87	37273.03
528.04	36907.91
528.21	37090.47
528.38	37092.81
528.55	37186.43
528.72	37354.95
528.89	37422.83
529.07	37193.45
529.24	36907.91
529.41	37315.16
529.58	37282.39
529.75	37406.44
529.92	37656.88
530.09	37333.89
530.26	37710.71
530.43	37521.13
530.60	37893.27
530.77	37598.37
530.94	37837.10
531.11	37862.85
531.28	38103.92
531.46	38134.35
531.63	37940.08
531.80	37923.70
531.97	38188.18
532.14	38272.44
532.31	38345.00
532.48	38183.50
532.65	38719.48
532.82	38574.37
532.99	38569.69
533.16	38639.90
533.33	38630.54
533.50	38763.95
533.67	38827.15
533.84	38637.56
534.01	38696.08
534.18	38672.67
534.35	39028.43
534.52	39225.04
534.69	39538.67
534.86	39667.40
535.03	39227.38
535.20	39597.18
535.37	39606.55
535.54	39887.41
535.71	39353.77
535.88	39545.69
536.05	39622.93
536.22	39463.77
536.38	39985.71
536.55	39414.62
536.72	39601.86
536.89	39606.55
537.06	40020.82
537.23	40212.74
537.40	39597.18
537.57	39831.24
537.74	40130.83
537.91	40470.20
538.08	40091.04
538.25	39983.37
538.42	40205.72
538.59	40886.82
538.75	40240.83
538.92	40598.93
539.09	40711.28
539.26	40474.88
539.43	40627.02
539.60	40346.15
539.77	40610.64
539.94	40748.73
540.11	40390.62
540.28	40858.73
540.44	40982.78
540.61	40786.18
540.78	40580.21
540.95	41067.04
541.12	40982.78
541.29	40840.01
541.46	41088.10
541.62	40772.13
541.79	41600.68
541.96	41464.93
542.13	40814.26
542.30	41177.04
542.47	41336.20
542.63	41212.15
542.80	41593.66
542.97	41703.67
543.14	42124.96
543.31	41591.32
543.48	41841.76
543.64	42471.36
543.81	41961.12
543.98	41806.65
544.15	42253.69
544.32	42094.53
544.48	42150.71
544.65	42101.56
544.82	42122.62
544.99	41743.45
545.16	42321.57
545.32	42312.20
545.49	42419.87
545.66	42349.65
545.83	42623.50
546.00	42859.89
546.16	42656.26
546.33	42115.60
546.50	42520.51
546.67	42518.17
546.83	41970.49
547.00	42579.03
547.17	42417.53
547.34	42997.98
547.50	43063.52
547.67	43028.41
547.84	43435.66
548.00	43077.56
548.17	42869.25
548.34	43313.95
548.51	43585.46
548.67	43196.93
548.84	43491.83
549.01	42904.36
549.18	43636.95
549.34	43232.04
549.51	43349.06
549.68	43676.74
549.84	43257.78
550.01	44027.82
550.18	43239.06
550.34	43433.32
550.51	43229.69
550.68	43746.95
550.84	43070.54
551.01	43828.87
551.18	43379.49
551.34	43873.34
551.51	43955.26
551.68	43545.67
551.84	43662.69
552.01	43405.23
552.18	43828.87
552.34	43634.61
552.51	44360.17
552.68	44212.72
552.84	43957.60
553.01	44392.94
553.18	44259.53
553.34	44652.74
553.51	44547.42
553.67	44086.33
553.84	44411.67
554.01	44500.61
554.17	44414.01
554.34	44271.23
554.51	44414.01
554.67	44832.96
554.84	44411.67
555.00	44594.23
555.17	44519.33
555.33	44872.75
555.50	44545.08
555.67	44357.83
555.83	44601.25
556.00	45130.21
556.16	44914.88
556.33	44992.12
556.50	44346.13
556.66	44807.22
556.83	44957.01
556.99	45308.09
557.16	44975.73
557.32	45216.81
557.49	45144.25
557.65	44732.32
557.82	44863.39
557.98	45219.15
558.15	44964.03
558.32	45303.41
558.48	44933.60
558.65	45347.88
558.81	45275.32
558.98	45134.89
559.14	45380.65
559.31	45010.84
559.47	45261.28
559.64	45457.88
559.80	45500.01
559.97	45635.77
560.13	45579.59
560.30	45132.55
560.46	45801.94
560.63	45610.02
560.79	45741.09
560.96	45654.49
561.12	45834.71
561.29	45778.54
561.45	46120.26
561.61	45918.97
561.78	45647.47
561.94	46300.48
562.11	45490.65
562.27	45841.73
562.44	45757.47
562.60	45823.01
562.77	45925.99
562.93	45652.15
563.10	46237.28
563.26	45773.86
563.42	46127.28
563.59	45701.30
563.75	46017.27
563.92	45705.98
564.08	46012.59
564.24	45567.89
564.41	46363.67
564.57	45935.35
564.74	45986.85
564.90	45815.99
565.07	46199.83
565.23	45874.50
565.39	45673.21
565.56	46639.86
565.72	46361.33
565.88	46265.37
566.05	46174.09
566.21	46003.23
566.38	46349.63
566.54	46759.22
566.70	46185.79
566.87	46220.90
567.03	46211.54
567.19	46628.15
567.36	46405.80
567.52	46466.66
567.68	46541.55
567.85	46082.81
568.01	46473.68
568.17	46501.76
568.34	46366.01
568.50	46204.52
568.66	46476.02
568.83	46483.04
568.99	46501.76
569.15	46497.08
569.32	46808.37
569.48	46380.06
569.64	46679.64
569.81	46653.90
569.97	46749.86
570.13	46454.95
570.30	46298.14
570.46	46600.07
570.62	46796.67
570.78	46817.74
570.95	46384.74
571.11	46843.48
571.27	46674.96
571.43	46651.56
571.60	46391.76
571.76	46356.65
571.92	46693.69
572.09	46288.77
572.25	46588.36
572.41	46693.69
572.57	46885.61
572.74	47119.66
572.90	46904.34
573.06	46841.14
573.22	46756.88
573.38	46909.02
573.55	46740.50
573.71	47325.63
573.87	47079.88
574.03	46878.59
574.20	47124.35
574.36	47098.60
574.52	47171.16
574.68	47199.24
574.84	46997.96
575.01	47000.30
575.17	47367.76
575.33	47632.24
575.49	47033.07
575.65	47292.86
575.82	47093.92
575.98	47012.00
576.14	46494.74
576.30	47697.78
576.46	46876.25
576.62	46939.44
576.79	47070.51
576.95	46745.18
577.11	47058.81
577.27	46902.00
577.43	47138.39
577.59	47463.72
577.75	46738.16
577.92	46969.87
578.08	46962.85
578.24	47281.16
578.40	47491.81
578.56	47257.76
578.72	47398.19
578.88	47129.03
579.04	47320.95
579.21	46988.60
579.37	47126.69
579.53	47477.77
579.69	46869.23
579.85	47248.39
580.01	47028.38
580.17	47093.92
580.33	47100.94
580.49	47426.28
580.65	47143.07
580.82	46983.91
580.98	47239.03
581.14	47023.70
581.30	47189.88
581.46	47281.16
581.62	47215.63
581.78	46824.76
581.94	46843.48
582.10	47372.44
582.26	47430.96
582.42	47292.86
582.58	47192.22
582.74	47112.64
582.90	47129.03
583.06	47166.48
583.22	47103.28
583.38	46855.18
583.54	47800.76
583.70	47234.35
583.86	47529.26
584.02	47608.84
584.18	47789.06
584.34	47475.43
584.50	47835.87
584.66	47489.47
584.82	47910.77
584.98	48053.54
585.14	47454.36
585.30	47220.31
585.46	47440.32
585.62	46972.21
585.78	47423.93
585.94	46939.44
586.10	47421.59
586.26	47047.11
586.42	47033.07
586.58	47168.82
586.74	47466.06
586.90	47590.11
587.06	47358.40
587.22	47594.79
587.38	47210.95
587.54	47459.04
587.70	47643.94
587.86	47777.36
588.02	47393.51
588.18	47604.16
588.34	47295.21
588.49	47426.28
588.65	47136.05
588.81	47037.75
588.97	47484.79
589.13	47704.80
589.29	47365.42
589.45	47564.37
589.61	47356.06
589.77	47650.97
589.93	47547.98
590.08	47564.37
590.24	47798.42
590.40	47693.10
590.56	47634.58
590.72	48002.05
590.88	47819.49
591.04	47660.33
591.20	47735.23
591.35	47988.00
591.51	48107.37
591.67	48044.18
591.83	48250.14
591.99	47948.21
592.15	47945.87
592.31	47379.46
592.46	47571.39
592.62	47777.36
592.78	48100.35
592.94	47899.06
593.10	47878.00
593.26	48233.76
593.41	47901.40
593.57	48168.22
593.73	48081.63
593.89	48191.63
594.05	48273.55
594.20	48032.47
594.36	48196.31
594.52	48547.39
594.68	48109.71
594.84	47618.20
594.99	48416.32
595.15	48053.54
595.31	48240.78
595.47	48083.97
595.62	48287.59
595.78	48053.54
595.94	47784.38
596.10	48119.07
596.25	47941.19
596.41	48294.61
596.57	47927.15
596.73	48449.09
596.88	48172.91
597.04	48200.99
597.20	48208.01
597.36	48161.20
597.51	48608.25
597.67	47873.32
597.83	48105.03
597.99	48147.16
598.14	48217.38
598.30	48088.65
598.46	48067.58
598.61	48404.62
598.77	48523.99
598.93	48900.81
599.09	48353.13
599.24	48435.05
599.40	48421.00
599.56	48360.15
599.71	48608.25
599.87	48987.41
600.03	48872.73
600.18	48603.56
600.34	47899.06
600.50	48378.87
600.65	47973.96
600.81	48861.02
600.97	48542.71
601.12	48100.35
601.28	48404.62
601.44	48559.09
601.59	48296.95
601.75	48329.72
601.91	48619.95
602.06	48292.27
602.22	48381.21
602.37	48126.10
602.53	47992.68
602.69	48435.05
602.84	47917.79
603.00	48189.29
603.16	48413.98
603.31	48142.48
603.47	48025.45
603.62	48636.33
603.78	48512.28
603.94	48210.35
604.09	48252.48
604.25	48156.52
604.40	48474.84
604.56	48353.13
604.71	48839.96
604.87	48119.07
605.03	48210.35
605.18	47894.38
605.34	48062.90
605.49	47835.87
605.65	48243.12
605.80	47955.24
605.96	47913.11
606.12	48088.65
606.27	48186.95
606.43	47814.80
606.58	47901.40
606.74	48303.98
606.89	48247.80
607.05	48245.46
607.20	48439.73
607.36	48275.89
607.51	47917.79
607.67	48067.58
607.82	47775.02
607.98	48376.53
608.13	48172.91
608.29	48259.51
608.44	48250.14
608.60	47751.61
608.75	48205.67
608.91	47828.85
609.06	47557.35
609.22	48154.18
609.37	47899.06
609.53	48013.75
609.68	47852.25
609.84	47941.19
609.99	47988.00
610.15	48004.39
610.30	48126.10
610.46	47952.90
610.61	47744.59
610.76	48193.97
610.92	47760.97
611.07	47831.19
611.23	47845.23
611.38	47613.52
611.54	47676.71
611.69	47739.91
611.84	47793.74
612.00	48163.54
612.15	47878.00
612.31	47735.23
612.46	47229.67
612.62	47484.79
612.77	47669.69
612.92	47959.92
613.08	47789.06
613.23	47246.05
613.39	47674.37
613.54	47040.09
613.69	47606.50
613.85	47924.81
614.00	47236.69
614.15	47849.91
614.31	47505.85
614.46	47421.59
614.62	47409.89
614.77	47524.58
614.92	47496.49
615.08	47508.19
615.23	47587.77
615.38	47555.00
615.54	47730.54
615.69	47749.27
615.84	46972.21
616.00	47896.72
616.15	47707.14
616.30	47805.44
616.46	47569.05
616.61	47402.87
616.76	47667.35
616.92	47449.68
617.07	47187.54
617.22	47442.66
617.37	47054.13
617.53	47384.15
617.68	47002.64
617.83	47545.64
617.99	47536.28
618.14	47248.39
618.29	46948.81
618.45	46726.46
618.60	47379.46
618.75	46990.94
618.90	46784.97
619.06	47290.52
619.21	47058.81
619.36	47157.11
619.51	47075.19
619.67	46663.26
619.82	46883.27
619.97	47290.52
620.12	47229.67
620.28	46850.50
620.43	47269.46
620.58	47023.70
620.73	47339.68
620.89	46827.10
621.04	47056.47
621.19	47112.64
621.34	47154.77
621.49	46511.13
621.65	46803.69
621.80	47224.99
621.95	46754.54
622.10	47030.72
622.25	46609.43
622.41	46714.75
622.56	46642.20
622.71	46665.60
622.86	46747.52
623.01	46773.27
623.16	46562.62
623.32	46934.76
623.47	46628.15
623.62	46213.88
623.77	46527.51
623.92	46747.52
624.07	46677.30
624.23	46614.11
624.38	46916.04
624.53	46178.77
624.68	45773.86
624.83	46000.89
624.98	46733.48
625.13	45986.85
625.29	46176.43
625.44	46323.88
625.59	46227.92
625.74	46260.69
625.89	46188.13
626.04	46096.85
626.19	46293.46
626.34	45806.62
626.49	45640.45
626.65	45947.06
626.80	45886.20
626.95	45546.82
627.10	45759.81
627.25	46211.54
627.40	46146.00
627.55	45815.99
627.70	45977.48
627.85	46197.49
628.00	46094.51
628.15	46043.02
628.30	45507.04
628.45	45731.73
628.60	45647.47
628.76	45848.75
628.91	45734.07
629.06	45481.29
629.21	44865.73
629.36	45595.98
629.51	45525.76
629.66	45705.98
629.81	45853.44
629.96	45853.44
630.11	45500.01
630.26	45338.52
630.41	45380.65
630.56	45460.23
630.71	45455.54
630.86	45397.03
631.01	44619.97
631.16	45530.44
631.31	45364.26
631.46	45036.59
631.61	45684.92
631.76	45301.07
631.91	45167.66
632.06	45675.55
632.21	45535.12
632.36	45771.52
632.51	44896.16
632.66	45621.72
632.81	45083.40
632.96	45214.47
633.10	44594.23
633.25	44999.14
633.40	45254.26
633.55	45326.81
633.70	45158.30
633.85	44933.60
634.00	44603.59
634.15	44587.21
634.30	44818.92
634.45	44781.47
634.60	44692.53
634.75	44737.00
634.90	44828.28
635.05	45137.23
635.19	44479.54
635.34	44828.28
635.49	44535.71
635.64	44879.77
635.79	44643.38
635.94	44699.55
636.09	44957.01
636.24	44231.44
636.39	44800.19
636.53	44739.34
636.68	44222.08
636.83	43990.37
636.98	44194.00
637.13	44091.01
637.28	44074.63
637.43	43906.11
637.57	44428.05
637.72	44184.63
637.87	44301.66
638.02	44128.46
638.17	44362.51
638.32	44215.06
638.46	43730.57
638.61	44121.44
638.76	44126.12
638.91	43861.64
639.06	44046.54
639.20	43573.75
639.35	43538.65
639.50	43690.78
639.65	44165.91
639.80	43999.73
639.94	43990.37
640.09	44006.75
640.24	44280.60
640.39	43367.79
640.54	43335.02
640.68	44147.18
640.83	43618.22
640.98	43419.28
641.13	43487.15
641.27	43749.29
641.42	43962.28
641.57	43784.40
641.72	43550.35
641.86	43676.74
642.01	43278.85
642.16	43634.61
642.31	42990.96
642.45	43531.62
642.60	42824.78
642.75	43061.18
642.90	43508.22
643.04	43594.82
643.19	43414.60
643.34	43220.33
643.48	43229.69
643.63	43019.05
643.78	43332.68
643.93	43414.60
644.07	43372.47
644.22	43580.78
644.37	43175.86
644.51	43325.66
644.66	42897.34
644.81	43143.09
644.95	43248.42
645.10	42962.87
645.25	42768.61
645.39	43079.90
645.54	42848.19
645.69	42939.47
645.83	42665.63
645.98	42967.55
646.13	42782.65
646.27	42782.65
646.42	42838.83
646.57	42918.40
646.71	42808.40
646.86	42997.98
647.00	42682.01
647.15	42911.38
647.30	42735.84
647.44	42670.31
647.59	42518.17
647.74	42270.08
647.88	42902.02
648.03	42911.38
648.17	43201.61
648.32	42689.03
648.47	42513.49
648.61	42717.12
648.76	42553.28
648.90	42164.75
649.05	42162.41
649.20	42981.60
649.34	42553.28
649.49	42422.21
649.63	42532.22
649.78	42415.19
649.92	42548.60
650.07	43005.00
650.21	42096.88
650.36	42522.85
650.51	42279.44
650.65	42370.72
650.80	42520.51
650.94	42227.95
651.09	42506.47
651.23	41778.56
651.38	41560.89
651.52	41808.99
651.67	41907.29
651.81	42045.38
651.96	41823.03
652.10	41221.52
652.25	41764.52
652.39	41968.15
652.54	42286.46
652.68	41722.39
652.83	42279.44
652.97	41715.37
653.12	41816.01
653.26	41478.97
653.41	41710.69
653.55	41968.15
653.70	41610.04
653.84	41872.18
653.99	42295.82
654.13	41649.83
654.27	41434.50
654.42	41144.28
654.56	41560.89
654.71	41750.48
654.85	41727.07
655.00	41881.55
655.14	41340.88
655.29	41837.08
655.43	41441.53
655.57	41420.46
655.72	41251.94
655.86	41230.88
656.01	41017.89
656.15	41027.25
656.30	41338.54
656.44	41060.02
656.58	41450.89
656.73	41167.68
656.87	40889.16
657.01	40980.44
657.16	41036.61
657.30	41130.23
657.45	41179.39
657.59	40470.20
657.73	40641.06
657.88	40474.88
658.02	40882.14
658.16	41134.92
658.31	40641.06
658.45	41008.53
658.60	40458.50
658.74	41120.87
658.88	40561.48
659.03	40428.07
659.17	39896.77
659.31	40456.16
659.46	40533.40
659.60	40629.36
659.74	40062.95
659.89	40343.81
660.03	39964.65
660.17	40739.36
660.32	40294.66
660.46	40133.17
660.60	39594.84
660.74	40105.08
660.89	40240.83
661.03	39786.77
661.17	39667.40
661.32	39952.94
661.46	40201.04
661.60	39739.96
661.74	39777.40
661.89	39674.42
662.03	39864.00
662.17	39765.70
662.31	39463.77
662.46	39669.74
662.60	39438.03
662.74	38775.66
662.88	38890.34
663.03	38773.31
663.17	38778.00
663.31	38927.79
663.45	38948.85
663.60	39274.19
663.74	38799.06
663.88	39463.77
664.02	38738.21
664.17	39091.63
664.31	38637.56
664.45	38546.28
664.59	38829.49
664.73	38408.19
664.88	38794.38
665.02	38611.82
665.16	38162.43
665.30	38363.72
665.44	38256.06
665.59	37703.69
665.73	38321.59
665.87	37710.71
666.01	38190.52
666.15	38412.87
666.29	37902.64
666.44	38022.00
666.58	38092.22
666.72	37787.95
666.86	37766.88
667.00	37900.29
667.14	37872.21
667.28	37785.61
667.43	37677.94
667.57	37846.46
667.71	38124.99
667.85	37780.93
667.99	37247.29
668.13	37397.08
668.27	37383.04
668.41	36994.51
668.56	36552.15
668.70	36994.51
668.84	36484.27
668.98	36547.47
669.12	36776.84
669.26	36376.61
669.40	36943.02
669.54	36821.31
669.68	36577.89
669.82	36472.57
669.96	36556.83
670.10	36236.17
670.25	36402.35
670.39	36116.81
670.53	36400.01
670.67	36048.93
670.81	36755.77
670.95	36318.09
671.09	35882.75
671.23	35725.94
671.37	35735.30
671.51	35941.27
671.65	35786.79
671.79	35461.46
671.93	35718.92
672.07	35456.78
672.21	35754.02
672.35	35182.93
672.49	35503.59
672.63	35299.96
672.77	35262.51
672.91	35580.82
673.05	34993.35
673.19	34941.86
673.33	34511.20
673.47	34983.99
673.61	34567.37
673.75	34981.65
673.89	34862.28
674.03	34164.80
674.17	34054.79
674.31	34045.43
674.45	34235.02
674.59	33965.85
674.73	34096.92
674.87	33647.54
675.01	33539.88
675.15	33172.41
675.29	33720.10
675.43	33301.14
675.56	33741.16
675.70	33415.83
675.84	33015.60
675.98	32243.22
676.12	33619.46
676.26	33415.83
676.40	33200.50
676.54	32793.25
676.68	32606.00
676.82	31896.82
676.96	32662.18
677.10	32840.06
677.23	32872.82
677.37	32631.75
677.51	32264.28
677.65	32154.28
677.79	32144.92
677.93	31929.59
678.07	32205.77
678.21	32002.14
678.34	31639.36
678.48	31346.79
678.62	31512.97
678.76	31227.43
678.90	31573.83
679.04	31578.51
679.18	31566.81
679.31	30775.70
679.45	31054.23
679.59	30930.18
679.73	30595.48
679.87	30583.78
680.00	30457.39
680.14	30455.05
680.28	30518.25
680.42	30558.03
680.56	30522.93
680.70	30265.47
680.83	29713.10
680.97	29670.97
681.11	29649.91
681.25	29823.11
681.39	29366.70
681.52	29563.31
681.66	28931.36
681.80	28973.49
681.94	28388.36
682.07	28982.85
682.21	29275.42
682.35	28795.61
682.49	28631.77
682.62	28905.62
682.76	28861.15
682.90	28584.96
683.04	28299.42
683.17	27941.32
683.31	28020.89
683.45	28416.44
683.59	27660.45
683.72	27770.46
683.86	27641.73
684.00	27768.12
684.13	27461.51
684.27	27725.99
684.41	27417.04
684.55	27346.82
684.68	26991.06
684.82	26843.60
684.96	27257.88
685.09	27103.40
685.23	26941.91
685.37	27023.83
685.50	26895.10
685.64	26892.76
685.78	26356.77
685.91	26263.15
686.05	26024.42
686.19	25663.97
686.32	26192.94
686.46	25860.58
686.60	25340.98
686.73	26103.99
686.87	25528.22
687.01	25586.74
687.14	25628.87
687.28	25212.25
687.42	25432.26
687.55	24933.73
687.69	24891.60
687.82	25104.59
687.96	24819.04
688.10	25345.66
688.23	24685.63
688.37	25076.50
688.50	24861.17
688.64	24816.70
688.78	24357.96
688.91	24535.84
689.05	24320.51
689.18	24198.80
689.32	23793.89
689.46	23550.47
689.59	23494.30
689.73	23859.42
689.86	24070.07
690.00	23651.11
690.13	23709.63
690.27	23353.87
690.41	23433.44
690.54	23583.24
690.68	23250.88
690.81	23164.28
690.95	22857.67
691.08	22476.16
691.22	22611.92
691.35	22569.79
691.49	22822.56
691.62	22670.43
691.76	22237.43
691.89	22040.82
692.03	21916.78
692.16	21771.66
692.30	21982.31
692.43	21893.37
692.57	21687.40
692.70	21565.70
692.84	21591.44
692.97	21336.32
693.11	21436.97
693.24	21156.10
693.38	20996.95
693.51	21125.68
693.65	21032.05
693.78	21069.50
693.92	20922.05
694.05	20725.44
694.19	20851.83
694.32	20751.19
694.45	20823.75
694.59	20622.46
694.72	20409.47
694.86	20416.49
694.99	19988.18
695.13	20208.19
695.26	19960.09
695.39	19859.45
695.53	19681.56
695.66	19499.00
695.80	19653.48
695.93	19290.70
696.07	19452.19
696.20	19122.18
696.33	18991.11
696.47	19094.09
696.60	19129.20
696.73	18920.89
696.87	19365.59
697.00	18686.84
697.14	18537.04
697.27	18466.83
697.40	18719.60
697.54	18450.44
697.67	18420.02
697.80	18258.52
697.94	18293.63
698.07	18579.17
698.21	17895.74
698.34	18087.66
698.47	17902.76
698.61	17322.30
698.74	17783.39
698.87	17579.76
699.01	17582.10
699.14	17664.02
699.27	17514.23
699.40	17359.75
699.54	17252.09
699.67	17584.44
699.80	17216.98
699.94	16915.05
700.07	17139.74
700.20	16681.00
700.34	16758.24
700.47	17137.40
700.60	17076.55
700.73	16695.04
700.87	16503.12
701.00	16533.54
701.13	16187.14
701.26	15915.64
701.40	16093.52
701.53	16032.67
701.66	16194.17
701.79	15873.51
701.93	15700.31
702.06	15452.22
702.19	15644.14
702.32	15321.15
702.46	15597.33
702.59	15686.27
702.72	15686.27
702.85	15557.54
702.99	15609.03
703.12	15372.64
703.25	15288.38
703.38	15213.48
703.51	14923.26
703.65	14691.54
703.78	14642.39
703.91	14689.20
704.04	14501.96
704.17	14530.05
704.31	14473.87
704.44	14333.44
704.57	14427.06
704.70	14092.37
704.83	14050.24
704.96	14134.50
705.10	14005.77
705.23	13996.40
>>>>>End Processed Spectral Data<<<<<
