SpectraSuite Data File
++++++++++++++++++++++++++++++++++++
Date: Fri Oct 25 10:47:00 EDT 2013
User: price-jones
Dark Spectrum Present: No
Reference Spectrum Present: No
Number of Sampled Component Spectra: 1
Spectrometers: USB2+H05261
Integration Time (usec): 100000 (USB2+H05261)
Spectra Averaged: 1 (USB2+H05261)
Boxcar Smoothing: 0 (USB2+H05261)
Correct for Electrical Dark: No (USB2+H05261)
Strobe/Lamp Enabled: No (USB2+H05261)
Correct for Detector Non-linearity: No (USB2+H05261)
Correct for Stray Light: No (USB2+H05261)
Number of Pixels in Processed Spectrum: 2048
>>>>>Begin Processed Spectral Data<<<<<
365.73	170.86
365.92	170.86
366.12	170.86
366.32	65.54
366.52	32.77
366.72	91.28
366.91	65.54
367.11	63.19
367.31	56.17
367.51	70.22
367.70	14.04
367.90	86.60
368.10	70.22
368.30	53.83
368.49	88.94
368.69	107.66
368.89	23.41
369.09	51.49
369.28	51.49
369.48	2.34
369.68	98.30
369.87	28.09
370.07	119.37
370.27	154.48
370.47	149.79
370.66	440.02
370.86	360.44
371.06	435.34
371.25	486.83
371.45	435.34
371.65	500.87
371.84	428.32
372.04	386.19
372.24	477.47
372.44	458.74
372.63	528.96
372.83	596.84
373.03	425.98
373.22	444.70
373.42	486.83
373.62	507.90
373.81	578.11
374.01	653.01
374.21	535.98
374.40	507.90
374.60	582.79
374.79	528.96
374.99	564.07
375.19	629.60
375.38	564.07
375.58	610.88
375.78	517.26
375.97	641.31
376.17	667.05
376.37	573.43
376.56	645.99
376.76	582.79
376.95	575.77
377.15	636.63
377.35	601.52
377.54	650.67
377.74	538.32
377.93	582.79
378.13	636.63
378.33	641.31
378.52	557.05
378.72	648.33
378.91	692.80
379.11	702.16
379.31	655.35
379.50	653.01
379.70	697.48
379.89	615.56
380.09	676.41
380.28	631.94
380.48	667.05
380.68	671.73
380.87	739.61
381.07	688.12
381.26	723.23
381.46	690.46
381.65	709.18
381.85	596.84
382.04	631.94
382.24	711.52
382.43	643.65
382.63	601.52
382.83	795.78
383.02	678.76
383.22	704.50
383.41	650.67
383.61	772.38
383.80	781.74
384.00	767.70
384.19	758.33
384.39	791.10
384.58	755.99
384.78	725.57
384.97	763.01
385.17	791.10
385.36	777.06
385.56	716.20
385.75	802.80
385.95	770.04
386.14	763.01
386.34	830.89
386.53	868.34
386.72	732.59
386.92	856.64
387.11	793.44
387.31	868.34
387.50	844.93
387.70	875.36
387.89	903.45
388.09	877.70
388.28	823.87
388.48	903.45
388.67	966.64
388.86	851.96
389.06	997.07
389.25	877.70
389.45	992.39
389.64	929.19
389.84	945.58
390.03	1046.22
390.22	978.34
390.42	896.43
390.61	994.73
390.81	973.66
391.00	961.96
391.19	997.07
391.39	999.41
391.58	1046.22
391.78	959.62
391.97	1053.24
392.16	983.02
392.36	1074.31
392.55	1025.15
392.75	1039.20
392.94	971.32
393.13	1011.11
393.33	1020.47
393.52	1029.84
393.71	950.26
393.91	1095.37
394.10	1027.50
394.29	1071.97
394.49	1069.62
394.68	1144.52
394.88	1135.16
395.07	1118.78
395.26	1100.05
395.46	1160.91
395.65	1205.38
395.84	1076.65
396.04	1270.91
396.23	1156.22
396.42	1114.10
396.62	1137.50
396.81	1228.78
397.00	1179.63
397.19	1226.44
397.39	1217.08
397.58	1282.61
397.77	1306.02
397.97	1291.98
398.16	1341.13
398.35	1317.72
398.55	1355.17
398.74	1397.30
398.93	1465.18
399.12	1486.24
399.32	1441.77
399.51	1439.43
399.70	1493.26
399.90	1460.49
400.09	1366.87
400.28	1462.83
400.47	1500.28
400.67	1605.61
400.86	1523.69
401.05	1593.90
401.24	1556.46
401.44	1593.90
401.63	1614.97
401.82	1528.37
402.01	1500.28
402.21	1640.72
402.40	1640.72
402.59	1603.27
402.78	1586.88
402.97	1603.27
403.17	1593.90
403.36	1582.20
403.55	1748.38
403.74	1734.34
403.93	1685.19
404.13	1722.63
404.32	1584.54
404.51	1790.51
404.70	1755.40
404.89	1603.27
405.09	1788.17
405.28	1825.62
405.47	1781.15
405.66	1907.54
405.85	1912.22
406.05	1785.83
406.24	1799.87
406.43	1935.62
406.62	1987.11
406.81	1998.82
407.00	1973.07
407.20	1790.51
407.39	1900.52
407.58	2022.22
407.77	2045.63
407.96	1942.64
408.15	2120.53
408.34	2080.74
408.54	2050.31
408.73	2017.54
408.92	2160.31
409.11	2092.44
409.30	2179.04
409.49	2129.89
409.68	2106.48
409.87	2064.35
410.07	2300.75
410.26	2216.49
410.45	2172.02
410.64	2253.94
410.83	2150.95
411.02	2373.30
411.21	2303.09
411.40	2298.41
411.59	2380.32
411.78	2396.71
411.98	2340.54
412.17	2401.39
412.36	2593.31
412.55	2607.36
412.74	2511.39
412.93	2466.92
413.12	2590.97
413.31	2696.30
413.50	2712.68
413.69	2553.52
413.88	2750.13
414.07	2736.09
414.26	2750.13
414.45	2754.81
414.64	2710.34
414.83	2867.16
415.02	2764.17
415.22	2958.44
415.41	2937.37
415.60	2930.35
415.79	2822.69
415.98	3070.78
416.17	2904.60
416.36	3042.70
416.55	3049.72
416.74	3056.74
416.93	3035.67
417.12	3117.59
417.31	3211.22
417.50	3084.83
417.69	3227.60
417.88	3241.64
418.07	3155.04
418.26	3159.72
418.45	3288.45
418.64	3353.99
418.83	3375.05
419.02	3220.58
419.21	3550.59
419.39	3290.79
419.58	3246.32
419.77	3307.18
419.96	3368.03
420.15	3524.85
420.34	3492.08
420.53	3445.27
420.72	3529.53
420.91	3581.02
421.10	3583.36
421.29	3707.41
421.48	3433.57
421.67	3529.53
421.86	3517.83
422.05	3630.17
422.24	3489.74
422.43	3562.30
422.61	3541.23
422.80	3599.74
422.99	3618.47
423.18	3700.39
423.37	3562.30
423.56	3599.74
423.75	3655.92
423.94	3634.85
424.13	3417.18
424.32	3641.87
424.50	3684.00
424.69	3768.26
424.88	3669.96
425.07	3784.65
425.26	3758.90
425.45	3695.71
425.64	3733.15
425.83	3613.79
426.01	3639.53
426.20	3756.56
426.39	3709.75
426.58	3695.71
426.77	3681.66
426.96	3712.09
427.15	3693.37
427.33	3794.01
427.52	3899.33
427.71	3866.56
427.90	3918.06
428.09	3812.73
428.28	3962.53
428.46	3974.23
428.65	4028.06
428.84	4016.36
429.03	4035.08
429.22	3939.12
429.40	3899.33
429.59	4044.45
429.78	3789.33
429.97	3826.78
430.16	3899.33
430.34	3920.40
430.53	4067.85
430.72	4063.17
430.91	3999.98
431.10	4093.60
431.28	4191.90
431.47	4285.52
431.66	4315.95
431.85	4170.83
432.03	4320.63
432.22	4383.82
432.41	4475.10
432.60	4325.31
432.79	4383.82
432.97	4510.21
433.16	4468.08
433.35	4425.95
433.54	4346.37
433.72	4362.76
433.91	4400.21
434.10	4432.97
434.28	4594.47
434.47	4557.02
434.66	4753.63
434.85	4585.11
435.03	4664.69
435.22	4718.52
435.41	4812.14
435.59	4807.46
435.78	4910.44
435.97	4748.95
436.16	4755.97
436.34	4748.95
436.53	4706.82
436.72	4826.18
436.90	4744.27
437.09	5008.75
437.28	4828.53
437.46	4889.38
437.65	4901.08
437.84	4891.72
438.02	4828.53
438.21	4828.53
438.40	4896.40
438.58	5076.62
438.77	5064.92
438.96	5111.73
439.14	5151.52
439.33	5210.03
439.52	5245.14
439.70	5345.78
439.89	5214.71
440.08	5301.31
440.26	5446.43
440.45	5327.06
440.63	5500.26
440.82	5668.78
441.01	5493.24
441.19	5589.20
441.38	5757.72
441.57	5572.82
441.75	5750.70
441.94	5865.38
442.12	5820.91
442.31	5984.75
442.50	6019.86
442.68	6043.26
442.87	6050.28
443.05	5923.90
443.24	5987.09
443.43	6155.61
443.61	6008.16
443.80	6080.71
443.98	6008.16
444.17	5891.13
444.35	6043.26
444.54	6293.70
444.73	6246.89
444.91	6090.07
445.10	5996.45
445.28	6026.88
445.47	6066.67
445.65	5907.51
445.84	6193.06
446.02	6300.72
446.21	6113.48
446.39	6113.48
446.58	6244.55
446.77	6174.33
446.95	6141.57
447.14	6349.87
447.32	6380.30
447.51	6263.27
447.69	6333.49
447.88	6108.80
448.06	6284.34
448.25	6171.99
448.43	6445.84
448.62	6277.32
448.80	6129.86
448.99	6366.26
449.17	6502.01
449.36	6202.42
449.54	6656.48
449.73	6548.82
449.91	6541.80
450.10	6637.76
450.28	6626.06
450.46	6551.16
450.65	6672.87
450.83	6773.51
451.02	6647.12
451.20	6864.79
451.39	6644.78
451.57	6658.82
451.76	6647.12
451.94	6822.66
452.13	6867.13
452.31	6799.26
452.49	6747.76
452.68	6920.96
452.86	6616.69
453.05	6881.18
453.23	7070.76
453.42	6853.09
453.60	6890.54
453.78	6960.75
453.97	6869.47
454.15	6883.52
454.34	6944.37
454.52	7101.19
454.70	7002.88
454.89	6913.94
455.07	7166.72
455.26	7229.91
455.44	7382.05
455.62	7077.78
455.81	7269.70
455.99	7318.86
456.17	7375.03
456.36	7335.24
456.54	7538.87
456.73	7332.90
456.91	7623.12
457.09	7571.63
457.28	7866.54
457.46	7492.05
457.64	7482.69
457.83	7602.06
458.01	7391.41
458.19	7901.65
458.38	7545.89
458.56	7723.77
458.74	7702.70
458.93	7651.21
459.11	7721.43
459.29	7915.69
459.48	7777.60
459.66	7887.61
459.84	8032.72
460.03	7955.48
460.21	7882.92
460.39	7981.23
460.57	8028.04
460.76	8152.09
460.94	8086.55
461.12	7948.46
461.31	8292.52
461.49	8147.40
461.67	8283.16
461.85	8170.81
462.04	8259.75
462.22	8746.58
462.40	8271.45
462.59	8135.70
462.77	8393.16
462.95	8245.71
463.13	8456.36
463.32	8299.54
463.50	8432.95
463.68	8461.04
463.86	8477.42
464.05	8475.08
464.23	8355.71
464.41	8601.47
464.59	8290.18
464.78	8603.81
464.96	8336.99
465.14	8442.31
465.32	8667.00
465.50	8784.03
465.69	8910.42
465.87	8475.08
466.05	8767.65
466.23	8610.83
466.41	8475.08
466.60	8879.99
466.78	8620.19
466.96	8690.41
467.14	8870.63
467.32	8872.97
467.51	8926.80
467.69	8664.66
467.87	8744.24
468.05	9067.24
468.23	8917.44
468.41	8903.40
468.60	8891.70
468.78	9184.26
468.96	8964.25
469.14	9128.09
469.32	9242.78
469.50	8905.74
469.69	9177.24
469.87	9303.63
470.05	9226.39
470.23	9245.12
470.41	9210.01
470.59	9533.00
470.77	9327.03
470.95	9682.80
471.14	9614.92
471.32	9441.72
471.50	9586.83
471.68	9685.14
471.86	9551.73
472.04	9806.84
472.22	9919.19
472.40	9469.81
472.58	9722.59
472.77	9839.61
472.95	10040.90
473.13	10333.47
473.31	9961.32
473.49	10068.98
473.67	10104.09
473.85	10239.84
474.03	10349.85
474.21	10399.00
474.39	10382.62
474.57	10256.23
474.75	10340.49
474.93	10532.41
475.12	10569.86
475.30	10757.10
475.48	10483.26
475.66	10516.03
475.84	10649.44
476.02	10703.27
476.20	10789.87
476.38	11183.08
476.56	11257.98
476.74	11070.73
476.92	11112.86
477.10	11250.96
477.28	11330.53
477.46	11290.74
477.64	11468.62
477.82	11712.04
478.00	11983.54
478.18	11698.00
478.36	11772.89
478.54	12217.60
478.72	12123.98
478.90	12187.17
479.08	12306.54
479.26	12519.53
479.44	12589.74
479.62	12505.48
479.80	12500.80
479.98	12734.85
480.16	12870.61
480.34	12805.07
480.52	13107.00
480.70	12924.44
480.88	12992.31
481.06	13174.88
481.24	13055.51
481.41	13582.13
481.59	13532.98
481.77	13514.25
481.95	13621.92
482.13	13745.97
482.31	13589.15
482.49	13874.70
482.67	14071.30
482.85	14064.28
483.03	14511.32
483.21	14630.69
483.39	14427.06
483.57	14516.00
483.74	14691.54
483.92	14963.04
484.10	14738.35
484.28	15091.77
484.46	14960.70
484.64	15555.20
484.82	15054.33
485.00	15477.96
485.18	15707.34
485.35	15674.57
485.53	15616.05
485.71	15431.15
485.89	15927.35
486.07	15721.38
486.25	16037.35
486.43	16053.73
486.61	16390.77
486.78	16170.76
486.96	16648.23
487.14	16847.18
487.32	16767.60
487.50	17139.74
487.68	17219.32
487.85	17439.33
488.03	17493.16
488.21	17776.37
488.39	17694.45
488.57	17902.76
488.75	18017.44
488.92	18162.56
489.10	18251.50
489.28	18380.23
489.46	18733.65
489.64	18520.66
489.81	19323.46
489.99	19360.91
490.17	19075.37
490.35	19337.51
490.53	19396.02
490.70	19445.17
490.88	19601.99
491.06	19690.93
491.24	20002.22
491.41	20060.73
491.59	19749.44
491.77	19763.48
491.95	20147.33
492.13	20657.57
492.30	20465.64
492.48	20575.65
492.66	20439.90
492.84	20826.09
493.01	20952.48
493.19	21003.97
493.37	20931.41
493.54	21095.25
493.72	21661.66
493.90	21530.59
494.08	21785.71
494.25	21750.60
494.43	22080.61
494.61	22230.41
494.79	22368.50
494.96	22015.08
495.14	22677.45
495.32	22548.72
495.49	22492.55
495.67	22771.07
495.85	22878.74
496.02	22883.42
496.20	23061.30
496.38	23187.69
496.55	23487.28
496.73	23854.74
496.91	23515.36
497.09	23908.57
497.26	23924.96
497.44	24098.16
497.62	23845.38
497.79	24339.23
497.97	23988.15
498.14	24526.47
498.32	24531.15
498.50	24694.99
498.67	24631.80
498.85	24753.51
499.03	25261.40
499.20	25296.51
499.38	25319.92
499.56	25223.95
499.73	25446.30
499.91	25198.21
500.08	25467.37
500.26	25525.88
500.44	25603.12
500.61	25490.77
500.79	25539.93
500.97	25525.88
501.14	25940.16
501.32	26249.11
501.49	26331.03
501.67	26096.97
501.84	26192.94
502.02	26370.82
502.20	26368.48
502.37	26859.99
502.55	26803.82
502.72	26869.35
502.90	26735.94
503.07	26768.71
503.25	26995.74
503.43	26740.62
503.60	27342.14
503.78	27063.61
503.95	26923.18
504.13	27632.36
504.30	27211.07
504.48	27300.01
504.65	27555.13
504.83	27953.02
505.01	27594.92
505.18	27763.43
505.36	28109.83
505.53	28442.19
505.71	28517.09
505.88	28657.52
506.06	28292.40
506.23	28336.87
506.41	28414.10
506.58	28577.94
506.76	28638.80
506.93	28751.14
507.11	28549.85
507.28	29104.56
507.46	28561.56
507.63	28638.80
507.81	28854.12
507.98	29247.33
508.16	29027.32
508.33	29254.36
508.50	29483.73
508.68	29462.66
508.85	29619.48
509.03	29591.39
509.20	30125.04
509.38	29986.94
509.55	29958.86
509.73	30101.63
509.90	30061.84
510.08	30125.04
510.25	30115.67
510.42	30391.86
510.60	30588.46
510.77	30700.81
510.95	30904.43
511.12	30408.24
511.30	30785.07
511.47	31012.10
511.64	31051.89
511.82	31019.12
511.99	30803.79
512.17	31166.57
512.34	30937.20
512.51	31468.50
512.69	31445.10
512.86	31669.79
513.04	31828.95
513.21	31608.93
513.38	31208.70
513.56	31913.20
513.73	31632.34
513.90	31873.42
514.08	31889.80
514.25	32458.55
514.43	32030.23
514.60	32173.00
514.77	32240.88
514.95	32301.73
515.12	32730.05
515.29	32198.75
515.47	32355.57
515.64	32664.52
515.81	32727.71
515.99	32659.84
516.16	32561.53
516.33	32304.07
516.51	32835.38
516.68	32041.93
516.85	31749.37
517.03	32620.05
517.20	33134.96
517.37	33113.90
517.54	33319.87
517.72	33226.24
517.89	33146.67
518.06	33041.34
518.24	32662.18
518.41	33064.75
518.58	33514.13
518.75	33741.16
518.93	33436.89
519.10	33783.29
519.27	33785.63
519.45	34192.89
519.62	34174.16
519.79	34047.77
519.96	34345.02
520.14	34335.66
520.31	34066.50
520.48	34122.67
520.65	34164.80
520.83	34597.80
521.00	34515.88
521.17	34995.69
521.34	34644.61
521.52	34953.56
521.69	35002.71
521.86	35351.45
522.03	35077.61
522.20	35295.28
522.38	35229.74
522.55	34878.66
522.72	35016.75
522.89	35143.14
523.07	35276.55
523.24	35356.13
523.41	35449.75
523.58	35463.80
523.75	35978.72
523.92	36013.82
524.10	35976.37
524.27	36336.82
524.44	36102.76
524.61	36055.95
524.78	36266.60
524.96	36107.44
525.13	36137.87
525.30	36500.65
525.47	36680.88
525.64	36570.87
525.81	36620.02
525.98	36350.86
526.16	36318.09
526.33	36596.62
526.50	36584.91
526.67	36278.30
526.84	36481.93
527.01	36048.93
527.18	36708.96
527.36	36779.18
527.53	37036.64
527.70	37085.79
527.87	37216.86
528.04	37172.39
528.21	37116.22
528.38	37296.44
528.55	37338.57
528.72	37249.63
528.89	37577.30
529.07	37345.59
529.24	37558.58
529.41	37759.86
529.58	37528.15
529.75	37731.78
529.92	37809.01
530.09	38000.94
530.26	37846.46
530.43	37673.26
530.60	37415.80
530.77	37495.38
530.94	38216.27
531.11	38127.33
531.28	38045.41
531.46	38206.90
531.63	38539.26
531.80	38204.56
531.97	38335.63
532.14	38431.60
532.31	38473.73
532.48	38146.05
532.65	38696.08
532.82	38445.64
532.99	38309.89
533.16	38370.74
533.33	38761.61
533.50	39239.08
533.67	38843.53
533.84	38806.08
534.01	38621.18
534.18	38590.75
534.35	39108.01
534.52	39143.12
534.69	39285.89
534.86	39269.51
535.03	38862.26
535.20	39236.74
535.37	39772.72
535.54	39615.91
535.71	39721.23
535.88	39416.96
536.05	39899.11
536.22	39489.52
536.38	39332.70
536.55	39438.03
536.72	39789.11
536.89	39754.00
537.06	39662.72
537.23	40055.93
537.40	39744.64
537.57	39992.73
537.74	39924.86
537.91	40428.07
538.08	39969.33
538.25	39793.79
538.42	39641.65
538.59	40273.60
538.75	40245.51
538.92	40102.74
539.09	40224.45
539.26	40320.41
539.43	40170.61
539.60	40662.13
539.77	40126.14
539.94	40645.74
540.11	39920.18
540.28	40594.25
540.44	40610.64
540.61	40603.61
540.78	40140.19
540.95	40680.85
541.12	40542.76
541.29	40348.50
541.46	40315.73
541.62	40648.08
541.79	41076.40
541.96	40610.64
542.13	40914.90
542.30	40568.51
542.47	40720.64
542.63	40790.86
542.80	41120.87
542.97	41493.02
543.14	41493.02
543.31	41322.16
543.48	41478.97
543.64	42038.36
543.81	41998.57
543.98	41493.02
544.15	41549.19
544.32	42169.43
544.48	41928.36
544.65	41879.21
544.82	41902.61
544.99	41607.70
545.16	41312.80
545.32	41413.44
545.49	41970.49
545.66	41851.12
545.83	41968.15
546.00	42234.97
546.16	42204.54
546.33	42012.62
546.50	42019.64
546.67	42031.34
546.83	41661.54
547.00	42241.99
547.17	42043.04
547.34	42253.69
547.50	42225.60
547.67	42344.97
547.84	42878.61
548.00	42918.40
548.17	42646.90
548.34	42557.96
548.51	43117.35
548.67	42707.76
548.84	42476.04
549.01	42792.01
549.18	42534.56
549.34	42866.91
549.51	42969.90
549.68	42586.05
549.84	42831.80
550.01	43171.18
550.18	42667.97
550.34	43021.39
550.51	42857.55
550.68	42824.78
550.84	42663.28
551.01	42817.76
551.18	42714.78
551.34	43159.48
551.51	43093.94
551.68	43377.15
551.84	42955.85
552.01	42852.87
552.18	43203.95
552.34	42689.03
552.51	43363.11
552.68	43367.79
552.84	43552.69
553.01	43758.66
553.18	43700.14
553.34	43789.08
553.51	43309.27
553.67	43533.96
553.84	43688.44
554.01	43625.25
554.17	43955.26
554.34	44011.43
554.51	43894.41
554.67	44025.48
554.84	43620.56
555.00	43852.28
555.17	43826.53
555.33	43690.78
555.50	43920.15
555.67	43288.21
555.83	43908.45
556.00	43718.87
556.16	44002.07
556.33	43952.92
556.50	43922.49
556.66	44296.98
556.83	43709.50
556.99	44083.99
557.16	44397.62
557.32	43711.84
557.49	44369.54
557.65	43552.69
557.82	43716.53
557.98	44062.93
558.15	44355.49
558.32	44484.22
558.48	44144.84
558.65	44390.60
558.81	43833.55
558.98	44034.84
559.14	44308.68
559.31	43775.04
559.47	44182.29
559.64	44619.97
559.80	44421.03
559.97	44194.00
560.13	44121.44
560.30	44172.93
560.46	44442.09
560.63	44142.50
560.79	44392.94
560.96	44336.77
561.12	44418.69
561.29	44404.64
561.45	44493.58
561.61	44465.50
561.78	44729.98
561.94	44519.33
562.11	44643.38
562.27	44500.61
562.44	44500.61
562.60	44870.41
562.77	44903.18
562.93	44577.84
563.10	45242.56
563.26	44257.19
563.42	44727.64
563.59	44566.14
563.75	44531.03
563.92	45062.33
564.08	44737.00
564.24	44802.53
564.41	44957.01
564.57	44898.50
564.74	44713.59
564.90	44896.16
565.07	45244.90
565.23	44591.89
565.39	44608.27
565.56	44842.32
565.72	45074.04
565.88	44942.97
566.05	44774.45
566.21	44924.24
566.38	44989.78
566.54	45191.06
566.70	44891.48
566.87	45481.29
567.03	45420.44
567.19	45865.14
567.36	45141.91
567.52	44875.09
567.68	45390.01
567.85	44924.24
568.01	44968.71
568.17	44952.33
568.34	44966.37
568.50	45034.25
568.66	44919.56
568.83	45579.59
568.99	45106.80
569.15	44889.13
569.32	45113.83
569.48	45319.79
569.64	45226.17
569.81	45221.49
569.97	45045.95
570.13	45024.89
570.30	44807.22
570.46	45230.85
570.62	44786.15
570.78	44823.60
570.95	45162.98
571.11	45399.37
571.27	44971.05
571.43	44903.18
571.60	45209.79
571.76	44818.92
571.92	45050.63
572.09	44910.20
572.25	44942.97
572.41	45280.00
572.57	45530.44
572.74	45759.81
572.90	45497.67
573.06	45064.67
573.22	45298.73
573.38	45139.57
573.55	44907.86
573.71	45572.57
573.87	45642.79
574.03	44786.15
574.20	44973.39
574.36	45074.04
574.52	45277.66
574.68	45282.34
574.84	45701.30
575.01	45230.85
575.17	45251.92
575.33	44980.42
575.49	45235.53
575.65	45340.86
575.82	45897.91
575.98	45413.41
576.14	45645.13
576.30	45439.16
576.46	45020.20
576.62	45170.00
576.79	45518.74
576.95	45155.96
577.11	45303.41
577.27	44861.05
577.43	45312.77
577.59	45546.82
577.75	45560.87
577.92	44933.60
578.08	45137.23
578.24	44996.80
578.40	45605.34
578.56	44992.12
578.72	45078.72
578.88	45565.55
579.04	45184.04
579.21	45284.68
579.37	44907.86
579.53	45373.63
579.69	44755.72
579.85	45406.39
580.01	45413.41
580.17	45422.78
580.33	45432.14
580.49	45879.18
580.65	45787.90
580.82	45619.38
580.98	45626.40
581.14	45244.90
581.30	45474.27
581.46	45401.71
581.62	45139.57
581.78	45422.78
581.94	46059.40
582.10	45675.55
582.26	46164.73
582.42	45432.14
582.58	45432.14
582.74	45350.22
582.90	45530.44
583.06	45614.70
583.22	45818.33
583.38	45893.22
583.54	45546.82
583.70	45830.03
583.86	45567.89
584.02	45195.74
584.18	45385.33
584.34	45230.85
584.50	45429.80
584.66	45294.05
584.82	45247.24
584.98	46248.99
585.14	45893.22
585.30	45457.88
585.46	45823.01
585.62	45610.02
585.78	45787.90
585.94	45296.39
586.10	45270.64
586.26	45317.45
586.42	45684.92
586.58	45708.32
586.74	45907.27
586.90	45270.64
587.06	45111.49
587.22	45521.08
587.38	45244.90
587.54	45998.55
587.70	46136.64
587.86	45830.03
588.02	45591.30
588.18	45818.33
588.34	45790.24
588.49	45207.45
588.65	45298.73
588.81	45490.65
588.97	45291.71
589.13	45160.64
589.29	45308.09
589.45	45588.95
589.61	45890.88
589.77	46157.70
589.93	45895.56
590.08	45893.22
590.24	45621.72
590.40	45787.90
590.56	45710.66
590.72	45462.57
590.88	45567.89
591.04	45823.01
591.20	46136.64
591.35	45631.08
591.51	46370.69
591.67	45956.42
591.83	45563.21
591.99	45640.45
592.15	45429.80
592.31	45925.99
592.46	45701.30
592.62	45815.99
592.78	46174.09
592.94	46120.26
593.10	45532.78
593.26	45846.41
593.41	45619.38
593.57	45680.24
593.73	45701.30
593.89	45626.40
594.05	45649.81
594.20	45811.31
594.36	45965.78
594.52	45354.90
594.68	45841.73
594.84	46064.08
594.99	46134.30
595.15	45631.08
595.31	45897.91
595.47	46021.95
595.62	45874.50
595.78	45556.19
595.94	45993.87
596.10	46094.51
596.25	45689.60
596.41	46000.89
596.57	45848.75
596.73	46501.76
596.88	45689.60
597.04	45986.85
597.20	45984.51
597.36	45680.24
597.51	46040.68
597.67	46000.89
597.83	45895.56
597.99	46150.68
598.14	45958.76
598.30	46197.49
598.46	45825.35
598.61	45837.05
598.77	45874.50
598.93	45661.51
599.09	46178.77
599.24	46014.93
599.40	46085.15
599.56	46305.16
599.71	45979.82
599.87	46302.82
600.03	46199.83
600.18	46103.87
600.34	45872.16
600.50	45490.65
600.65	45757.47
600.81	46199.83
600.97	46094.51
601.12	46267.71
601.28	45947.06
601.44	45998.55
601.59	46033.66
601.75	45317.45
601.91	46007.91
602.06	45666.19
602.22	45947.06
602.37	45853.44
602.53	45940.04
602.69	46150.68
602.84	45771.52
603.00	45958.76
603.16	45666.19
603.31	45734.07
603.47	45874.50
603.62	45436.82
603.78	45689.60
603.94	45738.75
604.09	46017.27
604.25	46183.45
604.40	45354.90
604.56	45787.90
604.71	45514.06
604.87	45495.33
605.03	45682.58
605.18	45406.39
605.34	45528.10
605.49	45567.89
605.65	45556.19
605.80	45647.47
605.96	45549.17
606.12	45532.78
606.27	45982.16
606.43	45701.30
606.58	46138.98
606.74	45888.54
606.89	45734.07
607.05	45694.28
607.20	46134.30
607.36	45916.63
607.51	45937.69
607.67	45677.90
607.82	45755.13
607.98	45492.99
608.13	45478.95
608.29	45251.92
608.44	45364.26
608.60	45230.85
608.75	45179.36
608.91	44807.22
609.06	45448.52
609.22	45963.44
609.37	45289.37
609.53	45961.10
609.68	45265.96
609.84	45797.26
609.99	45345.54
610.15	45214.47
610.30	45254.26
610.46	45078.72
610.61	44694.87
610.76	45673.21
610.92	45141.91
611.07	44992.12
611.23	45141.91
611.38	45116.17
611.54	45139.57
611.69	45591.30
611.84	45401.71
612.00	45015.52
612.15	45104.46
612.31	45572.57
612.46	45020.20
612.62	44982.76
612.77	44952.33
612.92	45141.91
613.08	44823.60
613.23	45137.23
613.39	44587.21
613.54	44797.85
613.69	44776.79
613.85	44861.05
614.00	45216.81
614.15	45390.01
614.31	44996.80
614.46	45207.45
614.62	45010.84
614.77	44964.03
614.92	44868.07
615.08	44814.24
615.23	44825.94
615.38	44891.48
615.54	44514.65
615.69	44577.84
615.84	44299.32
616.00	44512.31
616.15	45008.50
616.30	44561.46
616.46	44336.77
616.61	44336.77
616.76	44685.51
616.92	44758.06
617.07	43955.26
617.22	43880.36
617.37	44109.74
617.53	44524.01
617.68	44488.90
617.83	44421.03
617.99	44706.57
618.14	44673.81
618.29	44009.09
618.45	44282.94
618.60	44353.15
618.75	44226.76
618.90	44175.27
619.06	44444.43
619.21	44271.23
619.36	44210.38
619.51	44252.51
619.67	44065.27
619.82	44463.16
619.97	44224.42
620.12	43927.17
620.28	43658.01
620.43	43952.92
620.58	43983.35
620.73	44140.16
620.89	43976.33
621.04	43646.31
621.19	43950.58
621.34	43578.43
621.49	43548.01
621.65	43742.27
621.80	44194.00
621.95	43882.70
622.10	44149.53
622.25	43613.54
622.41	43344.38
622.56	43332.68
622.71	43828.87
622.86	43634.61
623.01	43880.36
623.16	43840.57
623.32	43723.55
623.47	43564.39
623.62	43688.44
623.77	43496.52
623.92	43639.29
624.07	43234.38
624.23	43201.61
624.38	42632.86
624.53	43208.63
624.68	43227.35
624.83	43320.98
624.98	43536.30
625.13	43173.52
625.29	43555.03
625.44	43442.68
625.59	42824.78
625.74	42876.27
625.89	42323.91
626.04	42593.07
626.19	42541.58
626.34	42913.72
626.49	43023.73
626.65	42892.66
626.80	43084.58
626.95	42759.25
627.10	43054.15
627.25	42639.88
627.40	42188.16
627.55	42274.76
627.70	41846.44
627.85	42419.87
628.00	42583.71
628.15	42630.52
628.30	42698.39
628.45	42473.70
628.60	42609.45
628.76	42574.34
628.91	42490.09
629.06	42747.54
629.21	42314.55
629.36	42155.39
629.51	42050.06
629.66	42099.22
629.81	41930.70
629.96	42033.68
630.11	42036.02
630.26	42087.51
630.41	42197.52
630.56	42249.01
630.71	42415.19
630.86	41961.12
631.01	41748.14
631.16	42209.22
631.31	42433.91
631.46	42211.56
631.61	41904.95
631.76	42412.85
631.91	41736.43
632.06	41862.82
632.21	42031.34
632.36	41621.75
632.51	41773.88
632.66	41675.58
632.81	41188.75
632.96	41785.58
633.10	41567.91
633.25	41361.95
633.40	41811.33
633.55	41986.87
633.70	41626.43
633.85	41673.24
634.00	41844.10
634.15	41062.36
634.30	41237.90
634.45	41546.85
634.60	41535.15
634.75	41511.74
634.90	41476.63
635.05	41464.93
635.19	41148.96
635.34	41535.15
635.49	41532.81
635.64	40940.65
635.79	40978.10
635.94	41001.50
636.09	41256.62
636.24	41350.24
636.39	40751.07
636.53	40549.78
636.68	40694.89
636.83	40935.97
636.98	40917.25
637.13	41111.51
637.28	40657.45
637.43	41209.81
637.57	41095.13
637.72	40900.86
637.87	41226.20
638.02	40755.75
638.17	41116.19
638.32	40608.29
638.46	40460.84
638.61	40100.40
638.76	40481.91
638.91	40917.25
639.06	40428.07
639.20	40353.18
639.35	40664.47
639.50	40919.59
639.65	40849.37
639.80	40851.71
639.94	40898.52
640.09	40182.32
640.24	40318.07
640.39	40416.37
640.54	40341.47
640.68	40456.16
640.83	40378.92
640.98	39959.97
641.13	40381.26
641.27	40954.69
641.42	40219.77
641.57	40708.94
641.72	40318.07
641.86	39796.13
642.01	39800.81
642.16	39777.40
642.31	40018.48
642.45	40161.25
642.60	39824.22
642.75	40037.20
642.90	39945.92
643.04	39847.62
643.19	40091.04
643.34	39697.83
643.48	39999.76
643.63	39901.45
643.78	40065.29
643.93	39414.62
644.07	39470.79
644.22	39669.74
644.37	39416.96
644.51	39494.20
644.66	39746.98
644.81	39777.40
644.95	40088.70
645.10	39351.43
645.25	40238.49
645.39	39548.03
645.54	39709.53
645.69	39494.20
645.83	39622.93
645.98	39229.72
646.13	39129.08
646.27	39510.58
646.42	39213.34
646.57	39131.42
646.71	39372.49
646.86	39236.74
647.00	39725.91
647.15	39608.89
647.30	39590.16
647.44	39468.45
647.59	39281.21
647.74	39072.90
647.88	39021.41
648.03	39122.05
648.17	39028.43
648.32	38726.50
648.47	39122.05
648.61	38548.62
648.76	39461.43
648.90	39063.54
649.05	39005.03
649.20	39103.33
649.34	39311.64
649.49	38548.62
649.63	38953.54
649.78	38974.60
649.92	38291.16
650.07	39304.62
650.21	38782.68
650.36	39344.41
650.51	38792.04
650.65	39009.71
650.80	39435.69
650.94	38864.60
651.09	38815.44
651.23	38485.43
651.38	38731.18
651.52	38660.97
651.67	38569.69
651.81	38380.10
651.96	38274.78
652.10	38480.75
652.25	38298.19
652.39	37991.58
652.54	38464.36
652.68	38663.31
652.83	38403.51
652.97	38848.21
653.12	38483.09
653.26	38000.94
653.41	38403.51
653.55	38246.69
653.70	38246.69
653.84	38134.35
653.99	38167.12
654.13	38213.93
654.27	38169.46
654.42	38384.79
654.56	38022.00
654.71	38057.11
654.85	38139.03
655.00	37998.60
655.14	37544.53
655.29	37249.63
655.43	37476.66
655.57	37198.13
655.72	37635.81
655.86	37455.59
656.01	37453.25
656.15	37338.57
656.30	37184.09
656.44	37490.70
656.58	37242.60
656.73	37331.54
656.87	37120.90
657.01	37207.50
657.16	37436.87
657.30	36959.40
657.45	37268.35
657.59	37148.98
657.73	36526.40
657.88	36999.19
658.02	37481.34
658.16	37053.02
658.31	37137.28
658.45	37038.98
658.60	37134.94
658.74	37034.30
658.88	37331.54
659.03	37050.68
659.17	36528.74
659.31	36683.22
659.46	37113.87
659.60	36655.13
659.74	36659.81
659.89	36659.81
660.03	36360.22
660.17	36620.02
660.32	36634.06
660.46	37078.77
660.60	36950.04
660.74	36837.69
660.89	36968.76
661.03	36411.71
661.17	36299.37
661.32	36060.63
661.46	35978.72
661.60	36154.26
661.74	36346.18
661.89	36519.38
662.03	36170.64
662.17	35903.82
662.31	35817.22
662.46	36165.96
662.60	36488.95
662.74	35812.54
662.88	35711.89
663.03	35615.93
663.17	35620.61
663.31	35735.30
663.45	35332.73
663.60	35555.08
663.74	35629.98
663.88	35009.73
664.02	35211.02
664.17	35379.54
664.31	34719.51
664.45	35335.07
664.59	35136.12
664.73	35215.70
664.88	35133.78
665.02	34789.72
665.16	34930.16
665.30	35058.88
665.44	34848.24
665.59	34665.67
665.73	34705.46
665.87	34340.34
666.01	34700.78
666.15	34731.21
666.29	34780.36
666.44	34810.79
666.58	34686.74
666.72	34356.72
666.86	34969.94
667.00	34628.23
667.14	34384.81
667.28	34206.93
667.43	34085.22
667.57	34277.15
667.71	33921.38
667.85	33813.72
667.99	34029.05
668.13	33975.22
668.27	33895.64
668.41	33713.08
668.56	33755.21
668.70	33825.42
668.84	33982.24
668.98	33284.76
669.12	33706.05
669.26	33500.09
669.40	33500.09
669.54	33151.35
669.68	33551.58
669.82	33572.64
669.96	33720.10
670.10	33167.73
670.25	33443.91
670.39	33502.43
670.53	33273.06
670.67	33123.26
670.81	33003.89
670.95	32917.29
671.09	32708.99
671.23	32856.44
671.37	33172.41
671.51	33039.00
671.65	32545.15
671.79	32479.61
671.93	32425.78
672.07	32299.39
672.21	32376.63
672.35	32385.99
672.49	32423.44
672.63	32119.17
672.77	32154.28
672.91	32187.05
673.05	31627.66
673.19	32030.23
673.33	31718.94
673.47	31487.23
673.61	31667.45
673.75	31503.61
673.89	31082.31
674.03	31344.45
674.17	31391.26
674.31	31433.39
674.45	30984.01
674.59	31054.23
674.73	31618.30
674.87	30925.50
675.01	31363.18
675.15	31225.09
675.29	31613.62
675.43	30906.77
675.56	30958.27
675.70	31084.65
675.84	30441.01
675.98	29584.37
676.12	30029.07
676.26	30225.68
676.40	29921.41
676.54	30096.95
676.68	30239.72
676.82	30118.01
676.96	29783.32
677.10	29944.81
677.23	29556.28
677.37	29610.12
677.51	29968.22
677.65	29919.07
677.79	29212.23
677.93	29385.43
678.07	29273.08
678.21	29113.92
678.34	29172.44
678.48	28889.23
678.62	29315.21
678.76	28739.44
678.90	28657.52
679.04	28734.76
679.18	28664.54
679.31	28348.57
679.45	28435.17
679.59	28032.60
679.73	27936.63
679.87	27798.54
680.00	27878.12
680.14	27520.02
680.28	27531.72
680.42	27449.80
680.56	27700.24
680.70	27658.11
680.83	27814.93
680.97	27421.72
681.11	27292.99
681.25	27143.19
681.39	27033.19
681.52	27225.11
681.66	26939.57
681.80	26759.34
681.94	26981.70
682.07	26700.83
682.21	26707.85
682.35	26857.65
682.49	26356.77
682.62	26586.15
682.76	25834.83
682.90	26513.59
683.04	26401.24
683.17	26103.99
683.31	25907.39
683.45	26649.34
683.59	26141.44
683.72	25647.59
683.86	25806.75
684.00	25081.18
684.13	25846.54
684.27	25802.07
684.41	25860.58
684.55	25020.33
684.68	25474.39
684.82	25364.39
684.96	25415.88
685.09	24886.92
685.23	24765.21
685.37	24945.43
685.50	24709.04
685.64	24720.74
685.78	24362.64
685.91	24290.08
686.05	24355.61
686.19	24184.76
686.32	24175.39
686.46	23924.96
686.60	23704.95
686.73	23812.61
686.87	23419.40
687.01	23459.19
687.14	23604.30
687.28	23241.52
687.42	23185.35
687.55	23248.54
687.69	23131.51
687.82	23058.96
687.96	23381.95
688.10	23054.28
688.23	23124.49
688.37	22600.21
688.50	22459.78
688.64	22553.40
688.78	22471.48
688.91	22445.74
689.05	22483.19
689.18	22394.25
689.32	22082.95
689.46	21774.00
689.59	22045.51
689.73	22466.80
689.86	22038.48
690.00	21898.05
690.13	22235.09
690.27	21708.47
690.41	21696.77
690.54	21460.37
690.68	21240.36
690.81	21188.87
690.95	21076.52
691.08	20982.90
691.22	20924.39
691.35	20968.86
691.49	21170.15
691.62	21078.86
691.76	20947.79
691.89	20912.69
692.03	20877.58
692.16	20318.19
692.30	20322.87
692.43	20496.07
692.57	20430.54
692.70	20226.91
692.84	20072.43
692.97	20074.77
693.11	19620.71
693.24	19742.42
693.38	19601.99
693.51	19536.45
693.65	19597.31
693.78	19564.54
693.92	19878.17
694.05	19623.05
694.19	19405.38
694.32	19529.43
694.45	19393.68
694.59	18953.66
694.72	19300.06
694.86	19264.95
694.99	18817.91
695.13	19091.75
695.26	18560.45
695.39	18562.79
695.53	18644.71
695.66	18728.97
695.80	18464.49
695.93	18431.72
696.07	18066.60
696.20	18111.07
696.33	18349.80
696.47	18148.51
696.60	18008.08
696.73	17949.57
696.87	18071.28
697.00	17888.71
697.14	17987.02
697.27	17731.90
697.40	17874.67
697.54	17444.01
697.67	17488.48
697.80	17474.44
697.94	17369.12
698.07	17177.19
698.21	17205.28
698.34	17530.61
698.47	17167.83
698.61	16800.37
698.74	16603.76
698.87	16760.58
699.01	16566.31
699.14	16517.16
699.27	16442.26
699.40	16142.67
699.54	16327.58
699.67	16236.30
699.80	16060.76
699.94	16088.84
700.07	16297.15
700.20	16233.96
700.34	15672.23
700.47	15950.75
700.60	15969.48
700.73	16063.10
700.87	16042.03
701.00	15887.56
701.13	15693.29
701.26	15602.01
701.40	15616.05
701.53	15550.52
701.66	15379.66
701.79	15030.92
701.93	15229.87
702.06	15192.42
702.19	14986.45
702.32	15197.10
702.46	14867.08
702.59	14829.63
702.72	14951.34
702.85	14810.91
702.99	14829.63
703.12	14918.57
703.25	14511.32
703.38	14626.01
703.51	14225.78
703.65	14284.29
703.78	14363.87
703.91	14040.87
704.04	14483.24
704.17	14146.20
704.31	14087.68
704.44	14047.90
704.57	13930.87
704.70	13652.34
704.83	13745.97
704.96	13760.01
705.10	13947.25
705.23	13769.37
>>>>>End Processed Spectral Data<<<<<
