SpectraSuite Data File
++++++++++++++++++++++++++++++++++++
Date: Fri Oct 25 10:47:23 EDT 2013
User: price-jones
Dark Spectrum Present: No
Reference Spectrum Present: No
Number of Sampled Component Spectra: 1
Spectrometers: USB2+H05261
Integration Time (usec): 100000 (USB2+H05261)
Spectra Averaged: 1 (USB2+H05261)
Boxcar Smoothing: 0 (USB2+H05261)
Correct for Electrical Dark: No (USB2+H05261)
Strobe/Lamp Enabled: No (USB2+H05261)
Correct for Detector Non-linearity: No (USB2+H05261)
Correct for Stray Light: No (USB2+H05261)
Number of Pixels in Processed Spectrum: 2048
>>>>>Begin Processed Spectral Data<<<<<
365.73	180.22
365.92	180.22
366.12	180.22
366.32	23.41
366.52	0.00
366.72	84.26
366.91	51.49
367.11	53.83
367.31	72.56
367.51	58.51
367.70	11.70
367.90	21.06
368.10	63.19
368.30	53.83
368.49	42.13
368.69	28.09
368.89	159.16
369.09	77.24
369.28	60.85
369.48	95.96
369.68	58.51
369.87	79.58
370.07	112.35
370.27	95.96
370.47	163.84
370.66	393.21
370.86	444.70
371.06	442.36
371.25	465.77
371.45	482.15
371.65	449.38
371.84	468.11
372.04	409.59
372.24	451.72
372.44	463.43
372.63	465.77
372.83	510.24
373.03	456.40
373.22	472.79
373.42	533.64
373.62	521.94
373.81	589.82
374.01	580.45
374.21	566.41
374.40	620.24
374.60	535.98
374.79	535.98
374.99	608.54
375.19	580.45
375.38	552.37
375.58	545.34
375.78	603.86
375.97	519.60
376.17	592.16
376.37	608.54
376.56	643.65
376.76	533.64
376.95	578.11
377.15	592.16
377.35	587.47
377.54	653.01
377.74	599.18
377.93	585.13
378.13	610.88
378.33	627.26
378.52	559.39
378.72	655.35
378.91	629.60
379.11	580.45
379.31	599.18
379.50	645.99
379.70	660.03
379.89	692.80
380.09	669.39
380.28	720.88
380.48	645.99
380.68	613.22
380.87	608.54
381.07	683.44
381.26	739.61
381.46	678.76
381.65	711.52
381.85	695.14
382.04	629.60
382.24	599.18
382.43	685.78
382.63	753.65
382.83	681.10
383.02	720.88
383.22	770.04
383.41	704.50
383.61	709.18
383.80	683.44
384.00	643.65
384.19	702.16
384.39	772.38
384.58	781.74
384.78	772.38
384.97	655.35
385.17	751.31
385.36	718.54
385.56	753.65
385.75	795.78
385.95	774.72
386.14	777.06
386.34	779.40
386.53	821.53
386.72	840.25
386.92	835.57
387.11	786.42
387.31	758.33
387.50	814.51
387.70	816.85
387.89	779.40
388.09	858.98
388.28	821.53
388.48	889.40
388.67	933.87
388.86	868.34
389.06	858.98
389.25	896.43
389.45	919.83
389.64	842.59
389.84	891.74
390.03	1057.92
390.22	870.68
390.42	943.24
390.61	915.15
390.81	924.51
391.00	936.21
391.19	940.90
391.39	997.07
391.58	1034.52
391.78	1123.46
391.97	1032.18
392.16	931.53
392.36	1036.86
392.55	1048.56
392.75	945.58
392.94	950.26
393.13	987.71
393.33	961.96
393.52	933.87
393.71	1111.75
393.91	1060.26
394.10	1057.92
394.29	1095.37
394.49	1076.65
394.68	1036.86
394.88	1200.69
395.07	1163.25
395.26	1135.16
395.46	1151.54
395.65	1135.16
395.84	1100.05
396.04	1284.95
396.23	1146.86
396.42	1121.12
396.62	1109.41
396.81	1090.69
397.00	1198.35
397.19	1214.74
397.39	1191.33
397.58	1184.31
397.77	1203.04
397.97	1268.57
398.16	1263.89
398.35	1401.98
398.55	1352.83
398.74	1324.74
398.93	1376.24
399.12	1329.42
399.32	1434.75
399.51	1352.83
399.70	1416.02
399.90	1441.77
400.09	1387.94
400.28	1458.15
400.47	1493.26
400.67	1399.64
400.86	1399.64
401.05	1507.30
401.24	1434.75
401.44	1519.01
401.63	1526.03
401.82	1469.86
402.01	1455.81
402.21	1519.01
402.40	1570.50
402.59	1624.33
402.78	1568.16
402.97	1682.85
403.17	1530.71
403.36	1626.67
403.55	1645.40
403.74	1671.14
403.93	1556.46
404.13	1792.85
404.32	1645.40
404.51	1694.55
404.70	1748.38
404.89	1687.53
405.09	1710.93
405.28	1729.66
405.47	1631.35
405.66	1757.74
405.85	1757.74
406.05	1675.82
406.24	1860.73
406.43	1902.86
406.62	1846.68
406.81	1891.15
407.00	1825.62
407.20	1823.28
407.39	1926.26
407.58	1952.01
407.77	1905.20
407.96	1886.47
408.15	1935.62
408.34	2045.63
408.54	2031.58
408.73	2036.27
408.92	1923.92
409.11	2024.56
409.30	2026.90
409.49	1959.03
409.68	2003.50
409.87	2202.44
410.07	2106.48
410.26	2160.31
410.45	2097.12
410.64	2120.53
410.83	2209.47
411.02	2160.31
411.21	2321.81
411.40	2312.45
411.59	2331.17
411.78	2331.17
411.98	2324.15
412.17	2370.96
412.36	2410.75
412.55	2434.16
412.74	2544.16
412.93	2406.07
413.12	2502.03
413.31	2483.31
413.50	2495.01
413.69	2614.38
413.88	2593.31
414.07	2583.95
414.26	2607.36
414.45	2726.72
414.64	2569.91
414.83	2651.83
415.02	2803.96
415.22	2614.38
415.41	2710.34
415.60	2794.60
415.79	2825.03
415.98	2892.90
416.17	2818.00
416.36	2841.41
416.55	2981.84
416.74	2977.16
416.93	2979.50
417.12	2951.42
417.31	3019.29
417.50	2909.29
417.69	3159.72
417.88	3157.38
418.07	3063.76
418.26	3138.66
418.45	3173.77
418.64	3211.22
418.83	3316.54
419.02	3279.09
419.21	3368.03
419.39	3211.22
419.58	3218.24
419.77	3262.71
419.96	3251.00
420.15	3316.54
420.34	3297.81
420.53	3304.84
420.72	3370.37
420.91	3311.86
421.10	3426.54
421.29	3431.23
421.48	3386.76
421.67	3438.25
421.86	3414.84
422.05	3361.01
422.24	3370.37
422.43	3527.19
422.61	3552.93
422.80	3655.92
422.99	3489.74
423.18	3616.13
423.37	3510.80
423.56	3569.32
423.75	3501.44
423.94	3449.95
424.13	3384.41
424.32	3492.08
424.50	3695.71
424.69	3688.68
424.88	3611.45
425.07	3653.58
425.26	3447.61
425.45	3602.08
425.64	3471.01
425.83	3632.51
426.01	3569.32
426.20	3693.37
426.39	3658.26
426.58	3562.30
426.77	3585.70
426.96	3660.60
427.15	3583.36
427.33	3648.90
427.52	3775.28
427.71	3740.18
427.90	3660.60
428.09	3798.69
428.28	3850.18
428.46	3871.25
428.65	3815.07
428.84	3927.42
429.03	3997.64
429.22	3712.09
429.40	3875.93
429.59	3777.62
429.78	3501.44
429.97	3501.44
430.16	3653.58
430.34	3836.14
430.53	3852.52
430.72	3971.89
430.91	4056.15
431.10	4112.32
431.28	4053.81
431.47	4208.28
431.66	4210.62
431.85	4065.51
432.03	4159.13
432.22	4236.37
432.41	4236.37
432.60	4360.42
432.79	4203.60
432.97	4297.22
433.16	4180.20
433.35	4131.05
433.54	4248.07
433.72	4339.35
433.91	4376.80
434.10	4313.61
434.28	4180.20
434.47	4524.26
434.66	4194.24
434.85	4568.73
435.03	4407.23
435.22	4458.72
435.41	4681.07
435.59	4631.92
435.78	4648.30
435.97	4531.28
436.16	4648.30
436.34	4713.84
436.53	4674.05
436.72	4770.01
436.90	4688.09
437.09	4643.62
437.28	4622.56
437.46	4774.69
437.65	4744.27
437.84	4709.16
438.02	4713.84
438.21	4823.84
438.40	4704.48
438.58	4915.12
438.77	4919.81
438.96	4720.86
439.14	4983.00
439.33	5170.24
439.52	5177.26
439.70	5093.01
439.89	5158.54
440.08	5266.21
440.26	5195.99
440.45	5228.76
440.63	5315.36
440.82	5399.62
441.01	5455.79
441.19	5336.42
441.38	5619.63
441.57	5643.03
441.75	5554.09
441.94	5526.00
442.12	5661.76
442.31	5713.25
442.50	5666.44
442.68	5612.60
442.87	5736.65
443.05	5844.32
443.24	5891.13
443.43	5617.29
443.61	5781.12
443.80	6083.05
443.98	5818.57
444.17	5650.05
444.35	5867.72
444.54	6015.18
444.73	6125.18
444.91	5792.83
445.10	5806.87
445.28	5856.02
445.47	5764.74
445.65	5743.67
445.84	5933.26
446.02	5954.32
446.21	5916.87
446.39	6045.60
446.58	6176.67
446.77	6150.93
446.95	5874.74
447.14	6132.20
447.32	6249.23
447.51	5996.45
447.69	6022.20
447.88	6061.99
448.06	6085.39
448.25	6080.71
448.43	6040.92
448.62	6094.76
448.80	5973.05
448.99	5966.03
449.17	6282.00
449.36	6282.00
449.54	6370.94
449.73	6394.34
449.91	6565.20
450.10	6321.79
450.28	6520.73
450.46	6455.20
450.65	6473.92
450.83	6516.05
451.02	6356.90
451.20	6408.39
451.39	6527.75
451.57	6576.91
451.76	6469.24
451.94	6408.39
452.13	6476.26
452.31	6572.22
452.49	6406.05
452.68	6724.36
452.86	6640.10
453.05	6480.94
453.23	6642.44
453.42	6705.63
453.60	6668.19
453.78	6715.00
453.97	6656.48
454.15	6562.86
454.34	6731.38
454.52	6836.70
454.70	6682.23
454.89	6986.50
455.07	6874.15
455.26	6967.77
455.44	7007.56
455.62	6906.92
455.81	6918.62
455.99	7087.14
456.17	7042.67
456.36	7103.53
456.54	7220.55
456.73	7190.13
456.91	7494.40
457.09	7414.82
457.28	7445.24
457.46	7187.79
457.64	7314.17
457.83	7129.27
458.01	7386.73
458.19	7393.75
458.38	7487.37
458.56	7548.23
458.74	7595.04
458.93	7363.33
459.11	7407.80
459.29	7419.50
459.48	7545.89
459.66	7815.05
459.84	7730.79
460.03	7857.18
460.21	7583.34
460.39	7801.01
460.57	7854.84
460.76	7871.22
460.94	7733.13
461.12	7754.19
461.31	7683.98
461.49	7892.29
461.67	7803.35
461.85	8016.33
462.04	7880.58
462.22	8432.95
462.40	7974.21
462.59	7847.82
462.77	8025.70
462.95	8262.09
463.13	8287.84
463.32	8077.19
463.50	8063.15
463.68	8124.00
463.86	8098.25
464.05	8145.06
464.23	8119.32
464.41	8194.22
464.59	8079.53
464.78	8360.39
464.96	8219.96
465.14	8278.47
465.32	8510.19
465.50	8510.19
465.69	8524.23
465.87	8402.52
466.05	8280.82
466.23	8346.35
466.41	8304.22
466.60	8547.64
466.78	8252.73
466.96	8329.97
467.14	8379.12
467.32	8657.64
467.51	8695.09
467.69	8512.53
467.87	8589.77
468.05	8802.75
468.23	8627.21
468.41	8746.58
468.60	8727.86
468.78	8849.57
468.96	8585.08
469.14	8826.16
469.32	8629.56
469.50	8634.24
469.69	8645.94
469.87	8929.14
470.05	8894.04
470.23	9081.28
470.41	8926.80
470.59	9228.73
470.77	9179.58
470.95	9151.49
471.14	9170.22
471.32	8966.59
471.50	9387.89
471.68	9296.61
471.86	9235.75
472.04	9528.32
472.22	9926.21
472.40	9493.21
472.58	9397.25
472.77	9479.17
472.95	9727.27
473.13	10047.92
473.31	9884.08
473.49	9778.76
473.67	9598.54
473.85	9734.29
474.03	10005.79
474.21	10043.24
474.39	10057.28
474.57	10160.27
474.75	10202.40
474.93	10274.95
475.12	10200.05
475.30	10274.95
475.48	10148.56
475.66	10478.58
475.84	10195.37
476.02	10438.79
476.20	10466.88
476.38	10537.09
476.56	10899.87
476.74	10799.23
476.92	10672.84
477.10	10750.08
477.28	11061.37
477.46	11044.99
477.64	11201.80
477.82	11185.42
478.00	11501.39
478.18	11454.58
478.36	11370.32
478.54	11501.39
478.72	11756.51
478.90	11929.71
479.08	11831.41
479.26	11859.49
479.44	11826.73
479.62	12147.38
479.80	12135.68
479.98	12123.98
480.16	12393.14
480.34	12386.12
480.52	12280.79
480.70	12580.38
480.88	12610.81
481.06	12641.23
481.24	12966.57
481.41	13111.68
481.59	12753.58
481.77	13128.06
481.95	13158.49
482.13	13429.99
482.31	13282.54
482.49	13661.71
482.67	13607.87
482.85	14038.53
483.03	13886.40
483.21	13937.89
483.39	14200.03
483.57	13965.98
483.74	14090.02
483.92	14600.26
484.10	14476.21
484.28	14621.33
484.46	14700.90
484.64	14911.55
484.82	14752.40
485.00	14930.28
485.18	15311.78
485.35	15208.80
485.53	14909.21
485.71	15073.05
485.89	15604.35
486.07	15302.42
486.25	15440.51
486.43	15583.29
486.61	15632.44
486.78	16035.01
486.96	16013.95
487.14	16484.39
487.32	16592.06
487.50	16496.10
487.68	16439.92
487.85	17097.61
488.03	16772.28
488.21	17097.61
488.39	17350.39
488.57	17355.07
488.75	17682.75
488.92	17996.38
489.10	17919.14
489.28	17975.31
489.46	18324.05
489.64	18190.64
489.81	18310.01
489.99	18487.89
490.17	18471.51
490.35	18878.76
490.53	18817.91
490.70	18967.70
490.88	18670.45
491.06	19145.58
491.24	19337.51
491.41	19248.57
491.59	19328.14
491.77	19323.46
491.95	19709.65
492.13	19814.98
492.30	19990.52
492.48	20027.96
492.66	20130.95
492.84	20166.06
493.01	20638.84
493.19	20233.93
493.37	20442.24
493.54	20568.63
493.72	20788.64
493.90	21067.16
494.08	21479.10
494.25	21397.18
494.43	21673.36
494.61	21563.36
494.79	21635.91
494.96	21752.94
495.14	21832.52
495.32	21858.26
495.49	22202.32
495.67	21797.41
495.85	22143.81
496.02	22506.59
496.20	22738.30
496.38	22595.53
496.55	22630.64
496.73	23178.33
496.91	22829.59
497.09	23073.00
497.26	23398.34
497.44	23204.07
497.62	23136.20
497.79	23843.04
497.97	23318.76
498.14	23646.43
498.32	23828.99
498.50	23854.74
498.67	23784.52
498.85	24271.36
499.03	24430.51
499.20	24297.10
499.38	24430.51
499.56	24285.40
499.73	24580.31
499.91	24907.98
500.08	24739.46
500.26	24587.33
500.44	24702.01
500.61	24694.99
500.79	24704.35
500.97	24772.23
501.14	25497.80
501.32	25240.34
501.49	25500.14
501.67	25343.32
501.84	25654.61
502.02	25790.36
502.20	25762.28
502.37	25949.52
502.55	25963.56
502.72	25958.88
502.90	26331.03
503.07	26164.85
503.25	26221.02
503.43	26228.04
503.60	26558.06
503.78	26265.49
503.95	25998.67
504.13	26583.80
504.30	26441.03
504.48	26693.81
504.65	27150.21
504.83	26775.73
505.01	27157.24
505.18	27115.11
505.36	27325.75
505.53	27402.99
505.71	27288.31
505.88	27608.96
506.06	27522.36
506.23	27934.29
506.41	27721.30
506.58	27861.74
506.76	27789.18
506.93	28067.70
507.11	27913.23
507.28	28194.09
507.46	28287.71
507.63	27943.66
507.81	28374.31
507.98	28203.46
508.16	28479.64
508.33	28575.60
508.50	28774.55
508.68	28940.72
508.85	29041.37
509.03	29186.48
509.20	29024.98
509.38	29095.20
509.55	29345.64
509.73	29422.87
509.90	29329.25
510.08	29102.22
510.25	29462.66
510.42	29525.86
510.60	29516.50
510.77	29879.28
510.95	30160.14
511.12	29556.28
511.30	29827.79
511.47	30764.00
511.64	29762.25
511.82	29989.28
511.99	29919.07
512.17	30286.53
512.34	30127.38
512.51	30555.69
512.69	30756.98
512.86	30230.36
513.04	30789.75
513.21	30654.00
513.38	30616.55
513.56	31143.17
513.73	30808.47
513.90	31171.25
514.08	31431.05
514.25	31395.95
514.43	31412.33
514.60	31271.90
514.77	31409.99
514.95	31428.71
515.12	31557.44
515.29	31550.42
515.47	31997.46
515.64	32133.21
515.81	31967.04
515.99	32072.36
516.16	32222.16
516.33	31791.50
516.51	31690.85
516.68	31819.58
516.85	32041.93
517.03	32105.13
517.20	32063.00
517.37	32224.50
517.54	32486.64
517.72	32648.13
517.89	32018.53
518.06	32217.47
518.24	32531.11
518.41	32591.96
518.58	32720.69
518.75	32753.46
518.93	33324.55
519.10	32959.42
519.27	33163.05
519.45	32882.19
519.62	33134.96
519.79	33069.43
519.96	33268.37
520.14	33453.28
520.31	32917.29
520.48	33582.01
520.65	33343.27
520.83	33790.31
521.00	33998.62
521.17	33677.97
521.34	34031.39
521.52	33525.83
521.69	34199.91
521.86	34359.06
522.03	34361.40
522.20	34202.25
522.38	34576.73
522.55	34520.56
522.72	34635.25
522.89	34040.75
523.07	34852.92
523.24	34368.43
523.41	34595.46
523.58	34209.27
523.75	35007.39
523.92	35044.84
524.10	35131.44
524.27	34785.04
524.44	34885.68
524.61	35047.18
524.78	35440.39
524.96	35269.53
525.13	35426.35
525.30	35887.43
525.47	35777.43
525.64	35339.75
525.81	35639.34
525.98	35697.85
526.16	35363.15
526.33	35433.37
526.50	35941.27
526.67	35480.18
526.84	35505.93
527.01	35480.18
527.18	35580.82
527.36	36105.10
527.53	36217.45
527.70	36369.58
527.87	36563.85
528.04	36119.15
528.21	36320.43
528.38	36144.89
528.55	36863.44
528.72	36437.46
528.89	36622.36
529.07	36783.86
529.24	36552.15
529.41	36847.05
529.58	36795.56
529.75	37015.57
529.92	36847.05
530.09	36842.37
530.26	37191.11
530.43	37102.17
530.60	36823.65
530.77	37319.84
530.94	37453.25
531.11	37223.88
531.28	37186.43
531.46	37528.15
531.63	37373.67
531.80	37596.03
531.97	37462.61
532.14	37188.77
532.31	37179.41
532.48	37647.52
532.65	37890.93
532.82	37556.24
532.99	37841.78
533.16	37729.44
533.33	37919.02
533.50	38174.14
533.67	38312.23
533.84	37708.37
534.01	38209.25
534.18	37968.17
534.35	38433.94
534.52	37996.26
534.69	38525.22
534.86	38099.24
535.03	38075.84
535.20	38607.14
535.37	38778.00
535.54	38824.81
535.71	38773.31
535.88	38766.29
536.05	38611.82
536.22	39065.88
536.38	38590.75
536.55	39206.31
536.72	38895.02
536.89	38682.03
537.06	38810.76
537.23	38904.38
537.40	38878.64
537.57	38920.77
537.74	39428.66
537.91	39552.71
538.08	38990.98
538.25	39346.75
538.42	39449.73
538.59	39594.84
538.75	38756.93
538.92	39402.92
539.09	39138.44
539.26	39746.98
539.43	39519.95
539.60	39377.17
539.77	39248.44
539.94	39592.50
540.11	39746.98
540.28	39559.73
540.44	39739.96
540.61	39779.74
540.78	39517.60
540.95	39601.86
541.12	39845.28
541.29	39775.06
541.46	40053.59
541.62	39894.43
541.79	40355.52
541.96	39847.62
542.13	40121.46
542.30	40385.94
542.47	39658.04
542.63	39971.67
542.80	40179.98
542.97	40491.27
543.14	40449.14
543.31	41242.58
543.48	40587.23
543.64	41008.53
543.81	41453.23
543.98	40643.40
544.15	40715.96
544.32	41146.62
544.48	41483.66
544.65	41268.33
544.82	41401.74
544.99	40411.69
545.16	40814.26
545.32	40840.01
545.49	41251.94
545.66	40994.48
545.83	41387.69
546.00	41345.56
546.16	41457.91
546.33	41125.55
546.50	40954.69
546.67	41265.99
546.83	40910.22
547.00	41464.93
547.17	41633.45
547.34	41268.33
547.50	41736.43
547.67	42043.04
547.84	41565.57
548.00	41762.18
548.17	41916.65
548.34	41572.60
548.51	41614.72
548.67	41825.37
548.84	41888.57
549.01	41909.63
549.18	41813.67
549.34	42211.56
549.51	42284.12
549.68	41839.42
549.84	41961.12
550.01	42384.76
550.18	41853.46
550.34	42337.95
550.51	42253.69
550.68	42417.53
550.84	41933.04
551.01	42337.95
551.18	42333.27
551.34	42651.58
551.51	42553.28
551.68	42555.62
551.84	42735.84
552.01	42635.20
552.18	42651.58
552.34	42253.69
552.51	42529.87
552.68	42466.68
552.84	42637.54
553.01	43044.79
553.18	42752.23
553.34	42305.18
553.51	42583.71
553.67	42574.34
553.84	43030.75
554.01	42796.70
554.17	43234.38
554.34	43047.13
554.51	42873.93
554.67	43328.00
554.84	43084.58
555.00	42930.11
555.17	42534.56
555.33	43192.25
555.50	43061.18
555.67	42990.96
555.83	43164.16
556.00	43131.39
556.16	43536.30
556.33	43452.05
556.50	42941.81
556.66	43257.78
556.83	43054.15
556.99	43098.62
557.16	43608.86
557.32	43435.66
557.49	43702.48
557.65	43089.26
557.82	43232.04
557.98	43407.58
558.15	43503.54
558.32	43412.26
558.48	43473.11
558.65	43543.33
558.81	43196.93
558.98	43487.15
559.14	43597.16
559.31	43749.29
559.47	43433.32
559.64	43608.86
559.80	44114.42
559.97	43625.25
560.13	43430.98
560.30	43718.87
560.46	43847.60
560.63	43842.92
560.79	44004.41
560.96	44245.49
561.12	43789.08
561.29	43952.92
561.45	44198.68
561.61	43838.23
561.78	44020.80
561.94	43555.03
562.11	44126.12
562.27	44060.58
562.44	44116.76
562.60	44130.80
562.77	44018.46
562.93	43906.11
563.10	43749.29
563.26	44013.77
563.42	44699.55
563.59	43718.87
563.75	43709.50
563.92	43915.47
564.08	43929.51
564.24	44133.14
564.41	44236.12
564.57	43660.35
564.74	43899.09
564.90	44498.26
565.07	44254.85
565.23	44062.93
565.39	43601.84
565.56	44531.03
565.72	44252.51
565.88	44247.83
566.05	44451.45
566.21	44128.46
566.38	43955.26
566.54	44095.69
566.70	44437.41
566.87	44498.26
567.03	44332.09
567.19	44481.88
567.36	44442.09
567.52	44095.69
567.68	44589.55
567.85	44238.47
568.01	44477.20
568.17	43878.02
568.34	44809.56
568.50	44577.84
568.66	44399.96
568.83	44554.44
568.99	44186.97
569.15	44484.22
569.32	43978.67
569.48	44112.08
569.64	44594.23
569.81	44395.28
569.97	44271.23
570.13	44655.08
570.30	44147.18
570.46	44048.88
570.62	44243.15
570.78	43906.11
570.95	44437.41
571.11	44608.27
571.27	44123.78
571.43	44172.93
571.60	44556.78
571.76	45003.82
571.92	44858.71
572.09	44259.53
572.25	44456.14
572.41	43983.35
572.57	44538.05
572.74	45083.40
572.90	44788.49
573.06	44638.70
573.22	44797.85
573.38	44495.92
573.55	44547.42
573.71	44793.17
573.87	44608.27
574.03	44615.29
574.20	44577.84
574.36	44591.89
574.52	44861.05
574.68	44486.56
574.84	44582.52
575.01	44767.43
575.17	44559.12
575.33	44540.39
575.49	44610.61
575.65	44968.71
575.82	45478.95
575.98	44971.05
576.14	45081.06
576.30	44935.95
576.46	44362.51
576.62	44622.31
576.79	44458.48
576.95	44636.36
577.11	44722.96
577.27	44584.86
577.43	44739.34
577.59	44875.09
577.75	44671.46
577.92	44713.59
578.08	44612.95
578.24	44531.03
578.40	44589.55
578.56	44903.18
578.72	44769.77
578.88	44783.81
579.04	44729.98
579.21	45123.19
579.37	44837.64
579.53	44645.72
579.69	44664.44
579.85	44622.31
580.01	44615.29
580.17	44886.79
580.33	45155.96
580.49	44788.49
580.65	45036.59
580.82	45013.18
580.98	44882.11
581.14	44549.76
581.30	44921.90
581.46	44968.71
581.62	44856.37
581.78	44957.01
581.94	45343.20
582.10	44884.45
582.26	45209.79
582.42	45345.54
582.58	44671.46
582.74	44505.29
582.90	45081.06
583.06	45010.84
583.22	45202.77
583.38	44931.26
583.54	44900.84
583.70	44882.11
583.86	44472.52
584.02	44694.87
584.18	45022.54
584.34	44961.69
584.50	45165.32
584.66	45132.55
584.82	44704.23
584.98	45059.99
585.14	44971.05
585.30	44999.14
585.46	44830.62
585.62	44657.42
585.78	45170.00
585.94	44257.19
586.10	44858.71
586.26	44861.05
586.42	45097.44
586.58	44982.76
586.74	44767.43
586.90	44830.62
587.06	44456.14
587.22	45102.12
587.38	44573.16
587.54	45474.27
587.70	45277.66
587.86	44966.37
588.02	45132.55
588.18	45216.81
588.34	44704.23
588.49	44259.53
588.65	44451.45
588.81	44748.70
588.97	44964.03
589.13	44830.62
589.29	44872.75
589.45	44282.94
589.61	45048.29
589.77	45134.89
589.93	45050.63
590.08	45223.83
590.24	45404.05
590.40	45258.94
590.56	45125.53
590.72	45570.23
590.88	45024.89
591.04	45155.96
591.20	45333.84
591.35	45017.86
591.51	45565.55
591.67	45132.55
591.83	45371.28
591.99	44886.79
592.15	44795.51
592.31	45010.84
592.46	44999.14
592.62	44842.32
592.78	45062.33
592.94	45137.23
593.10	45090.42
593.26	45544.48
593.41	45478.95
593.57	45076.38
593.73	45315.11
593.89	45275.32
594.05	45055.31
594.20	45294.05
594.36	45504.70
594.52	45322.13
594.68	45146.59
594.84	45429.80
594.99	45408.73
595.15	45254.26
595.31	45256.60
595.47	45148.93
595.62	45312.77
595.78	45214.47
595.94	45457.88
596.10	45703.64
596.25	45542.14
596.41	45659.17
596.57	45020.20
596.73	45572.57
596.88	44896.16
597.04	45209.79
597.20	45289.37
597.36	45265.96
597.51	45464.91
597.67	45617.04
597.83	45352.56
597.99	45478.95
598.14	45633.42
598.30	45572.57
598.46	45092.76
598.61	45207.45
598.77	45111.49
598.93	45048.29
599.09	45607.68
599.24	45752.79
599.40	45521.08
599.56	45579.59
599.71	45076.38
599.87	45860.46
600.03	45258.94
600.18	45333.84
600.34	45366.60
600.50	45769.18
600.65	45310.43
600.81	45579.59
600.97	45462.57
601.12	45675.55
601.28	45556.19
601.44	45251.92
601.59	45528.10
601.75	45298.73
601.91	45214.47
602.06	45368.94
602.22	45420.44
602.37	45195.74
602.53	45450.86
602.69	45404.05
602.84	45413.41
603.00	45177.02
603.16	45268.30
603.31	45511.72
603.47	45085.74
603.62	44865.73
603.78	45439.16
603.94	45771.52
604.09	45492.99
604.25	45605.34
604.40	45347.88
604.56	45338.52
604.71	45495.33
604.87	45446.18
605.03	45282.34
605.18	45221.49
605.34	45205.11
605.49	45144.25
605.65	45296.39
605.80	44879.77
605.96	45502.35
606.12	45661.51
606.27	45577.25
606.43	44952.33
606.58	45645.13
606.74	45109.14
606.89	45125.53
607.05	45205.11
607.20	45308.09
607.36	45329.16
607.51	45411.07
607.67	45191.06
607.82	45340.86
607.98	45010.84
608.13	45160.64
608.29	44570.82
608.44	44570.82
608.60	44622.31
608.75	44825.94
608.91	45186.38
609.06	44495.92
609.22	45270.64
609.37	44509.97
609.53	44971.05
609.68	45083.40
609.84	45148.93
609.99	44933.60
610.15	44863.39
610.30	44563.80
610.46	44648.06
610.61	44514.65
610.76	44793.17
610.92	44486.56
611.07	44727.64
611.23	44797.85
611.38	44849.35
611.54	44334.43
611.69	44694.87
611.84	44725.30
612.00	44151.87
612.15	44825.94
612.31	44718.28
612.46	44697.21
612.62	44966.37
612.77	44474.86
612.92	44809.56
613.08	44486.56
613.23	44732.32
613.39	44582.52
613.54	44044.20
613.69	44439.75
613.85	44252.51
614.00	44804.88
614.15	44137.82
614.31	44467.84
614.46	44673.81
614.62	44306.34
614.77	44191.65
614.92	44208.04
615.08	44069.95
615.23	44601.25
615.38	44100.37
615.54	44378.90
615.69	44137.82
615.84	44030.16
616.00	43889.73
616.15	44058.24
616.30	44201.02
616.46	43662.69
616.61	43641.63
616.76	43660.35
616.92	43805.47
617.07	44339.11
617.22	44140.16
617.37	43751.63
617.53	44320.38
617.68	43782.06
617.83	44184.63
617.99	44027.82
618.14	44034.84
618.29	43779.72
618.45	43491.83
618.60	44069.95
618.75	43470.77
618.90	43835.89
619.06	44135.48
619.21	43777.38
619.36	43777.38
619.51	43587.80
619.67	43819.51
619.82	43866.32
619.97	43672.06
620.12	43737.59
620.28	43262.46
620.43	43248.42
620.58	43452.05
620.73	43608.86
620.89	43185.22
621.04	43704.82
621.19	43159.48
621.34	43201.61
621.49	43367.79
621.65	42918.40
621.80	42834.14
621.95	43648.65
622.10	43309.27
622.25	43419.28
622.41	42813.08
622.56	42777.97
622.71	43257.78
622.86	43330.34
623.01	43138.41
623.16	43271.82
623.32	43313.95
623.47	43173.52
623.62	43271.82
623.77	42930.11
623.92	43229.69
624.07	42384.76
624.23	42691.37
624.38	42412.85
624.53	42656.26
624.68	42618.81
624.83	42754.57
624.98	42829.46
625.13	42621.16
625.29	43166.50
625.44	42473.70
625.59	42658.60
625.74	42422.21
625.89	42029.00
626.04	41921.34
626.19	42153.05
626.34	41984.53
626.49	42387.10
626.65	42426.89
626.80	42686.69
626.95	42113.26
627.10	41975.17
627.25	41841.76
627.40	42007.94
627.55	42117.94
627.70	41951.76
627.85	41991.55
628.00	42293.48
628.15	42300.50
628.30	42017.30
628.45	42263.05
628.60	42047.72
628.76	42703.07
628.91	42204.54
629.06	42401.14
629.21	42277.10
629.36	41921.34
629.51	41759.84
629.66	41883.89
629.81	41572.60
629.96	41399.40
630.11	41853.46
630.26	42263.05
630.41	42548.60
630.56	41900.27
630.71	41661.54
630.86	41771.54
631.01	41715.37
631.16	41813.67
631.31	41153.64
631.46	41406.42
631.61	41743.45
631.76	41642.81
631.91	41347.90
632.06	41488.34
632.21	41553.87
632.36	41570.25
632.51	41301.09
632.66	41457.91
632.81	41413.44
632.96	41493.02
633.10	41170.02
633.25	40685.53
633.40	41265.99
633.55	41577.28
633.70	41331.52
633.85	41092.79
634.00	40840.01
634.15	40931.29
634.30	40575.53
634.45	41392.37
634.60	41029.59
634.75	41118.53
634.90	41055.34
635.05	40706.60
635.19	41038.95
635.34	41165.34
635.49	40793.20
635.64	40844.69
635.79	40378.92
635.94	40552.12
636.09	40935.97
636.24	40278.28
636.39	41038.95
636.53	40327.43
636.68	40292.32
636.83	40126.14
636.98	40589.57
637.13	40402.33
637.28	41010.87
637.43	40547.44
637.57	40367.22
637.72	40889.16
637.87	40767.45
638.02	40498.29
638.17	40194.02
638.32	40130.83
638.46	40301.68
638.61	39878.05
638.76	40177.64
638.91	39969.33
639.06	40294.66
639.20	40421.05
639.35	40509.99
639.50	39889.75
639.65	40161.25
639.80	40563.82
639.94	40217.43
640.09	39952.94
640.24	39784.43
640.39	39756.34
640.54	40037.20
640.68	40002.10
640.83	39952.94
640.98	40161.25
641.13	39536.33
641.27	39976.35
641.42	39707.19
641.57	40306.37
641.72	39955.29
641.86	39426.32
642.01	39089.29
642.16	39901.45
642.31	39285.89
642.45	39725.91
642.60	39416.96
642.75	39267.17
642.90	39651.02
643.04	39402.92
643.19	39325.68
643.34	39625.27
643.48	39510.58
643.63	39257.81
643.78	39012.05
643.93	38738.21
644.07	38981.62
644.22	39283.55
644.37	38848.21
644.51	39337.38
644.66	39213.34
644.81	39391.22
644.95	39625.27
645.10	39739.96
645.25	39281.21
645.39	39423.98
645.54	39562.08
645.69	39171.21
645.83	39033.11
645.98	38801.40
646.13	38955.88
646.27	39578.46
646.42	38920.77
646.57	39196.95
646.71	38895.02
646.86	39271.85
647.00	38925.45
647.15	39400.58
647.30	39299.94
647.44	38937.15
647.59	38822.47
647.74	38742.89
647.88	38469.04
648.03	38621.18
648.17	38550.96
648.32	38419.89
648.47	38546.28
648.61	38457.34
648.76	39077.58
648.90	38836.51
649.05	38656.29
649.20	38242.01
649.34	38459.68
649.49	38747.57
649.63	38146.05
649.78	38625.86
649.92	38494.79
650.07	38443.30
650.21	37867.53
650.36	38361.38
650.51	38305.21
650.65	38742.89
650.80	38436.28
650.94	38625.86
651.09	38433.94
651.23	38651.61
651.38	38164.78
651.52	38293.50
651.67	38340.32
651.81	37991.58
651.96	38120.31
652.10	37736.46
652.25	37579.64
652.39	38066.47
652.54	38288.82
652.68	38270.10
652.83	38382.45
652.97	38288.82
653.12	38127.33
653.26	38061.79
653.41	38157.75
653.55	37720.07
653.70	37979.87
653.84	38267.76
653.99	37832.42
654.13	37947.11
654.27	38014.98
654.42	37385.38
654.56	37614.75
654.71	37883.91
654.85	37572.62
655.00	37680.28
655.14	37539.85
655.29	37202.82
655.43	37134.94
655.57	36858.76
655.72	37263.67
655.86	37354.95
656.01	37415.80
656.15	37280.05
656.30	37511.77
656.44	37151.32
656.58	36950.04
656.73	37226.22
656.87	37289.42
657.01	37165.37
657.16	36823.65
657.30	36889.18
657.45	36793.22
657.59	36931.31
657.73	36491.29
657.88	37156.00
658.02	36634.06
658.16	36943.02
658.31	36912.59
658.45	36823.65
658.60	36800.24
658.74	36762.79
658.88	36718.32
659.03	36477.25
659.17	36683.22
659.31	36896.20
659.46	36203.41
659.60	36627.04
659.74	36271.28
659.89	36198.73
660.03	36149.57
660.17	36854.08
660.32	36376.61
660.46	36692.58
660.60	36512.36
660.74	36217.45
660.89	36362.56
661.03	35838.28
661.17	36154.26
661.32	35491.88
661.46	36123.83
661.60	35676.79
661.74	35716.58
661.89	35990.42
662.03	36032.55
662.17	35749.34
662.31	35641.68
662.46	35468.48
662.60	35571.46
662.74	35660.40
662.88	35625.29
663.03	35526.99
663.17	35667.42
663.31	35353.79
663.45	35622.95
663.60	34969.94
663.74	34845.90
663.88	34958.24
664.02	35044.84
664.17	35065.91
664.31	34934.84
664.45	34731.21
664.59	35225.06
664.73	34991.01
664.88	35138.46
665.02	34810.79
665.16	34763.98
665.30	34672.70
665.44	34663.33
665.59	34232.68
665.73	34192.89
665.87	34284.17
666.01	34298.21
666.15	34387.15
666.29	34085.22
666.44	34529.92
666.58	34366.09
666.72	34579.07
666.86	33769.25
667.00	34595.46
667.14	34300.55
667.28	33776.27
667.43	33755.21
667.57	33708.40
667.71	33640.52
667.85	33720.10
667.99	33448.60
668.13	33621.80
668.27	33516.47
668.41	33591.37
668.56	33457.96
668.70	33263.69
668.84	33228.59
668.98	33242.63
669.12	33357.32
669.26	33624.14
669.40	33153.69
669.54	33464.98
669.68	33266.03
669.82	32804.95
669.96	33029.64
670.10	32727.71
670.25	33165.39
670.39	33022.62
670.53	32826.01
670.67	32580.26
670.81	32844.74
670.95	32830.69
671.09	32725.37
671.23	32833.04
671.37	32856.44
671.51	32507.70
671.65	32407.06
671.79	32268.97
671.93	32313.44
672.07	31990.44
672.21	32128.53
672.35	31922.57
672.49	32428.12
672.63	32198.75
672.77	31931.93
672.91	31915.54
673.05	31407.65
673.19	31274.24
673.33	31377.22
673.47	31639.36
673.61	31409.99
673.75	31173.60
673.89	30820.17
674.03	30871.67
674.17	31108.06
674.31	31185.30
674.45	31101.04
674.59	31124.44
674.73	30745.28
674.87	30925.50
675.01	30862.30
675.15	30881.03
675.29	30972.31
675.43	31082.31
675.56	30899.75
675.70	30733.57
675.84	30464.41
675.98	29598.41
676.12	29862.90
676.26	30080.56
676.40	30066.52
676.54	29820.77
676.68	29663.95
676.82	29273.08
676.96	29855.87
677.10	29603.10
677.23	29195.84
677.37	29694.38
677.51	29254.36
677.65	29511.81
677.79	29109.24
677.93	28877.53
678.07	28648.16
678.21	28968.81
678.34	29156.05
678.48	28966.47
678.62	28739.44
678.76	28542.83
678.90	28474.96
679.04	28465.60
679.18	28177.71
679.31	27723.65
679.45	28112.17
679.59	27786.84
679.73	27927.27
679.87	27873.44
680.00	28058.34
680.14	27821.95
680.28	27440.44
680.42	27580.87
680.56	28056.00
680.70	27314.05
680.83	27082.34
680.97	27094.04
681.11	27042.55
681.25	27248.52
681.39	26876.37
681.52	26969.99
681.66	26513.59
681.80	26808.50
681.94	26684.45
682.07	26415.29
682.21	26382.52
682.35	26136.76
682.49	26232.72
682.62	26122.72
682.76	26298.26
682.90	26012.71
683.04	26001.01
683.17	26141.44
683.31	25671.00
683.45	25865.26
683.59	25628.87
683.72	25448.64
683.86	25252.04
684.00	24989.90
684.13	25319.92
684.27	25385.45
684.41	25345.66
684.55	24971.18
684.68	25001.60
684.82	25006.28
684.96	25003.94
685.09	25015.65
685.23	24835.42
685.37	24622.44
685.50	24636.48
685.64	24390.72
685.78	24339.23
685.91	24205.82
686.05	24044.32
686.19	23718.99
686.32	23805.59
686.46	23868.78
686.60	23384.29
686.73	23398.34
686.87	23152.58
687.01	23117.47
687.14	23456.85
687.28	23147.90
687.42	22876.40
687.55	23007.47
687.69	23040.23
687.82	22960.66
687.96	22972.36
688.10	22670.43
688.23	22609.58
688.37	22405.95
688.50	22038.48
688.64	22427.01
688.78	22651.70
688.91	22115.72
689.05	22164.87
689.18	22232.75
689.32	22015.08
689.46	22022.10
689.59	22129.77
689.73	22230.41
689.86	21916.78
690.00	21830.18
690.13	21577.40
690.27	21673.36
690.41	21652.30
690.54	21046.10
690.68	21366.75
690.81	21263.77
690.95	20744.17
691.08	21338.66
691.22	20957.16
691.35	20856.51
691.49	20781.62
691.62	21228.66
691.76	20868.22
691.89	20783.96
692.03	20563.95
692.16	20367.34
692.30	20294.79
692.43	20271.38
692.57	19960.09
692.70	20121.59
692.84	20093.50
692.97	19634.75
693.11	19695.61
693.24	19913.28
693.38	19683.91
693.51	19585.60
693.65	19704.97
693.78	19873.49
693.92	19295.38
694.05	19346.87
694.19	19297.72
694.32	19047.28
694.45	19241.54
694.59	19391.34
694.72	19035.58
694.86	19030.90
694.99	18913.87
695.13	18948.98
695.26	18485.55
695.39	18661.09
695.53	18405.97
695.66	18593.22
695.80	18218.73
695.93	18246.82
696.07	18059.57
696.20	18115.75
696.33	18122.77
696.47	18054.89
696.60	18087.66
696.73	18015.10
696.87	17645.30
697.00	17626.57
697.14	17476.78
697.27	17568.06
697.40	17680.41
697.54	17532.95
697.67	17289.54
697.80	17497.84
697.94	17135.06
698.07	17326.99
698.21	16889.31
698.34	17280.18
698.47	16882.28
698.61	16940.80
698.74	16545.25
698.87	16727.81
699.01	16465.67
699.14	16388.43
699.27	16233.96
699.40	16100.55
699.54	16198.85
699.67	16166.08
699.80	16145.02
699.94	16030.33
700.07	16063.10
700.20	16020.97
700.34	15969.48
700.47	15850.11
700.60	15981.18
700.73	16002.24
700.87	15674.57
701.00	15768.19
701.13	15704.99
701.26	15506.05
701.40	15480.30
701.53	15356.25
701.66	14972.41
701.79	15227.53
701.93	15180.71
702.06	14831.97
702.19	15040.28
702.32	14972.41
702.46	14827.29
702.59	14696.22
702.72	14736.01
702.85	14548.77
702.99	14658.78
703.12	14618.99
703.25	14518.34
703.38	14745.38
703.51	14354.51
703.65	14178.97
703.78	14270.25
703.91	14017.47
704.04	14162.58
704.17	13989.38
704.31	13926.19
704.44	13874.70
704.57	13518.93
704.70	13767.03
704.83	13547.02
704.96	13752.99
705.10	13797.46
705.23	13846.61
>>>>>End Processed Spectral Data<<<<<
