SpectraSuite Data File
++++++++++++++++++++++++++++++++++++
Date: Fri Oct 25 10:43:56 EDT 2013
User: price-jones
Dark Spectrum Present: No
Reference Spectrum Present: No
Number of Sampled Component Spectra: 1
Spectrometers: USB2+H05261
Integration Time (usec): 100000 (USB2+H05261)
Spectra Averaged: 1 (USB2+H05261)
Boxcar Smoothing: 0 (USB2+H05261)
Correct for Electrical Dark: No (USB2+H05261)
Strobe/Lamp Enabled: No (USB2+H05261)
Correct for Detector Non-linearity: No (USB2+H05261)
Correct for Stray Light: No (USB2+H05261)
Number of Pixels in Processed Spectrum: 2048
>>>>>Begin Processed Spectral Data<<<<<
365.73	110.01
365.92	110.01
366.12	110.01
366.32	0.00
366.52	14.04
366.72	67.88
366.91	2.34
367.11	4.68
367.31	0.00
367.51	11.70
367.70	30.43
367.90	56.17
368.10	0.00
368.30	79.58
368.49	0.00
368.69	65.54
368.89	35.11
369.09	42.13
369.28	32.77
369.48	84.26
369.68	58.51
369.87	88.94
370.07	84.26
370.27	102.98
370.47	198.95
370.66	402.57
370.86	447.04
371.06	535.98
371.25	477.47
371.45	461.09
371.65	440.02
371.84	461.09
372.04	418.96
372.24	440.02
372.44	519.60
372.63	552.37
372.83	507.90
373.03	475.13
373.22	550.03
373.42	458.74
373.62	535.98
373.81	594.50
374.01	566.41
374.21	578.11
374.40	526.62
374.60	564.07
374.79	559.39
374.99	627.26
375.19	568.75
375.38	505.56
375.58	498.53
375.78	573.43
375.97	648.33
376.17	580.45
376.37	512.58
376.56	627.26
376.76	629.60
376.95	631.94
377.15	671.73
377.35	725.57
377.54	732.59
377.74	681.10
377.93	641.31
378.13	664.71
378.33	596.84
378.52	645.99
378.72	674.07
378.91	645.99
379.11	713.86
379.31	674.07
379.50	648.33
379.70	685.78
379.89	683.44
380.09	730.25
380.28	751.31
380.48	732.59
380.68	634.29
380.87	737.27
381.07	713.86
381.26	840.25
381.46	774.72
381.65	727.91
381.85	758.33
382.04	716.20
382.24	660.03
382.43	681.10
382.63	718.54
382.83	809.83
383.02	812.17
383.22	763.01
383.41	770.04
383.61	830.89
383.80	788.76
384.00	697.48
384.19	854.30
384.39	851.96
384.58	755.99
384.78	823.87
384.97	870.68
385.17	807.48
385.36	833.23
385.56	842.59
385.75	830.89
385.95	828.55
386.14	910.47
386.34	924.51
386.53	779.40
386.72	901.11
386.92	896.43
387.11	950.26
387.31	917.49
387.50	943.24
387.70	889.40
387.89	926.85
388.09	877.70
388.28	903.45
388.48	983.02
388.67	924.51
388.86	954.94
389.06	936.21
389.25	994.73
389.45	978.34
389.64	966.64
389.84	1076.65
390.03	1111.75
390.22	1046.22
390.42	1060.26
390.61	952.60
390.81	1046.22
391.00	1069.62
391.19	1111.75
391.39	1060.26
391.58	1123.46
391.78	1071.97
391.97	1088.35
392.16	1041.54
392.36	1067.28
392.55	1093.03
392.75	1076.65
392.94	1032.18
393.13	1020.47
393.33	1036.86
393.52	1025.15
393.71	1221.76
393.91	1196.01
394.10	1135.16
394.29	1196.01
394.49	1158.57
394.68	1273.25
394.88	1320.06
395.07	1273.25
395.26	1256.87
395.46	1270.91
395.65	1294.32
395.84	1352.83
396.04	1282.61
396.23	1163.25
396.42	1090.69
396.62	1242.82
396.81	1224.10
397.00	1228.78
397.19	1317.72
397.39	1376.24
397.58	1451.13
397.77	1444.11
397.97	1446.45
398.16	1497.94
398.35	1530.71
398.55	1479.22
398.74	1610.29
398.93	1586.88
399.12	1474.54
399.32	1502.62
399.51	1570.50
399.70	1643.06
399.90	1657.10
400.09	1694.55
400.28	1680.50
400.47	1729.66
400.67	1643.06
400.86	1717.95
401.05	1680.50
401.24	1715.61
401.44	1706.25
401.63	1870.09
401.82	1729.66
402.01	1741.36
402.21	1781.15
402.40	1776.47
402.59	1720.29
402.78	1753.06
402.97	1809.23
403.17	1823.28
403.36	1907.54
403.55	1968.39
403.74	1867.75
403.93	1900.52
404.13	1963.71
404.32	2024.56
404.51	1956.69
404.70	1935.62
404.89	1973.07
405.09	1980.09
405.28	1966.05
405.47	2047.97
405.66	1998.82
405.85	2167.34
406.05	2043.29
406.24	2129.89
406.43	2085.42
406.62	2188.40
406.81	2235.21
407.00	2092.44
407.20	2113.50
407.39	2207.13
407.58	2265.64
407.77	2267.98
407.96	2244.57
408.15	2277.34
408.34	2258.62
408.54	2427.14
408.73	2324.15
408.92	2448.20
409.11	2399.05
409.30	2394.37
409.49	2387.35
409.68	2497.35
409.87	2246.91
410.07	2455.22
410.26	2478.63
410.45	2401.39
410.64	2539.48
410.83	2527.78
411.02	2558.21
411.21	2698.64
411.40	2593.31
411.59	2691.62
411.78	2761.83
411.98	2633.10
412.17	2775.88
412.36	2778.22
412.55	2850.77
412.74	2857.79
412.93	2855.45
413.12	2862.48
413.31	3028.65
413.50	2867.16
413.69	2867.16
413.88	3038.02
414.07	2970.14
414.26	3119.93
414.45	3038.02
414.64	2979.50
414.83	3126.96
415.02	3194.83
415.22	3185.47
415.41	3267.39
415.60	3199.51
415.79	3382.07
415.98	3293.13
416.17	3281.43
416.36	3475.70
416.55	3431.23
416.74	3365.69
416.93	3323.56
417.12	3344.63
417.31	3330.58
417.50	3379.73
417.69	3564.64
417.88	3492.08
418.07	3576.34
418.26	3623.15
418.45	3463.99
418.64	3693.37
418.83	3763.58
419.02	3599.74
419.21	3779.97
419.39	3604.42
419.58	3655.92
419.77	3709.75
419.96	3791.67
420.15	3796.35
420.34	3691.02
420.53	3894.65
420.72	3983.59
420.91	3871.25
421.10	3873.59
421.29	4049.13
421.48	3875.93
421.67	3955.51
421.86	3822.09
422.05	3911.04
422.24	3817.41
422.43	3957.85
422.61	3969.55
422.80	3969.55
422.99	4039.76
423.18	4044.45
423.37	4135.73
423.56	3971.89
423.75	4105.30
423.94	4028.06
424.13	3808.05
424.32	3817.41
424.50	4021.04
424.69	4098.28
424.88	4159.13
425.07	4004.66
425.26	4037.42
425.45	4093.60
425.64	4166.15
425.83	4161.47
426.01	4067.85
426.20	4028.06
426.39	4154.45
426.58	4035.08
426.77	4028.06
426.96	4102.96
427.15	4161.47
427.33	4234.03
427.52	4187.22
427.71	4327.65
427.90	4290.20
428.09	4339.35
428.28	4329.99
428.46	4252.75
428.65	4285.52
428.84	4449.36
429.03	4395.53
429.22	4241.05
429.40	4273.82
429.59	4276.16
429.78	3962.53
429.97	4016.36
430.16	4074.87
430.34	4107.64
430.53	4308.93
430.72	4334.67
430.91	4400.21
431.10	4397.87
431.28	4870.65
431.47	4901.08
431.66	4880.02
431.85	4751.29
432.03	4823.84
432.22	4716.18
432.41	4826.18
432.60	4805.12
432.79	5011.09
432.97	4919.81
433.16	4798.10
433.35	4910.44
433.54	4917.47
433.72	4926.83
433.91	4891.72
434.10	4828.53
434.28	4882.36
434.47	4926.83
434.66	5132.79
434.85	5048.54
435.03	5041.51
435.22	5144.50
435.41	5224.08
435.59	5163.22
435.78	5392.59
435.97	5430.04
436.16	5348.12
436.34	5348.12
436.53	5294.29
436.72	5425.36
436.90	5296.63
437.09	5345.78
437.28	5289.61
437.46	5406.64
437.65	5364.51
437.84	5317.70
438.02	5273.23
438.21	5486.22
438.40	5352.81
438.58	5371.53
438.77	5678.14
438.96	5596.22
439.14	5731.97
439.33	5792.83
439.52	5738.99
439.70	5834.96
439.89	5724.95
440.08	5818.57
440.26	5916.87
440.45	6017.52
440.63	6148.59
440.82	6160.29
441.01	6050.28
441.19	6207.10
441.38	6335.83
441.57	6417.75
441.75	6230.51
441.94	6499.67
442.12	6483.28
442.31	6546.48
442.50	6572.22
442.68	6497.33
442.87	6434.13
443.05	6609.67
443.24	6703.29
443.43	6630.74
443.61	6733.72
443.80	6909.26
443.98	6626.06
444.17	6628.40
444.35	6703.29
444.54	6904.58
444.73	6789.89
444.91	6820.32
445.10	6579.25
445.28	6665.85
445.47	6642.44
445.65	6745.42
445.84	6740.74
446.02	6906.92
446.21	6757.13
446.39	6691.59
446.58	6782.87
446.77	6960.75
446.95	6705.63
447.14	6918.62
447.32	7002.88
447.51	6857.77
447.69	6834.36
447.88	6951.39
448.06	6991.18
448.25	6869.47
448.43	7075.44
448.62	6995.86
448.80	6848.41
448.99	6878.83
449.17	7119.91
449.36	7059.06
449.54	7098.84
449.73	7253.32
449.91	7382.05
450.10	7445.24
450.28	7368.01
450.46	7393.75
450.65	7456.95
450.83	7510.78
451.02	7541.21
451.20	7456.95
451.39	7426.52
451.57	7478.01
451.76	7297.79
451.94	7473.33
452.13	7485.03
452.31	7583.34
452.49	7232.26
452.68	7410.14
452.86	7447.58
453.05	7676.96
453.23	7454.61
453.42	7627.81
453.60	7545.89
453.78	7751.85
453.97	7616.10
454.15	7660.57
454.34	7620.78
454.52	7801.01
454.70	7660.57
454.89	7791.64
455.07	7763.56
455.26	7887.61
455.44	7988.25
455.62	7941.44
455.81	7901.65
455.99	7892.29
456.17	8011.65
456.36	8021.02
456.54	8346.35
456.73	8358.05
456.91	8484.44
457.09	8358.05
457.28	8603.81
457.46	8362.73
457.64	8341.67
457.83	8297.20
458.01	8154.43
458.19	8524.23
458.38	8322.94
458.56	8657.64
458.74	8751.26
458.93	8662.32
459.11	8610.83
459.29	8713.81
459.48	8624.87
459.66	8608.49
459.84	8648.28
460.03	8985.32
460.21	8798.07
460.39	8847.22
460.57	8784.03
460.76	8856.59
460.94	8875.31
461.12	8819.14
461.31	8875.31
461.49	8891.70
461.67	8971.27
461.85	9228.73
462.04	8786.37
462.22	9172.56
462.40	9413.63
462.59	9085.96
462.77	9207.67
462.95	9254.48
463.13	9207.67
463.32	9057.87
463.50	9301.29
463.68	9048.51
463.86	9179.58
464.05	9177.24
464.23	9174.90
464.41	9418.32
464.59	9018.08
464.78	9525.98
464.96	9479.17
465.14	9317.67
465.32	9650.03
465.50	9643.01
465.69	9582.15
465.87	9680.46
466.05	9287.25
466.23	9563.43
466.41	9399.59
466.60	9479.17
466.78	9390.23
466.96	9584.49
467.14	9514.28
467.32	9654.71
467.51	9736.63
467.69	9535.34
467.87	9556.41
468.05	9900.47
468.23	9778.76
468.41	9593.86
468.60	9635.99
468.78	9980.04
468.96	9785.78
469.14	9888.76
469.32	10148.56
469.50	9734.29
469.69	9940.26
469.87	10031.54
470.05	9973.02
470.23	10204.74
470.41	10024.51
470.59	10125.16
470.77	10291.34
470.95	10235.16
471.14	10387.30
471.32	10328.78
471.50	10621.35
471.68	10684.55
471.86	10602.63
472.04	10693.91
472.22	10846.04
472.40	10661.14
472.58	10670.50
472.77	10764.12
472.95	10953.71
473.13	11206.48
473.31	10808.59
473.49	10810.93
473.67	11096.48
473.85	10988.82
474.03	11311.81
474.21	11225.21
474.39	11419.47
474.57	11580.97
474.75	11311.81
474.93	11531.82
475.12	11431.18
475.30	11693.32
475.48	11543.52
475.66	11779.92
475.84	11651.19
476.02	11653.53
476.20	11559.91
476.38	12121.63
476.56	12123.98
476.74	11983.54
476.92	12320.58
477.10	12248.02
477.28	12297.17
477.46	12210.57
477.64	12442.29
477.82	12683.36
478.00	13053.17
478.18	12879.97
478.36	13125.72
478.54	12896.35
478.72	13018.06
478.90	13327.01
479.08	13422.97
479.26	13341.05
479.44	13483.83
479.62	13741.29
479.80	13710.86
479.98	13858.31
480.16	14148.54
480.34	14038.53
480.52	14071.30
480.70	14099.39
480.88	14183.65
481.06	14221.10
481.24	14377.91
481.41	14633.03
481.59	14796.87
481.77	14850.70
481.95	14796.87
482.13	15122.20
482.31	14958.36
482.49	15286.04
482.67	15215.82
482.85	15506.05
483.03	15571.58
483.21	15908.62
483.39	15690.95
483.57	15662.86
483.74	15974.16
483.92	16149.70
484.10	16205.87
484.28	16531.20
484.46	16400.13
484.64	16688.02
484.82	16194.17
485.00	16664.61
485.18	16872.92
485.35	16985.27
485.53	16788.66
485.71	16659.93
485.89	16816.75
486.07	16802.71
486.25	17041.44
486.43	17228.68
486.61	17610.19
486.78	18015.10
486.96	17743.60
487.14	18174.26
487.32	18181.28
487.50	18628.32
487.68	18490.23
487.85	18665.77
488.03	19332.82
488.21	19157.28
488.39	19236.86
488.57	19089.41
488.75	19105.79
488.92	19541.13
489.10	19646.46
489.28	19674.54
489.46	20285.42
489.64	20084.14
489.81	20554.58
489.99	20840.13
490.17	20664.59
490.35	20793.32
490.53	20762.89
490.70	21034.39
490.88	21135.04
491.06	21315.26
491.24	21404.20
491.41	21153.76
491.59	21188.87
491.77	21113.97
491.95	21715.49
492.13	21982.31
492.30	22113.38
492.48	22038.48
492.66	22284.24
492.84	22628.30
493.01	22824.90
493.19	22473.82
493.37	22717.24
493.54	22967.68
493.72	23110.45
493.90	23377.27
494.08	23655.79
494.25	23618.35
494.43	23828.99
494.61	24009.22
494.79	23934.32
494.96	23889.85
495.14	24201.14
495.32	24463.28
495.49	24357.96
495.67	24739.46
495.85	25029.69
496.02	25010.96
496.20	24809.68
496.38	25167.78
496.55	25069.48
496.73	25326.94
496.91	25965.90
497.09	25818.45
497.26	25715.47
497.44	25596.10
497.62	26057.18
497.79	26059.52
497.97	25661.63
498.14	26092.29
498.32	25982.29
498.50	26064.21
498.67	26916.16
498.85	26845.94
499.03	26707.85
499.20	26881.05
499.38	26862.33
499.56	26955.95
499.73	27040.21
499.91	27295.33
500.08	27482.57
500.26	26806.16
500.44	27236.81
500.61	27477.89
500.79	27091.70
500.97	27157.24
501.14	27775.14
501.32	27634.71
501.49	27695.56
501.67	27730.67
501.84	28371.97
502.02	27955.36
502.20	28926.68
502.37	28697.31
502.55	28451.55
502.72	28840.08
502.90	28676.24
503.07	28678.58
503.25	28877.53
503.43	28957.11
503.60	29024.98
503.78	28837.74
503.95	28856.46
504.13	29083.50
504.30	29387.77
504.48	29439.26
504.65	29724.80
504.83	29649.91
505.01	29701.40
505.18	29886.30
505.36	30345.05
505.53	30391.86
505.71	30478.46
505.88	30368.45
506.06	30108.65
506.23	30274.83
506.41	30368.45
506.58	30756.98
506.76	30361.43
506.93	30808.47
507.11	30539.31
507.28	30902.09
507.46	30991.03
507.63	30630.59
507.81	30976.99
507.98	30595.48
508.16	30904.43
508.33	31452.12
508.50	31510.63
508.68	31522.34
508.85	31620.64
509.03	31714.26
509.20	31824.26
509.38	32004.49
509.55	31983.42
509.73	31821.92
509.90	32280.67
510.08	32006.83
510.25	31915.54
510.42	32219.81
510.60	32519.40
510.77	32620.05
510.95	32685.58
511.12	32886.87
511.30	32739.41
511.47	33167.73
511.64	32987.51
511.82	33062.41
511.99	32664.52
512.17	32879.85
512.34	32828.35
512.51	33259.01
512.69	33214.54
512.86	33453.28
513.04	34019.69
513.21	33652.22
513.38	33261.35
513.56	33778.61
513.73	33848.83
513.90	33727.12
514.08	33593.71
514.25	33750.52
514.43	33897.98
514.60	34256.08
514.77	34686.74
514.95	34071.18
515.12	34309.91
515.29	34511.20
515.47	34370.77
515.64	34934.84
515.81	34473.75
515.99	35103.35
516.16	34553.33
516.33	34223.31
516.51	34279.49
516.68	34375.45
516.85	34007.98
517.03	33902.66
517.20	34768.66
517.37	35086.97
517.54	34848.24
517.72	35140.80
517.89	34352.04
518.06	34792.06
518.24	34752.27
518.41	34911.43
518.58	35271.87
518.75	35314.00
518.93	35566.78
519.10	35709.55
519.27	35651.04
519.45	36051.27
519.62	36105.10
519.79	35995.10
519.96	36196.38
520.14	36175.32
520.31	35637.00
520.48	36123.83
520.65	36102.76
520.83	36891.52
521.00	36694.92
521.17	36847.05
521.34	36898.55
521.52	37092.81
521.69	36662.15
521.86	36987.49
522.03	37174.73
522.20	36994.51
522.38	37109.19
522.55	37034.30
522.72	37266.01
522.89	37062.38
523.07	37593.68
523.24	37263.67
523.41	37867.53
523.58	37640.50
523.75	38085.20
523.92	38291.16
524.10	37851.14
524.27	38162.43
524.44	37780.93
524.61	38181.16
524.78	38288.82
524.96	38099.24
525.13	38426.92
525.30	38717.14
525.47	38721.82
525.64	38057.11
525.81	38370.74
525.98	37935.40
526.16	38082.86
526.33	37961.15
526.50	38302.87
526.67	37968.17
526.84	37928.38
527.01	38504.15
527.18	38527.56
527.36	38785.02
527.53	39002.69
527.70	39161.84
527.87	39391.22
528.04	38923.11
528.21	39065.88
528.38	39248.44
528.55	39882.73
528.72	39878.05
528.89	39613.57
529.07	39997.41
529.24	39700.17
529.41	39519.95
529.58	39133.76
529.75	39470.79
529.92	39526.97
530.09	39995.07
530.26	40020.82
530.43	39723.57
530.60	39786.77
530.77	39840.60
530.94	40416.37
531.11	40046.57
531.28	40212.74
531.46	40456.16
531.63	40495.95
531.80	40566.16
531.97	40500.63
532.14	39988.05
532.31	40107.42
532.48	39894.43
532.65	40421.05
532.82	40289.98
532.99	40428.07
533.16	40369.56
533.33	40847.03
533.50	41062.36
533.67	41015.55
533.84	40559.14
534.01	40680.85
534.18	40788.52
534.35	41132.57
534.52	41256.62
534.69	41696.64
534.86	41696.64
535.03	41160.66
535.20	41736.43
535.37	42106.24
535.54	41645.15
535.71	41600.68
535.88	41846.44
536.05	41413.44
536.22	41673.24
536.38	41904.95
536.55	41301.09
536.72	41574.94
536.89	41516.42
537.06	41647.49
537.23	41977.51
537.40	41937.72
537.57	41488.34
537.74	42164.75
537.91	42073.47
538.08	41904.95
538.25	41708.35
538.42	42017.30
538.59	42710.10
538.75	41661.54
538.92	42057.09
539.09	42361.36
539.26	41989.21
539.43	42050.06
539.60	41902.61
539.77	42131.98
539.94	42359.02
540.11	42019.64
540.28	42373.06
540.44	42157.73
540.61	42410.51
540.78	42148.37
540.95	42330.93
541.12	42209.22
541.29	42464.34
541.46	42478.38
541.62	42672.65
541.79	43023.73
541.96	42361.36
542.13	43110.33
542.30	42553.28
542.47	42913.72
542.63	42574.34
542.80	43360.76
542.97	43271.82
543.14	43533.96
543.31	43625.25
543.48	43126.71
543.64	43770.36
543.81	43557.37
543.98	43985.69
544.15	43599.50
544.32	43529.28
544.48	43955.26
544.65	43917.81
544.82	43955.26
544.99	43606.52
545.16	43880.36
545.32	43892.07
545.49	44151.87
545.66	43999.73
545.83	44009.09
546.00	43906.11
546.16	43995.05
546.33	44102.71
546.50	43564.39
546.67	43601.84
546.83	43737.59
547.00	43966.96
547.17	44032.50
547.34	43629.93
547.50	43929.51
547.67	44355.49
547.84	44074.63
548.00	44774.45
548.17	44669.12
548.34	44718.28
548.51	44755.72
548.67	44758.06
548.84	44210.38
549.01	44406.98
549.18	44713.59
549.34	44575.50
549.51	44676.15
549.68	44664.44
549.84	44622.31
550.01	45125.53
550.18	44538.05
550.34	44289.96
550.51	44554.44
550.68	44783.81
550.84	44605.93
551.01	44910.20
551.18	44863.39
551.34	45008.50
551.51	44994.46
551.68	45106.80
551.84	45088.08
552.01	45216.81
552.18	45212.13
552.34	44769.77
552.51	44687.85
552.68	45214.47
552.84	45303.41
553.01	45277.66
553.18	44772.11
553.34	45390.01
553.51	44741.68
553.67	45139.57
553.84	45570.23
554.01	45418.10
554.17	45675.55
554.34	45890.88
554.51	45303.41
554.67	45450.86
554.84	45504.70
555.00	45584.27
555.17	45123.19
555.33	45408.73
555.50	45801.94
555.67	45392.35
555.83	45720.02
556.00	45350.22
556.16	45755.13
556.33	45317.45
556.50	45684.92
556.66	45689.60
556.83	45612.36
556.99	45811.31
557.16	46204.52
557.32	45968.12
557.49	45975.14
557.65	45605.34
557.82	45661.51
557.98	45727.05
558.15	45858.12
558.32	45614.70
558.48	45635.77
558.65	45614.70
558.81	45771.52
558.98	45851.09
559.14	45638.11
559.31	45832.37
559.47	45830.03
559.64	46061.74
559.80	45982.16
559.97	45965.78
560.13	45343.20
560.30	45925.99
560.46	45890.88
560.63	46281.75
560.79	46234.94
560.96	46167.07
561.12	45916.63
561.29	45612.36
561.45	46258.35
561.61	45928.33
561.78	45918.97
561.94	45633.42
562.11	45902.59
562.27	45752.79
562.44	45949.40
562.60	46344.95
562.77	46176.43
562.93	46113.23
563.10	46527.51
563.26	46248.99
563.42	46300.48
563.59	46384.74
563.75	46024.29
563.92	46267.71
564.08	46061.74
564.24	46209.20
564.41	46146.00
564.57	46323.88
564.74	46192.81
564.90	46466.66
565.07	46295.80
565.23	46653.90
565.39	46265.37
565.56	46473.68
565.72	45832.37
565.88	46344.95
566.05	46181.11
566.21	46080.47
566.38	45827.69
566.54	46288.77
566.70	46288.77
566.87	46827.10
567.03	46665.60
567.19	47086.90
567.36	46796.67
567.52	46478.36
567.68	46700.71
567.85	46181.11
568.01	46094.51
568.17	46394.10
568.34	46630.49
568.50	46389.42
568.66	46181.11
568.83	46384.74
568.99	46061.74
569.15	46174.09
569.32	46806.03
569.48	45965.78
569.64	46904.34
569.81	46522.83
569.97	46696.03
570.13	46312.18
570.30	46731.14
570.46	46199.83
570.62	46021.95
570.78	46270.05
570.95	46239.62
571.11	46630.49
571.27	46199.83
571.43	46480.70
571.60	46443.25
571.76	46466.66
571.92	46958.17
572.09	46150.68
572.25	46593.04
572.41	46705.39
572.57	46775.61
572.74	47009.66
572.90	46239.62
573.06	46433.89
573.22	46990.94
573.38	46777.95
573.55	46831.78
573.71	46719.43
573.87	46981.57
574.03	47023.70
574.20	46766.24
574.36	46623.47
574.52	46541.55
574.68	46808.37
574.84	46866.89
575.01	46527.51
575.17	46806.03
575.33	46136.64
575.49	46513.47
575.65	46904.34
575.82	46754.54
575.98	46473.68
576.14	46663.26
576.30	46990.94
576.46	46763.90
576.62	46272.39
576.79	46363.67
576.95	46616.45
577.11	46869.23
577.27	47077.54
577.43	46555.60
577.59	46368.35
577.75	46543.89
577.92	46307.50
578.08	46010.25
578.24	46536.87
578.40	46883.27
578.56	46745.18
578.72	46836.46
578.88	46958.17
579.04	46707.73
579.21	46522.83
579.37	46337.93
579.53	46588.36
579.69	46220.90
579.85	46326.22
580.01	46883.27
580.17	46405.80
580.33	46635.17
580.49	46494.74
580.65	46817.74
580.82	46546.23
580.98	46583.68
581.14	46382.40
581.30	46960.51
581.46	46628.15
581.62	46714.75
581.78	46780.29
581.94	46693.69
582.10	46653.90
582.26	46787.31
582.42	47288.18
582.58	47297.55
582.74	46787.31
582.90	46897.31
583.06	46714.75
583.22	46986.25
583.38	46997.96
583.54	46967.53
583.70	47056.47
583.86	46628.15
584.02	46429.21
584.18	46916.04
584.34	46899.65
584.50	46686.67
584.66	46796.67
584.82	46499.42
584.98	46953.49
585.14	46625.81
585.30	46611.77
585.46	46630.49
585.62	46244.30
585.78	46637.51
585.94	46068.76
586.10	47021.36
586.26	46450.27
586.42	46979.23
586.58	47117.32
586.74	47037.75
586.90	46260.69
587.06	46689.01
587.22	46681.98
587.38	46614.11
587.54	47187.54
587.70	46775.61
587.86	46401.12
588.02	46820.08
588.18	46841.14
588.34	46557.94
588.49	45930.67
588.65	46176.43
588.81	46176.43
588.97	46246.65
589.13	46064.08
589.29	46433.89
589.45	46609.43
589.61	46440.91
589.77	46745.18
589.93	47168.82
590.08	46904.34
590.24	46710.07
590.40	47257.76
590.56	47217.97
590.72	46923.06
590.88	46894.97
591.04	46546.23
591.20	47299.89
591.35	47124.35
591.51	47519.90
591.67	46885.61
591.83	46822.42
591.99	46784.97
592.15	46731.14
592.31	46707.73
592.46	46902.00
592.62	47250.74
592.78	47213.29
592.94	47281.16
593.10	46761.56
593.26	47098.60
593.41	47356.06
593.57	46815.40
593.73	46731.14
593.89	47133.71
594.05	46562.62
594.20	47229.67
594.36	46684.33
594.52	46791.99
594.68	46684.33
594.84	46983.91
594.99	46909.02
595.15	46649.22
595.31	47299.89
595.47	46927.74
595.62	46791.99
595.78	46902.00
595.94	47147.75
596.10	47285.84
596.25	47129.03
596.41	47068.17
596.57	46988.60
596.73	47040.09
596.88	46600.07
597.04	46789.65
597.20	46637.51
597.36	46960.51
597.51	47185.20
597.67	47086.90
597.83	46923.06
597.99	47262.44
598.14	46836.46
598.30	46761.56
598.46	46457.29
598.61	46944.12
598.77	46347.29
598.93	46897.31
599.09	47035.41
599.24	47253.08
599.40	47206.26
599.56	46866.89
599.71	47014.34
599.87	47154.77
600.03	46745.18
600.18	46745.18
600.34	46972.21
600.50	47122.01
600.65	46920.72
600.81	46857.52
600.97	47150.09
601.12	47234.35
601.28	47323.29
601.44	46506.44
601.59	46672.62
601.75	46923.06
601.91	46990.94
602.06	46869.23
602.22	46700.71
602.37	46883.27
602.53	46691.35
602.69	47154.77
602.84	46843.48
603.00	46712.41
603.16	47023.70
603.31	46677.30
603.47	46960.51
603.62	46808.37
603.78	47004.98
603.94	47182.86
604.09	46986.25
604.25	46887.95
604.40	46794.33
604.56	46506.44
604.71	46862.21
604.87	46749.86
605.03	46714.75
605.18	46817.74
605.34	46541.55
605.49	46239.62
605.65	46637.51
605.80	46883.27
605.96	46747.52
606.12	47178.18
606.27	47063.49
606.43	46553.26
606.58	47054.13
606.74	46646.88
606.89	46916.04
607.05	46375.37
607.20	46358.99
607.36	47112.64
607.51	46972.21
607.67	46768.58
607.82	46728.80
607.98	46358.99
608.13	46476.02
608.29	46429.21
608.44	45848.75
608.60	45944.72
608.75	46635.17
608.91	46696.03
609.06	46459.63
609.22	46333.24
609.37	46520.49
609.53	46616.45
609.68	46583.68
609.84	46387.08
609.99	46010.25
610.15	46017.27
610.30	46223.24
610.46	45996.21
610.61	46497.08
610.76	46469.00
610.92	46440.91
611.07	46504.10
611.23	46288.77
611.38	46241.96
611.54	46155.36
611.69	45909.61
611.84	45930.67
612.00	45752.79
612.15	46263.03
612.31	45956.42
612.46	46218.56
612.62	46134.30
612.77	46230.26
612.92	46120.26
613.08	45717.68
613.23	45830.03
613.39	45970.46
613.54	45874.50
613.69	45895.56
613.85	45633.42
614.00	45806.62
614.15	45858.12
614.31	45698.96
614.46	46169.41
614.62	46160.05
614.77	45631.08
614.92	45975.14
615.08	45750.45
615.23	45830.03
615.38	45645.13
615.54	45603.00
615.69	45684.92
615.84	45420.44
616.00	45654.49
616.15	45125.53
616.30	45640.45
616.46	45670.87
616.61	45436.82
616.76	45233.19
616.92	45006.16
617.07	45184.04
617.22	45258.94
617.37	45130.21
617.53	45762.15
617.68	45717.68
617.83	44996.80
617.99	45130.21
618.14	45027.23
618.29	45537.46
618.45	44957.01
618.60	44484.22
618.75	44971.05
618.90	44762.75
619.06	44699.55
619.21	44980.42
619.36	44924.24
619.51	44926.58
619.67	44858.71
619.82	44973.39
619.97	44884.45
620.12	45132.55
620.28	44507.63
620.43	44591.89
620.58	44720.62
620.73	44603.59
620.89	44671.46
621.04	45153.62
621.19	44772.11
621.34	44737.00
621.49	44722.96
621.65	44271.23
621.80	45265.96
621.95	44610.61
622.10	44821.26
622.25	44189.31
622.41	44458.48
622.56	44622.31
622.71	44329.75
622.86	44641.04
623.01	44570.82
623.16	44304.00
623.32	44472.52
623.47	44151.87
623.62	44231.44
623.77	44243.15
623.92	44236.12
624.07	44332.09
624.23	44163.57
624.38	44165.91
624.53	44004.41
624.68	43866.32
624.83	44243.15
624.98	44130.80
625.13	43665.03
625.29	44231.44
625.44	43573.75
625.59	43615.88
625.74	42918.40
625.89	43482.47
626.04	43522.26
626.19	43770.36
626.34	43686.10
626.49	44194.00
626.65	43854.62
626.80	43665.03
626.95	43304.59
627.10	43423.96
627.25	43236.72
627.40	43000.32
627.55	43353.74
627.70	43065.86
627.85	43192.25
628.00	43110.33
628.15	43461.41
628.30	43428.64
628.45	43456.73
628.60	43407.58
628.76	42827.12
628.91	43409.92
629.06	43196.93
629.21	42960.53
629.36	43014.37
629.51	43217.99
629.66	43000.32
629.81	42457.32
629.96	43239.06
630.11	42642.22
630.26	43480.13
630.41	43037.77
630.56	42447.96
630.71	42529.87
630.86	42864.57
631.01	42829.46
631.16	42553.28
631.31	42557.96
631.46	42508.81
631.61	42820.10
631.76	42422.21
631.91	42337.95
632.06	42897.34
632.21	42689.03
632.36	43035.43
632.51	42405.83
632.66	42342.63
632.81	42384.76
632.96	42480.72
633.10	42237.31
633.25	42103.90
633.40	42478.38
633.55	42230.29
633.70	42623.50
633.85	42127.30
634.00	42064.11
634.15	42263.05
634.30	42368.38
634.45	42394.12
634.60	41928.36
634.75	42227.95
634.90	41713.03
635.05	42082.83
635.19	41647.49
635.34	41933.04
635.49	41883.89
635.64	41734.09
635.79	41755.16
635.94	41572.60
636.09	41834.74
636.24	41713.03
636.39	41364.29
636.53	41741.11
636.68	41490.68
636.83	41954.10
636.98	41446.21
637.13	41607.70
637.28	41904.95
637.43	41722.39
637.57	41926.02
637.72	41329.18
637.87	41816.01
638.02	41392.37
638.17	41605.36
638.32	41790.27
638.46	40971.08
638.61	41207.47
638.76	41090.44
638.91	41560.89
639.06	41205.13
639.20	41511.74
639.35	41387.69
639.50	41326.84
639.65	41134.92
639.80	41043.63
639.94	41050.66
640.09	41258.96
640.24	41123.21
640.39	41113.85
640.54	40762.77
640.68	41031.93
640.83	40563.82
640.98	40832.99
641.13	40774.47
641.27	41214.49
641.42	40713.62
641.57	40877.46
641.72	40914.90
641.86	40711.28
642.01	40687.87
642.16	40509.99
642.31	39744.64
642.45	40521.69
642.60	39988.05
642.75	40428.07
642.90	40748.73
643.04	40390.62
643.19	40381.26
643.34	40371.90
643.48	40194.02
643.63	40769.79
643.78	40147.21
643.93	40294.66
644.07	40081.67
644.22	40549.78
644.37	40252.53
644.51	40446.80
644.66	40304.02
644.81	40165.93
644.95	40460.84
645.10	40091.04
645.25	40147.21
645.39	40222.11
645.54	39906.13
645.69	39981.03
645.83	40444.46
645.98	39910.82
646.13	40034.86
646.27	39952.94
646.42	39702.51
646.57	39929.54
646.71	39587.82
646.86	40105.08
647.00	39880.39
647.15	39835.92
647.30	39721.23
647.44	39421.64
647.59	39817.19
647.74	39466.11
647.88	39409.94
648.03	39842.94
648.17	39833.58
648.32	39732.93
648.47	40168.27
648.61	39208.65
648.76	39704.85
648.90	39388.88
649.05	39367.81
649.20	39367.81
649.34	39276.53
649.49	39225.04
649.63	38976.94
649.78	39789.11
649.92	39442.71
650.07	39739.96
650.21	39253.12
650.36	39374.83
650.51	39344.41
650.65	39629.95
650.80	39983.37
650.94	39384.19
651.09	39423.98
651.23	38909.07
651.38	39220.36
651.52	38829.49
651.67	38698.42
651.81	38642.24
651.96	39161.84
652.10	38808.42
652.25	38958.22
652.39	38684.37
652.54	38913.75
652.68	39051.84
652.83	39049.50
652.97	39054.18
653.12	38707.78
653.26	38595.43
653.41	38628.20
653.55	38611.82
653.70	38682.03
653.84	38726.50
653.99	38710.12
654.13	38345.00
654.27	38288.82
654.42	38052.43
654.56	38249.03
654.71	38218.61
654.85	38258.40
655.00	38541.60
655.14	38124.99
655.29	38120.31
655.43	38078.18
655.57	37560.92
655.72	37186.43
655.86	37684.97
656.01	37338.57
656.15	37235.58
656.30	37834.76
656.44	37743.48
656.58	37661.56
656.73	37984.55
656.87	37846.46
657.01	37706.03
657.16	38110.94
657.30	37801.99
657.45	37535.17
657.59	37701.35
657.73	37500.06
657.88	38291.16
658.02	37624.11
658.16	37741.14
658.31	37776.25
658.45	37919.02
658.60	37425.17
658.74	37525.81
658.88	37586.66
659.03	37106.85
659.17	37434.53
659.31	37366.65
659.46	37179.41
659.60	37493.04
659.74	37453.25
659.89	36666.83
660.03	36795.56
660.17	37134.94
660.32	37373.67
660.46	37251.97
660.60	36715.98
660.74	37221.54
660.89	36996.85
661.03	36353.20
661.17	36678.54
661.32	36821.31
661.46	36952.38
661.60	36980.46
661.74	36327.45
661.89	36575.55
662.03	36603.64
662.17	36570.87
662.31	36842.37
662.46	36935.99
662.60	36395.33
662.74	36840.03
662.88	36147.23
663.03	36084.04
663.17	36348.52
663.31	36236.17
663.45	35990.42
663.60	35929.56
663.74	36105.10
663.88	35754.02
664.02	35920.20
664.17	36027.87
664.31	36074.68
664.45	35583.16
664.59	35459.12
664.73	35517.63
664.88	35363.15
665.02	35065.91
665.16	35189.95
665.30	35393.58
665.44	34857.60
665.59	34759.30
665.73	35314.00
665.87	34983.99
666.01	35086.97
666.15	34925.47
666.29	35159.53
666.44	35379.54
666.58	35185.27
666.72	34927.81
666.86	34902.07
667.00	34698.44
667.14	34710.14
667.28	34424.60
667.43	34719.51
667.57	34649.29
667.71	34349.70
667.85	34534.60
667.99	34396.51
668.13	34459.71
668.27	34604.82
668.41	34445.66
668.56	34227.99
668.70	34139.05
668.84	34190.55
668.98	33860.53
669.12	33933.09
669.26	33673.29
669.40	33631.16
669.54	33795.00
669.68	33647.54
669.82	33502.43
669.96	33366.68
670.10	33486.04
670.25	33509.45
670.39	33076.45
670.53	33378.38
670.67	32914.95
670.81	33549.24
670.95	33340.93
671.09	33031.98
671.23	32938.36
671.37	33099.86
671.51	32907.93
671.65	32933.68
671.79	32723.03
671.93	32631.75
672.07	33228.59
672.21	32591.96
672.35	32608.34
672.49	32683.24
672.63	32629.41
672.77	32444.51
672.91	32545.15
673.05	32308.76
673.19	32692.60
673.33	31955.33
673.47	31948.31
673.61	31948.31
673.75	31545.74
673.89	31342.11
674.03	31365.52
674.17	31655.75
674.31	31714.26
674.45	31487.23
674.59	31353.82
674.73	31576.17
674.87	31847.67
675.01	31344.45
675.15	31314.03
675.29	30993.37
675.43	31220.41
675.56	31035.50
675.70	30356.75
675.84	30895.07
675.98	30244.40
676.12	30756.98
676.26	30749.96
676.40	31056.57
676.54	31012.10
676.68	30583.78
676.82	29979.92
676.96	30623.57
677.10	30424.62
677.23	30080.56
677.37	29649.91
677.51	30218.66
677.65	29876.94
677.79	29743.53
677.93	29319.89
678.07	29329.25
678.21	28826.04
678.34	28849.44
678.48	29523.52
678.62	29069.45
678.76	28978.17
678.90	28322.82
679.04	28673.90
679.18	28945.41
679.31	28290.06
679.45	28540.49
679.59	28240.90
679.73	28528.79
679.87	28093.45
680.00	28285.37
680.14	28217.50
680.28	28044.30
680.42	27789.18
680.56	27749.39
680.70	27812.59
680.83	27639.39
680.97	27665.13
681.11	27391.29
681.25	27381.93
681.39	27417.04
681.52	27606.62
681.66	27433.42
681.80	27468.53
681.94	26967.65
682.07	27288.31
682.21	26876.37
682.35	26852.97
682.49	27098.72
682.62	26946.59
682.76	26682.11
682.90	26366.13
683.04	26380.18
683.17	26136.76
683.31	26405.92
683.45	26178.89
683.59	25886.32
683.72	25986.97
683.86	25956.54
684.00	26003.35
684.13	25528.22
684.27	25743.55
684.41	25682.70
684.55	25553.97
684.68	25340.98
684.82	25233.32
684.96	25020.33
685.09	25338.64
685.23	25039.05
685.37	24910.32
685.50	24755.85
685.64	24961.81
685.78	24517.11
685.91	24482.00
686.05	24425.83
686.19	24013.90
686.32	24299.44
686.46	23859.42
686.60	23527.06
686.73	23541.11
686.87	23447.49
687.01	23288.33
687.14	22993.42
687.28	23014.49
687.42	23339.82
687.55	23274.29
687.69	23250.88
687.82	23283.65
687.96	23304.71
688.10	22955.97
688.23	22747.67
688.37	22897.46
688.50	22546.38
688.64	22855.33
688.78	22841.29
688.91	22635.32
689.05	22836.61
689.18	22464.46
689.32	22047.85
689.46	22342.75
689.59	22335.73
689.73	22562.76
689.86	21977.63
690.00	22155.51
690.13	22188.28
690.27	21900.39
690.41	21720.17
690.54	21359.73
690.68	21488.46
690.81	21369.09
690.95	21603.14
691.08	21223.98
691.22	21500.16
691.35	21549.31
691.49	21448.67
691.62	20929.07
691.76	21027.37
691.89	21296.53
692.03	21071.84
692.16	21015.67
692.30	20737.15
692.43	20514.80
692.57	20350.96
692.70	20257.34
692.84	20184.78
692.97	19964.77
693.11	20290.10
693.24	20098.18
693.38	19660.50
693.51	20114.56
693.65	20002.22
693.78	19761.14
693.92	19548.15
694.05	19812.63
694.19	19637.09
694.32	19398.36
694.45	19403.04
694.59	19386.66
694.72	19257.93
694.86	19005.15
694.99	18696.20
695.13	19089.41
695.26	18885.78
695.39	18902.17
695.53	19005.15
695.66	19133.88
695.80	18883.44
695.93	18555.77
696.07	18384.91
696.20	18352.14
696.33	18628.32
696.47	18246.82
696.60	17837.22
696.73	17905.10
696.87	18129.79
697.00	18169.58
697.14	17884.03
697.27	17565.72
697.40	17591.47
697.54	17532.95
697.67	17687.43
697.80	17401.88
697.94	17249.75
698.07	17104.64
698.21	17184.21
698.34	17043.78
698.47	17064.85
698.61	16992.29
698.74	17027.40
698.87	16893.99
699.01	16685.68
699.14	16877.60
699.27	16257.36
699.40	16437.58
699.54	16456.31
699.67	16442.26
699.80	16453.97
699.94	16166.08
700.07	16020.97
700.20	16407.16
700.34	16306.51
700.47	16266.72
700.60	16093.52
700.73	16152.04
700.87	15651.16
701.00	15723.72
701.13	15913.30
701.26	15468.60
701.40	15712.02
701.53	15211.14
701.66	15543.50
701.79	15323.49
701.93	15236.89
702.06	14993.47
702.19	14972.41
702.32	15178.37
702.46	15054.33
702.59	14939.64
702.72	15040.28
702.85	14850.70
702.99	15068.37
703.12	14670.48
703.25	14560.47
703.38	14420.04
703.51	14384.93
703.65	14553.45
703.78	14345.14
703.91	14197.69
704.04	14244.50
704.17	14113.43
704.31	14045.55
704.44	14162.58
704.57	14375.57
704.70	13877.04
704.83	13783.41
704.96	13776.39
705.10	13944.91
705.23	13757.67
>>>>>End Processed Spectral Data<<<<<
