SpectraSuite Data File
++++++++++++++++++++++++++++++++++++
Date: Fri Oct 25 11:33:08 EDT 2013
User: price-jones
Dark Spectrum Present: No
Reference Spectrum Present: No
Number of Sampled Component Spectra: 1
Spectrometers: USB2+H05261
Integration Time (usec): 100000 (USB2+H05261)
Spectra Averaged: 1 (USB2+H05261)
Boxcar Smoothing: 0 (USB2+H05261)
Correct for Electrical Dark: No (USB2+H05261)
Strobe/Lamp Enabled: No (USB2+H05261)
Correct for Detector Non-linearity: No (USB2+H05261)
Correct for Stray Light: No (USB2+H05261)
Number of Pixels in Processed Spectrum: 2048
>>>>>Begin Processed Spectral Data<<<<<
365.73	322.99
365.92	322.99
366.12	322.99
366.32	257.46
366.52	135.75
366.72	154.48
366.91	191.92
367.11	159.16
367.31	170.86
367.51	173.20
367.70	126.39
367.90	161.50
368.10	201.29
368.30	147.45
368.49	175.54
368.69	175.54
368.89	212.99
369.09	234.05
369.28	227.03
369.48	196.60
369.68	330.02
369.87	330.02
370.07	243.42
370.27	308.95
370.47	301.93
370.66	447.04
370.86	475.13
371.06	517.26
371.25	599.18
371.45	582.79
371.65	568.75
371.84	531.30
372.04	507.90
372.24	667.05
372.44	580.45
372.63	589.82
372.83	545.34
373.03	580.45
373.22	660.03
373.42	568.75
373.62	594.50
373.81	608.54
374.01	627.26
374.21	664.71
374.40	627.26
374.60	720.88
374.79	730.25
374.99	699.82
375.19	660.03
375.38	580.45
375.58	653.01
375.78	650.67
375.97	697.48
376.17	676.41
376.37	653.01
376.56	704.50
376.76	629.60
376.95	638.97
377.15	690.46
377.35	676.41
377.54	704.50
377.74	622.58
377.93	660.03
378.13	781.74
378.33	706.84
378.52	667.05
378.72	685.78
378.91	748.97
379.11	786.42
379.31	671.73
379.50	692.80
379.70	732.59
379.89	844.93
380.09	772.38
380.28	648.33
380.48	744.29
380.68	800.46
380.87	763.01
381.07	660.03
381.26	765.36
381.46	816.85
381.65	697.48
381.85	763.01
382.04	737.27
382.24	767.70
382.43	840.25
382.63	753.65
382.83	746.63
383.02	798.12
383.22	840.25
383.41	758.33
383.61	748.97
383.80	814.51
384.00	901.11
384.19	868.34
384.39	781.74
384.58	840.25
384.78	763.01
384.97	821.53
385.17	847.27
385.36	849.61
385.56	816.85
385.75	866.00
385.95	805.14
386.14	891.74
386.34	849.61
386.53	851.96
386.72	880.04
386.92	856.64
387.11	929.19
387.31	889.40
387.50	1013.45
387.70	884.72
387.89	891.74
388.09	905.79
388.28	961.96
388.48	847.27
388.67	1015.79
388.86	894.08
389.06	903.45
389.25	994.73
389.45	945.58
389.64	933.87
389.84	1050.90
390.03	973.66
390.22	1022.81
390.42	964.30
390.61	976.00
390.81	940.90
391.00	987.71
391.19	1057.92
391.39	1076.65
391.58	1095.37
391.78	926.85
391.97	1076.65
392.16	1013.45
392.36	1062.60
392.55	1036.86
392.75	1078.99
392.94	1006.43
393.13	985.37
393.33	1123.46
393.52	1046.22
393.71	1078.99
393.91	1125.80
394.10	983.02
394.29	1062.60
394.49	1137.50
394.68	1125.80
394.88	1109.41
395.07	1172.61
395.26	1184.31
395.46	1121.12
395.65	1144.52
395.84	1221.76
396.04	1198.35
396.23	1165.59
396.42	1261.55
396.62	1238.14
396.81	1242.82
397.00	1184.31
397.19	1308.36
397.39	1174.95
397.58	1299.00
397.77	1263.89
397.97	1362.19
398.16	1205.38
398.35	1399.64
398.55	1242.82
398.74	1198.35
398.93	1413.68
399.12	1366.87
399.32	1291.98
399.51	1411.34
399.70	1287.29
399.90	1397.30
400.09	1432.41
400.28	1327.08
400.47	1348.15
400.67	1404.32
400.86	1423.05
401.05	1540.07
401.24	1383.26
401.44	1390.28
401.63	1420.71
401.82	1444.11
402.01	1406.66
402.21	1427.73
402.40	1507.30
402.59	1500.28
402.78	1472.20
402.97	1547.09
403.17	1577.52
403.36	1474.54
403.55	1600.93
403.74	1614.97
403.93	1645.40
404.13	1565.82
404.32	1556.46
404.51	1619.65
404.70	1673.48
404.89	1645.40
405.09	1617.31
405.28	1729.66
405.47	1692.21
405.66	1755.40
405.85	1724.97
406.05	1764.76
406.24	1757.74
406.43	1856.04
406.62	1755.40
406.81	1799.87
407.00	1703.91
407.20	1834.98
407.39	1877.11
407.58	1849.02
407.77	1851.36
407.96	1832.64
408.15	1930.94
408.34	1886.47
408.54	1825.62
408.73	1834.98
408.92	2043.29
409.11	1980.09
409.30	2012.86
409.49	1984.77
409.68	1987.11
409.87	1944.99
410.07	2047.97
410.26	2115.84
410.45	2083.08
410.64	2186.06
410.83	2115.84
411.02	2148.61
411.21	2157.97
411.40	2139.25
411.59	2190.74
411.78	2221.17
411.98	2237.55
412.17	2296.07
412.36	2406.07
412.55	2300.75
412.74	2244.57
412.93	2349.90
413.12	2216.49
413.31	2520.76
413.50	2434.16
413.69	2300.75
413.88	2445.86
414.07	2567.57
414.26	2527.78
414.45	2466.92
414.64	2530.12
414.83	2647.15
415.02	2635.44
415.22	2705.66
415.41	2649.49
415.60	2738.43
415.79	2677.57
415.98	2761.83
416.17	2747.79
416.36	2743.11
416.55	2733.75
416.74	2892.90
416.93	2913.97
417.12	2825.03
417.31	2946.73
417.50	2836.73
417.69	3070.78
417.88	2944.39
418.07	2871.84
418.26	2848.43
418.45	3054.40
418.64	3084.83
418.83	3002.91
419.02	3054.40
419.21	3068.44
419.39	3105.89
419.58	3089.51
419.77	3096.53
419.96	3255.69
420.15	3339.94
420.34	3101.21
420.53	3183.13
420.72	3262.71
420.91	3435.91
421.10	3417.18
421.29	3365.69
421.48	3194.83
421.67	3339.94
421.86	3286.11
422.05	3311.86
422.24	3286.11
422.43	3309.52
422.61	3353.99
422.80	3461.65
422.99	3555.27
423.18	3346.97
423.37	3447.61
423.56	3363.35
423.75	3389.10
423.94	3346.97
424.13	3276.75
424.32	3283.77
424.50	3501.44
424.69	3709.75
424.88	3590.38
425.07	3426.54
425.26	3302.50
425.45	3344.63
425.64	3421.86
425.83	3482.72
426.01	3503.78
426.20	3452.29
426.39	3375.05
426.58	3506.12
426.77	3515.48
426.96	3609.11
427.15	3541.23
427.33	3438.25
427.52	3620.81
427.71	3613.79
427.90	3651.24
428.09	3688.68
428.28	3702.73
428.46	3674.64
428.65	3772.94
428.84	3873.59
429.03	3798.69
429.22	3763.58
429.40	3749.54
429.59	3740.18
429.78	3662.94
429.97	3634.85
430.16	3904.01
430.34	3878.27
430.53	3885.29
430.72	3833.80
430.91	3889.97
431.10	3878.27
431.28	4046.79
431.47	3967.21
431.66	3906.35
431.85	3990.61
432.03	4166.15
432.22	4114.66
432.41	4084.23
432.60	4140.41
432.79	3995.29
432.97	4128.70
433.16	4142.75
433.35	4053.81
433.54	4133.39
433.72	4091.26
433.91	4308.93
434.10	4383.82
434.28	4194.24
434.47	4156.79
434.66	4332.33
434.85	4341.69
435.03	4353.40
435.22	4306.59
435.41	4451.70
435.59	4292.54
435.78	4641.28
435.97	4367.44
436.16	4397.87
436.34	4400.21
436.53	4582.77
436.72	4596.81
436.90	4395.53
437.09	4617.88
437.28	4418.93
437.46	4648.30
437.65	4744.27
437.84	4634.26
438.02	4643.62
438.21	4683.41
438.40	4528.94
438.58	4833.21
438.77	4791.08
438.96	4737.24
439.14	4737.24
439.33	4940.87
439.52	4809.80
439.70	5008.75
439.89	5085.98
440.08	5132.79
440.26	5104.71
440.45	5174.92
440.63	5004.07
440.82	5240.46
441.01	5284.93
441.19	5240.46
441.38	5324.72
441.57	5224.08
441.75	5373.87
441.94	5376.21
442.12	5523.66
442.31	5437.06
442.50	5427.70
442.68	5357.49
442.87	5399.62
443.05	5509.62
443.24	5657.07
443.43	5488.56
443.61	5558.77
443.80	5797.51
443.98	5408.98
444.17	5476.85
444.35	5717.93
444.54	5729.63
444.73	5673.46
444.91	5816.23
445.10	5797.51
445.28	5631.33
445.47	5533.03
445.65	5905.17
445.84	5816.23
446.02	5633.67
446.21	5856.02
446.39	5858.36
446.58	5898.15
446.77	5753.04
446.95	5596.22
447.14	5839.64
447.32	5846.66
447.51	5769.42
447.69	5844.32
447.88	5738.99
448.06	5884.11
448.25	5907.51
448.43	5823.25
448.62	5898.15
448.80	5741.33
448.99	5846.66
449.17	5959.00
449.36	6054.97
449.54	6143.91
449.73	6017.52
449.91	6291.36
450.10	5989.43
450.28	6141.57
450.46	6050.28
450.65	6052.63
450.83	6246.89
451.02	6284.34
451.20	6286.68
451.39	6174.33
451.57	6303.06
451.76	6122.84
451.94	6230.51
452.13	6298.38
452.31	6310.08
452.49	6209.44
452.68	6384.98
452.86	6328.81
453.05	6532.44
453.23	6347.53
453.42	6347.53
453.60	6436.47
453.78	6623.72
453.97	6380.30
454.15	6572.22
454.34	6307.74
454.52	6647.12
454.70	6471.58
454.89	6656.48
455.07	6656.48
455.26	6750.10
455.44	6780.53
455.62	6427.11
455.81	6825.00
455.99	6792.23
456.17	6885.86
456.36	6860.11
456.54	6881.18
456.73	7009.90
456.91	7070.76
457.09	7023.95
457.28	7098.84
457.46	7061.40
457.64	7241.62
457.83	6918.62
458.01	6937.35
458.19	7337.58
458.38	7136.29
458.56	7169.06
458.74	7232.26
458.93	7384.39
459.11	7325.88
459.29	7318.86
459.48	7346.94
459.66	7412.48
459.84	7466.31
460.03	7639.51
460.21	7515.46
460.39	7475.67
460.57	7370.35
460.76	7492.05
460.94	7545.89
461.12	7534.18
461.31	7620.78
461.49	7627.81
461.67	7592.70
461.85	7990.59
462.04	7679.30
462.22	8182.51
462.40	7948.46
462.59	7712.07
462.77	7702.70
462.95	7929.74
463.13	7976.55
463.32	7995.27
463.50	7901.65
463.68	7824.41
463.86	8077.19
464.05	7882.92
464.23	8053.78
464.41	8121.66
464.59	7955.48
464.78	8252.73
464.96	8152.09
465.14	8067.83
465.32	8091.23
465.50	8184.85
465.69	8262.09
465.87	8245.71
466.05	7992.93
466.23	8351.03
466.41	8170.81
466.60	8451.67
466.78	8269.11
466.96	8325.29
467.14	8138.04
467.32	8205.92
467.51	8351.03
467.69	8182.51
467.87	8294.86
468.05	8411.89
468.23	8505.51
468.41	8439.97
468.60	8491.46
468.78	8531.25
468.96	8379.12
469.14	8631.90
469.32	8610.83
469.50	8472.74
469.69	8762.97
469.87	8943.19
470.05	8744.24
470.23	8954.89
470.41	8837.86
470.59	8975.95
470.77	8980.64
470.95	8891.70
471.14	9254.48
471.32	8929.14
471.50	9083.62
471.68	9280.22
471.86	9210.01
472.04	9263.84
472.22	9343.42
472.40	9231.07
472.58	9212.35
472.77	9282.56
472.95	9331.72
473.13	9865.36
473.31	9411.29
473.49	9638.33
473.67	9303.63
473.85	9605.56
474.03	9832.59
474.21	9760.03
474.39	9881.74
474.57	9940.26
474.75	9944.94
474.93	9902.81
475.12	9966.00
475.30	10263.25
475.48	10253.89
475.66	10181.33
475.84	10153.24
476.02	10225.80
476.20	10490.28
476.38	10595.61
476.56	10778.17
476.74	10494.96
476.92	10518.37
477.10	10609.65
477.28	10853.06
477.46	10740.72
477.64	10895.19
477.82	11035.63
478.00	11269.68
478.18	11136.27
478.36	11538.84
478.54	11337.56
478.72	11461.60
478.90	11386.71
479.08	11587.99
479.26	11943.75
479.44	11833.75
479.62	11964.82
479.80	11929.71
479.98	12140.36
480.16	12587.40
480.34	11906.31
480.52	12250.36
480.70	12435.27
480.88	12161.42
481.06	12805.07
481.24	12189.51
481.41	12709.11
481.59	12938.48
481.77	13067.21
481.95	12751.24
482.13	13242.75
482.31	13046.15
482.49	13317.65
482.67	13268.50
482.85	13736.60
483.03	13762.35
483.21	13809.16
483.39	14005.77
483.57	13891.08
483.74	13975.34
483.92	13989.38
484.10	14108.75
484.28	14492.60
484.46	14724.31
484.64	14752.40
484.82	14633.03
485.00	14705.59
485.18	15033.26
485.35	15019.22
485.53	14972.41
485.71	15241.57
485.89	15534.14
486.07	15386.68
486.25	15726.06
486.43	15672.23
486.61	15770.53
486.78	16009.26
486.96	16149.70
487.14	16198.85
487.32	16339.28
487.50	16362.69
487.68	16269.06
487.85	16783.98
488.03	16966.54
488.21	17247.41
488.39	17212.30
488.57	17195.92
488.75	17287.20
488.92	17458.06
489.10	17769.35
489.28	17593.81
489.46	17975.31
489.64	17673.39
489.81	18340.44
489.99	18300.65
490.17	18216.39
490.35	18387.25
490.53	18757.05
490.70	18951.32
490.88	18693.86
491.06	18885.78
491.24	18963.02
491.41	19126.86
491.59	19461.55
491.77	19396.02
491.95	19850.08
492.13	19417.08
492.30	19887.53
492.48	19796.25
492.66	20283.08
492.84	19756.46
493.01	20540.54
493.19	20231.59
493.37	20526.50
493.54	20514.80
493.72	21120.99
493.90	20809.70
494.08	20980.56
494.25	21057.80
494.43	21303.56
494.61	21406.54
494.79	21579.74
494.96	21125.68
495.14	21816.13
495.32	21912.10
495.49	21886.35
495.67	21860.60
495.85	22232.75
496.02	22263.18
496.20	22466.80
496.38	22530.00
496.55	22614.26
496.73	23356.21
496.91	23307.05
497.09	22984.06
497.26	22974.70
497.44	23117.47
497.62	23424.08
497.79	23424.08
497.97	23590.26
498.14	23864.10
498.32	24198.80
498.50	23737.71
498.67	24180.07
498.85	24159.01
499.03	24149.65
499.20	24278.38
499.38	24318.17
499.56	24737.12
499.73	24379.02
499.91	24851.81
500.08	24753.51
500.26	24945.43
500.44	25017.99
500.61	24922.02
500.79	24797.98
500.97	25083.52
501.14	25504.82
501.32	25659.29
501.49	25392.47
501.67	25947.18
501.84	25883.98
502.02	25748.23
502.20	25748.23
502.37	26113.36
502.55	25666.31
502.72	26389.54
502.90	26333.37
503.07	25919.09
503.25	26178.89
503.43	26218.68
503.60	27087.02
503.78	26602.53
503.95	26754.66
504.13	27117.45
504.30	26902.12
504.48	27115.11
504.65	27089.36
504.83	27204.05
505.01	27402.99
505.18	27438.10
505.36	27611.30
505.53	27426.40
505.71	27997.49
505.88	27733.01
506.06	27384.27
506.23	27950.68
506.41	27564.49
506.58	27985.79
506.76	27910.89
506.93	28210.48
507.11	27903.87
507.28	28112.17
507.46	28755.82
507.63	28744.12
507.81	28524.11
507.98	28643.48
508.16	28610.71
508.33	29191.16
508.50	28840.08
508.68	29092.86
508.85	29188.82
509.03	28975.83
509.20	29177.12
509.38	29457.98
509.55	29486.07
509.73	29680.33
509.90	29319.89
510.08	29699.06
510.25	29481.39
510.42	29890.98
510.60	29818.42
510.77	30026.73
510.95	30164.82
511.12	30143.76
511.30	29984.60
511.47	30607.19
511.64	30305.26
511.82	30677.40
511.99	30618.89
512.17	30902.09
512.34	30799.11
512.51	30824.86
512.69	30831.88
512.86	30974.65
513.04	31108.06
513.21	31239.13
513.38	31356.16
513.56	31269.56
513.73	31381.90
513.90	31501.27
514.08	31417.01
514.25	31896.82
514.43	32301.73
514.60	32320.46
514.77	32025.55
514.95	32032.57
515.12	31995.12
515.29	32444.51
515.47	32393.01
515.64	32524.08
515.81	32341.52
515.99	32484.30
516.16	32769.84
516.33	32678.56
516.51	32671.54
516.68	32907.93
516.85	32856.44
517.03	32943.04
517.20	33116.24
517.37	33364.34
517.54	33174.75
517.72	32823.67
517.89	33296.46
518.06	33352.63
518.24	33537.54
518.41	33532.86
518.58	33514.13
518.75	33200.50
518.93	33661.58
519.10	33324.55
519.27	33909.68
519.45	33874.57
519.62	34010.32
519.79	33806.70
519.96	33839.47
520.14	34235.02
520.31	33858.19
520.48	34541.63
520.65	34298.21
520.83	34754.61
521.00	34403.53
521.17	34646.95
521.34	34628.23
521.52	34972.28
521.69	34724.19
521.86	34885.68
522.03	34974.63
522.20	35618.27
522.38	35304.64
522.55	35257.83
522.72	35161.87
522.89	35358.47
523.07	35936.59
523.24	35526.99
523.41	36020.84
523.58	35716.58
523.75	36051.27
523.92	35409.96
524.10	35756.36
524.27	35964.67
524.44	35548.06
524.61	36109.78
524.78	35894.46
524.96	36467.89
525.13	36477.25
525.30	36329.80
525.47	36409.37
525.64	36079.36
525.81	36821.31
525.98	36566.19
526.16	36346.18
526.33	36381.29
526.50	37127.92
526.67	36610.66
526.84	36980.46
527.01	36840.03
527.18	36978.12
527.36	36947.70
527.53	36975.78
527.70	37577.30
527.87	37855.82
528.04	37462.61
528.21	37301.12
528.38	37336.23
528.55	37797.31
528.72	37333.89
528.89	37715.39
529.07	37074.09
529.24	37600.71
529.41	37827.74
529.58	37823.06
529.75	37324.52
529.92	37848.80
530.09	37944.76
530.26	38078.18
530.43	38333.29
530.60	37872.21
530.77	37860.51
530.94	38178.82
531.11	38181.16
531.28	38225.63
531.46	38312.23
531.63	38445.64
531.80	38684.37
531.97	38672.67
532.14	38808.42
532.31	38735.87
532.48	38796.72
532.65	39086.95
532.82	38593.09
532.99	38703.10
533.16	39384.19
533.33	38866.94
533.50	39442.71
533.67	39145.46
533.84	39138.44
534.01	39157.16
534.18	39009.71
534.35	40025.50
534.52	39608.89
534.69	39288.23
534.86	39690.80
535.03	39346.75
535.20	40210.40
535.37	39978.69
535.54	39887.41
535.71	39936.56
535.88	40067.63
536.05	39718.89
536.22	40128.48
536.38	39842.94
536.55	39945.92
536.72	40795.54
536.89	39952.94
537.06	40084.01
537.23	40638.72
537.40	39882.73
537.57	40669.15
537.74	40582.55
537.91	40760.43
538.08	40383.60
538.25	40360.20
538.42	40517.01
538.59	40849.37
538.75	40678.51
538.92	40917.25
539.09	40926.61
539.26	40371.90
539.43	41209.81
539.60	41137.26
539.77	41008.53
539.94	41125.55
540.11	40935.97
540.28	41296.41
540.44	40823.62
540.61	40917.25
540.78	41076.40
540.95	41605.36
541.12	40898.52
541.29	41223.86
541.46	41640.47
541.62	41607.70
541.79	41603.02
541.96	41474.29
542.13	41471.95
542.30	41420.46
542.47	41769.20
542.63	41745.80
542.80	41792.61
542.97	42363.70
543.14	42089.85
543.31	41724.73
543.48	42143.69
543.64	42433.91
543.81	42443.27
543.98	42497.11
544.15	42555.62
544.32	42541.58
544.48	42656.26
544.65	42445.62
544.82	42508.81
544.99	42691.37
545.16	42586.05
545.32	42452.64
545.49	42944.15
545.66	43313.95
545.83	42993.30
546.00	42918.40
546.16	42843.51
546.33	42644.56
546.50	42719.46
546.67	43166.50
546.83	42731.16
547.00	43028.41
547.17	43037.77
547.34	42897.34
547.50	43295.23
547.67	43908.45
547.84	43779.72
548.00	43601.84
548.17	43545.67
548.34	43402.89
548.51	43384.17
548.67	43480.13
548.84	43421.62
549.01	43559.71
549.18	43409.92
549.34	43896.75
549.51	43910.79
549.68	44011.43
549.84	43515.24
550.01	43995.05
550.18	43625.25
550.34	43807.81
550.51	44154.21
550.68	44243.15
550.84	43957.60
551.01	44130.80
551.18	44196.34
551.34	43824.19
551.51	43782.06
551.68	44423.37
551.84	44196.34
552.01	43709.50
552.18	44505.29
552.34	44212.72
552.51	44186.97
552.68	44582.52
552.84	44465.50
553.01	44414.01
553.18	43880.36
553.34	44732.32
553.51	44650.40
553.67	44748.70
553.84	44772.11
554.01	44844.66
554.17	44568.48
554.34	44769.77
554.51	45125.53
554.67	45024.89
554.84	45177.02
555.00	44680.83
555.17	44652.74
555.33	45097.44
555.50	45001.48
555.67	45027.23
555.83	44980.42
556.00	44762.75
556.16	45654.49
556.33	44975.73
556.50	45153.62
556.66	45528.10
556.83	44839.98
556.99	45310.43
557.16	45759.81
557.32	45371.28
557.49	45490.65
557.65	45443.84
557.82	45682.58
557.98	45481.29
558.15	45191.06
558.32	46113.23
558.48	45404.05
558.65	45603.00
558.81	45560.87
558.98	45607.68
559.14	45584.27
559.31	45542.14
559.47	45759.81
559.64	45635.77
559.80	45954.08
559.97	46241.96
560.13	45907.27
560.30	45488.31
560.46	46007.91
560.63	45996.21
560.79	46307.50
560.96	46347.29
561.12	46150.68
561.29	46459.63
561.45	46115.58
561.61	46101.53
561.78	45759.81
561.94	46080.47
562.11	46162.39
562.27	46281.75
562.44	46227.92
562.60	46024.29
562.77	46082.81
562.93	45839.39
563.10	46841.14
563.26	46019.61
563.42	46586.02
563.59	45839.39
563.75	46019.61
563.92	46312.18
564.08	46064.08
564.24	46674.96
564.41	46405.80
564.57	46396.44
564.74	46026.63
564.90	46618.79
565.07	46454.95
565.23	46181.11
565.39	46770.93
565.56	46698.37
565.72	46616.45
565.88	46609.43
566.05	46234.94
566.21	46761.56
566.38	46618.79
566.54	46562.62
566.70	46850.50
566.87	46672.62
567.03	46674.96
567.19	47227.33
567.36	46756.88
567.52	46728.80
567.68	46670.28
567.85	46902.00
568.01	47152.43
568.17	46841.14
568.34	46714.75
568.50	46742.84
568.66	46864.55
568.83	46761.56
568.99	46937.10
569.15	46932.42
569.32	46791.99
569.48	46637.51
569.64	47281.16
569.81	47033.07
569.97	47089.24
570.13	47199.24
570.30	46958.17
570.46	46974.55
570.62	47187.54
570.78	47194.56
570.95	47222.65
571.11	47475.43
571.27	46733.48
571.43	46557.94
571.60	47316.27
571.76	46997.96
571.92	46974.55
572.09	46625.81
572.25	47253.08
572.41	46703.05
572.57	46932.42
572.74	47484.79
572.90	47182.86
573.06	47290.52
573.22	47533.94
573.38	46885.61
573.55	47618.20
573.71	47498.83
573.87	47283.50
574.03	47079.88
574.20	47480.11
574.36	47470.75
574.52	47423.93
574.68	47487.13
574.84	47477.77
575.01	47208.61
575.17	47505.85
575.33	47320.95
575.49	47339.68
575.65	47030.72
575.82	47592.45
575.98	47590.11
576.14	47707.14
576.30	47878.00
576.46	47370.10
576.62	47337.33
576.79	47758.63
576.95	47035.41
577.11	47229.67
577.27	47555.00
577.43	47297.55
577.59	47566.71
577.75	47512.88
577.92	47255.42
578.08	47739.91
578.24	47232.01
578.40	47540.96
578.56	47753.95
578.72	47435.64
578.88	47641.60
579.04	47655.65
579.21	47873.32
579.37	47140.73
579.53	47702.46
579.69	47538.62
579.85	47173.50
580.01	47583.09
580.17	47384.15
580.33	47562.03
580.49	47775.02
580.65	47976.30
580.82	47543.30
580.98	47683.73
581.14	47168.82
581.30	47540.96
581.46	47714.16
581.62	46969.87
581.78	47494.15
581.94	47697.78
582.10	47608.84
582.26	47505.85
582.42	47440.32
582.58	47758.63
582.74	47725.86
582.90	47803.10
583.06	48126.10
583.22	47597.13
583.38	47627.56
583.54	48002.05
583.70	47796.08
583.86	47718.84
584.02	47196.90
584.18	47866.30
584.34	47686.07
584.50	47908.43
584.66	48067.58
584.82	47845.23
584.98	48233.76
585.14	47482.45
585.30	47632.24
585.46	47924.81
585.62	47819.49
585.78	47992.68
585.94	47051.79
586.10	47564.37
586.26	47475.43
586.42	47772.67
586.58	47643.94
586.74	47676.71
586.90	47650.97
587.06	47782.04
587.22	47655.65
587.38	47430.96
587.54	47910.77
587.70	48186.95
587.86	48067.58
588.02	47751.61
588.18	47782.04
588.34	47657.99
588.49	47906.08
588.65	47985.66
588.81	47805.44
588.97	48107.37
589.13	47327.97
589.29	48250.14
589.45	48231.42
589.61	48062.90
589.77	48172.91
589.93	47950.56
590.08	48114.39
590.24	48261.85
590.40	48376.53
590.56	48491.22
590.72	48030.13
590.88	47868.64
591.04	48030.13
591.20	48161.20
591.35	48285.25
591.51	48598.88
591.67	48200.99
591.83	48505.26
591.99	48016.09
592.15	48093.33
592.31	48067.58
592.46	47962.26
592.62	48198.65
592.78	48523.99
592.94	48580.16
593.10	48493.56
593.26	48479.52
593.41	48505.26
593.57	48746.34
593.73	48481.86
593.89	48657.40
594.05	48612.93
594.20	48570.80
594.36	48907.83
594.52	48556.75
594.68	48231.42
594.84	48458.45
594.99	48381.21
595.15	48123.75
595.31	48793.15
595.47	48512.28
595.62	48484.20
595.78	48624.63
595.94	48212.70
596.10	48170.57
596.25	48795.49
596.41	48428.02
596.57	48233.76
596.73	48559.09
596.88	48657.40
597.04	48877.41
597.20	48788.47
597.36	48432.71
597.51	48411.64
597.67	48442.07
597.83	48425.68
597.99	48369.51
598.14	48474.84
598.30	48591.86
598.46	48570.80
598.61	48648.03
598.77	48905.49
598.93	48535.69
599.09	48591.86
599.24	48629.31
599.40	48774.42
599.56	48816.55
599.71	49233.17
599.87	49509.35
600.03	48919.54
600.18	48776.76
600.34	48589.52
600.50	48589.52
600.65	48734.63
600.81	48779.10
600.97	48727.61
601.12	48727.61
601.28	48910.17
601.44	48460.79
601.59	48453.77
601.75	48491.22
601.91	48626.97
602.06	48538.03
602.22	49057.63
602.37	48968.69
602.53	48783.79
602.69	48978.05
602.84	48648.03
603.00	48439.73
603.16	48502.92
603.31	48856.34
603.47	48758.04
603.62	48748.68
603.78	48758.04
603.94	48968.69
604.09	48631.65
604.25	48715.91
604.40	48552.07
604.56	48877.41
604.71	48652.72
604.87	48428.02
605.03	48105.03
605.18	48650.38
605.34	48633.99
605.49	48151.84
605.65	48580.16
605.80	48502.92
605.96	48657.40
606.12	48858.68
606.27	48629.31
606.43	48676.12
606.58	48758.04
606.74	48666.76
606.89	48823.58
607.05	49177.00
607.20	48964.01
607.36	48779.10
607.51	48903.15
607.67	48610.59
607.82	48514.62
607.98	48046.52
608.13	48357.81
608.29	48259.51
608.44	48442.07
608.60	48381.21
608.75	48720.59
608.91	48741.66
609.06	48435.05
609.22	48875.07
609.37	48484.20
609.53	48463.13
609.68	48727.61
609.84	48591.86
609.99	48474.84
610.15	48158.86
610.30	48353.13
610.46	48334.40
610.61	48334.40
610.76	48287.59
610.92	48151.84
611.07	48425.68
611.23	48521.65
611.38	48264.19
611.54	48313.34
611.69	48699.53
611.84	48182.27
612.00	48109.71
612.15	48060.56
612.31	48449.09
612.46	47831.19
612.62	47901.40
612.77	48346.11
612.92	48353.13
613.08	48392.92
613.23	48184.61
613.39	48315.68
613.54	47934.17
613.69	48547.39
613.85	47622.88
614.00	48009.07
614.15	48065.24
614.31	47938.85
614.46	47760.97
614.62	47845.23
614.77	47964.60
614.92	47901.40
615.08	47920.13
615.23	48165.88
615.38	48212.70
615.54	48149.50
615.69	48308.66
615.84	48107.37
616.00	47896.72
616.15	47964.60
616.30	48247.80
616.46	47793.74
616.61	47929.49
616.76	47819.49
616.92	47753.95
617.07	47988.00
617.22	47709.48
617.37	47480.11
617.53	47597.13
617.68	47784.38
617.83	47885.02
617.99	48154.18
618.14	47512.88
618.29	47428.62
618.45	47288.18
618.60	47232.01
618.75	47545.64
618.90	47646.29
619.06	47639.26
619.21	47367.76
619.36	47608.84
619.51	47353.72
619.67	47154.77
619.82	47360.74
619.97	47351.38
620.12	47442.66
620.28	47395.85
620.43	47356.06
620.58	47346.70
620.73	47831.19
620.89	47662.67
621.04	47758.63
621.19	47517.56
621.34	47391.17
621.49	47632.24
621.65	47524.58
621.80	47356.06
621.95	47615.86
622.10	47543.30
622.25	47157.11
622.41	46653.90
622.56	47201.58
622.71	47334.99
622.86	47288.18
623.01	47309.25
623.16	47220.31
623.32	47168.82
623.47	47145.41
623.62	47056.47
623.77	47290.52
623.92	46899.65
624.07	46894.97
624.23	46934.76
624.38	47051.79
624.53	47065.83
624.68	46401.12
624.83	46574.32
624.98	47159.45
625.13	46340.27
625.29	46644.54
625.44	46553.26
625.59	46780.29
625.74	46733.48
625.89	46316.86
626.04	46452.61
626.19	46735.82
626.34	46902.00
626.49	46344.95
626.65	46408.14
626.80	46415.16
626.95	46225.58
627.10	46082.81
627.25	46476.02
627.40	46108.55
627.55	46330.90
627.70	46501.76
627.85	46281.75
628.00	46522.83
628.15	46576.66
628.30	45612.36
628.45	45813.65
628.60	45830.03
628.76	46066.42
628.91	46260.69
629.06	45947.06
629.21	45610.02
629.36	46277.07
629.51	46138.98
629.66	46445.59
629.81	45722.37
629.96	46270.05
630.11	45593.64
630.26	46138.98
630.41	45799.60
630.56	45495.33
630.71	45928.33
630.86	45827.69
631.01	45429.80
631.16	45762.15
631.31	45689.60
631.46	45696.62
631.61	45827.69
631.76	45537.46
631.91	45897.91
632.06	46096.85
632.21	45694.28
632.36	46117.92
632.51	45514.06
632.66	45717.68
632.81	45139.57
632.96	46005.57
633.10	45722.37
633.25	45237.87
633.40	45457.88
633.55	45713.00
633.70	45392.35
633.85	45240.21
634.00	45216.81
634.15	45305.75
634.30	45090.42
634.45	44975.73
634.60	44987.44
634.75	44999.14
634.90	45455.54
635.05	45195.74
635.19	45284.68
635.34	45088.08
635.49	45221.49
635.64	44928.92
635.79	45186.38
635.94	44825.94
636.09	45387.67
636.24	44839.98
636.39	44954.67
636.53	45230.85
636.68	44942.97
636.83	44786.15
636.98	44622.31
637.13	44683.17
637.28	44896.16
637.43	44612.95
637.57	45097.44
637.72	44055.90
637.87	44886.79
638.02	44786.15
638.17	44762.75
638.32	44942.97
638.46	44395.28
638.61	44257.19
638.76	44341.45
638.91	44458.48
639.06	43983.35
639.20	44119.10
639.35	44308.68
639.50	43983.35
639.65	44458.48
639.80	44594.23
639.94	44982.76
640.09	44524.01
640.24	44570.82
640.39	44081.65
640.54	43676.74
640.68	43882.70
640.83	44479.54
640.98	44161.23
641.13	44201.02
641.27	44261.87
641.42	44030.16
641.57	44149.53
641.72	44252.51
641.86	44058.24
642.01	43821.85
642.16	44217.40
642.31	43552.69
642.45	43997.39
642.60	43386.51
642.75	43763.34
642.90	43957.60
643.04	43854.62
643.19	43749.29
643.34	43669.72
643.48	43842.92
643.63	43665.03
643.78	43531.62
643.93	43871.00
644.07	43948.24
644.22	43562.05
644.37	43658.01
644.51	43449.70
644.66	43569.07
644.81	43585.46
644.95	43213.31
645.10	43423.96
645.25	43381.83
645.39	43540.99
645.54	43281.19
645.69	43014.37
645.83	42763.93
645.98	43061.18
646.13	43585.46
646.27	43164.16
646.42	43143.09
646.57	43505.88
646.71	43398.21
646.86	43271.82
647.00	43173.52
647.15	42951.17
647.30	43136.07
647.44	42742.86
647.59	42796.70
647.74	43274.16
647.88	43222.67
648.03	43161.82
648.17	43510.56
648.32	42710.10
648.47	42965.21
648.61	42948.83
648.76	42850.53
648.90	42696.05
649.05	43107.99
649.20	42969.90
649.34	43000.32
649.49	42850.53
649.63	42887.98
649.78	42572.00
649.92	42951.17
650.07	43047.13
650.21	42941.81
650.36	42986.28
650.51	42635.20
650.65	42995.64
650.80	42904.36
650.94	42892.66
651.09	42466.68
651.23	42476.04
651.38	42216.24
651.52	42033.68
651.67	42773.29
651.81	42131.98
651.96	42756.91
652.10	41944.74
652.25	41778.56
652.39	42628.18
652.54	42141.35
652.68	41989.21
652.83	42466.68
652.97	42340.29
653.12	42691.37
653.26	42197.52
653.41	42337.95
653.55	42071.13
653.70	42249.01
653.84	42464.34
653.99	42124.96
654.13	42110.92
654.27	42129.64
654.42	42181.13
654.56	41865.16
654.71	42092.19
654.85	42330.93
655.00	41818.35
655.14	42148.37
655.29	42033.68
655.43	42380.08
655.57	41827.71
655.72	41141.94
655.86	41706.01
656.01	41584.30
656.15	41333.86
656.30	41542.17
656.44	41177.04
656.58	41860.48
656.73	41411.10
656.87	41109.17
657.01	41111.51
657.16	41446.21
657.30	41696.64
657.45	41603.02
657.59	41008.53
657.73	40650.42
657.88	41666.22
658.02	41457.91
658.16	41375.99
658.31	41055.34
658.45	40753.41
658.60	41347.90
658.74	41214.49
658.88	41233.22
659.03	41015.55
659.17	40989.80
659.31	40748.73
659.46	40500.63
659.60	41088.10
659.74	40891.50
659.89	41050.66
660.03	40184.66
660.17	40381.26
660.32	40355.52
660.46	40753.41
660.60	40355.52
660.74	40484.25
660.89	40601.27
661.03	40196.36
661.17	40107.42
661.32	39751.66
661.46	40076.99
661.60	40112.10
661.74	40098.06
661.89	40076.99
662.03	39969.33
662.17	39452.07
662.31	39569.10
662.46	40278.28
662.60	39550.37
662.74	39257.81
662.88	39206.31
663.03	39566.76
663.17	39220.36
663.31	39000.35
663.45	39646.33
663.60	39976.35
663.74	39239.08
663.88	39269.51
664.02	39318.66
664.17	39587.82
664.31	39129.08
664.45	38822.47
664.59	39009.71
664.73	39100.99
664.88	38888.00
665.02	39084.61
665.16	38382.45
665.30	38536.92
665.44	38958.22
665.59	38209.25
665.73	38316.91
665.87	37977.53
666.01	38532.24
666.15	38382.45
666.29	38436.28
666.44	38595.43
666.58	38387.13
666.72	38265.42
666.86	38270.10
667.00	37916.68
667.14	38050.09
667.28	37610.07
667.43	37839.44
667.57	37998.60
667.71	37916.68
667.85	38129.67
667.99	37610.07
668.13	37778.59
668.27	37067.06
668.41	37097.49
668.56	37036.64
668.70	37219.20
668.84	37195.79
668.98	37118.56
669.12	37387.72
669.26	36940.68
669.40	37006.21
669.54	37071.75
669.68	37305.80
669.82	36886.84
669.96	36699.60
670.10	36957.06
670.25	36870.46
670.39	36371.92
670.53	36758.11
670.67	36540.44
670.81	36748.75
670.95	36203.41
671.09	36498.31
671.23	35660.40
671.37	36245.54
671.51	36154.26
671.65	36182.34
671.79	36165.96
671.93	35854.67
672.07	35892.12
672.21	35754.02
672.35	35868.71
672.49	35920.20
672.63	35817.22
672.77	35449.75
672.91	35892.12
673.05	35337.41
673.19	35344.43
673.33	34878.66
673.47	35101.01
673.61	34815.47
673.75	35108.04
673.89	34726.53
674.03	34785.04
674.17	34202.25
674.31	34497.16
674.45	34183.52
674.59	34487.79
674.73	34213.95
674.87	33909.68
675.01	34066.50
675.15	34085.22
675.29	33729.46
675.43	33865.21
675.56	34335.66
675.70	33975.22
675.84	33214.54
675.98	32554.51
676.12	33710.74
676.26	33802.02
676.40	33429.87
676.54	33195.82
676.68	33144.33
676.82	32701.96
676.96	32996.87
677.10	33296.46
677.23	33053.05
677.37	32493.66
677.51	32629.41
677.65	32556.85
677.79	32477.27
677.93	32147.26
678.07	32451.53
678.21	31981.08
678.34	31864.05
678.48	31945.97
678.62	32002.14
678.76	31915.54
678.90	31765.75
679.04	31484.89
679.18	31487.23
679.31	31503.61
679.45	31290.62
679.59	31213.38
679.73	31494.25
679.87	30735.92
680.00	30700.81
680.14	30579.10
680.28	30838.90
680.42	30768.68
680.56	30466.75
680.70	30106.31
680.83	30213.98
680.97	30286.53
681.11	30134.40
681.25	30127.38
681.39	29537.56
681.52	29921.41
681.66	29575.01
681.80	29261.38
681.94	28952.43
682.07	28975.83
682.21	28741.78
682.35	29118.60
682.49	28929.02
682.62	29092.86
682.76	28982.85
682.90	29200.52
683.04	28500.70
683.17	28837.74
683.31	28542.83
683.45	28034.94
683.59	27974.08
683.72	27850.03
683.86	27857.06
684.00	27936.63
684.13	28002.17
684.27	28177.71
684.41	27714.28
684.55	27714.28
684.68	27674.49
684.82	27307.03
684.96	27349.16
685.09	27316.39
685.23	27381.93
685.37	27513.00
685.50	27255.54
685.64	27126.81
685.78	26862.33
685.91	26726.58
686.05	26361.45
686.19	26017.40
686.32	26508.91
686.46	26101.65
686.60	26143.78
686.73	26342.73
686.87	25811.43
687.01	26132.08
687.14	26031.44
687.28	25860.58
687.42	25493.12
687.55	25649.93
687.69	25701.42
687.82	25263.74
687.96	24987.56
688.10	25348.00
688.23	25312.89
688.37	25041.39
688.50	24819.04
688.64	24954.79
688.78	24882.24
688.91	24800.32
689.05	24741.80
689.18	24374.34
689.32	23971.77
689.46	24182.42
689.59	24149.65
689.73	24285.40
689.86	24252.63
690.00	24032.62
690.13	24011.56
690.27	23503.66
690.41	23943.68
690.54	23618.35
690.68	23180.67
690.81	23426.42
690.95	22953.63
691.08	23180.67
691.22	22941.93
691.35	22939.59
691.49	23239.18
691.62	22871.72
691.76	22686.81
691.89	22508.93
692.03	22307.65
692.16	22452.76
692.30	22125.08
692.43	22506.59
692.57	21528.25
692.70	22190.62
692.84	21795.07
692.97	21937.84
693.11	21596.12
693.24	21589.10
693.38	21296.53
693.51	21198.23
693.65	21111.63
693.78	20844.81
693.92	20826.09
694.05	20900.98
694.19	20823.75
694.32	21043.76
694.45	21305.90
694.59	20709.06
694.72	21018.01
694.86	20734.81
694.99	20421.17
695.13	20170.74
695.26	20184.78
695.39	20084.14
695.53	20013.92
695.66	19992.86
695.80	19758.80
695.93	19770.51
696.07	19740.08
696.20	19356.23
696.33	19058.98
696.47	19103.45
696.60	19304.74
696.73	19435.81
696.87	19126.86
697.00	19466.24
697.14	19040.26
697.27	18824.93
697.40	19066.00
697.54	18712.58
697.67	18754.71
697.80	18789.82
697.94	18319.37
698.07	18244.48
698.21	18513.64
698.34	18232.77
698.47	18008.08
698.61	17820.84
698.74	17729.56
698.87	17792.75
699.01	17647.64
699.14	17605.51
699.27	17813.82
699.40	17619.55
699.54	17319.96
699.67	17472.10
699.80	17329.33
699.94	17128.04
700.07	17116.34
700.20	16961.86
700.34	16851.86
700.47	16678.66
700.60	17137.40
700.73	17029.74
700.87	16805.05
701.00	16601.42
701.13	16294.81
701.26	16423.54
701.40	16248.00
701.53	16152.04
701.66	16292.47
701.79	16226.93
701.93	16217.57
702.06	15564.56
702.19	15712.02
702.32	15845.43
702.46	15803.30
702.59	16032.67
702.72	15836.06
702.85	15492.01
702.99	15403.07
703.12	15342.21
703.25	15279.02
703.38	15248.59
703.51	15044.96
703.65	15105.82
703.78	14904.53
703.91	14698.56
704.04	14850.70
704.17	14810.91
704.31	14675.16
704.44	14719.63
704.57	14406.00
704.70	14506.64
704.83	14331.10
704.96	14291.31
705.10	14106.41
705.23	13914.48
>>>>>End Processed Spectral Data<<<<<
