SpectraSuite Data File
++++++++++++++++++++++++++++++++++++
Date: Fri Oct 25 10:44:24 EDT 2013
User: price-jones
Dark Spectrum Present: No
Reference Spectrum Present: No
Number of Sampled Component Spectra: 1
Spectrometers: USB2+H05261
Integration Time (usec): 100000 (USB2+H05261)
Spectra Averaged: 1 (USB2+H05261)
Boxcar Smoothing: 0 (USB2+H05261)
Correct for Electrical Dark: No (USB2+H05261)
Strobe/Lamp Enabled: No (USB2+H05261)
Correct for Detector Non-linearity: No (USB2+H05261)
Correct for Stray Light: No (USB2+H05261)
Number of Pixels in Processed Spectrum: 2048
>>>>>Begin Processed Spectral Data<<<<<
365.73	182.56
365.92	182.56
366.12	182.56
366.32	35.11
366.52	0.00
366.72	16.38
366.91	16.38
367.11	7.02
367.31	0.00
367.51	0.00
367.70	21.06
367.90	60.85
368.10	28.09
368.30	14.04
368.49	56.17
368.69	25.75
368.89	77.24
369.09	2.34
369.28	58.51
369.48	58.51
369.68	9.36
369.87	81.92
370.07	0.00
370.27	154.48
370.47	145.11
370.66	407.25
370.86	423.64
371.06	470.45
371.25	512.58
371.45	376.83
371.65	505.56
371.84	477.47
372.04	479.81
372.24	519.60
372.44	496.19
372.63	458.74
372.83	575.77
373.03	547.69
373.22	561.73
373.42	566.41
373.62	535.98
373.81	573.43
374.01	571.09
374.21	596.84
374.40	559.39
374.60	475.13
374.79	486.83
374.99	552.37
375.19	594.50
375.38	554.71
375.58	585.13
375.78	545.34
375.97	636.63
376.17	674.07
376.37	585.13
376.56	636.63
376.76	601.52
376.95	699.82
377.15	716.20
377.35	660.03
377.54	631.94
377.74	706.84
377.93	655.35
378.13	655.35
378.33	622.58
378.52	603.86
378.72	681.10
378.91	690.46
379.11	678.76
379.31	653.01
379.50	636.63
379.70	634.29
379.89	704.50
380.09	716.20
380.28	709.18
380.48	688.12
380.68	765.36
380.87	685.78
381.07	725.57
381.26	772.38
381.46	765.36
381.65	678.76
381.85	692.80
382.04	741.95
382.24	767.70
382.43	699.82
382.63	716.20
382.83	716.20
383.02	681.10
383.22	767.70
383.41	777.06
383.61	779.40
383.80	732.59
384.00	723.23
384.19	823.87
384.39	781.74
384.58	786.42
384.78	819.19
384.97	765.36
385.17	901.11
385.36	814.51
385.56	772.38
385.75	774.72
385.95	924.51
386.14	819.19
386.34	795.78
386.53	945.58
386.72	823.87
386.92	863.66
387.11	849.61
387.31	901.11
387.50	887.06
387.70	884.72
387.89	847.27
388.09	861.32
388.28	870.68
388.48	959.62
388.67	976.00
388.86	924.51
389.06	990.05
389.25	1057.92
389.45	973.66
389.64	980.68
389.84	999.41
390.03	1055.58
390.22	1074.31
390.42	917.49
390.61	954.94
390.81	1125.80
391.00	1048.56
391.19	1088.35
391.39	1118.78
391.58	1064.94
391.78	997.07
391.97	1149.20
392.16	1008.77
392.36	1116.44
392.55	1102.39
392.75	968.98
392.94	959.62
393.13	1025.15
393.33	971.32
393.52	1018.13
393.71	1078.99
393.91	1132.82
394.10	1205.38
394.29	1188.99
394.49	1177.29
394.68	1256.87
394.88	1270.91
395.07	1219.42
395.26	1343.47
395.46	1322.40
395.65	1268.57
395.84	1228.78
396.04	1261.55
396.23	1203.04
396.42	1177.29
396.62	1184.31
396.81	1205.38
397.00	1231.12
397.19	1320.06
397.39	1387.94
397.58	1451.13
397.77	1373.89
397.97	1418.36
398.16	1547.09
398.35	1540.07
398.55	1448.79
398.74	1495.60
398.93	1547.09
399.12	1586.88
399.32	1547.09
399.51	1544.75
399.70	1748.38
399.90	1561.14
400.09	1612.63
400.28	1558.80
400.47	1671.14
400.67	1762.42
400.86	1659.44
401.05	1713.27
401.24	1748.38
401.44	1755.40
401.63	1799.87
401.82	1668.80
402.01	1790.51
402.21	1806.89
402.40	1776.47
402.59	1736.68
402.78	1839.66
402.97	1795.19
403.17	1856.04
403.36	1748.38
403.55	1935.62
403.74	1944.99
403.93	1921.58
404.13	1914.56
404.32	2003.50
404.51	1998.82
404.70	2050.31
404.89	1895.83
405.09	2101.80
405.28	2094.78
405.47	2155.63
405.66	1930.94
405.85	2064.35
406.05	1956.69
406.24	2003.50
406.43	2216.49
406.62	2141.59
406.81	2209.47
407.00	2071.37
407.20	2207.13
407.39	2118.18
407.58	2237.55
407.77	2200.10
407.96	2291.38
408.15	2225.85
408.34	2342.88
408.54	2396.71
408.73	2427.14
408.92	2363.94
409.11	2361.60
409.30	2389.69
409.49	2452.88
409.68	2399.05
409.87	2328.83
410.07	2483.31
410.26	2265.64
410.45	2511.39
410.64	2473.95
410.83	2497.35
411.02	2473.95
411.21	2612.04
411.40	2602.68
411.59	2675.23
411.78	2668.21
411.98	2670.55
412.17	2661.19
412.36	2757.15
412.55	2649.49
412.74	2722.04
412.93	2768.85
413.12	2902.26
413.31	2979.50
413.50	2883.54
413.69	3012.27
413.88	3035.67
414.07	3038.02
414.26	3063.76
414.45	3030.99
414.64	3028.65
414.83	3108.23
415.02	3190.15
415.22	3220.58
415.41	3220.58
415.60	3225.26
415.79	3417.18
415.98	3300.16
416.17	3384.41
416.36	3293.13
416.55	3468.67
416.74	3368.03
416.93	3417.18
417.12	3496.76
417.31	3475.70
417.50	3459.31
417.69	3623.15
417.88	3447.61
418.07	3478.04
418.26	3515.48
418.45	3480.38
418.64	3714.43
418.83	3552.93
419.02	3705.07
419.21	3735.50
419.39	3733.15
419.58	3627.83
419.77	3641.87
419.96	3691.02
420.15	3691.02
420.34	3826.78
420.53	3824.44
420.72	3918.06
420.91	3913.38
421.10	4053.81
421.29	4042.11
421.48	3885.29
421.67	3920.40
421.86	3873.59
422.05	3864.22
422.24	3875.93
422.43	3868.91
422.61	3964.87
422.80	3964.87
422.99	3957.85
423.18	4004.66
423.37	4002.32
423.56	3885.29
423.75	4067.85
423.94	4042.11
424.13	3801.03
424.32	3908.69
424.50	4135.73
424.69	4243.39
424.88	4044.45
425.07	4098.28
425.26	4028.06
425.45	4049.13
425.64	4161.47
425.83	4086.58
426.01	3999.98
426.20	4194.24
426.39	4168.49
426.58	4105.30
426.77	4037.42
426.96	4016.36
427.15	4140.41
427.33	4044.45
427.52	4168.49
427.71	4355.74
427.90	4180.20
428.09	4285.52
428.28	4304.25
428.46	4315.95
428.65	4203.60
428.84	4311.27
429.03	4306.59
429.22	4203.60
429.40	4217.65
429.59	4292.54
429.78	4049.13
429.97	3971.89
430.16	4056.15
430.34	4175.52
430.53	4243.39
430.72	4367.44
430.91	4456.38
431.10	4461.06
431.28	4580.43
431.47	4629.58
431.66	4706.82
431.85	4552.34
432.03	4840.23
432.22	4798.10
432.41	4919.81
432.60	4863.63
432.79	4877.68
432.97	4947.89
433.16	5069.60
433.35	4814.48
433.54	4610.86
433.72	4896.40
433.91	4767.67
434.10	4798.10
434.28	4901.08
434.47	4809.80
434.66	5142.16
434.85	5069.60
435.03	5116.41
435.22	5102.37
435.41	5303.65
435.59	5226.42
435.78	5233.44
435.97	5184.29
436.16	5298.97
436.34	5198.33
436.53	5219.39
436.72	5322.38
436.90	5125.77
437.09	5282.59
437.28	5116.41
437.46	5294.29
437.65	5245.14
437.84	5228.76
438.02	5242.80
438.21	5359.83
438.40	5221.74
438.58	5432.38
438.77	5720.27
438.96	5474.51
439.14	5504.94
439.33	5792.83
439.52	5687.50
439.70	5753.04
439.89	5968.37
440.08	5856.02
440.26	5902.83
440.45	5877.09
440.63	6059.65
440.82	6319.45
441.01	6113.48
441.19	6216.46
441.38	6251.57
441.57	6289.02
441.75	6249.23
441.94	6448.18
442.12	6286.68
442.31	6534.78
442.50	6499.67
442.68	6466.90
442.87	6485.62
443.05	6537.12
443.24	6513.71
443.43	6607.33
443.61	6757.13
443.80	6761.81
443.98	6429.45
444.17	6604.99
444.35	6630.74
444.54	6712.66
444.73	6644.78
444.91	6677.55
445.10	6761.81
445.28	6707.98
445.47	6733.72
445.65	6590.95
445.84	6759.47
446.02	6750.10
446.21	6829.68
446.39	6733.72
446.58	6785.21
446.77	6820.32
446.95	6731.38
447.14	6895.22
447.32	6913.94
447.51	6897.56
447.69	6766.49
447.88	6822.66
448.06	7040.33
448.25	6801.60
448.43	7063.74
448.62	6977.14
448.80	6944.37
448.99	7059.06
449.17	6871.81
449.36	6871.81
449.54	7215.87
449.73	7229.91
449.91	7215.87
450.10	7269.70
450.28	7281.41
450.46	7459.29
450.65	7281.41
450.83	7581.00
451.02	7372.69
451.20	7389.07
451.39	7389.07
451.57	7330.56
451.76	7274.38
451.94	7335.24
452.13	7396.09
452.31	7468.65
452.49	7337.58
452.68	7435.88
452.86	7496.74
453.05	7627.81
453.23	7501.42
453.42	7557.59
453.60	7499.08
453.78	7740.15
453.97	7508.44
454.15	7742.49
454.34	7641.85
454.52	7735.47
454.70	7700.36
454.89	7751.85
455.07	7913.35
455.26	7604.40
455.44	7957.82
455.62	7887.61
455.81	7948.46
455.99	8051.44
456.17	8077.19
456.36	8079.53
456.54	8006.97
456.73	8215.28
456.91	8514.87
457.09	8351.03
457.28	8622.53
457.46	8109.96
457.64	8400.18
457.83	8411.89
458.01	8187.19
458.19	8294.86
458.38	8395.50
458.56	8358.05
458.74	8224.64
458.93	8631.90
459.11	8514.87
459.29	8491.46
459.48	8613.17
459.66	8554.66
459.84	8692.75
460.03	8671.68
460.21	8692.75
460.39	8648.28
460.57	8823.82
460.76	8791.05
460.94	8744.24
461.12	8865.95
461.31	8748.92
461.49	9034.47
461.67	8912.76
461.85	9247.46
462.04	9081.28
462.22	9284.91
462.40	9343.42
462.59	9144.47
462.77	9254.48
462.95	9217.03
463.13	9116.39
463.32	9125.75
463.50	9053.19
463.68	9329.38
463.86	9177.24
464.05	9210.01
464.23	9179.58
464.41	9104.68
464.59	9092.98
464.78	9554.07
464.96	9444.06
465.14	9338.74
465.32	9680.46
465.50	9549.39
465.69	9640.67
465.87	9263.84
466.05	9324.69
466.23	9451.08
466.41	9563.43
466.60	9465.13
466.78	9322.35
466.96	9682.80
467.14	9460.45
467.32	9755.35
467.51	9928.55
467.69	9565.77
467.87	9720.24
468.05	9757.69
468.23	9856.00
468.41	9834.93
468.60	9717.90
468.78	9745.99
468.96	9575.13
469.14	9923.87
469.32	10031.54
469.50	9673.43
469.69	9935.57
469.87	10047.92
470.05	10218.78
470.23	10178.99
470.41	10104.09
470.59	10298.36
470.77	10087.71
470.95	10272.61
471.14	10441.13
471.32	10153.24
471.50	10710.29
471.68	10504.32
471.86	10476.24
472.04	10626.03
472.22	10679.86
472.40	10593.26
472.58	10534.75
472.77	10516.03
472.95	10792.21
473.13	11061.37
473.31	10920.94
473.49	10850.72
473.67	10885.83
473.85	11012.22
474.03	11159.67
474.21	11307.13
474.39	11349.26
474.57	11201.80
474.75	11386.71
474.93	11496.71
475.12	11124.57
475.30	11384.37
475.48	11492.03
475.66	11449.90
475.84	11524.80
476.02	11798.64
476.20	11845.45
476.38	11843.11
476.56	12093.55
476.74	12016.31
476.92	11847.79
477.10	12116.95
477.28	12463.35
477.46	12465.69
477.64	12903.37
477.82	12807.41
478.00	12865.92
478.18	12961.89
478.36	12877.63
478.54	12950.18
478.72	13055.51
478.90	12924.44
479.08	13315.31
479.26	13404.25
479.44	13486.17
479.62	13413.61
479.80	13647.66
479.98	13748.31
480.16	14047.90
480.34	13764.69
480.52	14352.16
480.70	14237.48
480.88	13980.02
481.06	14396.64
481.24	13827.88
481.41	14485.58
481.59	14778.14
481.77	14939.64
481.95	14909.21
482.13	15014.54
482.31	15002.83
482.49	15108.16
482.67	15293.06
482.85	15389.02
483.03	15377.32
483.21	15730.74
483.39	16091.18
483.57	15903.94
483.74	16056.08
483.92	16229.27
484.10	15885.22
484.28	16140.33
484.46	16826.11
484.64	16369.71
484.82	16709.08
485.00	16744.19
485.18	16774.62
485.35	16952.50
485.53	16414.18
485.71	16723.13
485.89	16585.04
486.07	16678.66
486.25	17092.93
486.43	17198.26
486.61	17352.73
486.78	17432.31
486.96	17888.71
487.14	18494.91
487.32	17923.82
487.50	18331.08
487.68	18747.69
487.85	18752.37
488.03	18820.25
488.21	18691.52
488.39	18747.69
488.57	18970.04
488.75	19304.74
488.92	19136.22
489.10	19882.85
489.28	20137.97
489.46	20224.57
489.64	20119.24
489.81	20582.67
489.99	20346.28
490.17	20603.74
490.35	20936.09
490.53	20655.23
490.70	20877.58
490.88	20947.79
491.06	21469.73
491.24	21341.00
491.41	21120.99
491.59	21385.47
491.77	21359.73
491.95	21745.92
492.13	21631.23
492.30	22125.08
492.48	22197.64
492.66	22209.34
492.84	22162.53
493.01	22501.91
493.19	22373.18
493.37	22757.03
493.54	22808.52
493.72	23080.02
493.90	23346.84
494.08	23606.64
494.25	23639.41
494.43	23828.99
494.61	23735.37
494.79	24126.24
494.96	24109.86
495.14	23836.02
495.32	24226.89
495.49	24074.75
495.67	24570.94
495.85	24730.10
496.02	25027.35
496.20	24709.04
496.38	24809.68
496.55	24725.42
496.73	25956.54
496.91	25216.93
497.09	26118.04
497.26	25319.92
497.44	25738.87
497.62	25568.01
497.79	25937.82
497.97	25811.43
498.14	26054.84
498.32	26361.45
498.50	26536.99
498.67	26494.86
498.85	26759.34
499.03	27084.68
499.20	26536.99
499.38	27037.87
499.56	26953.61
499.73	27180.64
499.91	27414.69
500.08	27194.68
500.26	26876.37
500.44	27051.91
500.61	27080.00
500.79	27211.07
500.97	27234.47
501.14	27733.01
501.32	27957.70
501.49	27688.54
501.67	27828.97
501.84	27936.63
502.02	28020.89
502.20	28371.97
502.37	28563.90
502.55	28390.70
502.72	28823.70
502.90	28652.84
503.07	28531.13
503.25	28716.03
503.43	28379.00
503.60	29029.66
503.78	28905.62
503.95	28945.41
504.13	29074.13
504.30	29390.11
504.48	29216.91
504.65	29558.63
504.83	29898.00
505.01	29472.03
505.18	29886.30
505.36	29883.96
505.53	29898.00
505.71	30300.58
505.88	30295.89
506.06	29972.90
506.23	30008.01
506.41	30394.20
506.58	30441.01
506.76	30326.32
506.93	30817.83
507.11	30766.34
507.28	30403.56
507.46	30642.29
507.63	30719.53
507.81	30916.14
507.98	30817.83
508.16	30897.41
508.33	31199.34
508.50	31920.23
508.68	31580.85
508.85	31494.25
509.03	31473.18
509.20	31903.84
509.38	31882.78
509.55	32027.89
509.73	32055.98
509.90	32037.25
510.08	32250.24
510.25	31924.91
510.42	32224.50
510.60	32046.62
510.77	32584.94
510.95	33034.32
511.12	32575.58
511.30	32669.20
511.47	32950.06
511.64	33123.26
511.82	32900.91
511.99	32929.00
512.17	32952.40
512.34	32730.05
512.51	33406.47
512.69	33228.59
512.86	33406.47
513.04	33909.68
513.21	33481.36
513.38	33535.20
513.56	33565.62
513.73	33240.29
513.90	33841.81
514.08	33804.36
514.25	33902.66
514.43	33881.60
514.60	33855.85
514.77	34176.50
514.95	34527.58
515.12	34316.93
515.29	34480.77
515.47	34735.89
515.64	34782.70
515.81	34338.00
515.99	34607.16
516.16	34382.47
516.33	33607.75
516.51	34410.56
516.68	33795.00
516.85	34267.78
517.03	34134.37
517.20	34246.72
517.37	34710.14
517.54	35030.80
517.72	35377.20
517.89	34565.03
518.06	34595.46
518.24	34534.60
518.41	35204.00
518.58	35278.89
518.75	35739.98
518.93	35391.24
519.10	35651.04
519.27	35452.09
519.45	35475.50
519.62	35917.86
519.79	36264.26
519.96	35672.10
520.14	36184.68
520.31	35711.89
520.48	36055.95
520.65	35971.69
520.83	36526.40
521.00	36687.90
521.17	36800.24
521.34	36657.47
521.52	36999.19
521.69	37270.69
521.86	37235.58
522.03	37022.59
522.20	37352.61
522.38	37294.10
522.55	37212.18
522.72	37270.69
522.89	37120.90
523.07	37687.31
523.24	37359.63
523.41	37773.91
523.58	37656.88
523.75	38223.29
523.92	37949.45
524.10	38068.81
524.27	38059.45
524.44	37743.48
524.61	37956.47
524.78	38071.15
524.96	38396.49
525.13	38569.69
525.30	38136.69
525.47	38696.08
525.64	38782.68
525.81	38068.81
525.98	38132.01
526.16	38181.16
526.33	38096.90
526.50	38202.22
526.67	38024.34
526.84	38050.09
527.01	38227.97
527.18	38445.64
527.36	38883.32
527.53	39119.71
527.70	39353.77
527.87	39220.36
528.04	38845.87
528.21	39220.36
528.38	39292.91
528.55	39566.76
528.72	39676.76
528.89	39779.74
529.07	39969.33
529.24	39072.90
529.41	39735.27
529.58	39323.34
529.75	39571.44
529.92	40084.01
530.09	39732.93
530.26	39868.69
530.43	40114.44
530.60	39775.06
530.77	40016.14
530.94	40194.02
531.11	40060.61
531.28	39903.79
531.46	40589.57
531.63	40357.86
531.80	40161.25
531.97	40046.57
532.14	40039.54
532.31	39763.36
532.48	40297.00
532.65	40318.07
532.82	40577.87
532.99	40779.15
533.16	40268.92
533.33	40346.15
533.50	41081.08
533.67	41256.62
533.84	40781.49
534.01	41160.66
534.18	40882.14
534.35	41174.70
534.52	41132.57
534.69	41226.20
534.86	41422.80
535.03	41326.84
535.20	41478.97
535.37	41193.43
535.54	41848.78
535.71	41371.31
535.88	41338.54
536.05	41624.09
536.22	41439.18
536.38	41249.60
536.55	41170.02
536.72	41280.03
536.89	41364.29
537.06	41319.82
537.23	41720.05
537.40	42220.92
537.57	42117.94
537.74	41752.82
537.91	41970.49
538.08	42073.47
538.25	41588.98
538.42	42096.88
538.59	41750.48
538.75	42164.75
538.92	41748.14
539.09	41895.59
539.26	42040.70
539.43	42113.26
539.60	41876.86
539.77	42323.91
539.94	42213.90
540.11	42157.73
540.28	42251.35
540.44	42295.82
540.61	42181.13
540.78	42211.56
540.95	42106.24
541.12	42480.72
541.29	42108.58
541.46	42466.68
541.62	42759.25
541.79	42621.16
541.96	42529.87
542.13	42499.45
542.30	42597.75
542.47	43049.47
542.63	42536.90
542.80	43107.99
542.97	43374.81
543.14	43171.18
543.31	43342.04
543.48	43358.42
543.64	43786.74
543.81	43856.96
543.98	43636.95
544.15	43257.78
544.32	43594.82
544.48	44105.06
544.65	43702.48
544.82	43779.72
544.99	43171.18
545.16	43838.23
545.32	43000.32
545.49	44020.80
545.66	44432.73
545.83	44025.48
546.00	44212.72
546.16	43992.71
546.33	43913.13
546.50	43512.90
546.67	44053.56
546.83	43566.73
547.00	44222.08
547.17	43854.62
547.34	43555.03
547.50	43861.64
547.67	44425.71
547.84	44402.30
548.00	44381.24
548.17	44299.32
548.34	44673.81
548.51	44652.74
548.67	44313.36
548.84	44687.85
549.01	44039.52
549.18	44172.93
549.34	44334.43
549.51	44708.91
549.68	45191.06
549.84	44577.84
550.01	44711.25
550.18	44385.92
550.34	44823.60
550.51	44783.81
550.68	44762.75
550.84	44949.99
551.01	44762.75
551.18	44849.35
551.34	44980.42
551.51	45062.33
551.68	44879.77
551.84	44896.16
552.01	44863.39
552.18	44669.12
552.34	44992.12
552.51	45083.40
552.68	45010.84
552.84	44940.63
553.01	45387.67
553.18	45296.39
553.34	45106.80
553.51	44971.05
553.67	44917.22
553.84	45588.95
554.01	45261.28
554.17	45832.37
554.34	45425.12
554.51	45366.60
554.67	45549.17
554.84	45469.59
555.00	46031.32
555.17	45549.17
555.33	45689.60
555.50	45434.48
555.67	45481.29
555.83	45392.35
556.00	45579.59
556.16	45715.34
556.33	45586.61
556.50	45947.06
556.66	45928.33
556.83	45469.59
556.99	45989.19
557.16	45727.05
557.32	45827.69
557.49	45638.11
557.65	45251.92
557.82	45628.74
557.98	45839.39
558.15	46148.34
558.32	45902.59
558.48	45647.47
558.65	45736.41
558.81	45668.53
558.98	45525.76
559.14	45717.68
559.31	45750.45
559.47	45989.19
559.64	45752.79
559.80	46138.98
559.97	46230.26
560.13	46017.27
560.30	45909.61
560.46	46080.47
560.63	46143.66
560.79	46134.30
560.96	46543.89
561.12	46277.07
561.29	45862.80
561.45	46539.21
561.61	46396.44
561.78	46092.17
561.94	45492.99
562.11	46555.60
562.27	46440.91
562.44	46174.09
562.60	46700.71
562.77	46429.21
562.93	46225.58
563.10	46291.12
563.26	46033.66
563.42	46115.58
563.59	46124.94
563.75	46169.41
563.92	46256.01
564.08	46213.88
564.24	46560.28
564.41	46043.02
564.57	46017.27
564.74	46169.41
564.90	45972.80
565.07	46124.94
565.23	46263.03
565.39	46616.45
565.56	46209.20
565.72	45827.69
565.88	46153.02
566.05	46394.10
566.21	46309.84
566.38	46410.48
566.54	46314.52
566.70	46281.75
566.87	46948.81
567.03	46703.05
567.19	46831.78
567.36	46539.21
567.52	46167.07
567.68	46492.40
567.85	46181.11
568.01	46298.14
568.17	46557.94
568.34	46541.55
568.50	46349.63
568.66	46518.15
568.83	46543.89
568.99	46618.79
569.15	46309.84
569.32	46295.80
569.48	46230.26
569.64	46780.29
569.81	46670.28
569.97	46515.81
570.13	46426.87
570.30	45998.55
570.46	46279.41
570.62	45823.01
570.78	46366.01
570.95	46663.26
571.11	46726.46
571.27	46604.75
571.43	46396.44
571.60	46740.50
571.76	46834.12
571.92	46696.03
572.09	46515.81
572.25	46417.50
572.41	46766.24
572.57	46831.78
572.74	47079.88
572.90	46529.85
573.06	46745.18
573.22	46827.10
573.38	46471.34
573.55	46616.45
573.71	46469.00
573.87	46789.65
574.03	46674.96
574.20	46642.20
574.36	46192.81
574.52	46817.74
574.68	46813.05
574.84	46534.53
575.01	46543.89
575.17	46569.64
575.33	46384.74
575.49	46108.55
575.65	46948.81
575.82	46719.43
575.98	46536.87
576.14	47105.62
576.30	46817.74
576.46	46681.98
576.62	46571.98
576.79	46621.13
576.95	46571.98
577.11	46508.79
577.27	47063.49
577.43	46862.21
577.59	47019.02
577.75	46705.39
577.92	46597.73
578.08	46202.18
578.24	46459.63
578.40	47051.79
578.56	46590.70
578.72	46691.35
578.88	46845.82
579.04	46862.21
579.21	46749.86
579.37	46401.12
579.53	46817.74
579.69	46618.79
579.85	47019.02
580.01	46447.93
580.17	46604.75
580.33	47079.88
580.49	47468.40
580.65	47157.11
580.82	46520.49
580.98	46522.83
581.14	46515.81
581.30	46939.44
581.46	46780.29
581.62	46749.86
581.78	46897.31
581.94	46897.31
582.10	46684.33
582.26	46958.17
582.42	46981.57
582.58	46791.99
582.74	46836.46
582.90	47070.51
583.06	47313.93
583.22	47079.88
583.38	47168.82
583.54	47246.05
583.70	46871.57
583.86	46588.36
584.02	46728.80
584.18	47037.75
584.34	46909.02
584.50	46841.14
584.66	47189.88
584.82	46567.30
584.98	46721.77
585.14	46948.81
585.30	46405.80
585.46	47138.39
585.62	46740.50
585.78	46768.58
585.94	46646.88
586.10	46829.44
586.26	46944.12
586.42	47040.09
586.58	47304.57
586.74	47421.59
586.90	46782.63
587.06	46562.62
587.22	46595.38
587.38	46447.93
587.54	46735.82
587.70	46918.38
587.86	47182.86
588.02	46504.10
588.18	46918.38
588.34	46548.57
588.49	46110.89
588.65	45895.56
588.81	46251.33
588.97	46621.13
589.13	46005.57
589.29	46450.27
589.45	46461.97
589.61	46731.14
589.77	46567.30
589.93	46656.24
590.08	46710.07
590.24	46962.85
590.40	47007.32
590.56	47232.01
590.72	47318.61
590.88	46529.85
591.04	46756.88
591.20	47437.98
591.35	46920.72
591.51	47547.98
591.67	46857.52
591.83	47327.97
591.99	46930.08
592.15	46902.00
592.31	46555.60
592.46	47063.49
592.62	46822.42
592.78	47171.16
592.94	47313.93
593.10	46906.68
593.26	47091.58
593.41	46714.75
593.57	46836.46
593.73	47030.72
593.89	47189.88
594.05	47068.17
594.20	46745.18
594.36	46829.44
594.52	46885.61
594.68	46939.44
594.84	46672.62
594.99	47063.49
595.15	46550.91
595.31	47033.07
595.47	46822.42
595.62	47203.92
595.78	46803.69
595.94	46768.58
596.10	47033.07
596.25	46820.08
596.41	47161.79
596.57	46845.82
596.73	46988.60
596.88	46609.43
597.04	47082.22
597.20	46909.02
597.36	46574.32
597.51	46983.91
597.67	47159.45
597.83	47051.79
597.99	47311.59
598.14	47112.64
598.30	47281.16
598.46	46614.11
598.61	47004.98
598.77	46611.77
598.93	46906.68
599.09	47423.93
599.24	47377.12
599.40	47374.78
599.56	47051.79
599.71	47299.89
599.87	46937.10
600.03	47306.91
600.18	46913.70
600.34	46918.38
600.50	47051.79
600.65	46892.63
600.81	47285.84
600.97	47189.88
601.12	47290.52
601.28	46731.14
601.44	46958.17
601.59	47229.67
601.75	46801.35
601.91	46960.51
602.06	46440.91
602.22	47065.83
602.37	46777.95
602.53	47086.90
602.69	46883.27
602.84	46511.13
603.00	46873.91
603.16	46906.68
603.31	46892.63
603.47	46855.18
603.62	47342.02
603.78	46932.42
603.94	46731.14
604.09	47166.48
604.25	46799.01
604.40	47082.22
604.56	46930.08
604.71	47145.41
604.87	46724.11
605.03	46539.21
605.18	46850.50
605.34	46689.01
605.49	46787.31
605.65	46672.62
605.80	47145.41
605.96	46894.97
606.12	46848.16
606.27	46799.01
606.43	46717.09
606.58	47199.24
606.74	46878.59
606.89	46885.61
607.05	46829.44
607.20	46674.96
607.36	46480.70
607.51	46820.08
607.67	46660.92
607.82	46756.88
607.98	46756.88
608.13	46684.33
608.29	46380.06
608.44	46321.54
608.60	45991.53
608.75	46398.78
608.91	46806.03
609.06	46436.23
609.22	46768.58
609.37	46066.42
609.53	46698.37
609.68	46230.26
609.84	46251.33
609.99	46373.03
610.15	45996.21
610.30	46410.48
610.46	46281.75
610.61	46209.20
610.76	46017.27
610.92	46443.25
611.07	46787.31
611.23	46710.07
611.38	46356.65
611.54	46164.73
611.69	46204.52
611.84	46012.59
612.00	46408.14
612.15	45844.07
612.31	46153.02
612.46	45787.90
612.62	46534.53
612.77	46028.98
612.92	46691.35
613.08	45820.67
613.23	45844.07
613.39	45460.23
613.54	45904.93
613.69	46202.18
613.85	45979.82
614.00	45745.77
614.15	46314.52
614.31	46005.57
614.46	46195.15
614.62	46131.96
614.77	45984.51
614.92	45886.20
615.08	45846.41
615.23	45553.85
615.38	45581.93
615.54	45322.13
615.69	45282.34
615.84	45649.81
616.00	45546.82
616.15	45326.81
616.30	45617.04
616.46	45132.55
616.61	45081.06
616.76	45497.67
616.92	45085.74
617.07	45399.37
617.22	44830.62
617.37	44872.75
617.53	45624.06
617.68	45521.08
617.83	45308.09
617.99	45890.88
618.14	44949.99
618.29	45792.58
618.45	44917.22
618.60	45179.36
618.75	45287.03
618.90	45038.93
619.06	45216.81
619.21	45209.79
619.36	45249.58
619.51	44912.54
619.67	45041.27
619.82	45319.79
619.97	45191.06
620.12	44790.83
620.28	44472.52
620.43	44753.38
620.58	44828.28
620.73	44650.40
620.89	45006.16
621.04	44739.34
621.19	44655.08
621.34	44697.21
621.49	45207.45
621.65	44793.17
621.80	44877.43
621.95	44821.26
622.10	44655.08
622.25	44266.55
622.41	44229.10
622.56	44587.21
622.71	44746.36
622.86	44240.81
623.01	44374.22
623.16	44540.39
623.32	43999.73
623.47	44348.47
623.62	44100.37
623.77	44170.59
623.92	44601.25
624.07	44163.57
624.23	43908.45
624.38	43660.35
624.53	44184.63
624.68	43945.90
624.83	43873.34
624.98	44013.77
625.13	43957.60
625.29	43948.24
625.44	43515.24
625.59	43477.79
625.74	43077.56
625.89	43405.23
626.04	43489.49
626.19	44121.44
626.34	44058.24
626.49	43826.53
626.65	43981.01
626.80	43627.59
626.95	43847.60
627.10	43604.18
627.25	43810.15
627.40	43030.75
627.55	42869.25
627.70	42820.10
627.85	43477.79
628.00	43026.07
628.15	42972.24
628.30	43112.67
628.45	43585.46
628.60	43402.89
628.76	42981.60
628.91	43526.94
629.06	43225.01
629.21	43283.53
629.36	42955.85
629.51	42862.23
629.66	42948.83
629.81	42550.94
629.96	43119.69
630.11	42752.23
630.26	42794.36
630.41	43358.42
630.56	43386.51
630.71	43196.93
630.86	42916.06
631.01	42462.00
631.16	43110.33
631.31	42452.64
631.46	42651.58
631.61	43077.56
631.76	42689.03
631.91	42586.05
632.06	42817.76
632.21	42822.44
632.36	42895.00
632.51	42443.27
632.66	42417.53
632.81	42274.76
632.96	42295.82
633.10	42555.62
633.25	42667.97
633.40	42787.33
633.55	42684.35
633.70	42410.51
633.85	42096.88
634.00	42073.47
634.15	42277.10
634.30	42513.49
634.45	42059.43
634.60	42010.28
634.75	42230.29
634.90	42298.16
635.05	41867.50
635.19	41888.57
635.34	42110.92
635.49	42150.71
635.64	41738.77
635.79	42017.30
635.94	41951.76
636.09	42251.35
636.24	41848.78
636.39	41570.25
636.53	41741.11
636.68	41251.94
636.83	41443.87
636.98	42265.39
637.13	41883.89
637.28	41588.98
637.43	41797.29
637.57	41560.89
637.72	41706.01
637.87	41951.76
638.02	41446.21
638.17	41263.64
638.32	41902.61
638.46	41244.92
638.61	41408.76
638.76	41579.62
638.91	41146.62
639.06	41411.10
639.20	41638.13
639.35	41677.92
639.50	41439.18
639.65	41415.78
639.80	41338.54
639.94	40884.48
640.09	41280.03
640.24	41050.66
640.39	40882.14
640.54	40765.11
640.68	41209.81
640.83	40928.95
640.98	40952.35
641.13	40535.74
641.27	41287.05
641.42	40605.95
641.57	41015.55
641.72	40830.65
641.86	40596.59
642.01	40140.19
642.16	40868.09
642.31	40601.27
642.45	40701.92
642.60	40121.46
642.75	40568.51
642.90	40531.06
643.04	40584.89
643.19	40306.37
643.34	40854.05
643.48	40399.99
643.63	40254.87
643.78	40259.55
643.93	40135.51
644.07	39955.29
644.22	40526.38
644.37	40467.86
644.51	40582.55
644.66	40713.62
644.81	40472.54
644.95	40652.76
645.10	40521.69
645.25	40161.25
645.39	40601.27
645.54	40292.32
645.69	40236.15
645.83	40271.26
645.98	40004.44
646.13	40376.58
646.27	40194.02
646.42	39952.94
646.57	40292.32
646.71	39826.56
646.86	40208.06
647.00	39999.76
647.15	40367.22
647.30	39838.26
647.44	39655.70
647.59	40140.19
647.74	39454.41
647.88	39920.18
648.03	39763.36
648.17	39688.46
648.32	39423.98
648.47	39503.56
648.61	39400.58
648.76	39735.27
648.90	39777.40
649.05	39608.89
649.20	39594.84
649.34	39522.29
649.49	39285.89
649.63	39285.89
649.78	39201.63
649.92	39306.96
650.07	39758.68
650.21	39002.69
650.36	39969.33
650.51	39122.05
650.65	39810.17
650.80	39622.93
650.94	39393.56
651.09	39803.15
651.23	38892.68
651.38	39037.80
651.52	38714.80
651.67	38904.38
651.81	38820.13
651.96	38756.93
652.10	39215.68
652.25	38911.41
652.39	39115.03
652.54	39171.21
652.68	38955.88
652.83	39185.25
652.97	39321.00
653.12	38944.17
653.26	38670.33
653.41	38710.12
653.55	38817.78
653.70	38712.46
653.84	38829.49
653.99	38469.04
654.13	38232.65
654.27	38876.30
654.42	38209.25
654.56	38068.81
654.71	38593.09
654.85	38342.66
655.00	38426.92
655.14	38401.17
655.29	38623.52
655.43	38080.52
655.57	38408.19
655.72	38082.86
655.86	38068.81
656.01	37729.44
656.15	37415.80
656.30	38061.79
656.44	37865.19
656.58	37757.52
656.73	37759.86
656.87	37785.61
657.01	37968.17
657.16	37720.07
657.30	37792.63
657.45	37282.39
657.59	37600.71
657.73	38031.36
657.88	37860.51
658.02	37741.14
658.16	38256.06
658.31	37584.32
658.45	37975.19
658.60	37699.01
658.74	37799.65
658.88	37610.07
659.03	37813.70
659.17	37282.39
659.31	37294.10
659.46	37216.86
659.60	37446.23
659.74	37818.38
659.89	36985.15
660.03	37092.81
660.17	37111.53
660.32	37350.27
660.46	37425.17
660.60	37067.06
660.74	37254.31
660.89	37008.55
661.03	36865.78
661.17	36472.57
661.32	36343.84
661.46	36999.19
661.60	36748.75
661.74	36725.35
661.89	36938.33
662.03	36713.64
662.17	36222.13
662.31	36701.94
662.46	36580.23
662.60	36591.94
662.74	36554.49
662.88	36257.24
663.03	36212.77
663.17	35929.56
663.31	35892.12
663.45	36079.36
663.60	36144.89
663.74	36343.84
663.88	35594.87
664.02	35885.09
664.17	36079.36
664.31	35665.08
664.45	36119.15
664.59	35454.44
664.73	35798.49
664.88	35489.54
665.02	35349.11
665.16	35681.47
665.30	35545.72
665.44	35323.36
665.59	35215.70
665.73	35122.08
665.87	35482.52
666.01	35473.16
666.15	35026.12
666.29	35220.38
666.44	35185.27
666.58	34995.69
666.72	34972.28
666.86	34976.97
667.00	35014.41
667.14	34747.59
667.28	34703.12
667.43	34457.37
667.57	34862.28
667.71	34595.46
667.85	34803.77
667.99	34553.33
668.13	34181.18
668.27	34284.17
668.41	34417.58
668.56	34471.41
668.70	34340.34
668.84	34176.50
668.98	34204.59
669.12	34103.95
669.26	34078.20
669.40	33926.07
669.54	33776.27
669.68	34038.41
669.82	33521.15
669.96	33738.82
670.10	33420.51
670.25	33965.85
670.39	33890.96
670.53	33083.47
670.67	33525.83
670.81	33743.50
670.95	33560.94
671.09	33057.73
671.23	33413.49
671.37	33343.27
671.51	33371.36
671.65	32690.26
671.79	33153.69
671.93	32659.84
672.07	32725.37
672.21	33280.08
672.35	32767.50
672.49	32739.41
672.63	32947.72
672.77	32266.63
672.91	32711.33
673.05	32322.80
673.19	32105.13
673.33	32346.20
673.47	32147.26
673.61	31901.50
673.75	32086.40
673.89	31576.17
674.03	32154.28
674.17	32053.64
674.31	31981.08
674.45	31697.88
674.59	31976.40
674.73	31852.35
674.87	31531.70
675.01	31452.12
675.15	31159.55
675.29	31594.89
675.43	31388.92
675.56	30920.82
675.70	31112.74
675.84	30834.22
675.98	30157.80
676.12	30829.54
676.26	31157.21
676.40	30810.81
676.54	30808.47
676.68	30611.87
676.82	30382.49
676.96	30630.59
677.10	30316.96
677.23	30295.89
677.37	30022.05
677.51	29708.42
677.65	30141.42
677.79	29296.49
677.93	29912.05
678.07	29771.61
678.21	29282.44
678.34	29364.36
678.48	29069.45
678.62	29088.18
678.76	28678.58
678.90	28872.85
679.04	28758.16
679.18	28524.11
679.31	28367.29
679.45	28496.02
679.59	28428.15
679.73	28587.30
679.87	28577.94
680.00	28446.87
680.14	27676.83
680.28	27992.81
680.42	27861.74
680.56	27962.38
680.70	27751.73
680.83	27903.87
680.97	27786.84
681.11	27810.25
681.25	27538.74
681.39	27449.80
681.52	27564.49
681.66	27513.00
681.80	27185.32
681.94	27470.87
682.07	27487.25
682.21	27278.94
682.35	27007.44
682.49	26979.36
682.62	27152.55
682.76	26864.67
682.90	26661.04
683.04	26153.15
683.17	26363.79
683.31	26281.88
683.45	26408.26
683.59	25933.14
683.72	26057.18
683.86	25715.47
684.00	25944.84
684.13	25961.22
684.27	26078.25
684.41	25722.49
684.55	25340.98
684.68	25530.56
684.82	25713.13
684.96	25378.43
685.09	25518.86
685.23	25315.23
685.37	25078.84
685.50	25216.93
685.64	25149.06
685.78	24510.09
685.91	24397.74
686.05	24339.23
686.19	24388.38
686.32	24320.51
686.46	23917.93
686.60	23896.87
686.73	23576.22
686.87	23138.54
687.01	23529.41
687.14	23065.98
687.28	23386.63
687.42	23183.01
687.55	23257.90
687.69	23566.85
687.82	23388.97
687.96	23419.40
688.10	23412.38
688.23	23407.70
688.37	22644.68
688.50	22452.76
688.64	23063.64
688.78	22778.09
688.91	22649.36
689.05	22691.49
689.18	22286.58
689.32	22202.32
689.46	22361.48
689.59	22445.74
689.73	22733.62
689.86	22387.22
690.00	22068.91
690.13	22223.39
690.27	21968.27
690.41	21853.58
690.54	21532.93
690.68	21731.87
690.81	21514.20
690.95	21462.71
691.08	21619.53
691.22	21532.93
691.35	21549.31
691.49	21413.56
691.62	21537.61
691.76	21085.89
691.89	21249.72
692.03	20987.58
692.16	20812.04
692.30	20695.02
692.43	20252.66
692.57	20353.30
692.70	20257.34
692.84	19934.34
692.97	19983.49
693.11	20135.63
693.24	20166.06
693.38	19812.63
693.51	19932.00
693.65	20325.21
693.78	20081.80
693.92	20025.62
694.05	19833.70
694.19	19737.74
694.32	19562.20
694.45	19396.02
694.59	19194.73
694.72	19225.16
694.86	19190.05
694.99	19002.81
695.13	19248.57
695.26	18867.06
695.39	18761.73
695.53	18963.02
695.66	19147.92
695.80	18738.33
695.93	18693.86
696.07	18597.90
696.20	18679.82
696.33	18445.76
696.47	18326.39
696.60	18354.48
696.73	18157.88
696.87	18015.10
697.00	18354.48
697.14	17900.42
697.27	17802.11
697.40	17736.58
697.54	17706.15
697.67	17664.02
697.80	17605.51
697.94	17385.50
698.07	17282.52
698.21	17233.36
698.34	17025.06
698.47	17041.44
698.61	16917.39
698.74	17132.72
698.87	16929.09
699.01	16465.67
699.14	16168.42
699.27	16615.46
699.40	16573.33
699.54	16540.57
699.67	16116.93
699.80	16208.21
699.94	16114.59
700.07	16266.72
700.20	16327.58
700.34	15925.00
700.47	16065.44
700.60	16159.06
700.73	16465.67
700.87	16051.39
701.00	15983.52
701.13	15700.31
701.26	15606.69
701.40	15328.17
701.53	15351.57
701.66	15580.95
701.79	15243.91
701.93	15330.51
702.06	15389.02
702.19	14946.66
702.32	15318.81
702.46	14836.66
702.59	14937.30
702.72	15096.46
702.85	14810.91
702.99	15028.58
703.12	14544.09
703.25	14328.76
703.38	14415.36
703.51	14719.63
703.65	14614.30
703.78	14434.08
703.91	14391.95
704.04	14244.50
704.17	14480.89
704.31	14214.07
704.44	13919.17
704.57	14113.43
704.70	13942.57
704.83	13909.80
704.96	13844.27
705.10	13752.99
705.23	13748.31
>>>>>End Processed Spectral Data<<<<<
