SpectraSuite Data File
++++++++++++++++++++++++++++++++++++
Date: Fri Oct 25 10:44:45 EDT 2013
User: price-jones
Dark Spectrum Present: No
Reference Spectrum Present: No
Number of Sampled Component Spectra: 1
Spectrometers: USB2+H05261
Integration Time (usec): 100000 (USB2+H05261)
Spectra Averaged: 1 (USB2+H05261)
Boxcar Smoothing: 0 (USB2+H05261)
Correct for Electrical Dark: No (USB2+H05261)
Strobe/Lamp Enabled: No (USB2+H05261)
Correct for Detector Non-linearity: No (USB2+H05261)
Correct for Stray Light: No (USB2+H05261)
Number of Pixels in Processed Spectrum: 2048
>>>>>Begin Processed Spectral Data<<<<<
365.73	184.90
365.92	184.90
366.12	184.90
366.32	9.36
366.52	11.70
366.72	30.43
366.91	21.06
367.11	37.45
367.31	35.11
367.51	37.45
367.70	0.00
367.90	35.11
368.10	0.00
368.30	77.24
368.49	35.11
368.69	56.17
368.89	49.15
369.09	14.04
369.28	77.24
369.48	46.81
369.68	77.24
369.87	70.22
370.07	128.73
370.27	60.85
370.47	234.05
370.66	360.44
370.86	367.46
371.06	493.85
371.25	470.45
371.45	358.10
371.65	365.12
371.84	463.43
372.04	423.64
372.24	498.53
372.44	505.56
372.63	514.92
372.83	517.26
373.03	456.40
373.22	449.38
373.42	500.87
373.62	519.60
373.81	550.03
374.01	559.39
374.21	582.79
374.40	573.43
374.60	571.09
374.79	580.45
374.99	517.26
375.19	550.03
375.38	613.22
375.58	636.63
375.78	578.11
375.97	571.09
376.17	660.03
376.37	627.26
376.56	545.34
376.76	573.43
376.95	587.47
377.15	573.43
377.35	566.41
377.54	624.92
377.74	596.84
377.93	601.52
378.13	643.65
378.33	610.88
378.52	631.94
378.72	648.33
378.91	608.54
379.11	678.76
379.31	667.05
379.50	608.54
379.70	655.35
379.89	669.39
380.09	751.31
380.28	613.22
380.48	671.73
380.68	528.96
380.87	596.84
381.07	678.76
381.26	617.90
381.46	636.63
381.65	709.18
381.85	653.01
382.04	660.03
382.24	653.01
382.43	655.35
382.63	671.73
382.83	725.57
383.02	706.84
383.22	664.71
383.41	706.84
383.61	678.76
383.80	807.48
384.00	798.12
384.19	763.01
384.39	748.97
384.58	683.44
384.78	784.08
384.97	772.38
385.17	772.38
385.36	713.86
385.56	791.10
385.75	746.63
385.95	695.14
386.14	739.61
386.34	826.21
386.53	802.80
386.72	770.04
386.92	763.01
387.11	802.80
387.31	760.67
387.50	779.40
387.70	748.97
387.89	777.06
388.09	858.98
388.28	826.21
388.48	809.83
388.67	901.11
388.86	905.79
389.06	896.43
389.25	851.96
389.45	861.32
389.64	945.58
389.84	887.06
390.03	877.70
390.22	959.62
390.42	929.19
390.61	896.43
390.81	891.74
391.00	983.02
391.19	936.21
391.39	959.62
391.58	976.00
391.78	910.47
391.97	947.92
392.16	959.62
392.36	1043.88
392.55	964.30
392.75	987.71
392.94	898.77
393.13	1036.86
393.33	973.66
393.52	1034.52
393.71	1172.61
393.91	1043.88
394.10	1001.75
394.29	1032.18
394.49	1060.26
394.68	1043.88
394.88	1076.65
395.07	1102.39
395.26	1104.73
395.46	1153.88
395.65	1156.22
395.84	1053.24
396.04	1158.57
396.23	1125.80
396.42	1125.80
396.62	1097.71
396.81	1123.46
397.00	1107.07
397.19	1198.35
397.39	1198.35
397.58	1214.74
397.77	1181.97
397.97	1284.95
398.16	1242.82
398.35	1357.51
398.55	1266.23
398.74	1273.25
398.93	1291.98
399.12	1291.98
399.32	1310.70
399.51	1334.11
399.70	1418.36
399.90	1474.54
400.09	1376.24
400.28	1467.52
400.47	1460.49
400.67	1455.81
400.86	1519.01
401.05	1502.62
401.24	1490.92
401.44	1441.77
401.63	1526.03
401.82	1504.96
402.01	1497.94
402.21	1474.54
402.40	1593.90
402.59	1614.97
402.78	1614.97
402.97	1549.43
403.17	1582.20
403.36	1626.67
403.55	1605.61
403.74	1586.88
403.93	1694.55
404.13	1692.21
404.32	1614.97
404.51	1762.42
404.70	1736.68
404.89	1715.61
405.09	1802.21
405.28	1739.02
405.47	1799.87
405.66	1781.15
405.85	1774.13
406.05	1724.97
406.24	1818.60
406.43	1778.81
406.62	1804.55
406.81	1959.03
407.00	1743.70
407.20	1764.76
407.39	1963.71
407.58	1891.15
407.77	2040.95
407.96	1907.54
408.15	2008.18
408.34	2024.56
408.54	1975.41
408.73	2022.22
408.92	2108.82
409.11	2050.31
409.30	2008.18
409.49	2080.74
409.68	2050.31
409.87	1961.37
410.07	2176.70
410.26	2050.31
410.45	2186.06
410.64	2101.80
410.83	2221.17
411.02	2352.24
411.21	2216.49
411.40	2258.62
411.59	2253.94
411.78	2457.56
411.98	2270.32
412.17	2363.94
412.36	2490.33
412.55	2406.07
412.74	2361.60
412.93	2401.39
413.12	2420.11
413.31	2572.25
413.50	2583.95
413.69	2394.37
413.88	2637.78
414.07	2513.74
414.26	2661.19
414.45	2696.30
414.64	2708.00
414.83	2796.94
415.02	2670.55
415.22	2876.52
415.41	2747.79
415.60	2759.49
415.79	2864.82
415.98	2916.31
416.17	2979.50
416.36	2806.30
416.55	2892.90
416.74	2813.32
416.93	2860.13
417.12	2843.75
417.31	3035.67
417.50	3089.51
417.69	3243.98
417.88	3171.43
418.07	3073.12
418.26	3110.57
418.45	3016.95
418.64	3286.11
418.83	3222.92
419.02	3246.32
419.21	3194.83
419.39	3220.58
419.58	3136.32
419.77	3246.32
419.96	3300.16
420.15	3375.05
420.34	3424.20
420.53	3382.07
420.72	3478.04
420.91	3471.01
421.10	3487.40
421.29	3508.46
421.48	3445.27
421.67	3398.46
421.86	3342.28
422.05	3412.50
422.24	3349.31
422.43	3419.52
422.61	3515.48
422.80	3524.85
422.99	3655.92
423.18	3595.06
423.37	3639.53
423.56	3527.19
423.75	3599.74
423.94	3609.11
424.13	3246.32
424.32	3492.08
424.50	3667.62
424.69	3576.34
424.88	3590.38
425.07	3630.17
425.26	3728.47
425.45	3616.13
425.64	3522.51
425.83	3667.62
426.01	3641.87
426.20	3735.50
426.39	3658.26
426.58	3644.21
426.77	3592.72
426.96	3611.45
427.15	3590.38
427.33	3709.75
427.52	3623.15
427.71	3758.90
427.90	3829.12
428.09	3861.88
428.28	3822.09
428.46	3791.67
428.65	3789.33
428.84	3833.80
429.03	3925.08
429.22	3634.85
429.40	3730.81
429.59	3840.82
429.78	3693.37
429.97	3684.00
430.16	3805.71
430.34	3808.05
430.53	3911.04
430.72	3974.23
430.91	3922.74
431.10	4014.02
431.28	4037.42
431.47	4168.49
431.66	4322.97
431.85	4039.76
432.03	4149.77
432.22	4297.22
432.41	4241.05
432.60	4358.08
432.79	4304.25
432.97	4376.80
433.16	4271.48
433.35	4241.05
433.54	4386.16
433.72	4348.72
433.91	4395.53
434.10	4194.24
434.28	4489.15
434.47	4559.36
434.66	4613.20
434.85	4533.62
435.03	4493.83
435.22	4468.08
435.41	4575.75
435.59	4638.94
435.78	4706.82
435.97	4690.43
436.16	4655.33
436.34	4524.26
436.53	4770.01
436.72	4748.95
436.90	4599.15
437.09	4737.24
437.28	4531.28
437.46	4674.05
437.65	4739.58
437.84	4753.63
438.02	4718.52
438.21	4826.18
438.40	4737.24
438.58	4861.29
438.77	4873.00
438.96	4922.15
439.14	4985.34
439.33	5163.22
439.52	5132.79
439.70	5207.69
439.89	5252.16
440.08	5345.78
440.26	5245.14
440.45	5191.31
440.63	5434.72
440.82	5516.64
441.01	5495.58
441.19	5474.51
441.38	5486.22
441.57	5451.11
441.75	5736.65
441.94	5673.46
442.12	5701.54
442.31	5736.65
442.50	5736.65
442.68	5741.33
442.87	5729.63
443.05	5937.94
443.24	6038.58
443.43	5678.14
443.61	5891.13
443.80	5813.89
443.98	5617.29
444.17	5743.67
444.35	5888.79
444.54	6122.84
444.73	5823.25
444.91	5781.12
445.10	5853.68
445.28	5991.77
445.47	5785.80
445.65	5701.54
445.84	5966.03
446.02	6061.99
446.21	6036.24
446.39	6029.22
446.58	5919.21
446.77	6061.99
446.95	5792.83
447.14	6059.65
447.32	6094.76
447.51	6246.89
447.69	6092.41
447.88	6005.81
448.06	6078.37
448.25	6033.90
448.43	6263.27
448.62	5921.56
448.80	6143.91
448.99	5966.03
449.17	6080.71
449.36	6193.06
449.54	6333.49
449.73	6347.53
449.91	6408.39
450.10	6300.72
450.28	6567.54
450.46	6546.48
450.65	6654.14
450.83	6565.20
451.02	6389.66
451.20	6612.01
451.39	6672.87
451.57	6527.75
451.76	6539.46
451.94	6459.88
452.13	6595.63
452.31	6499.67
452.49	6588.61
452.68	6558.18
452.86	6499.67
453.05	6534.78
453.23	6581.59
453.42	6836.70
453.60	6516.05
453.78	6825.00
453.97	6927.99
454.15	6796.92
454.34	6679.89
454.52	6841.39
454.70	6843.73
454.89	6942.03
455.07	6867.13
455.26	7007.56
455.44	6995.86
455.62	6918.62
455.81	7087.14
455.99	6993.52
456.17	7087.14
456.36	7068.42
456.54	7204.17
456.73	7218.21
456.91	7295.45
457.09	7470.99
457.28	7377.37
457.46	7426.52
457.64	7297.79
457.83	7435.88
458.01	7414.82
458.19	7637.17
458.38	7403.11
458.56	7470.99
458.74	7470.99
458.93	7452.27
459.11	7559.93
459.29	7496.74
459.48	7779.94
459.66	7456.95
459.84	7520.14
460.03	7906.33
460.21	7733.13
460.39	7850.16
460.57	7740.15
460.76	7836.11
460.94	7815.05
461.12	7667.60
461.31	7918.03
461.49	7791.64
461.67	7971.86
461.85	7964.84
462.04	8056.12
462.22	8269.11
462.40	8175.49
462.59	8091.23
462.77	8219.96
462.95	8152.09
463.13	8156.77
463.32	8173.15
463.50	8313.58
463.68	8269.11
463.86	8152.09
464.05	8126.34
464.23	8266.77
464.41	8439.97
464.59	8159.11
464.78	8458.70
464.96	8442.31
465.14	8145.06
465.32	8549.98
465.50	8533.59
465.69	8542.96
465.87	8393.16
466.05	8379.12
466.23	8439.97
466.41	8519.55
466.60	8643.60
466.78	8564.02
466.96	8643.60
467.14	8425.93
467.32	8678.71
467.51	8685.73
467.69	8468.06
467.87	8690.41
468.05	8599.13
468.23	8793.39
468.41	8533.59
468.60	8774.67
468.78	8884.67
468.96	9006.38
469.14	8858.93
469.32	8793.39
469.50	8596.79
469.69	8737.22
469.87	9104.68
470.05	8903.40
470.23	9275.54
470.41	8947.87
470.59	9179.58
470.77	9191.28
470.95	9177.24
471.14	9310.65
471.32	9132.77
471.50	9439.38
471.68	9430.02
471.86	9540.02
472.04	9385.55
472.22	9652.37
472.40	9352.78
472.58	9383.21
472.77	9561.09
472.95	9540.02
473.13	9905.15
473.31	9673.43
473.49	9743.65
473.67	9806.84
473.85	9893.44
474.03	10097.07
474.21	10296.02
474.39	10293.68
474.57	10104.09
474.75	10328.78
474.93	10162.61
475.12	10277.29
475.30	10310.06
475.48	10368.57
475.66	10312.40
475.84	10394.32
476.02	10368.57
476.20	10665.82
476.38	10602.63
476.56	11131.59
476.74	11061.37
476.92	10946.69
477.10	10740.72
477.28	11279.04
477.46	11080.10
477.64	11197.12
477.82	11506.07
478.00	11499.05
478.18	11379.68
478.36	11520.12
478.54	11618.42
478.72	11744.81
478.90	11749.49
479.08	11918.01
479.26	12004.61
479.44	12042.06
479.62	12135.68
479.80	12329.94
479.98	12390.80
480.16	12601.44
480.34	12241.00
480.52	12634.21
480.70	12592.08
480.88	12442.29
481.06	12582.72
481.24	12985.29
481.41	12868.27
481.59	13055.51
481.77	13268.50
481.95	13128.06
482.13	13270.84
482.31	13385.52
482.49	13607.87
482.67	13701.50
482.85	13736.60
483.03	13832.57
483.21	13977.68
483.39	14185.99
483.57	14040.87
483.74	14188.33
483.92	14583.88
484.10	14263.22
484.28	14569.83
484.46	14677.50
484.64	15047.30
484.82	14703.25
485.00	14897.51
485.18	15311.78
485.35	15136.24
485.53	14956.02
485.71	15054.33
485.89	15665.21
486.07	15321.15
486.25	15583.29
486.43	15758.83
486.61	15613.71
486.78	16341.62
486.96	16091.18
487.14	16390.77
487.32	16601.42
487.50	16599.08
487.68	17022.72
487.85	17085.91
488.03	17015.69
488.21	17270.81
488.39	17193.58
488.57	17324.65
488.75	17558.70
488.92	17631.26
489.10	18136.81
489.28	18064.25
489.46	18101.70
489.64	18136.81
489.81	18384.91
489.99	18434.06
490.17	18934.93
490.35	19070.68
490.53	18827.27
490.70	18916.21
490.88	18909.19
491.06	19391.34
491.24	19133.88
491.41	19311.76
491.59	19257.93
491.77	19318.78
491.95	19789.23
492.13	19885.19
492.30	19730.72
492.48	20357.98
492.66	20252.66
492.84	20369.68
493.01	20554.58
493.19	20510.11
493.37	20332.23
493.54	20692.68
493.72	21010.99
493.90	20854.17
494.08	21502.50
494.25	21242.70
494.43	21282.49
494.61	21837.20
494.79	21593.78
494.96	21661.66
495.14	21738.90
495.32	22197.64
495.49	21804.43
495.67	22010.40
495.85	22347.44
496.02	22611.92
496.20	22410.63
496.38	22625.96
496.55	22822.56
496.73	23260.24
496.91	23040.23
497.09	23154.92
497.26	23276.63
497.44	23257.90
497.62	23358.55
497.79	23683.88
497.97	23506.00
498.14	23372.59
498.32	23857.08
498.50	23747.08
498.67	24383.70
498.85	24175.39
499.03	24465.62
499.20	24697.33
499.38	24180.07
499.56	24666.91
499.73	24772.23
499.91	24669.25
500.08	25076.50
500.26	24795.64
500.44	25230.98
500.61	24723.08
500.79	24863.51
500.97	25137.35
501.14	25195.87
501.32	25568.01
501.49	25352.68
501.67	25490.77
501.84	25610.14
502.02	25656.95
502.20	25813.77
502.37	26005.69
502.55	25703.76
502.72	25858.24
502.90	26164.85
503.07	25975.27
503.25	26654.02
503.43	26347.41
503.60	26286.56
503.78	26291.24
503.95	26352.09
504.13	26630.62
504.30	26848.29
504.48	26771.05
504.65	27164.26
504.83	27215.75
505.01	26951.27
505.18	26857.65
505.36	27676.83
505.53	27147.87
505.71	27922.59
505.88	27353.84
506.06	27311.71
506.23	27597.26
506.41	27529.38
506.58	27775.14
506.76	27620.66
506.93	28130.90
507.11	27894.50
507.28	28243.24
507.46	28048.98
507.63	28266.65
507.81	28390.70
507.98	28161.33
508.16	28369.63
508.33	28556.88
508.50	28912.64
508.68	28655.18
508.85	29020.30
509.03	29046.05
509.20	28652.84
509.38	29446.28
509.55	29371.38
509.73	29397.13
509.90	29331.59
510.08	29378.40
510.25	29399.47
510.42	29785.66
510.60	29731.83
510.77	30082.91
510.95	30232.70
511.12	29780.98
511.30	29818.42
511.47	30361.43
511.64	30314.62
511.82	30906.77
511.99	30352.07
512.17	30192.91
512.34	30078.22
512.51	30558.03
512.69	30764.00
512.86	30829.54
513.04	30941.88
513.21	30597.82
513.38	30712.51
513.56	30890.39
513.73	30487.82
513.90	31124.44
514.08	31152.53
514.25	31087.00
514.43	31108.06
514.60	31496.59
514.77	31517.65
514.95	31676.81
515.12	31365.52
515.29	31644.04
515.47	31658.09
515.64	31906.18
515.81	31527.02
515.99	31782.13
516.16	32041.93
516.33	31845.33
516.51	31908.52
516.68	31601.91
516.85	31496.59
517.03	31931.93
517.20	32091.09
517.37	32643.45
517.54	32081.72
517.72	32774.52
517.89	32432.80
518.06	32320.46
518.24	32362.59
518.41	32481.95
518.58	32631.75
518.75	33029.64
518.93	33092.83
519.10	32826.01
519.27	33113.90
519.45	33380.72
519.62	32905.59
519.79	32912.61
519.96	33532.86
520.14	33766.91
520.31	33266.03
520.48	33233.27
520.65	33689.67
520.83	34087.56
521.00	34047.77
521.17	34298.21
521.34	34038.41
521.52	33886.28
521.69	34206.93
521.86	34080.54
522.03	34459.71
522.20	33956.49
522.38	34026.71
522.55	34771.00
522.72	34494.82
522.89	34345.02
523.07	34609.50
523.24	34398.85
523.41	34749.93
523.58	34492.47
523.75	35065.91
523.92	35260.17
524.10	35339.75
524.27	35372.52
524.44	35501.25
524.61	35735.30
524.78	35253.15
524.96	35522.31
525.13	35414.65
525.30	35285.92
525.47	35948.29
525.64	35676.79
525.81	35873.39
525.98	35512.95
526.16	35744.66
526.33	35503.59
526.50	35571.46
526.67	35431.03
526.84	35573.80
527.01	35941.27
527.18	36044.25
527.36	35959.99
527.53	36161.28
527.70	36299.37
527.87	36430.44
528.04	36987.49
528.21	36596.62
528.38	36397.67
528.55	36116.81
528.72	36947.70
528.89	36397.67
529.07	36538.10
529.24	36285.33
529.41	36992.17
529.58	36769.82
529.75	36587.25
529.92	36825.99
530.09	36924.29
530.26	37085.79
530.43	37420.48
530.60	36870.46
530.77	37160.69
530.94	37139.62
531.11	37488.36
531.28	36999.19
531.46	37251.97
531.63	37476.66
531.80	37029.62
531.97	37359.63
532.14	37345.59
532.31	37383.04
532.48	37565.60
532.65	37699.01
532.82	37556.24
532.99	37860.51
533.16	37429.85
533.33	37738.80
533.50	38256.06
533.67	38089.88
533.84	37773.91
534.01	37886.25
534.18	38316.91
534.35	38153.07
534.52	38539.26
534.69	38347.34
534.86	38129.67
535.03	38337.98
535.20	38721.82
535.37	38880.98
535.54	38527.56
535.71	38569.69
535.88	38660.97
536.05	38256.06
536.22	38817.78
536.38	38644.59
536.55	38330.95
536.72	38572.03
536.89	38522.88
537.06	38796.72
537.23	39075.24
537.40	38796.72
537.57	39021.41
537.74	39030.77
537.91	38850.55
538.08	39435.69
538.25	39164.18
538.42	38878.64
538.59	39012.05
538.75	39030.77
538.92	38660.97
539.09	39325.68
539.26	39157.16
539.43	39178.23
539.60	39590.16
539.77	39077.58
539.94	39496.54
540.11	39702.51
540.28	39555.05
540.44	39473.13
540.61	39517.60
540.78	39517.60
540.95	39775.06
541.12	39749.32
541.29	39632.29
541.46	39906.13
541.62	39819.53
541.79	39990.39
541.96	39831.24
542.13	40023.16
542.30	40168.27
542.47	40098.06
542.63	39859.32
542.80	40294.66
542.97	40605.95
543.14	40739.36
543.31	40472.54
543.48	40545.10
543.64	40961.72
543.81	41017.89
543.98	40868.09
544.15	40655.11
544.32	41001.50
544.48	41127.89
544.65	41177.04
544.82	40849.37
544.99	40708.94
545.16	41289.39
545.32	40638.72
545.49	41694.30
545.66	41237.90
545.83	41504.72
546.00	41486.00
546.16	41165.34
546.33	40989.80
546.50	41275.35
546.67	41338.54
546.83	40945.33
547.00	41336.20
547.17	41354.93
547.34	41254.28
547.50	41769.20
547.67	41471.95
547.84	41532.81
548.00	41834.74
548.17	42117.94
548.34	42096.88
548.51	41954.10
548.67	41619.41
548.84	42108.58
549.01	41303.43
549.18	41811.33
549.34	42092.19
549.51	41977.51
549.68	41748.14
549.84	41848.78
550.01	42382.42
550.18	42422.21
550.34	41993.89
550.51	42204.54
550.68	41923.68
550.84	42178.79
551.01	42848.19
551.18	42529.87
551.34	41841.76
551.51	42637.54
551.68	42314.55
551.84	42562.64
552.01	42391.78
552.18	42848.19
552.34	41860.48
552.51	42534.56
552.68	42483.06
552.84	42693.71
553.01	42937.13
553.18	42506.47
553.34	42674.99
553.51	42038.36
553.67	42637.54
553.84	43136.07
554.01	43040.11
554.17	43112.67
554.34	43433.32
554.51	43028.41
554.67	43192.25
554.84	42838.83
555.00	43119.69
555.17	42866.91
555.33	42686.69
555.50	42351.99
555.67	43065.86
555.83	42934.79
556.00	43372.47
556.16	43690.78
556.33	43103.31
556.50	43159.48
556.66	43459.07
556.83	42766.27
556.99	42916.06
557.16	43688.44
557.32	43555.03
557.49	43009.68
557.65	42958.19
557.82	42958.19
557.98	43398.21
558.15	43241.40
558.32	43356.08
558.48	43250.76
558.65	43423.96
558.81	43194.59
558.98	43178.20
559.14	43374.81
559.31	43407.58
559.47	43428.64
559.64	43845.26
559.80	43395.87
559.97	43714.19
560.13	43210.97
560.30	43756.32
560.46	43784.40
560.63	43751.63
560.79	43906.11
560.96	44018.46
561.12	43983.35
561.29	43819.51
561.45	43519.92
561.61	43784.40
561.78	43758.66
561.94	43824.19
562.11	43756.32
562.27	43742.27
562.44	43217.99
562.60	43901.43
562.77	43856.96
562.93	43838.23
563.10	44144.84
563.26	43751.63
563.42	43758.66
563.59	43643.97
563.75	43721.21
563.92	43892.07
564.08	43964.62
564.24	44161.23
564.41	43943.56
564.57	43402.89
564.74	44168.25
564.90	43863.98
565.07	44289.96
565.23	44236.12
565.39	44158.89
565.56	44259.53
565.72	43887.39
565.88	43936.54
566.05	43838.23
566.21	43913.13
566.38	44189.31
566.54	43957.60
566.70	44334.43
566.87	44313.36
567.03	43941.22
567.19	44437.41
567.36	44273.57
567.52	43978.67
567.68	44460.82
567.85	44418.69
568.01	44289.96
568.17	44023.14
568.34	43929.51
568.50	44360.17
568.66	44261.87
568.83	44493.58
568.99	44458.48
569.15	43880.36
569.32	43971.64
569.48	43957.60
569.64	44432.73
569.81	44348.47
569.97	44123.78
570.13	44201.02
570.30	43894.41
570.46	44210.38
570.62	43732.91
570.78	44037.18
570.95	44261.87
571.11	44325.07
571.27	43861.64
571.43	44060.58
571.60	44194.00
571.76	44233.78
571.92	44638.70
572.09	43936.54
572.25	44507.63
572.41	44266.55
572.57	44573.16
572.74	44746.36
572.90	44533.37
573.06	44406.98
573.22	44657.42
573.38	44299.32
573.55	44521.67
573.71	44844.66
573.87	44538.05
574.03	44250.17
574.20	44722.96
574.36	44449.11
574.52	44495.92
574.68	44353.15
574.84	44179.95
575.01	44311.02
575.17	44367.20
575.33	44121.44
575.49	44250.17
575.65	44758.06
575.82	44863.39
575.98	44704.23
576.14	44872.75
576.30	44765.09
576.46	44664.44
576.62	44074.63
576.79	44002.07
576.95	44289.96
577.11	44669.12
577.27	44587.21
577.43	44683.17
577.59	44247.83
577.75	44584.86
577.92	44172.93
578.08	44041.86
578.24	44535.71
578.40	44580.18
578.56	44521.67
578.72	44364.85
578.88	44954.67
579.04	44692.53
579.21	44734.66
579.37	44432.73
579.53	44769.77
579.69	44397.62
579.85	44800.19
580.01	44692.53
580.17	44542.74
580.33	44720.62
580.49	44545.08
580.65	44783.81
580.82	44786.15
580.98	44746.36
581.14	44573.16
581.30	44957.01
581.46	45074.04
581.62	45078.72
581.78	44318.04
581.94	44687.85
582.10	44442.09
582.26	44596.57
582.42	44762.75
582.58	44823.60
582.74	44715.93
582.90	45036.59
583.06	44959.35
583.22	44666.78
583.38	44940.63
583.54	44811.90
583.70	44942.97
583.86	44687.85
584.02	44458.48
584.18	44900.84
584.34	44495.92
584.50	44697.21
584.66	44491.24
584.82	44374.22
584.98	44914.88
585.14	44690.19
585.30	44727.64
585.46	44776.79
585.62	44987.44
585.78	44463.16
585.94	44732.32
586.10	44865.73
586.26	44399.96
586.42	44776.79
586.58	44891.48
586.74	44854.03
586.90	44507.63
587.06	44786.15
587.22	44957.01
587.38	44727.64
587.54	44399.96
587.70	44584.86
587.86	44734.66
588.02	44879.77
588.18	44811.90
588.34	44577.84
588.49	44210.38
588.65	44322.72
588.81	44126.12
588.97	44243.15
589.13	44655.08
589.29	44556.78
589.45	45078.72
589.61	44821.26
589.77	44938.29
589.93	44832.96
590.08	44542.74
590.24	45155.96
590.40	44982.76
590.56	44896.16
590.72	45319.79
590.88	44715.93
591.04	44886.79
591.20	45640.45
591.35	45132.55
591.51	45586.61
591.67	45036.59
591.83	44875.09
591.99	44851.69
592.15	45141.91
592.31	45027.23
592.46	44940.63
592.62	45181.70
592.78	45010.84
592.94	45338.52
593.10	44556.78
593.26	45371.28
593.41	44964.03
593.57	44776.79
593.73	44921.90
593.89	45422.78
594.05	44655.08
594.20	44858.71
594.36	45647.47
594.52	44868.07
594.68	45151.27
594.84	44863.39
594.99	45134.89
595.15	45284.68
595.31	45022.54
595.47	44725.30
595.62	45015.52
595.78	45305.75
595.94	45202.77
596.10	45256.60
596.25	45511.72
596.41	45385.33
596.57	44865.73
596.73	45249.58
596.88	44875.09
597.04	44793.17
597.20	44783.81
597.36	45162.98
597.51	45329.16
597.67	45549.17
597.83	45319.79
597.99	45439.16
598.14	45172.34
598.30	44868.07
598.46	45233.19
598.61	45158.30
598.77	44655.08
598.93	44554.44
599.09	44713.59
599.24	45701.30
599.40	45352.56
599.56	45144.25
599.71	45324.47
599.87	45277.66
600.03	44907.86
600.18	44919.56
600.34	45153.62
600.50	45399.37
600.65	45354.90
600.81	45432.14
600.97	45492.99
601.12	45710.66
601.28	44858.71
601.44	45368.94
601.59	44832.96
601.75	44650.40
601.91	44884.45
602.06	45013.18
602.22	45008.50
602.37	44884.45
602.53	45008.50
602.69	45387.67
602.84	45010.84
603.00	45120.85
603.16	45319.79
603.31	44947.65
603.47	44748.70
603.62	44868.07
603.78	44947.65
603.94	45191.06
604.09	45361.92
604.25	45083.40
604.40	45354.90
604.56	45296.39
604.71	45280.00
604.87	44884.45
605.03	45055.31
605.18	44809.56
605.34	44676.15
605.49	44781.47
605.65	44954.67
605.80	45237.87
605.96	44886.79
606.12	45191.06
606.27	45165.32
606.43	45059.99
606.58	45343.20
606.74	44669.12
606.89	45055.31
607.05	44985.10
607.20	44940.63
607.36	45015.52
607.51	45298.73
607.67	44648.06
607.82	44858.71
607.98	44975.73
608.13	44706.57
608.29	44713.59
608.44	44683.17
608.60	44282.94
608.75	44729.98
608.91	44680.83
609.06	44395.28
609.22	44835.30
609.37	44320.38
609.53	44479.54
609.68	44638.70
609.84	44521.67
609.99	44545.08
610.15	44587.21
610.30	44294.64
610.46	44170.59
610.61	44318.04
610.76	44528.69
610.92	44760.40
611.07	44666.78
611.23	44556.78
611.38	44421.03
611.54	44690.19
611.69	44753.38
611.84	44418.69
612.00	44149.53
612.15	44098.03
612.31	44624.65
612.46	44016.11
612.62	44521.67
612.77	44519.33
612.92	44535.71
613.08	44126.12
613.23	44383.58
613.39	44238.47
613.54	43796.10
613.69	43938.88
613.85	43983.35
614.00	44013.77
614.15	44460.82
614.31	44278.25
614.46	44376.56
614.62	44137.82
614.77	44240.81
614.92	44304.00
615.08	44194.00
615.23	43765.68
615.38	44484.22
615.54	43381.83
615.69	43810.15
615.84	43545.67
616.00	43999.73
616.15	43732.91
616.30	44067.61
616.46	43524.60
616.61	43728.23
616.76	43447.36
616.92	43189.91
617.07	43339.70
617.22	43487.15
617.37	43894.41
617.53	43650.99
617.68	43515.24
617.83	43540.99
617.99	43576.09
618.14	43498.86
618.29	43648.65
618.45	43304.59
618.60	43100.97
618.75	43538.65
618.90	43402.89
619.06	43599.50
619.21	43562.05
619.36	43590.14
619.51	43419.28
619.67	43414.60
619.82	43103.31
619.97	43674.40
620.12	43433.32
620.28	43131.39
620.43	42843.51
620.58	43388.85
620.73	42562.64
620.89	43002.66
621.04	42883.30
621.19	42843.51
621.34	43016.71
621.49	42995.64
621.65	42932.45
621.80	43131.39
621.95	42653.92
622.10	42969.90
622.25	42686.69
622.41	42391.78
622.56	42810.74
622.71	42770.95
622.86	42756.91
623.01	42635.20
623.16	42969.90
623.32	42824.78
623.47	42733.50
623.62	43269.48
623.77	42614.13
623.92	42038.36
624.07	42359.02
624.23	42307.52
624.38	42260.71
624.53	42380.08
624.68	42660.94
624.83	42782.65
624.98	42494.77
625.13	42066.45
625.29	42457.32
625.44	42094.53
625.59	41780.90
625.74	41631.11
625.89	41638.13
626.04	42019.64
626.19	41851.12
626.34	41830.05
626.49	42478.38
626.65	42096.88
626.80	42258.37
626.95	42139.00
627.10	42403.49
627.25	41855.80
627.40	41483.66
627.55	41574.94
627.70	41317.48
627.85	41785.58
628.00	41593.66
628.15	41766.86
628.30	41221.52
628.45	41750.48
628.60	41401.74
628.76	42115.60
628.91	41921.34
629.06	41771.54
629.21	41783.24
629.36	41244.92
629.51	41233.22
629.66	41034.27
629.81	41340.88
629.96	41635.79
630.11	41453.23
630.26	41516.42
630.41	41954.10
630.56	41677.92
630.71	41518.76
630.86	40952.35
631.01	40737.02
631.16	40776.81
631.31	41015.55
631.46	41104.49
631.61	41186.41
631.76	41130.23
631.91	41226.20
632.06	41240.24
632.21	41305.77
632.36	41528.13
632.51	41015.55
632.66	41081.08
632.81	41020.23
632.96	40603.61
633.10	40594.25
633.25	41127.89
633.40	41001.50
633.55	41188.75
633.70	40776.81
633.85	40439.78
634.00	40898.52
634.15	40722.98
634.30	40898.52
634.45	40720.64
634.60	40886.82
634.75	40825.96
634.90	40444.46
635.05	40627.02
635.19	40411.69
635.34	40830.65
635.49	40442.12
635.64	40243.17
635.79	40442.12
635.94	40411.69
636.09	40699.58
636.24	40367.22
636.39	40507.65
636.53	40144.87
636.68	39793.79
636.83	40147.21
636.98	40474.88
637.13	39585.48
637.28	40205.72
637.43	40575.53
637.57	40346.15
637.72	40151.89
637.87	40371.90
638.02	40257.21
638.17	39908.47
638.32	40243.17
638.46	40126.14
638.61	39655.70
638.76	39770.38
638.91	39964.65
639.06	39929.54
639.20	39842.94
639.35	39964.65
639.50	39885.07
639.65	40231.47
639.80	40128.48
639.94	39634.63
640.09	39618.25
640.24	39608.89
640.39	39730.59
640.54	39718.89
640.68	39552.71
640.83	39569.10
640.98	39391.22
641.13	39316.32
641.27	39777.40
641.42	39302.28
641.57	39613.57
641.72	39414.62
641.86	39271.85
642.01	39344.41
642.16	39325.68
642.31	38923.11
642.45	38948.85
642.60	39199.29
642.75	39384.19
642.90	38960.56
643.04	39447.39
643.19	39232.06
643.34	39229.72
643.48	39054.18
643.63	38866.94
643.78	38934.81
643.93	38543.94
644.07	38600.12
644.22	38895.02
644.37	38983.96
644.51	39117.37
644.66	39342.06
644.81	38953.54
644.95	39035.45
645.10	39082.27
645.25	38911.41
645.39	38932.47
645.54	39115.03
645.69	39115.03
645.83	38852.89
645.98	38569.69
646.13	38789.70
646.27	38787.36
646.42	38590.75
646.57	38342.66
646.71	38473.73
646.86	38579.05
647.00	38572.03
647.15	38944.17
647.30	38773.31
647.44	38312.23
647.59	38639.90
647.74	38230.31
647.88	38590.75
648.03	38721.82
648.17	38581.39
648.32	37975.19
648.47	38593.09
648.61	38419.89
648.76	38749.91
648.90	38675.01
649.05	38309.89
649.20	38064.13
649.34	38504.15
649.49	37654.54
649.63	38316.91
649.78	38096.90
649.92	37654.54
650.07	38178.82
650.21	37436.87
650.36	37893.27
650.51	37853.48
650.65	38548.62
650.80	38597.77
650.94	38314.57
651.09	38101.58
651.23	38092.22
651.38	37383.04
651.52	37333.89
651.67	37687.31
651.81	37628.79
651.96	37532.83
652.10	37504.74
652.25	37092.81
652.39	37553.90
652.54	37603.05
652.68	37961.15
652.83	37652.20
652.97	37914.34
653.12	37525.81
653.26	37518.79
653.41	37364.31
653.55	37146.64
653.70	37727.10
653.84	37687.31
653.99	37757.52
654.13	37366.65
654.27	37022.59
654.42	37200.47
654.56	37144.30
654.71	37514.11
654.85	37034.30
655.00	37258.99
655.14	37275.37
655.29	37118.56
655.43	37179.41
655.57	36765.14
655.72	36664.49
655.86	36638.75
656.01	36690.24
656.15	36261.92
656.30	36943.02
656.44	36430.44
656.58	36491.29
656.73	36760.45
656.87	36931.31
657.01	36943.02
657.16	36870.46
657.30	36306.39
657.45	36685.56
657.59	36500.65
657.73	36495.97
657.88	36645.77
658.02	36697.26
658.16	37139.62
658.31	36741.73
658.45	36734.71
658.60	36290.01
658.74	36418.74
658.88	36561.51
659.03	36376.61
659.17	36327.45
659.31	36065.31
659.46	35988.08
659.60	36453.84
659.74	36091.06
659.89	35990.42
660.03	35976.37
660.17	35962.33
660.32	36044.25
660.46	36105.10
660.60	36280.64
660.74	36182.34
660.89	36247.88
661.03	35309.32
661.17	35728.28
661.32	35613.59
661.46	35405.28
661.60	35225.06
661.74	35665.08
661.89	35552.74
662.03	35365.49
662.17	34967.60
662.31	35257.83
662.46	35311.66
662.60	35431.03
662.74	34923.13
662.88	35175.91
663.03	34824.83
663.17	35220.38
663.31	35005.05
663.45	34553.33
663.60	34752.27
663.74	34668.02
663.88	34426.94
664.02	34689.08
664.17	34810.79
664.31	34646.95
664.45	34717.17
664.59	34731.21
664.73	34209.27
664.88	35147.82
665.02	34899.73
665.16	34609.50
665.30	34424.60
665.44	34082.88
665.59	34333.32
665.73	34106.29
665.87	34352.04
666.01	34270.12
666.15	34256.08
666.29	33696.69
666.44	34094.58
666.58	33923.72
666.72	33986.92
666.86	34026.71
667.00	34108.63
667.14	34125.01
667.28	33525.83
667.43	33387.74
667.57	33532.86
667.71	33336.25
667.85	33214.54
667.99	33673.29
668.13	33626.48
668.27	33123.26
668.41	33251.99
668.56	33076.45
668.70	33273.06
668.84	33090.49
668.98	32968.79
669.12	32884.53
669.26	32498.34
669.40	32837.72
669.54	32889.21
669.68	32641.11
669.82	32720.69
669.96	32407.06
670.10	32746.44
670.25	32587.28
670.39	32364.93
670.53	32421.10
670.67	32278.33
670.81	32311.10
670.95	32521.74
671.09	31927.25
671.23	32460.89
671.37	32266.63
671.51	31742.35
671.65	32063.00
671.79	31938.95
671.93	31667.45
672.07	32318.12
672.21	31784.48
672.35	32081.72
672.49	31791.50
672.63	31578.51
672.77	31620.64
672.91	31583.19
673.05	31601.91
673.19	31463.82
673.33	31386.58
673.47	31332.75
673.61	31281.26
673.75	31054.23
673.89	31002.74
674.03	31110.40
674.17	30902.09
674.31	30691.44
674.45	30749.96
674.59	30593.14
674.73	30808.47
674.87	30567.40
675.01	30623.57
675.15	30164.82
675.29	30698.47
675.43	30054.82
675.56	30258.45
675.70	30251.42
675.84	30375.47
675.98	29198.18
676.12	29797.36
676.26	29769.27
676.40	29937.79
676.54	29486.07
676.68	30000.99
676.82	29392.45
676.96	29816.08
677.10	29397.13
677.23	29268.40
677.37	29312.87
677.51	29174.78
677.65	29099.88
677.79	28699.65
677.93	28882.21
678.07	28922.00
678.21	28379.00
678.34	28304.10
678.48	28285.37
678.62	28112.17
678.76	28205.80
678.90	28201.11
679.04	27941.32
679.18	28137.92
679.31	27725.99
679.45	27529.38
679.59	27513.00
679.73	27175.96
679.87	27648.75
680.00	27171.28
680.14	27325.75
680.28	27342.14
680.42	27147.87
680.56	27311.71
680.70	26998.08
680.83	27101.06
680.97	27091.70
681.11	27133.83
681.25	27056.59
681.39	26590.83
681.52	27030.85
681.66	26581.46
681.80	26483.16
681.94	26277.19
682.07	26452.73
682.21	26047.82
682.35	26328.69
682.49	26094.63
682.62	26001.01
682.76	26340.39
682.90	26026.76
683.04	25614.82
683.17	25048.41
683.31	25525.88
683.45	25287.15
683.59	25369.07
683.72	25458.01
683.86	24819.04
684.00	25230.98
684.13	24978.20
684.27	25025.01
684.41	24678.61
684.55	24907.98
684.68	24369.66
684.82	24589.67
684.96	24250.29
685.09	24329.87
685.23	24582.65
685.37	24535.84
685.50	24439.87
685.64	24290.08
685.78	24168.37
685.91	23854.74
686.05	24034.96
686.19	23733.03
686.32	23550.47
686.46	23204.07
686.60	23288.33
686.73	23452.17
686.87	23110.45
687.01	23087.04
687.14	23007.47
687.28	22878.74
687.42	23314.08
687.55	22977.04
687.69	22452.76
687.82	22574.47
687.96	23016.83
688.10	22684.47
688.23	22473.82
688.37	22258.49
688.50	22199.98
688.64	22427.01
688.78	22469.14
688.91	22199.98
689.05	21933.16
689.18	21977.63
689.32	21898.05
689.46	21776.34
689.59	21825.50
689.73	21884.01
689.86	21783.37
690.00	21296.53
690.13	21401.86
690.27	21446.33
690.41	21039.08
690.54	20980.56
690.68	20814.38
690.81	21135.04
690.95	20886.94
691.08	20568.63
691.22	20673.95
691.35	20798.00
691.49	20847.15
691.62	20800.34
691.76	20631.82
691.89	20444.58
692.03	20074.77
692.16	20147.33
692.30	20034.99
692.43	20018.60
692.57	19920.30
692.70	19604.33
692.84	19737.74
692.97	19506.02
693.11	19702.63
693.24	19639.44
693.38	19524.75
693.51	19510.71
693.65	19613.69
693.78	19782.21
693.92	19302.40
694.05	19243.88
694.19	19044.94
694.32	18773.44
694.45	19014.51
694.59	18796.84
694.72	18686.84
694.86	18815.57
694.99	18464.49
695.13	18710.24
695.26	18838.97
695.39	18352.14
695.53	18370.86
695.66	18204.69
695.80	18272.56
695.93	18214.05
696.07	18010.42
696.20	18146.17
696.33	17781.05
696.47	17996.38
696.60	18005.74
696.73	17792.75
696.87	17685.09
697.00	17748.28
697.14	17472.10
697.27	17357.41
697.40	17469.76
697.54	17188.89
697.67	17118.68
697.80	16905.69
697.94	17015.69
698.07	16570.99
698.21	16620.14
698.34	16549.93
698.47	16615.46
698.61	16535.88
698.74	16493.76
698.87	16362.69
699.01	16233.96
699.14	15976.50
699.27	16081.82
699.40	16046.71
699.54	15906.28
699.67	16065.44
699.80	16198.85
699.94	15819.68
700.07	15723.72
700.20	15807.98
700.34	15573.92
700.47	15793.94
700.60	15892.24
700.73	15906.28
700.87	15854.79
701.00	15098.80
701.13	15506.05
701.26	15480.30
701.40	15194.76
701.53	14958.36
701.66	15239.23
701.79	15019.22
701.93	14888.15
702.06	14965.39
702.19	14668.14
702.32	14963.04
702.46	14827.29
702.59	14761.76
702.72	14700.90
702.85	14597.92
702.99	14609.62
703.12	14305.35
703.25	14047.90
703.38	13970.66
703.51	14008.11
703.65	14036.19
703.78	14003.43
703.91	14251.52
704.04	13862.99
704.17	13998.74
704.31	13949.59
704.44	13523.62
704.57	13872.36
704.70	13638.30
704.83	13554.04
704.96	13809.16
705.10	13577.45
705.23	13432.33
>>>>>End Processed Spectral Data<<<<<
