SpectraSuite Data File
++++++++++++++++++++++++++++++++++++
Date: Fri Oct 25 10:47:13 EDT 2013
User: price-jones
Dark Spectrum Present: No
Reference Spectrum Present: No
Number of Sampled Component Spectra: 1
Spectrometers: USB2+H05261
Integration Time (usec): 100000 (USB2+H05261)
Spectra Averaged: 1 (USB2+H05261)
Boxcar Smoothing: 0 (USB2+H05261)
Correct for Electrical Dark: No (USB2+H05261)
Strobe/Lamp Enabled: No (USB2+H05261)
Correct for Detector Non-linearity: No (USB2+H05261)
Correct for Stray Light: No (USB2+H05261)
Number of Pixels in Processed Spectrum: 2048
>>>>>Begin Processed Spectral Data<<<<<
365.73	145.11
365.92	145.11
366.12	145.11
366.32	93.62
366.52	30.43
366.72	25.75
366.91	56.17
367.11	56.17
367.31	16.38
367.51	63.19
367.70	0.00
367.90	0.00
368.10	0.00
368.30	14.04
368.49	63.19
368.69	49.15
368.89	32.77
369.09	63.19
369.28	142.77
369.48	79.58
369.68	7.02
369.87	124.05
370.07	91.28
370.27	114.69
370.47	189.58
370.66	308.95
370.86	449.38
371.06	447.04
371.25	540.66
371.45	395.55
371.65	433.00
371.84	423.64
372.04	421.30
372.24	397.89
372.44	528.96
372.63	557.05
372.83	463.43
373.03	493.85
373.22	507.90
373.42	475.13
373.62	475.13
373.81	550.03
374.01	540.66
374.21	617.90
374.40	543.00
374.60	557.05
374.79	524.28
374.99	468.11
375.19	517.26
375.38	629.60
375.58	559.39
375.78	554.71
375.97	578.11
376.17	678.76
376.37	592.16
376.56	554.71
376.76	585.13
376.95	620.24
377.15	606.20
377.35	671.73
377.54	521.94
377.74	561.73
377.93	613.22
378.13	573.43
378.33	610.88
378.52	599.18
378.72	624.92
378.91	550.03
379.11	550.03
379.31	573.43
379.50	638.97
379.70	610.88
379.89	631.94
380.09	603.86
380.28	655.35
380.48	674.07
380.68	592.16
380.87	681.10
381.07	643.65
381.26	678.76
381.46	620.24
381.65	615.56
381.85	601.52
382.04	692.80
382.24	702.16
382.43	587.47
382.63	657.69
382.83	643.65
383.02	620.24
383.22	727.91
383.41	699.82
383.61	674.07
383.80	692.80
384.00	713.86
384.19	631.94
384.39	763.01
384.58	779.40
384.78	641.31
384.97	662.37
385.17	734.93
385.36	786.42
385.56	833.23
385.75	744.29
385.95	695.14
386.14	814.51
386.34	725.57
386.53	798.12
386.72	727.91
386.92	851.96
387.11	851.96
387.31	786.42
387.50	866.00
387.70	851.96
387.89	781.74
388.09	781.74
388.28	798.12
388.48	727.91
388.67	863.66
388.86	903.45
389.06	844.93
389.25	861.32
389.45	868.34
389.64	887.06
389.84	898.77
390.03	784.08
390.22	922.17
390.42	882.38
390.61	861.32
390.81	912.81
391.00	968.98
391.19	950.26
391.39	968.98
391.58	898.77
391.78	980.68
391.97	971.32
392.16	908.13
392.36	940.90
392.55	931.53
392.75	891.74
392.94	968.98
393.13	894.08
393.33	976.00
393.52	994.73
393.71	961.96
393.91	1006.43
394.10	1029.84
394.29	1006.43
394.49	1011.11
394.68	1069.62
394.88	1043.88
395.07	1125.80
395.26	1107.07
395.46	1095.37
395.65	1027.50
395.84	1107.07
396.04	1188.99
396.23	1118.78
396.42	1142.18
396.62	1050.90
396.81	1102.39
397.00	1071.97
397.19	1067.28
397.39	1104.73
397.58	1193.67
397.77	1158.57
397.97	1210.06
398.16	1125.80
398.35	1315.38
398.55	1146.86
398.74	1280.27
398.93	1310.70
399.12	1299.00
399.32	1284.95
399.51	1249.85
399.70	1329.42
399.90	1320.06
400.09	1369.21
400.28	1322.40
400.47	1284.95
400.67	1406.66
400.86	1444.11
401.05	1420.71
401.24	1380.92
401.44	1462.83
401.63	1462.83
401.82	1439.43
402.01	1439.43
402.21	1514.33
402.40	1458.15
402.59	1565.82
402.78	1420.71
402.97	1521.35
403.17	1467.52
403.36	1624.33
403.55	1509.65
403.74	1561.14
403.93	1558.80
404.13	1540.07
404.32	1472.20
404.51	1652.42
404.70	1610.29
404.89	1540.07
405.09	1673.48
405.28	1617.31
405.47	1659.44
405.66	1600.93
405.85	1724.97
406.05	1685.19
406.24	1811.57
406.43	1746.04
406.62	1818.60
406.81	1799.87
407.00	1715.61
407.20	1764.76
407.39	1776.47
407.58	1949.67
407.77	1914.56
407.96	1790.51
408.15	1902.86
408.34	1877.11
408.54	1846.68
408.73	1818.60
408.92	1912.22
409.11	1886.47
409.30	1952.01
409.49	2059.67
409.68	1961.37
409.87	2029.24
410.07	2026.90
410.26	2040.95
410.45	2008.18
410.64	2010.52
410.83	2167.34
411.02	2031.58
411.21	2111.16
411.40	2111.16
411.59	2228.19
411.78	2167.34
411.98	2197.76
412.17	2293.72
412.36	2202.44
412.55	2331.17
412.74	2331.17
412.93	2363.94
413.12	2307.77
413.31	2445.86
413.50	2375.64
413.69	2349.90
413.88	2490.33
414.07	2502.03
414.26	2661.19
414.45	2607.36
414.64	2534.80
414.83	2607.36
415.02	2602.68
415.22	2675.23
415.41	2682.25
415.60	2736.09
415.79	2715.02
415.98	2736.09
416.17	2731.41
416.36	2712.68
416.55	2850.77
416.74	2876.52
416.93	2930.35
417.12	2771.19
417.31	2806.30
417.50	3042.70
417.69	2991.20
417.88	2998.23
418.07	2953.76
418.26	2967.80
418.45	3012.27
418.64	3084.83
418.83	3117.59
419.02	3136.32
419.21	3073.12
419.39	3199.51
419.58	3103.55
419.77	2944.39
419.96	3183.13
420.15	3314.20
420.34	3169.09
420.53	3232.28
420.72	3410.16
420.91	3232.28
421.10	3295.47
421.29	3246.32
421.48	3185.47
421.67	3316.54
421.86	3283.77
422.05	3260.37
422.24	3304.84
422.43	3342.28
422.61	3459.31
422.80	3417.18
422.99	3414.84
423.18	3517.83
423.37	3424.20
423.56	3389.10
423.75	3475.70
423.94	3440.59
424.13	3218.24
424.32	3276.75
424.50	3361.01
424.69	3471.01
424.88	3564.64
425.07	3428.88
425.26	3321.22
425.45	3480.38
425.64	3412.50
425.83	3515.48
426.01	3534.21
426.20	3454.63
426.39	3538.89
426.58	3330.58
426.77	3632.51
426.96	3478.04
427.15	3520.17
427.33	3571.66
427.52	3510.80
427.71	3618.47
427.90	3665.28
428.09	3569.32
428.28	3585.70
428.46	3709.75
428.65	3513.14
428.84	3688.68
429.03	3829.12
429.22	3585.70
429.40	3730.81
429.59	3651.24
429.78	3438.25
429.97	3590.38
430.16	3644.21
430.34	3721.45
430.53	3716.77
430.72	3803.37
430.91	3885.29
431.10	3719.11
431.28	3873.59
431.47	3976.57
431.66	4077.21
431.85	4072.53
432.03	3908.69
432.22	4028.06
432.41	4037.42
432.60	4133.39
432.79	4072.53
432.97	4245.73
433.16	4056.15
433.35	4182.54
433.54	4161.47
433.72	4322.97
433.91	4119.34
434.10	4304.25
434.28	4182.54
434.47	4189.56
434.66	4255.09
434.85	4283.18
435.03	4397.87
435.22	4210.62
435.41	4456.38
435.59	4318.29
435.78	4367.44
435.97	4266.80
436.16	4329.99
436.34	4374.46
436.53	4376.80
436.72	4582.77
436.90	4362.76
437.09	4475.10
437.28	4498.51
437.46	4470.42
437.65	4582.77
437.84	4519.57
438.02	4620.22
438.21	4587.45
438.40	4608.51
438.58	4690.43
438.77	4807.46
438.96	4774.69
439.14	4896.40
439.33	4912.78
439.52	4622.56
439.70	4917.47
439.89	5062.58
440.08	5015.77
440.26	5027.47
440.45	5231.10
440.63	5008.75
440.82	5036.83
441.01	5261.52
441.19	5308.34
441.38	5437.06
441.57	5352.81
441.75	5289.61
441.94	5411.32
442.12	5523.66
442.31	5535.37
442.50	5469.83
442.68	5516.64
442.87	5437.06
443.05	5563.45
443.24	5699.20
443.43	5654.73
443.61	5650.05
443.80	5834.96
443.98	5736.65
444.17	5507.28
444.35	5633.67
444.54	5781.12
444.73	5671.12
444.91	5661.76
445.10	5654.73
445.28	5671.12
445.47	5614.95
445.65	5610.26
445.84	5687.50
446.02	5757.72
446.21	5832.62
446.39	5863.04
446.58	5713.25
446.77	5809.21
446.95	5675.80
447.14	5748.36
447.32	5643.03
447.51	6015.18
447.69	5781.12
447.88	5956.66
448.06	5893.47
448.25	5834.96
448.43	5881.77
448.62	5767.08
448.80	5820.91
448.99	6090.07
449.17	6005.81
449.36	5778.78
449.54	6157.95
449.73	6171.99
449.91	6059.65
450.10	6256.25
450.28	6410.73
450.46	6195.40
450.65	6157.95
450.83	6186.04
451.02	6282.00
451.20	6466.90
451.39	6190.72
451.57	6242.21
451.76	6183.70
451.94	6134.54
452.13	6246.89
452.31	6420.09
452.49	6146.25
452.68	6462.22
452.86	6394.34
453.05	6546.48
453.23	6366.26
453.42	6389.66
453.60	6408.39
453.78	6497.33
453.97	6246.89
454.15	6485.62
454.34	6352.21
454.52	6499.67
454.70	6628.40
454.89	6588.61
455.07	6546.48
455.26	6827.34
455.44	6810.96
455.62	6803.94
455.81	6707.98
455.99	6799.26
456.17	6740.74
456.36	6944.37
456.54	6832.02
456.73	6892.88
456.91	6970.12
457.09	6897.56
457.28	7070.76
457.46	7059.06
457.64	6956.07
457.83	7002.88
458.01	7194.81
458.19	7138.63
458.38	6932.67
458.56	7218.21
458.74	7279.07
458.93	7199.49
459.11	7213.53
459.29	7330.56
459.48	7318.86
459.66	7183.10
459.84	7573.97
460.03	7360.98
460.21	7461.63
460.39	7206.51
460.57	7391.41
460.76	7339.92
460.94	7489.71
461.12	7531.84
461.31	7740.15
461.49	7662.91
461.67	7566.95
461.85	7695.68
462.04	7733.13
462.22	8348.69
462.40	7946.12
462.59	7829.09
462.77	7815.05
462.95	8004.63
463.13	7896.97
463.32	7903.99
463.50	8023.36
463.68	7889.95
463.86	7976.55
464.05	7749.51
464.23	7864.20
464.41	7932.08
464.59	7822.07
464.78	8049.10
464.96	7950.80
465.14	7992.93
465.32	8109.96
465.50	8032.72
465.69	8248.05
465.87	8159.11
466.05	8133.36
466.23	8112.30
466.41	8154.43
466.60	8159.11
466.78	8250.39
466.96	8367.42
467.14	8173.15
467.32	8196.56
467.51	8325.29
467.69	8259.75
467.87	8177.83
468.05	8414.23
468.23	8196.56
468.41	8383.80
468.60	8222.30
468.78	8306.56
468.96	8454.02
469.14	8716.16
469.32	8603.81
469.50	8547.64
469.69	8711.47
469.87	8648.28
470.05	8751.26
470.23	8737.22
470.41	8573.38
470.59	8697.43
470.77	8833.18
470.95	8903.40
471.14	9149.15
471.32	8849.57
471.50	9067.24
471.68	9071.92
471.86	9011.06
472.04	9004.04
472.22	9266.18
472.40	8987.66
472.58	9362.14
472.77	9348.10
472.95	9479.17
473.13	9701.52
473.31	9263.84
473.49	9378.53
473.67	9596.20
473.85	9607.90
474.03	9771.74
474.21	9837.27
474.39	9788.12
474.57	9797.48
474.75	10178.99
474.93	9750.67
475.12	9851.31
475.30	10029.20
475.48	9919.19
475.66	9935.57
475.84	9940.26
476.02	10317.08
476.20	10221.12
476.38	10104.09
476.56	10586.24
476.74	10649.44
476.92	10551.14
477.10	10677.52
477.28	10553.48
477.46	10551.14
477.64	10640.08
477.82	10960.73
478.00	11066.05
478.18	11068.39
478.36	11028.60
478.54	11136.27
478.72	11323.51
478.90	11353.94
479.08	11375.00
479.26	11686.29
479.44	11674.59
479.62	11819.71
479.80	11695.66
479.98	11824.39
480.16	12114.61
480.34	12058.44
480.52	12070.14
480.70	12397.82
480.88	12250.36
481.06	12201.21
481.24	12163.76
481.41	12552.29
481.59	12685.70
481.77	12746.56
481.95	12823.80
482.13	13074.23
482.31	12994.65
482.49	13350.42
482.67	13355.10
482.85	13355.10
483.03	13399.57
483.21	13614.90
483.39	13872.36
483.57	13612.56
483.74	13912.14
483.92	13958.96
484.10	14047.90
484.28	14139.18
484.46	14185.99
484.64	14736.01
484.82	14272.59
485.00	14295.99
485.18	14766.44
485.35	14981.77
485.53	14860.06
485.71	14785.16
485.89	15208.80
486.07	14988.79
486.25	15157.31
486.43	15398.38
486.61	15683.93
486.78	15454.56
486.96	15529.45
487.14	15765.85
487.32	15990.54
487.50	16086.50
487.68	16173.10
487.85	16570.99
488.03	16559.29
488.21	16779.30
488.39	16526.52
488.57	17006.33
488.75	17020.38
488.92	17343.37
489.10	17298.90
489.28	17640.62
489.46	17476.78
489.64	17422.95
489.81	17916.80
489.99	18017.44
490.17	18192.98
490.35	18279.58
490.53	18136.81
490.70	18246.82
490.88	18398.95
491.06	18686.84
491.24	18871.74
491.41	18511.30
491.59	19007.49
491.77	18829.61
491.95	19124.52
492.13	19140.90
492.30	19304.74
492.48	19297.72
492.66	19576.24
492.84	19302.40
493.01	19868.81
493.19	20032.65
493.37	19892.21
493.54	20357.98
493.72	20353.30
493.90	20276.06
494.08	20393.09
494.25	20594.37
494.43	20875.24
494.61	21214.62
494.79	21081.21
494.96	20905.66
495.14	21181.85
495.32	21078.86
495.49	21256.75
495.67	21537.61
495.85	21909.75
496.02	21949.54
496.20	22015.08
496.38	21774.00
496.55	21891.03
496.73	22712.56
496.91	22452.76
497.09	22429.35
497.26	22171.89
497.44	22609.58
497.62	22717.24
497.79	22845.97
497.97	22838.95
498.14	23063.64
498.32	22941.93
498.50	23016.83
498.67	23711.97
498.85	23381.95
499.03	23681.54
499.20	23934.32
499.38	23660.48
499.56	23929.64
499.73	23894.53
499.91	23922.62
500.08	24203.48
500.26	23892.19
500.44	24067.73
500.61	24336.89
500.79	24437.53
500.97	24610.73
501.14	24842.45
501.32	24467.96
501.49	24898.62
501.67	24613.07
501.84	25205.23
502.02	25017.99
502.20	24957.13
502.37	25350.34
502.55	25188.85
502.72	25186.50
502.90	25663.97
503.07	25825.47
503.25	25502.48
503.43	25717.81
503.60	25813.77
503.78	26176.55
503.95	25958.88
504.13	25909.73
504.30	25963.56
504.48	25710.78
504.65	26380.18
504.83	26607.21
505.01	26588.49
505.18	26541.68
505.36	26778.07
505.53	26740.62
505.71	27140.85
505.88	26916.16
506.06	26742.96
506.23	27122.13
506.41	26827.22
506.58	27384.27
506.76	27410.01
506.93	27395.97
507.11	27520.02
507.28	27405.33
507.46	27847.69
507.63	27463.85
507.81	27536.40
507.98	27241.50
508.16	27828.97
508.33	27878.12
508.50	28201.11
508.68	27857.06
508.85	28278.35
509.03	28175.37
509.20	28346.23
509.38	28442.19
509.55	28940.72
509.73	28575.60
509.90	28868.17
510.08	29125.63
510.25	28933.70
510.42	28645.82
510.60	28938.38
510.77	29078.82
510.95	29200.52
511.12	29450.96
511.30	29448.62
511.47	29673.31
511.64	29687.36
511.82	29645.23
511.99	29647.57
512.17	29631.18
512.34	29558.63
512.51	30258.45
512.69	30096.95
512.86	30005.67
513.04	30092.27
513.21	30490.16
513.38	30120.35
513.56	30087.59
513.73	30071.20
513.90	30527.61
514.08	30431.65
514.25	30370.79
514.43	30429.30
514.60	30450.37
514.77	30363.77
514.95	30693.79
515.12	30974.65
515.29	31108.06
515.47	31105.72
515.64	31178.28
515.81	30843.58
515.99	30981.67
516.16	30986.35
516.33	31318.71
516.51	31349.14
516.68	31360.84
516.85	31023.80
517.03	31138.49
517.20	31349.14
517.37	31522.34
517.54	31653.40
517.72	31934.27
517.89	31744.69
518.06	31899.16
518.24	31791.50
518.41	31681.49
518.58	31740.00
518.75	32041.93
518.93	32285.35
519.10	32435.14
519.27	32236.20
519.45	32201.09
519.62	32879.85
519.79	32376.63
519.96	32854.10
520.14	33120.92
520.31	32823.67
520.48	32746.44
520.65	32830.69
520.83	33277.74
521.00	32950.06
521.17	33024.96
521.34	32985.17
521.52	33149.01
521.69	33237.95
521.86	33605.41
522.03	33275.40
522.20	33537.54
522.38	33729.46
522.55	34033.73
522.72	33605.41
522.89	33860.53
523.07	33607.75
523.24	33841.81
523.41	34017.35
523.58	34015.01
523.75	34494.82
523.92	34066.50
524.10	34593.12
524.27	34487.79
524.44	34588.44
524.61	34429.28
524.78	34782.70
524.96	34988.67
525.13	35281.24
525.30	35098.67
525.47	34794.40
525.64	34902.07
525.81	35037.82
525.98	35075.27
526.16	35306.98
526.33	34827.17
526.50	35262.51
526.67	35318.68
526.84	34684.40
527.01	34916.11
527.18	35096.33
527.36	35290.60
527.53	35536.35
527.70	35887.43
527.87	35735.30
528.04	35452.09
528.21	35723.60
528.38	35475.50
528.55	36093.40
528.72	35784.45
528.89	36034.89
529.07	35871.05
529.24	35519.97
529.41	36133.19
529.58	35770.41
529.75	36109.78
529.92	36634.06
530.09	36456.18
530.26	36573.21
530.43	36079.36
530.60	36084.04
530.77	36458.52
530.94	36624.70
531.11	36350.86
531.28	36701.94
531.46	36615.34
531.63	36776.84
531.80	36999.19
531.97	36734.71
532.14	36727.69
532.31	36830.67
532.48	36978.12
532.65	37202.82
532.82	37151.32
532.99	37214.52
533.16	37144.30
533.33	37006.21
533.50	37144.30
533.67	37345.59
533.84	37116.22
534.01	37338.57
534.18	37394.74
534.35	37589.00
534.52	37188.77
534.69	37486.02
534.86	37907.32
535.03	37633.47
535.20	37659.22
535.37	37825.40
535.54	38450.32
535.71	38330.95
535.88	37626.45
536.05	38059.45
536.22	38244.35
536.38	38239.67
536.55	37904.98
536.72	38155.41
536.89	38120.31
537.06	38033.71
537.23	38223.29
537.40	38024.34
537.57	38440.96
537.74	38410.53
537.91	38391.81
538.08	38525.22
538.25	37963.49
538.42	38148.39
538.59	38775.66
538.75	38396.49
538.92	38733.53
539.09	39028.43
539.26	38813.10
539.43	38452.66
539.60	38717.14
539.77	38815.44
539.94	38632.88
540.11	38562.67
540.28	39168.87
540.44	38955.88
540.61	39061.20
540.78	38829.49
540.95	39466.11
541.12	38883.32
541.29	38806.08
541.46	39391.22
541.62	39129.08
541.79	39522.29
541.96	39105.67
542.13	39056.52
542.30	39470.79
542.47	39725.91
542.63	39943.58
542.80	39697.83
542.97	39936.56
543.14	40144.87
543.31	39695.49
543.48	40048.91
543.64	40313.39
543.81	41064.70
543.98	39805.49
544.15	40062.95
544.32	39950.60
544.48	40594.25
544.65	39999.76
544.82	40898.52
544.99	39990.39
545.16	40453.82
545.32	40573.19
545.49	40226.79
545.66	40547.44
545.83	40392.97
546.00	40568.51
546.16	40734.68
546.33	40364.88
546.50	40360.20
546.67	40552.12
546.83	40069.97
547.00	40788.52
547.17	40788.52
547.34	40905.54
547.50	41240.24
547.67	41074.06
547.84	41053.00
548.00	40797.88
548.17	41282.37
548.34	41062.36
548.51	41537.49
548.67	41598.34
548.84	41184.07
549.01	41155.98
549.18	41099.81
549.34	41195.77
549.51	41649.83
549.68	41153.64
549.84	41411.10
550.01	41364.29
550.18	41240.24
550.34	41514.08
550.51	41614.72
550.68	40718.30
550.84	41345.56
551.01	41338.54
551.18	41755.16
551.34	41668.56
551.51	41731.75
551.68	41830.05
551.84	41645.15
552.01	41518.76
552.18	41635.79
552.34	41406.42
552.51	42082.83
552.68	42225.60
552.84	41762.18
553.01	42237.31
553.18	42021.98
553.34	42040.70
553.51	41448.55
553.67	42471.36
553.84	42202.20
554.01	42707.76
554.17	42344.97
554.34	42614.13
554.51	42267.73
554.67	42529.87
554.84	42740.52
555.00	42417.53
555.17	42136.66
555.33	42377.74
555.50	42569.66
555.67	42480.72
555.83	42298.16
556.00	42590.73
556.16	42742.86
556.33	42569.66
556.50	42272.42
556.66	42602.43
556.83	42253.69
556.99	42480.72
557.16	43189.91
557.32	42728.82
557.49	42838.83
557.65	41911.97
557.82	42597.75
557.98	42761.59
558.15	42850.53
558.32	43257.78
558.48	43208.63
558.65	42693.71
558.81	42604.77
558.98	42960.53
559.14	43005.00
559.31	42394.12
559.47	42902.02
559.64	43234.38
559.80	43302.25
559.97	43189.91
560.13	42679.67
560.30	42770.95
560.46	43445.02
560.63	43440.34
560.79	43253.10
560.96	43445.02
561.12	43234.38
561.29	43040.11
561.45	42925.42
561.61	42981.60
561.78	43016.71
561.94	42962.87
562.11	43274.16
562.27	43309.27
562.44	43154.80
562.60	43330.34
562.77	43524.60
562.93	43292.89
563.10	43508.22
563.26	43079.90
563.42	43416.94
563.59	43620.56
563.75	43070.54
563.92	43889.73
564.08	43262.46
564.24	43674.40
564.41	43435.66
564.57	44208.04
564.74	43749.29
564.90	43583.12
565.07	43681.42
565.23	43393.53
565.39	43292.89
565.56	43749.29
565.72	43395.87
565.88	43475.45
566.05	43208.63
566.21	43555.03
566.38	43707.16
566.54	43775.04
566.70	44203.36
566.87	44088.67
567.03	43271.82
567.19	44123.78
567.36	43681.42
567.52	43746.95
567.68	44107.40
567.85	43540.99
568.01	43814.83
568.17	44032.50
568.34	44254.85
568.50	43934.20
568.66	43442.68
568.83	43826.53
568.99	43627.59
569.15	43512.90
569.32	43686.10
569.48	43849.94
569.64	44205.70
569.81	43842.92
569.97	43966.96
570.13	44013.77
570.30	43749.29
570.46	43643.97
570.62	43793.76
570.78	43885.04
570.95	44252.51
571.11	43782.06
571.27	43676.74
571.43	43817.17
571.60	44194.00
571.76	43920.15
571.92	43545.67
572.09	44027.82
572.25	43971.64
572.41	44170.59
572.57	43995.05
572.74	44746.36
572.90	43955.26
573.06	43597.16
573.22	44240.81
573.38	43688.44
573.55	43917.81
573.71	43990.37
573.87	44083.99
574.03	43941.22
574.20	44126.12
574.36	44062.93
574.52	44514.65
574.68	44009.09
574.84	44388.26
575.01	44184.63
575.17	44179.95
575.33	44147.18
575.49	44072.29
575.65	44465.50
575.82	44584.86
575.98	44416.35
576.14	44741.68
576.30	44325.07
576.46	43447.36
576.62	44128.46
576.79	44332.09
576.95	43875.68
577.11	44051.22
577.27	43875.68
577.43	44388.26
577.59	44414.01
577.75	44091.01
577.92	43700.14
578.08	43995.05
578.24	43566.73
578.40	43908.45
578.56	44315.70
578.72	44126.12
578.88	44636.36
579.04	44421.03
579.21	44135.48
579.37	44100.37
579.53	44268.89
579.69	44135.48
579.85	44205.70
580.01	44128.46
580.17	44041.86
580.33	44390.60
580.49	44666.78
580.65	44685.51
580.82	44444.43
580.98	44383.58
581.14	44044.20
581.30	44360.17
581.46	43908.45
581.62	44093.35
581.78	44182.29
581.94	44727.64
582.10	44589.55
582.26	44446.77
582.42	44341.45
582.58	44175.27
582.74	44250.17
582.90	44399.96
583.06	44465.50
583.22	44507.63
583.38	44332.09
583.54	44065.27
583.70	44219.74
583.86	44133.14
584.02	44170.59
584.18	44545.08
584.34	44509.97
584.50	44287.62
584.66	44121.44
584.82	44037.18
584.98	44788.49
585.14	44505.29
585.30	44629.34
585.46	44168.25
585.62	44086.33
585.78	43988.03
585.94	44210.38
586.10	44346.13
586.26	44364.85
586.42	44194.00
586.58	44336.77
586.74	44463.16
586.90	44177.61
587.06	44596.57
587.22	44479.54
587.38	44264.21
587.54	44762.75
587.70	44552.10
587.86	44332.09
588.02	44495.92
588.18	44144.84
588.34	44622.31
588.49	44205.70
588.65	43753.97
588.81	44605.93
588.97	44282.94
589.13	44046.54
589.29	44643.38
589.45	44575.50
589.61	44409.32
589.77	44928.92
589.93	44390.60
590.08	44762.75
590.24	44828.28
590.40	44657.42
590.56	44844.66
590.72	44395.28
590.88	44512.31
591.04	44432.73
591.20	44725.30
591.35	45069.36
591.51	45492.99
591.67	44280.60
591.83	44739.34
591.99	44460.82
592.15	44439.75
592.31	44931.26
592.46	44727.64
592.62	44486.56
592.78	44556.78
592.94	44856.37
593.10	45010.84
593.26	44636.36
593.41	44608.27
593.57	44498.26
593.73	44828.28
593.89	44739.34
594.05	44374.22
594.20	44701.89
594.36	44886.79
594.52	45015.52
594.68	44907.86
594.84	44367.20
594.99	45228.51
595.15	44547.42
595.31	44980.42
595.47	45071.70
595.62	44395.28
595.78	44875.09
595.94	45448.52
596.10	45144.25
596.25	44811.90
596.41	45022.54
596.57	44655.08
596.73	44924.24
596.88	44746.36
597.04	44673.81
597.20	44741.68
597.36	44753.38
597.51	44788.49
597.67	44720.62
597.83	44671.46
597.99	45067.02
598.14	45120.85
598.30	44952.33
598.46	44505.29
598.61	44531.03
598.77	44514.65
598.93	44870.41
599.09	44861.05
599.24	45352.56
599.40	44875.09
599.56	45291.71
599.71	44980.42
599.87	44748.70
600.03	45324.47
600.18	44900.84
600.34	45261.28
600.50	45127.87
600.65	44739.34
600.81	45024.89
600.97	44891.48
601.12	45134.89
601.28	45001.48
601.44	44957.01
601.59	45221.49
601.75	45062.33
601.91	44835.30
602.06	44486.56
602.22	44598.91
602.37	44781.47
602.53	44783.81
602.69	44877.43
602.84	44650.40
603.00	44896.16
603.16	45010.84
603.31	44144.84
603.47	44954.67
603.62	44486.56
603.78	44559.12
603.94	44872.75
604.09	45294.05
604.25	45556.19
604.40	44837.64
604.56	45219.15
604.71	44924.24
604.87	44320.38
605.03	44509.97
605.18	44479.54
605.34	44800.19
605.49	44711.25
605.65	44760.40
605.80	44774.45
605.96	45088.08
606.12	44935.95
606.27	44737.00
606.43	44622.31
606.58	44884.45
606.74	44652.74
606.89	44507.63
607.05	44556.78
607.20	44933.60
607.36	44811.90
607.51	44538.05
607.67	44877.43
607.82	44458.48
607.98	44748.70
608.13	44516.99
608.29	44741.68
608.44	43955.26
608.60	44177.61
608.75	44626.99
608.91	44304.00
609.06	44240.81
609.22	45125.53
609.37	43969.30
609.53	44154.21
609.68	44369.54
609.84	44369.54
609.99	44624.65
610.15	44282.94
610.30	44460.82
610.46	44397.62
610.61	44500.61
610.76	44299.32
610.92	44456.14
611.07	44086.33
611.23	43856.96
611.38	44240.81
611.54	44170.59
611.69	43973.98
611.84	43732.91
612.00	44306.34
612.15	44023.14
612.31	44715.93
612.46	44130.80
612.62	44605.93
612.77	43887.39
612.92	44596.57
613.08	44163.57
613.23	44170.59
613.39	44058.24
613.54	43714.19
613.69	43842.92
613.85	43847.60
614.00	44186.97
614.15	44144.84
614.31	44222.08
614.46	43957.60
614.62	44079.31
614.77	44296.98
614.92	43800.79
615.08	43924.83
615.23	44289.96
615.38	43807.81
615.54	43531.62
615.69	43863.98
615.84	43491.83
616.00	44002.07
616.15	44076.97
616.30	43615.88
616.46	43414.60
616.61	43304.59
616.76	43660.35
616.92	43515.24
617.07	43648.65
617.22	43402.89
617.37	43232.04
617.53	43798.44
617.68	43466.09
617.83	43665.03
617.99	43552.69
618.14	43374.81
618.29	43746.95
618.45	42927.77
618.60	43234.38
618.75	43552.69
618.90	43342.04
619.06	43318.64
619.21	43283.53
619.36	43285.87
619.51	43175.86
619.67	43398.21
619.82	43290.55
619.97	43126.71
620.12	42918.40
620.28	42911.38
620.43	43250.76
620.58	43082.24
620.73	42787.33
620.89	42780.31
621.04	42611.79
621.19	42803.72
621.34	43037.77
621.49	42745.20
621.65	42555.62
621.80	42871.59
621.95	42623.50
622.10	43086.92
622.25	42857.55
622.41	42440.93
622.56	42974.58
622.71	42618.81
622.86	42899.68
623.01	42962.87
623.16	42815.42
623.32	42869.25
623.47	43246.08
623.62	42794.36
623.77	42328.59
623.92	42518.17
624.07	42398.80
624.23	42326.25
624.38	42183.48
624.53	42291.14
624.68	42604.77
624.83	42473.70
624.98	42419.87
625.13	42438.59
625.29	42693.71
625.44	42326.25
625.59	42284.12
625.74	42192.84
625.89	42066.45
626.04	41902.61
626.19	42155.39
626.34	42190.50
626.49	42160.07
626.65	42050.06
626.80	42197.52
626.95	42071.13
627.10	41970.49
627.25	42110.92
627.40	41895.59
627.55	41500.04
627.70	41654.51
627.85	41450.89
628.00	41720.05
628.15	42010.28
628.30	41551.53
628.45	42103.90
628.60	41476.63
628.76	41713.03
628.91	41570.25
629.06	41570.25
629.21	41902.61
629.36	41296.41
629.51	41163.00
629.66	41116.19
629.81	41062.36
629.96	40945.33
630.11	41642.81
630.26	41975.17
630.41	41282.37
630.56	41418.12
630.71	41392.37
630.86	41558.55
631.01	41411.10
631.16	41514.08
631.31	41200.45
631.46	40505.31
631.61	41029.59
631.76	41184.07
631.91	41378.33
632.06	41584.30
632.21	40629.36
632.36	41443.87
632.51	41188.75
632.66	40996.82
632.81	40776.81
632.96	41076.40
633.10	40879.80
633.25	40861.07
633.40	40708.94
633.55	41090.44
633.70	41214.49
633.85	40828.30
634.00	40608.29
634.15	40690.21
634.30	40542.76
634.45	40332.11
634.60	40402.33
634.75	40423.39
634.90	40741.71
635.05	40715.96
635.19	40484.25
635.34	41034.27
635.49	40816.60
635.64	40194.02
635.79	40399.99
635.94	40133.17
636.09	40369.56
636.24	40259.55
636.39	40112.10
636.53	39936.56
636.68	40238.49
636.83	40081.67
636.98	40128.48
637.13	39807.83
637.28	40542.76
637.43	40549.78
637.57	40512.33
637.72	40369.56
637.87	40051.25
638.02	39643.99
638.17	39667.40
638.32	39814.85
638.46	39459.09
638.61	40367.22
638.76	39812.51
638.91	39653.36
639.06	40084.01
639.20	40208.06
639.35	40177.64
639.50	39639.31
639.65	40119.12
639.80	39899.11
639.94	39835.92
640.09	39381.85
640.24	39246.10
640.39	39679.10
640.54	39679.10
640.68	39604.20
640.83	39667.40
640.98	39913.16
641.13	39421.64
641.27	39421.64
641.42	39344.41
641.57	39721.23
641.72	39597.18
641.86	39171.21
642.01	39093.97
642.16	39260.15
642.31	39089.29
642.45	39655.70
642.60	39613.57
642.75	39255.46
642.90	39070.56
643.04	39461.43
643.19	39316.32
643.34	39412.28
643.48	39597.18
643.63	38904.38
643.78	39161.84
643.93	39402.92
644.07	39140.78
644.22	38845.87
644.37	38733.53
644.51	38787.36
644.66	38972.26
644.81	39360.79
644.95	39161.84
645.10	39140.78
645.25	38988.64
645.39	39138.44
645.54	38998.01
645.69	38937.15
645.83	38611.82
645.98	38789.70
646.13	38712.46
646.27	39131.42
646.42	38667.99
646.57	38625.86
646.71	38972.26
646.86	38773.31
647.00	38960.56
647.15	38803.74
647.30	38677.35
647.44	38717.14
647.59	38436.28
647.74	38525.22
647.88	38216.27
648.03	38588.41
648.17	38143.71
648.32	38473.73
648.47	38117.96
648.61	38061.79
648.76	38632.88
648.90	37900.29
649.05	38675.01
649.20	37935.40
649.34	38302.87
649.49	38384.79
649.63	37919.02
649.78	38272.44
649.92	38075.84
650.07	38508.83
650.21	38075.84
650.36	38321.59
650.51	37729.44
650.65	38167.12
650.80	38447.98
650.94	38010.30
651.09	38094.56
651.23	37872.21
651.38	37813.70
651.52	37713.05
651.67	38024.34
651.81	38059.45
651.96	37471.98
652.10	37579.64
652.25	37748.16
652.39	37890.93
652.54	37493.04
652.68	37961.15
652.83	38101.58
652.97	37296.44
653.12	37907.32
653.26	37326.86
653.41	37813.70
653.55	37579.64
653.70	37539.85
653.84	37479.00
653.99	37518.79
654.13	37345.59
654.27	37303.46
654.42	37879.23
654.56	37387.72
654.71	37560.92
654.85	37298.78
655.00	37376.01
655.14	36811.95
655.29	36980.46
655.43	37090.47
655.57	36992.17
655.72	37020.25
655.86	37022.59
656.01	36905.57
656.15	36793.22
656.30	37184.09
656.44	37043.66
656.58	37092.81
656.73	36594.28
656.87	36746.41
657.01	36971.10
657.16	36947.70
657.30	36753.43
657.45	36051.27
657.59	36659.81
657.73	36545.12
657.88	36360.22
658.02	36287.67
658.16	36423.42
658.31	36652.79
658.45	36659.81
658.60	36278.30
658.74	36863.44
658.88	36446.82
659.03	36893.86
659.17	36329.80
659.31	35770.41
659.46	35969.35
659.60	35997.44
659.74	36435.12
659.89	35988.08
660.03	36070.00
660.17	36044.25
660.32	36044.25
660.46	36446.82
660.60	36226.81
660.74	36058.29
660.89	36252.56
661.03	35536.35
661.17	35728.28
661.32	35763.39
661.46	35426.35
661.60	35501.25
661.74	35768.07
661.89	35515.29
662.03	35976.37
662.17	35398.26
662.31	35498.91
662.46	35438.05
662.60	35772.75
662.74	35297.62
662.88	35337.41
663.03	34752.27
663.17	35292.94
663.31	35054.20
663.45	35374.86
663.60	35187.61
663.74	34834.19
663.88	34822.49
664.02	34883.34
664.17	35037.82
664.31	34518.22
664.45	34843.56
664.59	34597.80
664.73	34878.66
664.88	34382.47
665.02	34057.14
665.16	34363.75
665.30	34192.89
665.44	34242.04
665.59	34181.18
665.73	33935.43
665.87	33862.87
666.01	33741.16
666.15	33869.89
666.29	33708.40
666.44	34129.69
666.58	34050.11
666.72	34068.84
666.86	33579.67
667.00	33722.44
667.14	33944.79
667.28	33560.94
667.43	33425.19
667.57	33811.38
667.71	33156.03
667.85	33214.54
667.99	33476.68
668.13	33474.34
668.27	33446.26
668.41	33603.07
668.56	33041.34
668.70	33212.20
668.84	33380.72
668.98	32945.38
669.12	33043.68
669.26	32774.52
669.40	33331.57
669.54	32713.67
669.68	33123.26
669.82	32851.76
669.96	33036.66
670.10	32496.00
670.25	33013.26
670.39	32879.85
670.53	32650.47
670.67	32479.61
670.81	32704.31
670.95	32393.01
671.09	32425.78
671.23	32701.96
671.37	32500.68
671.51	31866.39
671.65	32102.79
671.79	31929.59
671.93	31747.03
672.07	32034.91
672.21	31840.65
672.35	31737.66
672.49	31754.05
672.63	31622.98
672.77	31438.08
672.91	31557.44
673.05	31454.46
673.19	31285.94
673.33	31290.62
673.47	31255.51
673.61	31110.40
673.75	30885.71
673.89	30754.64
674.03	30771.02
674.17	31299.98
674.31	30827.20
674.45	30724.21
674.59	30558.03
674.73	31194.66
674.87	30817.83
675.01	30476.12
675.15	30759.32
675.29	30565.06
675.43	30661.02
675.56	30543.99
675.70	30527.61
675.84	30188.23
675.98	29247.33
676.12	30040.78
676.26	30010.35
676.40	29830.13
676.54	29806.72
676.68	29336.27
676.82	29099.88
676.96	29724.80
677.10	28917.32
677.23	29420.53
677.37	28996.90
677.51	29050.73
677.65	29113.92
677.79	29057.75
677.93	28870.51
678.07	28568.58
678.21	28538.15
678.34	28645.82
678.48	28222.18
678.62	28570.92
678.76	28266.65
678.90	28379.00
679.04	28589.64
679.18	28411.76
679.31	27943.66
679.45	27786.84
679.59	28030.26
679.73	27639.39
679.87	27938.97
680.00	27501.29
680.14	27054.25
680.28	27204.05
680.42	27201.71
680.56	27199.37
680.70	27145.53
680.83	27014.46
680.97	26855.31
681.11	26923.18
681.25	26948.93
681.39	27072.98
681.52	26874.03
681.66	26675.09
681.80	26415.29
681.94	26532.31
682.07	26380.18
682.21	26408.26
682.35	26061.87
682.49	26581.46
682.62	26024.42
682.76	26036.12
682.90	25853.56
683.04	25846.54
683.17	25956.54
683.31	25883.98
683.45	25682.70
683.59	25516.52
683.72	24950.11
683.86	25254.38
684.00	25071.82
684.13	25245.02
684.27	25174.80
684.41	25088.20
684.55	24758.19
684.68	24863.51
684.82	24767.55
684.96	24912.66
685.09	24467.96
685.23	24423.49
685.37	24577.97
685.50	24273.70
685.64	24315.83
685.78	23971.77
685.91	24236.25
686.05	24229.23
686.19	23651.11
686.32	23896.87
686.46	23599.62
686.60	23700.26
686.73	23695.58
686.87	23353.87
687.01	23569.19
687.14	23131.51
687.28	23180.67
687.42	23044.91
687.55	22845.97
687.69	22672.77
687.82	23016.83
687.96	22867.03
688.10	23002.78
688.23	22930.23
688.37	22429.35
688.50	22195.30
688.64	22132.11
688.78	21862.94
688.91	22129.77
689.05	22340.41
689.18	21928.48
689.32	21729.53
689.46	21951.88
689.59	21893.37
689.73	21921.46
689.86	21619.53
690.00	21408.88
690.13	21689.74
690.27	21626.55
690.41	21186.53
690.54	21069.50
690.68	21186.53
690.81	20755.87
690.95	20889.28
691.08	20868.22
691.22	20746.51
691.35	20725.44
691.49	20882.26
691.62	20912.69
691.76	20645.87
691.89	20758.21
692.03	20397.77
692.16	20152.01
692.30	20219.89
692.43	20205.84
692.57	19997.54
692.70	20079.46
692.84	19901.58
692.97	20049.03
693.11	19529.43
693.24	19536.45
693.38	19819.66
693.51	19335.17
693.65	19321.12
693.78	19187.71
693.92	19337.51
694.05	19351.55
694.19	19194.73
694.32	19129.20
694.45	18888.12
694.59	18904.51
694.72	18934.93
694.86	18991.11
694.99	18771.10
695.13	18707.90
695.26	18340.44
695.39	18345.12
695.53	18214.05
695.66	18338.10
695.80	18314.69
695.93	18136.81
696.07	17743.60
696.20	17994.04
696.33	17605.51
696.47	17916.80
696.60	17750.62
696.73	17987.02
696.87	17462.74
697.00	17645.30
697.14	17413.59
697.27	17509.55
697.40	17542.32
697.54	17207.62
697.67	17359.75
697.80	17275.49
697.94	17125.70
698.07	16964.20
698.21	16957.18
698.34	16971.22
698.47	16741.85
698.61	16444.60
698.74	16542.91
698.87	16676.32
699.01	16428.22
699.14	16423.54
699.27	16067.78
699.40	16276.09
699.54	15913.30
699.67	15836.06
699.80	16009.26
699.94	15826.70
700.07	16114.59
700.20	15770.53
700.34	15845.43
700.47	15953.09
700.60	15777.55
700.73	15857.13
700.87	15896.92
701.00	15159.65
701.13	15555.20
701.26	15653.50
701.40	15372.64
701.53	15110.50
701.66	15042.62
701.79	15108.16
701.93	14909.21
702.06	14759.42
702.19	14932.62
702.32	15084.75
702.46	14541.75
702.59	14796.87
702.72	14721.97
702.85	14562.81
702.99	14703.25
703.12	14707.93
703.25	14434.08
703.38	14422.38
703.51	14317.06
703.65	13872.36
703.78	14272.59
703.91	14178.97
704.04	14005.77
704.17	14190.67
704.31	14134.50
704.44	13743.63
704.57	13348.08
704.70	13614.90
704.83	13654.69
704.96	13359.78
705.10	13495.53
705.23	13664.05
>>>>>End Processed Spectral Data<<<<<
