SpectraSuite Data File
++++++++++++++++++++++++++++++++++++
Date: Fri Oct 25 10:47:51 EDT 2013
User: price-jones
Dark Spectrum Present: No
Reference Spectrum Present: No
Number of Sampled Component Spectra: 1
Spectrometers: USB2+H05261
Integration Time (usec): 100000 (USB2+H05261)
Spectra Averaged: 1 (USB2+H05261)
Boxcar Smoothing: 0 (USB2+H05261)
Correct for Electrical Dark: No (USB2+H05261)
Strobe/Lamp Enabled: No (USB2+H05261)
Correct for Detector Non-linearity: No (USB2+H05261)
Correct for Stray Light: No (USB2+H05261)
Number of Pixels in Processed Spectrum: 2048
>>>>>Begin Processed Spectral Data<<<<<
365.73	100.64
365.92	100.64
366.12	100.64
366.32	23.41
366.52	18.72
366.72	51.49
366.91	14.04
367.11	21.06
367.31	67.88
367.51	0.00
367.70	140.43
367.90	63.19
368.10	72.56
368.30	81.92
368.49	84.26
368.69	100.64
368.89	79.58
369.09	44.47
369.28	84.26
369.48	18.72
369.68	84.26
369.87	135.75
370.07	98.30
370.27	84.26
370.47	182.56
370.66	351.08
370.86	355.76
371.06	449.38
371.25	493.85
371.45	428.32
371.65	505.56
371.84	489.17
372.04	411.93
372.24	468.11
372.44	442.36
372.63	479.81
372.83	491.51
373.03	547.69
373.22	411.93
373.42	456.40
373.62	528.96
373.81	620.24
374.01	535.98
374.21	573.43
374.40	524.28
374.60	594.50
374.79	578.11
374.99	552.37
375.19	615.56
375.38	648.33
375.58	571.09
375.78	592.16
375.97	566.41
376.17	664.71
376.37	540.66
376.56	641.31
376.76	589.82
376.95	634.29
377.15	660.03
377.35	669.39
377.54	503.22
377.74	622.58
377.93	676.41
378.13	685.78
378.33	674.07
378.52	629.60
378.72	660.03
378.91	688.12
379.11	648.33
379.31	664.71
379.50	629.60
379.70	610.88
379.89	657.69
380.09	641.31
380.28	631.94
380.48	648.33
380.68	664.71
380.87	688.12
381.07	676.41
381.26	702.16
381.46	681.10
381.65	667.05
381.85	662.37
382.04	690.46
382.24	620.24
382.43	681.10
382.63	641.31
382.83	678.76
383.02	753.65
383.22	774.72
383.41	706.84
383.61	755.99
383.80	828.55
384.00	770.04
384.19	734.93
384.39	748.97
384.58	748.97
384.78	655.35
384.97	823.87
385.17	760.67
385.36	751.31
385.56	723.23
385.75	765.36
385.95	812.17
386.14	805.14
386.34	791.10
386.53	791.10
386.72	784.08
386.92	894.08
387.11	851.96
387.31	805.14
387.50	744.29
387.70	793.44
387.89	877.70
388.09	739.61
388.28	919.83
388.48	826.21
388.67	898.77
388.86	882.38
389.06	917.49
389.25	828.55
389.45	997.07
389.64	908.13
389.84	1011.11
390.03	903.45
390.22	1027.50
390.42	992.39
390.61	903.45
390.81	826.21
391.00	917.49
391.19	964.30
391.39	1032.18
391.58	994.73
391.78	964.30
391.97	1043.88
392.16	926.85
392.36	943.24
392.55	1043.88
392.75	1048.56
392.94	905.79
393.13	926.85
393.33	950.26
393.52	919.83
393.71	994.73
393.91	997.07
394.10	1027.50
394.29	1053.24
394.49	987.71
394.68	1041.54
394.88	1139.84
395.07	1097.71
395.26	1139.84
395.46	1135.16
395.65	1050.90
395.84	1109.41
396.04	1240.48
396.23	1186.65
396.42	1107.07
396.62	1153.88
396.81	1142.18
397.00	1174.95
397.19	1198.35
397.39	1207.72
397.58	1207.72
397.77	1263.89
397.97	1212.40
398.16	1217.08
398.35	1343.47
398.55	1228.78
398.74	1233.46
398.93	1406.66
399.12	1355.17
399.32	1282.61
399.51	1240.48
399.70	1399.64
399.90	1416.02
400.09	1390.28
400.28	1448.79
400.47	1444.11
400.67	1437.09
400.86	1437.09
401.05	1507.30
401.24	1465.18
401.44	1537.73
401.63	1554.12
401.82	1556.46
402.01	1481.56
402.21	1448.79
402.40	1535.39
402.59	1572.84
402.78	1647.74
402.97	1563.48
403.17	1584.54
403.36	1659.44
403.55	1523.69
403.74	1629.01
403.93	1706.25
404.13	1671.14
404.32	1650.08
404.51	1584.54
404.70	1680.50
404.89	1743.70
405.09	1748.38
405.28	1769.44
405.47	1636.03
405.66	1741.36
405.85	1668.80
406.05	1717.95
406.24	1825.62
406.43	1774.13
406.62	1870.09
406.81	1830.30
407.00	1839.66
407.20	1769.44
407.39	1893.49
407.58	1863.07
407.77	1928.60
407.96	1966.05
408.15	1921.58
408.34	1856.04
408.54	1952.01
408.73	2129.89
408.92	2097.12
409.11	2012.86
409.30	2019.88
409.49	2036.27
409.68	2017.54
409.87	2026.90
410.07	2031.58
410.26	2003.50
410.45	2160.31
410.64	2099.46
410.83	2148.61
411.02	2216.49
411.21	2307.77
411.40	2284.36
411.59	2354.58
411.78	2368.62
411.98	2328.83
412.17	2410.75
412.36	2286.70
412.55	2326.49
412.74	2462.24
412.93	2469.27
413.12	2415.43
413.31	2562.89
413.50	2497.35
413.69	2476.29
413.88	2670.55
414.07	2579.27
414.26	2555.86
414.45	2686.94
414.64	2642.46
414.83	2654.17
415.02	2656.51
415.22	2684.59
415.41	2761.83
415.60	2754.81
415.79	2780.56
415.98	2862.48
416.17	2885.88
416.36	2834.39
416.55	2864.82
416.74	2834.39
416.93	2885.88
417.12	3026.31
417.31	2937.37
417.50	2871.84
417.69	3192.49
417.88	3038.02
418.07	3063.76
418.26	3026.31
418.45	3126.96
418.64	3176.11
418.83	3183.13
419.02	3087.17
419.21	3066.10
419.39	3255.69
419.58	3091.85
419.77	3080.14
419.96	3155.04
420.15	3295.47
420.34	3288.45
420.53	3372.71
420.72	3515.48
420.91	3384.41
421.10	3410.16
421.29	3311.86
421.48	3330.58
421.67	3346.97
421.86	3396.12
422.05	3531.87
422.24	3496.76
422.43	3368.03
422.61	3386.76
422.80	3499.10
422.99	3487.40
423.18	3494.42
423.37	3592.72
423.56	3473.36
423.75	3499.10
423.94	3421.86
424.13	3293.13
424.32	3332.92
424.50	3492.08
424.69	3693.37
424.88	3637.19
425.07	3452.29
425.26	3496.76
425.45	3599.74
425.64	3555.27
425.83	3566.98
426.01	3520.17
426.20	3552.93
426.39	3693.37
426.58	3508.46
426.77	3627.83
426.96	3588.04
427.15	3684.00
427.33	3768.26
427.52	3751.88
427.71	3630.17
427.90	3770.60
428.09	3744.86
428.28	3714.43
428.46	3815.07
428.65	3908.69
428.84	3826.78
429.03	4016.36
429.22	3819.75
429.40	3786.99
429.59	3826.78
429.78	3632.51
429.97	3637.19
430.16	3676.98
430.34	3772.94
430.53	3880.61
430.72	3887.63
430.91	3934.44
431.10	3911.04
431.28	3967.21
431.47	4152.11
431.66	4252.75
431.85	4032.74
432.03	4215.30
432.22	4231.69
432.41	4149.77
432.60	4184.88
432.79	4383.82
432.97	4187.22
433.16	4245.73
433.35	4189.56
433.54	4252.75
433.72	4337.01
433.91	4311.27
434.10	4262.12
434.28	4294.88
434.47	4257.43
434.66	4311.27
434.85	4489.15
435.03	4472.76
435.22	4610.86
435.41	4587.45
435.59	4613.20
435.78	4526.60
435.97	4557.02
436.16	4458.72
436.34	4458.72
436.53	4730.22
436.72	4791.08
436.90	4510.21
437.09	4730.22
437.28	4629.58
437.46	4589.79
437.65	4716.18
437.84	4692.77
438.02	4695.11
438.21	4624.90
438.40	4727.88
438.58	4774.69
438.77	4873.00
438.96	4816.82
439.14	5116.41
439.33	5060.24
439.52	5074.28
439.70	4997.04
439.89	5032.15
440.08	5043.85
440.26	5231.10
440.45	5139.82
440.63	5275.57
440.82	5296.63
441.01	5224.08
441.19	5392.59
441.38	5483.88
441.57	5366.85
441.75	5568.13
441.94	5497.92
442.12	5458.13
442.31	5802.19
442.50	5790.49
442.68	5797.51
442.87	5619.63
443.05	5731.97
443.24	5692.18
443.43	5659.42
443.61	5753.04
443.80	5881.77
443.98	5678.14
444.17	5598.56
444.35	5818.57
444.54	5846.66
444.73	5851.34
444.91	5811.55
445.10	5685.16
445.28	5703.89
445.47	5774.10
445.65	5813.89
445.84	5947.30
446.02	5764.74
446.21	5991.77
446.39	6120.50
446.58	5959.00
446.77	5930.92
446.95	5834.96
447.14	6101.78
447.32	6010.50
447.51	6038.58
447.69	6024.54
447.88	5942.62
448.06	6071.35
448.25	5923.90
448.43	5940.28
448.62	6064.33
448.80	6031.56
448.99	5928.58
449.17	6150.93
449.36	5989.43
449.54	6237.53
449.73	6127.52
449.91	6293.70
450.10	6377.96
450.28	6551.16
450.46	6349.87
450.65	6513.71
450.83	6420.09
451.02	6441.15
451.20	6492.65
451.39	6417.75
451.57	6340.51
451.76	6415.41
451.94	6415.41
452.13	6452.86
452.31	6469.24
452.49	6389.66
452.68	6438.81
452.86	6448.18
453.05	6750.10
453.23	6497.33
453.42	6602.65
453.60	6452.86
453.78	6745.42
453.97	6675.21
454.15	6815.64
454.34	6579.25
454.52	6771.17
454.70	6869.47
454.89	6927.99
455.07	6740.74
455.26	6885.86
455.44	6977.14
455.62	7000.54
455.81	6965.43
455.99	6925.65
456.17	7014.59
456.36	6942.03
456.54	7122.25
456.73	7180.76
456.91	7368.01
457.09	7360.98
457.28	7506.10
457.46	7155.02
457.64	7236.94
457.83	7255.66
458.01	7236.94
458.19	7506.10
458.38	7365.67
458.56	7218.21
458.74	7496.74
458.93	7424.18
459.11	7508.44
459.29	7279.07
459.48	7372.69
459.66	7527.16
459.84	7442.90
460.03	7688.66
460.21	7674.62
460.39	7449.93
460.57	7665.25
460.76	7667.60
460.94	7810.37
461.12	7728.45
461.31	7658.23
461.49	7716.75
461.67	7592.70
461.85	7789.30
462.04	7894.63
462.22	8280.82
462.40	8098.25
462.59	7901.65
462.77	8133.36
462.95	7889.95
463.13	7927.39
463.32	7978.89
463.50	8248.05
463.68	8131.02
463.86	8044.42
464.05	8023.36
464.23	7997.61
464.41	8315.92
464.59	8091.23
464.78	8205.92
464.96	8170.81
465.14	8173.15
465.32	8229.32
465.50	8248.05
465.69	8362.73
465.87	8215.28
466.05	8334.65
466.23	8205.92
466.41	8344.01
466.60	8484.44
466.78	8528.91
466.96	8241.03
467.14	8346.35
467.32	8535.93
467.51	8528.91
467.69	8315.92
467.87	8606.15
468.05	8594.45
468.23	8496.14
468.41	8580.40
468.60	8608.49
468.78	8683.39
468.96	8657.64
469.14	8746.58
469.32	8772.33
469.50	8573.38
469.69	8961.91
469.87	8767.65
470.05	8879.99
470.23	9041.49
470.41	9013.40
470.59	8861.27
470.77	8964.25
470.95	9006.38
471.14	9193.62
471.32	8936.17
471.50	9149.15
471.68	9205.33
471.86	9195.96
472.04	9308.31
472.22	9572.79
472.40	9303.63
472.58	9451.08
472.77	9413.63
472.95	9591.52
473.13	9748.33
473.31	9392.57
473.49	9458.10
473.67	9359.80
473.85	9640.67
474.03	9837.27
474.21	10019.83
474.39	10115.80
474.57	9956.64
474.75	10228.14
474.93	10296.02
475.12	10216.44
475.30	10312.40
475.48	10125.16
475.66	10307.72
475.84	10188.35
476.02	10450.49
476.20	10352.19
476.38	10431.77
476.56	10834.34
476.74	10813.28
476.92	10586.24
477.10	10441.13
477.28	10888.17
477.46	10906.90
477.64	11166.70
477.82	11213.51
478.00	11545.86
478.18	11431.18
478.36	11323.51
478.54	11625.44
478.72	11660.55
478.90	11770.55
479.08	11793.96
479.26	12006.95
479.44	12086.53
479.62	12196.53
479.80	12196.53
479.98	12128.66
480.16	12346.33
480.34	12383.77
480.52	12346.33
480.70	12535.91
480.88	12287.81
481.06	12671.66
481.24	12683.36
481.41	12936.14
481.59	12830.82
481.77	12903.37
481.95	13156.15
482.13	13432.33
482.31	12968.91
482.49	13596.17
482.67	13516.59
482.85	13490.85
483.03	13671.07
483.21	13755.33
483.39	13891.08
483.57	14066.62
483.74	13846.61
483.92	14017.47
484.10	14125.13
484.28	14387.27
484.46	14745.38
484.64	14831.97
484.82	14537.07
485.00	14441.11
485.18	15061.35
485.35	15026.24
485.53	14846.02
485.71	15147.95
485.89	15414.77
486.07	15417.11
486.25	15351.57
486.43	15477.96
486.61	15817.34
486.78	16109.91
486.96	16100.55
487.14	16346.30
487.32	16095.86
487.50	16552.27
487.68	16666.95
487.85	16865.90
488.03	16840.15
488.21	16936.12
488.39	16849.52
488.57	16889.31
488.75	17282.52
488.92	17418.27
489.10	17942.55
489.28	18148.51
489.46	18232.77
489.64	18003.40
489.81	18242.14
489.99	18188.30
490.17	18429.38
490.35	18614.28
490.53	18422.36
490.70	18874.08
490.88	18923.23
491.06	18888.12
491.24	18766.42
491.41	19108.13
491.59	19248.57
491.77	19168.99
491.95	19470.92
492.13	19559.86
492.30	19573.90
492.48	19721.35
492.66	20034.99
492.84	19819.66
493.01	20203.50
493.19	20240.95
493.37	20510.11
493.54	20376.70
493.72	20627.14
493.90	20961.84
494.08	21261.43
494.25	21465.05
494.43	21448.67
494.61	21443.99
494.79	21350.37
494.96	21678.04
495.14	21745.92
495.32	22082.95
495.49	21848.90
495.67	21949.54
495.85	22031.46
496.02	22235.09
496.20	22361.48
496.38	22270.20
496.55	22490.21
496.73	23381.95
496.91	22501.91
497.09	22808.52
497.26	22941.93
497.44	23187.69
497.62	23625.37
497.79	23456.85
497.97	23150.24
498.14	23414.72
498.32	23740.05
498.50	23513.02
498.67	23651.11
498.85	23718.99
499.03	24030.28
499.20	24346.25
499.38	24491.37
499.56	24613.07
499.73	24482.00
499.91	24301.78
500.08	24634.14
500.26	24702.01
500.44	24526.47
500.61	24486.68
500.79	24631.80
500.97	24870.53
501.14	25151.40
501.32	25254.38
501.49	24905.64
501.67	25261.40
501.84	25221.61
502.02	25390.13
502.20	25558.65
502.37	26005.69
502.55	25357.36
502.72	26022.08
502.90	25993.99
503.07	25708.44
503.25	26148.46
503.43	26141.44
503.60	26223.36
503.78	26204.64
503.95	26167.19
504.13	26445.71
504.30	26551.04
504.48	26375.50
504.65	26808.50
504.83	26773.39
505.01	26883.39
505.18	26995.74
505.36	27147.87
505.53	27246.18
505.71	27365.54
505.88	27487.25
506.06	27072.98
506.23	27604.28
506.41	27505.98
506.58	27314.05
506.76	27683.86
506.93	27793.86
507.11	27646.41
507.28	27903.87
507.46	28034.94
507.63	27913.23
507.81	28236.22
507.98	27999.83
508.16	28114.52
508.33	28308.78
508.50	28308.78
508.68	28374.31
508.85	28788.59
509.03	28711.35
509.20	28673.90
509.38	28833.06
509.55	28936.04
509.73	28821.36
509.90	29516.50
510.08	29472.03
510.25	29298.83
510.42	29577.35
510.60	29481.39
510.77	29486.07
510.95	29666.29
511.12	29556.28
511.30	29759.91
511.47	30316.96
511.64	30080.56
511.82	30307.60
511.99	30160.14
512.17	30251.42
512.34	29804.38
512.51	30244.40
512.69	30436.33
512.86	30300.58
513.04	30562.72
513.21	30738.26
513.38	31136.15
513.56	30579.10
513.73	30218.66
513.90	30623.57
514.08	30508.88
514.25	31218.07
514.43	31084.65
514.60	31297.64
514.77	30888.05
514.95	31613.62
515.12	31246.15
515.29	31398.29
515.47	31864.05
515.64	31828.95
515.81	31477.86
515.99	31435.74
516.16	31627.66
516.33	31351.48
516.51	31842.99
516.68	31299.98
516.85	31634.68
517.03	31894.48
517.20	31707.24
517.37	31747.03
517.54	32163.64
517.72	32201.09
517.89	32240.88
518.06	32238.54
518.24	32343.86
518.41	32039.59
518.58	32517.06
518.75	32173.00
518.93	32624.73
519.10	32830.69
519.27	32779.20
519.45	32783.88
519.62	33282.42
519.79	33219.22
519.96	33291.78
520.14	33600.73
520.31	33294.12
520.48	33457.96
520.65	33493.07
520.83	33507.11
521.00	33177.09
521.17	33802.02
521.34	33593.71
521.52	33624.14
521.69	33713.08
521.86	34155.44
522.03	33656.90
522.20	33888.62
522.38	34274.80
522.55	34352.04
522.72	33830.10
522.89	34398.85
523.07	34440.98
523.24	34162.46
523.41	34251.40
523.58	34476.09
523.75	34960.58
523.92	34651.63
524.10	34981.65
524.27	34941.86
524.44	34974.63
524.61	35257.83
524.78	35026.12
524.96	35122.08
525.13	35164.21
525.30	35274.21
525.47	35332.73
525.64	35344.43
525.81	35571.46
525.98	35789.13
526.16	35096.33
526.33	35386.56
526.50	35515.29
526.67	35761.05
526.84	35283.58
527.01	35435.71
527.18	35391.24
527.36	35992.76
527.53	35999.78
527.70	36510.02
527.87	36362.56
528.04	35725.94
528.21	36210.43
528.38	36208.09
528.55	36392.99
528.72	36086.38
528.89	36788.54
529.07	36250.22
529.24	36851.73
529.41	36378.95
529.58	36224.47
529.75	36563.85
529.92	36524.06
530.09	36821.31
530.26	36907.91
530.43	36898.55
530.60	36837.69
530.77	36779.18
530.94	37530.49
531.11	37076.43
531.28	37383.04
531.46	37422.83
531.63	37071.75
531.80	37411.12
531.97	37240.26
532.14	37673.26
532.31	37188.77
532.48	37640.50
532.65	37474.32
532.82	37413.46
532.99	37701.35
533.16	37523.47
533.33	38206.90
533.50	37986.89
533.67	37610.07
533.84	37961.15
534.01	37954.13
534.18	37748.16
534.35	38120.31
534.52	37710.71
534.69	37769.22
534.86	38607.14
535.03	37930.72
535.20	38445.64
535.37	38522.88
535.54	38855.23
535.71	38436.28
535.88	38092.22
536.05	38469.04
536.22	38368.40
536.38	38637.56
536.55	38478.41
536.72	38810.76
536.89	38862.26
537.06	38876.30
537.23	38469.04
537.40	38761.61
537.57	38897.36
537.74	39026.09
537.91	39098.65
538.08	39161.84
538.25	38862.26
538.42	39236.74
538.59	39306.96
538.75	38897.36
538.92	38885.66
539.09	39601.86
539.26	39213.34
539.43	39234.40
539.60	39449.73
539.77	39033.11
539.94	39791.45
540.11	39428.66
540.28	39152.48
540.44	39849.96
540.61	39571.44
540.78	39398.24
540.95	39742.30
541.12	39599.52
541.29	39629.95
541.46	39613.57
541.62	39381.85
541.79	40013.80
541.96	39147.80
542.13	39880.39
542.30	39674.42
542.47	40201.04
542.63	40250.19
542.80	40299.34
542.97	40641.06
543.14	40617.66
543.31	40783.83
543.48	40760.43
543.64	40786.18
543.81	40907.88
543.98	40254.87
544.15	40535.74
544.32	40397.65
544.48	40762.77
544.65	40779.15
544.82	40699.58
544.99	40545.10
545.16	40942.99
545.32	41364.29
545.49	41443.87
545.66	40701.92
545.83	41120.87
546.00	41530.47
546.16	41258.96
546.33	41099.81
546.50	40842.35
546.67	41432.16
546.83	40673.83
547.00	40802.56
547.17	41120.87
547.34	41289.39
547.50	41209.81
547.67	41614.72
547.84	42234.97
548.00	41422.80
548.17	41848.78
548.34	41453.23
548.51	41493.02
548.67	42057.09
548.84	41731.75
549.01	41528.13
549.18	41727.07
549.34	41816.01
549.51	42113.26
549.68	41773.88
549.84	41792.61
550.01	41818.35
550.18	41844.10
550.34	42115.60
550.51	41429.82
550.68	41942.40
550.84	41727.07
551.01	42197.52
551.18	42122.62
551.34	42361.36
551.51	42384.76
551.68	42438.59
551.84	42494.77
552.01	41897.93
552.18	42363.70
552.34	42506.47
552.51	42492.43
552.68	42342.63
552.84	42429.23
553.01	42541.58
553.18	42351.99
553.34	42337.95
553.51	42440.93
553.67	42466.68
553.84	42895.00
554.01	42752.23
554.17	42834.14
554.34	43122.03
554.51	42712.44
554.67	43180.54
554.84	42909.04
555.00	42450.30
555.17	42457.32
555.33	42607.11
555.50	42693.71
555.67	42593.07
555.83	43241.40
556.00	43054.15
556.16	43222.67
556.33	42972.24
556.50	43161.82
556.66	43051.81
556.83	42689.03
556.99	43402.89
557.16	43028.41
557.32	43140.75
557.49	43157.14
557.65	42930.11
557.82	42927.77
557.98	42843.51
558.15	43021.39
558.32	43161.82
558.48	43250.76
558.65	42941.81
558.81	43573.75
558.98	43316.29
559.14	43311.61
559.31	43248.42
559.47	43482.47
559.64	43395.87
559.80	43604.18
559.97	43641.63
560.13	43765.68
560.30	43442.68
560.46	43962.28
560.63	43566.73
560.79	44025.48
560.96	43931.86
561.12	43566.73
561.29	43957.60
561.45	43672.06
561.61	43765.68
561.78	43367.79
561.94	43304.59
562.11	43887.39
562.27	43611.20
562.44	43402.89
562.60	43782.06
562.77	44460.82
562.93	43660.35
563.10	44023.14
563.26	43772.70
563.42	43931.86
563.59	43756.32
563.75	43981.01
563.92	44055.90
564.08	43894.41
564.24	44158.89
564.41	44701.89
564.57	44002.07
564.74	43835.89
564.90	44329.75
565.07	44243.15
565.23	44053.56
565.39	43997.39
565.56	43854.62
565.72	43672.06
565.88	44072.29
566.05	44123.78
566.21	44189.31
566.38	44105.06
566.54	43700.14
566.70	44339.11
566.87	44463.16
567.03	44264.21
567.19	44425.71
567.36	44315.70
567.52	43903.77
567.68	44435.07
567.85	44261.87
568.01	44177.61
568.17	44091.01
568.34	44378.90
568.50	44404.64
568.66	44381.24
568.83	44172.93
568.99	44318.04
569.15	44091.01
569.32	44135.48
569.48	44119.10
569.64	44002.07
569.81	44282.94
569.97	44498.26
570.13	44322.72
570.30	44161.23
570.46	44444.43
570.62	44252.51
570.78	43714.19
570.95	44231.44
571.11	44158.89
571.27	44442.09
571.43	44055.90
571.60	44561.46
571.76	44371.88
571.92	44362.51
572.09	44252.51
572.25	44481.88
572.41	44109.74
572.57	44720.62
572.74	44662.10
572.90	44451.45
573.06	44566.14
573.22	44938.29
573.38	44545.08
573.55	44268.89
573.71	44657.42
573.87	44744.02
574.03	44126.12
574.20	44348.47
574.36	44727.64
574.52	44982.76
574.68	44397.62
574.84	44524.01
575.01	44514.65
575.17	44605.93
575.33	44189.31
575.49	44460.82
575.65	44875.09
575.82	44868.07
575.98	44671.46
576.14	44781.47
576.30	44671.46
576.46	44802.53
576.62	44608.27
576.79	44704.23
576.95	44081.65
577.11	44636.36
577.27	44856.37
577.43	44755.72
577.59	44680.83
577.75	44676.15
577.92	43995.05
578.08	44318.04
578.24	44168.25
578.40	44659.76
578.56	45092.76
578.72	44641.04
578.88	44994.46
579.04	44713.59
579.21	44477.20
579.37	44818.92
579.53	44596.57
579.69	44481.88
579.85	44481.88
580.01	44601.25
580.17	44889.13
580.33	45390.01
580.49	45022.54
580.65	44957.01
580.82	44842.32
580.98	44781.47
581.14	44357.83
581.30	44868.07
581.46	44339.11
581.62	44615.29
581.78	44692.53
581.94	44479.54
582.10	44982.76
582.26	45027.23
582.42	44650.40
582.58	45024.89
582.74	44626.99
582.90	44961.69
583.06	44903.18
583.22	44884.45
583.38	44575.50
583.54	44882.11
583.70	44580.18
583.86	44741.68
584.02	44048.88
584.18	44275.91
584.34	44975.73
584.50	44842.32
584.66	44524.01
584.82	44514.65
584.98	44680.83
585.14	45006.16
585.30	44643.38
585.46	44638.70
585.62	44156.55
585.78	44481.88
585.94	44116.76
586.10	44676.15
586.26	44816.58
586.42	45139.57
586.58	44898.50
586.74	44891.48
586.90	44907.86
587.06	44570.82
587.22	45109.14
587.38	44631.68
587.54	44945.31
587.70	45280.00
587.86	45155.96
588.02	44912.54
588.18	45102.12
588.34	44821.26
588.49	44648.06
588.65	44388.26
588.81	44458.48
588.97	44577.84
589.13	44367.20
589.29	44928.92
589.45	44980.42
589.61	45123.19
589.77	45027.23
589.93	44863.39
590.08	45118.51
590.24	45029.57
590.40	45233.19
590.56	45146.59
590.72	44636.36
590.88	44931.26
591.04	45240.21
591.20	45324.47
591.35	45275.32
591.51	45429.80
591.67	44797.85
591.83	44825.94
591.99	45071.70
592.15	45226.17
592.31	45059.99
592.46	45017.86
592.62	45184.04
592.78	45294.05
592.94	44992.12
593.10	45031.91
593.26	45223.83
593.41	45048.29
593.57	45167.66
593.73	45104.46
593.89	45088.08
594.05	45059.99
594.20	45380.65
594.36	45167.66
594.52	45120.85
594.68	45125.53
594.84	44914.88
594.99	45584.27
595.15	44715.93
595.31	45191.06
595.47	45064.67
595.62	45088.08
595.78	44907.86
595.94	45509.38
596.10	45525.76
596.25	44975.73
596.41	45188.72
596.57	45207.45
596.73	45380.65
596.88	44793.17
597.04	45113.83
597.20	45305.75
597.36	45170.00
597.51	45586.61
597.67	44905.52
597.83	45546.82
597.99	45469.59
598.14	44999.14
598.30	45361.92
598.46	45382.99
598.61	45272.98
598.77	45099.78
598.93	45521.08
599.09	44903.18
599.24	45539.80
599.40	45331.50
599.56	45244.90
599.71	45483.63
599.87	45184.04
600.03	45111.49
600.18	45214.47
600.34	45179.36
600.50	45036.59
600.65	45195.74
600.81	45230.85
600.97	45528.10
601.12	45675.55
601.28	45303.41
601.44	45492.99
601.59	45170.00
601.75	44891.48
601.91	45434.48
602.06	44931.26
602.22	45069.36
602.37	45441.50
602.53	45331.50
602.69	45373.63
602.84	44982.76
603.00	45013.18
603.16	45167.66
603.31	45212.13
603.47	45041.27
603.62	45090.42
603.78	45097.44
603.94	44938.29
604.09	45593.64
604.25	45471.93
604.40	44814.24
604.56	45434.48
604.71	45022.54
604.87	45242.56
605.03	45322.13
605.18	44954.67
605.34	45132.55
605.49	44900.84
605.65	45450.86
605.80	44982.76
605.96	44996.80
606.12	45399.37
606.27	45284.68
606.43	45191.06
606.58	45151.27
606.74	44772.11
606.89	45064.67
607.05	45247.24
607.20	45099.78
607.36	45127.87
607.51	45155.96
607.67	45287.03
607.82	45031.91
607.98	44931.26
608.13	44753.38
608.29	45153.62
608.44	44479.54
608.60	44598.91
608.75	44851.69
608.91	44781.47
609.06	44978.07
609.22	44884.45
609.37	44924.24
609.53	44839.98
609.68	44964.03
609.84	44414.01
609.99	44559.12
610.15	44655.08
610.30	44538.05
610.46	44676.15
610.61	44491.24
610.76	44575.50
610.92	44133.14
611.07	44465.50
611.23	44439.75
611.38	44687.85
611.54	44514.65
611.69	44594.23
611.84	44189.31
612.00	44292.30
612.15	44704.23
612.31	44847.00
612.46	44229.10
612.62	44828.28
612.77	44549.76
612.92	44575.50
613.08	44034.84
613.23	44612.95
613.39	44608.27
613.54	44053.56
613.69	44296.98
613.85	43896.75
614.00	44294.64
614.15	44638.70
614.31	44163.57
614.46	44587.21
614.62	44294.64
614.77	44435.07
614.92	44364.85
615.08	43995.05
615.23	44222.08
615.38	44205.70
615.54	43746.95
615.69	43868.66
615.84	44041.86
616.00	43796.10
616.15	43643.97
616.30	44254.85
616.46	44044.20
616.61	43646.31
616.76	44491.24
616.92	43632.27
617.07	43697.80
617.22	43496.52
617.37	43606.52
617.53	44032.50
617.68	43936.54
617.83	44196.34
617.99	43901.43
618.14	43613.54
618.29	43550.35
618.45	43646.31
618.60	43452.05
618.75	43969.30
618.90	43573.75
619.06	43398.21
619.21	43461.41
619.36	43981.01
619.51	43716.53
619.67	43445.02
619.82	43952.92
619.97	43985.69
620.12	43065.86
620.28	42775.63
620.43	43461.41
620.58	43115.01
620.73	43655.67
620.89	43456.73
621.04	43103.31
621.19	43423.96
621.34	43459.07
621.49	43093.94
621.65	42777.97
621.80	43217.99
621.95	42689.03
622.10	43475.45
622.25	43154.80
622.41	43117.35
622.56	42873.93
622.71	43367.79
622.86	42560.30
623.01	43306.93
623.16	43115.01
623.32	43278.85
623.47	43206.29
623.62	43330.34
623.77	42740.52
623.92	42890.32
624.07	42457.32
624.23	42618.81
624.38	42913.72
624.53	42618.81
624.68	42625.84
624.83	42604.77
624.98	43157.14
625.13	42499.45
625.29	42642.22
625.44	43021.39
625.59	42380.08
625.74	42078.15
625.89	41876.86
626.04	42171.77
626.19	42396.46
626.34	42616.47
626.49	42497.11
626.65	41970.49
626.80	42494.77
626.95	42277.10
627.10	41661.54
627.25	41687.28
627.40	42220.92
627.55	41846.44
627.70	41600.68
627.85	42113.26
628.00	42426.89
628.15	42337.95
628.30	41797.29
628.45	41771.54
628.60	41940.06
628.76	42377.74
628.91	41706.01
629.06	42064.11
629.21	42246.67
629.36	42071.13
629.51	41446.21
629.66	41603.02
629.81	41621.75
629.96	41918.99
630.11	41387.69
630.26	41741.11
630.41	41816.01
630.56	41380.67
630.71	41315.14
630.86	41940.06
631.01	41127.89
631.16	41755.16
631.31	40917.25
631.46	41116.19
631.61	41394.71
631.76	41544.51
631.91	41354.93
632.06	41563.23
632.21	41495.36
632.36	41710.69
632.51	41315.14
632.66	41228.54
632.81	40795.54
632.96	40538.08
633.10	41214.49
633.25	41425.14
633.40	41563.23
633.55	41502.38
633.70	40751.07
633.85	41226.20
634.00	41340.88
634.15	41113.85
634.30	40734.68
634.45	40718.30
634.60	40989.80
634.75	41139.60
634.90	41394.71
635.05	40917.25
635.19	40797.88
635.34	41074.06
635.49	40760.43
635.64	40542.76
635.79	40161.25
635.94	40357.86
636.09	40828.30
636.24	40751.07
636.39	40465.52
636.53	40341.47
636.68	40631.70
636.83	40481.91
636.98	40725.32
637.13	40147.21
637.28	40446.80
637.43	40385.94
637.57	40570.85
637.72	40254.87
637.87	40399.99
638.02	40313.39
638.17	40123.80
638.32	39959.97
638.46	39842.94
638.61	40205.72
638.76	40233.81
638.91	40680.85
639.06	40102.74
639.20	39981.03
639.35	40425.73
639.50	40147.21
639.65	40594.25
639.80	40233.81
639.94	40098.06
640.09	39849.96
640.24	39868.69
640.39	39833.58
640.54	39852.30
640.68	39938.90
640.83	39894.43
640.98	39812.51
641.13	40107.42
641.27	39992.73
641.42	39995.07
641.57	40009.12
641.72	39945.92
641.86	39388.88
642.01	39924.86
642.16	39381.85
642.31	39086.95
642.45	39646.33
642.60	39414.62
642.75	39510.58
642.90	39110.35
643.04	39620.59
643.19	39339.72
643.34	39269.51
643.48	39393.56
643.63	39587.82
643.78	39154.82
643.93	39180.57
644.07	39185.25
644.22	39199.29
644.37	38855.23
644.51	38934.81
644.66	39168.87
644.81	39674.42
644.95	39180.57
645.10	39323.34
645.25	39255.46
645.39	39290.57
645.54	39398.24
645.69	39173.55
645.83	38735.87
645.98	38822.47
646.13	39796.13
646.27	39239.08
646.42	38976.94
646.57	38979.28
646.71	38878.64
646.86	38876.30
647.00	38969.92
647.15	38946.51
647.30	39222.70
647.44	39047.16
647.59	38731.18
647.74	38782.68
647.88	38602.46
648.03	38590.75
648.17	38740.55
648.32	38211.59
648.47	38590.75
648.61	38529.90
648.76	38981.62
648.90	38092.22
649.05	38801.40
649.20	38934.81
649.34	38667.99
649.49	38363.72
649.63	38560.33
649.78	38527.56
649.92	38408.19
650.07	38675.01
650.21	38326.27
650.36	38361.38
650.51	38370.74
650.65	38780.34
650.80	38281.80
650.94	38171.80
651.09	38312.23
651.23	38298.19
651.38	38227.97
651.52	37773.91
651.67	38218.61
651.81	37858.17
651.96	37668.58
652.10	37516.45
652.25	38258.40
652.39	37853.48
652.54	37741.14
652.68	38307.55
652.83	38031.36
652.97	38253.72
653.12	38019.66
653.26	38071.15
653.41	37682.62
653.55	37497.72
653.70	37488.36
653.84	37659.22
653.99	38014.98
654.13	37577.30
654.27	37752.84
654.42	37319.84
654.56	37654.54
654.71	37710.71
654.85	37455.59
655.00	37497.72
655.14	37462.61
655.29	37546.87
655.43	37186.43
655.57	37001.53
655.72	37020.25
655.86	37273.03
656.01	37170.05
656.15	36870.46
656.30	37287.07
656.44	37207.50
656.58	37436.87
656.73	37244.94
656.87	36957.06
657.01	37111.53
657.16	36711.30
657.30	37095.15
657.45	36638.75
657.59	36573.21
657.73	36304.05
657.88	36851.73
658.02	36608.32
658.16	37106.85
658.31	37074.09
658.45	37046.00
658.60	36538.10
658.74	36870.46
658.88	36313.41
659.03	36343.84
659.17	36514.70
659.31	36765.14
659.46	36741.73
659.60	36800.24
659.74	36217.45
659.89	36093.40
660.03	35938.93
660.17	36528.74
660.32	36336.82
660.46	37209.84
660.60	36652.79
660.74	36187.02
660.89	36392.99
661.03	35868.71
661.17	36100.42
661.32	35250.81
661.46	35974.03
661.60	35548.06
661.74	35749.34
661.89	35440.39
662.03	35835.94
662.17	35363.15
662.31	35501.25
662.46	35321.02
662.60	35665.08
662.74	35721.26
662.88	35463.80
663.03	35323.36
663.17	35405.28
663.31	35477.84
663.45	35119.74
663.60	35264.85
663.74	35276.55
663.88	35122.08
664.02	35019.10
664.17	34672.70
664.31	34450.35
664.45	34719.51
664.59	34789.72
664.73	34642.27
664.88	34761.64
665.02	34345.02
665.16	34628.23
665.30	34745.25
665.44	34462.05
665.59	34192.89
665.73	33916.70
665.87	34354.38
666.01	34284.17
666.15	33434.55
666.29	33846.49
666.44	34621.20
666.58	34192.89
666.72	34024.37
666.86	34370.77
667.00	33853.51
667.14	33816.06
667.28	33748.18
667.43	33879.25
667.57	33694.35
667.71	33769.25
667.85	33642.86
667.99	33376.04
668.13	33443.91
668.27	33701.37
668.41	33628.82
668.56	33617.11
668.70	33436.89
668.84	33266.03
668.98	33247.31
669.12	33116.24
669.26	33692.01
669.40	33179.43
669.54	32814.31
669.68	33284.76
669.82	32851.76
669.96	33057.73
670.10	32517.06
670.25	32973.47
670.39	32671.54
670.53	32645.79
670.67	32748.78
670.81	32982.83
670.95	32652.81
671.09	32563.87
671.23	33017.94
671.37	32980.49
671.51	32278.33
671.65	32257.26
671.79	32034.91
671.93	32011.51
672.07	31873.42
672.21	32201.09
672.35	31997.46
672.49	32053.64
672.63	32144.92
672.77	31943.63
672.91	31924.91
673.05	31522.34
673.19	31651.06
673.33	31372.54
673.47	31555.10
673.61	31377.22
673.75	31290.62
673.89	30792.09
674.03	30927.84
674.17	31299.98
674.31	30972.31
674.45	31058.91
674.59	31016.78
674.73	30944.22
674.87	30941.88
675.01	30969.97
675.15	30733.57
675.29	31189.98
675.43	30693.79
675.56	30909.11
675.70	30389.52
675.84	30181.21
675.98	29228.61
676.12	30160.14
676.26	30213.98
676.40	30178.87
676.54	29851.19
676.68	29921.41
676.82	29486.07
676.96	29788.00
677.10	29675.65
677.23	29631.18
677.37	29259.04
677.51	29106.90
677.65	29291.80
677.79	29127.97
677.93	29006.26
678.07	28973.49
678.21	28910.30
678.34	28662.20
678.48	28830.72
678.62	28680.92
678.76	28627.09
678.90	28261.97
679.04	28449.21
679.18	28512.41
679.31	27917.91
679.45	27580.87
679.59	27969.40
679.73	28046.64
679.87	28126.22
680.00	27821.95
680.14	27672.15
680.28	27087.02
680.42	27342.14
680.56	27536.40
680.70	27278.94
680.83	27222.77
680.97	26937.23
681.11	26958.29
681.25	26700.83
681.39	26647.00
681.52	26885.73
681.66	26892.76
681.80	26721.90
681.94	26553.38
682.07	26775.73
682.21	26768.71
682.35	26171.87
682.49	26352.09
682.62	26232.72
682.76	25830.15
682.90	25947.18
683.04	25715.47
683.17	25954.20
683.31	26316.98
683.45	25928.45
683.59	25652.27
683.72	24996.92
683.86	25205.23
684.00	25420.56
684.13	25394.81
684.27	25294.17
684.41	25195.87
684.55	24687.97
684.68	24996.92
684.82	24685.63
684.96	24751.17
685.09	24868.19
685.23	24154.33
685.37	24694.99
685.50	24442.21
685.64	24477.32
685.78	24240.93
685.91	24283.06
686.05	24369.66
686.19	23807.93
686.32	23850.06
686.46	23995.17
686.60	23468.55
686.73	23325.78
686.87	23342.16
687.01	23260.24
687.14	23417.06
687.28	23140.88
687.42	23215.77
687.55	23033.21
687.69	22960.66
687.82	22731.28
687.96	22654.05
688.10	22733.62
688.23	22616.60
688.37	22544.04
688.50	22410.63
688.64	22443.40
688.78	22312.33
688.91	22230.41
689.05	22326.37
689.18	22272.54
689.32	21795.07
689.46	22162.53
689.59	22033.80
689.73	22120.40
689.86	21750.60
690.00	21518.89
690.13	21694.43
690.27	21537.61
690.41	21193.55
690.54	20994.61
690.68	21078.86
690.81	20966.52
690.95	21111.63
691.08	21404.20
691.22	20938.43
691.35	21221.64
691.49	21177.17
691.62	20844.81
691.76	20889.28
691.89	20931.41
692.03	20601.40
692.16	20512.46
692.30	20238.61
692.43	20053.71
692.57	20072.43
692.70	20100.52
692.84	20152.01
692.97	19974.13
693.11	19714.33
693.24	19885.19
693.38	19807.95
693.51	19660.50
693.65	19470.92
693.78	19637.09
693.92	19438.15
694.05	19337.51
694.19	18963.02
694.32	19309.42
694.45	19353.89
694.59	19147.92
694.72	18881.10
694.86	18944.30
694.99	18614.28
695.13	18530.02
695.26	18420.02
695.39	18324.05
695.53	18333.42
695.66	18445.76
695.80	18427.04
695.93	18429.38
696.07	17947.23
696.20	18010.42
696.33	17827.86
696.47	17832.54
696.60	17762.33
696.73	17823.18
696.87	17877.01
697.00	17902.76
697.14	17788.07
697.27	17472.10
697.40	17568.06
697.54	17465.08
697.67	17362.09
697.80	17308.26
697.94	17046.12
698.07	17003.99
698.21	16905.69
698.34	16968.88
698.47	16863.56
698.61	16475.03
698.74	16428.22
698.87	16519.50
699.01	16376.73
699.14	16386.09
699.27	16652.91
699.40	16475.03
699.54	16374.39
699.67	16093.52
699.80	16116.93
699.94	15925.00
700.07	15812.66
700.20	15995.22
700.34	15758.83
700.47	15712.02
700.60	15981.18
700.73	15690.95
700.87	15571.58
701.00	15442.85
701.13	15709.68
701.26	15463.92
701.40	15433.49
701.53	15321.15
701.66	15197.10
701.79	15061.35
701.93	14860.06
702.06	14726.65
702.19	14956.02
702.32	14934.96
702.46	14911.55
702.59	14740.69
702.72	14824.95
702.85	14656.43
702.99	14785.16
703.12	14569.83
703.25	14558.13
703.38	14401.32
703.51	14359.19
703.65	14232.80
703.78	14310.04
703.91	13975.34
704.04	14150.88
704.17	13947.25
704.31	13923.85
704.44	13514.25
704.57	13612.56
704.70	13638.30
704.83	13937.89
704.96	13692.13
705.10	13743.63
705.23	13799.80
>>>>>End Processed Spectral Data<<<<<
