SpectraSuite Data File
++++++++++++++++++++++++++++++++++++
Date: Fri Oct 25 10:47:02 EDT 2013
User: price-jones
Dark Spectrum Present: No
Reference Spectrum Present: No
Number of Sampled Component Spectra: 1
Spectrometers: USB2+H05261
Integration Time (usec): 100000 (USB2+H05261)
Spectra Averaged: 1 (USB2+H05261)
Boxcar Smoothing: 0 (USB2+H05261)
Correct for Electrical Dark: No (USB2+H05261)
Strobe/Lamp Enabled: No (USB2+H05261)
Correct for Detector Non-linearity: No (USB2+H05261)
Correct for Stray Light: No (USB2+H05261)
Number of Pixels in Processed Spectrum: 2048
>>>>>Begin Processed Spectral Data<<<<<
365.73	79.58
365.92	79.58
366.12	79.58
366.32	110.01
366.52	98.30
366.72	21.06
366.91	51.49
367.11	49.15
367.31	0.00
367.51	56.17
367.70	91.28
367.90	42.13
368.10	32.77
368.30	105.32
368.49	84.26
368.69	74.90
368.89	49.15
369.09	35.11
369.28	39.79
369.48	72.56
369.68	60.85
369.87	91.28
370.07	161.50
370.27	105.32
370.47	210.65
370.66	491.51
370.86	351.08
371.06	425.98
371.25	428.32
371.45	425.98
371.65	463.43
371.84	430.66
372.04	454.06
372.24	433.00
372.44	388.53
372.63	514.92
372.83	526.62
373.03	433.00
373.22	454.06
373.42	465.77
373.62	477.47
373.81	571.09
374.01	596.84
374.21	608.54
374.40	554.71
374.60	603.86
374.79	641.31
374.99	585.13
375.19	636.63
375.38	582.79
375.58	538.32
375.78	613.22
375.97	589.82
376.17	587.47
376.37	528.96
376.56	617.90
376.76	601.52
376.95	575.77
377.15	627.26
377.35	631.94
377.54	699.82
377.74	638.97
377.93	610.88
378.13	650.67
378.33	674.07
378.52	599.18
378.72	615.56
378.91	624.92
379.11	667.05
379.31	622.58
379.50	627.26
379.70	702.16
379.89	748.97
380.09	662.37
380.28	624.92
380.48	713.86
380.68	620.24
380.87	667.05
381.07	641.31
381.26	741.95
381.46	781.74
381.65	699.82
381.85	671.73
382.04	683.44
382.24	662.37
382.43	753.65
382.63	697.48
382.83	601.52
383.02	615.56
383.22	748.97
383.41	723.23
383.61	697.48
383.80	795.78
384.00	772.38
384.19	842.59
384.39	688.12
384.58	744.29
384.78	758.33
384.97	814.51
385.17	786.42
385.36	835.57
385.56	826.21
385.75	809.83
385.95	739.61
386.14	891.74
386.34	861.32
386.53	706.84
386.72	784.08
386.92	887.06
387.11	915.15
387.31	863.66
387.50	844.93
387.70	828.55
387.89	784.08
388.09	791.10
388.28	819.19
388.48	847.27
388.67	924.51
388.86	929.19
389.06	856.64
389.25	1025.15
389.45	971.32
389.64	985.37
389.84	964.30
390.03	926.85
390.22	908.13
390.42	819.19
390.61	997.07
390.81	973.66
391.00	851.96
391.19	980.68
391.39	898.77
391.58	959.62
391.78	1027.50
391.97	1006.43
392.16	931.53
392.36	1048.56
392.55	873.02
392.75	950.26
392.94	1018.13
393.13	966.64
393.33	985.37
393.52	1027.50
393.71	1041.54
393.91	1015.79
394.10	1088.35
394.29	1041.54
394.49	1097.71
394.68	1107.07
394.88	1270.91
395.07	1146.86
395.26	1132.82
395.46	1135.16
395.65	1100.05
395.84	1151.54
396.04	1245.16
396.23	1200.69
396.42	1128.14
396.62	1132.82
396.81	1139.84
397.00	1125.80
397.19	1233.46
397.39	1303.68
397.58	1343.47
397.77	1210.06
397.97	1277.93
398.16	1306.02
398.35	1394.96
398.55	1371.55
398.74	1355.17
398.93	1394.96
399.12	1322.40
399.32	1301.34
399.51	1350.49
399.70	1366.87
399.90	1455.81
400.09	1434.75
400.28	1465.18
400.47	1558.80
400.67	1533.05
400.86	1446.45
401.05	1411.34
401.24	1558.80
401.44	1526.03
401.63	1600.93
401.82	1568.16
402.01	1526.03
402.21	1600.93
402.40	1544.75
402.59	1596.25
402.78	1706.25
402.97	1643.06
403.17	1582.20
403.36	1678.16
403.55	1746.04
403.74	1727.32
403.93	1734.34
404.13	1732.00
404.32	1633.69
404.51	1671.14
404.70	1746.04
404.89	1678.16
405.09	1778.81
405.28	1781.15
405.47	1792.85
405.66	1781.15
405.85	1785.83
406.05	1898.17
406.24	1846.68
406.43	1935.62
406.62	1914.56
406.81	1905.20
407.00	1966.05
407.20	1898.17
407.39	1860.73
407.58	1949.67
407.77	1975.41
407.96	1973.07
408.15	2129.89
408.34	1996.48
408.54	2071.37
408.73	2108.82
408.92	2153.29
409.11	2169.68
409.30	2204.78
409.49	2005.84
409.68	2043.29
409.87	2136.91
410.07	2263.30
410.26	2214.15
410.45	2300.75
410.64	2120.53
410.83	2244.57
411.02	2324.15
411.21	2368.62
411.40	2387.35
411.59	2352.24
411.78	2497.35
411.98	2476.29
412.17	2455.22
412.36	2366.28
412.55	2427.14
412.74	2527.78
412.93	2509.05
413.12	2492.67
413.31	2607.36
413.50	2537.14
413.69	2670.55
413.88	2750.13
414.07	2663.53
414.26	2682.25
414.45	2731.41
414.64	2710.34
414.83	2810.98
415.02	2881.20
415.22	2747.79
415.41	2923.33
415.60	2717.36
415.79	2963.12
415.98	3117.59
416.17	3082.49
416.36	2995.89
416.55	2972.48
416.74	3150.36
416.93	2928.01
417.12	2902.26
417.31	3094.19
417.50	3110.57
417.69	3148.02
417.88	3197.17
418.07	3126.96
418.26	3246.32
418.45	3220.58
418.64	3353.99
418.83	3164.40
419.02	3255.69
419.21	3253.34
419.39	3351.65
419.58	3211.22
419.77	3155.04
419.96	3337.60
420.15	3323.56
420.34	3396.12
420.53	3574.00
420.72	3592.72
420.91	3370.37
421.10	3513.14
421.29	3620.81
421.48	3588.04
421.67	3452.29
421.86	3506.12
422.05	3604.42
422.24	3506.12
422.43	3623.15
422.61	3658.26
422.80	3609.11
422.99	3651.24
423.18	3803.37
423.37	3707.41
423.56	3728.47
423.75	3742.52
423.94	3557.61
424.13	3440.59
424.32	3407.82
424.50	3660.60
424.69	3735.50
424.88	3686.34
425.07	3604.42
425.26	3597.40
425.45	3655.92
425.64	3576.34
425.83	3517.83
426.01	3784.65
426.20	3730.81
426.39	3707.41
426.58	3550.59
426.77	3758.90
426.96	3763.58
427.15	3737.84
427.33	3824.44
427.52	3817.41
427.71	3854.86
427.90	3838.48
428.09	3892.31
428.28	3990.61
428.46	4004.66
428.65	3929.76
428.84	3990.61
429.03	3927.42
429.22	3810.39
429.40	4032.74
429.59	3831.46
429.78	3791.67
429.97	3782.31
430.16	3817.41
430.34	3873.59
430.53	3925.08
430.72	3852.52
430.91	4046.79
431.10	4072.53
431.28	4182.54
431.47	4428.29
431.66	4257.43
431.85	4117.00
432.03	4201.26
432.22	4432.97
432.41	4458.72
432.60	4308.93
432.79	4383.82
432.97	4489.15
433.16	4376.80
433.35	4437.66
433.54	4374.46
433.72	4388.50
433.91	4449.36
434.10	4468.08
434.28	4353.40
434.47	4447.02
434.66	4535.96
434.85	4634.26
435.03	4636.60
435.22	4627.24
435.41	4777.03
435.59	4690.43
435.78	4826.18
435.97	4610.86
436.16	4706.82
436.34	4713.84
436.53	4709.16
436.72	4812.14
436.90	4720.86
437.09	4807.46
437.28	4760.65
437.46	4702.14
437.65	4938.53
437.84	5057.90
438.02	4877.68
438.21	4905.76
438.40	4830.87
438.58	5081.30
438.77	4957.25
438.96	5039.17
439.14	4966.62
439.33	5200.67
439.52	5198.33
439.70	5181.95
439.89	5277.91
440.08	5387.91
440.26	5284.93
440.45	5336.42
440.63	5408.98
440.82	5481.53
441.01	5502.60
441.19	5521.32
441.38	5699.20
441.57	5518.98
441.75	5717.93
441.94	5783.46
442.12	5724.95
442.31	5844.32
442.50	5916.87
442.68	5860.70
442.87	5813.89
443.05	5921.56
443.24	6057.31
443.43	5968.37
443.61	5907.51
443.80	6127.52
443.98	5834.96
444.17	5844.32
444.35	6071.35
444.54	6059.65
444.73	5977.73
444.91	6066.67
445.10	6050.28
445.28	6033.90
445.47	5980.07
445.65	5980.07
445.84	5949.64
446.02	6209.44
446.21	5994.11
446.39	6136.88
446.58	6207.10
446.77	6174.33
446.95	6171.99
447.14	5954.32
447.32	6373.28
447.51	6146.25
447.69	6169.65
447.88	6314.77
448.06	6352.21
448.25	6239.87
448.43	6146.25
448.62	6207.10
448.80	6221.14
448.99	6265.61
449.17	6356.90
449.36	6422.43
449.54	6469.24
449.73	6473.92
449.91	6614.35
450.10	6712.66
450.28	6609.67
450.46	6621.38
450.65	6586.27
450.83	6539.46
451.02	6647.12
451.20	6729.04
451.39	6724.36
451.57	6661.16
451.76	6509.03
451.94	6656.48
452.13	6815.64
452.31	6602.65
452.49	6441.15
452.68	6864.79
452.86	6717.34
453.05	6806.28
453.23	6841.39
453.42	6867.13
453.60	6747.76
453.78	6960.75
453.97	6963.09
454.15	6846.07
454.34	6853.09
454.52	6956.07
454.70	6965.43
454.89	7021.61
455.07	6970.12
455.26	7084.80
455.44	7220.55
455.62	7192.47
455.81	7026.29
455.99	7311.83
456.17	7250.98
456.36	7241.62
456.54	7351.62
456.73	7529.50
456.91	7639.51
457.09	7496.74
457.28	7424.18
457.46	7585.68
457.64	7719.09
457.83	7576.31
458.01	7424.18
458.19	7548.23
458.38	7557.59
458.56	7702.70
458.74	7618.44
458.93	7562.27
459.11	7646.53
459.29	7611.42
459.48	7864.20
459.66	7754.19
459.84	7793.98
460.03	8013.99
460.21	7653.55
460.39	7831.43
460.57	8102.93
460.76	8013.99
460.94	7978.89
461.12	8025.70
461.31	8093.57
461.49	8006.97
461.67	8107.62
461.85	8142.72
462.04	8049.10
462.22	8681.05
462.40	8301.88
462.59	8124.00
462.77	8124.00
462.95	8224.64
463.13	8156.77
463.32	8372.10
463.50	8411.89
463.68	8215.28
463.86	8219.96
464.05	8376.78
464.23	8322.94
464.41	8484.44
464.59	8388.48
464.78	8685.73
464.96	8479.76
465.14	8276.13
465.32	8531.25
465.50	8854.25
465.69	8596.79
465.87	8641.26
466.05	8774.67
466.23	8486.78
466.41	8683.39
466.60	8966.59
466.78	8814.46
466.96	8872.97
467.14	8716.16
467.32	8765.31
467.51	9050.85
467.69	8718.50
467.87	8875.31
468.05	8678.71
468.23	8779.35
468.41	8872.97
468.60	8805.10
468.78	9020.42
468.96	9015.74
469.14	9181.92
469.32	9107.02
469.50	8926.80
469.69	9212.35
469.87	9118.73
470.05	9111.71
470.23	9139.79
470.41	9341.08
470.59	9483.85
470.77	9359.80
470.95	9352.78
471.14	9516.62
471.32	9329.38
471.50	9811.53
471.68	9610.24
471.86	9556.41
472.04	9675.77
472.22	9708.54
472.40	9675.77
472.58	9722.59
472.77	9689.82
472.95	10036.22
473.13	10153.24
473.31	9872.38
473.49	9813.87
473.67	9991.75
473.85	10005.79
474.03	10064.30
474.21	10303.04
474.39	10228.14
474.57	10232.82
474.75	10658.80
474.93	10296.02
475.12	10326.44
475.30	10654.12
475.48	10487.94
475.66	10560.50
475.84	10614.33
476.02	10757.10
476.20	10796.89
476.38	10904.56
476.56	11035.63
476.74	11087.12
476.92	11157.33
477.10	11059.03
477.28	11382.03
477.46	11246.27
477.64	11248.61
477.82	11330.53
478.00	11843.11
478.18	11590.33
478.36	11960.14
478.54	11782.26
478.72	11962.48
478.90	12142.70
479.08	12269.09
479.26	12255.04
479.44	12304.20
479.62	12430.59
479.80	12388.46
479.98	12411.86
480.16	12905.71
480.34	12732.51
480.52	12926.78
480.70	12898.69
480.88	12931.46
481.06	12952.52
481.24	13156.15
481.41	13605.53
481.59	13570.43
481.77	13675.75
481.95	13619.58
482.13	13486.17
482.31	13706.18
482.49	14279.61
482.67	13834.91
482.85	14052.58
483.03	14363.87
483.21	14277.27
483.39	14380.25
483.57	14347.48
483.74	14602.60
483.92	14885.81
484.10	14621.33
484.28	15103.48
484.46	15370.30
484.64	15300.08
484.82	15005.17
485.00	15215.82
485.18	15396.04
485.35	15602.01
485.53	15218.16
485.71	15267.31
485.89	15721.38
486.07	15882.88
486.25	15782.23
486.43	15803.30
486.61	16243.32
486.78	16343.96
486.96	16107.57
487.14	16561.63
487.32	16655.25
487.50	16716.11
487.68	17177.19
487.85	17415.93
488.03	17310.60
488.21	17554.02
488.39	17376.14
488.57	17465.08
488.75	17891.06
488.92	18073.62
489.10	18061.91
489.28	18024.47
489.46	18387.25
489.64	18757.05
489.81	18878.76
489.99	18956.00
490.17	19082.39
490.35	19206.44
490.53	19351.55
490.70	19559.86
490.88	19335.17
491.06	19269.63
491.24	19737.74
491.41	19580.92
491.59	19798.59
491.77	19829.02
491.95	19789.23
492.13	20240.95
492.30	20503.09
492.48	20320.53
492.66	20709.06
492.84	20664.59
493.01	20861.19
493.19	20676.29
493.37	20961.84
493.54	21111.63
493.72	21125.68
493.90	21041.42
494.08	21788.05
494.25	21804.43
494.43	22015.08
494.61	21888.69
494.79	22216.36
494.96	22022.10
495.14	22155.51
495.32	22480.85
495.49	22195.30
495.67	22382.54
495.85	22649.36
496.02	22775.75
496.20	22927.89
496.38	23159.60
496.55	22829.59
496.73	23740.05
496.91	23215.77
497.09	23379.61
497.26	23817.29
497.44	23789.20
497.62	23775.16
497.79	23817.29
497.97	23864.10
498.14	24393.06
498.32	24137.94
498.50	24283.06
498.67	24718.40
498.85	24552.22
499.03	24936.07
499.20	24903.30
499.38	24917.34
499.56	25207.57
499.73	25355.02
499.91	24999.26
500.08	25474.39
500.26	25139.69
500.44	25198.21
500.61	25481.41
500.79	25240.34
500.97	25645.25
501.14	25867.60
501.32	25729.51
501.49	26466.78
501.67	26164.85
501.84	26384.86
502.02	25883.98
502.20	26309.96
502.37	26080.59
502.55	26441.03
502.72	26789.77
502.90	26422.31
503.07	26813.18
503.25	26644.66
503.43	27009.78
503.60	26904.46
503.78	26857.65
503.95	26824.88
504.13	26946.59
504.30	27342.14
504.48	27377.25
504.65	27346.82
504.83	28016.21
505.01	27679.18
505.18	27784.50
505.36	28194.09
505.53	28072.39
505.71	27913.23
505.88	28493.68
506.06	27765.78
506.23	28112.17
506.41	28137.92
506.58	28107.49
506.76	28697.31
506.93	28879.87
507.11	28250.27
507.28	28519.43
507.46	28683.27
507.63	28606.03
507.81	29062.43
507.98	29113.92
508.16	29165.42
508.33	29149.03
508.50	29362.02
508.68	29195.84
508.85	29692.04
509.03	29596.07
509.20	29523.52
509.38	29743.53
509.55	29979.92
509.73	30108.65
509.90	29848.85
510.08	29858.21
510.25	29851.19
510.42	30309.94
510.60	30263.13
510.77	30485.48
510.95	30691.44
511.12	30553.35
511.30	30595.48
511.47	31269.56
511.64	30661.02
511.82	30775.70
511.99	30408.24
512.17	30883.37
512.34	30637.61
512.51	31065.93
512.69	31016.78
512.86	31278.92
513.04	31718.94
513.21	31601.91
513.38	31686.17
513.56	31241.47
513.73	31400.63
513.90	31744.69
514.08	31737.66
514.25	31927.25
514.43	31950.65
514.60	31772.77
514.77	31821.92
514.95	32514.72
515.12	31777.45
515.29	32554.51
515.47	32385.99
515.64	32620.05
515.81	32065.34
515.99	32451.53
516.16	32692.60
516.33	32598.98
516.51	32348.54
516.68	32154.28
516.85	32091.09
517.03	32751.12
517.20	32617.71
517.37	32994.53
517.54	33008.58
517.72	32992.19
517.89	33116.24
518.06	32615.37
518.24	32826.01
518.41	33013.26
518.58	33137.30
518.75	33333.91
518.93	33586.69
519.10	34031.39
519.27	33495.41
519.45	33766.91
519.62	33668.61
519.79	33862.87
519.96	34031.39
520.14	33923.72
520.31	34202.25
520.48	34171.82
520.65	34057.14
520.83	34565.03
521.00	34487.79
521.17	34202.25
521.34	34443.32
521.52	34618.86
521.69	34487.79
521.86	34913.77
522.03	34836.53
522.20	34857.60
522.38	34649.29
522.55	35047.18
522.72	34778.02
522.89	35534.01
523.07	35093.99
523.24	34988.67
523.41	35281.24
523.58	35412.31
523.75	35459.12
523.92	35955.31
524.10	35632.32
524.27	35772.75
524.44	35688.49
524.61	35859.35
524.78	36079.36
524.96	35800.83
525.13	36453.84
525.30	36149.57
525.47	36451.50
525.64	36290.01
525.81	36456.18
525.98	36378.95
526.16	36341.50
526.33	36231.49
526.50	36268.94
526.67	36243.20
526.84	36456.18
527.01	36070.00
527.18	36624.70
527.36	36730.03
527.53	36879.82
527.70	36854.08
527.87	37120.90
528.04	37273.03
528.21	37050.68
528.38	37151.32
528.55	37338.57
528.72	37148.98
528.89	37654.54
529.07	37364.31
529.24	37361.97
529.41	37401.76
529.58	37544.53
529.75	36896.20
529.92	37684.97
530.09	37368.99
530.26	37783.27
530.43	37993.92
530.60	37624.11
530.77	37764.54
530.94	38092.22
531.11	37951.79
531.28	37872.21
531.46	38061.79
531.63	38286.48
531.80	37979.87
531.97	38366.06
532.14	37928.38
532.31	38136.69
532.48	38143.71
532.65	38223.29
532.82	38497.13
532.99	38763.95
533.16	38754.59
533.33	38452.66
533.50	38653.95
533.67	38658.63
533.84	38525.22
534.01	38607.14
534.18	38871.62
534.35	39276.53
534.52	38677.35
534.69	39182.91
534.86	39311.64
535.03	38817.78
535.20	39363.13
535.37	39604.20
535.54	39346.75
535.71	39096.31
535.88	38967.58
536.05	39206.31
536.22	39332.70
536.38	39311.64
536.55	39597.18
536.72	39110.35
536.89	39044.82
537.06	39690.80
537.23	39199.29
537.40	40069.97
537.57	39969.33
537.74	39632.29
537.91	39894.43
538.08	39995.07
538.25	40055.93
538.42	40187.00
538.59	40453.82
538.75	39639.31
538.92	40062.95
539.09	40259.55
539.26	40495.95
539.43	39941.24
539.60	40259.55
539.77	39817.19
539.94	40151.89
540.11	40130.83
540.28	40236.15
540.44	40240.83
540.61	40315.73
540.78	40425.73
540.95	40512.33
541.12	40301.68
541.29	40519.35
541.46	40395.31
541.62	40280.62
541.79	40917.25
541.96	40376.58
542.13	40884.48
542.30	40687.87
542.47	40907.88
542.63	40942.99
542.80	41188.75
542.97	40980.44
543.14	41474.29
543.31	40830.65
543.48	41516.42
543.64	42075.81
543.81	41497.70
543.98	41574.94
544.15	41385.35
544.32	41706.01
544.48	42122.62
544.65	41567.91
544.82	41811.33
544.99	41500.04
545.16	41647.49
545.32	41504.72
545.49	42054.75
545.66	42183.48
545.83	42082.83
546.00	42131.98
546.16	41588.98
546.33	41984.53
546.50	41701.32
546.67	42047.72
546.83	41947.08
547.00	42443.27
547.17	41603.02
547.34	41797.29
547.50	41991.55
547.67	42408.17
547.84	41818.35
548.00	42344.97
548.17	42859.89
548.34	42609.45
548.51	42579.03
548.67	42117.94
548.84	42569.66
549.01	42450.30
549.18	42342.63
549.34	42527.53
549.51	42710.10
549.68	42686.69
549.84	43002.66
550.01	42440.93
550.18	42560.30
550.34	42979.26
550.51	42698.39
550.68	42431.57
550.84	42471.36
551.01	42738.18
551.18	42930.11
551.34	42522.85
551.51	43026.07
551.68	42658.60
551.84	43246.08
552.01	42707.76
552.18	43145.44
552.34	42604.77
552.51	43351.40
552.68	43075.22
552.84	42815.42
553.01	43466.09
553.18	43192.25
553.34	43470.77
553.51	42899.68
553.67	43164.16
553.84	43662.69
554.01	43583.12
554.17	43658.01
554.34	43594.82
554.51	43473.11
554.67	43746.95
554.84	43667.37
555.00	43739.93
555.17	43398.21
555.33	43459.07
555.50	43667.37
555.67	43232.04
555.83	43658.01
556.00	43398.21
556.16	43887.39
556.33	43856.96
556.50	43405.23
556.66	44067.61
556.83	43421.62
556.99	44046.54
557.16	43835.89
557.32	44175.27
557.49	43599.50
557.65	43438.00
557.82	43789.08
557.98	43391.19
558.15	43899.09
558.32	44261.87
558.48	43948.24
558.65	44107.40
558.81	44011.43
558.98	44210.38
559.14	44172.93
559.31	44243.15
559.47	44151.87
559.64	44184.63
559.80	44182.29
559.97	44442.09
560.13	43943.56
560.30	44390.60
560.46	44346.13
560.63	44170.59
560.79	44465.50
560.96	44224.42
561.12	44051.22
561.29	44521.67
561.45	44446.77
561.61	44350.81
561.78	44545.08
561.94	44243.15
562.11	43896.75
562.27	44561.46
562.44	44208.04
562.60	44921.90
562.77	44837.64
562.93	44381.24
563.10	44568.48
563.26	44137.82
563.42	45174.68
563.59	44463.16
563.75	44765.09
563.92	44774.45
564.08	44514.65
564.24	44605.93
564.41	44928.92
564.57	44306.34
564.74	44687.85
564.90	44748.70
565.07	44552.10
565.23	44713.59
565.39	44987.44
565.56	45015.52
565.72	44294.64
565.88	44978.07
566.05	44196.34
566.21	44685.51
566.38	44652.74
566.54	44584.86
566.70	44921.90
566.87	45226.17
567.03	44760.40
567.19	45256.60
567.36	44949.99
567.52	44842.32
567.68	45027.23
567.85	45003.82
568.01	45261.28
568.17	44304.00
568.34	44994.46
568.50	44783.81
568.66	44861.05
568.83	45134.89
568.99	44788.49
569.15	44823.60
569.32	45172.34
569.48	44900.84
569.64	44816.58
569.81	45048.29
569.97	44996.80
570.13	44942.97
570.30	44729.98
570.46	44755.72
570.62	44807.22
570.78	44507.63
570.95	44926.58
571.11	45488.31
571.27	44648.06
571.43	45097.44
571.60	45148.93
571.76	44978.07
571.92	45170.00
572.09	44830.62
572.25	45567.89
572.41	45067.02
572.57	45146.59
572.74	45406.39
572.90	45106.80
573.06	44996.80
573.22	45083.40
573.38	45074.04
573.55	45022.54
573.71	44982.76
573.87	45090.42
574.03	44758.06
574.20	45010.84
574.36	44872.75
574.52	45254.26
574.68	45240.21
574.84	45460.23
575.01	44961.69
575.17	45483.63
575.33	44877.43
575.49	45038.93
575.65	44830.62
575.82	45720.02
575.98	45172.34
576.14	45425.12
576.30	45045.95
576.46	45055.31
576.62	44765.09
576.79	45219.15
576.95	45001.48
577.11	45069.36
577.27	45621.72
577.43	45532.78
577.59	45469.59
577.75	45116.17
577.92	44835.30
578.08	45074.04
578.24	44587.21
578.40	45141.91
578.56	44877.43
578.72	45457.88
578.88	45626.40
579.04	44973.39
579.21	44910.20
579.37	45289.37
579.53	45076.38
579.69	45216.81
579.85	45275.32
580.01	45312.77
580.17	45471.93
580.33	45258.94
580.49	45301.07
580.65	45034.25
580.82	45558.53
580.98	45371.28
581.14	45181.70
581.30	45797.26
581.46	45628.74
581.62	45296.39
581.78	45694.28
581.94	45258.94
582.10	45291.71
582.26	45500.01
582.42	45507.04
582.58	45469.59
582.74	45425.12
582.90	45371.28
583.06	45497.67
583.22	45310.43
583.38	45324.47
583.54	45322.13
583.70	45111.49
583.86	45219.15
584.02	45088.08
584.18	45099.78
584.34	45324.47
584.50	46010.25
584.66	45436.82
584.82	45188.72
584.98	45687.26
585.14	45359.58
585.30	45258.94
585.46	45315.11
585.62	45375.97
585.78	45172.34
585.94	45081.06
586.10	45167.66
586.26	45277.66
586.42	45675.55
586.58	45436.82
586.74	45219.15
586.90	45694.28
587.06	45350.22
587.22	45488.31
587.38	44896.16
587.54	45745.77
587.70	45815.99
587.86	45872.16
588.02	45502.35
588.18	45518.74
588.34	45167.66
588.49	44893.82
588.65	44996.80
588.81	45057.65
588.97	45380.65
589.13	44994.46
589.29	45387.67
589.45	45315.11
589.61	45432.14
589.77	45745.77
589.93	45022.54
590.08	45799.60
590.24	45406.39
590.40	45874.50
590.56	45684.92
590.72	45647.47
590.88	45324.47
591.04	45593.64
591.20	45631.08
591.35	45755.13
591.51	45972.80
591.67	45469.59
591.83	45893.22
591.99	45591.30
592.15	44966.37
592.31	45177.02
592.46	45839.39
592.62	45560.87
592.78	45874.50
592.94	45947.06
593.10	45593.64
593.26	45703.64
593.41	45670.87
593.57	45670.87
593.73	45963.44
593.89	45537.46
594.05	45703.64
594.20	45528.10
594.36	45462.57
594.52	45502.35
594.68	45401.71
594.84	45860.46
594.99	45771.52
595.15	45659.17
595.31	45703.64
595.47	45820.67
595.62	45556.19
595.78	46085.15
595.94	45691.94
596.10	45572.57
596.25	45823.01
596.41	45935.35
596.57	45860.46
596.73	46209.20
596.88	45759.81
597.04	45832.37
597.20	45748.11
597.36	45514.06
597.51	45647.47
597.67	45366.60
597.83	45745.77
597.99	46075.79
598.14	45825.35
598.30	45516.40
598.46	45682.58
598.61	45858.12
598.77	45488.31
598.93	45598.32
599.09	45827.69
599.24	45921.31
599.40	46131.96
599.56	46014.93
599.71	45862.80
599.87	45619.38
600.03	45478.95
600.18	46019.61
600.34	45851.09
600.50	46019.61
600.65	45844.07
600.81	46003.23
600.97	46157.70
601.12	46330.90
601.28	45886.20
601.44	45736.41
601.59	45703.64
601.75	45633.42
601.91	45722.37
602.06	45790.24
602.22	45792.58
602.37	45830.03
602.53	45811.31
602.69	45904.93
602.84	46045.36
603.00	45591.30
603.16	45106.80
603.31	45514.06
603.47	45324.47
603.62	45528.10
603.78	45624.06
603.94	45834.71
604.09	46092.17
604.25	45811.31
604.40	46178.77
604.56	45949.40
604.71	45401.71
604.87	45333.84
605.03	45497.67
605.18	45530.44
605.34	45603.00
605.49	45427.46
605.65	45654.49
605.80	45418.10
605.96	45525.76
606.12	45914.29
606.27	45773.86
606.43	45621.72
606.58	46054.72
606.74	45219.15
606.89	45380.65
607.05	45406.39
607.20	45794.92
607.36	45869.82
607.51	45612.36
607.67	45612.36
607.82	45118.51
607.98	45333.84
608.13	45366.60
608.29	45500.01
608.44	45024.89
608.60	44924.24
608.75	45347.88
608.91	45059.99
609.06	45261.28
609.22	45661.51
609.37	45324.47
609.53	45474.27
609.68	45460.23
609.84	45371.28
609.99	45329.16
610.15	45680.24
610.30	45076.38
610.46	45099.78
610.61	44987.44
610.76	44935.95
610.92	45420.44
611.07	45146.59
611.23	44561.46
611.38	45439.16
611.54	45301.07
611.69	45184.04
611.84	44678.49
612.00	45041.27
612.15	44589.55
612.31	44985.10
612.46	44940.63
612.62	45041.27
612.77	44854.03
612.92	44928.92
613.08	44577.84
613.23	45153.62
613.39	44823.60
613.54	45165.32
613.69	44823.60
613.85	44584.86
614.00	45069.36
614.15	45134.89
614.31	45162.98
614.46	45174.68
614.62	44942.97
614.77	44980.42
614.92	44617.63
615.08	44589.55
615.23	44844.66
615.38	44519.33
615.54	44453.79
615.69	44236.12
615.84	44734.66
616.00	44545.08
616.15	44477.20
616.30	44603.59
616.46	44332.09
616.61	44254.85
616.76	44334.43
616.92	43817.17
617.07	44390.60
617.22	44189.31
617.37	44435.07
617.53	44587.21
617.68	44268.89
617.83	44502.95
617.99	44449.11
618.14	44210.38
618.29	44516.99
618.45	43908.45
618.60	44334.43
618.75	44203.36
618.90	44273.57
619.06	44432.73
619.21	44201.02
619.36	44133.14
619.51	43906.11
619.67	43505.88
619.82	44044.20
619.97	44114.42
620.12	43901.43
620.28	43054.15
620.43	43847.60
620.58	43990.37
620.73	43653.33
620.89	44060.58
621.04	44023.14
621.19	43800.79
621.34	43669.72
621.49	43800.79
621.65	43655.67
621.80	43847.60
621.95	43320.98
622.10	43285.87
622.25	43433.32
622.41	43274.16
622.56	43349.06
622.71	44002.07
622.86	43363.11
623.01	43583.12
623.16	43328.00
623.32	43564.39
623.47	43971.64
623.62	43555.03
623.77	43519.92
623.92	43526.94
624.07	43505.88
624.23	42918.40
624.38	43119.69
624.53	42857.55
624.68	43435.66
624.83	42930.11
624.98	43044.79
625.13	43210.97
625.29	43571.41
625.44	43267.14
625.59	43225.01
625.74	43529.28
625.89	42852.87
626.04	42440.93
626.19	42890.32
626.34	42864.57
626.49	42967.55
626.65	42796.70
626.80	42663.28
626.95	42670.31
627.10	42632.86
627.25	42637.54
627.40	42469.02
627.55	42033.68
627.70	41944.74
627.85	42274.76
628.00	42424.55
628.15	42770.95
628.30	42499.45
628.45	42887.98
628.60	42326.25
628.76	42464.34
628.91	42366.04
629.06	42555.62
629.21	42288.80
629.36	42349.65
629.51	42270.08
629.66	42085.17
629.81	42211.56
629.96	42438.59
630.11	42216.24
630.26	42038.36
630.41	42813.08
630.56	42139.00
630.71	42286.46
630.86	42148.37
631.01	41769.20
631.16	42099.22
631.31	42220.92
631.46	41371.31
631.61	42045.38
631.76	41949.42
631.91	42066.45
632.06	41879.21
632.21	41970.49
632.36	41904.95
632.51	41752.82
632.66	42204.54
632.81	41645.15
632.96	41474.29
633.10	41453.23
633.25	41415.78
633.40	41195.77
633.55	41752.82
633.70	41867.50
633.85	41158.32
634.00	41439.18
634.15	41514.08
634.30	41460.25
634.45	41638.13
634.60	41186.41
634.75	41500.04
634.90	41474.29
635.05	41811.33
635.19	41462.59
635.34	41642.81
635.49	41577.28
635.64	40964.06
635.79	41282.37
635.94	40898.52
636.09	41053.00
636.24	40861.07
636.39	40744.05
636.53	40741.71
636.68	40994.48
636.83	40472.54
636.98	41336.20
637.13	40411.69
637.28	41184.07
637.43	41092.79
637.57	41186.41
637.72	41041.29
637.87	40928.95
638.02	40598.93
638.17	41034.27
638.32	40481.91
638.46	40198.70
638.61	40814.26
638.76	40198.70
638.91	40116.78
639.06	40374.24
639.20	40657.45
639.35	40877.46
639.50	40460.84
639.65	41053.00
639.80	40701.92
639.94	40524.04
640.09	40065.29
640.24	40030.18
640.39	40086.36
640.54	40081.67
640.68	40149.55
640.83	40383.60
640.98	39910.82
641.13	39730.59
641.27	40212.74
641.42	40112.10
641.57	40236.15
641.72	40423.39
641.86	39751.66
642.01	39721.23
642.16	39854.64
642.31	39531.65
642.45	40210.40
642.60	40140.19
642.75	40357.86
642.90	39908.47
643.04	39679.10
643.19	39861.66
643.34	39339.72
643.48	39866.34
643.63	39548.03
643.78	39929.54
643.93	39243.76
644.07	39966.99
644.22	39782.09
644.37	39456.75
644.51	39009.71
644.66	39765.70
644.81	39475.48
644.95	39496.54
645.10	39618.25
645.25	39372.49
645.39	40102.74
645.54	39526.97
645.69	39332.70
645.83	39290.57
645.98	39035.45
646.13	39613.57
646.27	39526.97
646.42	39253.12
646.57	39526.97
646.71	39505.90
646.86	39330.36
647.00	39845.28
647.15	39332.70
647.30	38965.24
647.44	39246.10
647.59	39133.76
647.74	38892.68
647.88	38986.30
648.03	39313.98
648.17	39196.95
648.32	38845.87
648.47	39079.92
648.61	38536.92
648.76	38983.96
648.90	39021.41
649.05	38976.94
649.20	39084.61
649.34	38829.49
649.49	38462.02
649.63	38398.83
649.78	39108.01
649.92	38586.07
650.07	38899.70
650.21	38300.53
650.36	38696.08
650.51	38576.71
650.65	39131.42
650.80	39143.12
650.94	38941.83
651.09	38471.39
651.23	38677.35
651.38	38480.75
651.52	38550.96
651.67	38305.21
651.81	38843.53
651.96	38347.34
652.10	38557.99
652.25	37986.89
652.39	38410.53
652.54	38326.27
652.68	38515.86
652.83	38506.49
652.97	38293.50
653.12	38141.37
653.26	38492.45
653.41	38455.00
653.55	37839.44
653.70	38129.67
653.84	37996.26
653.99	38691.40
654.13	38337.98
654.27	38022.00
654.42	38052.43
654.56	38082.86
654.71	38122.65
654.85	38059.45
655.00	37942.42
655.14	37600.71
655.29	37551.56
655.43	37273.03
655.57	37757.52
655.72	37591.34
655.86	37549.21
656.01	37198.13
656.15	37212.18
656.30	37827.74
656.44	37088.13
656.58	37483.68
656.73	37095.15
656.87	37179.41
657.01	37266.01
657.16	37390.06
657.30	37530.49
657.45	36950.04
657.59	36877.48
657.73	37158.34
657.88	37291.76
658.02	37170.05
658.16	37310.48
658.31	37078.77
658.45	37013.23
658.60	36835.35
658.74	37277.71
658.88	37195.79
659.03	36556.83
659.17	36723.01
659.31	36634.06
659.46	36943.02
659.60	36989.83
659.74	37034.30
659.89	36685.56
660.03	36678.54
660.17	36828.33
660.32	36622.36
660.46	36804.92
660.60	36933.65
660.74	36587.25
660.89	36620.02
661.03	36215.11
661.17	36294.69
661.32	35447.41
661.46	36149.57
661.60	35899.14
661.74	35807.86
661.89	35943.61
662.03	36327.45
662.17	36500.65
662.31	35849.99
662.46	36084.04
662.60	36268.94
662.74	35861.69
662.88	35974.03
663.03	35857.01
663.17	35388.90
663.31	35557.42
663.45	35405.28
663.60	35871.05
663.74	35363.15
663.88	35480.18
664.02	35044.84
664.17	35597.21
664.31	35227.40
664.45	34897.39
664.59	35316.34
664.73	35056.54
664.88	35330.39
665.02	35201.66
665.16	35070.59
665.30	34749.93
665.44	34913.77
665.59	34445.66
665.73	34473.75
665.87	34412.90
666.01	34644.61
666.15	34712.49
666.29	34377.79
666.44	34679.72
666.58	34616.52
666.72	34300.55
666.86	34827.17
667.00	34679.72
667.14	34651.63
667.28	34391.83
667.43	33926.07
667.57	34263.10
667.71	34209.27
667.85	34232.68
667.99	34321.62
668.13	33659.24
668.27	33902.66
668.41	34129.69
668.56	33916.70
668.70	34052.45
668.84	33748.18
668.98	33476.68
669.12	33862.87
669.26	33418.17
669.40	33525.83
669.54	33333.91
669.68	33420.51
669.82	33600.73
669.96	33420.51
670.10	33170.07
670.25	33610.09
670.39	33411.15
670.53	33298.80
670.67	33008.58
670.81	32961.76
670.95	33207.52
671.09	32779.20
671.23	32945.38
671.37	33181.77
671.51	32458.55
671.65	32446.85
671.79	32708.99
671.93	32245.56
672.07	32390.67
672.21	32634.09
672.35	32116.83
672.49	32414.08
672.63	32481.95
672.77	32477.27
672.91	32018.53
673.05	32023.21
673.19	31611.28
673.33	31688.51
673.47	31864.05
673.61	31531.70
673.75	31330.41
673.89	31094.02
674.03	31042.53
674.17	31094.02
674.31	31594.89
674.45	31620.64
674.59	31449.78
674.73	31150.19
674.87	31140.83
675.01	31229.77
675.15	30955.93
675.29	31154.87
675.43	31524.68
675.56	30679.74
675.70	31154.87
675.84	30443.35
675.98	29465.00
676.12	30494.84
676.26	30405.90
676.40	29961.20
676.54	30150.78
676.68	30188.23
676.82	29567.99
676.96	29628.84
677.10	29788.00
677.23	29432.24
677.37	30059.50
677.51	29790.34
677.65	29408.83
677.79	29371.38
677.93	29212.23
678.07	28886.89
678.21	29130.31
678.34	29254.36
678.48	28905.62
678.62	29013.28
678.76	28893.91
678.90	28753.48
679.04	28617.73
679.18	28634.11
679.31	28353.25
679.45	28100.47
679.59	28056.00
679.73	27833.65
679.87	27974.08
680.00	28149.62
680.14	27630.02
680.28	27782.16
680.42	27938.97
680.56	27887.48
680.70	27583.21
680.83	27501.29
680.97	27662.79
681.11	27274.26
681.25	26941.91
681.39	27145.53
681.52	26972.33
681.66	27297.67
681.80	26984.04
681.94	27164.26
682.07	26822.54
682.21	26684.45
682.35	26565.08
682.49	26590.83
682.62	26581.46
682.76	26176.55
682.90	26148.46
683.04	26050.16
683.17	26338.05
683.31	26003.35
683.45	26216.34
683.59	26202.30
683.72	25701.42
683.86	25766.96
684.00	25560.99
684.13	25425.24
684.27	25523.54
684.41	25523.54
684.55	25345.66
684.68	25078.84
684.82	24999.26
684.96	25352.68
685.09	25039.05
685.23	24472.64
685.37	24650.52
685.50	24594.35
685.64	24467.96
685.78	24376.68
685.91	24739.46
686.05	24149.65
686.19	24006.87
686.32	24151.99
686.46	23908.57
686.60	23412.38
686.73	23906.23
686.87	23733.03
687.01	23616.01
687.14	23386.63
687.28	23431.10
687.42	23475.57
687.55	22995.76
687.69	23400.68
687.82	22843.63
687.96	23126.83
688.10	23419.40
688.23	22822.56
688.37	22766.39
688.50	22705.54
688.64	22719.58
688.78	22120.40
688.91	22235.09
689.05	22506.59
689.18	22288.92
689.32	22143.81
689.46	22293.60
689.59	22340.41
689.73	22199.98
689.86	21926.14
690.00	22061.89
690.13	22045.51
690.27	21645.27
690.41	21724.85
690.54	21600.80
690.68	21436.97
690.81	21039.08
690.95	21198.23
691.08	21132.70
691.22	20449.26
691.35	21060.14
691.49	21355.05
691.62	21083.55
691.76	21053.12
691.89	20863.54
692.03	20727.78
692.16	20264.36
692.30	20439.90
692.43	20290.10
692.57	19971.79
692.70	20201.16
692.84	20269.04
692.97	19800.93
693.11	20051.37
693.24	19761.14
693.38	19749.44
693.51	19632.41
693.65	19653.48
693.78	19976.47
693.92	19789.23
694.05	19569.22
694.19	19421.77
694.32	19370.27
694.45	19194.73
694.59	19061.32
694.72	19323.46
694.86	18939.62
694.99	19042.60
695.13	19044.94
695.26	18429.38
695.39	18588.53
695.53	18808.54
695.66	18443.42
695.80	18609.60
695.93	18258.52
696.07	18410.65
696.20	18420.02
696.33	18195.32
696.47	18136.81
696.60	18277.24
696.73	17928.50
696.87	17909.78
697.00	17689.77
697.14	17797.43
697.27	17799.77
697.40	17680.41
697.54	17556.36
697.67	17497.84
697.80	17366.78
697.94	17301.24
698.07	17111.66
698.21	17081.23
698.34	17081.23
698.47	17114.00
698.61	16891.65
698.74	16922.07
698.87	16751.21
699.01	16472.69
699.14	16730.15
699.27	16418.86
699.40	16510.14
699.54	16486.73
699.67	15901.60
699.80	16154.38
699.94	16233.96
700.07	16070.12
700.20	15857.13
700.34	15960.11
700.47	15829.04
700.60	16056.08
700.73	16035.01
700.87	15889.90
701.00	15372.64
701.13	15756.49
701.26	15466.26
701.40	15662.86
701.53	15543.50
701.66	15199.44
701.79	15016.88
701.93	15227.53
702.06	15028.58
702.19	14834.32
702.32	14981.77
702.46	15131.56
702.59	14853.04
702.72	14820.27
702.85	14492.60
702.99	14750.06
703.12	14647.07
703.25	14494.94
703.38	14782.82
703.51	14527.71
703.65	14307.69
703.78	14424.72
703.91	14228.12
704.04	14478.55
704.17	14188.33
704.31	14342.80
704.44	14022.15
704.57	13603.19
704.70	13542.34
704.83	13877.04
704.96	13820.86
705.10	13755.33
705.23	13720.22
>>>>>End Processed Spectral Data<<<<<
