SpectraSuite Data File
++++++++++++++++++++++++++++++++++++
Date: Fri Oct 25 10:47:57 EDT 2013
User: price-jones
Dark Spectrum Present: No
Reference Spectrum Present: No
Number of Sampled Component Spectra: 1
Spectrometers: USB2+H05261
Integration Time (usec): 100000 (USB2+H05261)
Spectra Averaged: 1 (USB2+H05261)
Boxcar Smoothing: 0 (USB2+H05261)
Correct for Electrical Dark: No (USB2+H05261)
Strobe/Lamp Enabled: No (USB2+H05261)
Correct for Detector Non-linearity: No (USB2+H05261)
Correct for Stray Light: No (USB2+H05261)
Number of Pixels in Processed Spectrum: 2048
>>>>>Begin Processed Spectral Data<<<<<
365.73	145.11
365.92	145.11
366.12	145.11
366.32	98.30
366.52	44.47
366.72	60.85
366.91	100.64
367.11	23.41
367.31	11.70
367.51	42.13
367.70	119.37
367.90	117.03
368.10	0.00
368.30	0.00
368.49	77.24
368.69	53.83
368.89	105.32
369.09	86.60
369.28	65.54
369.48	100.64
369.68	182.56
369.87	138.09
370.07	149.79
370.27	161.50
370.47	238.73
370.66	327.68
370.86	421.30
371.06	400.23
371.25	477.47
371.45	461.09
371.65	437.68
371.84	454.06
372.04	447.04
372.24	496.19
372.44	472.79
372.63	566.41
372.83	510.24
373.03	521.94
373.22	550.03
373.42	484.49
373.62	465.77
373.81	503.22
374.01	538.32
374.21	535.98
374.40	498.53
374.60	571.09
374.79	608.54
374.99	608.54
375.19	610.88
375.38	528.96
375.58	550.03
375.78	629.60
375.97	601.52
376.17	587.47
376.37	615.56
376.56	545.34
376.76	557.05
376.95	512.58
377.15	596.84
377.35	594.50
377.54	620.24
377.74	594.50
377.93	638.97
378.13	617.90
378.33	580.45
378.52	573.43
378.72	568.75
378.91	613.22
379.11	599.18
379.31	643.65
379.50	592.16
379.70	662.37
379.89	678.76
380.09	631.94
380.28	720.88
380.48	690.46
380.68	713.86
380.87	669.39
381.07	662.37
381.26	688.12
381.46	601.52
381.65	638.97
381.85	727.91
382.04	653.01
382.24	678.76
382.43	669.39
382.63	610.88
382.83	763.01
383.02	704.50
383.22	725.57
383.41	727.91
383.61	739.61
383.80	798.12
384.00	784.08
384.19	763.01
384.39	704.50
384.58	763.01
384.78	828.55
384.97	758.33
385.17	798.12
385.36	695.14
385.56	800.46
385.75	716.20
385.95	732.59
386.14	791.10
386.34	702.16
386.53	812.17
386.72	791.10
386.92	805.14
387.11	823.87
387.31	812.17
387.50	772.38
387.70	781.74
387.89	833.23
388.09	870.68
388.28	826.21
388.48	835.57
388.67	856.64
388.86	840.25
389.06	833.23
389.25	863.66
389.45	950.26
389.64	837.91
389.84	889.40
390.03	964.30
390.22	873.02
390.42	915.15
390.61	823.87
390.81	964.30
391.00	964.30
391.19	966.64
391.39	1011.11
391.58	994.73
391.78	894.08
391.97	938.55
392.16	961.96
392.36	1034.52
392.55	959.62
392.75	943.24
392.94	926.85
393.13	983.02
393.33	1020.47
393.52	912.81
393.71	1022.81
393.91	1057.92
394.10	1062.60
394.29	1053.24
394.49	1118.78
394.68	1163.25
394.88	1041.54
395.07	1057.92
395.26	1142.18
395.46	1067.28
395.65	1121.12
395.84	1132.82
396.04	1142.18
396.23	1123.46
396.42	1071.97
396.62	1144.52
396.81	1053.24
397.00	1121.12
397.19	1130.48
397.39	1371.55
397.58	1296.66
397.77	1219.42
397.97	1348.15
398.16	1284.95
398.35	1334.11
398.55	1277.93
398.74	1270.91
398.93	1350.49
399.12	1357.51
399.32	1315.38
399.51	1273.25
399.70	1310.70
399.90	1413.68
400.09	1425.39
400.28	1380.92
400.47	1441.77
400.67	1453.47
400.86	1465.18
401.05	1369.21
401.24	1556.46
401.44	1359.85
401.63	1369.21
401.82	1439.43
402.01	1469.86
402.21	1427.73
402.40	1526.03
402.59	1607.95
402.78	1558.80
402.97	1561.14
403.17	1603.27
403.36	1511.99
403.55	1652.42
403.74	1694.55
403.93	1673.48
404.13	1717.95
404.32	1619.65
404.51	1490.92
404.70	1659.44
404.89	1598.59
405.09	1666.46
405.28	1713.27
405.47	1746.04
405.66	1668.80
405.85	1776.47
406.05	1743.70
406.24	1769.44
406.43	1806.89
406.62	1865.41
406.81	1909.88
407.00	1790.51
407.20	1851.36
407.39	1837.32
407.58	1914.56
407.77	2026.90
407.96	2019.88
408.15	1930.94
408.34	1959.03
408.54	1919.24
408.73	2054.99
408.92	1933.28
409.11	2057.33
409.30	1989.46
409.49	2033.93
409.68	1991.80
409.87	2033.93
410.07	2003.50
410.26	2069.03
410.45	2094.78
410.64	2195.42
410.83	2249.25
411.02	2200.10
411.21	2361.60
411.40	2277.34
411.59	2296.07
411.78	2272.66
411.98	2256.28
412.17	2380.32
412.36	2258.62
412.55	2272.66
412.74	2429.48
412.93	2312.45
413.12	2406.07
413.31	2431.82
413.50	2532.46
413.69	2583.95
413.88	2539.48
414.07	2562.89
414.26	2623.74
414.45	2693.96
414.64	2612.04
414.83	2614.38
415.02	2644.81
415.22	2815.66
415.41	2754.81
415.60	2829.71
415.79	2715.02
415.98	2829.71
416.17	2780.56
416.36	2925.67
416.55	2857.79
416.74	2993.55
416.93	2930.35
417.12	2895.24
417.31	2991.20
417.50	2876.52
417.69	3105.89
417.88	3026.31
418.07	2993.55
418.26	3028.65
418.45	3082.49
418.64	3173.77
418.83	3255.69
419.02	3185.47
419.21	3234.62
419.39	3251.00
419.58	3119.93
419.77	3229.94
419.96	3302.50
420.15	3187.81
420.34	3342.28
420.53	3372.71
420.72	3421.86
420.91	3314.20
421.10	3398.46
421.29	3405.48
421.48	3321.22
421.67	3368.03
421.86	3440.59
422.05	3520.17
422.24	3454.63
422.43	3403.14
422.61	3302.50
422.80	3449.95
422.99	3487.40
423.18	3480.38
423.37	3440.59
423.56	3478.04
423.75	3471.01
423.94	3545.91
424.13	3183.13
424.32	3365.69
424.50	3555.27
424.69	3566.98
424.88	3562.30
425.07	3522.51
425.26	3564.64
425.45	3529.53
425.64	3555.27
425.83	3487.40
426.01	3538.89
426.20	3522.51
426.39	3616.13
426.58	3543.57
426.77	3613.79
426.96	3562.30
427.15	3559.95
427.33	3679.32
427.52	3742.52
427.71	3616.13
427.90	3688.68
428.09	3641.87
428.28	3775.28
428.46	3705.07
428.65	3904.01
428.84	3878.27
429.03	3957.85
429.22	3684.00
429.40	3721.45
429.59	3749.54
429.78	3623.15
429.97	3639.53
430.16	3548.25
430.34	3873.59
430.53	3999.98
430.72	3908.69
430.91	3829.12
431.10	3829.12
431.28	3962.53
431.47	4215.30
431.66	4079.55
431.85	4088.92
432.03	4135.73
432.22	4212.96
432.41	4121.68
432.60	4170.83
432.79	4177.86
432.97	4208.28
433.16	4381.48
433.35	4294.88
433.54	4278.50
433.72	4227.01
433.91	4264.46
434.10	4383.82
434.28	4278.50
434.47	4341.69
434.66	4358.08
434.85	4528.94
435.03	4521.92
435.22	4498.51
435.41	4564.04
435.59	4533.62
435.78	4559.36
435.97	4430.63
436.16	4486.81
436.34	4613.20
436.53	4545.32
436.72	4725.54
436.90	4559.36
437.09	4650.64
437.28	4601.49
437.46	4788.74
437.65	4732.56
437.84	4528.94
438.02	4643.62
438.21	4641.28
438.40	4638.94
438.58	4638.94
438.77	4821.50
438.96	4861.29
439.14	4903.42
439.33	5006.41
439.52	5029.81
439.70	4985.34
439.89	5050.88
440.08	5142.16
440.26	5097.69
440.45	5128.11
440.63	5191.31
440.82	5284.93
441.01	5233.44
441.19	5425.36
441.38	5582.18
441.57	5406.64
441.75	5561.11
441.94	5687.50
442.12	5549.41
442.31	5619.63
442.50	5659.42
442.68	5671.12
442.87	5689.84
443.05	5666.44
443.24	5816.23
443.43	5579.84
443.61	5724.95
443.80	5860.70
443.98	5575.16
444.17	5535.37
444.35	5834.96
444.54	5891.13
444.73	5860.70
444.91	5727.29
445.10	5811.55
445.28	5668.78
445.47	5823.25
445.65	5912.19
445.84	5900.49
446.02	5839.64
446.21	5907.51
446.39	5816.23
446.58	5919.21
446.77	5942.62
446.95	5860.70
447.14	5900.49
447.32	5998.79
447.51	5968.37
447.69	5799.85
447.88	6087.73
448.06	5991.77
448.25	5930.92
448.43	6101.78
448.62	6087.73
448.80	5973.05
448.99	6113.48
449.17	6022.20
449.36	5977.73
449.54	6183.70
449.73	6333.49
449.91	6312.42
450.10	6197.74
450.28	6368.60
450.46	6260.93
450.65	6263.27
450.83	6448.18
451.02	6249.23
451.20	6441.15
451.39	6382.64
451.57	6363.92
451.76	6520.73
451.94	6403.71
452.13	6490.31
452.31	6464.56
452.49	6282.00
452.68	6485.62
452.86	6607.33
453.05	6494.99
453.23	6502.01
453.42	6597.97
453.60	6518.39
453.78	6712.66
453.97	6567.54
454.15	6715.00
454.34	6665.85
454.52	6923.30
454.70	6787.55
454.89	6890.54
455.07	6794.58
455.26	6738.40
455.44	6904.58
455.62	6927.99
455.81	6913.94
455.99	7045.01
456.17	7068.42
456.36	6963.09
456.54	7108.21
456.73	7218.21
456.91	7215.87
457.09	7274.38
457.28	7309.49
457.46	7176.08
457.64	7321.20
457.83	7386.73
458.01	7112.89
458.19	7400.77
458.38	7356.30
458.56	7478.01
458.74	7290.77
458.93	7548.23
459.11	7489.71
459.29	7480.35
459.48	7538.87
459.66	7485.03
459.84	7531.84
460.03	7735.47
460.21	7508.44
460.39	7655.89
460.57	7602.06
460.76	7588.02
460.94	7604.40
461.12	7880.58
461.31	7843.14
461.49	7772.92
461.67	7595.04
461.85	7861.86
462.04	7875.90
462.22	8400.18
462.40	7918.03
462.59	8009.31
462.77	8032.72
462.95	8018.68
463.13	8135.70
463.32	7878.24
463.50	8102.93
463.68	8086.55
463.86	8166.13
464.05	7929.74
464.23	8025.70
464.41	8287.84
464.59	7981.23
464.78	8212.94
464.96	8245.71
465.14	8180.17
465.32	8257.41
465.50	8407.20
465.69	8313.58
465.87	8266.77
466.05	8217.62
466.23	8049.10
466.41	8353.37
466.60	8510.19
466.78	8290.18
466.96	8332.31
467.14	8418.91
467.32	8465.72
467.51	8606.15
467.69	8306.56
467.87	8446.99
468.05	8568.70
468.23	8617.85
468.41	8664.66
468.60	8676.37
468.78	8788.71
468.96	8521.89
469.14	8540.61
469.32	8833.18
469.50	8608.49
469.69	8519.55
469.87	8840.20
470.05	8933.82
470.23	8854.25
470.41	9088.30
470.59	8861.27
470.77	8896.38
470.95	8919.78
471.14	9193.62
471.32	9039.15
471.50	9156.18
471.68	9149.15
471.86	9111.71
472.04	9397.25
472.22	9399.59
472.40	9184.26
472.58	9488.53
472.77	9359.80
472.95	9411.29
473.13	9717.90
473.31	9331.72
473.49	9664.07
473.67	9729.61
473.85	9542.36
474.03	9937.91
474.21	9830.25
474.39	9825.57
474.57	9928.55
474.75	10087.71
474.93	10033.88
475.12	10092.39
475.30	10157.92
475.48	10052.60
475.66	10171.97
475.84	10111.11
476.02	10284.31
476.20	10410.70
476.38	10714.97
476.56	10991.16
476.74	10757.10
476.92	10768.80
477.10	10675.18
477.28	10993.50
477.46	10815.62
477.64	10949.03
477.82	11513.10
478.00	11384.37
478.18	11229.89
478.36	11541.18
478.54	11344.58
478.72	11398.41
478.90	11747.15
479.08	11786.94
479.26	11878.22
479.44	11950.78
479.62	11967.16
479.80	12044.40
479.98	12332.28
480.16	12538.25
480.34	12376.75
480.52	12217.60
480.70	12388.46
480.88	12304.20
481.06	12800.39
481.24	12472.71
481.41	12833.16
481.59	12968.91
481.77	12924.44
481.95	12954.87
482.13	13146.79
482.31	13174.88
482.49	13437.02
482.67	13540.00
482.85	13635.96
483.03	13565.74
483.21	13776.39
483.39	13940.23
483.57	13933.21
483.74	14101.73
483.92	13900.44
484.10	14178.97
484.28	14696.22
484.46	14642.39
484.64	14970.07
484.82	14682.18
485.00	14768.78
485.18	15094.11
485.35	14932.62
485.53	15026.24
485.71	14998.15
485.89	15272.00
486.07	15192.42
486.25	15293.06
486.43	15492.01
486.61	15536.48
486.78	15899.26
486.96	16182.46
487.14	15929.69
487.32	16496.10
487.50	16720.79
487.68	16741.85
487.85	16865.90
488.03	16451.63
488.21	16889.31
488.39	16922.07
488.57	16917.39
488.75	17373.80
488.92	17303.58
489.10	17771.69
489.28	17582.10
489.46	18120.43
489.64	17628.92
489.81	18298.31
489.99	18361.50
490.17	18565.13
490.35	18647.05
490.53	18607.26
490.70	18661.09
490.88	18448.10
491.06	18995.79
491.24	18916.21
491.41	19335.17
491.59	18965.36
491.77	19381.98
491.95	19499.00
492.13	19648.80
492.30	19847.74
492.48	19576.24
492.66	20006.90
492.84	20032.65
493.01	20189.46
493.19	20100.52
493.37	20680.97
493.54	20313.51
493.72	20650.55
493.90	20627.14
494.08	20816.72
494.25	21188.87
494.43	21188.87
494.61	21120.99
494.79	21362.07
494.96	21132.70
495.14	21373.77
495.32	21921.46
495.49	21855.92
495.67	21825.50
495.85	22008.06
496.02	22324.03
496.20	22609.58
496.38	22183.60
496.55	22405.95
496.73	22841.29
496.91	22766.39
497.09	22890.44
497.26	23000.44
497.44	22874.06
497.62	22998.10
497.79	23220.45
497.97	23255.56
498.14	23154.92
498.32	23735.37
498.50	23283.65
498.67	24051.34
498.85	23936.66
499.03	23440.47
499.20	24243.27
499.38	24280.72
499.56	24456.26
499.73	24322.85
499.91	24446.90
500.08	24563.92
500.26	24439.87
500.44	24563.92
500.61	24929.05
500.79	24360.30
500.97	24975.86
501.14	25228.63
501.32	25076.50
501.49	25109.27
501.67	24964.15
501.84	25624.18
502.02	25621.84
502.20	25736.53
502.37	25797.38
502.55	25762.28
502.72	25799.73
502.90	25596.10
503.07	25930.80
503.25	26204.64
503.43	26010.37
503.60	26321.66
503.78	26373.16
503.95	26265.49
504.13	26265.49
504.30	26391.88
504.48	26698.49
504.65	26616.57
504.83	26986.38
505.01	27222.77
505.18	27009.78
505.36	27070.64
505.53	26930.20
505.71	27075.32
505.88	27679.18
506.06	26675.09
506.23	27229.79
506.41	27410.01
506.58	27648.75
506.76	27218.09
506.93	27833.65
507.11	27651.09
507.28	28364.95
507.46	27637.05
507.63	28187.07
507.81	27910.89
507.98	27871.10
508.16	28229.20
508.33	28327.50
508.50	28051.32
508.68	28402.40
508.85	28720.71
509.03	28545.17
509.20	28613.05
509.38	28863.49
509.55	28847.10
509.73	28938.38
509.90	29303.51
510.08	29102.22
510.25	29198.18
510.42	29322.23
510.60	29411.17
510.77	29127.97
510.95	30209.29
511.12	29893.32
511.30	29961.20
511.47	30031.41
511.64	29886.30
511.82	29729.48
511.99	29755.23
512.17	30394.20
512.34	30080.56
512.51	30199.93
512.69	30242.06
512.86	30426.96
513.04	30827.20
513.21	30513.56
513.38	30511.22
513.56	30586.12
513.73	30965.29
513.90	30483.14
514.08	30749.96
514.25	30930.18
514.43	31182.96
514.60	30728.89
514.77	30930.18
514.95	31585.53
515.12	31686.17
515.29	31344.45
515.47	31583.19
515.64	31964.70
515.81	31449.78
515.99	31826.60
516.16	31775.11
516.33	31541.06
516.51	31756.39
516.68	31637.02
516.85	31414.67
517.03	31662.77
517.20	31885.12
517.37	31655.75
517.54	32540.47
517.72	32341.52
517.89	31903.84
518.06	32105.13
518.24	32245.56
518.41	32100.45
518.58	32233.86
518.75	32362.59
518.93	33064.75
519.10	32425.78
519.27	32842.40
519.45	32851.76
519.62	32861.12
519.79	32975.81
519.96	33287.10
520.14	33088.15
520.31	33158.37
520.48	33701.37
520.65	33296.46
520.83	33668.61
521.00	33338.59
521.17	33570.30
521.34	33345.61
521.52	33364.34
521.69	34270.12
521.86	34117.99
522.03	33830.10
522.20	34291.19
522.38	33830.10
522.55	34059.48
522.72	33965.85
522.89	34092.24
523.07	34146.08
523.24	34043.09
523.41	34342.68
523.58	34440.98
523.75	35122.08
523.92	34452.69
524.10	34817.81
524.27	34759.30
524.44	34904.41
524.61	34710.14
524.78	35026.12
524.96	35138.46
525.13	35093.99
525.30	35604.23
525.47	35512.95
525.64	35569.12
525.81	35526.99
525.98	35349.11
526.16	35431.03
526.33	35204.00
526.50	35653.38
526.67	35501.25
526.84	35501.25
527.01	35412.31
527.18	35723.60
527.36	35615.93
527.53	36041.91
527.70	36217.45
527.87	36603.64
528.04	35920.20
528.21	36402.35
528.38	35990.42
528.55	36203.41
528.72	36453.84
528.89	36814.29
529.07	36512.36
529.24	36170.64
529.41	36112.13
529.58	36219.79
529.75	36397.67
529.92	36676.19
530.09	36444.48
530.26	37181.75
530.43	36741.73
530.60	36825.99
530.77	37034.30
530.94	37106.85
531.11	36907.91
531.28	37212.18
531.46	37031.96
531.63	37104.51
531.80	36701.94
531.97	37251.97
532.14	37191.11
532.31	37366.65
532.48	37659.22
532.65	37970.51
532.82	37443.89
532.99	37813.70
533.16	37500.06
533.33	37586.66
533.50	37706.03
533.67	37937.74
533.84	37642.84
534.01	37699.01
534.18	37418.14
534.35	37787.95
534.52	38436.28
534.69	38080.52
534.86	37806.67
535.03	38139.03
535.20	38529.90
535.37	38171.80
535.54	38567.35
535.71	38195.20
535.88	38403.51
536.05	38513.52
536.22	38188.18
536.38	38834.17
536.55	38611.82
536.72	38728.84
536.89	38288.82
537.06	38822.47
537.23	38904.38
537.40	38553.30
537.57	38824.81
537.74	38845.87
537.91	39236.74
538.08	38923.11
538.25	38761.61
538.42	39220.36
538.59	39438.03
538.75	38520.54
538.92	39290.57
539.09	39203.97
539.26	39365.47
539.43	39250.78
539.60	38995.67
539.77	39014.39
539.94	39524.63
540.11	39225.04
540.28	39253.12
540.44	39456.75
540.61	39819.53
540.78	39339.72
540.95	39400.58
541.12	39098.65
541.29	39405.26
541.46	39468.45
541.62	39819.53
541.79	40126.14
541.96	39421.64
542.13	39847.62
542.30	39803.15
542.47	40074.65
542.63	39768.04
542.80	40402.33
542.97	40935.97
543.14	40238.49
543.31	40449.14
543.48	40573.19
543.64	41160.66
543.81	41265.99
543.98	40289.98
544.15	41006.19
544.32	40783.83
544.48	41139.60
544.65	40622.34
544.82	40582.55
544.99	40521.69
545.16	40804.90
545.32	40753.41
545.49	41113.85
545.66	40952.35
545.83	41354.93
546.00	41504.72
546.16	41109.17
546.33	40935.97
546.50	40584.89
546.67	40935.97
546.83	40638.72
547.00	41298.75
547.17	40959.38
547.34	41064.70
547.50	40982.78
547.67	41471.95
547.84	41525.78
548.00	41596.00
548.17	41851.12
548.34	41649.83
548.51	41942.40
548.67	41865.16
548.84	41738.77
549.01	41507.06
549.18	41612.38
549.34	41689.62
549.51	41858.14
549.68	41813.67
549.84	41984.53
550.01	42309.86
550.18	41879.21
550.34	41785.58
550.51	42398.80
550.68	41801.97
550.84	41586.64
551.01	41916.65
551.18	42047.72
551.34	41982.19
551.51	41832.39
551.68	42181.13
551.84	42419.87
552.01	42047.72
552.18	42344.97
552.34	42136.66
552.51	42656.26
552.68	42314.55
552.84	42478.38
553.01	42618.81
553.18	42801.38
553.34	42593.07
553.51	42380.08
553.67	42738.18
553.84	42534.56
554.01	42810.74
554.17	42937.13
554.34	42799.04
554.51	42759.25
554.67	43136.07
554.84	42784.99
555.00	42927.77
555.17	42768.61
555.33	42777.97
555.50	42696.05
555.67	42976.92
555.83	42714.78
556.00	42712.44
556.16	43154.80
556.33	43089.26
556.50	43187.56
556.66	43030.75
556.83	42965.21
556.99	43440.34
557.16	43201.61
557.32	43217.99
557.49	43377.15
557.65	42653.92
557.82	43269.48
557.98	42939.47
558.15	42995.64
558.32	43276.51
558.48	43147.78
558.65	43138.41
558.81	42995.64
558.98	43227.35
559.14	43543.33
559.31	43299.91
559.47	43662.69
559.64	43887.39
559.80	43784.40
559.97	43665.03
560.13	43447.36
560.30	43494.18
560.46	43629.93
560.63	43349.06
560.79	43430.98
560.96	43629.93
561.12	43501.20
561.29	43732.91
561.45	43784.40
561.61	43725.89
561.78	43337.36
561.94	43604.18
562.11	43721.21
562.27	43529.28
562.44	43772.70
562.60	43962.28
562.77	43899.09
562.93	43409.92
563.10	43810.15
563.26	43648.65
563.42	43859.30
563.59	43636.95
563.75	43580.78
563.92	43999.73
564.08	44126.12
564.24	44098.03
564.41	43992.71
564.57	43962.28
564.74	43959.94
564.90	44081.65
565.07	43992.71
565.23	43793.76
565.39	44114.42
565.56	43859.30
565.72	43838.23
565.88	43934.20
566.05	43873.34
566.21	44191.65
566.38	43955.26
566.54	43955.26
566.70	44467.84
566.87	44783.81
567.03	44163.57
567.19	44645.72
567.36	44212.72
567.52	43973.98
567.68	44095.69
567.85	44538.05
568.01	44313.36
568.17	43838.23
568.34	44432.73
568.50	44304.00
568.66	44023.14
568.83	44346.13
568.99	44119.10
569.15	44086.33
569.32	44350.81
569.48	44102.71
569.64	44369.54
569.81	44493.58
569.97	44360.17
570.13	44395.28
570.30	44004.41
570.46	43959.94
570.62	44060.58
570.78	44341.45
570.95	44484.22
571.11	44091.01
571.27	44353.15
571.43	44133.14
571.60	44629.34
571.76	44048.88
571.92	44308.68
572.09	44198.68
572.25	44285.28
572.41	44023.14
572.57	44739.34
572.74	44788.49
572.90	44470.18
573.06	44140.16
573.22	44168.25
573.38	44638.70
573.55	44301.66
573.71	44634.02
573.87	44748.70
574.03	44034.84
574.20	44634.02
574.36	44561.46
574.52	44353.15
574.68	44369.54
574.84	44179.95
575.01	44694.87
575.17	44617.63
575.33	44376.56
575.49	44446.77
575.65	44521.67
575.82	44865.73
575.98	44584.86
576.14	45158.30
576.30	44760.40
576.46	44795.51
576.62	44245.49
576.79	44526.35
576.95	44259.53
577.11	44360.17
577.27	44580.18
577.43	44875.09
577.59	44383.58
577.75	44847.00
577.92	44306.34
578.08	44296.98
578.24	44163.57
578.40	44439.75
578.56	44610.61
578.72	44322.72
578.88	44615.29
579.04	44818.92
579.21	44479.54
579.37	44390.60
579.53	44715.93
579.69	44493.58
579.85	44226.76
580.01	44605.93
580.17	44498.26
580.33	44715.93
580.49	44935.95
580.65	44982.76
580.82	44598.91
580.98	44708.91
581.14	44189.31
581.30	44720.62
581.46	44849.35
581.62	44739.34
581.78	44683.17
581.94	44741.68
582.10	44650.40
582.26	45155.96
582.42	45118.51
582.58	44657.42
582.74	44839.98
582.90	44856.37
583.06	44641.04
583.22	44732.32
583.38	44505.29
583.54	44615.29
583.70	44715.93
583.86	44839.98
584.02	44774.45
584.18	44526.35
584.34	44732.32
584.50	44580.18
584.66	44933.60
584.82	44978.07
584.98	44261.87
585.14	45006.16
585.30	44444.43
585.46	44760.40
585.62	44584.86
585.78	44325.07
585.94	44399.96
586.10	44737.00
586.26	44772.11
586.42	45027.23
586.58	44713.59
586.74	44751.04
586.90	44502.95
587.06	44414.01
587.22	44516.99
587.38	44350.81
587.54	44921.90
587.70	44655.08
587.86	45158.30
588.02	45027.23
588.18	44821.26
588.34	45139.57
588.49	44570.82
588.65	44662.10
588.81	44528.69
588.97	44437.41
589.13	44306.34
589.29	44577.84
589.45	44741.68
589.61	44933.60
589.77	45308.09
589.93	44823.60
590.08	44964.03
590.24	45446.18
590.40	44664.44
590.56	45354.90
590.72	45013.18
590.88	44397.62
591.04	45361.92
591.20	45478.95
591.35	44931.26
591.51	45640.45
591.67	44980.42
591.83	45127.87
591.99	44938.29
592.15	44587.21
592.31	45034.25
592.46	44711.25
592.62	44741.68
592.78	44760.40
592.94	44978.07
593.10	44893.82
593.26	45366.60
593.41	44729.98
593.57	44753.38
593.73	44982.76
593.89	45579.59
594.05	45191.06
594.20	44884.45
594.36	45595.98
594.52	44903.18
594.68	45146.59
594.84	45230.85
594.99	45186.38
595.15	45193.40
595.31	45684.92
595.47	44744.02
595.62	45200.43
595.78	45258.94
595.94	45139.57
596.10	45471.93
596.25	45436.82
596.41	45759.81
596.57	45090.42
596.73	45284.68
596.88	45144.25
597.04	44704.23
597.20	45233.19
597.36	44776.79
597.51	45539.80
597.67	45177.02
597.83	45165.32
597.99	45195.74
598.14	45116.17
598.30	45120.85
598.46	44989.78
598.61	45134.89
598.77	44847.00
598.93	45450.86
599.09	44921.90
599.24	45439.16
599.40	45558.53
599.56	45167.66
599.71	44971.05
599.87	45509.38
600.03	45160.64
600.18	45127.87
600.34	44933.60
600.50	45085.74
600.65	45291.71
600.81	45392.35
600.97	45368.94
601.12	45324.47
601.28	45333.84
601.44	45237.87
601.59	45291.71
601.75	44617.63
601.91	45144.25
602.06	45078.72
602.22	45324.47
602.37	44942.97
602.53	45268.30
602.69	45408.73
602.84	45172.34
603.00	44966.37
603.16	45345.54
603.31	45008.50
603.47	45078.72
603.62	44603.59
603.78	45457.88
603.94	45244.90
604.09	45483.63
604.25	45614.70
604.40	45429.80
604.56	45069.36
604.71	44938.29
604.87	44971.05
605.03	44739.34
605.18	45064.67
605.34	45390.01
605.49	44781.47
605.65	44940.63
605.80	44683.17
605.96	44856.37
606.12	45186.38
606.27	45455.54
606.43	44699.55
606.58	44973.39
606.74	45001.48
606.89	44809.56
607.05	44926.58
607.20	45502.35
607.36	44580.18
607.51	45397.03
607.67	45237.87
607.82	45055.31
607.98	44793.17
608.13	44921.90
608.29	44832.96
608.44	44729.98
608.60	44315.70
608.75	44957.01
608.91	44577.84
609.06	44488.90
609.22	44910.20
609.37	44928.92
609.53	44650.40
609.68	44783.81
609.84	44914.88
609.99	45017.86
610.15	44931.26
610.30	44619.97
610.46	44201.02
610.61	44498.26
610.76	44690.19
610.92	44804.88
611.07	44502.95
611.23	44437.41
611.38	44470.18
611.54	44287.62
611.69	44446.77
611.84	44722.96
612.00	44474.86
612.15	44076.97
612.31	44612.95
612.46	44465.50
612.62	44526.35
612.77	44790.83
612.92	44549.76
613.08	44161.23
613.23	44392.94
613.39	44446.77
613.54	43988.03
613.69	44315.70
613.85	44215.06
614.00	44678.49
614.15	44619.97
614.31	44664.44
614.46	44378.90
614.62	44023.14
614.77	44184.63
614.92	44109.74
615.08	44364.85
615.23	43945.90
615.38	44268.89
615.54	43786.74
615.69	43882.70
615.84	43716.53
616.00	44212.72
616.15	43849.94
616.30	43620.56
616.46	43906.11
616.61	43690.78
616.76	44304.00
616.92	43658.01
617.07	43751.63
617.22	43466.09
617.37	43920.15
617.53	44165.91
617.68	44161.23
617.83	43695.46
617.99	44046.54
618.14	43789.08
618.29	43604.18
618.45	43367.79
618.60	43721.21
618.75	43625.25
618.90	43702.48
619.06	43798.44
619.21	43351.40
619.36	43908.45
619.51	43426.30
619.67	42960.53
619.82	43817.17
619.97	43590.14
620.12	43138.41
620.28	43161.82
620.43	43316.29
620.58	43398.21
620.73	43372.47
620.89	42700.73
621.04	43356.08
621.19	43133.73
621.34	43405.23
621.49	43213.31
621.65	43353.74
621.80	43463.75
621.95	42752.23
622.10	43026.07
622.25	42766.27
622.41	42951.17
622.56	42916.06
622.71	43002.66
622.86	43262.46
623.01	43225.01
623.16	42948.83
623.32	43480.13
623.47	42934.79
623.62	42895.00
623.77	42447.96
623.92	42958.19
624.07	42337.95
624.23	42534.56
624.38	42782.65
624.53	42230.29
624.68	42728.82
624.83	43138.41
624.98	42492.43
625.13	42351.99
625.29	42946.49
625.44	42752.23
625.59	42366.04
625.74	42553.28
625.89	42249.01
626.04	42277.10
626.19	42445.62
626.34	42405.83
626.49	42326.25
626.65	42227.95
626.80	42679.67
626.95	41689.62
627.10	42190.50
627.25	41926.02
627.40	42237.31
627.55	41844.10
627.70	41467.27
627.85	41954.10
628.00	42380.08
628.15	42424.55
628.30	41792.61
628.45	42206.88
628.60	41876.86
628.76	42106.24
628.91	42183.48
629.06	41825.37
629.21	41518.76
629.36	41844.10
629.51	41528.13
629.66	41837.08
629.81	41493.02
629.96	41710.69
630.11	41818.35
630.26	41619.41
630.41	42110.92
630.56	41223.86
630.71	41432.16
630.86	41572.60
631.01	41457.91
631.16	41165.34
631.31	41467.27
631.46	41179.39
631.61	41301.09
631.76	41249.60
631.91	41420.46
632.06	41364.29
632.21	41209.81
632.36	41581.96
632.51	41163.00
632.66	41312.80
632.81	41102.15
632.96	41464.93
633.10	41008.53
633.25	40554.46
633.40	41031.93
633.55	41368.97
633.70	41200.45
633.85	40893.84
634.00	41240.24
634.15	41113.85
634.30	40664.47
634.45	40666.81
634.60	41024.91
634.75	40914.90
634.90	41446.21
635.05	40783.83
635.19	41013.21
635.34	40975.76
635.49	40870.43
635.64	40629.36
635.79	40018.48
635.94	40444.46
636.09	40706.60
636.24	40924.27
636.39	40362.54
636.53	40275.94
636.68	40367.22
636.83	40212.74
636.98	40821.28
637.13	40428.07
637.28	40566.16
637.43	40559.14
637.57	40589.57
637.72	40648.08
637.87	40692.55
638.02	40449.14
638.17	40622.34
638.32	40107.42
638.46	39934.22
638.61	39985.71
638.76	40360.20
638.91	40126.14
639.06	39770.38
639.20	40233.81
639.35	40060.61
639.50	40030.18
639.65	40397.65
639.80	40116.78
639.94	40453.82
640.09	40119.12
640.24	40039.54
640.39	40009.12
640.54	39910.82
640.68	40060.61
640.83	39917.84
640.98	39768.04
641.13	39716.55
641.27	39824.22
641.42	39866.34
641.57	39660.38
641.72	39922.52
641.86	39580.80
642.01	39393.56
642.16	39800.81
642.31	39002.69
642.45	39491.86
642.60	39349.09
642.75	39033.11
642.90	39187.59
643.04	39243.76
643.19	38955.88
643.34	39756.34
643.48	39765.70
643.63	39407.60
643.78	39491.86
643.93	38803.74
644.07	39356.11
644.22	38880.98
644.37	38822.47
644.51	39187.59
644.66	38778.00
644.81	39475.48
644.95	38899.70
645.10	39269.51
645.25	39325.68
645.39	39386.54
645.54	39393.56
645.69	39068.22
645.83	39206.31
645.98	39159.50
646.13	39337.38
646.27	38759.27
646.42	38932.47
646.57	38995.67
646.71	38911.41
646.86	39119.71
647.00	39145.46
647.15	39210.99
647.30	39002.69
647.44	38405.85
647.59	38932.47
647.74	38595.43
647.88	38677.35
648.03	38742.89
648.17	38459.68
648.32	38375.42
648.47	38621.18
648.61	38249.03
648.76	38675.01
648.90	38761.61
649.05	38782.68
649.20	38501.81
649.34	38710.12
649.49	38637.56
649.63	38728.84
649.78	38431.60
649.92	38684.37
650.07	38724.16
650.21	38164.78
650.36	38520.54
650.51	38087.54
650.65	38859.91
650.80	38302.87
650.94	38445.64
651.09	38480.75
651.23	38307.55
651.38	37785.61
651.52	38281.80
651.67	37848.80
651.81	38019.66
651.96	37834.76
652.10	38040.73
652.25	37600.71
652.39	37949.45
652.54	38251.38
652.68	38022.00
652.83	38295.85
652.97	38309.89
653.12	38160.09
653.26	37502.40
653.41	38059.45
653.55	37486.02
653.70	37411.12
653.84	38117.96
653.99	37785.61
654.13	37537.51
654.27	37809.01
654.42	37553.90
654.56	37844.12
654.71	37855.82
654.85	37750.50
655.00	37366.65
655.14	37415.80
655.29	37303.46
655.43	37352.61
655.57	37322.18
655.72	37046.00
655.86	37317.50
656.01	37048.34
656.15	36868.12
656.30	37282.39
656.44	37083.45
656.58	36973.44
656.73	37104.51
656.87	36467.89
657.01	37151.32
657.16	37097.49
657.30	36699.60
657.45	36683.22
657.59	36994.51
657.73	36809.61
657.88	36877.48
658.02	36481.93
658.16	36884.50
658.31	36767.48
658.45	37071.75
658.60	36369.58
658.74	36577.89
658.88	36849.39
659.03	36737.05
659.17	36505.34
659.31	36486.61
659.46	36411.71
659.60	36367.24
659.74	36374.27
659.89	36446.82
660.03	35959.99
660.17	36460.87
660.32	35765.73
660.46	36280.64
660.60	36374.27
660.74	36643.43
660.89	36018.50
661.03	35765.73
661.17	35962.33
661.32	35143.14
661.46	36093.40
661.60	35644.02
661.74	35828.92
661.89	35597.21
662.03	35775.09
662.17	35590.19
662.31	35381.88
662.46	35889.77
662.60	35367.84
662.74	35529.33
662.88	35489.54
663.03	35379.54
663.17	35438.05
663.31	35620.61
663.45	35576.14
663.60	35606.57
663.74	35166.55
663.88	35157.19
664.02	34913.77
664.17	35480.18
664.31	34930.16
664.45	34611.84
664.59	34885.68
664.73	34993.35
664.88	34958.24
665.02	34384.81
665.16	35077.61
665.30	35131.44
665.44	34450.35
665.59	34202.25
665.73	33984.58
665.87	34258.42
666.01	34349.70
666.15	34005.64
666.29	34431.62
666.44	34632.91
666.58	34389.49
666.72	34410.56
666.86	34338.00
667.00	34235.02
667.14	33855.85
667.28	33656.90
667.43	33930.75
667.57	34368.43
667.71	33574.98
667.85	33446.26
667.99	33787.97
668.13	33415.83
668.27	33535.20
668.41	33411.15
668.56	33256.67
668.70	33296.46
668.84	32996.87
668.98	33010.92
669.12	33427.53
669.26	33670.95
669.40	33029.64
669.54	33015.60
669.68	33163.05
669.82	32823.67
669.96	32772.18
670.10	32854.10
670.25	32964.10
670.39	32947.72
670.53	32596.64
670.67	32678.56
670.81	33036.66
670.95	32638.77
671.09	32519.40
671.23	32540.47
671.37	32748.78
671.51	32510.04
671.65	32093.43
671.79	32046.62
671.93	32070.02
672.07	32437.48
672.21	31978.74
672.35	31878.10
672.49	31960.02
672.63	31772.77
672.77	31934.27
672.91	31882.78
673.05	31538.72
673.19	31515.31
673.33	31562.12
673.47	31414.67
673.61	31562.12
673.75	31033.16
673.89	30932.52
674.03	31211.04
674.17	31152.53
674.31	30766.34
674.45	30754.64
674.59	30864.64
674.73	30913.80
674.87	30742.94
675.01	31087.00
675.15	31166.57
675.29	30738.26
675.43	30670.38
675.56	30677.40
675.70	30644.63
675.84	30244.40
675.98	29450.96
676.12	30263.13
676.26	29759.91
676.40	29996.31
676.54	30118.01
676.68	29858.21
676.82	29507.13
676.96	29610.12
677.10	29266.06
677.23	29455.64
677.37	29692.04
677.51	29032.00
677.65	29043.71
677.79	28872.85
677.93	29067.11
678.07	28987.53
678.21	28589.64
678.34	28467.94
678.48	28601.35
678.62	28545.17
678.76	28369.63
678.90	28046.64
679.04	28411.76
679.18	28327.50
679.31	27887.48
679.45	28208.14
679.59	27545.76
679.73	27864.08
679.87	27784.50
680.00	27850.03
680.14	27955.36
680.28	27721.30
680.42	27513.00
680.56	27538.74
680.70	27236.81
680.83	27206.39
680.97	26916.16
681.11	27094.04
681.25	26888.07
681.39	26904.46
681.52	26600.19
681.66	27136.17
681.80	26864.67
681.94	26724.24
682.07	26548.70
682.21	26448.05
682.35	26321.66
682.49	26527.63
682.62	26499.55
682.76	26237.41
682.90	26085.27
683.04	25956.54
683.17	25937.82
683.31	25757.60
683.45	25743.55
683.59	25582.06
683.72	25333.96
683.86	25635.89
684.00	25200.55
684.13	25200.55
684.27	25357.36
684.41	25270.76
684.55	24540.52
684.68	24767.55
684.82	24676.27
684.96	24505.41
685.09	24732.44
685.23	24533.50
685.37	24606.05
685.50	24666.91
685.64	24364.98
685.78	24458.60
685.91	24100.50
686.05	24119.22
686.19	23709.63
686.32	24126.24
686.46	23779.84
686.60	23506.00
686.73	23793.89
686.87	23484.94
687.01	23323.44
687.14	23250.88
687.28	22881.08
687.42	23613.66
687.55	22738.30
687.69	23136.20
687.82	22815.54
687.96	23056.62
688.10	22588.51
688.23	22602.55
688.37	22211.68
688.50	22377.86
688.64	22162.53
688.78	22197.64
688.91	22459.78
689.05	22284.24
689.18	21853.58
689.32	21446.33
689.46	22218.71
689.59	22501.91
689.73	21961.25
689.86	21771.66
690.00	21958.91
690.13	21710.81
690.27	21811.45
690.41	21186.53
690.54	21156.10
690.68	21177.17
690.81	21174.83
690.95	21071.84
691.08	20835.45
691.22	20922.05
691.35	20868.22
691.49	21055.46
691.62	20943.11
691.76	20816.72
691.89	20889.28
692.03	20315.85
692.16	20184.78
692.30	20353.30
692.43	20226.91
692.57	20189.46
692.70	20163.72
692.84	20149.67
692.97	19646.46
693.11	19517.73
693.24	19742.42
693.38	19728.38
693.51	19499.00
693.65	19740.08
693.78	19786.89
693.92	19454.53
694.05	19309.42
694.19	19564.54
694.32	19218.14
694.45	19255.59
694.59	19300.06
694.72	18824.93
694.86	18878.76
694.99	18387.25
695.13	18476.19
695.26	18352.14
695.39	18511.30
695.53	18958.34
695.66	18602.58
695.80	18370.86
695.93	18298.31
696.07	18040.85
696.20	18043.19
696.33	18366.18
696.47	17855.95
696.60	17998.72
696.73	17853.61
696.87	17680.41
697.00	17635.94
697.14	17493.16
697.27	17303.58
697.40	17303.58
697.54	17685.09
697.67	17245.07
697.80	17371.46
697.94	17383.16
698.07	17142.08
698.21	17128.04
698.34	16964.20
698.47	16961.86
698.61	16395.45
698.74	16493.76
698.87	16606.10
699.01	16629.51
699.14	16526.52
699.27	16404.81
699.40	16332.26
699.54	16184.80
699.67	15946.07
699.80	16236.30
699.94	16126.29
700.07	15852.45
700.20	16107.57
700.34	15627.76
700.47	15819.68
700.60	15571.58
700.73	15817.34
700.87	15714.36
701.00	15445.20
701.13	15442.85
701.26	15454.56
701.40	15344.55
701.53	15330.51
701.66	15234.55
701.79	15136.24
701.93	14934.96
702.06	14944.32
702.19	14806.23
702.32	15166.67
702.46	14796.87
702.59	14616.65
702.72	14949.00
702.85	14691.54
702.99	14506.64
703.12	14736.01
703.25	14647.07
703.38	14513.66
703.51	14422.38
703.65	14363.87
703.78	14066.62
703.91	14195.35
704.04	14202.37
704.17	14431.74
704.31	13958.96
704.44	13451.06
704.57	13532.98
704.70	13657.03
704.83	13565.74
704.96	13781.07
705.10	13916.83
705.23	14022.15
>>>>>End Processed Spectral Data<<<<<
