SpectraSuite Data File
++++++++++++++++++++++++++++++++++++
Date: Fri Oct 25 10:43:48 EDT 2013
User: price-jones
Dark Spectrum Present: No
Reference Spectrum Present: No
Number of Sampled Component Spectra: 1
Spectrometers: USB2+H05261
Integration Time (usec): 100000 (USB2+H05261)
Spectra Averaged: 1 (USB2+H05261)
Boxcar Smoothing: 0 (USB2+H05261)
Correct for Electrical Dark: No (USB2+H05261)
Strobe/Lamp Enabled: No (USB2+H05261)
Correct for Detector Non-linearity: No (USB2+H05261)
Correct for Stray Light: No (USB2+H05261)
Number of Pixels in Processed Spectrum: 2048
>>>>>Begin Processed Spectral Data<<<<<
365.73	77.24
365.92	77.24
366.12	77.24
366.32	0.00
366.52	18.72
366.72	46.81
366.91	4.68
367.11	7.02
367.31	60.85
367.51	46.81
367.70	18.72
367.90	35.11
368.10	14.04
368.30	4.68
368.49	0.00
368.69	60.85
368.89	56.17
369.09	39.79
369.28	23.41
369.48	102.98
369.68	58.51
369.87	128.73
370.07	51.49
370.27	142.77
370.47	147.45
370.66	322.99
370.86	414.27
371.06	493.85
371.25	519.60
371.45	456.40
371.65	451.72
371.84	425.98
372.04	383.85
372.24	479.81
372.44	500.87
372.63	461.09
372.83	461.09
373.03	477.47
373.22	561.73
373.42	512.58
373.62	533.64
373.81	564.07
374.01	554.71
374.21	620.24
374.40	470.45
374.60	582.79
374.79	606.20
374.99	660.03
375.19	627.26
375.38	578.11
375.58	603.86
375.78	650.67
375.97	641.31
376.17	643.65
376.37	601.52
376.56	615.56
376.76	594.50
376.95	571.09
377.15	589.82
377.35	655.35
377.54	629.60
377.74	606.20
377.93	636.63
378.13	638.97
378.33	727.91
378.52	631.94
378.72	688.12
378.91	596.84
379.11	627.26
379.31	601.52
379.50	624.92
379.70	681.10
379.89	685.78
380.09	664.71
380.28	641.31
380.48	718.54
380.68	711.52
380.87	718.54
381.07	746.63
381.26	690.46
381.46	702.16
381.65	697.48
381.85	711.52
382.04	695.14
382.24	699.82
382.43	711.52
382.63	734.93
382.83	774.72
383.02	744.29
383.22	741.95
383.41	767.70
383.61	788.76
383.80	720.88
384.00	711.52
384.19	699.82
384.39	835.57
384.58	786.42
384.78	763.01
384.97	763.01
385.17	763.01
385.36	842.59
385.56	763.01
385.75	842.59
385.95	828.55
386.14	887.06
386.34	704.50
386.53	802.80
386.72	828.55
386.92	826.21
387.11	861.32
387.31	821.53
387.50	884.72
387.70	781.74
387.89	856.64
388.09	840.25
388.28	849.61
388.48	866.00
388.67	929.19
388.86	875.36
389.06	947.92
389.25	973.66
389.45	954.94
389.64	908.13
389.84	957.28
390.03	1011.11
390.22	1053.24
390.42	980.68
390.61	1057.92
390.81	1104.73
391.00	1083.67
391.19	1015.79
391.39	1057.92
391.58	1111.75
391.78	1036.86
391.97	1060.26
392.16	1006.43
392.36	1001.75
392.55	968.98
392.75	1015.79
392.94	1020.47
393.13	990.05
393.33	1001.75
393.52	1036.86
393.71	1139.84
393.91	1139.84
394.10	1135.16
394.29	1186.65
394.49	1174.95
394.68	1212.40
394.88	1200.69
395.07	1242.82
395.26	1163.25
395.46	1259.21
395.65	1245.16
395.84	1224.10
396.04	1210.06
396.23	1193.67
396.42	1184.31
396.62	1137.50
396.81	1203.04
397.00	1153.88
397.19	1198.35
397.39	1228.78
397.58	1282.61
397.77	1306.02
397.97	1338.79
398.16	1432.41
398.35	1437.09
398.55	1404.32
398.74	1467.52
398.93	1502.62
399.12	1483.90
399.32	1572.84
399.51	1455.81
399.70	1544.75
399.90	1586.88
400.09	1591.56
400.28	1582.20
400.47	1488.58
400.67	1610.29
400.86	1591.56
401.05	1540.07
401.24	1624.33
401.44	1689.87
401.63	1643.06
401.82	1713.27
402.01	1703.91
402.21	1682.85
402.40	1795.19
402.59	1701.57
402.78	1624.33
402.97	1778.81
403.17	1802.21
403.36	1846.68
403.55	1757.74
403.74	1923.92
403.93	1771.79
404.13	1947.33
404.32	1788.17
404.51	1905.20
404.70	1860.73
404.89	1928.60
405.09	1888.81
405.28	2003.50
405.47	1898.17
405.66	1895.83
405.85	2001.16
406.05	1926.26
406.24	1898.17
406.43	1956.69
406.62	2050.31
406.81	2169.68
407.00	2038.61
407.20	2113.50
407.39	2017.54
407.58	2172.02
407.77	2181.38
407.96	2155.63
408.15	2129.89
408.34	2258.62
408.54	2260.96
408.73	2216.49
408.92	2303.09
409.11	2385.01
409.30	2342.88
409.49	2279.68
409.68	2253.94
409.87	2193.08
410.07	2275.00
410.26	2361.60
410.45	2436.50
410.64	2436.50
410.83	2487.99
411.02	2380.32
411.21	2675.23
411.40	2708.00
411.59	2576.93
411.78	2654.17
411.98	2583.95
412.17	2640.12
412.36	2623.74
412.55	2630.76
412.74	2799.28
412.93	2583.95
413.12	2705.66
413.31	2881.20
413.50	2679.91
413.69	2860.13
413.88	2906.95
414.07	2923.33
414.26	2892.90
414.45	2942.05
414.64	2949.08
414.83	2963.12
415.02	3009.93
415.22	3075.46
415.41	2988.86
415.60	3033.33
415.79	3122.27
415.98	3166.74
416.17	3133.98
416.36	3316.54
416.55	3225.26
416.74	3304.84
416.93	3337.60
417.12	3265.05
417.31	3454.63
417.50	3449.95
417.69	3445.27
417.88	3407.82
418.07	3447.61
418.26	3391.44
418.45	3363.35
418.64	3492.08
418.83	3574.00
419.02	3590.38
419.21	3496.76
419.39	3609.11
419.58	3543.57
419.77	3550.59
419.96	3651.24
420.15	3763.58
420.34	3672.30
420.53	3676.98
420.72	3772.94
420.91	3906.35
421.10	3927.42
421.29	3749.54
421.48	3789.33
421.67	3850.18
421.86	3871.25
422.05	3735.50
422.24	3784.65
422.43	3843.16
422.61	3887.63
422.80	3763.58
422.99	3833.80
423.18	3925.08
423.37	3873.59
423.56	3857.20
423.75	3803.37
423.94	3712.09
424.13	3609.11
424.32	3798.69
424.50	3985.93
424.69	3960.19
424.88	4058.49
425.07	3932.10
425.26	3868.91
425.45	3946.14
425.64	3878.27
425.83	4018.70
426.01	4074.87
426.20	4025.72
426.39	3985.93
426.58	3796.35
426.77	3796.35
426.96	3875.93
427.15	4032.74
427.33	4018.70
427.52	3999.98
427.71	4180.20
427.90	4184.88
428.09	4121.68
428.28	4205.94
428.46	4173.18
428.65	4086.58
428.84	4219.99
429.03	4227.01
429.22	3913.38
429.40	4173.18
429.59	4032.74
429.78	3971.89
429.97	3751.88
430.16	3932.10
430.34	4124.02
430.53	3960.19
430.72	4025.72
430.91	4117.00
431.10	4299.56
431.28	4341.69
431.47	4720.86
431.66	4545.32
431.85	4552.34
432.03	4643.62
432.22	4627.24
432.41	4603.83
432.60	4550.00
432.79	4739.58
432.97	4732.56
433.16	4624.90
433.35	4601.49
433.54	4704.48
433.72	4798.10
433.91	4624.90
434.10	4828.53
434.28	4767.67
434.47	4784.06
434.66	4905.76
434.85	5025.13
435.03	4882.36
435.22	4868.31
435.41	4929.17
435.59	5036.83
435.78	4952.57
435.97	5100.03
436.16	5172.58
436.34	5069.60
436.53	5217.05
436.72	5235.78
436.90	4952.57
437.09	5111.73
437.28	5078.96
437.46	5238.12
437.65	5144.50
437.84	5114.07
438.02	5071.94
438.21	5247.48
438.40	5029.81
438.58	5322.38
438.77	5439.40
438.96	5427.70
439.14	5507.28
439.33	5591.54
439.52	5612.60
439.70	5661.76
439.89	5497.92
440.08	5540.05
440.26	5638.35
440.45	5605.58
440.63	5809.21
440.82	5987.09
441.01	5792.83
441.19	5935.60
441.38	6101.78
441.57	5998.79
441.75	6129.86
441.94	6101.78
442.12	6209.44
442.31	6303.06
442.50	6347.53
442.68	6293.70
442.87	6216.46
443.05	6342.85
443.24	6548.82
443.43	6387.32
443.61	6392.00
443.80	6471.58
443.98	6291.36
444.17	6174.33
444.35	6366.26
444.54	6810.96
444.73	6312.42
444.91	6686.91
445.10	6445.84
445.28	6434.13
445.47	6251.57
445.65	6258.59
445.84	6347.53
446.02	6642.44
446.21	6705.63
446.39	6450.52
446.58	6626.06
446.77	6633.08
446.95	6415.41
447.14	6668.19
447.32	6764.15
447.51	6633.08
447.69	6679.89
447.88	6712.66
448.06	6698.61
448.25	6544.14
448.43	6729.04
448.62	6509.03
448.80	6670.53
448.99	6857.77
449.17	6920.96
449.36	6890.54
449.54	7042.67
449.73	6832.02
449.91	7000.54
450.10	7148.00
450.28	7274.38
450.46	7084.80
450.65	7248.64
450.83	7232.26
451.02	7227.57
451.20	7358.64
451.39	7007.56
451.57	7061.40
451.76	7199.49
451.94	7096.50
452.13	7197.15
452.31	7250.98
452.49	6981.82
452.68	7070.76
452.86	7265.02
453.05	7185.44
453.23	7281.41
453.42	7269.70
453.60	7267.36
453.78	7417.16
453.97	7290.77
454.15	7358.64
454.34	7325.88
454.52	7485.03
454.70	7494.40
454.89	7302.47
455.07	7398.43
455.26	7571.63
455.44	7754.19
455.62	7595.04
455.81	7623.12
455.99	7756.54
456.17	7686.32
456.36	7597.38
456.54	7892.29
456.73	7922.71
456.91	8112.30
457.09	8058.46
457.28	8283.16
457.46	7854.84
457.64	8128.68
457.83	8147.40
458.01	8079.53
458.19	8109.96
458.38	8180.17
458.56	8271.45
458.74	8177.83
458.93	8142.72
459.11	8243.37
459.29	8175.49
459.48	8362.73
459.66	7990.59
459.84	8446.99
460.03	8582.74
460.21	8369.76
460.39	8491.46
460.57	8439.97
460.76	8542.96
460.94	8638.92
461.12	8578.06
461.31	8542.96
461.49	8430.61
461.67	8615.51
461.85	8762.97
462.04	8655.30
462.22	9025.11
462.40	9036.81
462.59	8879.99
462.77	8814.46
462.95	8819.14
463.13	8730.20
463.32	8952.55
463.50	8879.99
463.68	8938.51
463.86	8884.67
464.05	8856.59
464.23	9020.42
464.41	8947.87
464.59	8877.65
464.78	9104.68
464.96	9139.79
465.14	8922.12
465.32	9055.53
465.50	9214.69
465.69	9378.53
465.87	9268.52
466.05	9060.21
466.23	9027.45
466.41	9043.83
466.60	9458.10
466.78	9090.64
466.96	9303.63
467.14	9273.20
467.32	9263.84
467.51	9572.79
467.69	9046.17
467.87	9275.54
468.05	9406.61
468.23	9252.14
468.41	9259.16
468.60	9497.89
468.78	9448.74
468.96	9371.50
469.14	9694.50
469.32	9619.60
469.50	9420.66
469.69	9692.16
469.87	9776.42
470.05	9675.77
470.23	9804.50
470.41	9975.36
470.59	10050.26
470.77	9870.04
470.95	9886.42
471.14	10235.16
471.32	9762.37
471.50	9944.94
471.68	10314.74
471.86	10099.41
472.04	10361.55
472.22	10413.04
472.40	10277.29
472.58	10443.47
472.77	10347.51
472.95	10588.58
473.13	10710.29
473.31	10406.02
473.49	10338.15
473.67	10523.05
473.85	10623.69
474.03	10902.22
474.21	10965.41
474.39	11094.14
474.57	10757.10
474.75	11061.37
474.93	11239.25
475.12	10890.51
475.30	11241.59
475.48	11129.25
475.66	11307.13
475.84	11201.80
476.02	11236.91
476.20	11288.40
476.38	11843.11
476.56	11992.90
476.74	11651.19
476.92	11637.14
477.10	11737.79
477.28	12018.65
477.46	12013.97
477.64	12112.27
477.82	12116.95
478.00	12411.86
478.18	12147.38
478.36	12526.55
478.54	12608.47
478.72	12526.55
478.90	12884.65
479.08	12936.14
479.26	12980.61
479.44	13071.89
479.62	13032.10
479.80	13202.96
479.98	13242.75
480.16	13390.20
480.34	13535.32
480.52	13750.65
480.70	13469.78
480.88	13544.68
481.06	13582.13
481.24	13970.66
481.41	14171.94
481.59	14391.95
481.77	14501.96
481.95	14122.79
482.13	14640.05
482.31	14689.20
482.49	14836.66
482.67	15030.92
482.85	14939.64
483.03	15288.38
483.21	15201.78
483.39	15365.62
483.57	15108.16
483.74	15480.30
483.92	15634.78
484.10	15543.50
484.28	15662.86
484.46	16079.48
484.64	16240.98
484.82	15704.99
485.00	16067.78
485.18	16091.18
485.35	16311.19
485.53	16266.72
485.71	15950.75
485.89	16411.84
486.07	16435.24
486.25	16542.91
486.43	16631.85
486.61	16851.86
486.78	17179.53
486.96	17151.45
487.14	17561.04
487.32	17642.96
487.50	17874.67
487.68	18073.62
487.85	18113.41
488.03	18288.95
488.21	18328.74
488.39	18141.49
488.57	18600.24
488.75	18750.03
488.92	18974.72
489.10	19494.32
489.28	19218.14
489.46	19400.70
489.64	19517.73
489.81	20053.71
489.99	20049.03
490.17	20128.61
490.35	20072.43
490.53	20397.77
490.70	20472.67
490.88	20102.86
491.06	20685.65
491.24	20531.18
491.41	20725.44
491.59	20409.47
491.77	20659.91
491.95	21090.57
492.13	21376.11
492.30	21242.70
492.48	21656.98
492.66	21504.84
492.84	21797.41
493.01	22078.27
493.19	21659.32
493.37	22279.56
493.54	22146.15
493.72	22363.82
493.90	22412.97
494.08	22663.41
494.25	23033.21
494.43	23288.33
494.61	23536.43
494.79	23740.05
494.96	23225.14
495.14	23571.54
495.32	23793.89
495.49	23522.38
495.67	23702.61
495.85	23772.82
496.02	24032.62
496.20	24182.42
496.38	24320.51
496.55	24210.50
496.73	24957.13
496.91	24280.72
497.09	24849.47
497.26	25055.43
497.44	25202.89
497.62	25200.55
497.79	25263.74
497.97	25137.35
498.14	25191.19
498.32	25678.02
498.50	25776.32
498.67	25818.45
498.85	25621.84
499.03	25661.63
499.20	26300.60
499.38	26071.23
499.56	26059.52
499.73	26438.69
499.91	26277.19
500.08	26579.12
500.26	26429.33
500.44	26396.56
500.61	26515.93
500.79	26340.39
500.97	26883.39
501.14	27033.19
501.32	26789.77
501.49	27023.83
501.67	26972.33
501.84	27190.00
502.02	27314.05
502.20	27379.59
502.37	27344.48
502.55	27461.51
502.72	27934.29
502.90	27814.93
503.07	27798.54
503.25	27988.13
503.43	27798.54
503.60	27999.83
503.78	27672.15
503.95	27819.61
504.13	28629.43
504.30	28493.68
504.48	28168.35
504.65	28833.06
504.83	28933.70
505.01	29366.70
505.18	28835.40
505.36	29034.35
505.53	29188.82
505.71	29319.89
505.88	29380.74
506.06	29397.13
506.23	29663.95
506.41	29469.69
506.58	29689.70
506.76	29626.50
506.93	29883.96
507.11	29633.52
507.28	29998.65
507.46	29731.83
507.63	29855.87
507.81	29773.95
507.98	29923.75
508.16	30277.17
508.33	30295.89
508.50	30499.52
508.68	30436.33
508.85	30649.32
509.03	31035.50
509.20	30904.43
509.38	30796.77
509.55	30988.69
509.73	31323.39
509.90	31089.34
510.08	31112.74
510.25	31222.75
510.42	31033.16
510.60	31917.89
510.77	31367.86
510.95	31988.10
511.12	31775.11
511.30	31711.92
511.47	32184.71
511.64	32072.36
511.82	32404.72
511.99	32077.04
512.17	32070.02
512.34	31981.08
512.51	32486.64
512.69	32481.95
512.86	32870.48
513.04	32898.57
513.21	32678.56
513.38	32423.44
513.56	32264.28
513.73	32521.74
513.90	32926.66
514.08	32847.08
514.25	32821.33
514.43	32645.79
514.60	33186.46
514.77	33209.86
514.95	33942.45
515.12	33167.73
515.29	33303.48
515.47	33589.03
515.64	33738.82
515.81	33617.11
515.99	33961.17
516.16	33720.10
516.33	33151.35
516.51	33806.70
516.68	33064.75
516.85	32617.71
517.03	33493.07
517.20	33830.10
517.37	34052.45
517.54	34562.69
517.72	34160.12
517.89	33792.65
518.06	33663.93
518.24	33790.31
518.41	34185.86
518.58	34569.71
518.75	34270.12
518.93	34539.29
519.10	34684.40
519.27	34756.96
519.45	34759.30
519.62	34866.96
519.79	35065.91
519.96	35253.15
520.14	35306.98
520.31	34838.87
520.48	35360.81
520.65	35150.17
520.83	35772.75
521.00	35948.29
521.17	35449.75
521.34	35683.81
521.52	36374.27
521.69	35772.75
521.86	36032.55
522.03	35805.52
522.20	36065.31
522.38	35878.07
522.55	36730.03
522.72	35784.45
522.89	36222.13
523.07	36339.16
523.24	36327.45
523.41	36732.37
523.58	36933.65
523.75	36928.97
523.92	37038.98
524.10	37156.00
524.27	37235.58
524.44	37167.71
524.61	37464.96
524.78	37251.97
524.96	37148.98
525.13	37525.81
525.30	37659.22
525.47	37315.16
525.64	37666.24
525.81	37567.94
525.98	37507.08
526.16	37308.14
526.33	36835.35
526.50	37247.29
526.67	36830.67
526.84	36910.25
527.01	37474.32
527.18	37830.08
527.36	38174.14
527.53	38169.46
527.70	38333.29
527.87	37942.42
528.04	37979.87
528.21	38110.94
528.38	38036.05
528.55	38710.12
528.72	38665.65
528.89	38998.01
529.07	38375.42
529.24	38511.17
529.41	38597.77
529.58	38721.82
529.75	38352.02
529.92	38370.74
530.09	38829.49
530.26	38953.54
530.43	38920.77
530.60	38923.11
530.77	39325.68
530.94	39168.87
531.11	39475.48
531.28	39358.45
531.46	39421.64
531.63	39660.38
531.80	39393.56
531.97	39143.12
532.14	39084.61
532.31	38710.12
532.48	39353.77
532.65	39316.32
532.82	39421.64
532.99	39805.49
533.16	39351.43
533.33	39452.07
533.50	40013.80
533.67	39852.30
533.84	39786.77
534.01	39674.42
534.18	39611.23
534.35	40411.69
534.52	40112.10
534.69	40121.46
534.86	40411.69
535.03	40467.86
535.20	40992.14
535.37	40587.23
535.54	40542.76
535.71	40453.82
535.88	40275.94
536.05	40629.36
536.22	40645.74
536.38	40872.78
536.55	40634.04
536.72	40215.08
536.89	40126.14
537.06	40596.59
537.23	40814.26
537.40	40458.50
537.57	40692.55
537.74	41003.85
537.91	41109.17
538.08	41277.69
538.25	40488.93
538.42	41312.80
538.59	41053.00
538.75	40978.10
538.92	40856.39
539.09	41432.16
539.26	41347.90
539.43	41184.07
539.60	41155.98
539.77	40987.46
539.94	41221.52
540.11	41256.62
540.28	41368.97
540.44	41298.75
540.61	41469.61
540.78	40650.42
540.95	41275.35
541.12	40940.65
541.29	41689.62
541.46	41476.63
541.62	41528.13
541.79	41755.16
541.96	41507.06
542.13	41694.30
542.30	41649.83
542.47	41645.15
542.63	41736.43
542.80	41752.82
542.97	42080.49
543.14	42398.80
543.31	42323.91
543.48	42567.32
543.64	42562.64
543.81	42862.23
543.98	42796.70
544.15	42417.53
544.32	42225.60
544.48	43423.96
544.65	42684.35
544.82	42866.91
544.99	42988.62
545.16	42724.14
545.32	42719.46
545.49	43093.94
545.66	42995.64
545.83	42960.53
546.00	43304.59
546.16	42878.61
546.33	42705.41
546.50	42501.79
546.67	43180.54
546.83	43021.39
547.00	43318.64
547.17	43255.44
547.34	42822.44
547.50	43292.89
547.67	43398.21
547.84	43098.62
548.00	43470.77
548.17	43550.35
548.34	43494.18
548.51	43800.79
548.67	43449.70
548.84	43648.65
549.01	43459.07
549.18	43407.58
549.34	43519.92
549.51	43702.48
549.68	43482.47
549.84	44163.57
550.01	43683.76
550.18	43910.79
550.34	43831.21
550.51	43669.72
550.68	43421.62
550.84	43381.83
551.01	43756.32
551.18	44027.82
551.34	43847.60
551.51	44137.82
551.68	43938.88
551.84	44062.93
552.01	44140.16
552.18	44231.44
552.34	44121.44
552.51	44299.32
552.68	44128.46
552.84	44149.53
553.01	44105.06
553.18	44231.44
553.34	44065.27
553.51	43999.73
553.67	44535.71
553.84	44914.88
554.01	44619.97
554.17	44596.57
554.34	44732.32
554.51	44505.29
554.67	44442.09
554.84	44626.99
555.00	44306.34
555.17	44170.59
555.33	44102.71
555.50	44830.62
555.67	44570.82
555.83	44896.16
556.00	44610.61
556.16	44938.29
556.33	44435.07
556.50	44486.56
556.66	44566.14
556.83	44385.92
556.99	44928.92
557.16	45097.44
557.32	44982.76
557.49	45233.19
557.65	44456.14
557.82	44830.62
557.98	44837.64
558.15	44715.93
558.32	45027.23
558.48	44863.39
558.65	44652.74
558.81	44729.98
558.98	44832.96
559.14	45078.72
559.31	44645.72
559.47	44495.92
559.64	45289.37
559.80	45010.84
559.97	45226.17
560.13	44898.50
560.30	44624.65
560.46	44823.60
560.63	45397.03
560.79	45179.36
560.96	45270.64
561.12	45427.46
561.29	44629.34
561.45	44889.13
561.61	45450.86
561.78	45371.28
561.94	45137.23
562.11	44917.22
562.27	45109.14
562.44	45205.11
562.60	45329.16
562.77	45675.55
562.93	45319.79
563.10	45825.35
563.26	45031.91
563.42	45748.11
563.59	45186.38
563.75	44975.73
563.92	45663.85
564.08	45207.45
564.24	45378.31
564.41	45347.88
564.57	45193.40
564.74	45392.35
564.90	45265.96
565.07	45542.14
565.23	45291.71
565.39	45275.32
565.56	45677.90
565.72	45432.14
565.88	45392.35
566.05	45177.02
566.21	45380.65
566.38	45357.24
566.54	45352.56
566.70	45633.42
566.87	45294.05
567.03	45586.61
567.19	46398.78
567.36	45804.28
567.52	45471.93
567.68	45839.39
567.85	45586.61
568.01	45748.11
568.17	45432.14
568.34	45902.59
568.50	45659.17
568.66	45631.08
568.83	45921.31
568.99	45141.91
569.15	45146.59
569.32	45694.28
569.48	45764.49
569.64	46054.72
569.81	45647.47
569.97	45565.55
570.13	45698.96
570.30	45212.13
570.46	45336.18
570.62	45200.43
570.78	45610.02
570.95	45392.35
571.11	45696.62
571.27	45975.14
571.43	45738.75
571.60	45972.80
571.76	45766.84
571.92	45872.16
572.09	45860.46
572.25	45595.98
572.41	45713.00
572.57	46050.04
572.74	45965.78
572.90	45869.82
573.06	45897.91
573.22	46295.80
573.38	45741.09
573.55	45715.34
573.71	46138.98
573.87	45916.63
574.03	45855.78
574.20	45387.67
574.36	45563.21
574.52	45869.82
574.68	45769.18
574.84	45633.42
575.01	45612.36
575.17	46178.77
575.33	46071.10
575.49	45661.51
575.65	46066.42
575.82	46190.47
575.98	45411.07
576.14	45923.65
576.30	45921.31
576.46	45790.24
576.62	45792.58
576.79	45715.34
576.95	45617.04
577.11	45928.33
577.27	45743.43
577.43	45811.31
577.59	45460.23
577.75	45504.70
577.92	45607.68
578.08	45427.46
578.24	45392.35
578.40	46101.53
578.56	46239.62
578.72	45518.74
578.88	46106.21
579.04	45851.09
579.21	45603.00
579.37	45841.73
579.53	45933.01
579.69	45771.52
579.85	45579.59
580.01	46099.19
580.17	45684.92
580.33	45914.29
580.49	46054.72
580.65	45666.19
580.82	45724.71
580.98	45918.97
581.14	45858.12
581.30	45834.71
581.46	45890.88
581.62	46302.82
581.78	45708.32
581.94	46405.80
582.10	45979.82
582.26	46045.36
582.42	46038.34
582.58	46047.70
582.74	46087.49
582.90	46024.29
583.06	46295.80
583.22	45963.44
583.38	46251.33
583.54	46024.29
583.70	46263.03
583.86	46124.94
584.02	46024.29
584.18	45755.13
584.34	45860.46
584.50	45855.78
584.66	46241.96
584.82	46017.27
584.98	46110.89
585.14	46127.28
585.30	45783.22
585.46	45867.48
585.62	45940.04
585.78	45823.01
585.94	45659.17
586.10	45715.34
586.26	46007.91
586.42	45979.82
586.58	46136.64
586.74	45846.41
586.90	45954.08
587.06	46614.11
587.22	46082.81
587.38	46211.54
587.54	46410.48
587.70	46429.21
587.86	46211.54
588.02	45815.99
588.18	46571.98
588.34	45745.77
588.49	45294.05
588.65	45338.52
588.81	45460.23
588.97	45467.25
589.13	45652.15
589.29	45776.20
589.45	46218.56
589.61	45734.07
589.77	45940.04
589.93	46089.83
590.08	46344.95
590.24	46461.97
590.40	46148.34
590.56	46272.39
590.72	46356.65
590.88	46099.19
591.04	46036.00
591.20	46342.61
591.35	46665.60
591.51	46469.00
591.67	46143.66
591.83	46014.93
591.99	45811.31
592.15	46237.28
592.31	46314.52
592.46	46265.37
592.62	46092.17
592.78	46052.38
592.94	46024.29
593.10	45970.46
593.26	46185.79
593.41	46209.20
593.57	46054.72
593.73	45748.11
593.89	46305.16
594.05	46213.88
594.20	46237.28
594.36	45839.39
594.52	46036.00
594.68	46043.02
594.84	45853.44
594.99	46295.80
595.15	45827.69
595.31	46162.39
595.47	46138.98
595.62	46000.89
595.78	46349.63
595.94	46291.12
596.10	46576.66
596.25	46681.98
596.41	46167.07
596.57	46211.54
596.73	46394.10
596.88	45750.45
597.04	45970.46
597.20	46293.46
597.36	45862.80
597.51	45923.65
597.67	46410.48
597.83	46454.95
597.99	46651.56
598.14	46398.78
598.30	46136.64
598.46	45832.37
598.61	46478.36
598.77	46099.19
598.93	46319.20
599.09	46167.07
599.24	46829.44
599.40	46162.39
599.56	46651.56
599.71	46272.39
599.87	46354.31
600.03	45914.29
600.18	46000.89
600.34	45759.81
600.50	45949.40
600.65	45743.43
600.81	46363.67
600.97	46447.93
601.12	46190.47
601.28	46305.16
601.44	46024.29
601.59	46089.83
601.75	45979.82
601.91	46171.75
602.06	45940.04
602.22	46073.45
602.37	46396.44
602.53	46162.39
602.69	46639.86
602.84	46323.88
603.00	45993.87
603.16	46272.39
603.31	46014.93
603.47	45897.91
603.62	46075.79
603.78	46288.77
603.94	46169.41
604.09	46267.71
604.25	46019.61
604.40	46440.91
604.56	46148.34
604.71	46539.21
604.87	46293.46
605.03	46415.16
605.18	46028.98
605.34	46031.32
605.49	45727.05
605.65	45839.39
605.80	46199.83
605.96	46295.80
606.12	46403.46
606.27	46256.01
606.43	46007.91
606.58	46068.76
606.74	46045.36
606.89	45893.22
607.05	45942.38
607.20	45909.61
607.36	45982.16
607.51	46129.62
607.67	45853.44
607.82	45965.78
607.98	45729.39
608.13	45752.79
608.29	45841.73
608.44	45521.08
608.60	45500.01
608.75	45684.92
608.91	46223.24
609.06	45855.78
609.22	45439.16
609.37	45291.71
609.53	45481.29
609.68	45689.60
609.84	45680.24
609.99	45439.16
610.15	45476.61
610.30	45209.79
610.46	45212.13
610.61	45315.11
610.76	45741.09
610.92	45942.38
611.07	46143.66
611.23	45464.91
611.38	45392.35
611.54	45429.80
611.69	45415.76
611.84	45392.35
612.00	44795.51
612.15	44959.35
612.31	45235.53
612.46	45235.53
612.62	45415.76
612.77	45312.77
612.92	45624.06
613.08	45148.93
613.23	45394.69
613.39	45083.40
613.54	44847.00
613.69	45069.36
613.85	44872.75
614.00	44931.26
614.15	45738.75
614.31	45090.42
614.46	45090.42
614.62	45392.35
614.77	45364.26
614.92	44933.60
615.08	44949.99
615.23	44516.99
615.38	44727.64
615.54	44889.13
615.69	44882.11
615.84	44933.60
616.00	45020.20
616.15	45151.27
616.30	44650.40
616.46	44477.20
616.61	44697.21
616.76	44643.38
616.92	44683.17
617.07	44282.94
617.22	44353.15
617.37	44416.35
617.53	44886.79
617.68	44774.45
617.83	44900.84
617.99	44364.85
618.14	44140.16
618.29	44177.61
618.45	44107.40
618.60	44392.94
618.75	44280.60
618.90	44224.42
619.06	44332.09
619.21	44315.70
619.36	44435.07
619.51	44573.16
619.67	43988.03
619.82	44364.85
619.97	44289.96
620.12	44112.08
620.28	43566.73
620.43	43990.37
620.58	43845.26
620.73	43920.15
620.89	44299.32
621.04	44037.18
621.19	43887.39
621.34	43749.29
621.49	44158.89
621.65	44236.12
621.80	44123.78
621.95	43599.50
622.10	43798.44
622.25	43931.86
622.41	43721.21
622.56	43789.08
622.71	44355.49
622.86	43559.71
623.01	44055.90
623.16	43580.78
623.32	43337.36
623.47	43578.43
623.62	43924.83
623.77	43515.24
623.92	43931.86
624.07	43438.00
624.23	43388.85
624.38	43522.26
624.53	43545.67
624.68	43452.05
624.83	43302.25
624.98	43021.39
625.13	42976.92
625.29	43264.80
625.44	43026.07
625.59	43030.75
625.74	43037.77
625.89	42974.58
626.04	42876.27
626.19	43428.64
626.34	42841.17
626.49	42799.04
626.65	42686.69
626.80	43662.69
626.95	43058.84
627.10	42707.76
627.25	42707.76
627.40	42890.32
627.55	42557.96
627.70	42469.02
627.85	42728.82
628.00	42724.14
628.15	42712.44
628.30	42911.38
628.45	42827.12
628.60	42527.53
628.76	42759.25
628.91	42387.10
629.06	42356.67
629.21	42518.17
629.36	42122.62
629.51	42476.04
629.66	42239.65
629.81	42401.14
629.96	42270.08
630.11	42157.73
630.26	42677.33
630.41	42429.23
630.56	42136.66
630.71	41656.85
630.86	42007.94
631.01	42036.02
631.16	42209.22
631.31	41549.19
631.46	41607.70
631.61	41883.89
631.76	42131.98
631.91	42108.58
632.06	42169.43
632.21	41958.78
632.36	42160.07
632.51	41443.87
632.66	41937.72
632.81	41713.03
632.96	41565.57
633.10	41481.31
633.25	41984.53
633.40	41710.69
633.55	42050.06
633.70	41446.21
633.85	41984.53
634.00	41638.13
634.15	41645.15
634.30	41298.75
634.45	41537.49
634.60	41766.86
634.75	41207.47
634.90	41371.31
635.05	41507.06
635.19	41888.57
635.34	41404.08
635.49	41448.55
635.64	41277.69
635.79	41202.79
635.94	41404.08
636.09	41324.50
636.24	41179.39
636.39	40924.27
636.53	41209.81
636.68	41111.51
636.83	41078.74
636.98	41469.61
637.13	40982.78
637.28	41322.16
637.43	41378.33
637.57	41001.50
637.72	40856.39
637.87	41394.71
638.02	41090.44
638.17	40938.31
638.32	40816.60
638.46	40959.38
638.61	40746.39
638.76	40854.05
638.91	40921.93
639.06	40823.62
639.20	40615.32
639.35	41228.54
639.50	40708.94
639.65	40404.67
639.80	41027.25
639.94	40835.33
640.09	40643.40
640.24	41057.68
640.39	40130.83
640.54	39913.16
640.68	40591.91
640.83	40236.15
640.98	40582.55
641.13	40615.32
641.27	40369.56
641.42	40154.23
641.57	40093.38
641.72	40470.20
641.86	40432.75
642.01	39566.76
642.16	39817.19
642.31	40018.48
642.45	40292.32
642.60	40205.72
642.75	39868.69
642.90	40149.55
643.04	39936.56
643.19	39849.96
643.34	40179.98
643.48	39674.42
643.63	39597.18
643.78	39597.18
643.93	40315.73
644.07	39725.91
644.22	39665.06
644.37	39817.19
644.51	39590.16
644.66	39803.15
644.81	40016.14
644.95	39728.25
645.10	39842.94
645.25	39730.59
645.39	39686.12
645.54	39313.98
645.69	39494.20
645.83	39810.17
645.98	39440.37
646.13	39510.58
646.27	39182.91
646.42	39351.43
646.57	39199.29
646.71	38710.12
646.86	39117.37
647.00	39388.88
647.15	39505.90
647.30	39143.12
647.44	38799.06
647.59	39470.79
647.74	39002.69
647.88	38988.64
648.03	39093.97
648.17	38993.32
648.32	39182.91
648.47	39522.29
648.61	38876.30
648.76	39154.82
648.90	38948.85
649.05	38937.15
649.20	38906.73
649.34	39129.08
649.49	38335.63
649.63	38345.00
649.78	38969.92
649.92	38981.62
650.07	38864.60
650.21	38499.47
650.36	38637.56
650.51	39115.03
650.65	39229.72
650.80	39339.72
650.94	39210.99
651.09	38698.42
651.23	38546.28
651.38	38293.50
651.52	38581.39
651.67	38246.69
651.81	38464.36
651.96	38424.57
652.10	38370.74
652.25	38756.93
652.39	38742.89
652.54	38295.85
652.68	38185.84
652.83	38930.13
652.97	38712.46
653.12	38347.34
653.26	38120.31
653.41	37947.11
653.55	37930.72
653.70	38230.31
653.84	38185.84
653.99	38288.82
654.13	38036.05
654.27	37839.44
654.42	37876.89
654.56	37839.44
654.71	38122.65
654.85	37963.49
655.00	37912.00
655.14	38103.92
655.29	37415.80
655.43	37420.48
655.57	37474.32
655.72	36973.44
655.86	37172.39
656.01	37333.89
656.15	37153.66
656.30	37291.76
656.44	37420.48
656.58	37067.06
656.73	37322.18
656.87	37563.26
657.01	37060.04
657.16	37254.31
657.30	36807.26
657.45	37113.87
657.59	37216.86
657.73	37060.04
657.88	37670.92
658.02	37422.83
658.16	36994.51
658.31	37350.27
658.45	37352.61
658.60	37191.11
658.74	37156.00
658.88	37048.34
659.03	37095.15
659.17	36849.39
659.31	36865.78
659.46	36662.15
659.60	36144.89
659.74	36992.17
659.89	36591.94
660.03	36336.82
660.17	36811.95
660.32	36477.25
660.46	36907.91
660.60	36517.04
660.74	36486.61
660.89	36620.02
661.03	36158.94
661.17	36264.26
661.32	36320.43
661.46	36329.80
661.60	36030.21
661.74	36175.32
661.89	36362.56
662.03	35941.27
662.17	36088.72
662.31	35793.81
662.46	36517.04
662.60	36439.80
662.74	35910.84
662.88	35913.18
663.03	35732.96
663.17	36093.40
663.31	35424.01
663.45	35864.03
663.60	35906.16
663.74	35489.54
663.88	35283.58
664.02	35356.13
664.17	35227.40
664.31	35372.52
664.45	35171.23
664.59	35150.17
664.73	35042.50
664.88	35117.40
665.02	34857.60
665.16	35124.42
665.30	34164.80
665.44	34782.70
665.59	34354.38
665.73	35075.27
665.87	34412.90
666.01	34972.28
666.15	34817.81
666.29	34529.92
666.44	34841.21
666.58	34801.43
666.72	34492.47
666.86	34342.68
667.00	34359.06
667.14	34199.91
667.28	34302.89
667.43	34136.71
667.57	34120.33
667.71	34150.76
667.85	33708.40
667.99	34026.71
668.13	34352.04
668.27	34321.62
668.41	34089.90
668.56	33591.37
668.70	33942.45
668.84	33254.33
668.98	33046.02
669.12	33291.78
669.26	33673.29
669.40	33483.70
669.54	33380.72
669.68	33448.60
669.82	33270.72
669.96	32641.11
670.10	33081.13
670.25	33022.62
670.39	32807.29
670.53	32526.42
670.67	32879.85
670.81	33109.22
670.95	33034.32
671.09	32912.61
671.23	32484.30
671.37	32641.11
671.51	32561.53
671.65	32002.14
671.79	32673.88
671.93	32252.58
672.07	32210.45
672.21	31868.73
672.35	31887.46
672.49	32320.46
672.63	31988.10
672.77	31779.79
672.91	32079.38
673.05	31985.76
673.19	31660.43
673.33	31969.38
673.47	31580.85
673.61	31037.84
673.75	31281.26
673.89	31105.72
674.03	31651.06
674.17	31187.64
674.31	31314.03
674.45	31222.75
674.59	31173.60
674.73	31269.56
674.87	31314.03
675.01	30946.56
675.15	30789.75
675.29	30721.87
675.43	31119.76
675.56	30782.73
675.70	30923.16
675.84	30560.37
675.98	29462.66
676.12	30103.97
676.26	30178.87
676.40	30600.16
676.54	30277.17
676.68	30600.16
676.82	29652.25
676.96	29736.51
677.10	29979.92
677.23	29518.84
677.37	29895.66
677.51	29565.65
677.65	29390.11
677.79	28854.12
677.93	29242.65
678.07	29200.52
678.21	28833.06
678.34	28505.38
678.48	28493.68
678.62	28608.37
678.76	28397.72
678.90	28252.61
679.04	28273.67
679.18	28517.09
679.31	27913.23
679.45	28320.48
679.59	27896.85
679.73	28276.01
679.87	27852.38
680.00	27873.44
680.14	27725.99
680.28	28002.17
680.42	27536.40
680.56	27536.40
680.70	27187.66
680.83	27489.59
680.97	27136.17
681.11	27386.61
681.25	27234.47
681.39	27353.84
681.52	26878.71
681.66	27056.59
681.80	26668.06
681.94	26710.19
682.07	26686.79
682.21	26429.33
682.35	26459.76
682.49	26733.60
682.62	26089.95
682.76	26050.16
682.90	26066.55
683.04	25958.88
683.17	25610.14
683.31	26267.83
683.45	25895.69
683.59	25661.63
683.72	25692.06
683.86	25443.96
684.00	25539.93
684.13	25235.66
684.27	25539.93
684.41	25041.39
684.55	25057.78
684.68	24826.06
684.82	25326.94
684.96	25032.03
685.09	24940.75
685.23	24744.14
685.37	24720.74
685.50	24526.47
685.64	24503.07
685.78	24318.17
685.91	24346.25
686.05	24245.61
686.19	23875.80
686.32	23552.81
686.46	23337.48
686.60	23421.74
686.73	23098.75
686.87	22998.10
687.01	23185.35
687.14	23190.03
687.28	22801.50
687.42	23260.24
687.55	22855.33
687.69	23058.96
687.82	22780.43
687.96	22948.95
688.10	22558.08
688.23	22434.03
688.37	22857.67
688.50	22658.73
688.64	22518.29
688.78	22452.76
688.91	22302.96
689.05	22038.48
689.18	21951.88
689.32	21752.94
689.46	22092.32
689.59	22190.62
689.73	22223.39
689.86	21879.33
690.00	21755.28
690.13	21678.04
690.27	21404.20
690.41	21404.20
690.54	21123.33
690.68	21305.90
690.81	21202.91
690.95	21231.00
691.08	21158.44
691.22	21144.40
691.35	20891.62
691.49	20858.85
691.62	20622.46
691.76	20849.49
691.89	20872.90
692.03	20603.74
692.16	20325.21
692.30	20360.32
692.43	20339.26
692.57	19740.08
692.70	19824.34
692.84	19971.79
692.97	19880.51
693.11	19847.74
693.24	19599.65
693.38	19391.34
693.51	19403.04
693.65	19763.48
693.78	19943.70
693.92	19241.54
694.05	19274.31
694.19	19365.59
694.32	19325.80
694.45	19101.11
694.59	19461.55
694.72	18923.23
694.86	18656.41
694.99	18803.86
695.13	18871.74
695.26	18633.00
695.39	18347.46
695.53	18724.29
695.66	18513.64
695.80	18485.55
695.93	18012.76
696.07	18148.51
696.20	18178.94
696.33	18230.43
696.47	18061.91
696.60	18001.06
696.73	17734.24
696.87	17467.42
697.00	17823.18
697.14	17596.15
697.27	17219.32
697.40	17296.56
697.54	17633.60
697.67	17172.51
697.80	17345.71
697.94	16994.63
698.07	16933.78
698.21	16999.31
698.34	17214.64
698.47	17193.58
698.61	16769.94
698.74	16851.86
698.87	16837.81
699.01	16727.81
699.14	16423.54
699.27	16095.86
699.40	16208.21
699.54	16130.97
699.67	16067.78
699.80	16315.87
699.94	15864.15
700.07	15859.47
700.20	16049.05
700.34	15768.19
700.47	15913.30
700.60	15852.45
700.73	15901.60
700.87	15686.27
701.00	15559.88
701.13	15201.78
701.26	15644.14
701.40	15557.54
701.53	15288.38
701.66	15403.07
701.79	15030.92
701.93	14881.13
702.06	14953.68
702.19	14506.64
702.32	14963.04
702.46	14803.89
702.59	14839.00
702.72	14843.68
702.85	14700.90
702.99	14724.31
703.12	14478.55
703.25	14450.47
703.38	14347.48
703.51	14174.28
703.65	14317.06
703.78	14080.66
703.91	14038.53
704.04	14150.88
704.17	13965.98
704.31	14071.30
704.44	13645.32
704.57	13930.87
704.70	13572.77
704.83	13600.85
704.96	13724.90
705.10	13717.88
705.23	13535.32
>>>>>End Processed Spectral Data<<<<<
