SpectraSuite Data File
++++++++++++++++++++++++++++++++++++
Date: Fri Oct 25 10:44:10 EDT 2013
User: price-jones
Dark Spectrum Present: No
Reference Spectrum Present: No
Number of Sampled Component Spectra: 1
Spectrometers: USB2+H05261
Integration Time (usec): 100000 (USB2+H05261)
Spectra Averaged: 1 (USB2+H05261)
Boxcar Smoothing: 0 (USB2+H05261)
Correct for Electrical Dark: No (USB2+H05261)
Strobe/Lamp Enabled: No (USB2+H05261)
Correct for Detector Non-linearity: No (USB2+H05261)
Correct for Stray Light: No (USB2+H05261)
Number of Pixels in Processed Spectrum: 2048
>>>>>Begin Processed Spectral Data<<<<<
365.73	86.60
365.92	86.60
366.12	86.60
366.32	42.13
366.52	0.00
366.72	39.79
366.91	16.38
367.11	79.58
367.31	32.77
367.51	121.71
367.70	93.62
367.90	93.62
368.10	35.11
368.30	100.64
368.49	9.36
368.69	35.11
368.89	0.00
369.09	0.00
369.28	72.56
369.48	98.30
369.68	95.96
369.87	79.58
370.07	65.54
370.27	140.43
370.47	170.86
370.66	374.49
370.86	395.55
371.06	451.72
371.25	449.38
371.45	482.15
371.65	519.60
371.84	449.38
372.04	451.72
372.24	578.11
372.44	547.69
372.63	503.22
372.83	608.54
373.03	451.72
373.22	451.72
373.42	423.64
373.62	477.47
373.81	533.64
374.01	510.24
374.21	578.11
374.40	594.50
374.60	648.33
374.79	557.05
374.99	547.69
375.19	559.39
375.38	528.96
375.58	554.71
375.78	571.09
375.97	622.58
376.17	622.58
376.37	603.86
376.56	585.13
376.76	575.77
376.95	578.11
377.15	629.60
377.35	620.24
377.54	692.80
377.74	613.22
377.93	695.14
378.13	706.84
378.33	662.37
378.52	622.58
378.72	730.25
378.91	734.93
379.11	723.23
379.31	674.07
379.50	620.24
379.70	681.10
379.89	716.20
380.09	660.03
380.28	594.50
380.48	704.50
380.68	727.91
380.87	657.69
381.07	709.18
381.26	727.91
381.46	608.54
381.65	690.46
381.85	746.63
382.04	706.84
382.24	669.39
382.43	716.20
382.63	671.73
382.83	737.27
383.02	737.27
383.22	847.27
383.41	725.57
383.61	664.71
383.80	699.82
384.00	720.88
384.19	713.86
384.39	760.67
384.58	812.17
384.78	793.44
384.97	844.93
385.17	730.25
385.36	763.01
385.56	891.74
385.75	784.08
385.95	835.57
386.14	819.19
386.34	847.27
386.53	861.32
386.72	851.96
386.92	805.14
387.11	816.85
387.31	950.26
387.50	866.00
387.70	896.43
387.89	861.32
388.09	903.45
388.28	938.55
388.48	856.64
388.67	1015.79
388.86	997.07
389.06	987.71
389.25	966.64
389.45	922.17
389.64	973.66
389.84	1050.90
390.03	959.62
390.22	1001.75
390.42	1025.15
390.61	973.66
390.81	1015.79
391.00	1064.94
391.19	1071.97
391.39	1027.50
391.58	1043.88
391.78	1118.78
391.97	966.64
392.16	1050.90
392.36	1064.94
392.55	1050.90
392.75	978.34
392.94	987.71
393.13	1011.11
393.33	992.39
393.52	1081.33
393.71	1043.88
393.91	1050.90
394.10	1034.52
394.29	1104.73
394.49	1123.46
394.68	1174.95
394.88	1259.21
395.07	1282.61
395.26	1196.01
395.46	1261.55
395.65	1139.84
395.84	1226.44
396.04	1259.21
396.23	1142.18
396.42	1163.25
396.62	1231.12
396.81	1137.50
397.00	1198.35
397.19	1359.85
397.39	1266.23
397.58	1359.85
397.77	1383.26
397.97	1462.83
398.16	1322.40
398.35	1446.45
398.55	1334.11
398.74	1462.83
398.93	1530.71
399.12	1481.56
399.32	1476.88
399.51	1535.39
399.70	1582.20
399.90	1577.52
400.09	1614.97
400.28	1785.83
400.47	1593.90
400.67	1685.19
400.86	1668.80
401.05	1584.54
401.24	1636.03
401.44	1614.97
401.63	1638.38
401.82	1645.40
402.01	1600.93
402.21	1668.80
402.40	1732.00
402.59	1650.08
402.78	1713.27
402.97	1802.21
403.17	1774.13
403.36	1832.64
403.55	1844.34
403.74	1790.51
403.93	1834.98
404.13	1891.15
404.32	1872.43
404.51	1856.04
404.70	1940.30
404.89	1842.00
405.09	2008.18
405.28	2003.50
405.47	1998.82
405.66	2010.52
405.85	1966.05
406.05	1942.64
406.24	1942.64
406.43	2045.63
406.62	2062.01
406.81	2148.61
407.00	2057.33
407.20	2045.63
407.39	2031.58
407.58	2040.95
407.77	2122.87
407.96	2211.81
408.15	2265.64
408.34	2340.54
408.54	2303.09
408.73	2165.00
408.92	2228.19
409.11	2305.43
409.30	2282.02
409.49	2345.22
409.68	2267.98
409.87	2228.19
410.07	2230.53
410.26	2487.99
410.45	2356.92
410.64	2567.57
410.83	2569.91
411.02	2431.82
411.21	2586.29
411.40	2656.51
411.59	2642.46
411.78	2525.44
411.98	2487.99
412.17	2544.16
412.36	2684.59
412.55	2672.89
412.74	2670.55
412.93	2679.91
413.12	2750.13
413.31	2862.48
413.50	2745.45
413.69	2815.66
413.88	2904.60
414.07	3038.02
414.26	2813.32
414.45	2937.37
414.64	2909.29
414.83	3035.67
415.02	2967.80
415.22	3105.89
415.41	3126.96
415.60	3080.14
415.79	3112.91
415.98	3267.39
416.17	3323.56
416.36	3346.97
416.55	3311.86
416.74	3314.20
416.93	3368.03
417.12	3323.56
417.31	3293.13
417.50	3318.88
417.69	3454.63
417.88	3433.57
418.07	3449.95
418.26	3566.98
418.45	3384.41
418.64	3527.19
418.83	3576.34
419.02	3620.81
419.21	3564.64
419.39	3583.36
419.58	3531.87
419.77	3527.19
419.96	3651.24
420.15	3566.98
420.34	3719.11
420.53	3843.16
420.72	3639.53
420.91	3744.86
421.10	3833.80
421.29	3730.81
421.48	3779.97
421.67	3901.67
421.86	3859.54
422.05	3833.80
422.24	3674.64
422.43	3868.91
422.61	3847.84
422.80	4035.08
422.99	3969.55
423.18	3896.99
423.37	3964.87
423.56	3950.82
423.75	3819.75
423.94	3845.50
424.13	3627.83
424.32	3744.86
424.50	3971.89
424.69	4079.55
424.88	3964.87
425.07	3936.78
425.26	3962.53
425.45	3957.85
425.64	3920.40
425.83	3859.54
426.01	3964.87
426.20	4086.58
426.39	4009.34
426.58	3889.97
426.77	3976.57
426.96	3950.82
427.15	4065.51
427.33	4072.53
427.52	4081.89
427.71	4035.08
427.90	3974.23
428.09	4173.18
428.28	4063.17
428.46	4128.70
428.65	4086.58
428.84	4320.63
429.03	4369.78
429.22	3964.87
429.40	3995.29
429.59	4168.49
429.78	4039.76
429.97	3985.93
430.16	4004.66
430.34	4084.23
430.53	4147.43
430.72	4210.62
430.91	4264.46
431.10	4234.03
431.28	4461.06
431.47	4650.64
431.66	4662.35
431.85	4538.30
432.03	4493.83
432.22	4533.62
432.41	4550.00
432.60	4702.14
432.79	4624.90
432.97	4688.09
433.16	4685.75
433.35	4561.70
433.54	4683.41
433.72	4758.31
433.91	4617.88
434.10	4723.20
434.28	4683.41
434.47	4882.36
434.66	4858.95
434.85	4940.87
435.03	4959.60
435.22	4828.53
435.41	5018.11
435.59	4973.64
435.78	5153.86
435.97	5252.16
436.16	5268.55
436.34	5013.43
436.53	4980.66
436.72	5263.86
436.90	5041.51
437.09	5078.96
437.28	5200.67
437.46	5081.30
437.65	5252.16
437.84	5177.26
438.02	5008.75
438.21	5156.20
438.40	5144.50
438.58	5235.78
438.77	5406.64
438.96	5390.25
439.14	5572.82
439.33	5547.07
439.52	5696.86
439.70	5521.32
439.89	5607.92
440.08	5760.06
440.26	5827.93
440.45	5654.73
440.63	5788.14
440.82	5895.81
441.01	5837.30
441.19	5891.13
441.38	5916.87
441.57	6099.44
441.75	6108.80
441.94	6127.52
442.12	6429.45
442.31	6258.59
442.50	6249.23
442.68	6160.29
442.87	6464.56
443.05	6363.92
443.24	6473.92
443.43	6422.43
443.61	6450.52
443.80	6647.12
443.98	6384.98
444.17	6022.20
444.35	6441.15
444.54	6588.61
444.73	6366.26
444.91	6394.34
445.10	6509.03
445.28	6445.84
445.47	6298.38
445.65	6345.19
445.84	6445.84
446.02	6541.80
446.21	6630.74
446.39	6506.69
446.58	6443.49
446.77	6626.06
446.95	6590.95
447.14	6700.95
447.32	6991.18
447.51	6705.63
447.69	6626.06
447.88	6607.33
448.06	6773.51
448.25	6745.42
448.43	6707.98
448.62	6698.61
448.80	6761.81
448.99	6722.02
449.17	6778.19
449.36	6665.85
449.54	6977.14
449.73	7180.76
449.91	7054.37
450.10	7026.29
450.28	7178.42
450.46	7225.23
450.65	7211.19
450.83	7211.19
451.02	7066.08
451.20	7276.73
451.39	7084.80
451.57	7243.96
451.76	7162.04
451.94	7260.34
452.13	7220.55
452.31	7042.67
452.49	7019.27
452.68	7166.72
452.86	7091.82
453.05	7225.23
453.23	7288.43
453.42	7133.95
453.60	7204.17
453.78	7480.35
453.97	7353.96
454.15	7372.69
454.34	7316.51
454.52	7478.01
454.70	7442.90
454.89	7428.86
455.07	7550.57
455.26	7494.40
455.44	7606.74
455.62	7693.34
455.81	7882.92
455.99	7737.81
456.17	7761.22
456.36	7552.91
456.54	7871.22
456.73	7882.92
456.91	8168.47
457.09	8140.38
457.28	8063.15
457.46	8067.83
457.64	8030.38
457.83	8102.93
458.01	7983.57
458.19	8264.43
458.38	8156.77
458.56	8360.39
458.74	8217.62
458.93	8248.05
459.11	8313.58
459.29	8212.94
459.48	8315.92
459.66	8170.81
459.84	8376.78
460.03	8540.61
460.21	8432.95
460.39	8449.33
460.57	8498.49
460.76	8435.29
460.94	8601.47
461.12	8606.15
461.31	8755.94
461.49	8641.26
461.67	8383.80
461.85	8858.93
462.04	8812.12
462.22	9004.04
462.40	8826.16
462.59	8997.02
462.77	8746.58
462.95	9291.93
463.13	8692.75
463.32	8908.08
463.50	8879.99
463.68	9109.36
463.86	9069.58
464.05	8980.64
464.23	9004.04
464.41	9022.77
464.59	8945.53
464.78	9366.82
464.96	8994.68
465.14	9074.26
465.32	9184.26
465.50	9238.09
465.69	9273.20
465.87	9151.49
466.05	9135.11
466.23	9430.02
466.41	9378.53
466.60	9387.89
466.78	9254.48
466.96	9231.07
467.14	9207.67
467.32	9324.69
467.51	9692.16
467.69	9071.92
467.87	9458.10
468.05	9474.49
468.23	9341.08
468.41	9413.63
468.60	9479.17
468.78	9558.75
468.96	9338.74
469.14	9832.59
469.32	9619.60
469.50	9537.68
469.69	9837.27
469.87	9809.19
470.05	9783.44
470.23	9734.29
470.41	9680.46
470.59	9916.85
470.77	9954.30
470.95	10143.88
471.14	10078.35
471.32	9827.91
471.50	10258.57
471.68	10143.88
471.86	10186.01
472.04	10186.01
472.22	10670.50
472.40	10085.37
472.58	10352.19
472.77	10497.30
472.95	10588.58
473.13	11082.44
473.31	10361.55
473.49	10586.24
473.67	10492.62
473.85	10532.41
474.03	10817.96
474.21	10953.71
474.39	11056.69
474.57	11110.52
474.75	11052.01
474.93	11089.46
475.12	10881.15
475.30	11241.59
475.48	11194.78
475.66	11185.42
475.84	11122.23
476.02	11452.24
476.20	11506.07
476.38	11398.41
476.56	11918.01
476.74	11679.27
476.92	11683.95
477.10	11808.00
477.28	12091.21
477.46	12030.35
477.64	12250.36
477.82	12517.18
478.00	12641.23
478.18	12620.17
478.36	12779.32
478.54	12669.32
478.72	12706.77
478.90	12938.48
479.08	13167.85
479.26	13156.15
479.44	13214.66
479.62	13413.61
479.80	13099.98
479.98	13369.14
480.16	13650.00
480.34	13650.00
480.52	13715.54
480.70	13760.01
480.88	13507.23
481.06	13902.78
481.24	14008.11
481.41	14061.94
481.59	14604.94
481.77	14310.04
481.95	14504.30
482.13	14581.54
482.31	14497.28
482.49	14846.02
482.67	14721.97
482.85	14995.81
483.03	15213.48
483.21	15267.31
483.39	15407.75
483.57	15370.30
483.74	15562.22
483.92	15768.19
484.10	15653.50
484.28	15861.81
484.46	15969.48
484.64	16011.60
484.82	16416.52
485.00	16044.37
485.18	16540.57
485.35	16706.74
485.53	16210.55
485.71	16079.48
485.89	16327.58
486.07	16409.50
486.25	16603.76
486.43	16582.70
486.61	17062.51
486.78	17135.06
486.96	17317.62
487.14	17664.02
487.32	17731.90
487.50	18057.23
487.68	18281.92
487.85	18274.90
488.03	18527.68
488.21	18602.58
488.39	18546.40
488.57	18361.50
488.75	18750.03
488.92	18977.06
489.10	19370.27
489.28	19154.94
489.46	19894.55
489.64	19747.10
489.81	19981.15
489.99	19908.60
490.17	20074.77
490.35	20402.45
490.53	20299.47
490.70	20367.34
490.88	20458.62
491.06	20760.55
491.24	20521.82
491.41	20823.75
491.59	20919.71
491.77	20549.90
491.95	21195.89
492.13	21280.15
492.30	21490.80
492.48	21392.50
492.66	21507.18
492.84	22045.51
493.01	22160.19
493.19	21900.39
493.37	22518.29
493.54	22162.53
493.72	22644.68
493.90	22553.40
494.08	22771.07
494.25	23073.00
494.43	23332.80
494.61	23229.82
494.79	23424.08
494.96	23548.13
495.14	23564.51
495.32	23882.83
495.49	23641.75
495.67	23793.89
495.85	23779.84
496.02	24226.89
496.20	24517.11
496.38	24421.15
496.55	24566.26
496.73	25081.18
496.91	24938.41
497.09	25027.35
497.26	25242.68
497.44	25132.67
497.62	25163.10
497.79	25230.98
497.97	24844.79
498.14	25348.00
498.32	25558.65
498.50	25584.40
498.67	25909.73
498.85	26045.48
499.03	26242.09
499.20	26221.02
499.38	26431.67
499.56	26342.73
499.73	26417.63
499.91	26632.96
500.08	26457.42
500.26	26270.17
500.44	26714.87
500.61	26789.77
500.79	26764.03
500.97	26937.23
501.14	27042.55
501.32	27278.94
501.49	27211.07
501.67	26902.12
501.84	27431.08
502.02	27091.70
502.20	27658.11
502.37	27817.27
502.55	27576.19
502.72	27723.65
502.90	28187.07
503.07	27957.70
503.25	28156.64
503.43	27772.80
503.60	28079.41
503.78	28161.33
503.95	28222.18
504.13	28430.49
504.30	28563.90
504.48	28732.42
504.65	28943.06
504.83	29010.94
505.01	29113.92
505.18	28835.40
505.36	29450.96
505.53	29032.00
505.71	29750.55
505.88	29898.00
506.06	29179.46
506.23	29876.94
506.41	29635.86
506.58	29628.84
506.76	29832.47
506.93	29869.92
507.11	29898.00
507.28	29888.64
507.46	30038.44
507.63	30115.67
507.81	29769.27
507.98	30000.99
508.16	30401.22
508.33	30661.02
508.50	30609.53
508.68	31023.80
508.85	31129.12
509.03	30834.22
509.20	31047.21
509.38	30991.03
509.55	31030.82
509.73	31470.84
509.90	31459.14
510.08	31601.91
510.25	31487.23
510.42	31754.05
510.60	31573.83
510.77	31782.13
510.95	31662.77
511.12	31519.99
511.30	32067.68
511.47	32519.40
511.64	32451.53
511.82	32636.43
511.99	32318.12
512.17	32968.79
512.34	32189.39
512.51	32638.77
512.69	32655.15
512.86	32631.75
513.04	32891.55
513.21	32746.44
513.38	32414.08
513.56	32854.10
513.73	32432.80
513.90	33029.64
514.08	33043.68
514.25	33539.88
514.43	33392.42
514.60	33542.22
514.77	33385.40
514.95	33720.10
515.12	33359.66
515.29	33441.57
515.47	33876.91
515.64	33893.30
515.81	33661.58
515.99	33886.28
516.16	34078.20
516.33	33846.49
516.51	33457.96
516.68	33390.08
516.85	33256.67
517.03	33890.96
517.20	33881.60
517.37	34230.33
517.54	34476.09
517.72	34246.72
517.89	33890.96
518.06	34167.14
518.24	34101.61
518.41	34330.98
518.58	34321.62
518.75	34529.92
518.93	34616.52
519.10	34394.17
519.27	35061.22
519.45	35199.32
519.62	35353.79
519.79	35145.48
519.96	35339.75
520.14	35419.33
520.31	34958.24
520.48	35292.94
520.65	35697.85
520.83	35840.62
521.00	36175.32
521.17	35674.45
521.34	36034.89
521.52	36051.27
521.69	36598.96
521.86	36495.97
522.03	36573.21
522.20	36369.58
522.38	36329.80
522.55	36355.54
522.72	36226.81
522.89	36304.05
523.07	37013.23
523.24	36748.75
523.41	37144.30
523.58	36886.84
523.75	37469.64
523.92	37469.64
524.10	37280.05
524.27	37354.95
524.44	37455.59
524.61	37418.14
524.78	37331.54
524.96	36886.84
525.13	37448.57
525.30	37670.92
525.47	37937.74
525.64	37872.21
525.81	37780.93
525.98	37315.16
526.16	37654.54
526.33	37050.68
526.50	37825.40
526.67	37385.38
526.84	37354.95
527.01	37141.96
527.18	37787.95
527.36	38164.78
527.53	38363.72
527.70	38286.48
527.87	38267.76
528.04	37881.57
528.21	38499.47
528.38	38244.35
528.55	38780.34
528.72	38845.87
528.89	39051.84
529.07	38707.78
529.24	38848.21
529.41	38501.81
529.58	38904.38
529.75	39040.14
529.92	39248.44
530.09	38990.98
530.26	39058.86
530.43	39189.93
530.60	39145.46
530.77	39269.51
530.94	39913.16
531.11	39442.71
531.28	39372.49
531.46	39732.93
531.63	39817.19
531.80	39707.19
531.97	39288.23
532.14	39627.61
532.31	39239.08
532.48	39412.28
532.65	39803.15
532.82	39992.73
532.99	39651.02
533.16	39353.77
533.33	40261.90
533.50	40549.78
533.67	40325.09
533.84	40205.72
534.01	39915.50
534.18	39875.71
534.35	40402.33
534.52	40463.18
534.69	40711.28
534.86	40905.54
535.03	40451.48
535.20	40648.08
535.37	40825.96
535.54	40950.01
535.71	40577.87
535.88	40720.64
536.05	40811.92
536.22	41022.57
536.38	40620.00
536.55	41060.02
536.72	40835.33
536.89	40758.09
537.06	40535.74
537.23	41237.90
537.40	41038.95
537.57	41303.43
537.74	41411.10
537.91	41338.54
538.08	41062.36
538.25	41088.10
538.42	40905.54
538.59	41816.01
538.75	41102.15
538.92	41694.30
539.09	41425.14
539.26	41406.42
539.43	40931.29
539.60	41375.99
539.77	41345.56
539.94	41909.63
540.11	41408.76
540.28	41909.63
540.44	41483.66
540.61	41656.85
540.78	41483.66
540.95	41394.71
541.12	41610.04
541.29	41792.61
541.46	42141.35
541.62	41617.07
541.79	42192.84
541.96	41567.91
542.13	41907.29
542.30	42143.69
542.47	41914.31
542.63	42204.54
542.80	42129.64
542.97	42913.72
543.14	43000.32
543.31	42443.27
543.48	42813.08
543.64	43173.52
543.81	43079.90
543.98	43009.68
544.15	42923.08
544.32	43150.12
544.48	43065.86
544.65	42986.28
544.82	43337.36
544.99	42754.57
545.16	43143.09
545.32	42773.29
545.49	43339.70
545.66	43426.30
545.83	43248.42
546.00	43325.66
546.16	43196.93
546.33	43192.25
546.50	43522.26
546.67	43409.92
546.83	42656.26
547.00	43501.20
547.17	43540.99
547.34	43206.29
547.50	43459.07
547.67	43147.78
547.84	43447.36
548.00	43718.87
548.17	43423.96
548.34	43971.64
548.51	43887.39
548.67	44439.75
548.84	43899.09
549.01	43772.70
549.18	43683.76
549.34	43634.61
549.51	44285.28
549.68	43887.39
549.84	44217.40
550.01	44034.84
550.18	43959.94
550.34	43985.69
550.51	44224.42
550.68	44367.20
550.84	43655.67
551.01	44133.14
551.18	44545.08
551.34	44051.22
551.51	44266.55
551.68	44261.87
551.84	44535.71
552.01	44460.82
552.18	44271.23
552.34	43922.49
552.51	44091.01
552.68	44378.90
552.84	44685.51
553.01	44690.19
553.18	44863.39
553.34	44411.67
553.51	44184.63
553.67	44243.15
553.84	44500.61
554.01	44439.75
554.17	44776.79
554.34	45048.29
554.51	45106.80
554.67	44800.19
554.84	44971.05
555.00	44577.84
555.17	44760.40
555.33	44872.75
555.50	44371.88
555.67	44788.49
555.83	44566.14
556.00	44861.05
556.16	45069.36
556.33	45020.20
556.50	44818.92
556.66	44905.52
556.83	45022.54
556.99	45490.65
557.16	45233.19
557.32	45322.13
557.49	45406.39
557.65	44940.63
557.82	44879.77
557.98	45104.46
558.15	44949.99
558.32	45352.56
558.48	45240.21
558.65	44907.86
558.81	45160.64
558.98	44994.46
559.14	45514.06
559.31	45422.78
559.47	45450.86
559.64	45338.52
559.80	45518.74
559.97	45240.21
560.13	45104.46
560.30	45724.71
560.46	45500.01
560.63	45347.88
560.79	45581.93
560.96	45390.01
561.12	45483.63
561.29	45104.46
561.45	45663.85
561.61	45453.20
561.78	45565.55
561.94	44957.01
562.11	45296.39
562.27	45258.94
562.44	45532.78
562.60	45846.41
562.77	46209.20
562.93	45897.91
563.10	45743.43
563.26	45095.10
563.42	45544.48
563.59	45640.45
563.75	45528.10
563.92	46059.40
564.08	45890.88
564.24	45918.97
564.41	45883.86
564.57	45647.47
564.74	45478.95
564.90	45961.10
565.07	45876.84
565.23	45659.17
565.39	45605.34
565.56	45724.71
565.72	45427.46
565.88	45652.15
566.05	45925.99
566.21	45918.97
566.38	45584.27
566.54	45406.39
566.70	45933.01
566.87	46176.43
567.03	45839.39
567.19	46241.96
567.36	46136.64
567.52	46068.76
567.68	46089.83
567.85	45925.99
568.01	46096.85
568.17	46094.51
568.34	45729.39
568.50	46007.91
568.66	45909.61
568.83	46241.96
568.99	45860.46
569.15	46190.47
569.32	46017.27
569.48	45734.07
569.64	46319.20
569.81	46150.68
569.97	46188.13
570.13	45900.25
570.30	45750.45
570.46	45722.37
570.62	45811.31
570.78	45752.79
570.95	45792.58
571.11	45799.60
571.27	45823.01
571.43	45972.80
571.60	46085.15
571.76	46110.89
571.92	45996.21
572.09	45886.20
572.25	45970.46
572.41	45865.14
572.57	46000.89
572.74	46691.35
572.90	46075.79
573.06	46167.07
573.22	45888.54
573.38	46314.52
573.55	45713.00
573.71	46183.45
573.87	45897.91
574.03	46323.88
574.20	46471.34
574.36	45720.02
574.52	46232.60
574.68	46080.47
574.84	46059.40
575.01	45783.22
575.17	45860.46
575.33	45949.40
575.49	45893.22
575.65	46335.59
575.82	46211.54
575.98	45979.82
576.14	46902.00
576.30	45977.48
576.46	45944.72
576.62	46108.55
576.79	46036.00
576.95	45724.71
577.11	45975.14
577.27	46164.73
577.43	46164.73
577.59	46085.15
577.75	45944.72
577.92	45509.38
578.08	45872.16
578.24	46092.17
578.40	45998.55
578.56	46232.60
578.72	46265.37
578.88	46660.92
579.04	46361.33
579.21	46281.75
579.37	46038.34
579.53	46321.54
579.69	46494.74
579.85	46136.64
580.01	46295.80
580.17	46050.04
580.33	46288.77
580.49	46459.63
580.65	46361.33
580.82	46181.11
580.98	45949.40
581.14	46160.05
581.30	46527.51
581.46	46258.35
581.62	46216.22
581.78	46366.01
581.94	46543.89
582.10	46464.32
582.26	46358.99
582.42	45996.21
582.58	46241.96
582.74	46230.26
582.90	46543.89
583.06	46681.98
583.22	46370.69
583.38	46590.70
583.54	46653.90
583.70	46487.72
583.86	46501.76
584.02	45624.06
584.18	46131.96
584.34	46199.83
584.50	46075.79
584.66	46597.73
584.82	46263.03
584.98	46494.74
585.14	46576.66
585.30	46239.62
585.46	46597.73
585.62	46078.13
585.78	45975.14
585.94	45853.44
586.10	46052.38
586.26	46354.31
586.42	46801.35
586.58	46504.10
586.74	46714.75
586.90	46302.82
587.06	46153.02
587.22	46473.68
587.38	46234.94
587.54	46871.57
587.70	46579.00
587.86	46288.77
588.02	45977.48
588.18	46588.36
588.34	45958.76
588.49	45617.04
588.65	45794.92
588.81	45841.73
588.97	45848.75
589.13	45488.31
589.29	46263.03
589.45	46473.68
589.61	46117.92
589.77	46239.62
589.93	46375.37
590.08	46782.63
590.24	46150.68
590.40	46412.82
590.56	46450.27
590.72	46513.47
590.88	46073.45
591.04	46703.05
591.20	46801.35
591.35	46436.23
591.51	47077.54
591.67	46176.43
591.83	46539.21
591.99	46705.39
592.15	46670.28
592.31	46452.61
592.46	46691.35
592.62	46405.80
592.78	46576.66
592.94	46806.03
593.10	46391.76
593.26	46712.41
593.41	46436.23
593.57	46197.49
593.73	46087.49
593.89	46588.36
594.05	46211.54
594.20	46253.67
594.36	46782.63
594.52	46232.60
594.68	46073.45
594.84	46574.32
594.99	46529.85
595.15	46714.75
595.31	46555.60
595.47	46677.30
595.62	46408.14
595.78	46258.35
595.94	46667.94
596.10	46506.44
596.25	46808.37
596.41	46712.41
596.57	46204.52
596.73	46429.21
596.88	46415.16
597.04	46527.51
597.20	46382.40
597.36	46546.23
597.51	46878.59
597.67	46553.26
597.83	46553.26
597.99	46969.87
598.14	46665.60
598.30	46522.83
598.46	46586.02
598.61	46740.50
598.77	46476.02
598.93	46092.17
599.09	46337.93
599.24	46983.91
599.40	46127.28
599.56	46632.83
599.71	46600.07
599.87	46686.67
600.03	46223.24
600.18	46637.51
600.34	46794.33
600.50	46862.21
600.65	46740.50
600.81	46564.96
600.97	46820.08
601.12	46312.18
601.28	46342.61
601.44	46162.39
601.59	46707.73
601.75	46064.08
601.91	46459.63
602.06	46291.12
602.22	46532.19
602.37	46398.78
602.53	46415.16
602.69	46092.17
602.84	46309.84
603.00	46251.33
603.16	46461.97
603.31	46499.42
603.47	46431.55
603.62	46394.10
603.78	46508.79
603.94	46553.26
604.09	46508.79
604.25	46806.03
604.40	46328.56
604.56	46373.03
604.71	46625.81
604.87	46384.74
605.03	46050.04
605.18	46291.12
605.34	46665.60
605.49	45937.69
605.65	46405.80
605.80	45815.99
605.96	46499.42
606.12	46440.91
606.27	46639.86
606.43	46134.30
606.58	46281.75
606.74	46258.35
606.89	46185.79
607.05	46583.68
607.20	46239.62
607.36	46230.26
607.51	46738.16
607.67	46527.51
607.82	45961.10
607.98	46223.24
608.13	46213.88
608.29	45935.35
608.44	45689.60
608.60	45764.49
608.75	46043.02
608.91	46066.42
609.06	45841.73
609.22	45801.94
609.37	46028.98
609.53	45949.40
609.68	46141.32
609.84	45420.44
609.99	45839.39
610.15	45558.53
610.30	45841.73
610.46	45614.70
610.61	45464.91
610.76	45799.60
610.92	45799.60
611.07	46316.86
611.23	45895.56
611.38	46167.07
611.54	45591.30
611.69	45818.33
611.84	45434.48
612.00	45450.86
612.15	45696.62
612.31	45815.99
612.46	45331.50
612.62	45689.60
612.77	45635.77
612.92	45909.61
613.08	46068.76
613.23	45617.04
613.39	45441.50
613.54	45205.11
613.69	45378.31
613.85	45123.19
614.00	45378.31
614.15	45872.16
614.31	45144.25
614.46	45577.25
614.62	45092.76
614.77	45446.18
614.92	45661.51
615.08	45345.54
615.23	44966.37
615.38	45415.76
615.54	44938.29
615.69	45226.17
615.84	45069.36
616.00	45368.94
616.15	45081.06
616.30	45116.17
616.46	45052.97
616.61	44968.71
616.76	45167.66
616.92	44306.34
617.07	44470.18
617.22	44643.38
617.37	44811.90
617.53	44905.52
617.68	45132.55
617.83	44722.96
617.99	44699.55
618.14	44587.21
618.29	44762.75
618.45	44868.07
618.60	44238.47
618.75	44533.37
618.90	44273.57
619.06	45137.23
619.21	44713.59
619.36	45401.71
619.51	44622.31
619.67	44381.24
619.82	44610.61
619.97	45153.62
620.12	44266.55
620.28	43753.97
620.43	44327.41
620.58	44196.34
620.73	44116.76
620.89	44732.32
621.04	44893.82
621.19	44219.74
621.34	44378.90
621.49	44053.56
621.65	44456.14
621.80	44374.22
621.95	43866.32
622.10	44116.76
622.25	43938.88
622.41	43761.00
622.56	43765.68
622.71	44423.37
622.86	44289.96
623.01	44025.48
623.16	43976.33
623.32	43927.17
623.47	44226.76
623.62	43241.40
623.77	43676.74
623.92	44095.69
624.07	43606.52
624.23	43508.22
624.38	43936.54
624.53	43627.59
624.68	43260.12
624.83	43320.98
624.98	43482.47
625.13	43318.64
625.29	43442.68
625.44	43208.63
625.59	42789.67
625.74	43019.05
625.89	42920.74
626.04	42822.44
626.19	43395.87
626.34	43297.57
626.49	43136.07
626.65	43173.52
626.80	43243.74
626.95	43550.35
627.10	42906.70
627.25	43393.53
627.40	43023.73
627.55	42726.48
627.70	42265.39
627.85	42857.55
628.00	42916.06
628.15	42660.94
628.30	42763.93
628.45	43037.77
628.60	43021.39
628.76	42983.94
628.91	42918.40
629.06	42665.63
629.21	42553.28
629.36	42419.87
629.51	42796.70
629.66	42270.08
629.81	42534.56
629.96	42740.52
630.11	42450.30
630.26	42667.97
630.41	42808.40
630.56	42473.70
630.71	42717.12
630.86	41984.53
631.01	41902.61
631.16	42607.11
631.31	42059.43
631.46	41848.78
631.61	42396.46
631.76	42394.12
631.91	42272.42
632.06	42508.81
632.21	42562.64
632.36	42682.01
632.51	41762.18
632.66	42469.02
632.81	42010.28
632.96	42293.48
633.10	42120.28
633.25	41916.65
633.40	41979.85
633.55	42607.11
633.70	42071.13
633.85	41858.14
634.00	41794.95
634.15	41600.68
634.30	41872.18
634.45	42113.26
634.60	41944.74
634.75	42141.35
634.90	41591.32
635.05	42057.09
635.19	41706.01
635.34	41748.14
635.49	41521.10
635.64	41837.08
635.79	41155.98
635.94	41900.27
636.09	41467.27
636.24	41598.34
636.39	40910.22
636.53	41385.35
636.68	41085.76
636.83	41256.62
636.98	41703.67
637.13	41233.22
637.28	40898.52
637.43	41251.94
637.57	41544.51
637.72	41626.43
637.87	41373.65
638.02	41043.63
638.17	41184.07
638.32	41106.83
638.46	41195.77
638.61	41034.27
638.76	40903.20
638.91	41113.85
639.06	40730.00
639.20	41247.26
639.35	40978.10
639.50	41338.54
639.65	41195.77
639.80	40973.42
639.94	40919.59
640.09	40652.76
640.24	40945.33
640.39	40601.27
640.54	40362.54
640.68	40914.90
640.83	40814.26
640.98	40793.20
641.13	40208.06
641.27	41031.93
641.42	40259.55
641.57	40683.19
641.72	40624.68
641.86	40432.75
642.01	40067.63
642.16	39882.73
642.31	40006.78
642.45	40385.94
642.60	40210.40
642.75	40055.93
642.90	41020.23
643.04	40191.68
643.19	40392.97
643.34	40383.60
643.48	40076.99
643.63	39529.31
643.78	39840.60
643.93	40020.82
644.07	40208.06
644.22	39849.96
644.37	39826.56
644.51	40105.08
644.66	40170.61
644.81	40046.57
644.95	40273.60
645.10	39604.20
645.25	39770.38
645.39	39629.95
645.54	39983.37
645.69	39983.37
645.83	40170.61
645.98	40229.13
646.13	39723.57
646.27	40023.16
646.42	40114.44
646.57	39541.01
646.71	39276.53
646.86	39978.69
647.00	39672.08
647.15	39620.59
647.30	39725.91
647.44	39321.00
647.59	39969.33
647.74	39379.51
647.88	39985.71
648.03	39381.85
648.17	39636.97
648.32	39346.75
648.47	39618.25
648.61	38749.91
648.76	39438.03
648.90	39442.71
649.05	39154.82
649.20	39166.52
649.34	39178.23
649.49	38990.98
649.63	39203.97
649.78	39070.56
649.92	38895.02
650.07	39412.28
650.21	39283.55
650.36	38939.49
650.51	38675.01
650.65	39409.94
650.80	39225.04
650.94	39304.62
651.09	39173.55
651.23	38508.83
651.38	39154.82
651.52	38354.36
651.67	38834.17
651.81	38911.41
651.96	38405.85
652.10	38464.36
652.25	38565.01
652.39	38976.94
652.54	38611.82
652.68	39143.12
652.83	38450.32
652.97	38845.87
653.12	38532.24
653.26	38333.29
653.41	38789.70
653.55	38422.23
653.70	38700.76
653.84	38780.34
653.99	38396.49
654.13	38370.74
654.27	38209.25
654.42	37787.95
654.56	37661.56
654.71	38078.18
654.85	38232.65
655.00	38279.46
655.14	38157.75
655.29	37996.26
655.43	37820.72
655.57	37673.26
655.72	37834.76
655.86	37036.64
656.01	37563.26
656.15	37216.86
656.30	37762.20
656.44	37584.32
656.58	36966.42
656.73	37745.82
656.87	37219.20
657.01	37605.39
657.16	37820.72
657.30	37600.71
657.45	36718.32
657.59	37720.07
657.73	37574.96
657.88	37902.64
658.02	37881.57
658.16	37940.08
658.31	37240.26
658.45	37729.44
658.60	37160.69
658.74	37645.18
658.88	37359.63
659.03	36896.20
659.17	37151.32
659.31	37015.57
659.46	36844.71
659.60	36971.10
659.74	37490.70
659.89	37127.92
660.03	37340.91
660.17	36959.40
660.32	36762.79
660.46	37088.13
660.60	36741.73
660.74	37092.81
660.89	37001.53
661.03	36385.97
661.17	36856.42
661.32	36304.05
661.46	36715.98
661.60	36594.28
661.74	36715.98
661.89	36355.54
662.03	36290.01
662.17	35805.52
662.31	36018.50
662.46	36697.26
662.60	36205.75
662.74	36383.63
662.88	36039.57
663.03	35583.16
663.17	35962.33
663.31	35721.26
663.45	35732.96
663.60	35627.63
663.74	35784.45
663.88	35714.23
664.02	35386.56
664.17	36170.64
664.31	35428.69
664.45	35271.87
664.59	35454.44
664.73	35255.49
664.88	35459.12
665.02	34841.21
665.16	35173.57
665.30	34836.53
665.44	34939.52
665.59	35079.95
665.73	34918.45
665.87	34885.68
666.01	35211.02
666.15	34995.69
666.29	34759.30
666.44	34939.52
666.58	34827.17
666.72	34841.21
666.86	34609.50
667.00	34543.97
667.14	34555.67
667.28	34127.35
667.43	34548.65
667.57	34532.26
667.71	34153.10
667.85	34543.97
667.99	34312.25
668.13	34412.90
668.27	34284.17
668.41	34403.53
668.56	34197.57
668.70	34199.91
668.84	33888.62
668.98	33415.83
669.12	33560.94
669.26	34220.97
669.40	33317.53
669.54	33846.49
669.68	33514.13
669.82	33464.98
669.96	33436.89
670.10	33160.71
670.25	33074.11
670.39	33383.06
670.53	32891.55
670.67	33291.78
670.81	33394.76
670.95	33263.69
671.09	32999.21
671.23	32809.63
671.37	33287.10
671.51	32900.91
671.65	32929.00
671.79	32594.30
671.93	32622.39
672.07	32772.18
672.21	33085.81
672.35	32856.44
672.49	32769.84
672.63	32311.10
672.77	32165.98
672.91	32526.42
673.05	32238.54
673.19	32395.35
673.33	31929.59
673.47	31452.12
673.61	31557.44
673.75	31857.03
673.89	31543.40
674.03	31580.85
674.17	31857.03
674.31	31604.25
674.45	31232.11
674.59	31117.42
674.73	31826.60
674.87	31211.04
675.01	31131.47
675.15	31253.17
675.29	31110.40
675.43	31009.76
675.56	30831.88
675.70	31005.08
675.84	30452.71
675.98	30071.20
676.12	30305.26
676.26	30539.31
676.40	30771.02
676.54	30607.19
676.68	30969.97
676.82	30356.75
676.96	30218.66
677.10	29879.28
677.23	29792.68
677.37	30026.73
677.51	29347.98
677.65	29617.14
677.79	28982.85
677.93	29514.16
678.07	29125.63
678.21	28559.22
678.34	28903.28
678.48	28790.93
678.62	28620.07
678.76	28959.45
678.90	28662.20
679.04	28669.22
679.18	28821.36
679.31	28479.64
679.45	28371.97
679.59	28201.11
679.73	28201.11
679.87	27789.18
680.00	27854.72
680.14	27971.74
680.28	28217.50
680.42	27899.19
680.56	28121.54
680.70	27875.78
680.83	27894.50
680.97	27723.65
681.11	27716.62
681.25	26967.65
681.39	27035.53
681.52	27328.10
681.66	27302.35
681.80	27145.53
681.94	26986.38
682.07	26930.20
682.21	26911.48
682.35	26745.30
682.49	26331.03
682.62	26668.06
682.76	26485.50
682.90	26237.41
683.04	26178.89
683.17	26129.74
683.31	26244.43
683.45	26216.34
683.59	25792.70
683.72	25689.72
683.86	25729.51
684.00	25490.77
684.13	25682.70
684.27	25617.16
684.41	25184.16
684.55	25355.02
684.68	25415.88
684.82	25345.66
684.96	25364.39
685.09	25043.73
685.23	25216.93
685.37	24931.39
685.50	24797.98
685.64	24634.14
685.78	24498.39
685.91	24514.77
686.05	24306.46
686.19	24404.77
686.32	24130.92
686.46	23821.97
686.60	23386.63
686.73	23646.43
686.87	23412.38
687.01	23040.23
687.14	23021.51
687.28	23452.17
687.42	23421.74
687.55	23300.03
687.69	23421.74
687.82	23122.15
687.96	23229.82
688.10	23293.01
688.23	22703.20
688.37	22831.93
688.50	22623.62
688.64	22623.62
688.78	22469.14
688.91	22239.77
689.05	22640.00
689.18	22314.67
689.32	22122.74
689.46	22338.07
689.59	22115.72
689.73	22111.04
689.86	22099.34
690.00	21872.31
690.13	21687.40
690.27	21750.60
690.41	21895.71
690.54	21219.30
690.68	21528.25
690.81	21481.44
690.95	21451.01
691.08	21209.93
691.22	21193.55
691.35	21352.71
691.49	21549.31
691.62	20891.62
691.76	20938.43
691.89	21099.93
692.03	20978.22
692.16	20664.59
692.30	20479.69
692.43	20070.09
692.57	20404.79
692.70	20343.94
692.84	20411.81
692.97	19854.76
693.11	20252.66
693.24	19962.43
693.38	19910.94
693.51	20112.22
693.65	20046.69
693.78	19978.81
693.92	19564.54
694.05	19800.93
694.19	19414.74
694.32	19335.17
694.45	19337.51
694.59	19042.60
694.72	18941.96
694.86	19274.31
694.99	18902.17
695.13	18878.76
695.26	18525.34
695.39	18497.25
695.53	18822.59
695.66	18934.93
695.80	18523.00
695.93	18572.15
696.07	18429.38
696.20	18445.76
696.33	18438.74
696.47	18274.90
696.60	17998.72
696.73	17926.16
696.87	17865.31
697.00	18080.64
697.14	17762.33
697.27	17720.20
697.40	17535.29
697.54	17451.03
697.67	17242.73
697.80	17362.09
697.94	17163.15
698.07	17188.89
698.21	17118.68
698.34	17053.14
698.47	16915.05
698.61	16807.39
698.74	16601.42
698.87	16716.11
699.01	16484.39
699.14	16514.82
699.27	16517.16
699.40	16252.68
699.54	16507.80
699.67	16299.49
699.80	16435.24
699.94	16381.41
700.07	16390.77
700.20	16159.06
700.34	16088.84
700.47	16042.03
700.60	16081.82
700.73	16079.48
700.87	15887.56
701.00	15702.65
701.13	15712.02
701.26	15435.83
701.40	15709.68
701.53	15534.14
701.66	15632.44
701.79	15222.84
701.93	15178.37
702.06	15382.00
702.19	15063.69
702.32	15157.31
702.46	14801.55
702.59	14895.17
702.72	14995.81
702.85	14787.50
702.99	14867.08
703.12	14586.22
703.25	14478.55
703.38	14497.28
703.51	14389.61
703.65	14455.15
703.78	14230.46
703.91	14047.90
704.04	14162.58
704.17	14244.50
704.31	13947.25
704.44	14090.02
704.57	14073.64
704.70	13811.50
704.83	13745.97
704.96	13825.54
705.10	13790.44
705.23	13797.46
>>>>>End Processed Spectral Data<<<<<
