SpectraSuite Data File
++++++++++++++++++++++++++++++++++++
Date: Fri Oct 25 10:47:52 EDT 2013
User: price-jones
Dark Spectrum Present: No
Reference Spectrum Present: No
Number of Sampled Component Spectra: 1
Spectrometers: USB2+H05261
Integration Time (usec): 100000 (USB2+H05261)
Spectra Averaged: 1 (USB2+H05261)
Boxcar Smoothing: 0 (USB2+H05261)
Correct for Electrical Dark: No (USB2+H05261)
Strobe/Lamp Enabled: No (USB2+H05261)
Correct for Detector Non-linearity: No (USB2+H05261)
Correct for Stray Light: No (USB2+H05261)
Number of Pixels in Processed Spectrum: 2048
>>>>>Begin Processed Spectral Data<<<<<
365.73	173.20
365.92	173.20
366.12	173.20
366.32	77.24
366.52	42.13
366.72	46.81
366.91	0.00
367.11	0.00
367.31	11.70
367.51	100.64
367.70	72.56
367.90	72.56
368.10	42.13
368.30	21.06
368.49	9.36
368.69	35.11
368.89	81.92
369.09	18.72
369.28	84.26
369.48	46.81
369.68	114.69
369.87	159.16
370.07	147.45
370.27	145.11
370.47	138.09
370.66	330.02
370.86	416.62
371.06	423.64
371.25	517.26
371.45	414.27
371.65	545.34
371.84	486.83
372.04	475.13
372.24	514.92
372.44	514.92
372.63	500.87
372.83	437.68
373.03	510.24
373.22	521.94
373.42	507.90
373.62	545.34
373.81	500.87
374.01	559.39
374.21	540.66
374.40	580.45
374.60	603.86
374.79	578.11
374.99	500.87
375.19	622.58
375.38	571.09
375.58	517.26
375.78	596.84
375.97	543.00
376.17	653.01
376.37	615.56
376.56	613.22
376.76	594.50
376.95	636.63
377.15	524.28
377.35	648.33
377.54	599.18
377.74	702.16
377.93	601.52
378.13	627.26
378.33	634.29
378.52	610.88
378.72	643.65
378.91	617.90
379.11	550.03
379.31	613.22
379.50	636.63
379.70	692.80
379.89	608.54
380.09	650.67
380.28	592.16
380.48	667.05
380.68	683.44
380.87	636.63
381.07	669.39
381.26	688.12
381.46	683.44
381.65	683.44
381.85	627.26
382.04	704.50
382.24	702.16
382.43	674.07
382.63	601.52
382.83	748.97
383.02	697.48
383.22	699.82
383.41	713.86
383.61	758.33
383.80	699.82
384.00	727.91
384.19	849.61
384.39	765.36
384.58	631.94
384.78	770.04
384.97	791.10
385.17	784.08
385.36	823.87
385.56	784.08
385.75	737.27
385.95	835.57
386.14	767.70
386.34	793.44
386.53	800.46
386.72	798.12
386.92	868.34
387.11	807.48
387.31	823.87
387.50	788.76
387.70	880.04
387.89	795.78
388.09	844.93
388.28	809.83
388.48	800.46
388.67	875.36
388.86	863.66
389.06	861.32
389.25	938.55
389.45	915.15
389.64	945.58
389.84	901.11
390.03	915.15
390.22	873.02
390.42	952.60
390.61	868.34
390.81	898.77
391.00	912.81
391.19	926.85
391.39	994.73
391.58	954.94
391.78	1022.81
391.97	912.81
392.16	961.96
392.36	1025.15
392.55	947.92
392.75	905.79
392.94	905.79
393.13	973.66
393.33	954.94
393.52	992.39
393.71	1041.54
393.91	1083.67
394.10	1048.56
394.29	1076.65
394.49	1116.44
394.68	1088.35
394.88	1107.07
395.07	1057.92
395.26	1200.69
395.46	1055.58
395.65	1114.10
395.84	1083.67
396.04	1184.31
396.23	1167.93
396.42	1043.88
396.62	1100.05
396.81	1221.76
397.00	1090.69
397.19	1142.18
397.39	1200.69
397.58	1329.42
397.77	1135.16
397.97	1320.06
398.16	1303.68
398.35	1327.08
398.55	1322.40
398.74	1294.32
398.93	1352.83
399.12	1256.87
399.32	1329.42
399.51	1401.98
399.70	1362.19
399.90	1331.76
400.09	1409.00
400.28	1497.94
400.47	1383.26
400.67	1453.47
400.86	1497.94
401.05	1460.49
401.24	1430.07
401.44	1509.65
401.63	1507.30
401.82	1474.54
402.01	1547.09
402.21	1472.20
402.40	1486.24
402.59	1523.69
402.78	1500.28
402.97	1535.39
403.17	1523.69
403.36	1556.46
403.55	1591.56
403.74	1614.97
403.93	1631.35
404.13	1668.80
404.32	1556.46
404.51	1640.72
404.70	1851.36
404.89	1715.61
405.09	1673.48
405.28	1732.00
405.47	1715.61
405.66	1746.04
405.85	1795.19
406.05	1687.53
406.24	1717.95
406.43	1867.75
406.62	1832.64
406.81	1844.34
407.00	1820.94
407.20	1720.29
407.39	1837.32
407.58	1853.70
407.77	1846.68
407.96	1930.94
408.15	2024.56
408.34	1973.07
408.54	1959.03
408.73	1902.86
408.92	1989.46
409.11	1994.14
409.30	1984.77
409.49	2054.99
409.68	2059.67
409.87	2143.93
410.07	2111.16
410.26	2008.18
410.45	2202.44
410.64	2179.04
410.83	2115.84
411.02	2066.69
411.21	2260.96
411.40	2319.47
411.59	2289.04
411.78	2256.28
411.98	2349.90
412.17	2293.72
412.36	2312.45
412.55	2366.28
412.74	2387.35
412.93	2434.16
413.12	2356.92
413.31	2483.31
413.50	2452.88
413.69	2490.33
413.88	2403.73
414.07	2518.42
414.26	2560.55
414.45	2558.21
414.64	2754.81
414.83	2729.06
415.02	2651.83
415.22	2747.79
415.41	2841.41
415.60	2738.43
415.79	2832.05
415.98	2881.20
416.17	2813.32
416.36	2883.54
416.55	2881.20
416.74	2970.14
416.93	2792.26
417.12	2836.73
417.31	3049.72
417.50	2918.65
417.69	3098.87
417.88	3000.57
418.07	3059.08
418.26	3084.83
418.45	3038.02
418.64	3206.53
418.83	3131.64
419.02	3176.11
419.21	3213.56
419.39	3187.81
419.58	3236.96
419.77	3073.12
419.96	3279.09
420.15	3398.46
420.34	3283.77
420.53	3166.74
420.72	3297.81
420.91	3389.10
421.10	3400.80
421.29	3480.38
421.48	3314.20
421.67	3318.88
421.86	3276.75
422.05	3414.84
422.24	3267.39
422.43	3506.12
422.61	3368.03
422.80	3428.88
422.99	3435.91
423.18	3442.93
423.37	3424.20
423.56	3435.91
423.75	3543.57
423.94	3375.05
424.13	3234.62
424.32	3246.32
424.50	3419.52
424.69	3695.71
424.88	3543.57
425.07	3515.48
425.26	3494.42
425.45	3576.34
425.64	3559.95
425.83	3534.21
426.01	3641.87
426.20	3609.11
426.39	3578.68
426.58	3508.46
426.77	3548.25
426.96	3590.38
427.15	3559.95
427.33	3712.09
427.52	3684.00
427.71	3723.79
427.90	3672.30
428.09	3712.09
428.28	3772.94
428.46	3679.32
428.65	3779.97
428.84	3988.27
429.03	3892.31
429.22	3709.75
429.40	3810.39
429.59	3875.93
429.78	3644.21
429.97	3632.51
430.16	3840.82
430.34	3857.20
430.53	3852.52
430.72	3889.97
430.91	3854.86
431.10	3943.80
431.28	4060.83
431.47	4145.09
431.66	4126.36
431.85	4074.87
432.03	4128.70
432.22	4292.54
432.41	4161.47
432.60	4149.77
432.79	4088.92
432.97	4264.46
433.16	4231.69
433.35	4112.32
433.54	4222.33
433.72	4159.13
433.91	4442.34
434.10	4271.48
434.28	4308.93
434.47	4283.18
434.66	4428.29
434.85	4318.29
435.03	4531.28
435.22	4423.61
435.41	4674.05
435.59	4510.21
435.78	4606.17
435.97	4603.83
436.16	4475.10
436.34	4755.97
436.53	4702.14
436.72	4681.07
436.90	4571.07
437.09	4470.42
437.28	4578.09
437.46	4554.68
437.65	4596.81
437.84	4695.11
438.02	4540.64
438.21	4683.41
438.40	4702.14
438.58	4727.88
438.77	4873.00
438.96	4957.25
439.14	4905.76
439.33	5118.75
439.52	5064.92
439.70	4945.55
439.89	4887.04
440.08	4961.94
440.26	5214.71
440.45	5109.39
440.63	5214.71
440.82	5252.16
441.01	5242.80
441.19	5095.35
441.38	5350.46
441.57	5460.47
441.75	5467.49
441.94	5650.05
442.12	5516.64
442.31	5575.16
442.50	5610.26
442.68	5586.86
442.87	5806.87
443.05	5624.31
443.24	5818.57
443.43	5603.24
443.61	5844.32
443.80	5991.77
443.98	5526.00
444.17	5591.54
444.35	5666.44
444.54	5933.26
444.73	5734.31
444.91	5839.64
445.10	5741.33
445.28	5795.17
445.47	5806.87
445.65	5767.08
445.84	5933.26
446.02	5966.03
446.21	5895.81
446.39	5879.43
446.58	5940.28
446.77	5930.92
446.95	5881.77
447.14	6101.78
447.32	6157.95
447.51	5982.41
447.69	5961.34
447.88	6017.52
448.06	6134.54
448.25	5947.30
448.43	6026.88
448.62	6076.03
448.80	5947.30
448.99	6033.90
449.17	6094.76
449.36	6132.20
449.54	6277.32
449.73	6160.29
449.91	6293.70
450.10	6279.66
450.28	6296.04
450.46	6434.13
450.65	6525.41
450.83	6476.26
451.02	6424.77
451.20	6361.58
451.39	6406.05
451.57	6518.39
451.76	6389.66
451.94	6265.61
452.13	6448.18
452.31	6389.66
452.49	6504.35
452.68	6480.94
452.86	6408.39
453.05	6464.56
453.23	6602.65
453.42	6382.64
453.60	6382.64
453.78	6729.04
453.97	6537.12
454.15	6576.91
454.34	6675.21
454.52	6724.36
454.70	6724.36
454.89	6848.41
455.07	6731.38
455.26	6782.87
455.44	6920.96
455.62	6817.98
455.81	6916.28
455.99	6927.99
456.17	7152.68
456.36	6953.73
456.54	7054.37
456.73	7236.94
456.91	7349.28
457.09	7255.66
457.28	7499.08
457.46	7148.00
457.64	7344.60
457.83	7274.38
458.01	7171.40
458.19	7281.41
458.38	7396.09
458.56	7508.44
458.74	7398.43
458.93	7346.94
459.11	7550.57
459.29	7377.37
459.48	7389.07
459.66	7641.85
459.84	7604.40
460.03	7747.17
460.21	7660.57
460.39	7789.30
460.57	7590.36
460.76	7611.42
460.94	7700.36
461.12	7777.60
461.31	7803.35
461.49	7721.43
461.67	7609.08
461.85	7967.18
462.04	7969.52
462.22	8334.65
462.40	8002.29
462.59	8023.36
462.77	7962.50
462.95	7946.12
463.13	7852.50
463.32	7955.48
463.50	8053.78
463.68	7932.08
463.86	8231.66
464.05	8013.99
464.23	7967.18
464.41	8086.55
464.59	7822.07
464.78	8388.48
464.96	8138.04
465.14	8039.74
465.32	8266.77
465.50	8325.29
465.69	8351.03
465.87	8454.02
466.05	8346.35
466.23	8226.98
466.41	8266.77
466.60	8648.28
466.78	8180.17
466.96	8458.70
467.14	8444.65
467.32	8446.99
467.51	8617.85
467.69	8072.51
467.87	8334.65
468.05	8362.73
468.23	8512.53
468.41	8423.59
468.60	8503.17
468.78	8439.97
468.96	8664.66
469.14	8671.68
469.32	8891.70
469.50	8650.62
469.69	8894.04
469.87	8870.63
470.05	8931.48
470.23	8762.97
470.41	8924.46
470.59	8973.61
470.77	8980.64
470.95	9142.13
471.14	9317.67
471.32	9146.81
471.50	9224.05
471.68	9149.15
471.86	9341.08
472.04	9556.41
472.22	9582.15
472.40	9296.61
472.58	9210.01
472.77	9628.96
472.95	9467.47
473.13	9947.28
473.31	9628.96
473.49	9542.36
473.67	9537.68
473.85	9699.18
474.03	9760.03
474.21	10015.15
474.39	10059.62
474.57	9994.09
474.75	10043.24
474.93	10061.96
475.12	10162.61
475.30	10122.82
475.48	10251.55
475.66	10209.42
475.84	10190.69
476.02	10506.66
476.20	10485.60
476.38	10637.73
476.56	10714.97
476.74	10656.46
476.92	10895.19
477.10	10656.46
477.28	10876.47
477.46	10902.22
477.64	10960.73
477.82	11229.89
478.00	11211.17
478.18	11454.58
478.36	11239.25
478.54	11428.84
478.72	11459.26
478.90	11613.74
479.08	11719.06
479.26	11995.25
479.44	11812.68
479.62	11967.16
479.80	12018.65
479.98	12259.73
480.16	12231.64
480.34	12372.07
480.52	12409.52
480.70	12524.21
480.88	12182.49
481.06	12465.69
481.24	12641.23
481.41	12662.30
481.59	12903.37
481.77	13177.22
481.95	13305.95
482.13	13420.63
482.31	13184.24
482.49	13390.20
482.67	13331.69
482.85	13572.77
483.03	13846.61
483.21	13741.29
483.39	14099.39
483.57	13982.36
483.74	14157.90
483.92	14307.69
484.10	13961.30
484.28	14466.85
484.46	14707.93
484.64	14981.77
484.82	14553.45
485.00	14717.29
485.18	14803.89
485.35	14991.13
485.53	14878.79
485.71	15339.87
485.89	15073.05
486.07	15169.01
486.25	15747.12
486.43	15513.07
486.61	15709.68
486.78	15939.05
486.96	16051.39
487.14	16114.59
487.32	16123.95
487.50	16407.16
487.68	16439.92
487.85	16713.77
488.03	17090.59
488.21	17177.19
488.39	16748.87
488.57	17249.75
488.75	17647.64
488.92	17764.67
489.10	17851.27
489.28	17722.54
489.46	17994.04
489.64	18122.77
489.81	18389.59
489.99	18422.36
490.17	18232.77
490.35	18466.83
490.53	18445.76
490.70	19054.30
490.88	18773.44
491.06	19033.24
491.24	18984.09
491.41	19126.86
491.59	19297.72
491.77	19105.79
491.95	19513.05
492.13	19311.76
492.30	19660.50
492.48	19875.83
492.66	19857.10
492.84	20072.43
493.01	20128.61
493.19	20622.46
493.37	20477.35
493.54	20617.78
493.72	20723.10
493.90	20793.32
494.08	20982.90
494.25	21266.11
494.43	21289.51
494.61	21268.45
494.79	21509.52
494.96	21266.11
495.14	21965.93
495.32	21661.66
495.49	21668.68
495.67	21846.56
495.85	22071.25
496.02	22199.98
496.20	22380.20
496.38	22389.56
496.55	22609.58
496.73	22883.42
496.91	22874.06
497.09	22593.19
497.26	22869.37
497.44	22991.08
497.62	23033.21
497.79	23484.94
497.97	23068.32
498.14	23346.84
498.32	23536.43
498.50	23480.25
498.67	23740.05
498.85	23948.36
499.03	24238.59
499.20	23955.38
499.38	24353.27
499.56	24409.45
499.73	24606.05
499.91	24304.12
500.08	24372.00
500.26	24435.19
500.44	24435.19
500.61	24912.66
500.79	24858.83
500.97	24561.58
501.14	25233.32
501.32	24917.34
501.49	25172.46
501.67	25259.06
501.84	25137.35
502.02	25317.57
502.20	25806.75
502.37	25532.90
502.55	25406.52
502.72	26265.49
502.90	25977.61
503.07	25741.21
503.25	25781.00
503.43	25991.65
503.60	26010.37
503.78	26265.49
503.95	26106.34
504.13	26267.83
504.30	26801.47
504.48	26553.38
504.65	26700.83
504.83	26988.72
505.01	26937.23
505.18	26904.46
505.36	27402.99
505.53	26984.04
505.71	27438.10
505.88	27297.67
506.06	27384.27
506.23	27009.78
506.41	27557.47
506.58	27440.44
506.76	27639.39
506.93	27868.76
507.11	27887.48
507.28	27615.98
507.46	27793.86
507.63	27641.73
507.81	28034.94
507.98	27838.33
508.16	28105.15
508.33	28367.29
508.50	28332.18
508.68	28797.95
508.85	28912.64
509.03	28561.56
509.20	28610.71
509.38	28739.44
509.55	28694.97
509.73	28800.29
509.90	29315.21
510.08	28989.88
510.25	29371.38
510.42	29249.67
510.60	29298.83
510.77	29394.79
510.95	29933.11
511.12	29668.63
511.30	29769.27
511.47	29869.92
511.64	29928.43
511.82	30122.69
511.99	30068.86
512.17	30288.87
512.34	30288.87
512.51	30478.46
512.69	30431.65
512.86	30354.41
513.04	30895.07
513.21	30630.59
513.38	30433.99
513.56	30597.82
513.73	30691.44
513.90	30831.88
514.08	30747.62
514.25	31197.00
514.43	31115.08
514.60	30693.79
514.77	30939.54
514.95	31690.85
515.12	31337.43
515.29	31290.62
515.47	31599.57
515.64	31988.10
515.81	31534.04
515.99	31199.34
516.16	31842.99
516.33	31697.88
516.51	32032.57
516.68	31592.55
516.85	31564.46
517.03	31634.68
517.20	31805.54
517.37	31803.20
517.54	32025.55
517.72	32102.79
517.89	31805.54
518.06	31700.22
518.24	32121.51
518.41	32271.31
518.58	32385.99
518.75	32575.58
518.93	33120.92
519.10	32781.54
519.27	32734.73
519.45	32748.78
519.62	33275.40
519.79	33172.41
519.96	32875.16
520.14	33195.82
520.31	32849.42
520.48	33752.87
520.65	33366.68
520.83	33734.14
521.00	33553.92
521.17	33991.60
521.34	33738.82
521.52	33574.98
521.69	34141.39
521.86	33755.21
522.03	33907.34
522.20	34103.95
522.38	34211.61
522.55	34508.86
522.72	33785.63
522.89	33844.15
523.07	34452.69
523.24	34396.51
523.41	34646.95
523.58	34459.71
523.75	35189.95
523.92	34953.56
524.10	34845.90
524.27	35037.82
524.44	35346.77
524.61	35206.34
524.78	35119.74
524.96	35281.24
525.13	35424.01
525.30	35517.63
525.47	35440.39
525.64	35416.99
525.81	35208.68
525.98	35452.09
526.16	35241.45
526.33	35709.55
526.50	35531.67
526.67	35412.31
526.84	35405.28
527.01	35391.24
527.18	35377.20
527.36	36203.41
527.53	35913.18
527.70	36161.28
527.87	36561.51
528.04	35915.52
528.21	36013.82
528.38	35761.05
528.55	36442.14
528.72	36273.62
528.89	36589.59
529.07	36491.29
529.24	36348.52
529.41	36776.84
529.58	36580.23
529.75	36769.82
529.92	36800.24
530.09	36830.67
530.26	37118.56
530.43	36982.80
530.60	36907.91
530.77	36802.58
530.94	37535.17
531.11	37324.52
531.28	37366.65
531.46	37331.54
531.63	37287.07
531.80	36999.19
531.97	36980.46
532.14	37139.62
532.31	37214.52
532.48	37799.65
532.65	37769.22
532.82	37535.17
532.99	38057.11
533.16	37563.26
533.33	37663.90
533.50	37603.05
533.67	37940.08
533.84	37603.05
534.01	38192.86
534.18	37839.44
534.35	38110.94
534.52	38019.66
534.69	38260.74
534.86	38124.99
535.03	38174.14
535.20	38377.76
535.37	38553.30
535.54	38714.80
535.71	38330.95
535.88	38373.08
536.05	38682.03
536.22	38675.01
536.38	38586.07
536.55	38651.61
536.72	38623.52
536.89	38394.15
537.06	38595.43
537.23	38630.54
537.40	38225.63
537.57	38689.06
537.74	38866.94
537.91	39229.72
538.08	39288.23
538.25	38567.35
538.42	39033.11
538.59	39491.86
538.75	38689.06
538.92	39246.10
539.09	39079.92
539.26	38955.88
539.43	38878.64
539.60	39709.53
539.77	39271.85
539.94	39470.79
540.11	39648.68
540.28	39285.89
540.44	39161.84
540.61	39283.55
540.78	39412.28
540.95	39599.52
541.12	39491.86
541.29	39620.59
541.46	39473.13
541.62	39957.63
541.79	39959.97
541.96	39536.33
542.13	39243.76
542.30	40140.19
542.47	40037.20
542.63	40123.80
542.80	39978.69
542.97	40229.13
543.14	40493.61
543.31	40484.25
543.48	40191.68
543.64	40451.48
543.81	40636.38
543.98	41151.30
544.15	40767.45
544.32	40559.14
544.48	41240.24
544.65	40844.69
544.82	40994.48
544.99	40327.43
545.16	41233.22
545.32	40840.01
545.49	41366.63
545.66	41181.73
545.83	41301.09
546.00	41390.03
546.16	41310.46
546.33	40935.97
546.50	40912.56
546.67	40938.31
546.83	40751.07
547.00	41277.69
547.17	41008.53
547.34	41282.37
547.50	41324.50
547.67	41509.40
547.84	41242.58
548.00	41553.87
548.17	41762.18
548.34	41521.10
548.51	42064.11
548.67	42110.92
548.84	41965.81
549.01	41844.10
549.18	41614.72
549.34	41691.96
549.51	42328.59
549.68	42241.99
549.84	41605.36
550.01	42380.08
550.18	41813.67
550.34	42024.32
550.51	42178.79
550.68	41993.89
550.84	41710.69
551.01	41584.30
551.18	42052.41
551.34	41916.65
551.51	42286.46
551.68	41902.61
551.84	42459.66
552.01	41991.55
552.18	42249.01
552.34	42323.91
552.51	42583.71
552.68	42684.35
552.84	42363.70
553.01	42904.36
553.18	42068.79
553.34	42532.22
553.51	42579.03
553.67	42272.42
553.84	42817.76
554.01	42621.16
554.17	43021.39
554.34	42862.23
554.51	42904.36
554.67	42913.72
554.84	42784.99
555.00	42794.36
555.17	42787.33
555.33	42546.26
555.50	42658.60
555.67	43122.03
555.83	42834.14
556.00	43246.08
556.16	43194.59
556.33	43222.67
556.50	43000.32
556.66	43124.37
556.83	42557.96
556.99	42909.04
557.16	43545.67
557.32	43246.08
557.49	43728.23
557.65	43129.05
557.82	43100.97
557.98	43082.24
558.15	43498.86
558.32	43580.78
558.48	43332.68
558.65	43292.89
558.81	43641.63
558.98	43274.16
559.14	43583.12
559.31	43035.43
559.47	43318.64
559.64	43236.72
559.80	43585.46
559.97	43978.67
560.13	43571.41
560.30	43721.21
560.46	43718.87
560.63	43576.09
560.79	43442.68
560.96	44147.18
561.12	43660.35
561.29	43704.82
561.45	43690.78
561.61	43466.09
561.78	43732.91
561.94	43569.07
562.11	43751.63
562.27	43548.01
562.44	43367.79
562.60	43524.60
562.77	43962.28
562.93	44100.37
563.10	43634.61
563.26	43711.84
563.42	43805.47
563.59	43732.91
563.75	43721.21
563.92	44006.75
564.08	44240.81
564.24	43922.49
564.41	43779.72
564.57	43922.49
564.74	43878.02
564.90	44067.61
565.07	43887.39
565.23	43927.17
565.39	44514.65
565.56	43779.72
565.72	44217.40
565.88	43955.26
566.05	44128.46
566.21	43966.96
566.38	43744.61
566.54	43583.12
566.70	43955.26
566.87	44418.69
567.03	44128.46
567.19	44580.18
567.36	44439.75
567.52	44121.44
567.68	44123.78
567.85	44289.96
568.01	44109.74
568.17	44346.13
568.34	44191.65
568.50	44282.94
568.66	44512.31
568.83	44474.86
568.99	44289.96
569.15	44083.99
569.32	44385.92
569.48	44168.25
569.64	44662.10
569.81	44711.25
569.97	44137.82
570.13	43927.17
570.30	44168.25
570.46	43807.81
570.62	44018.46
570.78	44374.22
570.95	44025.48
571.11	44268.89
571.27	44526.35
571.43	44350.81
571.60	44914.88
571.76	44549.76
571.92	44655.08
572.09	44435.07
572.25	43962.28
572.41	44191.65
572.57	44362.51
572.74	44804.88
572.90	44877.43
573.06	44722.96
573.22	44603.59
573.38	44406.98
573.55	44465.50
573.71	44816.58
573.87	44662.10
574.03	44238.47
574.20	44418.69
574.36	44392.94
574.52	45003.82
574.68	44406.98
574.84	44467.84
575.01	44016.11
575.17	44538.05
575.33	44481.88
575.49	44137.82
575.65	44781.47
575.82	44823.60
575.98	44760.40
576.14	44818.92
576.30	44385.92
576.46	44631.68
576.62	44479.54
576.79	44168.25
576.95	44058.24
577.11	44259.53
577.27	44378.90
577.43	44194.00
577.59	44648.06
577.75	44563.80
577.92	44430.39
578.08	44163.57
578.24	43997.39
578.40	44348.47
578.56	44516.99
578.72	44215.06
578.88	44800.19
579.04	44870.41
579.21	44673.81
579.37	44718.28
579.53	44650.40
579.69	44563.80
579.85	44851.69
580.01	44947.65
580.17	44725.30
580.33	45277.66
580.49	44973.39
580.65	44898.50
580.82	44802.53
580.98	44704.23
581.14	44594.23
581.30	45034.25
581.46	44933.60
581.62	44797.85
581.78	44296.98
581.94	45069.36
582.10	44610.61
582.26	45418.10
582.42	44662.10
582.58	44725.30
582.74	44708.91
582.90	44671.46
583.06	45200.43
583.22	44678.49
583.38	44879.77
583.54	44779.13
583.70	44278.25
583.86	44832.96
584.02	44570.82
584.18	44767.43
584.34	44692.53
584.50	45027.23
584.66	44793.17
584.82	44233.78
584.98	44687.85
585.14	44746.36
585.30	44641.04
585.46	44650.40
585.62	44392.94
585.78	44561.46
585.94	44701.89
586.10	44769.77
586.26	44854.03
586.42	44952.33
586.58	44884.45
586.74	44978.07
586.90	45113.83
587.06	44828.28
587.22	45027.23
587.38	44495.92
587.54	44889.13
587.70	45165.32
587.86	44985.10
588.02	44737.00
588.18	45247.24
588.34	44896.16
588.49	44601.25
588.65	44421.03
588.81	44498.26
588.97	44610.61
589.13	44650.40
589.29	44811.90
589.45	44982.76
589.61	45146.59
589.77	44884.45
589.93	44980.42
590.08	45305.75
590.24	45050.63
590.40	45024.89
590.56	45500.01
590.72	45020.20
590.88	44938.29
591.04	44900.84
591.20	45518.74
591.35	45064.67
591.51	45373.63
591.67	45352.56
591.83	44680.83
591.99	44900.84
592.15	45162.98
592.31	45062.33
592.46	44942.97
592.62	45052.97
592.78	44996.80
592.94	44872.75
593.10	45008.50
593.26	45221.49
593.41	45090.42
593.57	45406.39
593.73	45287.03
593.89	44971.05
594.05	44989.78
594.20	44797.85
594.36	45476.61
594.52	45345.54
594.68	44966.37
594.84	45095.10
594.99	45422.78
595.15	44783.81
595.31	45579.59
595.47	45544.48
595.62	45268.30
595.78	45226.17
595.94	45446.18
596.10	45345.54
596.25	45120.85
596.41	45371.28
596.57	45179.36
596.73	45198.09
596.88	44748.70
597.04	45172.34
597.20	45478.95
597.36	45209.79
597.51	45214.47
597.67	45668.53
597.83	45324.47
597.99	45249.58
598.14	44879.77
598.30	45200.43
598.46	45298.73
598.61	45146.59
598.77	45146.59
598.93	45375.97
599.09	44924.24
599.24	45626.40
599.40	45647.47
599.56	45216.81
599.71	45263.62
599.87	45710.66
600.03	45214.47
600.18	45265.96
600.34	45261.28
600.50	45390.01
600.65	44959.35
600.81	45282.34
600.97	45177.02
601.12	45542.14
601.28	45258.94
601.44	45312.77
601.59	44949.99
601.75	45214.47
601.91	45205.11
602.06	45043.61
602.22	45331.50
602.37	45158.30
602.53	45401.71
602.69	45413.41
602.84	45698.96
603.00	45048.29
603.16	44737.00
603.31	44978.07
603.47	44945.31
603.62	45394.69
603.78	45514.06
603.94	45134.89
604.09	45282.34
604.25	45212.13
604.40	45160.64
604.56	44837.64
604.71	45343.20
604.87	44954.67
605.03	44996.80
605.18	44959.35
605.34	45191.06
605.49	44552.10
605.65	44657.42
605.80	45212.13
605.96	45270.64
606.12	44987.44
606.27	45200.43
606.43	45043.61
606.58	44903.18
606.74	45045.95
606.89	44566.14
607.05	44959.35
607.20	44947.65
607.36	45153.62
607.51	45380.65
607.67	45097.44
607.82	44949.99
607.98	44732.32
608.13	44858.71
608.29	45099.78
608.44	44823.60
608.60	44535.71
608.75	44325.07
608.91	44844.66
609.06	44381.24
609.22	45022.54
609.37	44931.26
609.53	44699.55
609.68	44659.76
609.84	44659.76
609.99	44563.80
610.15	45092.76
610.30	44289.96
610.46	44343.79
610.61	44645.72
610.76	44879.77
610.92	44807.22
611.07	44474.86
611.23	44289.96
611.38	44280.60
611.54	44261.87
611.69	44360.17
611.84	44203.36
612.00	44409.32
612.15	44205.70
612.31	44458.48
612.46	44596.57
612.62	44839.98
612.77	44680.83
612.92	44790.83
613.08	44161.23
613.23	44313.36
613.39	44233.78
613.54	44179.95
613.69	44350.81
613.85	44563.80
614.00	44725.30
614.15	44524.01
614.31	44318.04
614.46	44636.36
614.62	44257.19
614.77	43978.67
614.92	43948.24
615.08	43896.75
615.23	44053.56
615.38	44219.74
615.54	43641.63
615.69	44016.11
615.84	44016.11
616.00	44144.84
616.15	43934.20
616.30	44170.59
616.46	43672.06
616.61	43873.34
616.76	43487.15
616.92	43875.68
617.07	43723.55
617.22	43992.71
617.37	43894.41
617.53	43910.79
617.68	44065.27
617.83	43894.41
617.99	43938.88
618.14	43660.35
618.29	43751.63
618.45	43454.39
618.60	43693.12
618.75	43655.67
618.90	43959.94
619.06	43831.21
619.21	43473.11
619.36	43618.22
619.51	43452.05
619.67	43349.06
619.82	43770.36
619.97	43473.11
620.12	43342.04
620.28	43426.30
620.43	43538.65
620.58	43658.01
620.73	43578.43
620.89	43356.08
621.04	43278.85
621.19	43622.90
621.34	43763.34
621.49	42820.10
621.65	42951.17
621.80	43353.74
621.95	42794.36
622.10	43012.02
622.25	42953.51
622.41	43288.21
622.56	43232.04
622.71	43503.54
622.86	43133.73
623.01	42934.79
623.16	43393.53
623.32	43239.06
623.47	43484.81
623.62	42920.74
623.77	42834.14
623.92	42663.28
624.07	42401.14
624.23	42670.31
624.38	42831.80
624.53	42745.20
624.68	42583.71
624.83	42321.57
624.98	42667.97
625.13	42614.13
625.29	42506.47
625.44	42588.39
625.59	42120.28
625.74	42370.72
625.89	42007.94
626.04	41928.36
626.19	42281.78
626.34	42150.71
626.49	42260.71
626.65	42206.88
626.80	42656.26
626.95	42405.83
627.10	41998.57
627.25	42099.22
627.40	41801.97
627.55	42178.79
627.70	41394.71
627.85	41888.57
628.00	42043.04
628.15	42209.22
628.30	42146.03
628.45	41993.89
628.60	41816.01
628.76	41979.85
628.91	42457.32
629.06	42082.83
629.21	42078.15
629.36	41511.74
629.51	41853.46
629.66	41762.18
629.81	41567.91
629.96	41729.41
630.11	41820.69
630.26	41490.68
630.41	41769.20
630.56	41488.34
630.71	42007.94
630.86	41640.47
631.01	41404.08
631.16	41677.92
631.31	41165.34
631.46	40666.81
631.61	41450.89
631.76	41031.93
631.91	41471.95
632.06	41694.30
632.21	41560.89
632.36	41333.86
632.51	41050.66
632.66	41345.56
632.81	40872.78
632.96	41127.89
633.10	40662.13
633.25	40950.01
633.40	41291.73
633.55	41275.35
633.70	41216.83
633.85	41085.76
634.00	41361.95
634.15	41120.87
634.30	40910.22
634.45	41024.91
634.60	40767.45
634.75	40987.46
634.90	40982.78
635.05	40900.86
635.19	40971.08
635.34	40985.12
635.49	41134.92
635.64	40479.57
635.79	40605.95
635.94	40542.76
636.09	40704.26
636.24	40311.05
636.39	40161.25
636.53	40601.27
636.68	40446.80
636.83	40439.78
636.98	40514.67
637.13	39966.99
637.28	40858.73
637.43	40795.54
637.57	40765.11
637.72	40662.13
637.87	40559.14
638.02	40175.30
638.17	40170.61
638.32	40004.44
638.46	40289.98
638.61	40327.43
638.76	39941.24
638.91	39725.91
639.06	40243.17
639.20	40100.40
639.35	40327.43
639.50	39999.76
639.65	40149.55
639.80	40292.32
639.94	39988.05
640.09	39852.30
640.24	39323.34
640.39	39943.58
640.54	39545.69
640.68	39922.52
640.83	39367.81
640.98	39674.42
641.13	39775.06
641.27	39978.69
641.42	39674.42
641.57	39576.12
641.72	39789.11
641.86	39571.44
642.01	39255.46
642.16	39505.90
642.31	39255.46
642.45	39559.73
642.60	39187.59
642.75	39491.86
642.90	39569.10
643.04	39709.53
643.19	39435.69
643.34	39702.51
643.48	39365.47
643.63	39681.44
643.78	39009.71
643.93	39014.39
644.07	39189.93
644.22	38880.98
644.37	39103.33
644.51	38834.17
644.66	39086.95
644.81	39199.29
644.95	39615.91
645.10	39250.78
645.25	39667.40
645.39	39449.73
645.54	39164.18
645.69	39086.95
645.83	39023.75
645.98	38609.48
646.13	39124.40
646.27	38696.08
646.42	39035.45
646.57	39147.80
646.71	39110.35
646.86	38651.61
647.00	39313.98
647.15	38808.42
647.30	38836.51
647.44	38820.13
647.59	39173.55
647.74	38316.91
647.88	38726.50
648.03	38581.39
648.17	38852.89
648.32	38242.01
648.47	38770.97
648.61	38389.47
648.76	38883.32
648.90	38801.40
649.05	38953.54
649.20	38714.80
649.34	38691.40
649.49	38410.53
649.63	38590.75
649.78	38630.54
649.92	38333.29
650.07	38597.77
650.21	38305.21
650.36	38265.42
650.51	38277.12
650.65	38925.45
650.80	38466.70
650.94	38604.80
651.09	38316.91
651.23	38038.39
651.38	37993.92
651.52	37986.89
651.67	38108.60
651.81	38211.59
651.96	37912.00
652.10	37912.00
652.25	37591.34
652.39	37701.35
652.54	37982.21
652.68	37764.54
652.83	37729.44
652.97	38234.99
653.12	38040.73
653.26	38022.00
653.41	37731.78
653.55	37317.50
653.70	37528.15
653.84	38000.94
653.99	37628.79
654.13	38057.11
654.27	37858.17
654.42	37415.80
654.56	37130.26
654.71	38022.00
654.85	37516.45
655.00	37488.36
655.14	37060.04
655.29	36765.14
655.43	37139.62
655.57	37184.09
655.72	36968.76
655.86	37111.53
656.01	37081.11
656.15	37420.48
656.30	37067.06
656.44	37074.09
656.58	37024.93
656.73	37036.64
656.87	37151.32
657.01	36793.22
657.16	36872.80
657.30	37078.77
657.45	37284.73
657.59	36748.75
657.73	36587.25
657.88	36650.45
658.02	37022.59
658.16	36912.59
658.31	37024.93
658.45	37076.43
658.60	36744.07
658.74	36823.65
658.88	36989.83
659.03	36755.77
659.17	36816.63
659.31	36563.85
659.46	36561.51
659.60	36297.03
659.74	36180.00
659.89	36350.86
660.03	36252.56
660.17	36636.41
660.32	36231.49
660.46	36367.24
660.60	36467.89
660.74	35756.36
660.89	36369.58
661.03	35555.08
661.17	35845.30
661.32	35791.47
661.46	35772.75
661.60	35812.54
661.74	35875.73
661.89	35934.24
662.03	35526.99
662.17	35557.42
662.31	35349.11
662.46	35459.12
662.60	35690.83
662.74	35866.37
662.88	35379.54
663.03	35285.92
663.17	35424.01
663.31	35323.36
663.45	35290.60
663.60	35531.67
663.74	35330.39
663.88	35105.70
664.02	34628.23
664.17	35023.78
664.31	34574.39
664.45	35117.40
664.59	35012.07
664.73	34433.96
664.88	35007.39
665.02	34424.60
665.16	34773.34
665.30	34794.40
665.44	34494.82
665.59	34066.50
665.73	34108.63
665.87	34328.64
666.01	34132.03
666.15	34485.45
666.29	34295.87
666.44	34188.21
666.58	34171.82
666.72	34185.86
666.86	34199.91
667.00	34464.39
667.14	34237.36
667.28	34005.64
667.43	33954.15
667.57	33528.17
667.71	33937.77
667.85	33764.57
667.99	33443.91
668.13	33535.20
668.27	33270.72
668.41	33907.34
668.56	33546.90
668.70	33432.21
668.84	33701.37
668.98	33280.08
669.12	33347.95
669.26	33362.00
669.40	33078.79
669.54	33256.67
669.68	32868.14
669.82	33237.95
669.96	32870.48
670.10	32493.66
670.25	32753.46
670.39	32868.14
670.53	32554.51
670.67	32453.87
670.81	32863.46
670.95	32680.90
671.09	32477.27
671.23	32404.72
671.37	32601.32
671.51	32411.74
671.65	31948.31
671.79	31555.10
671.93	31981.08
672.07	32154.28
672.21	32222.16
672.35	31704.90
672.49	32065.34
672.63	32388.33
672.77	31789.16
672.91	31482.55
673.05	31644.04
673.19	31697.88
673.33	31288.28
673.47	31391.26
673.61	31548.08
673.75	31517.65
673.89	30780.39
674.03	30806.13
674.17	30899.75
674.31	31470.84
674.45	30925.50
674.59	31264.88
674.73	31115.08
674.87	30958.27
675.01	30944.22
675.15	30639.95
675.29	30787.41
675.43	30766.34
675.56	30471.43
675.70	30485.48
675.84	29593.73
675.98	29387.77
676.12	30017.37
676.26	30206.95
676.40	29518.84
676.54	29771.61
676.68	29631.18
676.82	29462.66
676.96	29710.76
677.10	29570.33
677.23	29336.27
677.37	29308.19
677.51	29280.10
677.65	29490.75
677.79	28797.95
677.93	28975.83
678.07	29069.45
678.21	28371.97
678.34	28741.78
678.48	28425.81
678.62	28540.49
678.76	28645.82
678.90	28350.91
679.04	28299.42
679.18	28404.74
679.31	28023.23
679.45	27924.93
679.59	27793.86
679.73	27995.15
679.87	28154.30
680.00	27786.84
680.14	27931.95
680.28	27793.86
680.42	27379.59
680.56	27515.34
680.70	27297.67
680.83	27325.75
680.97	27232.13
681.11	26918.50
681.25	26810.84
681.39	26532.31
681.52	27070.64
681.66	26885.73
681.80	26916.16
681.94	26602.53
682.07	26551.04
682.21	26668.06
682.35	26122.72
682.49	26375.50
682.62	26366.13
682.76	26033.78
682.90	25797.38
683.04	26050.16
683.17	25891.01
683.31	26214.00
683.45	25757.60
683.59	25802.07
683.72	25443.96
683.86	25385.45
684.00	25238.00
684.13	25422.90
684.27	25652.27
684.41	25413.54
684.55	24900.96
684.68	24886.92
684.82	24933.73
684.96	24584.99
685.09	24713.72
685.23	24538.18
685.37	24526.47
685.50	24313.48
685.64	24350.93
685.78	24243.27
685.91	24332.21
686.05	24189.44
686.19	24039.64
686.32	23796.23
686.46	23826.65
686.60	23737.71
686.73	23667.50
686.87	23583.24
687.01	23250.88
687.14	23374.93
687.28	23145.56
687.42	23295.35
687.55	22937.25
687.69	22974.70
687.82	22913.84
687.96	23232.16
688.10	22778.09
688.23	23012.15
688.37	22466.80
688.50	22513.61
688.64	22366.16
688.78	22246.79
688.91	22427.01
689.05	22057.21
689.18	22050.19
689.32	21696.77
689.46	22003.38
689.59	22405.95
689.73	21937.84
689.86	21722.51
690.00	21626.55
690.13	21820.81
690.27	21422.92
690.41	21649.96
690.54	21362.07
690.68	21373.77
690.81	21118.65
690.95	20989.92
691.08	21060.14
691.22	21025.03
691.35	20994.61
691.49	20959.50
691.62	21195.89
691.76	20863.54
691.89	20662.25
692.03	20645.87
692.16	20606.08
692.30	20484.37
692.43	20446.92
692.57	20409.47
692.70	20414.15
692.84	20271.38
692.97	19623.05
693.11	19566.88
693.24	19690.93
693.38	19520.07
693.51	19197.07
693.65	19674.54
693.78	19150.26
693.92	19590.28
694.05	19562.20
694.19	19297.72
694.32	18834.29
694.45	19080.05
694.59	18920.89
694.72	19091.75
694.86	18857.70
694.99	18792.16
695.13	18890.46
695.26	18118.09
695.39	18078.30
695.53	18338.10
695.66	18422.36
695.80	18270.22
695.93	18005.74
696.07	18031.49
696.20	18260.86
696.33	18099.36
696.47	18022.12
696.60	18125.11
696.73	18054.89
696.87	17797.43
697.00	17755.30
697.14	17598.49
697.27	17469.76
697.40	17451.03
697.54	17411.25
697.67	17221.66
697.80	17310.60
697.94	16947.82
698.07	16922.07
698.21	17076.55
698.34	16996.97
698.47	16884.62
698.61	16657.59
698.74	16643.55
698.87	16552.27
699.01	16255.02
699.14	16332.26
699.27	16493.76
699.40	16512.48
699.54	16240.98
699.67	15992.88
699.80	16084.16
699.94	16056.08
700.07	16217.57
700.20	15829.04
700.34	15992.88
700.47	15864.15
700.60	15971.82
700.73	15829.04
700.87	15386.68
701.00	15527.11
701.13	15412.43
701.26	15552.86
701.40	15403.07
701.53	15386.68
701.66	15297.74
701.79	15356.25
701.93	14970.07
702.06	14918.57
702.19	14897.51
702.32	15206.46
702.46	14731.33
702.59	14710.27
702.72	14691.54
702.85	14846.02
702.99	14518.34
703.12	14614.30
703.25	14497.28
703.38	14675.16
703.51	14478.55
703.65	14307.69
703.78	14317.06
703.91	14604.94
704.04	14277.27
704.17	13806.82
704.31	13825.54
704.44	13675.75
704.57	13565.74
704.70	13715.54
704.83	13853.63
704.96	13785.76
705.10	13682.77
705.23	13743.63
>>>>>End Processed Spectral Data<<<<<
