SpectraSuite Data File
++++++++++++++++++++++++++++++++++++
Date: Fri Oct 25 10:44:09 EDT 2013
User: price-jones
Dark Spectrum Present: No
Reference Spectrum Present: No
Number of Sampled Component Spectra: 1
Spectrometers: USB2+H05261
Integration Time (usec): 100000 (USB2+H05261)
Spectra Averaged: 1 (USB2+H05261)
Boxcar Smoothing: 0 (USB2+H05261)
Correct for Electrical Dark: No (USB2+H05261)
Strobe/Lamp Enabled: No (USB2+H05261)
Correct for Detector Non-linearity: No (USB2+H05261)
Correct for Stray Light: No (USB2+H05261)
Number of Pixels in Processed Spectrum: 2048
>>>>>Begin Processed Spectral Data<<<<<
365.73	161.50
365.92	161.50
366.12	161.50
366.32	32.77
366.52	67.88
366.72	53.83
366.91	23.41
367.11	0.00
367.31	67.88
367.51	46.81
367.70	32.77
367.90	0.00
368.10	46.81
368.30	37.45
368.49	81.92
368.69	25.75
368.89	67.88
369.09	25.75
369.28	114.69
369.48	91.28
369.68	53.83
369.87	117.03
370.07	117.03
370.27	0.00
370.47	184.90
370.66	404.91
370.86	416.62
371.06	468.11
371.25	514.92
371.45	411.93
371.65	416.62
371.84	428.32
372.04	456.40
372.24	547.69
372.44	482.15
372.63	468.11
372.83	557.05
373.03	500.87
373.22	503.22
373.42	524.28
373.62	442.36
373.81	491.51
374.01	578.11
374.21	519.60
374.40	514.92
374.60	622.58
374.79	631.94
374.99	589.82
375.19	610.88
375.38	538.32
375.58	636.63
375.78	688.12
375.97	603.86
376.17	631.94
376.37	641.31
376.56	603.86
376.76	580.45
376.95	592.16
377.15	636.63
377.35	594.50
377.54	685.78
377.74	685.78
377.93	634.29
378.13	683.44
378.33	669.39
378.52	676.41
378.72	603.86
378.91	741.95
379.11	669.39
379.31	692.80
379.50	629.60
379.70	688.12
379.89	692.80
380.09	653.01
380.28	638.97
380.48	706.84
380.68	704.50
380.87	662.37
381.07	727.91
381.26	667.05
381.46	784.08
381.65	727.91
381.85	716.20
382.04	683.44
382.24	704.50
382.43	650.67
382.63	699.82
382.83	709.18
383.02	692.80
383.22	697.48
383.41	667.05
383.61	660.03
383.80	851.96
384.00	830.89
384.19	795.78
384.39	844.93
384.58	800.46
384.78	812.17
384.97	828.55
385.17	786.42
385.36	746.63
385.56	828.55
385.75	812.17
385.95	809.83
386.14	847.27
386.34	793.44
386.53	793.44
386.72	884.72
386.92	884.72
387.11	901.11
387.31	898.77
387.50	809.83
387.70	905.79
387.89	887.06
388.09	973.66
388.28	898.77
388.48	903.45
388.67	964.30
388.86	905.79
389.06	910.47
389.25	985.37
389.45	959.62
389.64	959.62
389.84	950.26
390.03	1015.79
390.22	1050.90
390.42	903.45
390.61	1008.77
390.81	887.06
391.00	997.07
391.19	1074.31
391.39	884.72
391.58	1064.94
391.78	1067.28
391.97	1088.35
392.16	1001.75
392.36	1001.75
392.55	999.41
392.75	1114.10
392.94	1078.99
393.13	1086.01
393.33	973.66
393.52	1048.56
393.71	1170.27
393.91	1142.18
394.10	1081.33
394.29	1114.10
394.49	1256.87
394.68	1165.59
394.88	1205.38
395.07	1137.50
395.26	1172.61
395.46	1277.93
395.65	1238.14
395.84	1132.82
396.04	1233.46
396.23	1165.59
396.42	1116.44
396.62	1123.46
396.81	1203.04
397.00	1200.69
397.19	1196.01
397.39	1336.45
397.58	1418.36
397.77	1406.66
397.97	1474.54
398.16	1425.39
398.35	1399.64
398.55	1432.41
398.74	1493.26
398.93	1497.94
399.12	1472.20
399.32	1425.39
399.51	1446.45
399.70	1523.69
399.90	1584.54
400.09	1619.65
400.28	1673.48
400.47	1582.20
400.67	1633.69
400.86	1568.16
401.05	1624.33
401.24	1629.01
401.44	1661.78
401.63	1687.53
401.82	1633.69
402.01	1713.27
402.21	1645.40
402.40	1664.12
402.59	1722.63
402.78	1860.73
402.97	1783.49
403.17	1706.25
403.36	1818.60
403.55	1825.62
403.74	1795.19
403.93	1846.68
404.13	1834.98
404.32	1888.81
404.51	1877.11
404.70	1933.28
404.89	1795.19
405.09	1874.77
405.28	1984.77
405.47	1975.41
405.66	1984.77
405.85	1968.39
406.05	1930.94
406.24	2024.56
406.43	2045.63
406.62	2115.84
406.81	2118.18
407.00	2111.16
407.20	2029.24
407.39	2024.56
407.58	2146.27
407.77	2209.47
407.96	2157.97
408.15	2239.89
408.34	2143.93
408.54	2286.70
408.73	2300.75
408.92	2282.02
409.11	2230.53
409.30	2242.23
409.49	2263.30
409.68	2272.66
409.87	2272.66
410.07	2361.60
410.26	2427.14
410.45	2275.00
410.64	2389.69
410.83	2417.77
411.02	2450.54
411.21	2544.16
411.40	2637.78
411.59	2565.23
411.78	2553.52
411.98	2602.68
412.17	2553.52
412.36	2616.72
412.55	2724.38
412.74	2597.99
412.93	2682.25
413.12	2644.81
413.31	2956.10
413.50	2773.53
413.69	2822.69
413.88	2895.24
414.07	2911.63
414.26	2979.50
414.45	2848.43
414.64	2937.37
414.83	2963.12
415.02	3136.32
415.22	3150.36
415.41	3084.83
415.60	3040.36
415.79	3178.45
415.98	3248.66
416.17	3279.09
416.36	3243.98
416.55	3066.10
416.74	3220.58
416.93	3155.04
417.12	3180.79
417.31	3361.01
417.50	3361.01
417.69	3499.10
417.88	3342.28
418.07	3314.20
418.26	3398.46
418.45	3440.59
418.64	3740.18
418.83	3478.04
419.02	3391.44
419.21	3585.70
419.39	3475.70
419.58	3508.46
419.77	3522.51
419.96	3529.53
420.15	3684.00
420.34	3641.87
420.53	3709.75
420.72	3758.90
420.91	3775.28
421.10	3758.90
421.29	3723.79
421.48	3684.00
421.67	3779.97
421.86	3644.21
422.05	3845.50
422.24	3749.54
422.43	3868.91
422.61	3857.20
422.80	3936.78
422.99	3896.99
423.18	3742.52
423.37	3906.35
423.56	3838.48
423.75	3922.74
423.94	3911.04
424.13	3653.58
424.32	3660.60
424.50	3911.04
424.69	3904.01
424.88	4086.58
425.07	3978.91
425.26	3946.14
425.45	3880.61
425.64	4007.00
425.83	3885.29
426.01	4049.13
426.20	3946.14
426.39	3962.53
426.58	3899.33
426.77	3721.45
426.96	3920.40
427.15	4007.00
427.33	3955.51
427.52	3976.57
427.71	4194.24
427.90	4135.73
428.09	4283.18
428.28	4145.09
428.46	4163.81
428.65	4325.31
428.84	4285.52
429.03	4215.30
429.22	4128.70
429.40	4227.01
429.59	4135.73
429.78	3934.44
429.97	3925.08
430.16	4121.68
430.34	4091.26
430.53	4128.70
430.72	4196.58
430.91	4100.62
431.10	4337.01
431.28	4465.74
431.47	4641.28
431.66	4561.70
431.85	4332.33
432.03	4358.08
432.22	4615.54
432.41	4578.09
432.60	4688.09
432.79	4624.90
432.97	4793.42
433.16	4638.94
433.35	4690.43
433.54	4566.39
433.72	4667.03
433.91	4498.51
434.10	4814.48
434.28	4678.73
434.47	4788.74
434.66	4880.02
434.85	4943.21
435.03	4910.44
435.22	4873.00
435.41	5210.03
435.59	5008.75
435.78	5203.01
435.97	5064.92
436.16	4933.85
436.34	4959.60
436.53	5074.28
436.72	5195.99
436.90	5067.26
437.09	5252.16
437.28	5184.29
437.46	5116.41
437.65	5100.03
437.84	5032.15
438.02	5078.96
438.21	5046.20
438.40	5116.41
438.58	5497.92
438.77	5362.17
438.96	5357.49
439.14	5521.32
439.33	5591.54
439.52	5516.64
439.70	5479.19
439.89	5596.22
440.08	5488.56
440.26	5638.35
440.45	5734.31
440.63	5750.70
440.82	5879.43
441.01	5947.30
441.19	5858.36
441.38	5851.34
441.57	6015.18
441.75	6190.72
441.94	6265.61
442.12	6256.25
442.31	6235.19
442.50	6272.64
442.68	6127.52
442.87	6228.17
443.05	6237.53
443.24	6471.58
443.43	6436.47
443.61	6487.96
443.80	6640.10
443.98	6408.39
444.17	6164.97
444.35	6497.33
444.54	6539.46
444.73	6506.69
444.91	6478.60
445.10	6471.58
445.28	6382.64
445.47	6305.40
445.65	6300.72
445.84	6455.20
446.02	6546.48
446.21	6544.14
446.39	6574.56
446.58	6619.04
446.77	6750.10
446.95	6576.91
447.14	6558.18
447.32	6700.95
447.51	6698.61
447.69	6595.63
447.88	6604.99
448.06	6647.12
448.25	6506.69
448.43	6642.44
448.62	6679.89
448.80	6644.78
448.99	6771.17
449.17	6733.72
449.36	6745.42
449.54	6909.26
449.73	7028.63
449.91	6888.20
450.10	6918.62
450.28	7068.42
450.46	7183.10
450.65	7199.49
450.83	7063.74
451.02	7066.08
451.20	7117.57
451.39	7110.55
451.57	7119.91
451.76	6970.12
451.94	7066.08
452.13	7208.85
452.31	6986.50
452.49	7183.10
452.68	7183.10
452.86	7241.62
453.05	7187.79
453.23	7304.81
453.42	7199.49
453.60	7323.54
453.78	7358.64
453.97	7330.56
454.15	7316.51
454.34	7360.98
454.52	7288.43
454.70	7353.96
454.89	7407.80
455.07	7353.96
455.26	7602.06
455.44	7765.90
455.62	7674.62
455.81	7595.04
455.99	7517.80
456.17	7772.92
456.36	7662.91
456.54	7793.98
456.73	7808.03
456.91	7878.24
457.09	7955.48
457.28	8257.41
457.46	8006.97
457.64	8262.09
457.83	8032.72
458.01	7969.52
458.19	8283.16
458.38	8053.78
458.56	8187.19
458.74	8170.81
458.93	8238.69
459.11	8180.17
459.29	8245.71
459.48	8334.65
459.66	8416.57
459.84	8425.93
460.03	8493.80
460.21	8278.47
460.39	8308.90
460.57	8341.67
460.76	8449.33
460.94	8718.50
461.12	8751.26
461.31	8657.64
461.49	8561.68
461.67	8629.56
461.85	8894.04
462.04	8652.96
462.22	8975.95
462.40	8879.99
462.59	8737.22
462.77	8830.84
462.95	8863.61
463.13	8830.84
463.32	8844.88
463.50	8905.74
463.68	8936.17
463.86	8744.24
464.05	8964.25
464.23	8802.75
464.41	9165.54
464.59	8800.41
464.78	9039.15
464.96	8884.67
465.14	9057.87
465.32	9132.77
465.50	9172.56
465.69	9270.86
465.87	9139.79
466.05	9125.75
466.23	8973.61
466.41	9146.81
466.60	9195.96
466.78	9172.56
466.96	9123.41
467.14	9352.78
467.32	9195.96
467.51	9308.31
467.69	9008.72
467.87	9404.27
468.05	9357.46
468.23	9371.50
468.41	9455.76
468.60	9507.26
468.78	9694.50
468.96	9537.68
469.14	9706.20
469.32	9621.94
469.50	9423.00
469.69	9795.14
469.87	9811.53
470.05	9720.24
470.23	9668.75
470.41	9909.83
470.59	9891.10
470.77	9703.86
470.95	9958.98
471.14	10120.48
471.32	9825.57
471.50	10040.90
471.68	10125.16
471.86	10281.97
472.04	10356.87
472.22	10356.87
472.40	10164.95
472.58	10146.22
472.77	10413.04
472.95	10422.41
473.13	10815.62
473.31	10368.57
473.49	10448.15
473.67	10368.57
473.85	10733.70
474.03	10951.37
474.21	10829.66
474.39	10883.49
474.57	10967.75
474.75	11131.59
474.93	11082.44
475.12	10923.28
475.30	11302.45
475.48	11183.08
475.66	11283.72
475.84	11101.16
476.02	11456.92
476.20	11389.05
476.38	11681.61
476.56	11709.70
476.74	11829.07
476.92	11688.64
477.10	11681.61
477.28	11967.16
477.46	11901.62
477.64	12147.38
477.82	12142.70
478.00	12430.59
478.18	12571.02
478.36	12327.60
478.54	12559.31
478.72	12461.01
478.90	12727.83
479.08	13046.15
479.26	12938.48
479.44	12826.14
479.62	13083.59
479.80	13404.25
479.98	13532.98
480.16	13804.48
480.34	13640.64
480.52	13640.64
480.70	13867.67
480.88	13406.59
481.06	13895.76
481.24	13755.33
481.41	13907.46
481.59	14260.88
481.77	14281.95
481.95	14277.27
482.13	14429.40
482.31	14347.48
482.49	14885.81
482.67	14808.57
482.85	14888.15
483.03	15211.14
483.21	15300.08
483.39	15417.11
483.57	15267.31
483.74	15325.83
483.92	15272.00
484.10	15428.81
484.28	15964.79
484.46	15976.50
484.64	16233.96
484.82	16140.33
485.00	15864.15
485.18	16149.70
485.35	16304.17
485.53	16112.25
485.71	16088.84
485.89	16482.05
486.07	16381.41
486.25	16512.48
486.43	16807.39
486.61	17078.89
486.78	17181.87
486.96	17408.90
487.14	17326.99
487.32	17554.02
487.50	17680.41
487.68	17996.38
487.85	18473.85
488.03	18001.06
488.21	18546.40
488.39	18377.89
488.57	18871.74
488.75	18630.66
488.92	18920.89
489.10	19105.79
489.28	19337.51
489.46	19489.64
489.64	19297.72
489.81	20250.32
489.99	20102.86
490.17	19964.77
490.35	20503.09
490.53	20077.12
490.70	20257.34
490.88	20400.11
491.06	20704.38
491.24	20812.04
491.41	20554.58
491.59	20748.85
491.77	20933.75
491.95	20940.77
492.13	20947.79
492.30	21336.32
492.48	21757.62
492.66	21788.05
492.84	21390.16
493.01	22424.67
493.19	21790.39
493.37	22251.47
493.54	22008.06
493.72	22293.60
493.90	22169.55
494.08	23166.62
494.25	23068.32
494.43	22885.76
494.61	23030.87
494.79	23496.64
494.96	23103.43
495.14	23185.35
495.32	23625.37
495.49	23681.54
495.67	23754.10
495.85	24046.66
496.02	24006.87
496.20	24159.01
496.38	24170.71
496.55	24264.33
496.73	25053.09
496.91	25111.61
497.09	24968.84
497.26	24765.21
497.44	24854.15
497.62	24819.04
497.79	25160.76
497.97	25149.06
498.14	25493.12
498.32	25308.21
498.50	25467.37
498.67	26071.23
498.85	26064.21
499.03	26113.36
499.20	26008.03
499.38	25998.67
499.56	26508.91
499.73	26148.46
499.91	26188.25
500.08	26787.43
500.26	25926.11
500.44	26473.80
500.61	26513.59
500.79	26251.45
500.97	26618.91
501.14	26843.60
501.32	26457.42
501.49	27325.75
501.67	27101.06
501.84	27147.87
502.02	27360.86
502.20	27625.34
502.37	27623.00
502.55	27690.88
502.72	27938.97
502.90	27953.02
503.07	28077.07
503.25	28161.33
503.43	27571.51
503.60	27835.99
503.78	27936.63
503.95	28048.98
504.13	28301.76
504.30	28601.35
504.48	28423.47
504.65	28680.92
504.83	28851.78
505.01	29216.91
505.18	28797.95
505.36	29434.58
505.53	29139.67
505.71	29378.40
505.88	29383.09
506.06	29013.28
506.23	29345.64
506.41	29228.61
506.58	29621.82
506.76	29474.37
506.93	29567.99
507.11	29764.59
507.28	29626.50
507.46	30000.99
507.63	29827.79
507.81	30216.32
507.98	30146.10
508.16	30162.48
508.33	30497.18
508.50	30628.25
508.68	30855.28
508.85	31548.08
509.03	30623.57
509.20	31051.89
509.38	31166.57
509.55	31232.11
509.73	30939.54
509.90	31435.74
510.08	31136.15
510.25	31363.18
510.42	31009.76
510.60	31269.56
510.77	31433.39
510.95	31627.66
511.12	31466.16
511.30	31583.19
511.47	32285.35
511.64	32322.80
511.82	32393.01
511.99	31789.16
512.17	32182.37
512.34	32290.03
512.51	31866.39
512.69	32542.81
512.86	32528.77
513.04	32725.37
513.21	32697.28
513.38	32725.37
513.56	32891.55
513.73	32369.61
513.90	33181.77
514.08	32900.91
514.25	33013.26
514.43	32891.55
514.60	33174.75
514.77	33408.81
514.95	33797.34
515.12	33184.12
515.29	33710.74
515.47	34036.07
515.64	33876.91
515.81	33834.78
515.99	33631.16
516.16	33539.88
516.33	33251.99
516.51	33642.86
516.68	33340.93
516.85	33261.35
517.03	33570.30
517.20	33940.11
517.37	34129.69
517.54	34010.32
517.72	33673.29
517.89	33720.10
518.06	34125.01
518.24	33982.24
518.41	34054.79
518.58	34054.79
518.75	34611.84
518.93	34614.18
519.10	34408.22
519.27	35051.86
519.45	35054.20
519.62	34756.96
519.79	35187.61
519.96	35398.26
520.14	35234.42
520.31	34981.65
520.48	34768.66
520.65	35213.36
520.83	35833.60
521.00	36032.55
521.17	35852.33
521.34	35845.30
521.52	35742.32
521.69	36170.64
521.86	35981.06
522.03	36280.64
522.20	36210.43
522.38	36201.07
522.55	35763.39
522.72	36187.02
522.89	36098.08
523.07	36442.14
523.24	36472.57
523.41	36840.03
523.58	36484.27
523.75	37038.98
523.92	37184.09
524.10	37305.80
524.27	37413.46
524.44	37191.11
524.61	37277.71
524.78	37174.73
524.96	37371.33
525.13	37205.16
525.30	37446.23
525.47	37691.99
525.64	37207.50
525.81	37404.10
525.98	37191.11
526.16	37113.87
526.33	36772.16
526.50	37649.86
526.67	37029.62
526.84	37514.11
527.01	37165.37
527.18	37235.58
527.36	37486.02
527.53	38242.01
527.70	38017.32
527.87	38614.16
528.04	38019.66
528.21	38436.28
528.38	38183.50
528.55	38607.14
528.72	38719.48
528.89	38918.43
529.07	38672.67
529.24	38731.18
529.41	38583.73
529.58	38600.12
529.75	39089.29
529.92	38707.78
530.09	38700.76
530.26	38810.76
530.43	38937.15
530.60	39070.56
530.77	38646.93
530.94	39145.46
531.11	39524.63
531.28	39428.66
531.46	39426.32
531.63	39414.62
531.80	39187.59
531.97	39234.40
532.14	39290.57
532.31	39168.87
532.48	39335.04
532.65	39592.50
532.82	39555.05
532.99	39519.95
533.16	39122.05
533.33	40339.13
533.50	39842.94
533.67	40224.45
533.84	39754.00
534.01	39957.63
534.18	39959.97
534.35	40151.89
534.52	39854.64
534.69	40407.01
534.86	40184.66
535.03	40430.41
535.20	40463.18
535.37	40547.44
535.54	40863.41
535.71	40603.61
535.88	40755.75
536.05	40243.17
536.22	40655.11
536.38	40950.01
536.55	40615.32
536.72	40245.51
536.89	40552.12
537.06	40505.31
537.23	41200.45
537.40	41010.87
537.57	41256.62
537.74	41226.20
537.91	41399.40
538.08	41155.98
538.25	40720.64
538.42	41179.39
538.59	41034.27
538.75	40788.52
538.92	40641.06
539.09	41233.22
539.26	41193.43
539.43	40849.37
539.60	41617.07
539.77	41244.92
539.94	41045.97
540.11	41202.79
540.28	41219.17
540.44	41280.03
540.61	41500.04
540.78	41556.21
540.95	41457.91
541.12	41287.05
541.29	41591.32
541.46	41783.24
541.62	41584.30
541.79	42064.11
541.96	41507.06
542.13	41670.90
542.30	41886.23
542.47	41904.95
542.63	41780.90
542.80	41963.46
542.97	42806.06
543.14	42635.20
543.31	42202.20
543.48	42445.62
543.64	42642.22
543.81	43030.75
543.98	42611.79
544.15	42492.43
544.32	42717.12
544.48	43217.99
544.65	42674.99
544.82	42906.70
544.99	42611.79
545.16	43100.97
545.32	42356.67
545.49	43129.05
545.66	43274.16
545.83	43042.45
546.00	43311.61
546.16	43119.69
546.33	42667.97
546.50	42969.90
546.67	43084.58
546.83	42801.38
547.00	43234.38
547.17	42981.60
547.34	43065.86
547.50	43084.58
547.67	43620.56
547.84	43384.17
548.00	43686.10
548.17	43669.72
548.34	43538.65
548.51	43936.54
548.67	43606.52
548.84	43569.07
549.01	43601.84
549.18	43524.60
549.34	43613.54
549.51	43730.57
549.68	44060.58
549.84	43856.96
550.01	44353.15
550.18	43831.21
550.34	44212.72
550.51	43821.85
550.68	43875.68
550.84	43835.89
551.01	44065.27
551.18	43704.82
551.34	44203.36
551.51	44229.10
551.68	44648.06
551.84	44243.15
552.01	44261.87
552.18	43821.85
552.34	43707.16
552.51	44149.53
552.68	44322.72
552.84	44488.90
553.01	44528.69
553.18	43910.79
553.34	44294.64
553.51	44037.18
553.67	44587.21
553.84	44657.42
554.01	45052.97
554.17	44713.59
554.34	44617.63
554.51	44514.65
554.67	44549.76
554.84	44547.42
555.00	44378.90
555.17	44278.25
555.33	44545.08
555.50	44479.54
555.67	44346.13
555.83	44264.21
556.00	44428.05
556.16	45090.42
556.33	44706.57
556.50	44481.88
556.66	44711.25
556.83	44519.33
556.99	44875.09
557.16	44781.47
557.32	44697.21
557.49	45258.94
557.65	44896.16
557.82	45186.38
557.98	45045.95
558.15	45170.00
558.32	45130.21
558.48	45006.16
558.65	44779.13
558.81	44582.52
558.98	44856.37
559.14	44629.34
559.31	45205.11
559.47	44793.17
559.64	45188.72
559.80	45162.98
559.97	45223.83
560.13	44954.67
560.30	45048.29
560.46	45406.39
560.63	45209.79
560.79	45333.84
560.96	45226.17
561.12	45127.87
561.29	45333.84
561.45	45378.31
561.61	45921.31
561.78	45528.10
561.94	44760.40
562.11	45434.48
562.27	45661.51
562.44	45375.97
562.60	45485.97
562.77	45378.31
562.93	45420.44
563.10	45350.22
563.26	45422.78
563.42	45530.44
563.59	45567.89
563.75	45525.76
563.92	45839.39
564.08	45390.01
564.24	45797.26
564.41	45743.43
564.57	45406.39
564.74	45471.93
564.90	45551.51
565.07	45270.64
565.23	45907.27
565.39	45532.78
565.56	45734.07
565.72	45591.30
565.88	45429.80
566.05	45411.07
566.21	45848.75
566.38	45415.76
566.54	45378.31
566.70	45619.38
566.87	45977.48
567.03	45778.54
567.19	46604.75
567.36	45862.80
567.52	45235.53
567.68	46073.45
567.85	45457.88
568.01	45780.88
568.17	45698.96
568.34	46075.79
568.50	46073.45
568.66	45741.09
568.83	45549.17
568.99	45666.19
569.15	45624.06
569.32	45464.91
569.48	45715.34
569.64	45886.20
569.81	46248.99
569.97	45820.67
570.13	45717.68
570.30	45577.25
570.46	45631.08
570.62	45476.61
570.78	45647.47
570.95	45827.69
571.11	45837.05
571.27	46014.93
571.43	45464.91
571.60	46012.59
571.76	45422.78
571.92	46050.04
572.09	45958.76
572.25	45762.15
572.41	45947.06
572.57	46157.70
572.74	46424.53
572.90	46021.95
573.06	45951.74
573.22	45879.18
573.38	45724.71
573.55	45949.40
573.71	45797.26
573.87	45979.82
574.03	45764.49
574.20	45991.53
574.36	46162.39
574.52	45724.71
574.68	45879.18
574.84	45869.82
575.01	45731.73
575.17	45666.19
575.33	45961.10
575.49	46103.87
575.65	45750.45
575.82	46485.38
575.98	45848.75
576.14	46410.48
576.30	46291.12
576.46	46078.13
576.62	45727.05
576.79	46160.05
576.95	45579.59
577.11	46199.83
577.27	45984.51
577.43	45818.33
577.59	46101.53
577.75	45741.09
577.92	45776.20
578.08	45518.74
578.24	45750.45
578.40	46146.00
578.56	45916.63
578.72	46059.40
578.88	46171.75
579.04	46373.03
579.21	46012.59
579.37	46087.49
579.53	46075.79
579.69	46110.89
579.85	46003.23
580.01	45895.56
580.17	45979.82
580.33	46136.64
580.49	46209.20
580.65	46321.54
580.82	45841.73
580.98	46052.38
581.14	45921.31
581.30	46382.40
581.46	46167.07
581.62	46466.66
581.78	46330.90
581.94	45893.22
582.10	46057.06
582.26	46370.69
582.42	46195.15
582.58	45986.85
582.74	46176.43
582.90	46068.76
583.06	46309.84
583.22	46178.77
583.38	46012.59
583.54	46461.97
583.70	46146.00
583.86	46550.91
584.02	46141.32
584.18	46326.22
584.34	45776.20
584.50	45813.65
584.66	45675.55
584.82	45839.39
584.98	46260.69
585.14	45907.27
585.30	45298.73
585.46	46265.37
585.62	46101.53
585.78	45778.54
585.94	45530.44
586.10	45982.16
586.26	45923.65
586.42	46831.78
586.58	46440.91
586.74	45914.29
586.90	46155.36
587.06	46059.40
587.22	45970.46
587.38	45918.97
587.54	46511.13
587.70	46410.48
587.86	46192.81
588.02	45893.22
588.18	46382.40
588.34	46298.14
588.49	45525.76
588.65	45097.44
588.81	45368.94
588.97	45855.78
589.13	45708.32
589.29	45776.20
589.45	45823.01
589.61	45851.09
589.77	46047.70
589.93	46312.18
590.08	46122.60
590.24	46288.77
590.40	46670.28
590.56	46614.11
590.72	46307.50
590.88	46286.43
591.04	46576.66
591.20	46607.09
591.35	46473.68
591.51	46660.92
591.67	46461.97
591.83	46660.92
591.99	46188.13
592.15	46499.42
592.31	45989.19
592.46	46157.70
592.62	46314.52
592.78	46567.30
592.94	46417.50
593.10	46532.19
593.26	46422.19
593.41	46314.52
593.57	46258.35
593.73	46272.39
593.89	46146.00
594.05	46328.56
594.20	46085.15
594.36	46377.72
594.52	46124.94
594.68	46087.49
594.84	46199.83
594.99	46614.11
595.15	46050.04
595.31	46218.56
595.47	46461.97
595.62	46258.35
595.78	46160.05
595.94	46480.70
596.10	46803.69
596.25	46621.13
596.41	46417.50
596.57	46466.66
596.73	46733.48
596.88	46185.79
597.04	46375.37
597.20	46265.37
597.36	46293.46
597.51	46976.89
597.67	46689.01
597.83	46129.62
597.99	46588.36
598.14	46550.91
598.30	46061.74
598.46	46677.30
598.61	46396.44
598.77	46356.65
598.93	46368.35
599.09	46401.12
599.24	46993.28
599.40	47072.85
599.56	46845.82
599.71	46127.28
599.87	46370.69
600.03	46480.70
600.18	46321.54
600.34	46265.37
600.50	46616.45
600.65	46181.11
600.81	46398.78
600.97	46314.52
601.12	46227.92
601.28	46527.51
601.44	46171.75
601.59	46199.83
601.75	46010.25
601.91	46010.25
602.06	46050.04
602.22	46157.70
602.37	46422.19
602.53	46459.63
602.69	46363.67
602.84	46351.97
603.00	45947.06
603.16	46476.02
603.31	46614.11
603.47	46080.47
603.62	46333.24
603.78	46340.27
603.94	46274.73
604.09	46583.68
604.25	46464.32
604.40	46234.94
604.56	46202.18
604.71	46457.29
604.87	46181.11
605.03	46064.08
605.18	46017.27
605.34	46043.02
605.49	45918.97
605.65	46450.27
605.80	46288.77
605.96	46045.36
606.12	46211.54
606.27	46511.13
606.43	46536.87
606.58	46340.27
606.74	46211.54
606.89	46230.26
607.05	45933.01
607.20	46473.68
607.36	45909.61
607.51	45965.78
607.67	45820.67
607.82	46064.08
607.98	45390.01
608.13	45717.68
608.29	45614.70
608.44	45776.20
608.60	45610.02
608.75	45703.64
608.91	45734.07
609.06	46007.91
609.22	45586.61
609.37	45460.23
609.53	46059.40
609.68	45977.48
609.84	45483.63
609.99	45830.03
610.15	45958.76
610.30	45549.17
610.46	45633.42
610.61	45703.64
610.76	45762.15
610.92	45471.93
611.07	45813.65
611.23	45820.67
611.38	46038.34
611.54	45588.95
611.69	45436.82
611.84	45097.44
612.00	45343.20
612.15	45336.18
612.31	45766.84
612.46	45659.17
612.62	45549.17
612.77	45127.87
612.92	45900.25
613.08	45741.09
613.23	45408.73
613.39	45167.66
613.54	45338.52
613.69	45055.31
613.85	45167.66
614.00	45223.83
614.15	45663.85
614.31	45382.99
614.46	45291.71
614.62	45326.81
614.77	45497.67
614.92	45595.98
615.08	45015.52
615.23	45148.93
615.38	44893.82
615.54	44800.19
615.69	45181.70
615.84	44942.97
616.00	45001.48
616.15	44957.01
616.30	45003.82
616.46	44940.63
616.61	44952.33
616.76	44842.32
616.92	44839.98
617.07	44594.23
617.22	44732.32
617.37	44376.56
617.53	44760.40
617.68	44732.32
617.83	45301.07
617.99	44725.30
618.14	44734.66
618.29	44898.50
618.45	44261.87
618.60	44390.60
618.75	44493.58
618.90	44364.85
619.06	44039.52
619.21	44748.70
619.36	44952.33
619.51	44765.09
619.67	44186.97
619.82	44645.72
619.97	44570.82
620.12	44350.81
620.28	43959.94
620.43	44130.80
620.58	44495.92
620.73	44371.88
620.89	44402.30
621.04	44327.41
621.19	44210.38
621.34	44505.29
621.49	43812.49
621.65	44158.89
621.80	44364.85
621.95	43807.81
622.10	43753.97
622.25	43990.37
622.41	43531.62
622.56	43662.69
622.71	44371.88
622.86	44149.53
623.01	43835.89
623.16	44044.20
623.32	43618.22
623.47	44163.57
623.62	43810.15
623.77	43852.28
623.92	43959.94
624.07	43452.05
624.23	43201.61
624.38	43391.19
624.53	43185.22
624.68	43515.24
624.83	43550.35
624.98	43718.87
625.13	43683.76
625.29	43419.28
625.44	43037.77
625.59	43480.13
625.74	42897.34
625.89	42817.76
626.04	42452.64
626.19	43056.50
626.34	43269.48
626.49	43105.65
626.65	43421.62
626.80	43433.32
626.95	43089.26
627.10	42745.20
627.25	42796.70
627.40	42792.01
627.55	42438.59
627.70	42052.41
627.85	42717.12
628.00	42487.74
628.15	42637.54
628.30	42440.93
628.45	43164.16
628.60	42363.70
628.76	43187.56
628.91	42614.13
629.06	42101.56
629.21	42932.45
629.36	42628.18
629.51	42267.73
629.66	42316.89
629.81	42848.19
629.96	42541.58
630.11	42263.05
630.26	42480.72
630.41	42611.79
630.56	42490.09
630.71	42354.33
630.86	42408.17
631.01	42059.43
631.16	42131.98
631.31	41942.40
631.46	41949.42
631.61	42014.96
631.76	42092.19
631.91	42014.96
632.06	42192.84
632.21	42557.96
632.36	42141.35
632.51	41935.38
632.66	41708.35
632.81	41617.07
632.96	41804.31
633.10	41483.66
633.25	42129.64
633.40	41729.41
633.55	42536.90
633.70	41563.23
633.85	41673.24
634.00	42014.96
634.15	41507.06
634.30	41755.16
634.45	41947.08
634.60	41319.82
634.75	41371.31
634.90	41291.73
635.05	41329.18
635.19	41490.68
635.34	41371.31
635.49	41392.37
635.64	41696.64
635.79	41425.14
635.94	41464.93
636.09	41823.03
636.24	41277.69
636.39	41387.69
636.53	40980.44
636.68	41619.41
636.83	40985.12
636.98	41273.01
637.13	41392.37
637.28	41572.60
637.43	41375.99
637.57	41516.42
637.72	40701.92
637.87	41352.58
638.02	40938.31
638.17	41036.61
638.32	41254.28
638.46	41507.06
638.61	41090.44
638.76	40767.45
638.91	41062.36
639.06	40598.93
639.20	41048.32
639.35	40933.63
639.50	40875.12
639.65	40954.69
639.80	41055.34
639.94	41078.74
640.09	40591.91
640.24	40683.19
640.39	40318.07
640.54	40107.42
640.68	40521.69
640.83	41053.00
640.98	40718.30
641.13	40451.48
641.27	40769.79
641.42	40142.53
641.57	40187.00
641.72	40795.54
641.86	39803.15
642.01	39983.37
642.16	40308.71
642.31	39866.34
642.45	40437.44
642.60	39402.92
642.75	40435.10
642.90	40292.32
643.04	40259.55
643.19	40081.67
643.34	39754.00
643.48	39966.99
643.63	39723.57
643.78	40184.66
643.93	39964.65
644.07	39847.62
644.22	40004.44
644.37	39985.71
644.51	40048.91
644.66	40086.36
644.81	40034.86
644.95	40264.24
645.10	40100.40
645.25	39693.15
645.39	39894.43
645.54	39777.40
645.69	39889.75
645.83	39847.62
645.98	39786.77
646.13	39742.30
646.27	39545.69
646.42	39143.12
646.57	39299.94
646.71	39421.64
646.86	39543.35
647.00	39929.54
647.15	40032.52
647.30	39297.59
647.44	39512.92
647.59	39225.04
647.74	39477.82
647.88	39508.24
648.03	39487.18
648.17	39201.63
648.32	39208.65
648.47	39562.08
648.61	38895.02
648.76	39414.62
648.90	39344.41
649.05	39311.64
649.20	39533.99
649.34	39421.64
649.49	38780.34
649.63	38768.63
649.78	38829.49
649.92	38822.47
650.07	39503.56
650.21	38705.44
650.36	38810.76
650.51	38473.73
650.65	39271.85
650.80	39173.55
650.94	39199.29
651.09	38902.04
651.23	38890.34
651.38	38646.93
651.52	38635.22
651.67	38768.63
651.81	38958.22
651.96	38492.45
652.10	38401.17
652.25	38326.27
652.39	38609.48
652.54	38632.88
652.68	38829.49
652.83	38937.15
652.97	38281.80
653.12	38337.98
653.26	38291.16
653.41	38387.13
653.55	38146.05
653.70	38141.37
653.84	38071.15
653.99	37916.68
654.13	37876.89
654.27	38050.09
654.42	37500.06
654.56	37897.95
654.71	38146.05
654.85	38047.75
655.00	38246.69
655.14	38007.96
655.29	37869.87
655.43	37500.06
655.57	37336.23
655.72	37610.07
655.86	37771.57
656.01	37553.90
656.15	37076.43
656.30	37113.87
656.44	37415.80
656.58	37460.27
656.73	37516.45
656.87	37404.10
657.01	37502.40
657.16	37539.85
657.30	37022.59
657.45	37188.77
657.59	37280.05
657.73	37233.24
657.88	37947.11
658.02	37422.83
658.16	37717.73
658.31	37474.32
658.45	37151.32
658.60	37228.56
658.74	37593.68
658.88	37242.60
659.03	37310.48
659.17	37060.04
659.31	36788.54
659.46	37177.07
659.60	37270.69
659.74	36882.16
659.89	36694.92
660.03	36580.23
660.17	36648.11
660.32	37022.59
660.46	36751.09
660.60	36638.75
660.74	36978.12
660.89	36746.41
661.03	36226.81
661.17	36172.98
661.32	36037.23
661.46	36868.12
661.60	36367.24
661.74	36126.17
661.89	36135.53
662.03	36535.76
662.17	36070.00
662.31	36062.97
662.46	36491.29
662.60	36257.24
662.74	36191.70
662.88	35641.68
663.03	35475.50
663.17	35526.99
663.31	35875.73
663.45	35409.96
663.60	36055.95
663.74	35737.64
663.88	35512.95
664.02	35351.45
664.17	35426.35
664.31	35365.49
664.45	35725.94
664.59	35173.57
664.73	35227.40
664.88	35498.91
665.02	35042.50
665.16	35248.47
665.30	35054.20
665.44	34679.72
665.59	34778.02
665.73	34637.59
665.87	34742.91
666.01	34721.85
666.15	34558.01
666.29	34604.82
666.44	35133.78
666.58	34801.43
666.72	34689.08
666.86	34897.39
667.00	34670.36
667.14	34511.20
667.28	34127.35
667.43	34230.33
667.57	34637.59
667.71	34012.66
667.85	34316.93
667.99	34000.96
668.13	34113.31
668.27	34590.78
668.41	33965.85
668.56	33696.69
668.70	34106.29
668.84	34019.69
668.98	33600.73
669.12	33497.75
669.26	33090.49
669.40	33331.57
669.54	33574.98
669.68	33357.32
669.82	33352.63
669.96	33050.70
670.10	32985.17
670.25	33617.11
670.39	33200.50
670.53	32985.17
670.67	32828.35
670.81	32999.21
670.95	32982.83
671.09	32767.50
671.23	32781.54
671.37	33113.90
671.51	32643.45
671.65	32453.87
671.79	32313.44
671.93	32271.31
672.07	32804.95
672.21	32105.13
672.35	32563.87
672.49	32680.90
672.63	32507.70
672.77	31938.95
672.91	32215.13
673.05	32224.50
673.19	32107.47
673.33	31744.69
673.47	31817.24
673.61	31639.36
673.75	31419.35
673.89	31531.70
674.03	31014.44
674.17	31440.42
674.31	31454.46
674.45	31147.85
674.59	31498.93
674.73	31510.63
674.87	31381.90
675.01	30663.36
675.15	31257.85
675.29	30771.02
675.43	30960.61
675.56	31075.29
675.70	30670.38
675.84	30731.23
675.98	30073.54
676.12	30522.93
676.26	30377.81
676.40	30380.15
676.54	30780.39
676.68	30824.86
676.82	29827.79
676.96	29937.79
677.10	30033.75
677.23	29792.68
677.37	29834.81
677.51	29790.34
677.65	29366.70
677.79	29247.33
677.93	29333.93
678.07	29244.99
678.21	29144.35
678.34	29338.62
678.48	28903.28
678.62	28716.03
678.76	28545.17
678.90	28283.03
679.04	28416.44
679.18	28353.25
679.31	28182.39
679.45	28364.95
679.59	28285.37
679.73	28250.27
679.87	28023.23
680.00	28013.87
680.14	27819.61
680.28	27962.38
680.42	27733.01
680.56	27737.69
680.70	27864.08
680.83	27798.54
680.97	27356.18
681.11	27648.75
681.25	27445.12
681.39	27360.86
681.52	27075.32
681.66	27300.01
681.80	26759.34
681.94	27030.85
682.07	26969.99
682.21	26843.60
682.35	26487.84
682.49	26576.78
682.62	26595.51
682.76	26506.57
682.90	26164.85
683.04	25991.65
683.17	26305.28
683.31	25989.31
683.45	26115.70
683.59	25909.73
683.72	25797.38
683.86	25862.92
684.00	25420.56
684.13	25298.85
684.27	25488.43
684.41	25193.53
684.55	25287.15
684.68	25083.52
684.82	24966.49
684.96	25298.85
685.09	25245.02
685.23	24851.81
685.37	24549.88
685.50	24603.71
685.64	24659.88
685.78	24542.86
685.91	24077.09
686.05	24423.49
686.19	23772.82
686.32	23639.41
686.46	23871.12
686.60	23475.57
686.73	23459.19
686.87	23339.82
687.01	23452.17
687.14	23021.51
687.28	23316.42
687.42	23278.97
687.55	23178.33
687.69	23262.58
687.82	22773.41
687.96	22979.38
688.10	23089.38
688.23	22621.28
688.37	22445.74
688.50	22473.82
688.64	22654.05
688.78	22459.78
688.91	22483.19
689.05	22490.21
689.18	22726.60
689.32	22080.61
689.46	22373.18
689.59	22209.34
689.73	22256.15
689.86	21947.20
690.00	21846.56
690.13	22235.09
690.27	21837.20
690.41	21532.93
690.54	21177.17
690.68	21348.03
690.81	21266.11
690.95	21078.86
691.08	21238.02
691.22	21074.18
691.35	21163.12
691.49	21404.20
691.62	21048.44
691.76	20982.90
691.89	20692.68
692.03	20365.00
692.16	20573.31
692.30	20559.27
692.43	20357.98
692.57	20156.69
692.70	20180.10
692.84	20180.10
692.97	19960.09
693.11	19880.51
693.24	19934.34
693.38	19721.35
693.51	19613.69
693.65	20142.65
693.78	19653.48
693.92	19491.98
694.05	19391.34
694.19	19356.23
694.32	19204.10
694.45	19185.37
694.59	18986.43
694.72	19070.68
694.86	19058.98
694.99	18831.95
695.13	18923.23
695.26	18801.52
695.39	18654.07
695.53	18801.52
695.66	18909.19
695.80	18768.76
695.93	18506.62
696.07	18618.96
696.20	18267.88
696.33	18270.22
696.47	18295.97
696.60	18005.74
696.73	17867.65
696.87	17855.95
697.00	17905.10
697.14	17996.38
697.27	17523.59
697.40	17668.70
697.54	17748.28
697.67	17315.28
697.80	17406.56
697.94	17163.15
698.07	17109.32
698.21	16924.41
698.34	17174.85
698.47	16643.55
698.61	16884.62
698.74	16535.88
698.87	16673.98
699.01	16439.92
699.14	16580.36
699.27	16355.66
699.40	16233.96
699.54	16219.91
699.67	16301.83
699.80	16507.80
699.94	15946.07
700.07	16105.23
700.20	15962.45
700.34	15992.88
700.47	15941.39
700.60	15892.24
700.73	15983.52
700.87	15861.81
701.00	15447.54
701.13	15606.69
701.26	15592.65
701.40	15492.01
701.53	15243.91
701.66	15279.02
701.79	14965.39
701.93	15044.96
702.06	15213.48
702.19	15096.46
702.32	14892.83
702.46	14712.61
702.59	14981.77
702.72	14892.83
702.85	14682.18
702.99	14597.92
703.12	14478.55
703.25	14705.59
703.38	14485.58
703.51	13991.72
703.65	14410.68
703.78	14452.81
703.91	13907.46
704.04	14139.18
704.17	13862.99
704.31	13961.30
704.44	13937.89
704.57	13998.74
704.70	13687.45
704.83	13682.77
704.96	13638.30
705.10	13975.34
705.23	13778.73
>>>>>End Processed Spectral Data<<<<<
