SpectraSuite Data File
++++++++++++++++++++++++++++++++++++
Date: Fri Oct 25 10:43:23 EDT 2013
User: price-jones
Dark Spectrum Present: No
Reference Spectrum Present: No
Number of Sampled Component Spectra: 1
Spectrometers: USB2+H05261
Integration Time (usec): 100000 (USB2+H05261)
Spectra Averaged: 1 (USB2+H05261)
Boxcar Smoothing: 0 (USB2+H05261)
Correct for Electrical Dark: No (USB2+H05261)
Strobe/Lamp Enabled: No (USB2+H05261)
Correct for Detector Non-linearity: No (USB2+H05261)
Correct for Stray Light: No (USB2+H05261)
Number of Pixels in Processed Spectrum: 2048
>>>>>Begin Processed Spectral Data<<<<<
365.73	189.58
365.92	189.58
366.12	189.58
366.32	84.26
366.52	65.54
366.72	35.11
366.91	11.70
367.11	14.04
367.31	0.00
367.51	25.75
367.70	42.13
367.90	9.36
368.10	86.60
368.30	53.83
368.49	30.43
368.69	81.92
368.89	9.36
369.09	28.09
369.28	0.00
369.48	67.88
369.68	51.49
369.87	88.94
370.07	86.60
370.27	189.58
370.47	154.48
370.66	330.02
370.86	355.76
371.06	463.43
371.25	500.87
371.45	435.34
371.65	519.60
371.84	503.22
372.04	498.53
372.24	442.36
372.44	538.32
372.63	514.92
372.83	517.26
373.03	451.72
373.22	543.00
373.42	489.17
373.62	470.45
373.81	545.34
374.01	540.66
374.21	606.20
374.40	571.09
374.60	573.43
374.79	545.34
374.99	580.45
375.19	592.16
375.38	610.88
375.58	624.92
375.78	620.24
375.97	601.52
376.17	601.52
376.37	634.29
376.56	645.99
376.76	617.90
376.95	634.29
377.15	697.48
377.35	566.41
377.54	664.71
377.74	662.37
377.93	645.99
378.13	650.67
378.33	641.31
378.52	601.52
378.72	622.58
378.91	692.80
379.11	734.93
379.31	641.31
379.50	641.31
379.70	645.99
379.89	723.23
380.09	676.41
380.28	725.57
380.48	664.71
380.68	704.50
380.87	676.41
381.07	704.50
381.26	681.10
381.46	720.88
381.65	772.38
381.85	739.61
382.04	805.14
382.24	718.54
382.43	699.82
382.63	758.33
382.83	809.83
383.02	753.65
383.22	774.72
383.41	645.99
383.61	734.93
383.80	741.95
384.00	716.20
384.19	844.93
384.39	830.89
384.58	821.53
384.78	805.14
384.97	786.42
385.17	851.96
385.36	798.12
385.56	798.12
385.75	870.68
385.95	877.70
386.14	917.49
386.34	851.96
386.53	791.10
386.72	837.91
386.92	940.90
387.11	877.70
387.31	880.04
387.50	826.21
387.70	887.06
387.89	842.59
388.09	814.51
388.28	931.53
388.48	896.43
388.67	940.90
388.86	917.49
389.06	929.19
389.25	980.68
389.45	999.41
389.64	992.39
389.84	931.53
390.03	926.85
390.22	994.73
390.42	1025.15
390.61	959.62
390.81	1039.20
391.00	997.07
391.19	1121.12
391.39	985.37
391.58	1046.22
391.78	1008.77
391.97	1069.62
392.16	1022.81
392.36	1074.31
392.55	1034.52
392.75	999.41
392.94	1025.15
393.13	1034.52
393.33	1048.56
393.52	1025.15
393.71	1081.33
393.91	1006.43
394.10	1167.93
394.29	1090.69
394.49	1172.61
394.68	1114.10
394.88	1198.35
395.07	1196.01
395.26	1228.78
395.46	1217.08
395.65	1252.19
395.84	1341.13
396.04	1217.08
396.23	1254.53
396.42	1165.59
396.62	1125.80
396.81	1203.04
397.00	1188.99
397.19	1329.42
397.39	1291.98
397.58	1380.92
397.77	1376.24
397.97	1362.19
398.16	1397.30
398.35	1392.62
398.55	1439.43
398.74	1446.45
398.93	1612.63
399.12	1544.75
399.32	1509.65
399.51	1519.01
399.70	1612.63
399.90	1582.20
400.09	1528.37
400.28	1596.25
400.47	1511.99
400.67	1657.10
400.86	1610.29
401.05	1678.16
401.24	1746.04
401.44	1593.90
401.63	1703.91
401.82	1757.74
402.01	1661.78
402.21	1746.04
402.40	1743.70
402.59	1799.87
402.78	1717.95
402.97	1781.15
403.17	1849.02
403.36	1790.51
403.55	1799.87
403.74	1827.96
403.93	1797.53
404.13	1825.62
404.32	1867.75
404.51	1916.90
404.70	1968.39
404.89	2036.27
405.09	1996.48
405.28	1968.39
405.47	1991.80
405.66	2003.50
405.85	2026.90
406.05	2031.58
406.24	2019.88
406.43	2090.10
406.62	2155.63
406.81	2207.13
407.00	2040.95
407.20	2038.61
407.39	2122.87
407.58	2218.83
407.77	2188.40
407.96	2197.76
408.15	2225.85
408.34	2195.42
408.54	2277.34
408.73	2263.30
408.92	2338.20
409.11	2277.34
409.30	2237.55
409.49	2359.26
409.68	2328.83
409.87	2349.90
410.07	2415.43
410.26	2410.75
410.45	2373.30
410.64	2452.88
410.83	2546.50
411.02	2459.90
411.21	2569.91
411.40	2560.55
411.59	2600.34
411.78	2778.22
411.98	2712.68
412.17	2581.61
412.36	2649.49
412.55	2684.59
412.74	2665.87
412.93	2801.62
413.12	2712.68
413.31	2850.77
413.50	2794.60
413.69	2764.17
413.88	3023.97
414.07	2825.03
414.26	2937.37
414.45	3066.10
414.64	3009.93
414.83	2981.84
415.02	3094.19
415.22	2993.55
415.41	3169.09
415.60	3042.70
415.79	3286.11
415.98	3328.24
416.17	3183.13
416.36	3361.01
416.55	3155.04
416.74	3251.00
416.93	3332.92
417.12	3351.65
417.31	3318.88
417.50	3276.75
417.69	3536.55
417.88	3400.80
418.07	3426.54
418.26	3407.82
418.45	3431.23
418.64	3669.96
418.83	3646.55
419.02	3506.12
419.21	3665.28
419.39	3482.72
419.58	3576.34
419.77	3520.17
419.96	3700.39
420.15	3714.43
420.34	3648.90
420.53	3749.54
420.72	3829.12
420.91	3768.26
421.10	3826.78
421.29	3822.09
421.48	3744.86
421.67	3824.44
421.86	3681.66
422.05	3920.40
422.24	3686.34
422.43	3794.01
422.61	3873.59
422.80	4032.74
422.99	4035.08
423.18	3878.27
423.37	3831.46
423.56	3915.72
423.75	3971.89
423.94	3904.01
424.13	3695.71
424.32	3798.69
424.50	3974.23
424.69	3957.85
424.88	4011.68
425.07	3899.33
425.26	3976.57
425.45	3932.10
425.64	3913.38
425.83	3946.14
426.01	3946.14
426.20	4042.11
426.39	3934.44
426.58	3929.76
426.77	3983.59
426.96	3953.16
427.15	4016.36
427.33	4030.40
427.52	4112.32
427.71	4264.46
427.90	4177.86
428.09	4241.05
428.28	4327.65
428.46	4147.43
428.65	4222.33
428.84	4311.27
429.03	4329.99
429.22	4140.41
429.40	4395.53
429.59	4210.62
429.78	3889.97
429.97	3817.41
430.16	4016.36
430.34	3985.93
430.53	4170.83
430.72	4215.30
430.91	4229.35
431.10	4353.40
431.28	4528.94
431.47	4718.52
431.66	4634.26
431.85	4491.49
432.03	4557.02
432.22	4767.67
432.41	4507.87
432.60	4709.16
432.79	4655.33
432.97	4645.96
433.16	4798.10
433.35	4622.56
433.54	4519.57
433.72	4676.39
433.91	4751.29
434.10	4760.65
434.28	4746.61
434.47	4643.62
434.66	4915.12
434.85	5188.97
435.03	5034.49
435.22	4887.04
435.41	5261.52
435.59	5011.09
435.78	5041.51
435.97	5172.58
436.16	5097.69
436.34	5273.23
436.53	5301.31
436.72	5320.04
436.90	5163.22
437.09	5165.56
437.28	5097.69
437.46	5060.24
437.65	5137.48
437.84	5233.44
438.02	5074.28
438.21	5130.45
438.40	5191.31
438.58	5373.87
438.77	5362.17
438.96	5203.01
439.14	5591.54
439.33	5511.96
439.52	5537.71
439.70	5401.96
439.89	5767.08
440.08	5638.35
440.26	5792.83
440.45	5689.84
440.63	5881.77
440.82	6052.63
441.01	5926.24
441.19	6143.91
441.38	6073.69
441.57	5998.79
441.75	6197.74
441.94	6356.90
442.12	6267.95
442.31	6359.24
442.50	6324.13
442.68	6422.43
442.87	6384.98
443.05	6312.42
443.24	6485.62
443.43	6450.52
443.61	6546.48
443.80	6476.26
443.98	6230.51
444.17	6296.04
444.35	6623.72
444.54	6562.86
444.73	6677.55
444.91	6359.24
445.10	6469.24
445.28	6614.35
445.47	6455.20
445.65	6286.68
445.84	6567.54
446.02	6609.67
446.21	6525.41
446.39	6466.90
446.58	6771.17
446.77	6614.35
446.95	6532.44
447.14	6696.27
447.32	6733.72
447.51	6817.98
447.69	6581.59
447.88	6576.91
448.06	6698.61
448.25	6799.26
448.43	6956.07
448.62	6724.36
448.80	6782.87
448.99	6780.53
449.17	6918.62
449.36	6810.96
449.54	7007.56
449.73	7131.61
449.91	7400.77
450.10	7218.21
450.28	7213.53
450.46	7082.46
450.65	7087.14
450.83	7180.76
451.02	7246.30
451.20	7131.61
451.39	7335.24
451.57	7309.49
451.76	7325.88
451.94	7236.94
452.13	7295.45
452.31	7208.85
452.49	7190.13
452.68	7281.41
452.86	7253.32
453.05	7262.68
453.23	7414.82
453.42	7286.09
453.60	7279.07
453.78	7595.04
453.97	7258.00
454.15	7309.49
454.34	7459.29
454.52	7676.96
454.70	7588.02
454.89	7714.41
455.07	7637.17
455.26	7674.62
455.44	7723.77
455.62	7702.70
455.81	7756.54
455.99	7705.04
456.17	7744.83
456.36	7969.52
456.54	7929.74
456.73	8088.89
456.91	7913.35
457.09	8084.21
457.28	8285.50
457.46	8002.29
457.64	8210.60
457.83	8166.13
458.01	7927.39
458.19	8292.52
458.38	8046.76
458.56	8552.32
458.74	8334.65
458.93	8329.97
459.11	8320.60
459.29	8271.45
459.48	8575.72
459.66	8344.01
459.84	8353.37
460.03	8479.76
460.21	8498.49
460.39	8559.34
460.57	8327.63
460.76	8423.59
460.94	8751.26
461.12	8685.73
461.31	8737.22
461.49	8557.00
461.67	8599.13
461.85	8978.30
462.04	8959.57
462.22	9472.15
462.40	8879.99
462.59	8943.19
462.77	8676.37
462.95	8952.55
463.13	8847.22
463.32	8919.78
463.50	8961.91
463.68	8952.55
463.86	9036.81
464.05	8800.41
464.23	8947.87
464.41	9027.45
464.59	8908.08
464.78	9172.56
464.96	9205.33
465.14	8940.85
465.32	9252.14
465.50	9259.16
465.69	9310.65
465.87	9149.15
466.05	9284.91
466.23	8973.61
466.41	9048.51
466.60	9338.74
466.78	9114.05
466.96	9385.55
467.14	9394.91
467.32	9467.47
467.51	9399.59
467.69	9104.68
467.87	9212.35
468.05	9474.49
468.23	9533.00
468.41	9504.92
468.60	9500.23
468.78	9479.17
468.96	9612.58
469.14	9647.69
469.32	9753.01
469.50	9521.30
469.69	9603.22
469.87	9799.82
470.05	9987.07
470.23	9996.43
470.41	9729.61
470.59	9846.63
470.77	9942.60
470.95	10078.35
471.14	10174.31
471.32	9806.84
471.50	10312.40
471.68	10289.00
471.86	10408.36
472.04	10427.09
472.22	10611.99
472.40	10281.97
472.58	10345.17
472.77	10473.90
472.95	10686.89
473.13	10806.25
473.31	10656.46
473.49	10494.96
473.67	10534.75
473.85	10750.08
474.03	11140.95
474.21	10878.81
474.39	10970.09
474.57	11096.48
474.75	11173.72
474.93	11372.66
475.12	11283.72
475.30	11400.75
475.48	11276.70
475.66	11272.02
475.84	11353.94
476.02	11431.18
476.20	11379.68
476.38	11772.89
476.56	11922.69
476.74	11805.66
476.92	11791.62
477.10	11812.68
477.28	12006.95
477.46	12084.19
477.64	12334.62
477.82	12475.06
478.00	12617.83
478.18	12479.74
478.36	12493.78
478.54	12854.22
478.72	12702.09
478.90	12924.44
479.08	12896.35
479.26	12929.12
479.44	13109.34
479.62	13212.32
479.80	13661.71
479.98	13327.01
480.16	13956.61
480.34	13547.02
480.52	13884.06
480.70	13748.31
480.88	13867.67
481.06	14024.49
481.24	13973.00
481.41	14155.56
481.59	14090.02
481.77	14478.55
481.95	14717.29
482.13	14682.18
482.31	14511.32
482.49	14916.23
482.67	14941.98
482.85	15063.69
483.03	15225.18
483.21	15630.10
483.39	15482.64
483.57	15183.06
483.74	15651.16
483.92	15737.76
484.10	15545.84
484.28	15765.85
484.46	16032.67
484.64	16505.46
484.82	16189.49
485.00	16376.73
485.18	16367.37
485.35	16613.12
485.53	16287.79
485.71	16098.20
485.89	16526.52
486.07	16627.17
486.25	16725.47
486.43	17043.78
486.61	17062.51
486.78	17146.76
486.96	17404.22
487.14	17692.11
487.32	17727.22
487.50	17942.55
487.68	18427.04
487.85	18455.12
488.03	18328.74
488.21	18469.17
488.39	18424.70
488.57	18541.72
488.75	18745.35
488.92	19154.94
489.10	19307.08
489.28	19536.45
489.46	19658.16
489.64	19651.14
489.81	20058.39
489.99	20418.83
490.17	20535.86
490.35	20535.86
490.53	20266.70
490.70	20395.43
490.88	20510.11
491.06	20765.23
491.24	21060.14
491.41	20634.16
491.59	20685.65
491.77	20570.97
491.95	21179.51
492.13	21605.49
492.30	21268.45
492.48	21799.75
492.66	21610.17
492.84	21869.97
493.01	22019.76
493.19	21736.56
493.37	22309.99
493.54	22022.10
493.72	22466.80
493.90	22745.33
494.08	22576.81
494.25	23108.11
494.43	23199.39
494.61	23494.30
494.79	23527.06
494.96	23442.81
495.14	23372.59
495.32	23737.71
495.49	23688.56
495.67	23690.90
495.85	24074.75
496.02	24318.17
496.20	24170.71
496.38	24322.85
496.55	24435.19
496.73	25074.16
496.91	24830.74
497.09	24973.52
497.26	24915.00
497.44	24805.00
497.62	25205.23
497.79	25497.80
497.97	25123.31
498.14	25219.27
498.32	25781.00
498.50	25848.88
498.67	25631.21
498.85	25958.88
499.03	26164.85
499.20	26572.10
499.38	26305.28
499.56	26361.45
499.73	26691.47
499.91	26536.99
500.08	26759.34
500.26	26511.25
500.44	26639.98
500.61	26665.72
500.79	26478.48
500.97	26803.82
501.14	27194.68
501.32	27033.19
501.49	26944.25
501.67	26944.25
501.84	27243.84
502.02	27365.54
502.20	27300.01
502.37	27440.44
502.55	27637.05
502.72	27946.00
502.90	27885.14
503.07	28095.79
503.25	28528.79
503.43	27953.02
503.60	28278.35
503.78	28666.88
503.95	28437.51
504.13	28336.87
504.30	28701.99
504.48	28865.83
504.65	29092.86
504.83	28996.90
505.01	29116.26
505.18	29230.95
505.36	29195.84
505.53	29504.79
505.71	29769.27
505.88	29645.23
506.06	29607.78
506.23	29802.04
506.41	29567.99
506.58	29949.50
506.76	29715.44
506.93	29706.08
507.11	29893.32
507.28	29820.77
507.46	29886.30
507.63	30043.12
507.81	30256.11
507.98	30064.18
508.16	30441.01
508.33	30459.73
508.50	30745.28
508.68	30632.93
508.85	31267.22
509.03	31075.29
509.20	31023.80
509.38	31299.98
509.55	31515.31
509.73	31358.50
509.90	31597.23
510.08	31412.33
510.25	31051.89
510.42	31817.24
510.60	31363.18
510.77	31889.80
510.95	31854.69
511.12	31875.76
511.30	32393.01
511.47	32278.33
511.64	32147.26
511.82	32325.14
511.99	32304.07
512.17	32584.94
512.34	32336.84
512.51	32528.77
512.69	32519.40
512.86	32994.53
513.04	32826.01
513.21	33074.11
513.38	32947.72
513.56	32856.44
513.73	32755.80
513.90	32891.55
514.08	33326.89
514.25	32634.09
514.43	33296.46
514.60	33298.80
514.77	32903.25
514.95	33785.63
515.12	33486.04
515.29	33797.34
515.47	34227.99
515.64	34005.64
515.81	33537.54
515.99	33565.62
516.16	33804.36
516.33	33577.33
516.51	33432.21
516.68	33544.56
516.85	33593.71
517.03	33539.88
517.20	33769.25
517.37	34169.48
517.54	34529.92
517.72	34553.33
517.89	33921.38
518.06	34143.74
518.24	33839.47
518.41	34223.31
518.58	34220.97
518.75	34417.58
518.93	35096.33
519.10	34562.69
519.27	35302.30
519.45	34976.97
519.62	35035.48
519.79	35314.00
519.96	35171.23
520.14	35644.02
520.31	35550.40
520.48	35611.25
520.65	35569.12
520.83	36046.59
521.00	35665.08
521.17	35882.75
521.34	35824.24
521.52	36325.11
521.69	36208.09
521.86	36367.24
522.03	36549.81
522.20	36051.27
522.38	36439.80
522.55	36631.72
522.72	36119.15
522.89	36318.09
523.07	36711.30
523.24	36886.84
523.41	37163.03
523.58	37038.98
523.75	37443.89
523.92	37539.85
524.10	37174.73
524.27	37200.47
524.44	37172.39
524.61	37469.64
524.78	37380.70
524.96	37701.35
525.13	37095.15
525.30	38061.79
525.47	38265.42
525.64	37731.78
525.81	37584.32
525.98	37174.73
526.16	37261.33
526.33	37165.37
526.50	37542.19
526.67	37427.51
526.84	37139.62
527.01	37834.76
527.18	37476.66
527.36	38005.62
527.53	38249.03
527.70	38316.91
527.87	38431.60
528.04	38174.14
528.21	38658.63
528.38	38672.67
528.55	38595.43
528.72	39173.55
528.89	38817.78
529.07	39108.01
529.24	38649.27
529.41	38574.37
529.58	38600.12
529.75	39136.10
529.92	38845.87
530.09	39445.05
530.26	39524.63
530.43	39239.08
530.60	39079.92
530.77	39026.09
530.94	39842.94
531.11	39409.94
531.28	39047.16
531.46	39548.03
531.63	39789.11
531.80	39215.68
531.97	39117.37
532.14	39381.85
532.31	39084.61
532.48	39761.02
532.65	39435.69
532.82	39625.27
532.99	39871.03
533.16	39952.94
533.33	39864.00
533.50	39847.62
533.67	39775.06
533.84	40119.12
534.01	40250.19
534.18	40144.87
534.35	40109.76
534.52	40451.48
534.69	40177.64
534.86	40603.61
535.03	40421.05
535.20	40732.34
535.37	41020.23
535.54	40734.68
535.71	40231.47
535.88	40620.00
536.05	40673.83
536.22	41163.00
536.38	41198.11
536.55	40758.09
536.72	40648.08
536.89	40442.12
537.06	40835.33
537.23	41277.69
537.40	40732.34
537.57	40865.75
537.74	41188.75
537.91	41825.37
538.08	41027.25
538.25	40699.58
538.42	41053.00
538.59	41687.28
538.75	41057.68
538.92	41109.17
539.09	41174.70
539.26	41415.78
539.43	41471.95
539.60	41509.40
539.77	41514.08
539.94	41645.15
540.11	41375.99
540.28	41305.77
540.44	41846.44
540.61	41411.10
540.78	40844.69
540.95	41860.48
541.12	41619.41
541.29	41970.49
541.46	41516.42
541.62	41776.22
541.79	41701.32
541.96	41546.85
542.13	41961.12
542.30	41794.95
542.47	41904.95
542.63	41504.72
542.80	41874.52
542.97	42380.08
543.14	42651.58
543.31	42295.82
543.48	42625.84
543.64	43105.65
543.81	43105.65
543.98	42937.13
544.15	42724.14
544.32	42993.30
544.48	43510.56
544.65	42738.18
544.82	42813.08
544.99	42564.98
545.16	42775.63
545.32	42756.91
545.49	43428.64
545.66	43662.69
545.83	43227.35
546.00	43339.70
546.16	42808.40
546.33	42955.85
546.50	42476.04
546.67	43454.39
546.83	42712.44
547.00	43283.53
547.17	43007.34
547.34	42656.26
547.50	43487.15
547.67	43466.09
547.84	43608.86
548.00	43353.74
548.17	43625.25
548.34	43555.03
548.51	44067.61
548.67	44079.31
548.84	44210.38
549.01	43819.51
549.18	43653.33
549.34	43777.38
549.51	43863.98
549.68	43543.33
549.84	43412.26
550.01	43653.33
550.18	43976.33
550.34	43739.93
550.51	43894.41
550.68	44039.52
550.84	43028.41
551.01	44128.46
551.18	43756.32
551.34	43426.30
551.51	43751.63
551.68	44383.58
551.84	44194.00
552.01	43983.35
552.18	44119.10
552.34	44027.82
552.51	44177.61
552.68	44091.01
552.84	44226.76
553.01	44685.51
553.18	43927.17
553.34	44369.54
553.51	44385.92
553.67	44322.72
553.84	44802.53
554.01	45158.30
554.17	44949.99
554.34	44643.38
554.51	44584.86
554.67	44706.57
554.84	44474.86
555.00	44261.87
555.17	44673.81
555.33	45013.18
555.50	45081.06
555.67	45085.74
555.83	44781.47
556.00	44580.18
556.16	44870.41
556.33	44858.71
556.50	44872.75
556.66	45137.23
556.83	44598.91
556.99	44706.57
557.16	44947.65
557.32	44376.56
557.49	45303.41
557.65	44905.52
557.82	45024.89
557.98	44708.91
558.15	44755.72
558.32	45265.96
558.48	44788.49
558.65	45385.33
558.81	44959.35
558.98	44945.31
559.14	44898.50
559.31	44802.53
559.47	45265.96
559.64	45422.78
559.80	45394.69
559.97	45029.57
560.13	44903.18
560.30	45160.64
560.46	45373.63
560.63	45441.50
560.79	45500.01
560.96	45343.20
561.12	45422.78
561.29	45336.18
561.45	45041.27
561.61	45474.27
561.78	45216.81
561.94	44868.07
562.11	45193.40
562.27	44959.35
562.44	45476.61
562.60	45558.53
562.77	45682.58
562.93	45343.20
563.10	45844.07
563.26	45521.08
563.42	45961.10
563.59	45708.32
563.75	45790.24
563.92	45790.24
564.08	45621.72
564.24	45776.20
564.41	45652.15
564.57	45694.28
564.74	45645.13
564.90	45406.39
565.07	45418.10
565.23	45638.11
565.39	45244.90
565.56	45762.15
565.72	45132.55
565.88	45350.22
566.05	45492.99
566.21	45563.21
566.38	45563.21
566.54	45947.06
566.70	46005.57
566.87	45925.99
567.03	46021.95
567.19	46258.35
567.36	45680.24
567.52	45633.42
567.68	45841.73
567.85	45469.59
568.01	46026.63
568.17	45928.33
568.34	45923.65
568.50	45483.63
568.66	45778.54
568.83	45668.53
568.99	45272.98
569.15	45574.91
569.32	45874.50
569.48	45432.14
569.64	46176.43
569.81	45940.04
569.97	45780.88
570.13	45785.56
570.30	45572.57
570.46	45478.95
570.62	45441.50
570.78	45397.03
570.95	45415.76
571.11	45708.32
571.27	45881.52
571.43	45577.25
571.60	45673.21
571.76	45797.26
571.92	45783.22
572.09	45869.82
572.25	46010.25
572.41	46164.73
572.57	46038.34
572.74	46354.31
572.90	46007.91
573.06	46253.67
573.22	45794.92
573.38	46043.02
573.55	45581.93
573.71	46024.29
573.87	45930.67
574.03	46064.08
574.20	46351.97
574.36	45565.55
574.52	45684.92
574.68	45890.88
574.84	45762.15
575.01	46160.05
575.17	46038.34
575.33	45811.31
575.49	45745.77
575.65	46103.87
575.82	46134.30
575.98	45834.71
576.14	46096.85
576.30	46665.60
576.46	45886.20
576.62	45818.33
576.79	46071.10
576.95	45797.26
577.11	46274.73
577.27	46045.36
577.43	46094.51
577.59	45743.43
577.75	45837.05
577.92	45607.68
578.08	46045.36
578.24	45312.77
578.40	45752.79
578.56	45820.67
578.72	45951.74
578.88	46307.50
579.04	46050.04
579.21	45497.67
579.37	45572.57
579.53	46188.13
579.69	45298.73
579.85	45947.06
580.01	46220.90
580.17	46195.15
580.33	46216.22
580.49	45977.48
580.65	45848.75
580.82	45970.46
580.98	45876.84
581.14	46073.45
581.30	46307.50
581.46	45703.64
581.62	45930.67
581.78	45879.18
581.94	46258.35
582.10	46274.73
582.26	46101.53
582.42	46031.32
582.58	46321.54
582.74	46057.06
582.90	46260.69
583.06	46272.39
583.22	46202.18
583.38	46529.85
583.54	46417.50
583.70	46293.46
583.86	45963.44
584.02	45654.49
584.18	45961.10
584.34	45851.09
584.50	46043.02
584.66	46279.41
584.82	45748.11
584.98	45794.92
585.14	45975.14
585.30	45720.02
585.46	45970.46
585.62	46045.36
585.78	46363.67
585.94	45518.74
586.10	45717.68
586.26	45869.82
586.42	46209.20
586.58	46176.43
586.74	45993.87
586.90	46248.99
587.06	46202.18
587.22	45722.37
587.38	46010.25
587.54	46300.48
587.70	46326.22
587.86	46309.84
588.02	46113.23
588.18	45968.12
588.34	45551.51
588.49	45785.56
588.65	45958.76
588.81	45652.15
588.97	45736.41
589.13	45195.74
589.29	45474.27
589.45	45748.11
589.61	45624.06
589.77	46007.91
589.93	46394.10
590.08	45979.82
590.24	46080.47
590.40	46019.61
590.56	46424.53
590.72	45954.08
590.88	45813.65
591.04	46326.22
591.20	46677.30
591.35	46433.89
591.51	46506.44
591.67	45780.88
591.83	46211.54
591.99	46136.64
592.15	46422.19
592.31	46485.38
592.46	46178.77
592.62	46333.24
592.78	46017.27
592.94	46185.79
593.10	46466.66
593.26	46593.04
593.41	46270.05
593.57	46134.30
593.73	46274.73
593.89	46284.09
594.05	46253.67
594.20	46010.25
594.36	46515.81
594.52	46204.52
594.68	45984.51
594.84	46312.18
594.99	46354.31
595.15	46452.61
595.31	46354.31
595.47	46300.48
595.62	46024.29
595.78	46157.70
595.94	46358.99
596.10	46740.50
596.25	46401.12
596.41	46443.25
596.57	45900.25
596.73	46171.75
596.88	46272.39
597.04	45872.16
597.20	46279.41
597.36	46040.68
597.51	46735.82
597.67	46279.41
597.83	46263.03
597.99	46684.33
598.14	46103.87
598.30	45965.78
598.46	46319.20
598.61	46670.28
598.77	46417.50
598.93	46288.77
599.09	46141.32
599.24	46618.79
599.40	46527.51
599.56	46487.72
599.71	45783.22
599.87	46426.87
600.03	46305.16
600.18	45951.74
600.34	45897.91
600.50	45748.11
600.65	46108.55
600.81	46344.95
600.97	46614.11
601.12	46536.87
601.28	46007.91
601.44	46408.14
601.59	46078.13
601.75	45925.99
601.91	45837.05
602.06	46019.61
602.22	46309.84
602.37	46323.88
602.53	46447.93
602.69	46532.19
602.84	46169.41
603.00	46134.30
603.16	46204.52
603.31	46270.05
603.47	46103.87
603.62	46014.93
603.78	46117.92
603.94	45745.77
604.09	46265.37
604.25	46450.27
604.40	46136.64
604.56	46185.79
604.71	46373.03
604.87	45745.77
605.03	46202.18
605.18	46174.09
605.34	46164.73
605.49	45696.62
605.65	46054.72
605.80	45982.16
605.96	46412.82
606.12	45846.41
606.27	45963.44
606.43	45808.96
606.58	46181.11
606.74	46576.66
606.89	45797.26
607.05	45872.16
607.20	46305.16
607.36	46092.17
607.51	46087.49
607.67	46057.06
607.82	45801.94
607.98	45837.05
608.13	46258.35
608.29	45890.88
608.44	45883.86
608.60	45390.01
608.75	46012.59
608.91	45776.20
609.06	45478.95
609.22	46169.41
609.37	45544.48
609.53	46045.36
609.68	45698.96
609.84	45308.09
609.99	45162.98
610.15	45219.15
610.30	45949.40
610.46	45787.90
610.61	45645.13
610.76	45773.86
610.92	45947.06
611.07	45687.26
611.23	45677.90
611.38	45642.79
611.54	45666.19
611.69	45237.87
611.84	45132.55
612.00	45382.99
612.15	45352.56
612.31	45851.09
612.46	45357.24
612.62	45347.88
612.77	45125.53
612.92	45474.27
613.08	45275.32
613.23	44821.26
613.39	44975.73
613.54	44690.19
613.69	44711.25
613.85	44863.39
614.00	45017.86
614.15	45146.59
614.31	45263.62
614.46	45123.19
614.62	44481.88
614.77	45027.23
614.92	45036.59
615.08	44795.51
615.23	44992.12
615.38	44912.54
615.54	44657.42
615.69	44528.69
615.84	44636.36
616.00	45052.97
616.15	44872.75
616.30	44952.33
616.46	44788.49
616.61	44421.03
616.76	44538.05
616.92	44350.81
617.07	44442.09
617.22	45111.49
617.37	44816.58
617.53	44575.50
617.68	45324.47
617.83	44547.42
617.99	44172.93
618.14	44453.79
618.29	44154.21
618.45	44540.39
618.60	44140.16
618.75	43952.92
618.90	44348.47
619.06	44222.08
619.21	44194.00
619.36	44369.54
619.51	44126.12
619.67	44182.29
619.82	44156.55
619.97	44041.86
620.12	43323.32
620.28	43702.48
620.43	43744.61
620.58	44250.17
620.73	44076.97
620.89	43849.94
621.04	43999.73
621.19	44205.70
621.34	43807.81
621.49	43643.97
621.65	44130.80
621.80	44243.15
621.95	43590.14
622.10	43997.39
622.25	43646.31
622.41	43894.41
622.56	43559.71
622.71	44093.35
622.86	43501.20
623.01	44163.57
623.16	43878.02
623.32	43208.63
623.47	43856.96
623.62	43672.06
623.77	43152.46
623.92	43290.55
624.07	43548.01
624.23	43222.67
624.38	43342.04
624.53	43393.53
624.68	43442.68
624.83	43349.06
624.98	43267.14
625.13	42801.38
625.29	43278.85
625.44	43498.86
625.59	42579.03
625.74	43058.84
625.89	43049.47
626.04	42817.76
626.19	42572.00
626.34	43079.90
626.49	42782.65
626.65	42398.80
626.80	42801.38
626.95	42642.22
627.10	42667.97
627.25	42808.40
627.40	42270.08
627.55	42731.16
627.70	42773.29
627.85	42490.09
628.00	42492.43
628.15	42815.42
628.30	42674.99
628.45	42485.40
628.60	42689.03
628.76	42251.35
628.91	42314.55
629.06	42188.16
629.21	42370.72
629.36	42234.97
629.51	42274.76
629.66	42131.98
629.81	42251.35
629.96	41944.74
630.11	42045.38
630.26	42157.73
630.41	42312.20
630.56	42312.20
630.71	42192.84
630.86	42277.10
631.01	42005.59
631.16	41865.16
631.31	41399.40
631.46	42010.28
631.61	42078.15
631.76	41783.24
631.91	42092.19
632.06	42204.54
632.21	42148.37
632.36	42047.72
632.51	41591.32
632.66	41996.23
632.81	41219.17
632.96	41862.82
633.10	41588.98
633.25	41928.36
633.40	42007.94
633.55	42452.64
633.70	41518.76
633.85	41834.74
634.00	41670.90
634.15	41682.60
634.30	41558.55
634.45	41682.60
634.60	41191.09
634.75	41067.04
634.90	41085.76
635.05	41256.62
635.19	40928.95
635.34	41357.27
635.49	41715.37
635.64	41514.08
635.79	41343.22
635.94	40854.05
636.09	40697.24
636.24	41219.17
636.39	40648.08
636.53	40739.36
636.68	41031.93
636.83	41003.85
636.98	41146.62
637.13	41048.32
637.28	41198.11
637.43	41200.45
637.57	41294.07
637.72	41036.61
637.87	41153.64
638.02	41048.32
638.17	40781.49
638.32	41062.36
638.46	40643.40
638.61	40404.67
638.76	40325.09
638.91	40886.82
639.06	40559.14
639.20	40648.08
639.35	40781.49
639.50	40917.25
639.65	40486.59
639.80	40889.16
639.94	40486.59
640.09	40556.80
640.24	40741.71
640.39	40123.80
640.54	39810.17
640.68	40226.79
640.83	40603.61
640.98	39805.49
641.13	40133.17
641.27	40140.19
641.42	40072.31
641.57	40147.21
641.72	40055.93
641.86	39817.19
642.01	40320.41
642.16	40091.04
642.31	39917.84
642.45	40030.18
642.60	39927.20
642.75	40215.08
642.90	39866.34
643.04	39875.71
643.19	39651.02
643.34	40037.20
643.48	40194.02
643.63	39917.84
643.78	39569.10
643.93	39913.16
644.07	39592.50
644.22	39271.85
644.37	39566.76
644.51	39468.45
644.66	39629.95
644.81	39627.61
644.95	39803.15
645.10	39669.74
645.25	39583.14
645.39	39529.31
645.54	39395.90
645.69	39487.18
645.83	39407.60
645.98	39311.64
646.13	38955.88
646.27	39171.21
646.42	38965.24
646.57	38911.41
646.71	39653.36
646.86	39583.14
647.00	39077.58
647.15	39440.37
647.30	39428.66
647.44	39229.72
647.59	39215.68
647.74	39112.69
647.88	38937.15
648.03	39297.59
648.17	39037.80
648.32	38993.32
648.47	38923.11
648.61	38682.03
648.76	38974.60
648.90	38604.80
649.05	38504.15
649.20	39522.29
649.34	38728.84
649.49	38284.14
649.63	39056.52
649.78	39136.10
649.92	38822.47
650.07	38717.14
650.21	38667.99
650.36	38934.81
650.51	38850.55
650.65	39250.78
650.80	38909.07
650.94	38579.05
651.09	38780.34
651.23	38550.96
651.38	38464.36
651.52	38087.54
651.67	38270.10
651.81	38389.47
651.96	37965.83
652.10	38047.75
652.25	37876.89
652.39	38508.83
652.54	38141.37
652.68	38169.46
652.83	38480.75
652.97	38579.05
653.12	38359.04
653.26	38073.49
653.41	38134.35
653.55	38401.17
653.70	37818.38
653.84	38223.29
653.99	37589.00
654.13	37998.60
654.27	38014.98
654.42	37921.36
654.56	37818.38
654.71	37762.20
654.85	37525.81
655.00	37895.61
655.14	37593.68
655.29	37581.98
655.43	37560.92
655.57	37099.83
655.72	37387.72
655.86	37277.71
656.01	37008.55
656.15	36704.28
656.30	36914.93
656.44	37270.69
656.58	37488.36
656.73	37378.36
656.87	37001.53
657.01	37354.95
657.16	37350.27
657.30	36797.90
657.45	36912.59
657.59	36966.42
657.73	37153.66
657.88	37062.38
658.02	37706.03
658.16	37275.37
658.31	36664.49
658.45	37432.19
658.60	37013.23
658.74	37214.52
658.88	36943.02
659.03	37113.87
659.17	36531.08
659.31	36371.92
659.46	36596.62
659.60	36739.39
659.74	36517.04
659.89	36299.37
660.03	36545.12
660.17	36772.16
660.32	36701.94
660.46	36605.98
660.60	36189.36
660.74	36673.85
660.89	36591.94
661.03	35976.37
661.17	36495.97
661.32	36374.27
661.46	36161.28
661.60	36233.83
661.74	36245.54
661.89	35952.97
662.03	35990.42
662.17	35730.62
662.31	36051.27
662.46	36683.22
662.60	35915.52
662.74	35552.74
662.88	35723.60
663.03	35171.23
663.17	35576.14
663.31	35494.22
663.45	35386.56
663.60	35559.76
663.74	35332.73
663.88	35178.25
664.02	35393.58
664.17	35716.58
664.31	34873.98
664.45	35164.21
664.59	35061.22
664.73	35086.97
664.88	35023.78
665.02	34272.46
665.16	34792.06
665.30	34684.40
665.44	34492.47
665.59	34398.85
665.73	34595.46
665.87	34349.70
666.01	34721.85
666.15	34850.58
666.29	34361.40
666.44	34321.62
666.58	34518.22
666.72	34061.82
666.86	34370.77
667.00	34122.67
667.14	34094.58
667.28	34094.58
667.43	34117.99
667.57	34183.52
667.71	34277.15
667.85	34052.45
667.99	34132.03
668.13	34047.77
668.27	33907.34
668.41	34155.44
668.56	33537.54
668.70	33778.61
668.84	33757.55
668.98	33486.04
669.12	33467.32
669.26	33331.57
669.40	33008.58
669.54	33294.12
669.68	33312.84
669.82	33090.49
669.96	33251.99
670.10	33120.92
670.25	33111.56
670.39	32931.34
670.53	32678.56
670.67	32957.08
670.81	32910.27
670.95	32627.07
671.09	32519.40
671.23	32257.26
671.37	32496.00
671.51	31960.02
671.65	32430.46
671.79	32067.68
671.93	32247.90
672.07	32339.18
672.21	31903.84
672.35	31910.86
672.49	31789.16
672.63	31747.03
672.77	32034.91
672.91	31810.22
673.05	32037.25
673.19	31903.84
673.33	31721.28
673.47	31456.80
673.61	31548.08
673.75	31339.77
673.89	31028.48
674.03	31178.28
674.17	31019.12
674.31	31484.89
674.45	31599.57
674.59	31360.84
674.73	31316.37
674.87	30864.64
675.01	30813.15
675.15	30710.17
675.29	30843.58
675.43	30913.80
675.56	30700.81
675.70	30768.68
675.84	30452.71
675.98	29589.05
676.12	30223.34
676.26	30438.67
676.40	30572.08
676.54	30239.72
676.68	29874.60
676.82	29528.20
676.96	29668.63
677.10	29649.91
677.23	29560.97
677.37	29584.37
677.51	29149.03
677.65	29301.17
677.79	29195.84
677.93	28914.98
678.07	28706.67
678.21	28725.39
678.34	28629.43
678.48	28573.26
678.62	28568.58
678.76	27943.66
678.90	28278.35
679.04	28311.12
679.18	28542.83
679.31	27601.94
679.45	27887.48
679.59	27948.34
679.73	28189.41
679.87	28056.00
680.00	27725.99
680.14	27630.02
680.28	27714.28
680.42	27349.16
680.56	27562.15
680.70	27276.60
680.83	27115.11
680.97	27077.66
681.11	27016.80
681.25	27292.99
681.39	27660.45
681.52	26717.22
681.66	27077.66
681.80	26934.88
681.94	26913.82
682.07	26370.82
682.21	26354.43
682.35	26319.32
682.49	26167.19
682.62	25965.90
682.76	26312.30
682.90	26078.25
683.04	26047.82
683.17	25916.75
683.31	25699.08
683.45	25635.89
683.59	25476.73
683.72	25516.52
683.86	25619.50
684.00	25429.92
684.13	25301.19
684.27	25055.43
684.41	25106.93
684.55	25034.37
684.68	24758.19
684.82	25113.95
684.96	24926.71
685.09	24505.41
685.23	24589.67
685.37	24844.79
685.50	24479.66
685.64	24884.58
685.78	24360.30
685.91	24161.35
686.05	23992.83
686.19	23786.86
686.32	23913.25
686.46	23255.56
686.60	23194.71
686.73	23178.33
686.87	22878.74
687.01	23077.68
687.14	22848.31
687.28	22876.40
687.42	22895.12
687.55	23016.83
687.69	23042.57
687.82	22827.24
687.96	22904.48
688.10	22408.29
688.23	22576.81
688.37	22558.08
688.50	22658.73
688.64	22141.47
688.78	22143.81
688.91	22139.13
689.05	21680.38
689.18	21678.04
689.32	21692.08
689.46	22162.53
689.59	22277.22
689.73	21991.67
689.86	21558.67
690.00	21774.00
690.13	21296.53
690.27	21326.96
690.41	21322.28
690.54	20964.18
690.68	21135.04
690.81	21270.79
690.95	21153.76
691.08	21003.97
691.22	21184.19
691.35	20879.92
691.49	20938.43
691.62	21036.74
691.76	20891.62
691.89	20592.03
692.03	20451.60
692.16	20467.98
692.30	20348.62
692.43	20152.01
692.57	19929.66
692.70	20149.67
692.84	19676.88
692.97	19875.83
693.11	19733.06
693.24	19571.56
693.38	19616.03
693.51	19529.43
693.65	19548.15
693.78	19510.71
693.92	19278.99
694.05	19374.95
694.19	19068.34
694.32	19044.94
694.45	19445.17
694.59	19012.17
694.72	19335.17
694.86	19073.03
694.99	18934.93
695.13	18625.98
695.26	18225.75
695.39	18677.48
695.53	18731.31
695.66	18335.76
695.80	18265.54
695.93	17972.97
696.07	18143.83
696.20	18380.23
696.33	18073.62
696.47	17940.21
696.60	18033.83
696.73	17834.88
696.87	17612.53
697.00	17570.40
697.14	17673.39
697.27	17317.62
697.40	17851.27
697.54	17525.93
697.67	16950.16
697.80	17357.41
697.94	16954.84
698.07	16924.41
698.21	16882.28
698.34	17078.89
698.47	16931.44
698.61	16730.15
698.74	16643.55
698.87	16491.41
699.01	16425.88
699.14	16645.89
699.27	16168.42
699.40	16245.66
699.54	16608.44
699.67	16056.08
699.80	16060.76
699.94	16002.24
700.07	16259.70
700.20	16147.36
700.34	15950.75
700.47	16175.44
700.60	15936.71
700.73	15871.17
700.87	15611.37
701.00	15754.15
701.13	15358.60
701.26	15562.22
701.40	15227.53
701.53	15229.87
701.66	15192.42
701.79	15377.32
701.93	14993.47
702.06	14995.81
702.19	14588.56
702.32	14895.17
702.46	14843.68
702.59	14782.82
702.72	14920.92
702.85	14874.10
702.99	14567.49
703.12	14569.83
703.25	14614.30
703.38	14270.25
703.51	14544.09
703.65	14059.60
703.78	13818.52
703.91	13914.48
704.04	14026.83
704.17	13755.33
704.31	13996.40
704.44	13855.97
704.57	13734.26
704.70	13486.17
704.83	13692.13
704.96	13451.06
705.10	13558.72
705.23	13493.19
>>>>>End Processed Spectral Data<<<<<
