SpectraSuite Data File
++++++++++++++++++++++++++++++++++++
Date: Fri Oct 25 10:47:53 EDT 2013
User: price-jones
Dark Spectrum Present: No
Reference Spectrum Present: No
Number of Sampled Component Spectra: 1
Spectrometers: USB2+H05261
Integration Time (usec): 100000 (USB2+H05261)
Spectra Averaged: 1 (USB2+H05261)
Boxcar Smoothing: 0 (USB2+H05261)
Correct for Electrical Dark: No (USB2+H05261)
Strobe/Lamp Enabled: No (USB2+H05261)
Correct for Detector Non-linearity: No (USB2+H05261)
Correct for Stray Light: No (USB2+H05261)
Number of Pixels in Processed Spectrum: 2048
>>>>>Begin Processed Spectral Data<<<<<
365.73	156.82
365.92	156.82
366.12	156.82
366.32	98.30
366.52	105.32
366.72	16.38
366.91	23.41
367.11	30.43
367.31	32.77
367.51	37.45
367.70	28.09
367.90	72.56
368.10	46.81
368.30	0.00
368.49	7.02
368.69	0.00
368.89	126.39
369.09	16.38
369.28	142.77
369.48	91.28
369.68	28.09
369.87	98.30
370.07	95.96
370.27	159.16
370.47	236.39
370.66	414.27
370.86	332.36
371.06	493.85
371.25	486.83
371.45	482.15
371.65	404.91
371.84	463.43
372.04	409.59
372.24	447.04
372.44	447.04
372.63	484.49
372.83	512.58
373.03	491.51
373.22	507.90
373.42	482.15
373.62	500.87
373.81	430.66
374.01	613.22
374.21	587.47
374.40	540.66
374.60	564.07
374.79	550.03
374.99	559.39
375.19	543.00
375.38	641.31
375.58	568.75
375.78	552.37
375.97	610.88
376.17	650.67
376.37	594.50
376.56	636.63
376.76	543.00
376.95	603.86
377.15	594.50
377.35	596.84
377.54	662.37
377.74	587.47
377.93	596.84
378.13	669.39
378.33	631.94
378.52	564.07
378.72	653.01
378.91	648.33
379.11	636.63
379.31	585.13
379.50	622.58
379.70	676.41
379.89	603.86
380.09	655.35
380.28	667.05
380.48	648.33
380.68	650.67
380.87	695.14
381.07	613.22
381.26	711.52
381.46	678.76
381.65	709.18
381.85	671.73
382.04	678.76
382.24	681.10
382.43	596.84
382.63	662.37
382.83	671.73
383.02	678.76
383.22	667.05
383.41	683.44
383.61	765.36
383.80	777.06
384.00	711.52
384.19	781.74
384.39	704.50
384.58	755.99
384.78	770.04
384.97	739.61
385.17	737.27
385.36	760.67
385.56	706.84
385.75	800.46
385.95	732.59
386.14	793.44
386.34	774.72
386.53	833.23
386.72	760.67
386.92	793.44
387.11	849.61
387.31	830.89
387.50	847.27
387.70	720.88
387.89	851.96
388.09	781.74
388.28	863.66
388.48	807.48
388.67	870.68
388.86	866.00
389.06	840.25
389.25	823.87
389.45	908.13
389.64	908.13
389.84	950.26
390.03	903.45
390.22	926.85
390.42	905.79
390.61	901.11
390.81	823.87
391.00	1011.11
391.19	968.98
391.39	896.43
391.58	943.24
391.78	898.77
391.97	1053.24
392.16	875.36
392.36	1032.18
392.55	968.98
392.75	1055.58
392.94	1086.01
393.13	1029.84
393.33	1020.47
393.52	976.00
393.71	992.39
393.91	985.37
394.10	1041.54
394.29	1076.65
394.49	1018.13
394.68	1111.75
394.88	1074.31
395.07	1123.46
395.26	1153.88
395.46	1118.78
395.65	1144.52
395.84	1125.80
396.04	1104.73
396.23	1057.92
396.42	1123.46
396.62	1109.41
396.81	1071.97
397.00	1186.65
397.19	1121.12
397.39	1240.48
397.58	1291.98
397.77	1156.22
397.97	1270.91
398.16	1226.44
398.35	1280.27
398.55	1235.80
398.74	1338.79
398.93	1306.02
399.12	1235.80
399.32	1235.80
399.51	1327.08
399.70	1416.02
399.90	1371.55
400.09	1439.43
400.28	1439.43
400.47	1334.11
400.67	1430.07
400.86	1502.62
401.05	1497.94
401.24	1355.17
401.44	1474.54
401.63	1528.37
401.82	1570.50
402.01	1486.24
402.21	1540.07
402.40	1537.73
402.59	1561.14
402.78	1572.84
402.97	1441.77
403.17	1549.43
403.36	1586.88
403.55	1500.28
403.74	1561.14
403.93	1720.29
404.13	1743.70
404.32	1703.91
404.51	1689.87
404.70	1664.12
404.89	1664.12
405.09	1757.74
405.28	1741.36
405.47	1696.89
405.66	1673.48
405.85	1727.32
406.05	1626.67
406.24	1739.02
406.43	1823.28
406.62	1935.62
406.81	1959.03
407.00	1769.44
407.20	1799.87
407.39	1783.49
407.58	1984.77
407.77	1907.54
407.96	1947.33
408.15	1907.54
408.34	2015.20
408.54	1977.75
408.73	2015.20
408.92	2017.54
409.11	2029.24
409.30	2094.78
409.49	2008.18
409.68	2036.27
409.87	2101.80
410.07	2127.55
410.26	2202.44
410.45	2111.16
410.64	2078.40
410.83	2282.02
411.02	2125.21
411.21	2312.45
411.40	2157.97
411.59	2267.98
411.78	2326.49
411.98	2312.45
412.17	2279.68
412.36	2244.57
412.55	2415.43
412.74	2410.75
412.93	2328.83
413.12	2436.50
413.31	2504.37
413.50	2452.88
413.69	2530.12
413.88	2581.61
414.07	2600.34
414.26	2726.72
414.45	2590.97
414.64	2558.21
414.83	2773.53
415.02	2733.75
415.22	2731.41
415.41	2864.82
415.60	2740.77
415.79	2771.19
415.98	2818.00
416.17	2918.65
416.36	2803.96
416.55	2848.43
416.74	3042.70
416.93	2916.31
417.12	2876.52
417.31	2965.46
417.50	3066.10
417.69	3009.93
417.88	2939.71
418.07	2984.18
418.26	3073.12
418.45	3049.72
418.64	3239.30
418.83	3143.34
419.02	3194.83
419.21	3145.68
419.39	3213.56
419.58	3157.38
419.77	3260.37
419.96	3204.19
420.15	3279.09
420.34	3295.47
420.53	3358.67
420.72	3386.76
420.91	3372.71
421.10	3279.09
421.29	3435.91
421.48	3417.18
421.67	3377.39
421.86	3452.29
422.05	3494.42
422.24	3307.18
422.43	3379.73
422.61	3442.93
422.80	3555.27
422.99	3536.55
423.18	3564.64
423.37	3588.04
423.56	3618.47
423.75	3557.61
423.94	3424.20
424.13	3325.90
424.32	3449.95
424.50	3581.02
424.69	3686.34
424.88	3672.30
425.07	3538.89
425.26	3494.42
425.45	3510.80
425.64	3644.21
425.83	3480.38
426.01	3637.19
426.20	3595.06
426.39	3590.38
426.58	3555.27
426.77	3489.74
426.96	3623.15
427.15	3588.04
427.33	3728.47
427.52	3688.68
427.71	3740.18
427.90	3786.99
428.09	3854.86
428.28	3681.66
428.46	3719.11
428.65	3786.99
428.84	3854.86
429.03	3796.35
429.22	3691.02
429.40	3819.75
429.59	3868.91
429.78	3655.92
429.97	3691.02
430.16	3702.73
430.34	3801.03
430.53	3791.67
430.72	3794.01
430.91	3948.48
431.10	3936.78
431.28	4119.34
431.47	4156.79
431.66	4262.12
431.85	4098.28
432.03	4191.90
432.22	4276.16
432.41	4175.52
432.60	4189.56
432.79	4124.02
432.97	4341.69
433.16	4421.27
433.35	4231.69
433.54	4196.58
433.72	4287.86
433.91	4290.20
434.10	4266.80
434.28	4229.35
434.47	4430.63
434.66	4500.85
434.85	4325.31
435.03	4505.53
435.22	4542.98
435.41	4484.47
435.59	4676.39
435.78	4568.73
435.97	4540.64
436.16	4514.89
436.34	4351.06
436.53	4582.77
436.72	4720.86
436.90	4660.01
437.09	4664.69
437.28	4535.96
437.46	4641.28
437.65	4751.29
437.84	4622.56
438.02	4620.22
438.21	4791.08
438.40	4669.37
438.58	4758.31
438.77	4851.93
438.96	4905.76
439.14	5015.77
439.33	5018.11
439.52	5097.69
439.70	5036.83
439.89	5081.30
440.08	5078.96
440.26	5085.98
440.45	5179.61
440.63	5057.90
440.82	5193.65
441.01	5270.89
441.19	5296.63
441.38	5448.77
441.57	5399.62
441.75	5544.73
441.94	5710.91
442.12	5446.43
442.31	5657.07
442.50	5626.65
442.68	5792.83
442.87	5738.99
443.05	5652.39
443.24	5790.49
443.43	5865.38
443.61	5687.50
443.80	5888.79
443.98	5738.99
444.17	5809.21
444.35	6036.24
444.54	5802.19
444.73	5849.00
444.91	5856.02
445.10	5743.67
445.28	5692.18
445.47	5701.54
445.65	5820.91
445.84	5823.25
446.02	5834.96
446.21	5884.11
446.39	5919.21
446.58	5982.41
446.77	5982.41
446.95	5841.98
447.14	5879.43
447.32	6087.73
447.51	5989.43
447.69	6022.20
447.88	5919.21
448.06	5837.30
448.25	5989.43
448.43	6106.46
448.62	5881.77
448.80	5987.09
448.99	6157.95
449.17	6111.14
449.36	6085.39
449.54	6171.99
449.73	6218.80
449.91	6253.91
450.10	6354.55
450.28	6487.96
450.46	6363.92
450.65	6349.87
450.83	6352.21
451.02	6389.66
451.20	6396.68
451.39	6406.05
451.57	6471.58
451.76	6380.30
451.94	6527.75
452.13	6661.16
452.31	6473.92
452.49	6441.15
452.68	6354.55
452.86	6651.80
453.05	6520.73
453.23	6832.02
453.42	6494.99
453.60	6483.28
453.78	6527.75
453.97	6661.16
454.15	6675.21
454.34	6612.01
454.52	6707.98
454.70	6801.60
454.89	6956.07
455.07	6862.45
455.26	6892.88
455.44	7140.97
455.62	6869.47
455.81	6984.16
455.99	7005.22
456.17	6981.82
456.36	7007.56
456.54	7035.65
456.73	7272.04
456.91	7250.98
457.09	7164.38
457.28	7375.03
457.46	7215.87
457.64	7246.30
457.83	7356.30
458.01	7248.64
458.19	7421.84
458.38	7396.09
458.56	7485.03
458.74	7396.09
458.93	7304.81
459.11	7426.52
459.29	7588.02
459.48	7637.17
459.66	7456.95
459.84	7789.30
460.03	7651.21
460.21	7686.32
460.39	7566.95
460.57	7559.93
460.76	7733.13
460.94	7765.90
461.12	7508.44
461.31	7920.37
461.49	7852.50
461.67	7604.40
461.85	7981.23
462.04	7840.79
462.22	8479.76
462.40	8009.31
462.59	8049.10
462.77	7957.82
462.95	8053.78
463.13	8018.68
463.32	8042.08
463.50	8002.29
463.68	8060.80
463.86	8028.04
464.05	7927.39
464.23	7932.08
464.41	8196.56
464.59	8070.17
464.78	8374.44
464.96	8264.43
465.14	8226.98
465.32	8189.53
465.50	8418.91
465.69	8437.63
465.87	8154.43
466.05	8290.18
466.23	8252.73
466.41	8294.86
466.60	8638.92
466.78	8294.86
466.96	8215.28
467.14	8339.33
467.32	8416.57
467.51	8458.70
467.69	8390.82
467.87	8409.54
468.05	8510.19
468.23	8519.55
468.41	8610.83
468.60	8489.12
468.78	8652.96
468.96	8685.73
469.14	8826.16
469.32	8732.54
469.50	8648.28
469.69	8912.76
469.87	8919.78
470.05	8919.78
470.23	8802.75
470.41	9062.55
470.59	9109.36
470.77	8879.99
470.95	9039.15
471.14	9275.54
471.32	9025.11
471.50	9275.54
471.68	9240.44
471.86	9249.80
472.04	9373.85
472.22	9380.87
472.40	9430.02
472.58	9502.58
472.77	9198.31
472.95	9600.88
473.13	9933.23
473.31	9500.23
473.49	9507.26
473.67	9511.94
473.85	9439.38
474.03	9856.00
474.21	9905.15
474.39	9832.59
474.57	10148.56
474.75	10139.20
474.93	10073.67
475.12	10113.45
475.30	10195.37
475.48	10403.68
475.66	10298.36
475.84	10118.14
476.02	10307.72
476.20	10396.66
476.38	10675.18
476.56	10717.31
476.74	10518.37
476.92	10698.59
477.10	10949.03
477.28	10848.38
477.46	10761.78
477.64	11257.98
477.82	11234.57
478.00	11335.21
478.18	11452.24
478.36	11293.08
478.54	11367.98
478.72	11592.67
478.90	11683.95
479.08	11726.08
479.26	11953.12
479.44	11896.94
479.62	11866.52
479.80	12039.72
479.98	12016.31
480.16	12552.29
480.34	12123.98
480.52	12540.59
480.70	12601.44
480.88	12374.41
481.06	12758.26
481.24	12762.94
481.41	12800.39
481.59	13074.23
481.77	12872.95
481.95	13198.28
482.13	13132.75
482.31	13200.62
482.49	13444.04
482.67	13357.44
482.85	13797.46
483.03	13635.96
483.21	13624.26
483.39	14305.35
483.57	13839.59
483.74	14307.69
483.92	14204.71
484.10	14122.79
484.28	14794.53
484.46	14609.62
484.64	14956.02
484.82	14595.58
485.00	14684.52
485.18	15133.90
485.35	15187.74
485.53	15152.63
485.71	15094.11
485.89	15410.09
486.07	15279.02
486.25	15374.98
486.43	15379.66
486.61	15728.40
486.78	16013.95
486.96	15798.62
487.14	15983.52
487.32	16379.07
487.50	16400.13
487.68	16842.50
487.85	16826.11
488.03	17104.64
488.21	16957.18
488.39	17029.74
488.57	17069.53
488.75	17357.41
488.92	17472.10
489.10	17802.11
489.28	17839.56
489.46	17830.20
489.64	18033.83
489.81	18118.09
489.99	18267.88
490.17	18321.71
490.35	18705.56
490.53	18607.26
490.70	18995.79
490.88	18663.43
491.06	18675.13
491.24	18738.33
491.41	19243.88
491.59	19040.26
491.77	19253.25
491.95	19400.70
492.13	19325.80
492.30	19742.42
492.48	20063.07
492.66	19922.64
492.84	19857.10
493.01	20250.32
493.19	20130.95
493.37	20540.54
493.54	20507.77
493.72	20805.02
493.90	20683.31
494.08	20720.76
494.25	21116.31
494.43	21099.93
494.61	21692.08
494.79	21603.14
494.96	21322.28
495.14	21490.80
495.32	21909.75
495.49	21872.31
495.67	21682.72
495.85	22078.27
496.02	22085.30
496.20	22434.03
496.38	22377.86
496.55	22492.55
496.73	23103.43
496.91	22309.99
497.09	22586.17
497.26	22796.82
497.44	23061.30
497.62	23030.87
497.79	23522.38
497.97	23117.47
498.14	23501.32
498.32	23695.58
498.50	23342.16
498.67	24025.60
498.85	23812.61
499.03	24182.42
499.20	24034.96
499.38	24130.92
499.56	24339.23
499.73	24432.85
499.91	24407.11
500.08	24685.63
500.26	24400.08
500.44	24379.02
500.61	24755.85
500.79	24634.14
500.97	24940.75
501.14	24931.39
501.32	25074.16
501.49	25296.51
501.67	25266.08
501.84	25326.94
502.02	25455.67
502.20	25441.62
502.37	25928.45
502.55	25619.50
502.72	25715.47
502.90	26024.42
503.07	25523.54
503.25	25846.54
503.43	25898.03
503.60	25958.88
503.78	26029.10
503.95	26342.73
504.13	26534.65
504.30	26661.04
504.48	26162.51
504.65	26607.21
504.83	26522.95
505.01	26841.26
505.18	27047.23
505.36	27070.64
505.53	27297.67
505.71	27449.80
505.88	27370.22
506.06	27349.16
506.23	27557.47
506.41	27405.33
506.58	27669.81
506.76	27630.02
506.93	28016.21
507.11	27592.58
507.28	27929.61
507.46	27690.88
507.63	27618.32
507.81	28091.11
507.98	28170.69
508.16	28030.26
508.33	28692.63
508.50	28313.46
508.68	28449.21
508.85	28739.44
509.03	28643.48
509.20	28334.53
509.38	28907.96
509.55	29036.69
509.73	29303.51
509.90	28926.68
510.08	28872.85
510.25	29024.98
510.42	29312.87
510.60	29633.52
510.77	29628.84
510.95	29668.63
511.12	29558.63
511.30	29848.85
511.47	30230.36
511.64	29820.77
511.82	30309.94
511.99	30181.21
512.17	30082.91
512.34	29930.77
512.51	30366.11
512.69	30424.62
512.86	30260.79
513.04	30473.78
513.21	30836.56
513.38	30574.42
513.56	30597.82
513.73	30548.67
513.90	30962.95
514.08	30455.05
514.25	31019.12
514.43	30820.17
514.60	30881.03
514.77	30951.24
514.95	31197.00
515.12	31185.30
515.29	31267.22
515.47	31622.98
515.64	31646.38
515.81	31524.68
515.99	31962.36
516.16	32086.40
516.33	31328.07
516.51	31634.68
516.68	31543.40
516.85	31213.38
517.03	31857.03
517.20	31700.22
517.37	31969.38
517.54	32470.25
517.72	32336.84
517.89	32203.43
518.06	32032.57
518.24	32004.49
518.41	32245.56
518.58	32704.31
518.75	32404.72
518.93	32814.31
519.10	32327.48
519.27	32657.49
519.45	32893.89
519.62	33088.15
519.79	33223.90
519.96	33034.32
520.14	33612.43
520.31	32987.51
520.48	33347.95
520.65	33593.71
520.83	33612.43
521.00	33724.78
521.17	33731.80
521.34	33701.37
521.52	34017.35
521.69	33759.89
521.86	33996.28
522.03	33989.26
522.20	34270.12
522.38	34361.40
522.55	34209.27
522.72	34115.65
522.89	33979.90
523.07	34239.70
523.24	34251.40
523.41	34583.76
523.58	34569.71
523.75	34637.59
523.92	34822.49
524.10	35143.14
524.27	34829.51
524.44	35328.05
524.61	34925.47
524.78	35016.75
524.96	35274.21
525.13	35218.04
525.30	35342.09
525.47	35342.09
525.64	35222.72
525.81	35477.84
525.98	35225.06
526.16	35290.60
526.33	34873.98
526.50	35632.32
526.67	35306.98
526.84	35468.48
527.01	35538.69
527.18	35271.87
527.36	35821.90
527.53	35496.56
527.70	36137.87
527.87	36217.45
528.04	35971.69
528.21	36247.88
528.38	35992.76
528.55	36165.96
528.72	36311.07
528.89	36655.13
529.07	36730.03
529.24	36205.75
529.41	36744.07
529.58	36325.11
529.75	36514.70
529.92	37191.11
530.09	36893.86
530.26	36676.19
530.43	36739.39
530.60	36835.35
530.77	36250.22
530.94	37067.06
531.11	37024.93
531.28	37153.66
531.46	37067.06
531.63	37591.34
531.80	37127.92
531.97	37172.39
532.14	37163.03
532.31	36980.46
532.48	37120.90
532.65	37801.99
532.82	37354.95
532.99	37420.48
533.16	37488.36
533.33	37654.54
533.50	37991.58
533.67	37528.15
533.84	38017.32
534.01	37801.99
534.18	37869.87
534.35	38426.92
534.52	38068.81
534.69	38045.41
534.86	38363.72
535.03	37787.95
535.20	38314.57
535.37	38766.29
535.54	38698.42
535.71	38387.13
535.88	38277.12
536.05	38518.20
536.22	38707.78
536.38	38721.82
536.55	38127.33
536.72	38850.55
536.89	38569.69
537.06	38614.16
537.23	38880.98
537.40	38532.24
537.57	38869.28
537.74	38778.00
537.91	39157.16
538.08	38689.06
538.25	39026.09
538.42	39112.69
538.59	39051.84
538.75	38934.81
538.92	39115.03
539.09	39213.34
539.26	39257.81
539.43	39248.44
539.60	39203.97
539.77	39313.98
539.94	39344.41
540.11	39243.76
540.28	39468.45
540.44	39119.71
540.61	39150.14
540.78	39365.47
540.95	39269.51
541.12	39765.70
541.29	39587.82
541.46	39381.85
541.62	39653.36
541.79	39779.74
541.96	39608.89
542.13	39854.64
542.30	40416.37
542.47	40105.08
542.63	39583.14
542.80	40339.13
542.97	40533.40
543.14	40582.55
543.31	40524.04
543.48	40444.46
543.64	40982.78
543.81	40996.82
543.98	40388.28
544.15	40313.39
544.32	40713.62
544.48	40921.93
544.65	40825.96
544.82	40605.95
544.99	40144.87
545.16	41148.96
545.32	40697.24
545.49	40886.82
545.66	41038.95
545.83	41043.63
546.00	41139.60
546.16	41102.15
546.33	41034.27
546.50	40725.32
546.67	41226.20
546.83	40334.45
547.00	41263.64
547.17	41163.00
547.34	41148.96
547.50	40947.67
547.67	41361.95
547.84	41329.18
548.00	41469.61
548.17	41493.02
548.34	41752.82
548.51	41933.04
548.67	41986.87
548.84	41956.44
549.01	41563.23
549.18	41500.04
549.34	41460.25
549.51	41771.54
549.68	42249.01
549.84	41666.22
550.01	41930.70
550.18	41626.43
550.34	41968.15
550.51	41537.49
550.68	41783.24
550.84	41727.07
551.01	41846.44
551.18	42073.47
551.34	42052.41
551.51	42040.70
551.68	42047.72
551.84	42459.66
552.01	41902.61
552.18	42106.24
552.34	42492.43
552.51	42469.02
552.68	41872.18
552.84	42567.32
553.01	42836.48
553.18	42291.14
553.34	42621.16
553.51	42478.38
553.67	42288.80
553.84	42555.62
554.01	43079.90
554.17	42801.38
554.34	42682.01
554.51	42799.04
554.67	43152.46
554.84	42958.19
555.00	42628.18
555.17	42822.44
555.33	42895.00
555.50	42637.54
555.67	42948.83
555.83	43042.45
556.00	43182.88
556.16	43180.54
556.33	43040.11
556.50	43189.91
556.66	43374.81
556.83	42862.23
556.99	43496.52
557.16	43077.56
557.32	42979.26
557.49	43487.15
557.65	42817.76
557.82	42829.46
557.98	43267.14
558.15	43082.24
558.32	43360.76
558.48	43377.15
558.65	42981.60
558.81	43145.44
558.98	43391.19
559.14	43494.18
559.31	43529.28
559.47	43243.74
559.64	43866.32
559.80	43578.43
559.97	43573.75
560.13	43576.09
560.30	43084.58
560.46	43718.87
560.63	43899.09
560.79	44140.16
560.96	44013.77
561.12	43798.44
561.29	43786.74
561.45	43690.78
561.61	43847.60
561.78	43564.39
561.94	43716.53
562.11	43885.04
562.27	43859.30
562.44	43833.55
562.60	44023.14
562.77	43985.69
562.93	43683.76
563.10	44069.95
563.26	43533.96
563.42	43695.46
563.59	43955.26
563.75	43693.12
563.92	43807.81
564.08	43948.24
564.24	43938.88
564.41	44294.64
564.57	44046.54
564.74	43826.53
564.90	44044.20
565.07	43903.77
565.23	44364.85
565.39	43859.30
565.56	44093.35
565.72	43901.43
565.88	44226.76
566.05	44189.31
566.21	43669.72
566.38	43386.51
566.54	43629.93
566.70	44109.74
566.87	44404.64
567.03	44432.73
567.19	44374.22
567.36	44514.65
567.52	44144.84
567.68	44201.02
567.85	44306.34
568.01	44128.46
568.17	44009.09
568.34	44147.18
568.50	44189.31
568.66	44083.99
568.83	44135.48
568.99	44119.10
569.15	44198.68
569.32	43931.86
569.48	43842.92
569.64	44430.39
569.81	44238.47
569.97	44292.30
570.13	44577.84
570.30	44378.90
570.46	43871.00
570.62	43959.94
570.78	44439.75
570.95	44069.95
571.11	44549.76
571.27	44299.32
571.43	44158.89
571.60	44385.92
571.76	44170.59
571.92	44411.67
572.09	44304.00
572.25	43868.66
572.41	44526.35
572.57	44341.45
572.74	44856.37
572.90	44538.05
573.06	44680.83
573.22	44182.29
573.38	44179.95
573.55	44425.71
573.71	44753.38
573.87	44645.72
574.03	44453.79
574.20	44650.40
574.36	44378.90
574.52	44847.00
574.68	44975.73
574.84	44638.70
575.01	44107.40
575.17	44542.74
575.33	44179.95
575.49	44596.57
575.65	44968.71
575.82	44591.89
575.98	44329.75
576.14	44942.97
576.30	44360.17
576.46	44364.85
576.62	44163.57
576.79	44470.18
576.95	44165.91
577.11	44582.52
577.27	44776.79
577.43	44348.47
577.59	44547.42
577.75	44715.93
577.92	44304.00
578.08	44107.40
578.24	44299.32
578.40	44568.48
578.56	44697.21
578.72	44531.03
578.88	44676.15
579.04	44856.37
579.21	44395.28
579.37	44680.83
579.53	44610.61
579.69	44388.26
579.85	44271.23
580.01	44428.05
580.17	44687.85
580.33	44992.12
580.49	44727.64
580.65	44935.95
580.82	44821.26
580.98	44615.29
581.14	44430.39
581.30	44725.30
581.46	44245.49
581.62	44325.07
581.78	44823.60
581.94	44809.56
582.10	44425.71
582.26	44229.10
582.42	44519.33
582.58	44781.47
582.74	44905.52
582.90	45036.59
583.06	44605.93
583.22	45347.88
583.38	44655.08
583.54	44762.75
583.70	44748.70
583.86	44673.81
584.02	44346.13
584.18	44783.81
584.34	44996.80
584.50	44622.31
584.66	44669.12
584.82	44318.04
584.98	44559.12
585.14	45057.65
585.30	44662.10
585.46	44615.29
585.62	44477.20
585.78	44402.30
585.94	44046.54
586.10	44350.81
586.26	44872.75
586.42	44961.69
586.58	45008.50
586.74	44701.89
586.90	44737.00
587.06	44973.39
587.22	44889.13
587.38	44809.56
587.54	44680.83
587.70	45160.64
587.86	44851.69
588.02	44671.46
588.18	44495.92
588.34	44926.58
588.49	44465.50
588.65	44598.91
588.81	44505.29
588.97	44456.14
589.13	44739.34
589.29	44624.65
589.45	44994.46
589.61	45317.45
589.77	45223.83
589.93	45144.25
590.08	44926.58
590.24	45106.80
590.40	44940.63
590.56	45179.36
590.72	45146.59
590.88	44776.79
591.04	44659.76
591.20	45146.59
591.35	45521.08
591.51	45680.24
591.67	45170.00
591.83	45048.29
591.99	45226.17
592.15	44842.32
592.31	45275.32
592.46	45123.19
592.62	45144.25
592.78	45256.60
592.94	45282.34
593.10	44961.69
593.26	44875.09
593.41	45287.03
593.57	44776.79
593.73	44917.22
593.89	45343.20
594.05	45088.08
594.20	45076.38
594.36	45261.28
594.52	45193.40
594.68	45076.38
594.84	44917.22
594.99	45425.12
595.15	45392.35
595.31	45315.11
595.47	45202.77
595.62	45003.82
595.78	45125.53
595.94	45282.34
596.10	45329.16
596.25	45364.26
596.41	45434.48
596.57	45118.51
596.73	45380.65
596.88	44797.85
597.04	45497.67
597.20	45380.65
597.36	44926.58
597.51	45469.59
597.67	45167.66
597.83	45439.16
597.99	45272.98
598.14	45497.67
598.30	44748.70
598.46	45134.89
598.61	45020.20
598.77	44832.96
598.93	44907.86
599.09	45467.25
599.24	45738.75
599.40	45287.03
599.56	45275.32
599.71	45595.98
599.87	45631.08
600.03	44985.10
600.18	44879.77
600.34	45432.14
600.50	44973.39
600.65	45233.19
600.81	45411.07
600.97	45516.40
601.12	45296.39
601.28	45390.01
601.44	45160.64
601.59	45179.36
601.75	44898.50
601.91	44701.89
602.06	45092.76
602.22	45549.17
602.37	45034.25
602.53	44839.98
602.69	45397.03
602.84	45350.22
603.00	45343.20
603.16	44783.81
603.31	45244.90
603.47	44692.53
603.62	45038.93
603.78	45401.71
603.94	44947.65
604.09	45350.22
604.25	45329.16
604.40	45092.76
604.56	45478.95
604.71	45024.89
604.87	44931.26
605.03	45120.85
605.18	45081.06
605.34	45198.09
605.49	44933.60
605.65	44980.42
605.80	44893.82
605.96	45118.51
606.12	45055.31
606.27	44961.69
606.43	44528.69
606.58	45542.14
606.74	45151.27
606.89	45137.23
607.05	44854.03
607.20	45134.89
607.36	45120.85
607.51	45607.68
607.67	45186.38
607.82	44985.10
607.98	44741.68
608.13	44535.71
608.29	44971.05
608.44	44657.42
608.60	44404.64
608.75	44437.41
608.91	44734.66
609.06	44776.79
609.22	45127.87
609.37	44839.98
609.53	44882.11
609.68	45132.55
609.84	44732.32
609.99	44898.50
610.15	44650.40
610.30	44257.19
610.46	44467.84
610.61	44509.97
610.76	44739.34
610.92	44488.90
611.07	44343.79
611.23	44390.60
611.38	44306.34
611.54	44025.48
611.69	44554.44
611.84	44610.61
612.00	44624.65
612.15	44662.10
612.31	44692.53
612.46	44428.05
612.62	44385.92
612.77	44172.93
612.92	44877.43
613.08	44706.57
613.23	44493.58
613.39	43901.43
613.54	44034.84
613.69	44055.90
613.85	44285.28
614.00	44570.82
614.15	44219.74
614.31	44109.74
614.46	44746.36
614.62	44395.28
614.77	43920.15
614.92	43908.45
615.08	44186.97
615.23	44205.70
615.38	44402.30
615.54	43950.58
615.69	43728.23
615.84	43992.71
616.00	43920.15
616.15	43845.26
616.30	44203.36
616.46	43672.06
616.61	44088.67
616.76	43885.04
616.92	43789.08
617.07	43917.81
617.22	43585.46
617.37	43728.23
617.53	43709.50
617.68	43866.32
617.83	43913.13
617.99	44086.33
618.14	43737.59
618.29	43540.99
618.45	43419.28
618.60	43873.34
618.75	43903.77
618.90	43548.01
619.06	43737.59
619.21	43522.26
619.36	43643.97
619.51	43772.70
619.67	43508.22
619.82	43793.76
619.97	43899.09
620.12	43407.58
620.28	43166.50
620.43	43557.37
620.58	43515.24
620.73	42981.60
620.89	43292.89
621.04	43262.46
621.19	43260.12
621.34	43545.67
621.49	43199.27
621.65	43262.46
621.80	43241.40
621.95	43313.95
622.10	43159.48
622.25	42880.95
622.41	42974.58
622.56	42630.52
622.71	43531.62
622.86	43014.37
623.01	43065.86
623.16	42859.89
623.32	43255.44
623.47	43351.40
623.62	42827.12
623.77	42803.72
623.92	43185.22
624.07	42497.11
624.23	42775.63
624.38	42822.44
624.53	42824.78
624.68	43292.89
624.83	42848.19
624.98	42689.03
625.13	42539.24
625.29	42855.21
625.44	42993.30
625.59	42593.07
625.74	42326.25
625.89	41841.76
626.04	41954.10
626.19	42197.52
626.34	42412.85
626.49	42471.36
626.65	42665.63
626.80	42873.93
626.95	42333.27
627.10	42143.69
627.25	42122.62
627.40	41680.26
627.55	41876.86
627.70	41579.62
627.85	42267.73
628.00	41495.36
628.15	42349.65
628.30	41979.85
628.45	42096.88
628.60	42288.80
628.76	42171.77
628.91	42244.33
629.06	42209.22
629.21	41881.55
629.36	41820.69
629.51	41387.69
629.66	41979.85
629.81	41675.58
629.96	41462.59
630.11	41675.58
630.26	41738.77
630.41	41607.70
630.56	41673.24
630.71	41544.51
630.86	41476.63
631.01	41242.58
631.16	41785.58
631.31	41621.75
631.46	41146.62
631.61	41261.30
631.76	41677.92
631.91	41614.72
632.06	41261.30
632.21	41132.57
632.36	41785.58
632.51	41415.78
632.66	41134.92
632.81	40919.59
632.96	41507.06
633.10	40804.90
633.25	40952.35
633.40	41038.95
633.55	41296.41
633.70	41113.85
633.85	40900.86
634.00	40959.38
634.15	40835.33
634.30	40720.64
634.45	40900.86
634.60	40795.54
634.75	40760.43
634.90	41401.74
635.05	41265.99
635.19	41076.40
635.34	41310.46
635.49	40865.75
635.64	40755.75
635.79	40404.67
635.94	40858.73
636.09	40240.83
636.24	40280.62
636.39	40130.83
636.53	40261.90
636.68	40662.13
636.83	40634.04
636.98	40800.22
637.13	40584.89
637.28	40556.80
637.43	40945.33
637.57	40519.35
637.72	40460.84
637.87	40528.72
638.02	40264.24
638.17	40163.59
638.32	40194.02
638.46	40133.17
638.61	40278.28
638.76	39861.66
638.91	39793.79
639.06	40282.96
639.20	39901.45
639.35	40187.00
639.50	40144.87
639.65	40727.66
639.80	40259.55
639.94	39962.31
640.09	39782.09
640.24	40252.53
640.39	39482.50
640.54	39807.83
640.68	39842.94
640.83	40060.61
640.98	40006.78
641.13	39709.53
641.27	39950.60
641.42	39496.54
641.57	39889.75
641.72	39899.11
641.86	39330.36
642.01	39370.15
642.16	39295.25
642.31	39533.99
642.45	39739.96
642.60	38925.45
642.75	39077.58
642.90	39587.82
643.04	39206.31
643.19	39297.59
643.34	39475.48
643.48	39292.91
643.63	39407.60
643.78	38962.90
643.93	39358.45
644.07	38923.11
644.22	39037.80
644.37	39299.94
644.51	39533.99
644.66	39225.04
644.81	39154.82
644.95	39196.95
645.10	39164.18
645.25	39292.91
645.39	38902.04
645.54	38939.49
645.69	38785.02
645.83	38785.02
645.98	39215.68
646.13	39250.78
646.27	39159.50
646.42	39072.90
646.57	39409.94
646.71	38604.80
646.86	38967.58
647.00	39239.08
647.15	38955.88
647.30	39201.63
647.44	39112.69
647.59	38677.35
647.74	38712.46
647.88	38735.87
648.03	38937.15
648.17	38803.74
648.32	38417.55
648.47	38433.94
648.61	38572.03
648.76	39058.86
648.90	38445.64
649.05	38513.52
649.20	38593.09
649.34	38366.06
649.49	38185.84
649.63	38586.07
649.78	38469.04
649.92	38340.32
650.07	38635.22
650.21	38040.73
650.36	38150.73
650.51	38230.31
650.65	38841.19
650.80	38934.81
650.94	38436.28
651.09	38487.77
651.23	38106.26
651.38	38529.90
651.52	37923.70
651.67	38225.63
651.81	38000.94
651.96	38106.26
652.10	37975.19
652.25	37841.78
652.39	37500.06
652.54	37771.57
652.68	37823.06
652.83	38073.49
652.97	38160.09
653.12	38040.73
653.26	37771.57
653.41	37586.66
653.55	37546.87
653.70	37930.72
653.84	37476.66
653.99	37834.76
654.13	37567.94
654.27	37867.53
654.42	37670.92
654.56	37392.40
654.71	37794.97
654.85	37617.09
655.00	37376.01
655.14	36905.57
655.29	36854.08
655.43	37383.04
655.57	37153.66
655.72	36961.74
655.86	37069.40
656.01	37083.45
656.15	36875.14
656.30	37029.62
656.44	36975.78
656.58	37251.97
656.73	37111.53
656.87	36734.71
657.01	36620.02
657.16	36748.75
657.30	36879.82
657.45	36751.09
657.59	36720.66
657.73	36870.46
657.88	36727.69
658.02	37041.32
658.16	37102.17
658.31	36732.37
658.45	37266.01
658.60	37064.72
658.74	37319.84
658.88	37038.98
659.03	36739.39
659.17	36341.50
659.31	36641.09
659.46	36381.29
659.60	36055.95
659.74	36086.38
659.89	36039.57
660.03	36294.69
660.17	36311.07
660.32	36343.84
660.46	36521.72
660.60	36463.21
660.74	36699.60
660.89	36608.32
661.03	35962.33
661.17	35978.72
661.32	35384.22
661.46	35618.27
661.60	35700.19
661.74	35889.77
661.89	35791.47
662.03	35522.31
662.17	35475.50
662.31	35622.95
662.46	35730.62
662.60	35772.75
662.74	35592.53
662.88	35803.17
663.03	35526.99
663.17	35040.16
663.31	35613.59
663.45	35299.96
663.60	35281.24
663.74	34974.63
663.88	35138.46
664.02	34841.21
664.17	35463.80
664.31	34686.74
664.45	35026.12
664.59	34911.43
664.73	34827.17
664.88	34785.04
665.02	34497.16
665.16	34705.46
665.30	34799.08
665.44	34771.00
665.59	33998.62
665.73	34270.12
665.87	34089.90
666.01	34422.26
666.15	34401.19
666.29	34380.13
666.44	34780.36
666.58	34150.76
666.72	34181.18
666.86	34284.17
667.00	34206.93
667.14	34068.84
667.28	33638.18
667.43	33823.08
667.57	33830.10
667.71	33600.73
667.85	33415.83
667.99	33670.95
668.13	33333.91
668.27	33504.77
668.41	33411.15
668.56	33020.28
668.70	33507.11
668.84	33516.47
668.98	33427.53
669.12	33008.58
669.26	33406.47
669.40	33071.77
669.54	32952.40
669.68	32982.83
669.82	32905.59
669.96	33053.05
670.10	32720.69
670.25	32992.19
670.39	33024.96
670.53	32734.73
670.67	32615.37
670.81	32868.14
670.95	32706.65
671.09	32779.20
671.23	32549.83
671.37	32601.32
671.51	32505.36
671.65	31988.10
671.79	32013.85
671.93	32051.30
672.07	32343.86
672.21	32034.91
672.35	31810.22
672.49	32184.71
672.63	32353.23
672.77	31866.39
672.91	31962.36
673.05	31681.49
673.19	31512.97
673.33	31440.42
673.47	31770.43
673.61	31314.03
673.75	31218.07
673.89	31101.04
674.03	31047.21
674.17	30892.73
674.31	30984.01
674.45	30892.73
674.59	31089.34
674.73	30857.62
674.87	30789.75
675.01	31115.08
675.15	31197.00
675.29	30866.98
675.43	30558.03
675.56	30527.61
675.70	30195.25
675.84	30455.05
675.98	29347.98
676.12	29972.90
676.26	30122.69
676.40	29785.66
676.54	29965.88
676.68	30026.73
676.82	29483.73
676.96	29411.17
677.10	29336.27
677.23	29415.85
677.37	29715.44
677.51	29387.77
677.65	29092.86
677.79	28842.42
677.93	28858.81
678.07	28650.50
678.21	28779.23
678.34	28765.18
678.48	28840.08
678.62	28882.21
678.76	28453.89
678.90	28584.96
679.04	28599.01
679.18	28692.63
679.31	28006.85
679.45	27990.47
679.59	28182.39
679.73	27623.00
679.87	27899.19
680.00	27779.82
680.14	27456.82
680.28	27410.01
680.42	27775.14
680.56	27714.28
680.70	27690.88
680.83	27419.38
680.97	27257.88
681.11	26829.56
681.25	27014.46
681.39	26757.00
681.52	26611.89
681.66	27129.15
681.80	26672.74
681.94	26803.82
682.07	26417.63
682.21	26473.80
682.35	26309.96
682.49	26469.12
682.62	26551.04
682.76	25930.80
682.90	26153.15
683.04	25809.09
683.17	26204.64
683.31	26101.65
683.45	25898.03
683.59	25446.30
683.72	25474.39
683.86	25268.42
684.00	25193.53
684.13	25301.19
684.27	25125.65
684.41	24751.17
684.55	24994.58
684.68	25102.25
684.82	24786.27
684.96	24966.49
685.09	24779.25
685.23	24833.08
685.37	24645.84
685.50	24601.37
685.64	24577.97
685.78	24477.32
685.91	24517.11
686.05	24025.60
686.19	23559.83
686.32	24149.65
686.46	23761.12
686.60	23410.04
686.73	23826.65
686.87	23321.10
687.01	23449.83
687.14	23208.75
687.28	23073.00
687.42	23096.41
687.55	23124.49
687.69	23154.92
687.82	22764.05
687.96	22698.52
688.10	22609.58
688.23	22698.52
688.37	22384.88
688.50	22401.27
688.64	22384.88
688.78	22375.52
688.91	22050.19
689.05	22293.60
689.18	22080.61
689.32	21722.51
689.46	21893.37
689.59	22211.68
689.73	22017.42
689.86	21617.19
690.00	21406.54
690.13	22026.78
690.27	21488.46
690.41	21542.29
690.54	20975.88
690.68	21446.33
690.81	21160.78
690.95	20922.05
691.08	20982.90
691.22	20908.01
691.35	20830.77
691.49	21076.52
691.62	20732.47
691.76	20638.84
691.89	20940.77
692.03	20568.63
692.16	20512.46
692.30	20505.43
692.43	20226.91
692.57	20376.70
692.70	20037.33
692.84	20013.92
692.97	20042.01
693.11	19548.15
693.24	19625.39
693.38	19761.14
693.51	19616.03
693.65	19639.44
693.78	19449.85
693.92	19473.26
694.05	19012.17
694.19	19435.81
694.32	19360.91
694.45	19384.32
694.59	18836.63
694.72	19063.66
694.86	18740.67
694.99	18843.65
695.13	18448.10
695.26	18408.31
695.39	18345.12
695.53	18190.64
695.66	18422.36
695.80	18321.71
695.93	18420.02
696.07	18141.49
696.20	17958.93
696.33	18164.90
696.47	18005.74
696.60	18097.02
696.73	18057.23
696.87	18150.85
697.00	17774.03
697.14	17731.90
697.27	17729.56
697.40	17380.82
697.54	17355.07
697.67	17408.90
697.80	17619.55
697.94	17137.40
698.07	16999.31
698.21	16987.61
698.34	17008.67
698.47	16723.13
698.61	16931.44
698.74	16596.74
698.87	16343.96
699.01	16240.98
699.14	16451.63
699.27	16470.35
699.40	16442.26
699.54	16283.11
699.67	16194.17
699.80	16020.97
699.94	16187.14
700.07	16187.14
700.20	16065.44
700.34	15908.62
700.47	15630.10
700.60	15653.50
700.73	15831.38
700.87	15604.35
701.00	15372.64
701.13	15459.24
701.26	15480.30
701.40	15609.03
701.53	15475.62
701.66	15126.88
701.79	15178.37
701.93	15068.37
702.06	14874.10
702.19	14836.66
702.32	15229.87
702.46	14876.44
702.59	14860.06
702.72	14611.96
702.85	14867.08
702.99	14768.78
703.12	14857.72
703.25	14616.65
703.38	14291.31
703.51	14516.00
703.65	14661.12
703.78	14136.84
703.91	14305.35
704.04	13898.10
704.17	14132.15
704.31	13841.93
704.44	13488.51
704.57	13682.77
704.70	13364.46
704.83	13870.01
704.96	13685.11
705.10	13701.50
705.23	13568.09
>>>>>End Processed Spectral Data<<<<<
