SpectraSuite Data File
++++++++++++++++++++++++++++++++++++
Date: Fri Oct 25 10:48:31 EDT 2013
User: price-jones
Dark Spectrum Present: No
Reference Spectrum Present: No
Number of Sampled Component Spectra: 1
Spectrometers: USB2+H05261
Integration Time (usec): 100000 (USB2+H05261)
Spectra Averaged: 1 (USB2+H05261)
Boxcar Smoothing: 0 (USB2+H05261)
Correct for Electrical Dark: No (USB2+H05261)
Strobe/Lamp Enabled: No (USB2+H05261)
Correct for Detector Non-linearity: No (USB2+H05261)
Correct for Stray Light: No (USB2+H05261)
Number of Pixels in Processed Spectrum: 2048
>>>>>Begin Processed Spectral Data<<<<<
365.73	156.82
365.92	156.82
366.12	156.82
366.32	95.96
366.52	58.51
366.72	81.92
366.91	0.00
367.11	77.24
367.31	65.54
367.51	46.81
367.70	63.19
367.90	37.45
368.10	2.34
368.30	30.43
368.49	0.00
368.69	84.26
368.89	60.85
369.09	70.22
369.28	93.62
369.48	105.32
369.68	74.90
369.87	81.92
370.07	138.09
370.27	173.20
370.47	205.97
370.66	395.55
370.86	472.79
371.06	491.51
371.25	472.79
371.45	440.02
371.65	507.90
371.84	468.11
372.04	496.19
372.24	521.94
372.44	503.22
372.63	517.26
372.83	601.52
373.03	610.88
373.22	580.45
373.42	531.30
373.62	631.94
373.81	596.84
374.01	566.41
374.21	507.90
374.40	578.11
374.60	676.41
374.79	559.39
374.99	610.88
375.19	547.69
375.38	622.58
375.58	634.29
375.78	638.97
375.97	599.18
376.17	638.97
376.37	657.69
376.56	655.35
376.76	599.18
376.95	603.86
377.15	751.31
377.35	678.76
377.54	727.91
377.74	681.10
377.93	692.80
378.13	685.78
378.33	648.33
378.52	699.82
378.72	727.91
378.91	631.94
379.11	685.78
379.31	643.65
379.50	608.54
379.70	720.88
379.89	702.16
380.09	704.50
380.28	741.95
380.48	720.88
380.68	723.23
380.87	697.48
381.07	791.10
381.26	793.44
381.46	662.37
381.65	678.76
381.85	760.67
382.04	704.50
382.24	718.54
382.43	725.57
382.63	737.27
382.83	725.57
383.02	704.50
383.22	688.12
383.41	685.78
383.61	823.87
383.80	858.98
384.00	770.04
384.19	767.70
384.39	844.93
384.58	837.91
384.78	800.46
384.97	812.17
385.17	840.25
385.36	891.74
385.56	898.77
385.75	891.74
385.95	884.72
386.14	835.57
386.34	837.91
386.53	947.92
386.72	870.68
386.92	922.17
387.11	898.77
387.31	919.83
387.50	945.58
387.70	908.13
387.89	882.38
388.09	821.53
388.28	929.19
388.48	1053.24
388.67	1018.13
388.86	924.51
389.06	901.11
389.25	1048.56
389.45	1107.07
389.64	1039.20
389.84	1074.31
390.03	997.07
390.22	1062.60
390.42	1064.94
390.61	1090.69
390.81	1036.86
391.00	1020.47
391.19	1118.78
391.39	1046.22
391.58	1041.54
391.78	1083.67
391.97	1118.78
392.16	1139.84
392.36	1088.35
392.55	1090.69
392.75	1067.28
392.94	954.94
393.13	1048.56
393.33	1027.50
393.52	1057.92
393.71	1076.65
393.91	1186.65
394.10	1226.44
394.29	1142.18
394.49	1256.87
394.68	1217.08
394.88	1252.19
395.07	1289.64
395.26	1233.46
395.46	1242.82
395.65	1259.21
395.84	1317.72
396.04	1310.70
396.23	1252.19
396.42	1310.70
396.62	1174.95
396.81	1191.33
397.00	1315.38
397.19	1259.21
397.39	1366.87
397.58	1479.22
397.77	1448.79
397.97	1526.03
398.16	1418.36
398.35	1497.94
398.55	1455.81
398.74	1476.88
398.93	1626.67
399.12	1511.99
399.32	1556.46
399.51	1558.80
399.70	1652.42
399.90	1654.76
400.09	1680.50
400.28	1650.08
400.47	1561.14
400.67	1671.14
400.86	1610.29
401.05	1652.42
401.24	1750.72
401.44	1689.87
401.63	1734.34
401.82	1771.79
402.01	1715.61
402.21	1792.85
402.40	1778.81
402.59	1790.51
402.78	1727.32
402.97	1736.68
403.17	1881.79
403.36	1982.43
403.55	1902.86
403.74	1881.79
403.93	1832.64
404.13	1912.22
404.32	1907.54
404.51	1933.28
404.70	2005.84
404.89	1987.11
405.09	2019.88
405.28	2001.16
405.47	1893.49
405.66	2029.24
405.85	1956.69
406.05	2024.56
406.24	2019.88
406.43	2094.78
406.62	2064.35
406.81	2113.50
407.00	2115.84
407.20	2062.01
407.39	2153.29
407.58	2242.23
407.77	2197.76
407.96	2333.51
408.15	2263.30
408.34	2326.49
408.54	2380.32
408.73	2296.07
408.92	2352.24
409.11	2305.43
409.30	2373.30
409.49	2286.70
409.68	2324.15
409.87	2324.15
410.07	2284.36
410.26	2394.37
410.45	2511.39
410.64	2389.69
410.83	2525.44
411.02	2576.93
411.21	2565.23
411.40	2455.22
411.59	2803.96
411.78	2679.91
411.98	2640.12
412.17	2689.28
412.36	2750.13
412.55	2747.79
412.74	2675.23
412.93	2778.22
413.12	2686.94
413.31	2930.35
413.50	2754.81
413.69	2956.10
413.88	2958.44
414.07	2883.54
414.26	2923.33
414.45	3021.63
414.64	3070.78
414.83	3213.56
415.02	3133.98
415.22	3150.36
415.41	3150.36
415.60	3124.62
415.79	3215.90
415.98	3358.67
416.17	3342.28
416.36	3286.11
416.55	3274.41
416.74	3370.37
416.93	3358.67
417.12	3375.05
417.31	3368.03
417.50	3431.23
417.69	3494.42
417.88	3517.83
418.07	3524.85
418.26	3421.86
418.45	3536.55
418.64	3672.30
418.83	3669.96
419.02	3531.87
419.21	3581.02
419.39	3658.26
419.58	3735.50
419.77	3611.45
419.96	3637.19
420.15	3777.62
420.34	3838.48
420.53	3829.12
420.72	3801.03
420.91	3831.46
421.10	3845.50
421.29	3826.78
421.48	3831.46
421.67	3992.95
421.86	3779.97
422.05	3880.61
422.24	3779.97
422.43	3948.48
422.61	3936.78
422.80	3875.93
422.99	4025.72
423.18	3990.61
423.37	4035.08
423.56	4058.49
423.75	4018.70
423.94	3962.53
424.13	3728.47
424.32	3751.88
424.50	4126.36
424.69	4100.62
424.88	4023.38
425.07	3847.84
425.26	3960.19
425.45	4035.08
425.64	3967.21
425.83	3934.44
426.01	4098.28
426.20	4037.42
426.39	4135.73
426.58	3892.31
426.77	3896.99
426.96	3939.12
427.15	4056.15
427.33	4208.28
427.52	4028.06
427.71	4093.60
427.90	4191.90
428.09	4252.75
428.28	4205.94
428.46	4100.62
428.65	4236.37
428.84	4264.46
429.03	4236.37
429.22	4217.65
429.40	4142.75
429.59	4177.86
429.78	4124.02
429.97	3925.08
430.16	4227.01
430.34	4212.96
430.53	4252.75
430.72	4294.88
430.91	4306.59
431.10	4423.61
431.28	4440.00
431.47	4734.90
431.66	4519.57
431.85	4528.94
432.03	4631.92
432.22	4751.29
432.41	4631.92
432.60	4894.06
432.79	4528.94
432.97	4828.53
433.16	4973.64
433.35	4739.58
433.54	4833.21
433.72	4741.93
433.91	4788.74
434.10	4802.78
434.28	4915.12
434.47	4997.04
434.66	4924.49
434.85	4954.91
435.03	5039.17
435.22	4964.28
435.41	5284.93
435.59	5221.74
435.78	5144.50
435.97	5266.21
436.16	5177.26
436.34	5385.57
436.53	5135.14
436.72	5228.76
436.90	5114.07
437.09	5305.99
437.28	5313.02
437.46	5205.35
437.65	5401.96
437.84	5259.18
438.02	5137.48
438.21	5320.04
438.40	5195.99
438.58	5432.38
438.77	5465.15
438.96	5423.02
439.14	5497.92
439.33	5511.96
439.52	5645.37
439.70	5631.33
439.89	5783.46
440.08	5888.79
440.26	5877.09
440.45	5776.44
440.63	5937.94
440.82	6050.28
441.01	6073.69
441.19	6017.52
441.38	6054.97
441.57	6150.93
441.75	6270.30
441.94	6286.68
442.12	6441.15
442.31	6415.41
442.50	6284.34
442.68	6396.68
442.87	6394.34
443.05	6368.60
443.24	6597.97
443.43	6588.61
443.61	6459.88
443.80	6661.16
443.98	6473.92
444.17	6347.53
444.35	6476.26
444.54	6597.97
444.73	6502.01
444.91	6574.56
445.10	6441.15
445.28	6731.38
445.47	6612.01
445.65	6434.13
445.84	6560.52
446.02	6731.38
446.21	6647.12
446.39	6707.98
446.58	6902.24
446.77	6722.02
446.95	6661.16
447.14	6740.74
447.32	6862.45
447.51	6813.30
447.69	6689.25
447.88	6876.49
448.06	6808.62
448.25	6801.60
448.43	6820.32
448.62	6897.56
448.80	6740.74
448.99	6876.49
449.17	6913.94
449.36	6956.07
449.54	7124.59
449.73	6953.73
449.91	7199.49
450.10	7258.00
450.28	7346.94
450.46	7194.81
450.65	7208.85
450.83	7178.42
451.02	7342.26
451.20	7433.54
451.39	7426.52
451.57	7110.55
451.76	7227.57
451.94	7283.75
452.13	7405.46
452.31	7241.62
452.49	7131.61
452.68	7283.75
452.86	7307.15
453.05	7269.70
453.23	7255.66
453.42	7473.33
453.60	7435.88
453.78	7480.35
453.97	7496.74
454.15	7531.84
454.34	7445.24
454.52	7623.12
454.70	7702.70
454.89	7522.48
455.07	7730.79
455.26	7896.97
455.44	7693.34
455.62	7845.48
455.81	7922.71
455.99	7646.53
456.17	7770.58
456.36	8098.25
456.54	8177.83
456.73	8016.33
456.91	8226.98
457.09	8301.88
457.28	8217.62
457.46	8028.04
457.64	8294.86
457.83	8250.39
458.01	8067.83
458.19	8273.79
458.38	8402.52
458.56	8255.07
458.74	8252.73
458.93	8292.52
459.11	8278.47
459.29	8482.10
459.48	8313.58
459.66	8454.02
459.84	8505.51
460.03	8688.07
460.21	8641.26
460.39	8638.92
460.57	8540.61
460.76	8936.17
460.94	8938.51
461.12	8667.00
461.31	8751.26
461.49	8737.22
461.67	8596.79
461.85	8917.44
462.04	8746.58
462.22	9324.69
462.40	9121.07
462.59	9130.43
462.77	8980.64
462.95	9064.89
463.13	8982.98
463.32	8903.40
463.50	9064.89
463.68	9095.32
463.86	9212.35
464.05	9064.89
464.23	9008.72
464.41	9179.58
464.59	8870.63
464.78	9310.65
464.96	9186.60
465.14	8961.91
465.32	9235.75
465.50	9420.66
465.69	9296.61
465.87	9437.04
466.05	9142.13
466.23	9287.25
466.41	9153.84
466.60	9598.54
466.78	9153.84
466.96	9453.42
467.14	9305.97
467.32	9547.05
467.51	9561.09
467.69	9373.85
467.87	9502.58
468.05	9390.23
468.23	9301.29
468.41	9575.13
468.60	9680.46
468.78	9673.43
468.96	9738.97
469.14	9956.64
469.32	9886.42
469.50	9696.84
469.69	9909.83
469.87	9870.04
470.05	9795.14
470.23	9874.72
470.41	9813.87
470.59	10015.15
470.77	9956.64
470.95	10204.74
471.14	10401.34
471.32	10010.47
471.50	10434.11
471.68	10331.12
471.86	10328.78
472.04	10649.44
472.22	10808.59
472.40	10504.32
472.58	10345.17
472.77	10586.24
472.95	10834.34
473.13	10963.07
473.31	10796.89
473.49	10677.52
473.67	10761.78
473.85	10850.72
474.03	11077.76
474.21	11171.38
474.39	11084.78
474.57	11360.96
474.75	11274.36
474.93	11169.04
475.12	11190.10
475.30	11344.58
475.48	11309.47
475.66	11669.91
475.84	11351.60
476.02	11480.33
476.20	11604.38
476.38	11936.73
476.56	12070.14
476.74	12074.82
476.92	12056.10
477.10	11941.41
477.28	12180.15
477.46	12262.07
477.64	12444.63
477.82	12573.36
478.00	12678.68
478.18	12624.85
478.36	12549.95
478.54	12896.35
478.72	13046.15
478.90	13205.30
479.08	13163.17
479.26	13408.93
479.44	13334.03
479.62	13453.40
479.80	13254.45
479.98	13664.05
480.16	13998.74
480.34	13858.31
480.52	13895.76
480.70	13881.72
480.88	13752.99
481.06	14225.78
481.24	14204.71
481.41	14225.78
481.59	14539.41
481.77	14574.52
481.95	14534.73
482.13	14553.45
482.31	14937.30
482.49	15180.71
482.67	15201.78
482.85	15438.17
483.03	15318.81
483.21	15648.82
483.39	15566.90
483.57	15522.43
483.74	15667.55
483.92	15768.19
484.10	15676.91
484.28	15658.18
484.46	16285.45
484.64	16711.42
484.82	16208.21
485.00	16271.40
485.18	16617.80
485.35	16723.13
485.53	16402.47
485.71	16379.07
485.89	16865.90
486.07	16732.49
486.25	16929.09
486.43	17263.79
486.61	17289.54
486.78	17673.39
486.96	17855.95
487.14	18017.44
487.32	18052.55
487.50	18136.81
487.68	18331.08
487.85	18738.33
488.03	18883.44
488.21	18480.87
488.39	19082.39
488.57	18834.29
488.75	19178.35
488.92	19524.75
489.10	19716.67
489.28	19506.02
489.46	19873.49
489.64	19988.18
489.81	20348.62
489.99	20463.30
490.17	20699.70
490.35	20552.24
490.53	20805.02
490.70	20898.64
490.88	20603.74
491.06	21102.27
491.24	21090.57
491.41	20915.03
491.59	21001.63
491.77	21240.36
491.95	21451.01
492.13	21542.29
492.30	21905.07
492.48	21752.94
492.66	22029.12
492.84	22075.93
493.01	22225.73
493.19	22459.78
493.37	22513.61
493.54	22682.13
493.72	23096.41
493.90	22916.19
494.08	23180.67
494.25	23449.83
494.43	23506.00
494.61	23828.99
494.79	23569.19
494.96	23601.96
495.14	23913.25
495.32	24130.92
495.49	24013.90
495.67	24072.41
495.85	24547.54
496.02	24577.97
496.20	24833.08
496.38	24779.25
496.55	24744.14
496.73	25446.30
496.91	25165.44
497.09	25064.80
497.26	25184.16
497.44	25696.74
497.62	25282.47
497.79	25750.57
497.97	25486.09
498.14	25682.70
498.32	26171.87
498.50	25818.45
498.67	26616.57
498.85	26052.50
499.03	26658.70
499.20	26288.90
499.38	26686.79
499.56	26789.77
499.73	26586.15
499.91	27108.08
500.08	27131.49
500.26	26724.24
500.44	26616.57
500.61	26857.65
500.79	27117.45
500.97	27271.92
501.14	27505.98
501.32	27564.49
501.49	27608.96
501.67	27522.36
501.84	27601.94
502.02	28006.85
502.20	27791.52
502.37	28030.26
502.55	27992.81
502.72	28460.91
502.90	28442.19
503.07	28554.54
503.25	28404.74
503.43	28369.63
503.60	28535.81
503.78	28924.34
503.95	28760.50
504.13	28580.28
504.30	29352.66
504.48	29109.24
504.65	29511.81
504.83	29329.25
505.01	29806.72
505.18	29397.13
505.36	30073.54
505.53	29385.43
505.71	29755.23
505.88	30190.57
506.06	29764.59
506.23	30113.33
506.41	30139.08
506.58	30012.69
506.76	30164.82
506.93	30331.00
507.11	30588.46
507.28	30586.12
507.46	30316.96
507.63	30548.67
507.81	30597.82
507.98	30469.09
508.16	31218.07
508.33	30735.92
508.50	31112.74
508.68	31108.06
508.85	31482.55
509.03	31271.90
509.20	31641.70
509.38	31622.98
509.55	32086.40
509.73	31974.06
509.90	32257.26
510.08	31770.43
510.25	31831.29
510.42	32201.09
510.60	32488.98
510.77	32182.37
510.95	32587.28
511.12	32161.30
511.30	32306.41
511.47	33013.26
511.64	33097.52
511.82	32734.73
511.99	32687.92
512.17	32893.89
512.34	32966.45
512.51	33064.75
512.69	33310.50
512.86	33502.43
513.04	33043.68
513.21	33319.87
513.38	32985.17
513.56	33235.61
513.73	32971.13
513.90	33277.74
514.08	33259.01
514.25	33888.62
514.43	33720.10
514.60	33598.39
514.77	33500.09
514.95	33879.25
515.12	33841.81
515.29	34267.78
515.47	34314.59
515.64	34279.49
515.81	34363.75
515.99	33975.22
516.16	33916.70
516.33	34094.58
516.51	33752.87
516.68	33436.89
516.85	34307.57
517.03	34000.96
517.20	34387.15
517.37	34948.88
517.54	35012.07
517.72	34885.68
517.89	34663.33
518.06	34611.84
518.24	34675.04
518.41	34873.98
518.58	34789.72
518.75	34824.83
518.93	35288.26
519.10	35428.69
519.27	35653.38
519.45	35445.07
519.62	35971.69
519.79	35590.19
519.96	35789.13
520.14	36687.90
520.31	35908.50
520.48	36236.17
520.65	36156.60
520.83	36247.88
521.00	36278.30
521.17	36458.52
521.34	36767.48
521.52	36591.94
521.69	36833.01
521.86	36945.36
522.03	36615.34
522.20	36779.18
522.38	36800.24
522.55	36790.88
522.72	36816.63
522.89	36910.25
523.07	37354.95
523.24	36701.94
523.41	37041.32
523.58	37223.88
523.75	38036.05
523.92	38188.18
524.10	37923.70
524.27	37776.25
524.44	37851.14
524.61	37970.51
524.78	37844.12
524.96	37923.70
525.13	38246.69
525.30	38642.24
525.47	38541.60
525.64	38108.60
525.81	38124.99
525.98	38202.22
526.16	37790.29
526.33	37736.46
526.50	38148.39
526.67	37834.76
526.84	38040.73
527.01	37940.08
527.18	38447.98
527.36	38731.18
527.53	38728.84
527.70	39007.37
527.87	39229.72
528.04	38607.14
528.21	39070.56
528.38	39482.50
528.55	39325.68
528.72	39072.90
528.89	39498.88
529.07	39526.97
529.24	39248.44
529.41	39271.85
529.58	39426.32
529.75	39222.70
529.92	39487.18
530.09	39976.35
530.26	39552.71
530.43	39810.17
530.60	39533.99
530.77	39887.41
530.94	40025.50
531.11	39784.43
531.28	40182.32
531.46	40252.53
531.63	39772.72
531.80	39835.92
531.97	39789.11
532.14	40411.69
532.31	39950.60
532.48	40477.22
532.65	40282.96
532.82	40486.59
532.99	40765.11
533.16	39796.13
533.33	40870.43
533.50	40421.05
533.67	40648.08
533.84	40545.10
534.01	40535.74
534.18	40390.62
534.35	40971.08
534.52	40737.02
534.69	41022.57
534.86	41249.60
535.03	41130.23
535.20	41329.18
535.37	41364.29
535.54	41443.87
535.71	41439.18
535.88	41448.55
536.05	41280.03
536.22	41600.68
536.38	41392.37
536.55	41380.67
536.72	41766.86
536.89	41497.70
537.06	41263.64
537.23	41464.93
537.40	41851.12
537.57	41755.16
537.74	41771.54
537.91	41928.36
538.08	41764.52
538.25	41729.41
538.42	41858.14
538.59	41808.99
538.75	41846.44
538.92	41799.63
539.09	42131.98
539.26	41797.29
539.43	42146.03
539.60	42377.74
539.77	41928.36
539.94	42234.97
540.11	41900.27
540.28	42199.86
540.44	42033.68
540.61	42010.28
540.78	41937.72
540.95	42330.93
541.12	41904.95
541.29	42384.76
541.46	42181.13
541.62	42492.43
541.79	42733.50
541.96	42120.28
542.13	42513.49
542.30	42579.03
542.47	42892.66
542.63	42775.63
542.80	42658.60
542.97	43328.00
543.14	43332.68
543.31	43332.68
543.48	43370.13
543.64	43971.64
543.81	43477.79
543.98	43065.86
544.15	43592.48
544.32	43351.40
544.48	43761.00
544.65	44163.57
544.82	43969.30
544.99	43115.01
545.16	43365.45
545.32	43328.00
545.49	43840.57
545.66	44023.14
545.83	44175.27
546.00	43650.99
546.16	43650.99
546.33	43461.41
546.50	43611.20
546.67	43983.35
546.83	43131.39
547.00	43910.79
547.17	43859.30
547.34	43889.73
547.50	43646.31
547.67	44311.02
547.84	43929.51
548.00	44505.29
548.17	44488.90
548.34	44339.11
548.51	44491.24
548.67	44421.03
548.84	44296.98
549.01	44266.55
549.18	44245.49
549.34	44767.43
549.51	44769.77
549.68	44713.59
549.84	44465.50
550.01	44755.72
550.18	44594.23
550.34	44463.16
550.51	44631.68
550.68	44313.36
550.84	44615.29
551.01	45102.12
551.18	44788.49
551.34	44549.76
551.51	44842.32
551.68	44910.20
551.84	44933.60
552.01	44940.63
552.18	44942.97
552.34	44631.68
552.51	45249.58
552.68	44610.61
552.84	45446.18
553.01	45553.85
553.18	45174.68
553.34	45319.79
553.51	44971.05
553.67	45418.10
553.84	45357.24
554.01	45525.76
554.17	45965.78
554.34	45441.50
554.51	45315.11
554.67	45748.11
554.84	45523.42
555.00	45551.51
555.17	45265.96
555.33	45621.72
555.50	45624.06
555.67	45497.67
555.83	45661.51
556.00	45612.36
556.16	45883.86
556.33	45483.63
556.50	45610.02
556.66	45581.93
556.83	45198.09
556.99	45911.95
557.16	45933.01
557.32	46052.38
557.49	45801.94
557.65	45420.44
557.82	45961.10
557.98	45961.10
558.15	45588.95
558.32	46312.18
558.48	45755.13
558.65	45874.50
558.81	45738.75
558.98	45815.99
559.14	45907.27
559.31	45827.69
559.47	45965.78
559.64	45956.42
559.80	46347.29
559.97	46021.95
560.13	45450.86
560.30	46146.00
560.46	46260.69
560.63	45860.46
560.79	46089.83
560.96	46391.76
561.12	46445.59
561.29	46595.38
561.45	45808.96
561.61	45975.14
561.78	46267.71
561.94	46021.95
562.11	46401.12
562.27	46028.98
562.44	46321.54
562.60	46637.51
562.77	46265.37
562.93	46237.28
563.10	46527.51
563.26	46143.66
563.42	46361.33
563.59	46363.67
563.75	46527.51
563.92	46770.93
564.08	46281.75
564.24	46981.57
564.41	46660.92
564.57	46326.22
564.74	46550.91
564.90	46302.82
565.07	46258.35
565.23	46277.07
565.39	46415.16
565.56	46476.02
565.72	46190.47
565.88	46590.70
566.05	46696.03
566.21	46211.54
566.38	46401.12
566.54	46419.84
566.70	46789.65
566.87	46775.61
567.03	46810.71
567.19	47124.35
567.36	46721.77
567.52	46681.98
567.68	47051.79
567.85	46546.23
568.01	46618.79
568.17	46288.77
568.34	46389.42
568.50	46344.95
568.66	46368.35
568.83	46326.22
568.99	46087.49
569.15	46396.44
569.32	46948.81
569.48	46270.05
569.64	46916.04
569.81	46890.29
569.97	46658.58
570.13	46831.78
570.30	46368.35
570.46	46586.02
570.62	46103.87
570.78	46234.94
570.95	46813.05
571.11	46412.82
571.27	46698.37
571.43	46522.83
571.60	46937.10
571.76	46731.14
571.92	46864.55
572.09	46801.35
572.25	46595.38
572.41	46270.05
572.57	46710.07
572.74	47196.90
572.90	46616.45
573.06	46754.54
573.22	46955.83
573.38	46731.14
573.55	46550.91
573.71	46897.31
573.87	46850.50
574.03	46595.38
574.20	46829.44
574.36	46824.76
574.52	47381.80
574.68	46660.92
574.84	46658.58
575.01	46890.29
575.17	46766.24
575.33	46349.63
575.49	46454.95
575.65	47103.28
575.82	47051.79
575.98	46665.60
576.14	47622.88
576.30	46649.22
576.46	46571.98
576.62	46534.53
576.79	46990.94
576.95	46705.39
577.11	46752.20
577.27	46836.46
577.43	47079.88
577.59	46696.03
577.75	46981.57
577.92	46593.04
578.08	46857.52
578.24	46370.69
578.40	46789.65
578.56	46600.07
578.72	46883.27
578.88	46983.91
579.04	47000.30
579.21	46892.63
579.37	46492.40
579.53	46831.78
579.69	46696.03
579.85	46726.46
580.01	47040.09
580.17	46890.29
580.33	46967.53
580.49	46583.68
580.65	47463.72
580.82	47192.22
580.98	46632.83
581.14	46803.69
581.30	47037.75
581.46	47021.36
581.62	47012.00
581.78	46871.57
581.94	47000.30
582.10	46897.31
582.26	47019.02
582.42	46583.68
582.58	47051.79
582.74	46660.92
582.90	47084.56
583.06	47072.85
583.22	47178.18
583.38	47313.93
583.54	47007.32
583.70	47180.52
583.86	46878.59
584.02	46920.72
584.18	46836.46
584.34	46911.36
584.50	47342.02
584.66	47042.43
584.82	46555.60
584.98	47140.73
585.14	46979.23
585.30	46780.29
585.46	46806.03
585.62	46548.57
585.78	46965.19
585.94	46698.37
586.10	47107.96
586.26	46883.27
586.42	47072.85
586.58	47213.29
586.74	47243.71
586.90	46918.38
587.06	46658.58
587.22	47217.97
587.38	46644.54
587.54	47166.48
587.70	47210.95
587.86	47164.14
588.02	46944.12
588.18	46665.60
588.34	46944.12
588.49	46684.33
588.65	46337.93
588.81	46487.72
588.97	46583.68
589.13	46375.37
589.29	46408.14
589.45	47119.66
589.61	46740.50
589.77	46571.98
589.93	47229.67
590.08	47124.35
590.24	47110.30
590.40	47145.41
590.56	47119.66
590.72	47278.82
590.88	46902.00
591.04	47274.14
591.20	47140.73
591.35	46843.48
591.51	47342.02
591.67	47072.85
591.83	47274.14
591.99	46894.97
592.15	46946.47
592.31	46892.63
592.46	47220.31
592.62	47033.07
592.78	47077.54
592.94	47433.30
593.10	46810.71
593.26	47391.17
593.41	47051.79
593.57	46916.04
593.73	46913.70
593.89	47288.18
594.05	47070.51
594.20	47154.77
594.36	46866.89
594.52	47292.86
594.68	47304.57
594.84	46848.16
594.99	47496.49
595.15	46529.85
595.31	47260.10
595.47	47133.71
595.62	47173.50
595.78	47295.21
595.94	47433.30
596.10	47098.60
596.25	47477.77
596.41	47054.13
596.57	47327.97
596.73	47152.43
596.88	46768.58
597.04	47260.10
597.20	47215.63
597.36	47157.11
597.51	47679.05
597.67	47540.96
597.83	47313.93
597.99	47004.98
598.14	47187.54
598.30	47625.22
598.46	47208.61
598.61	47489.47
598.77	46595.38
598.93	46520.49
599.09	46829.44
599.24	47665.01
599.40	47178.18
599.56	47592.45
599.71	47278.82
599.87	47547.98
600.03	47122.01
600.18	47140.73
600.34	47227.33
600.50	47241.37
600.65	46829.44
600.81	47491.81
600.97	47515.22
601.12	47428.62
601.28	47161.79
601.44	47489.47
601.59	47192.22
601.75	46714.75
601.91	46752.20
602.06	47342.02
602.22	47264.78
602.37	47079.88
602.53	46857.52
602.69	47445.00
602.84	47466.06
603.00	47126.69
603.16	47058.81
603.31	46976.89
603.47	46902.00
603.62	46934.76
603.78	47061.15
603.94	47407.55
604.09	47454.36
604.25	47269.46
604.40	47407.55
604.56	47159.45
604.71	47356.06
604.87	47187.54
605.03	47023.70
605.18	46848.16
605.34	46834.12
605.49	46955.83
605.65	47660.33
605.80	47327.97
605.96	47552.66
606.12	47215.63
606.27	47002.64
606.43	46672.62
606.58	47002.64
606.74	46508.79
606.89	46712.41
607.05	46658.58
607.20	47126.69
607.36	47091.58
607.51	47152.43
607.67	47143.07
607.82	47133.71
607.98	47028.38
608.13	46948.81
608.29	46775.61
608.44	46576.66
608.60	46396.44
608.75	46520.49
608.91	46473.68
609.06	46370.69
609.22	47194.56
609.37	46579.00
609.53	46614.11
609.68	46689.01
609.84	46560.28
609.99	46770.93
610.15	46461.97
610.30	46078.13
610.46	46307.50
610.61	46373.03
610.76	46543.89
610.92	46571.98
611.07	46768.58
611.23	46557.94
611.38	46571.98
611.54	46485.38
611.69	46630.49
611.84	46223.24
612.00	46597.73
612.15	45993.87
612.31	46483.04
612.46	46604.75
612.62	46230.26
612.77	46251.33
612.92	46642.20
613.08	46543.89
613.23	46525.17
613.39	46124.94
613.54	45975.14
613.69	46298.14
613.85	46066.42
614.00	46237.28
614.15	46230.26
614.31	46019.61
614.46	46281.75
614.62	45977.48
614.77	45698.96
614.92	46246.65
615.08	45799.60
615.23	45624.06
615.38	45996.21
615.54	45790.24
615.69	45633.42
615.84	45387.67
616.00	45862.80
616.15	45846.41
616.30	46225.58
616.46	45708.32
616.61	45600.66
616.76	45336.18
616.92	45041.27
617.07	45303.41
617.22	45301.07
617.37	45303.41
617.53	45883.86
617.68	46003.23
617.83	45656.83
617.99	45965.78
618.14	45418.10
618.29	45432.14
618.45	45502.35
618.60	45516.40
618.75	45336.18
618.90	45483.63
619.06	45387.67
619.21	45371.28
619.36	45762.15
619.51	45455.54
619.67	45118.51
619.82	45457.88
619.97	45558.53
620.12	45317.45
620.28	45062.33
620.43	44753.38
620.58	45038.93
620.73	45481.29
620.89	45022.54
621.04	45294.05
621.19	45235.53
621.34	44863.39
621.49	44486.56
621.65	44629.34
621.80	44980.42
621.95	44734.66
622.10	44842.32
622.25	45062.33
622.41	44769.77
622.56	45258.94
622.71	44858.71
622.86	44924.24
623.01	44505.29
623.16	44837.64
623.32	45099.78
623.47	45352.56
623.62	44732.32
623.77	44470.18
623.92	44720.62
624.07	44292.30
624.23	44037.18
624.38	44622.31
624.53	44364.85
624.68	44680.83
624.83	44678.49
624.98	44252.51
625.13	44088.67
625.29	44257.19
625.44	44245.49
625.59	44273.57
625.74	43955.26
625.89	43751.63
626.04	43732.91
626.19	43983.35
626.34	44271.23
626.49	44390.60
626.65	44074.63
626.80	43894.41
626.95	43667.37
627.10	43590.14
627.25	43402.89
627.40	43608.86
627.55	43199.27
627.70	43428.64
627.85	43613.54
628.00	43655.67
628.15	44039.52
628.30	43655.67
628.45	43941.22
628.60	43557.37
628.76	43381.83
628.91	43440.34
629.06	43313.95
629.21	43611.20
629.36	43576.09
629.51	42944.15
629.66	43014.37
629.81	43140.75
629.96	43737.59
630.11	43023.73
630.26	43276.51
630.41	43428.64
630.56	43232.04
630.71	43023.73
630.86	43122.03
631.01	42946.49
631.16	43122.03
631.31	42799.04
631.46	42705.41
631.61	43103.31
631.76	43103.31
631.91	42689.03
632.06	42967.55
632.21	43173.52
632.36	43143.09
632.51	42822.44
632.66	43147.78
632.81	42890.32
632.96	42703.07
633.10	42630.52
633.25	42361.36
633.40	42536.90
633.55	42717.12
633.70	43126.71
633.85	42597.75
634.00	42925.42
634.15	42513.49
634.30	42642.22
634.45	42784.99
634.60	42628.18
634.75	42665.63
634.90	42616.47
635.05	42674.99
635.19	42581.37
635.34	42693.71
635.49	42251.35
635.64	42279.44
635.79	42043.04
635.94	42286.46
636.09	42684.35
636.24	42422.21
636.39	41911.97
636.53	41846.44
636.68	42000.91
636.83	41825.37
636.98	42361.36
637.13	42064.11
637.28	42012.62
637.43	42487.74
637.57	42251.35
637.72	41911.97
637.87	41904.95
638.02	42333.27
638.17	42307.52
638.32	41968.15
638.46	41752.82
638.61	41443.87
638.76	41656.85
638.91	41640.47
639.06	41680.26
639.20	41717.71
639.35	41633.45
639.50	41525.78
639.65	41734.09
639.80	41830.05
639.94	41766.86
640.09	41258.96
640.24	41565.57
640.39	41109.17
640.54	41490.68
640.68	41383.01
640.83	41399.40
640.98	41331.52
641.13	41261.30
641.27	41813.67
641.42	41675.58
641.57	41071.72
641.72	41265.99
641.86	41041.29
642.01	41088.10
642.16	41053.00
642.31	40793.20
642.45	41336.20
642.60	41081.08
642.75	40795.54
642.90	40732.34
643.04	40971.08
643.19	40987.46
643.34	41254.28
643.48	41132.57
643.63	41308.11
643.78	40664.47
643.93	40634.04
644.07	40545.10
644.22	40746.39
644.37	40718.30
644.51	40399.99
644.66	40856.39
644.81	40453.82
644.95	40542.76
645.10	40975.76
645.25	40893.84
645.39	40947.67
645.54	40362.54
645.69	40596.59
645.83	40505.31
645.98	40297.00
646.13	40772.13
646.27	40285.30
646.42	39941.24
646.57	40840.01
646.71	40156.57
646.86	40102.74
647.00	40421.05
647.15	40098.06
647.30	40332.11
647.44	39948.26
647.59	40004.44
647.74	39978.69
647.88	39782.09
648.03	39618.25
648.17	40051.25
648.32	40081.67
648.47	40404.67
648.61	39810.17
648.76	40285.30
648.90	39990.39
649.05	40051.25
649.20	39541.01
649.34	40360.20
649.49	39971.67
649.63	40147.21
649.78	39555.05
649.92	39887.41
650.07	39945.92
650.21	39522.29
650.36	39847.62
650.51	39625.27
650.65	40058.27
650.80	40350.84
650.94	40079.33
651.09	39531.65
651.23	39339.72
651.38	39625.27
651.52	39728.25
651.67	39552.71
651.81	39248.44
651.96	39328.02
652.10	39147.80
652.25	39143.12
652.39	39407.60
652.54	39154.82
652.68	39721.23
652.83	39384.19
652.97	39697.83
653.12	39246.10
653.26	39229.72
653.41	39199.29
653.55	39016.73
653.70	38827.15
653.84	39007.37
653.99	39026.09
654.13	39108.01
654.27	39157.16
654.42	38639.90
654.56	38831.83
654.71	38705.44
654.85	38677.35
655.00	38770.97
655.14	38660.97
655.29	38539.26
655.43	38218.61
655.57	38204.56
655.72	38499.47
655.86	38220.95
656.01	38143.71
656.15	38211.59
656.30	38223.29
656.44	38337.98
656.58	37947.11
656.73	37947.11
656.87	38202.22
657.01	37773.91
657.16	37975.19
657.30	37855.82
657.45	37544.53
657.59	38000.94
657.73	37785.61
657.88	37787.95
658.02	38108.60
658.16	38031.36
658.31	38258.40
658.45	38314.57
658.60	38253.72
658.74	38260.74
658.88	38026.68
659.03	37958.81
659.17	37738.80
659.31	37794.97
659.46	37727.10
659.60	37605.39
659.74	37841.78
659.89	38197.54
660.03	37567.94
660.17	37493.04
660.32	37734.12
660.46	38202.22
660.60	37769.22
660.74	37844.12
660.89	37401.76
661.03	37081.11
661.17	37111.53
661.32	37301.12
661.46	37141.96
661.60	37230.90
661.74	36891.52
661.89	36938.33
662.03	37001.53
662.17	36947.70
662.31	36856.42
662.46	37179.41
662.60	37074.09
662.74	36870.46
662.88	36629.38
663.03	36624.70
663.17	36727.69
663.31	35894.46
663.45	36421.08
663.60	36786.20
663.74	36320.43
663.88	36128.51
664.02	36545.12
664.17	36051.27
664.31	35983.40
664.45	35922.54
664.59	36404.69
664.73	36070.00
664.88	36793.22
665.02	35819.56
665.16	36053.61
665.30	36023.19
665.44	36240.86
665.59	35468.48
665.73	35948.29
665.87	35096.33
666.01	35323.36
666.15	35578.48
666.29	35658.06
666.44	35615.93
666.58	35447.41
666.72	35653.38
666.86	35388.90
667.00	35304.64
667.14	35199.32
667.28	35093.99
667.43	34965.26
667.57	35044.84
667.71	35056.54
667.85	35175.91
667.99	34749.93
668.13	34775.68
668.27	34768.66
668.41	34792.06
668.56	34696.10
668.70	34820.15
668.84	34817.81
668.98	34043.09
669.12	34443.32
669.26	34244.38
669.40	34122.67
669.54	34415.24
669.68	34089.90
669.82	33851.17
669.96	34101.61
670.10	33745.84
670.25	33762.23
670.39	33792.65
670.53	33818.40
670.67	33827.76
670.81	33907.34
670.95	33846.49
671.09	33827.76
671.23	33584.35
671.37	33823.08
671.51	33373.70
671.65	33727.12
671.79	33207.52
671.93	33523.49
672.07	33074.11
672.21	33289.44
672.35	32896.23
672.49	32945.38
672.63	33319.87
672.77	32987.51
672.91	32694.94
673.05	32802.61
673.19	32641.11
673.33	32865.80
673.47	32467.91
673.61	32510.04
673.75	32348.54
673.89	32423.44
674.03	32018.53
674.17	31840.65
674.31	32055.98
674.45	31852.35
674.59	31978.74
674.73	32217.47
674.87	31847.67
675.01	31906.18
675.15	31775.11
675.29	31480.21
675.43	31798.52
675.56	31597.23
675.70	31299.98
675.84	31674.47
675.98	30775.70
676.12	31227.43
676.26	31035.50
676.40	30759.32
676.54	30976.99
676.68	30548.67
676.82	30529.95
676.96	30405.90
677.10	30373.13
677.23	30302.92
677.37	30497.18
677.51	30841.24
677.65	30492.50
677.79	30239.72
677.93	30565.06
678.07	29935.45
678.21	29656.93
678.34	29589.05
678.48	29738.85
678.62	29677.99
678.76	29420.53
678.90	29317.55
679.04	29647.57
679.18	29759.91
679.31	29228.61
679.45	28540.49
679.59	28936.04
679.73	29134.99
679.87	28610.71
680.00	28952.43
680.14	28531.13
680.28	28781.57
680.42	28369.63
680.56	28020.89
680.70	28369.63
680.83	28203.46
680.97	27988.13
681.11	27728.33
681.25	27386.61
681.39	27934.29
681.52	27983.44
681.66	27899.19
681.80	27449.80
681.94	27269.58
682.07	27641.73
682.21	27360.86
682.35	27325.75
682.49	27257.88
682.62	27065.96
682.76	27328.10
682.90	27110.43
683.04	27124.47
683.17	26867.01
683.31	26918.50
683.45	26972.33
683.59	26230.38
683.72	26054.84
683.86	25954.20
684.00	26153.15
684.13	26181.23
684.27	25947.18
684.41	26019.74
684.55	25872.28
684.68	25507.16
684.82	25521.20
684.96	25514.18
685.09	25692.06
685.23	25500.14
685.37	25373.75
685.50	25619.50
685.64	25275.45
685.78	25172.46
685.91	25132.67
686.05	25029.69
686.19	24545.20
686.32	24655.20
686.46	24821.38
686.60	23969.43
686.73	23786.86
686.87	24123.90
687.01	23534.09
687.14	23901.55
687.28	23704.95
687.42	23625.37
687.55	23908.57
687.69	23463.87
687.82	23171.30
687.96	23641.75
688.10	23730.69
688.23	23452.17
688.37	23325.78
688.50	22693.83
688.64	22970.02
688.78	22850.65
688.91	22586.17
689.05	22614.26
689.18	22593.19
689.32	22342.75
689.46	22263.18
689.59	22761.71
689.73	22647.02
689.86	22359.14
690.00	22267.86
690.13	22228.07
690.27	22471.48
690.41	22382.54
690.54	21865.28
690.68	21881.67
690.81	21951.88
690.95	21694.43
691.08	21764.64
691.22	21689.74
691.35	21441.65
691.49	21586.76
691.62	21823.16
691.76	21638.25
691.89	21343.35
692.03	21170.15
692.16	21380.79
692.30	21137.38
692.43	21130.36
692.57	20884.60
692.70	20599.05
692.84	20496.07
692.97	20676.29
693.11	20460.96
693.24	20189.46
693.38	19997.54
693.51	19997.54
693.65	20194.14
693.78	20009.24
693.92	20004.56
694.05	20201.16
694.19	19756.46
694.32	19777.53
694.45	19873.49
694.59	19623.05
694.72	19707.31
694.86	19442.83
694.99	19070.68
695.13	19007.49
695.26	19012.17
695.39	19030.90
695.53	19014.51
695.66	19082.39
695.80	18719.60
695.93	18750.03
696.07	18508.96
696.20	18834.29
696.33	18501.93
696.47	18384.91
696.60	18270.22
696.73	18567.47
696.87	18373.21
697.00	18342.78
697.14	18340.44
697.27	18101.70
697.40	17912.12
697.54	17846.58
697.67	17687.43
697.80	17811.48
697.94	17900.42
698.07	17626.57
698.21	17516.57
698.34	17537.63
698.47	17584.44
698.61	17268.47
698.74	17200.60
698.87	17303.58
699.01	17123.36
699.14	16912.71
699.27	16823.77
699.40	16615.46
699.54	16505.46
699.67	16610.78
699.80	16472.69
699.94	16568.65
700.07	16339.28
700.20	16252.68
700.34	16224.59
700.47	16278.43
700.60	16278.43
700.73	16381.41
700.87	16262.04
701.00	16102.89
701.13	16100.55
701.26	15845.43
701.40	15871.17
701.53	15782.23
701.66	15651.16
701.79	15594.99
701.93	15690.95
702.06	15370.30
702.19	15250.93
702.32	15389.02
702.46	15480.30
702.59	15250.93
702.72	14986.45
702.85	14822.61
702.99	14963.04
703.12	14927.94
703.25	15049.64
703.38	14895.17
703.51	14813.25
703.65	14590.90
703.78	14656.43
703.91	14572.18
704.04	14607.28
704.17	14567.49
704.31	14406.00
704.44	14113.43
704.57	13944.91
704.70	14061.94
704.83	14253.86
704.96	14352.16
705.10	14270.25
705.23	14492.60
>>>>>End Processed Spectral Data<<<<<
