SpectraSuite Data File
++++++++++++++++++++++++++++++++++++
Date: Fri Oct 25 10:47:05 EDT 2013
User: price-jones
Dark Spectrum Present: No
Reference Spectrum Present: No
Number of Sampled Component Spectra: 1
Spectrometers: USB2+H05261
Integration Time (usec): 100000 (USB2+H05261)
Spectra Averaged: 1 (USB2+H05261)
Boxcar Smoothing: 0 (USB2+H05261)
Correct for Electrical Dark: No (USB2+H05261)
Strobe/Lamp Enabled: No (USB2+H05261)
Correct for Detector Non-linearity: No (USB2+H05261)
Correct for Stray Light: No (USB2+H05261)
Number of Pixels in Processed Spectrum: 2048
>>>>>Begin Processed Spectral Data<<<<<
365.73	117.03
365.92	117.03
366.12	117.03
366.32	138.09
366.52	56.17
366.72	49.15
366.91	0.00
367.11	0.00
367.31	0.00
367.51	102.98
367.70	53.83
367.90	98.30
368.10	18.72
368.30	35.11
368.49	23.41
368.69	100.64
368.89	39.79
369.09	105.32
369.28	51.49
369.48	42.13
369.68	138.09
369.87	56.17
370.07	56.17
370.27	142.77
370.47	234.05
370.66	423.64
370.86	334.70
371.06	519.60
371.25	512.58
371.45	493.85
371.65	470.45
371.84	437.68
372.04	421.30
372.24	461.09
372.44	428.32
372.63	521.94
372.83	493.85
373.03	533.64
373.22	526.62
373.42	477.47
373.62	510.24
373.81	496.19
374.01	538.32
374.21	561.73
374.40	608.54
374.60	568.75
374.79	465.77
374.99	601.52
375.19	564.07
375.38	594.50
375.58	610.88
375.78	594.50
375.97	582.79
376.17	624.92
376.37	533.64
376.56	559.39
376.76	631.94
376.95	545.34
377.15	676.41
377.35	641.31
377.54	603.86
377.74	540.66
377.93	587.47
378.13	627.26
378.33	561.73
378.52	634.29
378.72	592.16
378.91	624.92
379.11	578.11
379.31	648.33
379.50	664.71
379.70	610.88
379.89	713.86
380.09	627.26
380.28	653.01
380.48	662.37
380.68	697.48
380.87	720.88
381.07	643.65
381.26	723.23
381.46	716.20
381.65	636.63
381.85	664.71
382.04	690.46
382.24	744.29
382.43	734.93
382.63	624.92
382.83	692.80
383.02	746.63
383.22	723.23
383.41	664.71
383.61	716.20
383.80	744.29
384.00	774.72
384.19	746.63
384.39	748.97
384.58	784.08
384.78	760.67
384.97	763.01
385.17	798.12
385.36	758.33
385.56	812.17
385.75	770.04
385.95	702.16
386.14	837.91
386.34	802.80
386.53	767.70
386.72	781.74
386.92	763.01
387.11	781.74
387.31	854.30
387.50	720.88
387.70	828.55
387.89	924.51
388.09	795.78
388.28	821.53
388.48	840.25
388.67	891.74
388.86	851.96
389.06	898.77
389.25	905.79
389.45	903.45
389.64	912.81
389.84	861.32
390.03	905.79
390.22	912.81
390.42	1004.09
390.61	901.11
390.81	1043.88
391.00	1062.60
391.19	898.77
391.39	1008.77
391.58	1043.88
391.78	1015.79
391.97	924.51
392.16	875.36
392.36	1027.50
392.55	992.39
392.75	1034.52
392.94	954.94
393.13	1022.81
393.33	926.85
393.52	985.37
393.71	968.98
393.91	1062.60
394.10	1081.33
394.29	1020.47
394.49	997.07
394.68	1144.52
394.88	1025.15
395.07	1186.65
395.26	1184.31
395.46	1074.31
395.65	1109.41
395.84	1090.69
396.04	1284.95
396.23	1114.10
396.42	1132.82
396.62	1139.84
396.81	1186.65
397.00	1203.04
397.19	1179.63
397.39	1287.29
397.58	1299.00
397.77	1210.06
397.97	1287.29
398.16	1329.42
398.35	1329.42
398.55	1294.32
398.74	1413.68
398.93	1423.05
399.12	1341.13
399.32	1355.17
399.51	1390.28
399.70	1383.26
399.90	1390.28
400.09	1348.15
400.28	1474.54
400.47	1479.22
400.67	1509.65
400.86	1437.09
401.05	1479.22
401.24	1636.03
401.44	1528.37
401.63	1474.54
401.82	1556.46
402.01	1530.71
402.21	1542.41
402.40	1591.56
402.59	1519.01
402.78	1544.75
402.97	1596.25
403.17	1694.55
403.36	1570.50
403.55	1645.40
403.74	1643.06
403.93	1638.38
404.13	1692.21
404.32	1696.89
404.51	1666.46
404.70	1582.20
404.89	1640.72
405.09	1753.06
405.28	1776.47
405.47	1661.78
405.66	1696.89
405.85	1905.20
406.05	1886.47
406.24	1856.04
406.43	1827.96
406.62	1785.83
406.81	1884.13
407.00	1844.34
407.20	1881.79
407.39	1961.37
407.58	1865.41
407.77	2043.29
407.96	2008.18
408.15	1975.41
408.34	2015.20
408.54	1984.77
408.73	2087.76
408.92	2099.46
409.11	2054.99
409.30	2083.08
409.49	1994.14
409.68	2008.18
409.87	2083.08
410.07	2031.58
410.26	2108.82
410.45	2054.99
410.64	2223.51
410.83	2314.79
411.02	2356.92
411.21	2408.41
411.40	2326.49
411.59	2387.35
411.78	2380.32
411.98	2270.32
412.17	2335.85
412.36	2265.64
412.55	2471.61
412.74	2394.37
412.93	2434.16
413.12	2389.69
413.31	2555.86
413.50	2609.70
413.69	2539.48
413.88	2569.91
414.07	2553.52
414.26	2576.93
414.45	2649.49
414.64	2541.82
414.83	2637.78
415.02	2708.00
415.22	2703.32
415.41	2834.39
415.60	2928.01
415.79	2932.69
415.98	2986.52
416.17	2841.41
416.36	2862.48
416.55	2963.12
416.74	2974.82
416.93	2883.54
417.12	2972.48
417.31	3084.83
417.50	3152.70
417.69	3213.56
417.88	3129.30
418.07	3108.23
418.26	3019.29
418.45	3105.89
418.64	3129.30
418.83	3166.74
419.02	3194.83
419.21	3335.26
419.39	3204.19
419.58	3267.39
419.77	3293.13
419.96	3337.60
420.15	3435.91
420.34	3375.05
420.53	3335.26
420.72	3503.78
420.91	3424.20
421.10	3485.06
421.29	3492.08
421.48	3377.39
421.67	3543.57
421.86	3368.03
422.05	3386.76
422.24	3384.41
422.43	3449.95
422.61	3559.95
422.80	3637.19
422.99	3459.31
423.18	3695.71
423.37	3536.55
423.56	3555.27
423.75	3461.65
423.94	3555.27
424.13	3346.97
424.32	3435.91
424.50	3574.00
424.69	3674.64
424.88	3658.26
425.07	3531.87
425.26	3515.48
425.45	3623.15
425.64	3522.51
425.83	3585.70
426.01	3646.55
426.20	3538.89
426.39	3590.38
426.58	3557.61
426.77	3761.24
426.96	3669.96
427.15	3559.95
427.33	3660.60
427.52	3735.50
427.71	3665.28
427.90	3784.65
428.09	3822.09
428.28	3925.08
428.46	3868.91
428.65	3798.69
428.84	3918.06
429.03	3999.98
429.22	3819.75
429.40	3819.75
429.59	3847.84
429.78	3684.00
429.97	3726.13
430.16	3864.22
430.34	3850.18
430.53	3885.29
430.72	3833.80
430.91	3868.91
431.10	3955.51
431.28	4051.47
431.47	4201.26
431.66	4201.26
431.85	4074.87
432.03	4161.47
432.22	4327.65
432.41	4294.88
432.60	4325.31
432.79	4283.18
432.97	4348.72
433.16	4362.76
433.35	4280.84
433.54	4280.84
433.72	4243.39
433.91	4264.46
434.10	4346.37
434.28	4409.57
434.47	4301.90
434.66	4430.63
434.85	4535.96
435.03	4599.15
435.22	4489.15
435.41	4664.69
435.59	4580.43
435.78	4702.14
435.97	4596.81
436.16	4585.11
436.34	4587.45
436.53	4669.37
436.72	4809.80
436.90	4718.52
437.09	4774.69
437.28	4624.90
437.46	4870.65
437.65	4826.18
437.84	4795.76
438.02	4676.39
438.21	4858.95
438.40	4704.48
438.58	4931.51
438.77	4980.66
438.96	5041.51
439.14	5081.30
439.33	5093.01
439.52	5163.22
439.70	5008.75
439.89	5144.50
440.08	5097.69
440.26	5259.18
440.45	5109.39
440.63	5336.42
440.82	5366.85
441.01	5343.44
441.19	5418.34
441.38	5619.63
441.57	5638.35
441.75	5437.06
441.94	5764.74
442.12	5689.84
442.31	5827.93
442.50	5830.27
442.68	5680.48
442.87	5636.01
443.05	5654.73
443.24	5891.13
443.43	5891.13
443.61	6001.13
443.80	6078.37
443.98	5720.27
444.17	5617.29
444.35	5795.17
444.54	6101.78
444.73	6071.35
444.91	5905.17
445.10	5851.34
445.28	5865.38
445.47	5912.19
445.65	5984.75
445.84	6005.81
446.02	6153.27
446.21	5907.51
446.39	6031.56
446.58	6019.86
446.77	6040.92
446.95	6005.81
447.14	6122.84
447.32	6228.17
447.51	5982.41
447.69	6099.44
447.88	6169.65
448.06	6087.73
448.25	5881.77
448.43	6127.52
448.62	6073.69
448.80	6008.16
448.99	6160.29
449.17	6244.55
449.36	6223.48
449.54	6476.26
449.73	6256.25
449.91	6541.80
450.10	6368.60
450.28	6560.52
450.46	6544.14
450.65	6485.62
450.83	6366.26
451.02	6459.88
451.20	6738.40
451.39	6473.92
451.57	6595.63
451.76	6427.11
451.94	6525.41
452.13	6567.54
452.31	6537.12
452.49	6518.39
452.68	6642.44
452.86	6553.50
453.05	6600.31
453.23	6679.89
453.42	6502.01
453.60	6581.59
453.78	6705.63
453.97	6782.87
454.15	6717.34
454.34	6890.54
454.52	6787.55
454.70	6794.58
454.89	6949.05
455.07	6909.26
455.26	6995.86
455.44	7049.69
455.62	7037.99
455.81	7073.10
455.99	7047.35
456.17	7241.62
456.36	7140.97
456.54	7000.54
456.73	7279.07
456.91	7370.35
457.09	7241.62
457.28	7618.44
457.46	7349.28
457.64	7473.33
457.83	7382.05
458.01	7185.44
458.19	7274.38
458.38	7419.50
458.56	7592.70
458.74	7569.29
458.93	7346.94
459.11	7571.63
459.29	7527.16
459.48	7712.07
459.66	7475.67
459.84	7770.58
460.03	7590.36
460.21	7702.70
460.39	7667.60
460.57	7595.04
460.76	7927.39
460.94	8013.99
461.12	7899.31
461.31	7859.52
461.49	7948.46
461.67	7957.82
461.85	8067.83
462.04	8037.40
462.22	8416.57
462.40	8332.31
462.59	7950.80
462.77	8149.75
462.95	8198.90
463.13	8255.07
463.32	8168.47
463.50	8238.69
463.68	8217.62
463.86	8236.35
464.05	8238.69
464.23	8297.20
464.41	8329.97
464.59	8098.25
464.78	8437.63
464.96	8290.18
465.14	8411.89
465.32	8425.93
465.50	8430.61
465.69	8564.02
465.87	8514.87
466.05	8341.67
466.23	8439.97
466.41	8463.38
466.60	8547.64
466.78	8311.24
466.96	8383.80
467.14	8414.23
467.32	8414.23
467.51	8578.06
467.69	8461.04
467.87	8655.30
468.05	8821.48
468.23	8524.23
468.41	8816.80
468.60	8681.05
468.78	8889.35
468.96	8725.52
469.14	8833.18
469.32	8952.55
469.50	8641.26
469.69	8952.55
469.87	9060.21
470.05	9128.09
470.23	9060.21
470.41	9041.49
470.59	9233.41
470.77	9039.15
470.95	9114.05
471.14	9444.06
471.32	9205.33
471.50	9439.38
471.68	9418.32
471.86	9486.19
472.04	9247.46
472.22	9537.68
472.40	9383.21
472.58	9556.41
472.77	9654.71
472.95	9841.95
473.13	9851.31
473.31	9659.39
473.49	9844.29
473.67	9673.43
473.85	9813.87
474.03	9970.68
474.21	10064.30
474.39	10150.90
474.57	10263.25
474.75	10195.37
474.93	10019.83
475.12	10342.83
475.30	10445.81
475.48	10270.27
475.66	10455.17
475.84	10373.25
476.02	10579.22
476.20	10338.15
476.38	10745.40
476.56	11044.99
476.74	10747.74
476.92	10576.88
477.10	10616.67
477.28	10885.83
477.46	11131.59
477.64	11236.91
477.82	11297.77
478.00	11363.30
478.18	11433.52
478.36	11515.44
478.54	11559.91
478.72	11564.59
478.90	11822.05
479.08	11843.11
479.26	12156.74
479.44	12231.64
479.62	12414.20
479.80	11985.88
479.98	12154.40
480.16	12688.04
480.34	12351.01
480.52	12622.51
480.70	12648.26
480.88	12603.78
481.06	12793.37
481.24	12933.80
481.41	13174.88
481.59	13011.04
481.77	13165.51
481.95	13547.02
482.13	13411.27
482.31	13495.53
482.49	13806.82
482.67	13582.13
482.85	13652.34
483.03	14129.81
483.21	14085.34
483.39	14106.41
483.57	14218.75
483.74	14579.20
483.92	14492.60
484.10	14459.83
484.28	14761.76
484.46	14721.97
484.64	15234.55
484.82	14679.84
485.00	15037.94
485.18	14944.32
485.35	15480.30
485.53	15126.88
485.71	15023.90
485.89	15447.54
486.07	15346.89
486.25	15693.29
486.43	15868.83
486.61	15775.21
486.78	16072.46
486.96	16343.96
487.14	16402.47
487.32	16325.24
487.50	16512.48
487.68	16856.54
487.85	17001.65
488.03	17198.26
488.21	17294.22
488.39	17376.14
488.57	17371.46
488.75	17706.15
488.92	17851.27
489.10	17813.82
489.28	17734.24
489.46	18333.42
489.64	18183.62
489.81	18614.28
489.99	18429.38
490.17	18396.61
490.35	18717.26
490.53	18897.49
490.70	19000.47
490.88	19044.94
491.06	19309.42
491.24	19255.59
491.41	19344.53
491.59	19637.09
491.77	19335.17
491.95	19590.28
492.13	19866.47
492.30	20126.27
492.48	19988.18
492.66	20217.55
492.84	20339.26
493.01	20538.20
493.19	20418.83
493.37	20477.35
493.54	20947.79
493.72	20992.26
493.90	20912.69
494.08	21263.77
494.25	21717.83
494.43	21612.51
494.61	21706.13
494.79	21731.87
494.96	21586.76
495.14	21923.80
495.32	21928.48
495.49	21965.93
495.67	22204.66
495.85	22059.55
496.02	22518.29
496.20	22579.15
496.38	22831.93
496.55	22675.11
496.73	23229.82
496.91	22972.36
497.09	22991.08
497.26	23243.86
497.44	23339.82
497.62	23276.63
497.79	23756.44
497.97	23447.49
498.14	23843.04
498.32	23896.87
498.50	23836.02
498.67	24091.13
498.85	24180.07
499.03	24453.92
499.20	24493.71
499.38	24489.03
499.56	24526.47
499.73	24713.72
499.91	24589.67
500.08	25060.12
500.26	24592.01
500.44	24702.01
500.61	24957.13
500.79	24629.46
500.97	25137.35
501.14	25640.57
501.32	25600.78
501.49	25628.87
501.67	25256.72
501.84	25841.85
502.02	25656.95
502.20	25958.88
502.37	26176.55
502.55	25956.54
502.72	26665.72
502.90	26141.44
503.07	25923.77
503.25	26221.02
503.43	25923.77
503.60	26216.34
503.78	26305.28
503.95	26452.73
504.13	26710.19
504.30	26925.52
504.48	27023.83
504.65	27194.68
504.83	27262.56
505.01	27377.25
505.18	27115.11
505.36	27428.74
505.53	27491.93
505.71	27938.97
505.88	27768.12
506.06	27393.63
506.23	27901.53
506.41	27814.93
506.58	27765.78
506.76	27962.38
506.93	28173.03
507.11	27866.42
507.28	28154.30
507.46	28182.39
507.63	28254.95
507.81	28280.69
507.98	28217.50
508.16	28610.71
508.33	28524.11
508.50	28711.35
508.68	28816.68
508.85	29567.99
509.03	29060.09
509.20	28989.88
509.38	29282.44
509.55	29134.99
509.73	29446.28
509.90	29263.72
510.08	29397.13
510.25	29542.24
510.42	29642.88
510.60	29582.03
510.77	29795.02
510.95	30129.72
511.12	29998.65
511.30	29785.66
511.47	30073.54
511.64	30373.13
511.82	30209.29
511.99	30450.37
512.17	30518.25
512.34	30396.54
512.51	30724.21
512.69	30838.90
512.86	30817.83
513.04	30593.14
513.21	30363.77
513.38	30892.73
513.56	31019.12
513.73	30962.95
513.90	30749.96
514.08	31370.20
514.25	31674.47
514.43	31505.95
514.60	31180.62
514.77	31548.08
514.95	31730.64
515.12	31725.96
515.29	31868.73
515.47	31571.49
515.64	32079.38
515.81	32006.83
515.99	31948.31
516.16	32327.48
516.33	31999.80
516.51	32191.73
516.68	31908.52
516.85	31473.18
517.03	31957.67
517.20	32346.20
517.37	32182.37
517.54	32327.48
517.72	32498.34
517.89	32400.04
518.06	32465.57
518.24	32449.19
518.41	32570.90
518.58	32723.03
518.75	32580.26
518.93	33008.58
519.10	33109.22
519.27	33418.17
519.45	32854.10
519.62	33467.32
519.79	33364.34
519.96	33324.55
520.14	33872.23
520.31	33139.65
520.48	33535.20
520.65	33642.86
520.83	33780.95
521.00	33909.68
521.17	34143.74
521.34	33949.47
521.52	34211.61
521.69	34450.35
521.86	34307.57
522.03	34099.26
522.20	34698.44
522.38	34586.10
522.55	34780.36
522.72	34333.32
522.89	34522.90
523.07	34890.37
523.24	34445.66
523.41	34609.50
523.58	34766.32
523.75	35108.04
523.92	35278.89
524.10	35098.67
524.27	35222.72
524.44	35370.18
524.61	35414.65
524.78	35218.04
524.96	35519.97
525.13	35754.02
525.30	35894.46
525.47	36109.78
525.64	35566.78
525.81	36006.80
525.98	35728.28
526.16	35531.67
526.33	35552.74
526.50	36243.20
526.67	35426.35
526.84	35878.07
527.01	35775.09
527.18	35936.59
527.36	36027.87
527.53	36430.44
527.70	36636.41
527.87	37085.79
528.04	36367.24
528.21	36849.39
528.38	36715.98
528.55	36786.20
528.72	36575.55
528.89	37127.92
529.07	36643.43
529.24	36814.29
529.41	36577.89
529.58	36601.30
529.75	36809.61
529.92	36971.10
530.09	36924.29
530.26	37345.59
530.43	37209.84
530.60	37022.59
530.77	37027.28
530.94	37804.33
531.11	37186.43
531.28	37596.03
531.46	37668.58
531.63	37570.28
531.80	37748.16
531.97	37900.29
532.14	37200.47
532.31	37729.44
532.48	37902.64
532.65	37984.55
532.82	37951.79
532.99	37912.00
533.16	38038.39
533.33	38136.69
533.50	38052.43
533.67	38295.85
533.84	38223.29
534.01	38305.21
534.18	38312.23
534.35	38649.27
534.52	38211.59
534.69	38836.51
534.86	38260.74
535.03	38307.55
535.20	38616.50
535.37	38733.53
535.54	38866.94
535.71	38604.80
535.88	38689.06
536.05	38822.47
536.22	39276.53
536.38	38646.93
536.55	38944.17
536.72	38902.04
536.89	38932.47
537.06	38986.30
537.23	39276.53
537.40	39061.20
537.57	39232.06
537.74	39407.60
537.91	39667.40
538.08	40252.53
538.25	39505.90
538.42	38836.51
538.59	39665.06
538.75	39386.54
538.92	38981.62
539.09	39651.02
539.26	39428.66
539.43	39667.40
539.60	39718.89
539.77	39552.71
539.94	39697.83
540.11	39435.69
540.28	39559.73
540.44	39819.53
540.61	40114.44
540.78	40032.52
540.95	39765.70
541.12	39812.51
541.29	39833.58
541.46	40156.57
541.62	39974.01
541.79	40755.75
541.96	39950.60
542.13	40081.67
542.30	40367.22
542.47	40109.76
542.63	40357.86
542.80	40158.91
542.97	40746.39
543.14	40905.54
543.31	40957.03
543.48	40809.58
543.64	41661.54
543.81	41008.53
543.98	41247.26
544.15	40657.45
544.32	40711.28
544.48	41778.56
544.65	41434.50
544.82	40968.74
544.99	40907.88
545.16	40706.60
545.32	41099.81
545.49	41184.07
545.66	41275.35
545.83	41476.63
546.00	41752.82
546.16	41404.08
546.33	41277.69
546.50	41205.13
546.67	41486.00
546.83	41134.92
547.00	41535.15
547.17	41104.49
547.34	41689.62
547.50	41677.92
547.67	41956.44
547.84	41846.44
548.00	42029.00
548.17	42146.03
548.34	42082.83
548.51	42113.26
548.67	41991.55
548.84	42059.43
549.01	41858.14
549.18	42043.04
549.34	41975.17
549.51	42417.53
549.68	42234.97
549.84	42368.38
550.01	42476.04
550.18	42232.63
550.34	42349.65
550.51	42506.47
550.68	42396.46
550.84	42061.77
551.01	42199.86
551.18	42281.78
551.34	42574.34
551.51	42593.07
551.68	42522.85
551.84	42913.72
552.01	42590.73
552.18	42293.48
552.34	42293.48
552.51	42501.79
552.68	42740.52
552.84	42810.74
553.01	43026.07
553.18	42871.59
553.34	42803.72
553.51	42504.13
553.67	42438.59
553.84	43030.75
554.01	42887.98
554.17	43473.11
554.34	43346.72
554.51	43508.22
554.67	43526.94
554.84	42983.94
555.00	43367.79
555.17	42794.36
555.33	43171.18
555.50	43159.48
555.67	43157.14
555.83	43026.07
556.00	43070.54
556.16	43646.31
556.33	42873.93
556.50	42838.83
556.66	43292.89
556.83	43264.80
556.99	43540.99
557.16	43885.04
557.32	43632.27
557.49	43276.51
557.65	43133.73
557.82	43250.76
557.98	43498.86
558.15	43604.18
558.32	43629.93
558.48	43861.64
558.65	43580.78
558.81	43599.50
558.98	43711.84
559.14	43901.43
559.31	43519.92
559.47	43590.14
559.64	44048.88
559.80	43786.74
559.97	43686.10
560.13	43660.35
560.30	43655.67
560.46	44294.64
560.63	43981.01
560.79	44016.11
560.96	44194.00
561.12	44126.12
561.29	44196.34
561.45	43920.15
561.61	43962.28
561.78	43786.74
561.94	44076.97
562.11	43901.43
562.27	43524.60
562.44	44285.28
562.60	44018.46
562.77	44442.09
562.93	44086.33
563.10	44397.62
563.26	43892.07
563.42	44229.10
563.59	44130.80
563.75	44245.49
563.92	44552.10
564.08	44313.36
564.24	43831.21
564.41	43845.26
564.57	44222.08
564.74	44402.30
564.90	44521.67
565.07	44133.14
565.23	43768.02
565.39	44072.29
565.56	44680.83
565.72	44224.42
565.88	44245.49
566.05	43885.04
566.21	44622.31
566.38	44512.31
566.54	44219.74
566.70	44692.53
566.87	44631.68
567.03	44729.98
567.19	44444.43
567.36	44430.39
567.52	44411.67
567.68	44935.95
567.85	44500.61
568.01	44495.92
568.17	44083.99
568.34	44222.08
568.50	44835.30
568.66	44547.42
568.83	44552.10
568.99	44315.70
569.15	44437.41
569.32	44442.09
569.48	44687.85
569.64	44559.12
569.81	44957.01
569.97	44196.34
570.13	44879.77
570.30	44495.92
570.46	44163.57
570.62	44467.84
570.78	44208.04
570.95	44428.05
571.11	45076.38
571.27	44374.22
571.43	44788.49
571.60	44409.32
571.76	44882.11
571.92	44573.16
572.09	44350.81
572.25	44519.33
572.41	44619.97
572.57	45191.06
572.74	44957.01
572.90	44755.72
573.06	44900.84
573.22	44451.45
573.38	44423.37
573.55	45034.25
573.71	45130.21
573.87	44715.93
574.03	44678.49
574.20	44577.84
574.36	44729.98
574.52	44919.56
574.68	44589.55
574.84	44631.68
575.01	44472.52
575.17	44737.00
575.33	44484.22
575.49	44526.35
575.65	44938.29
575.82	44982.76
575.98	44858.71
576.14	45289.37
576.30	45036.59
576.46	44685.51
576.62	44570.82
576.79	44694.87
576.95	44669.12
577.11	44933.60
577.27	45116.17
577.43	45209.79
577.59	44926.58
577.75	44797.85
577.92	44554.44
578.08	44584.86
578.24	44147.18
578.40	44409.32
578.56	45059.99
578.72	44966.37
578.88	45097.44
579.04	45123.19
579.21	45216.81
579.37	44706.57
579.53	44804.88
579.69	44832.96
579.85	44673.81
580.01	45038.93
580.17	45013.18
580.33	45109.14
580.49	45272.98
580.65	44692.53
580.82	45219.15
580.98	44935.95
581.14	44540.39
581.30	44790.83
581.46	44720.62
581.62	44957.01
581.78	45137.23
581.94	45394.69
582.10	45013.18
582.26	44896.16
582.42	44910.20
582.58	45010.84
582.74	44701.89
582.90	44994.46
583.06	45233.19
583.22	44804.88
583.38	44896.16
583.54	45207.45
583.70	45020.20
583.86	44797.85
584.02	44404.64
584.18	45027.23
584.34	44737.00
584.50	44914.88
584.66	44875.09
584.82	45116.17
584.98	45235.53
585.14	45387.67
585.30	44882.11
585.46	44790.83
585.62	44610.61
585.78	44725.30
585.94	44992.12
586.10	44804.88
586.26	44533.37
586.42	44884.45
586.58	44924.24
586.74	44975.73
586.90	44755.72
587.06	44760.40
587.22	45186.38
587.38	44982.76
587.54	45137.23
587.70	45212.13
587.86	45008.50
588.02	45038.93
588.18	45081.06
588.34	45076.38
588.49	44839.98
588.65	44673.81
588.81	44844.66
588.97	44711.25
589.13	44699.55
589.29	44938.29
589.45	45134.89
589.61	45003.82
589.77	45368.94
589.93	45647.47
590.08	45289.37
590.24	45464.91
590.40	45380.65
590.56	45858.12
590.72	45022.54
590.88	45092.76
591.04	44678.49
591.20	45808.96
591.35	45684.92
591.51	45375.97
591.67	45418.10
591.83	45003.82
591.99	45268.30
592.15	45008.50
592.31	44891.48
592.46	45380.65
592.62	45357.24
592.78	45380.65
592.94	45570.23
593.10	45303.41
593.26	45539.80
593.41	45216.81
593.57	45546.82
593.73	45394.69
593.89	45181.70
594.05	45464.91
594.20	45434.48
594.36	45570.23
594.52	45507.04
594.68	45305.75
594.84	44790.83
594.99	45492.99
595.15	45448.52
595.31	45167.66
595.47	45612.36
595.62	45387.67
595.78	45366.60
595.94	45729.39
596.10	45595.98
596.25	45221.49
596.41	45535.12
596.57	45549.17
596.73	45333.84
596.88	44849.35
597.04	45209.79
597.20	45607.68
597.36	45230.85
597.51	45523.42
597.67	45544.48
597.83	45390.01
597.99	46136.64
598.14	45195.74
598.30	45507.04
598.46	45525.76
598.61	45071.70
598.77	45209.79
598.93	45289.37
599.09	45455.54
599.24	46162.39
599.40	45991.53
599.56	45366.60
599.71	45228.51
599.87	45670.87
600.03	45373.63
600.18	45371.28
600.34	45240.21
600.50	45535.12
600.65	45720.02
600.81	45535.12
600.97	45532.78
601.12	45766.84
601.28	45481.29
601.44	45652.15
601.59	45507.04
601.75	45343.20
601.91	45485.97
602.06	45188.72
602.22	45291.71
602.37	45186.38
602.53	45137.23
602.69	45518.74
602.84	45593.64
603.00	45085.74
603.16	45345.54
603.31	45062.33
603.47	45195.74
603.62	45111.49
603.78	45579.59
603.94	45148.93
604.09	45401.71
604.25	45755.13
604.40	45516.40
604.56	45036.59
604.71	45031.91
604.87	45258.94
605.03	45722.37
605.18	44903.18
605.34	44889.13
605.49	45050.63
605.65	45387.67
605.80	45155.96
605.96	45617.04
606.12	45277.66
606.27	45500.01
606.43	44935.95
606.58	45422.78
606.74	45123.19
606.89	45233.19
607.05	45092.76
607.20	45343.20
607.36	45230.85
607.51	45684.92
607.67	45214.47
607.82	44898.50
607.98	45312.77
608.13	45518.74
608.29	44800.19
608.44	45010.84
608.60	44481.88
608.75	44629.34
608.91	44582.52
609.06	44952.33
609.22	45418.10
609.37	44776.79
609.53	44505.29
609.68	45055.31
609.84	44678.49
609.99	44947.65
610.15	44914.88
610.30	45109.14
610.46	44708.91
610.61	44765.09
610.76	44526.35
610.92	45244.90
611.07	45008.50
611.23	44917.22
611.38	44629.34
611.54	45186.38
611.69	44350.81
611.84	44348.47
612.00	44828.28
612.15	44814.24
612.31	44781.47
612.46	44383.58
612.62	44872.75
612.77	44638.70
612.92	44762.75
613.08	44755.72
613.23	44416.35
613.39	44488.90
613.54	44355.49
613.69	44722.96
613.85	44325.07
614.00	44711.25
614.15	44680.83
614.31	44666.78
614.46	44385.92
614.62	44175.27
614.77	44961.69
614.92	44746.36
615.08	44067.61
615.23	44247.83
615.38	44446.77
615.54	43992.71
615.69	44116.76
615.84	44184.63
616.00	44098.03
616.15	44493.58
616.30	44781.47
616.46	43966.96
616.61	43852.28
616.76	44238.47
616.92	43721.21
617.07	44318.04
617.22	44006.75
617.37	43253.10
617.53	44182.29
617.68	44051.22
617.83	44041.86
617.99	44151.87
618.14	44186.97
618.29	44086.33
618.45	43262.46
618.60	43957.60
618.75	43646.31
618.90	44194.00
619.06	44477.20
619.21	43828.87
619.36	43782.06
619.51	43489.49
619.67	43487.15
619.82	43875.68
619.97	43849.94
620.12	43363.11
620.28	43033.09
620.43	43005.00
620.58	43564.39
620.73	43863.98
620.89	43648.65
621.04	43859.30
621.19	43133.73
621.34	43468.43
621.49	43318.64
621.65	43007.34
621.80	43662.69
621.95	42897.34
622.10	43688.44
622.25	42892.66
622.41	43061.18
622.56	43175.86
622.71	43461.41
622.86	43618.22
623.01	42897.34
623.16	43459.07
623.32	43098.62
623.47	42983.94
623.62	43442.68
623.77	43077.56
623.92	42707.76
624.07	42958.19
624.23	42920.74
624.38	42766.27
624.53	42602.43
624.68	42827.12
624.83	43079.90
624.98	42616.47
625.13	42410.51
625.29	43194.59
625.44	42923.08
625.59	42759.25
625.74	42616.47
625.89	42485.40
626.04	42412.85
626.19	41993.89
626.34	42485.40
626.49	42672.65
626.65	42653.92
626.80	42777.97
626.95	42270.08
627.10	42073.47
627.25	42660.94
627.40	41825.37
627.55	41977.51
627.70	41581.96
627.85	42195.18
628.00	41514.08
628.15	42302.84
628.30	42110.92
628.45	42211.56
628.60	42075.81
628.76	42349.65
628.91	42368.38
629.06	41961.12
629.21	42340.29
629.36	42150.71
629.51	41647.49
629.66	42412.85
629.81	41911.97
629.96	41900.27
630.11	42000.91
630.26	41813.67
630.41	41965.81
630.56	41528.13
630.71	41668.56
630.86	42010.28
631.01	41586.64
631.16	41998.57
631.31	41317.48
631.46	41221.52
631.61	41645.15
631.76	41432.16
631.91	41773.88
632.06	41663.88
632.21	41413.44
632.36	42092.19
632.51	41333.86
632.66	41546.85
632.81	41034.27
632.96	41326.84
633.10	41209.81
633.25	40999.16
633.40	41478.97
633.55	41549.19
633.70	41371.31
633.85	41015.55
634.00	41350.24
634.15	41172.36
634.30	40961.72
634.45	41174.70
634.60	41256.62
634.75	40739.36
634.90	41174.70
635.05	41097.47
635.19	41483.66
635.34	41163.00
635.49	41055.34
635.64	41137.26
635.79	40512.33
635.94	41219.17
636.09	40835.33
636.24	40645.74
636.39	40779.15
636.53	40477.22
636.68	40343.81
636.83	40348.50
636.98	40512.33
637.13	40360.20
637.28	40477.22
637.43	40594.25
637.57	41097.47
637.72	40781.49
637.87	40622.34
638.02	40818.94
638.17	40561.48
638.32	40250.19
638.46	40463.18
638.61	39988.05
638.76	40257.21
638.91	40409.35
639.06	40458.50
639.20	40676.17
639.35	40357.86
639.50	40311.05
639.65	40594.25
639.80	40388.28
639.94	40488.93
640.09	39866.34
640.24	40013.80
640.39	39667.40
640.54	39826.56
640.68	40027.84
640.83	39985.71
640.98	39971.67
641.13	39718.89
641.27	40236.15
641.42	39489.52
641.57	40147.21
641.72	39983.37
641.86	39594.84
642.01	39358.45
642.16	39559.73
642.31	39442.71
642.45	39501.22
642.60	39290.57
642.75	39182.91
642.90	39597.18
643.04	39871.03
643.19	39405.26
643.34	40175.30
643.48	39571.44
643.63	39461.43
643.78	38941.83
643.93	39438.03
644.07	38993.32
644.22	39068.22
644.37	39220.36
644.51	39077.58
644.66	39075.24
644.81	39454.41
644.95	39564.42
645.10	38988.64
645.25	39498.88
645.39	39309.30
645.54	39906.13
645.69	39103.33
645.83	38890.34
645.98	38698.42
646.13	39072.90
646.27	39304.62
646.42	39103.33
646.57	39009.71
646.71	39438.03
646.86	39180.57
647.00	39115.03
647.15	39185.25
647.30	39545.69
647.44	39091.63
647.59	38845.87
647.74	38955.88
647.88	38705.44
648.03	39082.27
648.17	38904.38
648.32	38562.67
648.47	38682.03
648.61	38373.08
648.76	38520.54
648.90	38946.51
649.05	38756.93
649.20	38988.64
649.34	38806.08
649.49	38302.87
649.63	38337.98
649.78	38775.66
649.92	38555.64
650.07	38419.89
650.21	38305.21
650.36	38494.79
650.51	38246.69
650.65	38583.73
650.80	38820.13
650.94	38625.86
651.09	38976.94
651.23	38354.36
651.38	38431.60
651.52	38153.07
651.67	38164.78
651.81	38251.38
651.96	37654.54
652.10	37904.98
652.25	38127.33
652.39	37928.38
652.54	38073.49
652.68	37949.45
652.83	38272.44
652.97	38024.34
653.12	37876.89
653.26	37539.85
653.41	38209.25
653.55	37439.21
653.70	37816.04
653.84	37867.53
653.99	37727.10
654.13	38085.20
654.27	37832.42
654.42	38218.61
654.56	37860.51
654.71	38031.36
654.85	37525.81
655.00	37670.92
655.14	37287.07
655.29	37141.96
655.43	37078.77
655.57	37429.85
655.72	37289.42
655.86	37450.91
656.01	37397.08
656.15	37378.36
656.30	37071.75
656.44	37156.00
656.58	37144.30
656.73	37141.96
656.87	37095.15
657.01	37031.96
657.16	36762.79
657.30	36659.81
657.45	37247.29
657.59	36767.48
657.73	36964.08
657.88	36924.29
658.02	36624.70
658.16	36875.14
658.31	36893.86
658.45	37102.17
658.60	37273.03
658.74	36900.89
658.88	36790.88
659.03	36634.06
659.17	36428.10
659.31	36397.67
659.46	36156.60
659.60	36390.65
659.74	36411.71
659.89	36332.14
660.03	36465.55
660.17	36425.76
660.32	36385.97
660.46	36928.97
660.60	36481.93
660.74	36854.08
660.89	36605.98
661.03	36044.25
661.17	36147.23
661.32	35407.62
661.46	35648.70
661.60	35889.77
661.74	35943.61
661.89	35981.06
662.03	35969.35
662.17	35779.77
662.31	35360.81
662.46	36004.46
662.60	36290.01
662.74	35646.36
662.88	35709.55
663.03	34850.58
663.17	35604.23
663.31	35204.00
663.45	35215.70
663.60	35133.78
663.74	35199.32
663.88	34976.97
664.02	35023.78
664.17	35407.62
664.31	35225.06
664.45	35033.14
664.59	35009.73
664.73	34675.04
664.88	35117.40
665.02	34850.58
665.16	34710.14
665.30	34937.18
665.44	34642.27
665.59	34218.63
665.73	34246.72
665.87	34321.62
666.01	34108.63
666.15	34319.28
666.29	34232.68
666.44	34630.57
666.58	33991.60
666.72	34164.80
666.86	34143.74
667.00	34464.39
667.14	34249.06
667.28	33972.88
667.43	33684.99
667.57	34136.71
667.71	34326.30
667.85	33741.16
667.99	33661.58
668.13	33764.57
668.27	33769.25
668.41	33921.38
668.56	33254.33
668.70	33778.61
668.84	33181.77
668.98	33462.64
669.12	33134.96
669.26	33397.10
669.40	33247.31
669.54	32891.55
669.68	33369.02
669.82	33214.54
669.96	32865.80
670.10	32552.17
670.25	33118.58
670.39	33275.40
670.53	32655.15
670.67	32959.42
670.81	33242.63
670.95	32872.82
671.09	32924.32
671.23	32538.13
671.37	32905.59
671.51	32240.88
671.65	32116.83
671.79	32215.13
671.93	32142.58
672.07	32650.47
672.21	32765.16
672.35	32140.24
672.49	32175.34
672.63	32091.09
672.77	31606.59
672.91	31772.77
673.05	31625.32
673.19	31899.16
673.33	31026.14
673.47	31686.17
673.61	31337.43
673.75	31351.48
673.89	31297.64
674.03	31117.42
674.17	31037.84
674.31	30583.78
674.45	31260.20
674.59	31243.81
674.73	31243.81
674.87	31201.68
675.01	31182.96
675.15	30932.52
675.29	31552.76
675.43	30668.04
675.56	30895.07
675.70	30932.52
675.84	30363.77
675.98	29624.16
676.12	30082.91
676.26	30199.93
676.40	30064.18
676.54	29816.08
676.68	29982.26
676.82	29654.59
676.96	29799.70
677.10	29570.33
677.23	29509.47
677.37	29708.42
677.51	29502.45
677.65	29069.45
677.79	28964.13
677.93	29153.71
678.07	28877.53
678.21	29095.20
678.34	28599.01
678.48	28671.56
678.62	28716.03
678.76	28622.41
678.90	28732.42
679.04	28271.33
679.18	28552.20
679.31	27882.80
679.45	27960.04
679.59	27625.34
679.73	27658.11
679.87	27931.95
680.00	27559.81
680.14	27826.63
680.28	27398.31
680.42	27489.59
680.56	27585.55
680.70	27243.84
680.83	27587.89
680.97	27049.57
681.11	27171.28
681.25	27136.17
681.39	26848.29
681.52	27335.12
681.66	27042.55
681.80	26644.66
681.94	26775.73
682.07	26934.88
682.21	26438.69
682.35	26309.96
682.49	26522.95
682.62	26410.60
682.76	26192.94
682.90	26071.23
683.04	25876.96
683.17	26293.58
683.31	26061.87
683.45	26038.46
683.59	26153.15
683.72	25635.89
683.86	25839.51
684.00	25177.14
684.13	25111.61
684.27	25495.46
684.41	25343.32
684.55	25191.19
684.68	25123.31
684.82	24950.11
684.96	25207.57
685.09	24947.77
685.23	24669.25
685.37	24388.38
685.50	24685.63
685.64	24180.07
685.78	24254.97
685.91	24500.73
686.05	24156.67
686.19	23880.49
686.32	23892.19
686.46	23702.61
686.60	23601.96
686.73	23751.76
686.87	23363.23
687.01	23648.77
687.14	23264.92
687.28	23136.20
687.42	23281.31
687.55	23089.38
687.69	23063.64
687.82	22918.53
687.96	22948.95
688.10	22862.35
688.23	22960.66
688.37	22581.49
688.50	22478.50
688.64	22221.05
688.78	22387.22
688.91	22508.93
689.05	22590.85
689.18	22092.32
689.32	22064.23
689.46	21816.13
689.59	22162.53
689.73	22169.55
689.86	21846.56
690.00	21914.44
690.13	21888.69
690.27	21689.74
690.41	21596.12
690.54	21553.99
690.68	21425.26
690.81	21137.38
690.95	21095.25
691.08	21046.10
691.22	20893.96
691.35	21106.95
691.49	21312.92
691.62	20849.49
691.76	20779.28
691.89	20678.63
692.03	20622.46
692.16	20255.00
692.30	20065.41
692.43	20238.61
692.57	19803.27
692.70	19847.74
692.84	19803.27
692.97	19711.99
693.11	19861.79
693.24	19700.29
693.38	19751.78
693.51	19510.71
693.65	20044.35
693.78	19917.96
693.92	19564.54
694.05	19440.49
694.19	19094.09
694.32	19253.25
694.45	19477.94
694.59	19096.43
694.72	18958.34
694.86	19077.71
694.99	19215.80
695.13	19040.26
695.26	18785.14
695.39	18473.85
695.53	18340.44
695.66	18363.84
695.80	18328.74
695.93	18375.55
696.07	18153.20
696.20	18113.41
696.33	18136.81
696.47	18008.08
696.60	18008.08
696.73	17891.06
696.87	17921.48
697.00	18045.53
697.14	17818.50
697.27	17736.58
697.40	17600.83
697.54	17755.30
697.67	17504.87
697.80	17334.01
697.94	17259.11
698.07	17401.88
698.21	16924.41
698.34	16950.16
698.47	16891.65
698.61	16725.47
698.74	16683.34
698.87	16798.02
699.01	16573.33
699.14	16290.13
699.27	16400.13
699.40	16442.26
699.54	16086.50
699.67	15843.09
699.80	16130.97
699.94	16142.67
700.07	16130.97
700.20	15812.66
700.34	15740.10
700.47	15681.59
700.60	16147.36
700.73	15674.57
700.87	15716.70
701.00	15606.69
701.13	15616.05
701.26	15470.94
701.40	15571.58
701.53	15510.73
701.66	15330.51
701.79	15124.54
701.93	15028.58
702.06	14906.87
702.19	15082.41
702.32	14998.15
702.46	14759.42
702.59	14614.30
702.72	14691.54
702.85	14878.79
702.99	14466.85
703.12	14626.01
703.25	14626.01
703.38	14513.66
703.51	14471.53
703.65	14370.89
703.78	14038.53
703.91	14113.43
704.04	13996.40
704.17	14005.77
704.31	13755.33
704.44	13942.57
704.57	13935.55
704.70	13727.24
704.83	13570.43
704.96	13521.27
705.10	14026.83
705.23	13799.80
>>>>>End Processed Spectral Data<<<<<
