SpectraSuite Data File
++++++++++++++++++++++++++++++++++++
Date: Fri Oct 25 11:33:35 EDT 2013
User: price-jones
Dark Spectrum Present: No
Reference Spectrum Present: No
Number of Sampled Component Spectra: 1
Spectrometers: USB2+H05261
Integration Time (usec): 100000 (USB2+H05261)
Spectra Averaged: 1 (USB2+H05261)
Boxcar Smoothing: 0 (USB2+H05261)
Correct for Electrical Dark: No (USB2+H05261)
Strobe/Lamp Enabled: No (USB2+H05261)
Correct for Detector Non-linearity: No (USB2+H05261)
Correct for Stray Light: No (USB2+H05261)
Number of Pixels in Processed Spectrum: 2048
>>>>>Begin Processed Spectral Data<<<<<
365.73	308.95
365.92	308.95
366.12	308.95
366.32	234.05
366.52	201.29
366.72	168.52
366.91	161.50
367.11	208.31
367.31	117.03
367.51	119.37
367.70	163.84
367.90	149.79
368.10	152.13
368.30	201.29
368.49	208.31
368.69	241.08
368.89	168.52
369.09	196.60
369.28	236.39
369.48	215.33
369.68	184.90
369.87	252.78
370.07	276.18
370.27	355.76
370.47	287.89
370.66	447.04
370.86	500.87
371.06	493.85
371.25	545.34
371.45	437.68
371.65	585.13
371.84	554.71
372.04	566.41
372.24	617.90
372.44	566.41
372.63	653.01
372.83	620.24
373.03	599.18
373.22	566.41
373.42	587.47
373.62	631.94
373.81	660.03
374.01	664.71
374.21	638.97
374.40	568.75
374.60	681.10
374.79	624.92
374.99	624.92
375.19	655.35
375.38	713.86
375.58	671.73
375.78	641.31
375.97	760.67
376.17	709.18
376.37	688.12
376.56	650.67
376.76	641.31
376.95	664.71
377.15	746.63
377.35	624.92
377.54	744.29
377.74	620.24
377.93	709.18
378.13	645.99
378.33	751.31
378.52	716.20
378.72	748.97
378.91	720.88
379.11	681.10
379.31	723.23
379.50	727.91
379.70	725.57
379.89	734.93
380.09	704.50
380.28	718.54
380.48	683.44
380.68	720.88
380.87	739.61
381.07	748.97
381.26	753.65
381.46	828.55
381.65	781.74
381.85	802.80
382.04	744.29
382.24	781.74
382.43	784.08
382.63	732.59
382.83	800.46
383.02	781.74
383.22	905.79
383.41	840.25
383.61	821.53
383.80	798.12
384.00	842.59
384.19	816.85
384.39	821.53
384.58	877.70
384.78	828.55
384.97	861.32
385.17	791.10
385.36	765.36
385.56	919.83
385.75	793.44
385.95	786.42
386.14	826.21
386.34	994.73
386.53	858.98
386.72	912.81
386.92	915.15
387.11	870.68
387.31	835.57
387.50	973.66
387.70	950.26
387.89	847.27
388.09	880.04
388.28	861.32
388.48	856.64
388.67	891.74
388.86	938.55
389.06	945.58
389.25	971.32
389.45	943.24
389.64	929.19
389.84	1006.43
390.03	994.73
390.22	1022.81
390.42	1034.52
390.61	973.66
390.81	952.60
391.00	1008.77
391.19	1015.79
391.39	1008.77
391.58	1022.81
391.78	1013.45
391.97	1062.60
392.16	940.90
392.36	1100.05
392.55	929.19
392.75	1107.07
392.94	1104.73
393.13	1050.90
393.33	1015.79
393.52	1006.43
393.71	1060.26
393.91	1071.97
394.10	1067.28
394.29	1116.44
394.49	1097.71
394.68	1137.50
394.88	1111.75
395.07	1186.65
395.26	1196.01
395.46	1074.31
395.65	1142.18
395.84	1233.46
396.04	1217.08
396.23	1102.39
396.42	1233.46
396.62	1263.89
396.81	1181.97
397.00	1299.00
397.19	1179.63
397.39	1240.48
397.58	1238.14
397.77	1163.25
397.97	1322.40
398.16	1259.21
398.35	1238.14
398.55	1214.74
398.74	1254.53
398.93	1371.55
399.12	1249.85
399.32	1329.42
399.51	1324.74
399.70	1345.81
399.90	1352.83
400.09	1355.17
400.28	1418.36
400.47	1378.58
400.67	1441.77
400.86	1444.11
401.05	1348.15
401.24	1437.09
401.44	1455.81
401.63	1540.07
401.82	1460.49
402.01	1406.66
402.21	1439.43
402.40	1495.60
402.59	1497.94
402.78	1575.18
402.97	1467.52
403.17	1432.41
403.36	1481.56
403.55	1533.05
403.74	1570.50
403.93	1640.72
404.13	1717.95
404.32	1664.12
404.51	1647.74
404.70	1554.12
404.89	1699.23
405.09	1633.69
405.28	1629.01
405.47	1687.53
405.66	1689.87
405.85	1732.00
406.05	1694.55
406.24	1717.95
406.43	1788.17
406.62	1783.49
406.81	1905.20
407.00	1687.53
407.20	1799.87
407.39	1781.15
407.58	1827.96
407.77	1877.11
407.96	1888.81
408.15	1856.04
408.34	1909.88
408.54	1867.75
408.73	1940.30
408.92	1816.26
409.11	1975.41
409.30	2047.97
409.49	1930.94
409.68	2022.22
409.87	1991.80
410.07	2143.93
410.26	2080.74
410.45	1966.05
410.64	2076.06
410.83	2153.29
411.02	2066.69
411.21	2172.02
411.40	2129.89
411.59	2207.13
411.78	2160.31
411.98	2289.04
412.17	2204.78
412.36	2237.55
412.55	2258.62
412.74	2363.94
412.93	2387.35
413.12	2375.64
413.31	2375.64
413.50	2511.39
413.69	2417.77
413.88	2471.61
414.07	2490.33
414.26	2462.24
414.45	2595.65
414.64	2506.71
414.83	2574.59
415.02	2576.93
415.22	2572.25
415.41	2567.57
415.60	2588.63
415.79	2558.21
415.98	2747.79
416.17	2810.98
416.36	2733.75
416.55	2780.56
416.74	2874.18
416.93	2747.79
417.12	2874.18
417.31	2799.28
417.50	2918.65
417.69	2960.78
417.88	2953.76
418.07	2946.73
418.26	2986.52
418.45	3042.70
418.64	3087.17
418.83	3176.11
419.02	3049.72
419.21	3061.42
419.39	3059.08
419.58	3066.10
419.77	3122.27
419.96	3026.31
420.15	3243.98
420.34	3204.19
420.53	3169.09
420.72	3213.56
420.91	3279.09
421.10	3260.37
421.29	3323.56
421.48	3176.11
421.67	3300.16
421.86	3279.09
422.05	3344.63
422.24	3281.43
422.43	3197.17
422.61	3361.01
422.80	3323.56
422.99	3421.86
423.18	3344.63
423.37	3328.24
423.56	3344.63
423.75	3419.52
423.94	3295.47
424.13	3176.11
424.32	3220.58
424.50	3557.61
424.69	3646.55
424.88	3426.54
425.07	3377.39
425.26	3435.91
425.45	3356.33
425.64	3438.25
425.83	3393.78
426.01	3461.65
426.20	3494.42
426.39	3574.00
426.58	3571.66
426.77	3468.67
426.96	3485.06
427.15	3602.08
427.33	3630.17
427.52	3588.04
427.71	3555.27
427.90	3618.47
428.09	3698.05
428.28	3686.34
428.46	3726.13
428.65	3702.73
428.84	3688.68
429.03	3824.44
429.22	3574.00
429.40	3749.54
429.59	3695.71
429.78	3658.26
429.97	3669.96
430.16	3740.18
430.34	3765.92
430.53	3852.52
430.72	4007.00
430.91	3836.14
431.10	3854.86
431.28	3941.46
431.47	3922.74
431.66	3922.74
431.85	4065.51
432.03	4100.62
432.22	4025.72
432.41	4051.47
432.60	4004.66
432.79	4145.09
432.97	4189.56
433.16	4060.83
433.35	4112.32
433.54	4250.41
433.72	4208.28
433.91	4168.49
434.10	4236.37
434.28	4138.07
434.47	4166.15
434.66	4297.22
434.85	4180.20
435.03	4425.95
435.22	4451.70
435.41	4437.66
435.59	4362.76
435.78	4442.34
435.97	4498.51
436.16	4519.57
436.34	4365.10
436.53	4358.08
436.72	4440.00
436.90	4374.46
437.09	4627.24
437.28	4465.74
437.46	4416.59
437.65	4442.34
437.84	4631.92
438.02	4540.64
438.21	4535.96
438.40	4552.34
438.58	4650.64
438.77	4645.96
438.96	4800.44
439.14	4821.50
439.33	4861.29
439.52	4840.23
439.70	4924.49
439.89	5123.43
440.08	4929.17
440.26	5100.03
440.45	5041.51
440.63	4961.94
440.82	5263.86
441.01	5116.41
441.19	5296.63
441.38	5116.41
441.57	5268.55
441.75	5399.62
441.94	5413.66
442.12	5432.38
442.31	5533.03
442.50	5359.83
442.68	5317.70
442.87	5444.09
443.05	5605.58
443.24	5600.90
443.43	5455.79
443.61	5444.09
443.80	5645.37
443.98	5692.18
444.17	5303.65
444.35	5551.75
444.54	5701.54
444.73	5673.46
444.91	5696.86
445.10	5645.37
445.28	5579.84
445.47	5533.03
445.65	5504.94
445.84	5795.17
446.02	5696.86
446.21	5664.10
446.39	5514.30
446.58	5746.02
446.77	5738.99
446.95	5621.97
447.14	5628.99
447.32	5851.34
447.51	5825.59
447.69	5813.89
447.88	5734.31
448.06	5650.05
448.25	5900.49
448.43	5734.31
448.62	5905.17
448.80	5689.84
448.99	5959.00
449.17	5942.62
449.36	5921.56
449.54	5944.96
449.73	6073.69
449.91	5984.75
450.10	6071.35
450.28	6106.46
450.46	6038.58
450.65	6033.90
450.83	6033.90
451.02	6120.50
451.20	6113.48
451.39	6108.80
451.57	6225.82
451.76	6200.08
451.94	6244.55
452.13	6384.98
452.31	6300.72
452.49	6204.76
452.68	6335.83
452.86	6317.11
453.05	6565.20
453.23	6361.58
453.42	6307.74
453.60	6331.15
453.78	6487.96
453.97	6476.26
454.15	6293.70
454.34	6427.11
454.52	6729.04
454.70	6590.95
454.89	6530.09
455.07	6555.84
455.26	6635.42
455.44	6857.77
455.62	6607.33
455.81	6544.14
455.99	6867.13
456.17	6792.23
456.36	6766.49
456.54	6820.32
456.73	7033.31
456.91	7040.33
457.09	7007.56
457.28	7166.72
457.46	7098.84
457.64	7000.54
457.83	7002.88
458.01	7047.35
458.19	7288.43
458.38	7112.89
458.56	7173.74
458.74	7131.61
458.93	7068.42
459.11	7208.85
459.29	7199.49
459.48	7236.94
459.66	7288.43
459.84	7412.48
460.03	7316.51
460.21	7391.41
460.39	7375.03
460.57	7410.14
460.76	7335.24
460.94	7330.56
461.12	7478.01
461.31	7576.31
461.49	7545.89
461.67	7470.99
461.85	7625.47
462.04	7630.15
462.22	7967.18
462.40	7852.50
462.59	7655.89
462.77	7606.74
462.95	7791.64
463.13	7691.00
463.32	7896.97
463.50	8088.89
463.68	7920.37
463.86	8098.25
464.05	7920.37
464.23	7761.22
464.41	7967.18
464.59	7709.72
464.78	8203.58
464.96	8044.42
465.14	8021.02
465.32	7985.91
465.50	8152.09
465.69	8102.93
465.87	8208.26
466.05	8226.98
466.23	8250.39
466.41	8074.85
466.60	8320.60
466.78	7896.97
466.96	8219.96
467.14	8299.54
467.32	8166.13
467.51	8549.98
467.69	8325.29
467.87	8266.77
468.05	8446.99
468.23	8500.83
468.41	8308.90
468.60	8475.08
468.78	8580.40
468.96	8341.67
469.14	8400.18
469.32	8692.75
469.50	8613.17
469.69	8634.24
469.87	8699.77
470.05	8753.60
470.23	8833.18
470.41	8769.99
470.59	8821.48
470.77	8641.26
470.95	8800.41
471.14	9205.33
471.32	8901.06
471.50	9071.92
471.68	9151.49
471.86	9025.11
472.04	9174.90
472.22	9547.05
472.40	9064.89
472.58	9153.84
472.77	9149.15
472.95	9540.02
473.13	9645.35
473.31	9458.10
473.49	9572.79
473.67	9322.35
473.85	9406.61
474.03	9643.01
474.21	9706.20
474.39	9851.31
474.57	9760.03
474.75	9689.82
474.93	9750.67
475.12	9848.97
475.30	10017.49
475.48	10104.09
475.66	10178.99
475.84	10008.13
476.02	10345.17
476.20	10094.73
476.38	10506.66
476.56	10593.26
476.74	10420.06
476.92	10595.61
477.10	10487.94
477.28	10345.17
477.46	10583.90
477.64	10743.06
477.82	10810.93
478.00	11389.05
478.18	11042.65
478.36	11000.52
478.54	11293.08
478.72	11412.45
478.90	11477.99
479.08	11339.90
479.26	11847.79
479.44	11784.60
479.62	11765.87
479.80	11836.09
479.98	12098.23
480.16	12016.31
480.34	12046.74
480.52	12210.57
480.70	12133.34
480.88	11997.59
481.06	11995.25
481.24	12393.14
481.41	12432.93
481.59	12830.82
481.77	12929.12
481.95	12898.69
482.13	12833.16
482.31	12882.31
482.49	13380.84
482.67	13219.35
482.85	13504.89
483.03	13650.00
483.21	13734.26
483.39	13867.67
483.57	13816.18
483.74	13994.06
483.92	14295.99
484.10	14150.88
484.28	14029.17
484.46	14647.07
484.64	14846.02
484.82	14380.25
485.00	14864.74
485.18	15040.28
485.35	15126.88
485.53	15115.18
485.71	14974.75
485.89	15412.43
486.07	15239.23
486.25	15014.54
486.43	15569.24
486.61	15604.35
486.78	15793.94
486.96	15875.85
487.14	16215.23
487.32	16205.87
487.50	16051.39
487.68	16723.13
487.85	16479.71
488.03	16599.08
488.21	17268.47
488.39	17130.38
488.57	17177.19
488.75	16936.12
488.92	17406.56
489.10	17577.42
489.28	17465.08
489.46	17685.09
489.64	17694.45
489.81	18305.33
489.99	18305.33
490.17	18178.94
490.35	18197.67
490.53	18490.23
490.70	18881.10
490.88	18494.91
491.06	18916.21
491.24	18855.36
491.41	18829.61
491.59	19185.37
491.77	19143.24
491.95	19555.18
492.13	19316.44
492.30	19566.88
492.48	19679.22
492.66	19667.52
492.84	20006.90
493.01	20355.64
493.19	20023.28
493.37	20418.83
493.54	20100.52
493.72	20755.87
493.90	20620.12
494.08	20779.28
494.25	21102.27
494.43	20833.11
494.61	20992.26
494.79	21198.23
494.96	21156.10
495.14	21303.56
495.32	21713.15
495.49	21666.34
495.67	21666.34
495.85	22136.79
496.02	22214.02
496.20	22211.68
496.38	22223.39
496.55	22600.21
496.73	23166.62
496.91	22452.76
497.09	22927.89
497.26	22848.31
497.44	22661.07
497.62	23030.87
497.79	23592.60
497.97	23337.48
498.14	23557.49
498.32	23571.54
498.50	23700.26
498.67	23988.15
498.85	23936.66
499.03	24018.58
499.20	23857.08
499.38	24032.62
499.56	24123.90
499.73	24215.18
499.91	24744.14
500.08	24606.05
500.26	24486.68
500.44	24552.22
500.61	24718.40
500.79	24727.76
500.97	25338.64
501.14	25439.28
501.32	25640.57
501.49	25017.99
501.67	25479.07
501.84	25413.54
502.02	25600.78
502.20	25605.46
502.37	25750.57
502.55	25876.96
502.72	26157.83
502.90	25706.10
503.07	26192.94
503.25	25921.43
503.43	26394.22
503.60	26513.59
503.78	26899.78
503.95	26511.25
504.13	26572.10
504.30	26513.59
504.48	26356.77
504.65	26775.73
504.83	26974.67
505.01	27316.39
505.18	26977.01
505.36	27402.99
505.53	27367.88
505.71	27248.52
505.88	27346.82
506.06	27583.21
506.23	27950.68
506.41	27372.57
506.58	27765.78
506.76	27737.69
506.93	28187.07
507.11	28025.57
507.28	27887.48
507.46	28360.27
507.63	28325.16
507.81	28086.43
507.98	28425.81
508.16	28596.67
508.33	28573.26
508.50	28802.63
508.68	28898.59
508.85	28882.21
509.03	28978.17
509.20	29275.42
509.38	29230.95
509.55	29156.05
509.73	29240.31
509.90	29216.91
510.08	29544.58
510.25	29333.93
510.42	29663.95
510.60	29614.80
510.77	29607.78
510.95	29827.79
511.12	29670.97
511.30	29893.32
511.47	30068.86
511.64	29982.26
511.82	30567.40
511.99	30075.88
512.17	30377.81
512.34	30188.23
512.51	31000.40
512.69	30848.26
512.86	30874.01
513.04	31197.00
513.21	31089.34
513.38	31189.98
513.56	30637.61
513.73	31143.17
513.90	31112.74
514.08	31353.82
514.25	31381.90
514.43	31557.44
514.60	31765.75
514.77	31564.46
514.95	31592.55
515.12	31676.81
515.29	31693.19
515.47	31934.27
515.64	31924.91
515.81	31990.44
515.99	32388.33
516.16	32233.86
516.33	32077.04
516.51	32301.73
516.68	32409.40
516.85	32552.17
517.03	33008.58
517.20	32931.34
517.37	32589.62
517.54	32643.45
517.72	32985.17
517.89	32744.09
518.06	33200.50
518.24	33130.28
518.41	32968.79
518.58	32814.31
518.75	32823.67
518.93	33251.99
519.10	33408.81
519.27	33385.40
519.45	33626.48
519.62	33329.23
519.79	33841.81
519.96	33937.77
520.14	33961.17
520.31	33841.81
520.48	34164.80
520.65	33748.18
520.83	34567.37
521.00	34239.70
521.17	34497.16
521.34	34249.06
521.52	34712.49
521.69	34904.41
521.86	34806.11
522.03	34944.20
522.20	34534.60
522.38	34899.73
522.55	35131.44
522.72	34852.92
522.89	34873.98
523.07	35454.44
523.24	35487.20
523.41	35346.77
523.58	34941.86
523.75	35491.88
523.92	35419.33
524.10	35833.60
524.27	35466.14
524.44	35690.83
524.61	35723.60
524.78	35627.63
524.96	36189.36
525.13	36299.37
525.30	36210.43
525.47	36416.40
525.64	35758.70
525.81	36463.21
525.98	36573.21
526.16	36374.27
526.33	36292.35
526.50	36495.97
526.67	36488.95
526.84	36690.24
527.01	36861.10
527.18	36781.52
527.36	36910.25
527.53	37116.22
527.70	37050.68
527.87	36877.48
528.04	36781.52
528.21	36996.85
528.38	36795.56
528.55	37261.33
528.72	37493.04
528.89	37352.61
529.07	37125.58
529.24	37387.72
529.41	37710.71
529.58	37495.38
529.75	37656.88
529.92	37148.98
530.09	37766.88
530.26	37116.22
530.43	37542.19
530.60	37553.90
530.77	37624.11
530.94	38209.25
531.11	37701.35
531.28	37752.84
531.46	38464.36
531.63	38059.45
531.80	38054.77
531.97	38162.43
532.14	38443.30
532.31	38335.63
532.48	38546.28
532.65	38782.68
532.82	38330.95
532.99	38387.13
533.16	38293.50
533.33	38649.27
533.50	38780.34
533.67	38660.97
533.84	38394.15
534.01	38808.42
534.18	38462.02
534.35	39040.14
534.52	38787.36
534.69	39091.63
534.86	39578.46
535.03	38986.30
535.20	39274.19
535.37	39297.59
535.54	39339.72
535.71	39431.01
535.88	39646.33
536.05	39789.11
536.22	39629.95
536.38	39627.61
536.55	39737.62
536.72	39824.22
536.89	39587.82
537.06	39887.41
537.23	40130.83
537.40	39786.77
537.57	39725.91
537.74	39620.59
537.91	40306.37
538.08	40112.10
538.25	40376.58
538.42	40151.89
538.59	40189.34
538.75	40102.74
538.92	40645.74
539.09	40608.29
539.26	40465.52
539.43	40683.19
539.60	40669.15
539.77	40493.61
539.94	40603.61
540.11	40715.96
540.28	40683.19
540.44	40711.28
540.61	40552.12
540.78	40912.56
540.95	40858.73
541.12	40730.00
541.29	40985.12
541.46	40961.72
541.62	41308.11
541.79	41338.54
541.96	41067.04
542.13	41003.85
542.30	41090.44
542.47	40982.78
542.63	41509.40
542.80	41158.32
542.97	41645.15
543.14	41406.42
543.31	41596.00
543.48	41626.43
543.64	42321.57
543.81	42328.59
543.98	41865.16
544.15	41888.57
544.32	42281.78
544.48	42541.58
544.65	42305.18
544.82	42141.35
544.99	42174.11
545.16	42560.30
545.32	42178.79
545.49	42464.34
545.66	42855.21
545.83	42527.53
546.00	42698.39
546.16	42799.04
546.33	42347.31
546.50	42305.18
546.67	42660.94
546.83	42031.34
547.00	42567.32
547.17	42637.54
547.34	42639.88
547.50	42735.84
547.67	42822.44
547.84	42925.42
548.00	43100.97
548.17	43501.20
548.34	42997.98
548.51	43335.02
548.67	43332.68
548.84	43147.78
549.01	42965.21
549.18	43014.37
549.34	43594.82
549.51	43356.08
549.68	43662.69
549.84	43339.70
550.01	43477.79
550.18	43309.27
550.34	43878.02
550.51	43480.13
550.68	43723.55
550.84	43428.64
551.01	43730.57
551.18	43157.14
551.34	43700.14
551.51	44072.29
551.68	43735.25
551.84	44081.65
552.01	43503.54
552.18	43894.41
552.34	43723.55
552.51	43882.70
552.68	43861.64
552.84	44399.96
553.01	44385.92
553.18	44161.23
553.34	43976.33
553.51	43924.83
553.67	44481.88
553.84	44100.37
554.01	44353.15
554.17	44238.47
554.34	44465.50
554.51	44533.37
554.67	45240.21
554.84	44449.11
555.00	44261.87
555.17	44608.27
555.33	44718.28
555.50	44596.57
555.67	44788.49
555.83	44854.03
556.00	44694.87
556.16	45134.89
556.33	45027.23
556.50	44767.43
556.66	44477.20
556.83	44727.64
556.99	45251.92
557.16	45450.86
557.32	44949.99
557.49	45228.51
557.65	45008.50
557.82	45146.59
557.98	44839.98
558.15	45375.97
558.32	45158.30
558.48	45221.49
558.65	45041.27
558.81	45097.44
558.98	45057.65
559.14	44982.76
559.31	44947.65
559.47	45387.67
559.64	45429.80
559.80	45043.61
559.97	45429.80
560.13	45511.72
560.30	45116.17
560.46	45425.12
560.63	45652.15
560.79	45815.99
560.96	45455.54
561.12	45705.98
561.29	46000.89
561.45	45872.16
561.61	45923.65
561.78	45773.86
561.94	45780.88
562.11	45771.52
562.27	45954.08
562.44	46003.23
562.60	46075.79
562.77	45815.99
562.93	45535.12
563.10	46019.61
563.26	45626.40
563.42	46731.14
563.59	46117.92
563.75	46000.89
563.92	45851.09
564.08	45750.45
564.24	45834.71
564.41	46003.23
564.57	45839.39
564.74	45722.37
564.90	45818.33
565.07	46043.02
565.23	45542.14
565.39	45806.62
565.56	46471.34
565.72	46256.01
565.88	46520.49
566.05	46272.39
566.21	46305.16
566.38	46155.36
566.54	46363.67
566.70	46403.46
566.87	46316.86
567.03	45806.62
567.19	46614.11
567.36	46284.09
567.52	46405.80
567.68	46646.88
567.85	46326.22
568.01	46546.23
568.17	46232.60
568.34	46651.56
568.50	46525.17
568.66	46473.68
568.83	46480.70
568.99	46478.36
569.15	46469.00
569.32	46277.07
569.48	46639.86
569.64	46777.95
569.81	46595.38
569.97	46405.80
570.13	46766.24
570.30	46625.81
570.46	46473.68
570.62	46824.76
570.78	46843.48
570.95	47009.66
571.11	46735.82
571.27	46707.73
571.43	46787.31
571.60	46541.55
571.76	47103.28
571.92	46543.89
572.09	46824.76
572.25	46438.57
572.41	46480.70
572.57	46515.81
572.74	47023.70
572.90	47023.70
573.06	46983.91
573.22	47110.30
573.38	46958.17
573.55	47047.11
573.71	47220.31
573.87	47054.13
574.03	47082.22
574.20	46997.96
574.36	47136.05
574.52	46848.16
574.68	46791.99
574.84	46927.74
575.01	47189.88
575.17	47044.77
575.33	47217.97
575.49	46396.44
575.65	46976.89
575.82	47161.79
575.98	46890.29
576.14	47194.56
576.30	47042.43
576.46	47173.50
576.62	46934.76
576.79	47299.89
576.95	46862.21
577.11	46681.98
577.27	47028.38
577.43	46904.34
577.59	46897.31
577.75	46988.60
577.92	46953.49
578.08	46934.76
578.24	46677.30
578.40	47182.86
578.56	47152.43
578.72	47213.29
578.88	47505.85
579.04	47070.51
579.21	47323.29
579.37	47606.50
579.53	47505.85
579.69	46770.93
579.85	46927.74
580.01	47065.83
580.17	47107.96
580.33	47030.72
580.49	46892.63
580.65	47229.67
580.82	47173.50
580.98	47496.49
581.14	46681.98
581.30	47114.98
581.46	46972.21
581.62	47260.10
581.78	47143.07
581.94	47182.86
582.10	47152.43
582.26	47250.74
582.42	47100.94
582.58	47660.33
582.74	47217.97
582.90	47327.97
583.06	47409.89
583.22	47124.35
583.38	47337.33
583.54	47489.47
583.70	47576.07
583.86	47260.10
584.02	47442.66
584.18	47753.95
584.34	47063.49
584.50	47543.30
584.66	47187.54
584.82	47379.46
584.98	47924.81
585.14	47372.44
585.30	47323.29
585.46	47636.92
585.62	47220.31
585.78	47697.78
585.94	47114.98
586.10	47285.84
586.26	47356.06
586.42	47210.95
586.58	47419.25
586.74	47655.65
586.90	47229.67
587.06	47033.07
587.22	47297.55
587.38	47255.42
587.54	47899.06
587.70	47672.03
587.86	47569.05
588.02	47220.31
588.18	47199.24
588.34	47400.53
588.49	47519.90
588.65	47267.12
588.81	47484.79
588.97	47365.42
589.13	47737.57
589.29	47779.70
589.45	47805.44
589.61	47786.72
589.77	47725.86
589.93	47777.36
590.08	47882.68
590.24	47496.49
590.40	48161.20
590.56	48315.68
590.72	47971.62
590.88	47636.92
591.04	47519.90
591.20	47948.21
591.35	47847.57
591.51	47995.03
591.67	48116.73
591.83	48231.42
591.99	47831.19
592.15	47831.19
592.31	47608.84
592.46	47283.50
592.62	48009.07
592.78	48210.35
592.94	48446.75
593.10	47849.91
593.26	48044.18
593.41	48006.73
593.57	48163.54
593.73	48261.85
593.89	48250.14
594.05	48390.58
594.20	48002.05
594.36	48505.26
594.52	48210.35
594.68	48186.95
594.84	48439.73
594.99	48285.25
595.15	47999.71
595.31	48369.51
595.47	47859.27
595.62	48570.80
595.78	48137.80
595.94	48245.46
596.10	48170.57
596.25	48210.35
596.41	48350.79
596.57	48074.60
596.73	48137.80
596.88	48385.89
597.04	48126.10
597.20	48413.98
597.36	48200.99
597.51	48208.01
597.67	47985.66
597.83	48098.01
597.99	48308.66
598.14	47852.25
598.30	48212.70
598.46	48362.49
598.61	48622.29
598.77	48095.67
598.93	48329.72
599.09	48119.07
599.24	48652.72
599.40	48193.97
599.56	48446.75
599.71	48406.96
599.87	48449.09
600.03	48467.81
600.18	48376.53
600.34	48636.33
600.50	48107.37
600.65	48268.87
600.81	48322.70
600.97	48624.63
601.12	48224.40
601.28	48208.01
601.44	48559.09
601.59	48252.48
601.75	47971.62
601.91	48383.55
602.06	48488.88
602.22	48350.79
602.37	48212.70
602.53	48149.50
602.69	48498.24
602.84	48051.20
603.00	48645.69
603.16	47896.72
603.31	48650.38
603.47	48285.25
603.62	47966.94
603.78	48531.01
603.94	48526.33
604.09	48205.67
604.25	48343.77
604.40	48336.74
604.56	48949.96
604.71	48423.34
604.87	48561.44
605.03	47995.03
605.18	48205.67
605.34	48051.20
605.49	47995.03
605.65	48254.82
605.80	48191.63
605.96	48151.84
606.12	48292.27
606.27	47971.62
606.43	48184.61
606.58	48545.05
606.74	47927.15
606.89	48093.33
607.05	48619.95
607.20	48275.89
607.36	48385.89
607.51	48753.36
607.67	48208.01
607.82	47882.68
607.98	48208.01
608.13	48217.38
608.29	47964.60
608.44	48439.73
608.60	48121.41
608.75	47920.13
608.91	48121.41
609.06	47852.25
609.22	48254.82
609.37	47831.19
609.53	48102.69
609.68	48250.14
609.84	47995.03
609.99	48062.90
610.15	48334.40
610.30	48069.92
610.46	47849.91
610.61	47798.42
610.76	47924.81
610.92	47854.59
611.07	47870.98
611.23	47686.07
611.38	48011.41
611.54	48147.16
611.69	48158.86
611.84	48212.70
612.00	47700.12
612.15	47555.00
612.31	47892.04
612.46	47201.58
612.62	47735.23
612.77	47894.38
612.92	48119.07
613.08	47564.37
613.23	47814.80
613.39	47650.97
613.54	47601.82
613.69	48105.03
613.85	47730.54
614.00	47620.54
614.15	47929.49
614.31	47639.26
614.46	47236.69
614.62	47302.23
614.77	47386.49
614.92	47562.03
615.08	47655.65
615.23	47997.37
615.38	48208.01
615.54	47484.79
615.69	47629.90
615.84	47391.17
616.00	47767.99
616.15	47636.92
616.30	47620.54
616.46	47494.15
616.61	47437.98
616.76	47849.91
616.92	47019.02
617.07	47327.97
617.22	47337.33
617.37	46878.59
617.53	47339.68
617.68	47072.85
617.83	47501.17
617.99	47770.33
618.14	47714.16
618.29	46960.51
618.45	47379.46
618.60	47016.68
618.75	46923.06
618.90	47145.41
619.06	46775.61
619.21	47150.09
619.36	47562.03
619.51	46747.52
619.67	46855.18
619.82	47103.28
619.97	47189.88
620.12	47093.92
620.28	47171.16
620.43	47187.54
620.58	47267.12
620.73	47107.96
620.89	47168.82
621.04	46993.28
621.19	46923.06
621.34	46995.62
621.49	46784.97
621.65	46930.08
621.80	47107.96
621.95	47063.49
622.10	47044.77
622.25	46564.96
622.41	47044.77
622.56	46469.00
622.71	46543.89
622.86	46504.10
623.01	46466.66
623.16	46761.56
623.32	46321.54
623.47	46902.00
623.62	47019.02
623.77	46490.06
623.92	46869.23
624.07	46967.53
624.23	46747.52
624.38	46698.37
624.53	46050.04
624.68	46209.20
624.83	46024.29
624.98	46504.10
625.13	46309.84
625.29	46113.23
625.44	46461.97
625.59	46195.15
625.74	46199.83
625.89	46141.32
626.04	45897.91
626.19	45783.22
626.34	46138.98
626.49	45481.29
626.65	45759.81
626.80	46227.92
626.95	45844.07
627.10	46050.04
627.25	46277.07
627.40	46206.86
627.55	45991.53
627.70	45797.26
627.85	46234.94
628.00	46218.56
628.15	45907.27
628.30	45242.56
628.45	45490.65
628.60	45385.33
628.76	45525.76
628.91	45511.72
629.06	45439.16
629.21	45750.45
629.36	45773.86
629.51	45638.11
629.66	45549.17
629.81	45752.79
629.96	45687.26
630.11	44954.67
630.26	45310.43
630.41	45656.83
630.56	45373.63
630.71	45687.26
630.86	45490.65
631.01	45155.96
631.16	45181.70
631.31	45312.77
631.46	44938.29
631.61	45453.20
631.76	45581.93
631.91	45556.19
632.06	45485.97
632.21	45612.36
632.36	45275.32
632.51	44992.12
632.66	44933.60
632.81	45516.40
632.96	45336.18
633.10	45118.51
633.25	45186.38
633.40	45088.08
633.55	45198.09
633.70	44912.54
633.85	44865.73
634.00	45020.20
634.15	44797.85
634.30	44512.31
634.45	44968.71
634.60	44809.56
634.75	44617.63
634.90	44547.42
635.05	45120.85
635.19	44790.83
635.34	44526.35
635.49	44872.75
635.64	44732.32
635.79	44694.87
635.94	44435.07
636.09	44762.75
636.24	44570.82
636.39	44615.29
636.53	44861.05
636.68	44732.32
636.83	44037.18
636.98	44575.50
637.13	43985.69
637.28	44362.51
637.43	43833.55
637.57	44205.70
637.72	43988.03
637.87	44402.30
638.02	44360.17
638.17	44247.83
638.32	44018.46
638.46	44151.87
638.61	43952.92
638.76	44034.84
638.91	44161.23
639.06	43683.76
639.20	44238.47
639.35	43515.24
639.50	43463.75
639.65	44114.42
639.80	44252.51
639.94	44023.14
640.09	44142.50
640.24	43796.10
640.39	43723.55
640.54	43784.40
640.68	44100.37
640.83	44130.80
640.98	43459.07
641.13	43819.51
641.27	43636.95
641.42	43335.02
641.57	43782.06
641.72	43679.08
641.86	43622.90
642.01	43405.23
642.16	43201.61
642.31	43189.91
642.45	43746.95
642.60	43704.82
642.75	43107.99
642.90	43449.70
643.04	43662.69
643.19	43260.12
643.34	43229.69
643.48	43302.25
643.63	43250.76
643.78	43159.48
643.93	43716.53
644.07	43620.56
644.22	43398.21
644.37	43180.54
644.51	43007.34
644.66	43337.36
644.81	43009.68
644.95	43239.06
645.10	43189.91
645.25	42682.01
645.39	43000.32
645.54	42768.61
645.69	42630.52
645.83	42679.67
645.98	42656.26
646.13	42572.00
646.27	42822.44
646.42	42394.12
646.57	42450.30
646.71	43290.55
646.86	43068.20
647.00	42899.68
647.15	42756.91
647.30	42672.65
647.44	42976.92
647.59	42742.86
647.74	42656.26
647.88	42735.84
648.03	43199.27
648.17	42918.40
648.32	42955.85
648.47	42866.91
648.61	42225.60
648.76	42600.09
648.90	42557.96
649.05	42494.77
649.20	42525.19
649.34	42642.22
649.49	42426.89
649.63	42445.62
649.78	42609.45
649.92	42658.60
650.07	43054.15
650.21	42609.45
650.36	42780.31
650.51	42354.33
650.65	42586.05
650.80	42218.58
650.94	42473.70
651.09	42328.59
651.23	42078.15
651.38	42403.49
651.52	41635.79
651.67	41956.44
651.81	41647.49
651.96	41965.81
652.10	41553.87
652.25	41596.00
652.39	41956.44
652.54	41958.78
652.68	41820.69
652.83	42029.00
652.97	42099.22
653.12	41968.15
653.26	41923.68
653.41	41443.87
653.55	41881.55
653.70	42073.47
653.84	41989.21
653.99	41830.05
654.13	41635.79
654.27	41715.37
654.42	42220.92
654.56	41270.67
654.71	41696.64
654.85	41663.88
655.00	41387.69
655.14	41628.77
655.29	42026.66
655.43	42094.53
655.57	41603.02
655.72	41366.63
655.86	41734.09
656.01	41202.79
656.15	41326.84
656.30	41240.24
656.44	41120.87
656.58	41017.89
656.73	41378.33
656.87	40622.34
657.01	41053.00
657.16	41275.35
657.30	40973.42
657.45	41048.32
657.59	40994.48
657.73	40634.04
657.88	41244.92
658.02	41151.30
658.16	41127.89
658.31	40526.38
658.45	40832.99
658.60	40959.38
658.74	40832.99
658.88	41223.86
659.03	40388.28
659.17	40065.29
659.31	40418.71
659.46	40472.54
659.60	40502.97
659.74	40465.52
659.89	40430.41
660.03	39941.24
660.17	40130.83
660.32	40231.47
660.46	39810.17
660.60	39739.96
660.74	40285.30
660.89	39922.52
661.03	39573.78
661.17	39658.04
661.32	39658.04
661.46	39819.53
661.60	39852.30
661.74	39330.36
661.89	39613.57
662.03	40074.65
662.17	39711.87
662.31	39533.99
662.46	39501.22
662.60	39276.53
662.74	38665.65
662.88	39105.67
663.03	38902.04
663.17	39194.61
663.31	38653.95
663.45	38782.68
663.60	39597.18
663.74	38927.79
663.88	39344.41
664.02	38773.31
664.17	39115.03
664.31	38546.28
664.45	38618.84
664.59	38855.23
664.73	38464.36
664.88	38794.38
665.02	38632.88
665.16	38759.27
665.30	38377.76
665.44	38555.64
665.59	38162.43
665.73	38143.71
665.87	37734.12
666.01	38265.42
666.15	37823.06
666.29	37839.44
666.44	38087.54
666.58	37914.34
666.72	37759.86
666.86	37605.39
667.00	37797.31
667.14	38029.02
667.28	37427.51
667.43	37708.37
667.57	37455.59
667.71	37699.01
667.85	37677.94
667.99	37408.78
668.13	37315.16
668.27	37354.95
668.41	37017.91
668.56	36772.16
668.70	37031.96
668.84	36512.36
668.98	36748.75
669.12	36968.76
669.26	36809.61
669.40	36514.70
669.54	36975.78
669.68	36844.71
669.82	36620.02
669.96	35854.67
670.10	36119.15
670.25	36102.76
670.39	36161.28
670.53	36540.44
670.67	36098.08
670.81	36582.57
670.95	35885.09
671.09	36203.41
671.23	35714.23
671.37	36102.76
671.51	35707.21
671.65	35910.84
671.79	35948.29
671.93	35913.18
672.07	35634.66
672.21	35510.61
672.35	35372.52
672.49	35243.79
672.63	35526.99
672.77	35281.24
672.91	35166.55
673.05	34660.99
673.19	34785.04
673.33	34665.67
673.47	34778.02
673.61	34653.97
673.75	35152.51
673.89	34471.41
674.03	34735.89
674.17	33912.02
674.31	34213.95
674.45	33940.11
674.59	33890.96
674.73	34038.41
674.87	33413.49
675.01	33699.03
675.15	33600.73
675.29	33125.60
675.43	33617.11
675.56	33605.41
675.70	33385.40
675.84	33493.07
675.98	32327.48
676.12	33305.82
676.26	33439.23
676.40	33308.16
676.54	32662.18
676.68	32547.49
676.82	32283.01
676.96	32685.58
677.10	32781.54
677.23	32739.41
677.37	32425.78
677.51	32790.91
677.65	32130.87
677.79	32020.87
677.93	32259.60
678.07	31613.62
678.21	31597.23
678.34	31910.86
678.48	31218.07
678.62	31477.86
678.76	31318.71
678.90	31012.10
679.04	31140.83
679.18	31477.86
679.31	30513.56
679.45	31005.08
679.59	30654.00
679.73	31096.36
679.87	30806.13
680.00	30558.03
680.14	30595.48
680.28	30342.70
680.42	30490.16
680.56	30569.74
680.70	29727.14
680.83	29783.32
680.97	29783.32
681.11	29867.58
681.25	29434.58
681.39	29713.10
681.52	29544.58
681.66	29549.26
681.80	29144.35
681.94	28985.19
682.07	28898.59
682.21	28620.07
682.35	28720.71
682.49	28851.78
682.62	28556.88
682.76	28521.77
682.90	28503.04
683.04	28084.09
683.17	28409.42
683.31	28467.94
683.45	27934.29
683.59	27578.53
683.72	28154.30
683.86	27967.06
684.00	27824.29
684.13	27913.23
684.27	27335.12
684.41	27412.35
684.55	27377.25
684.68	27117.45
684.82	27124.47
684.96	27105.74
685.09	27211.07
685.23	27257.88
685.37	27117.45
685.50	27180.64
685.64	26911.48
685.78	26600.19
685.91	26319.32
686.05	26377.84
686.19	25886.32
686.32	25715.47
686.46	25872.28
686.60	25352.68
686.73	25895.69
686.87	25502.48
687.01	25921.43
687.14	25525.88
687.28	25420.56
687.42	24987.56
687.55	25296.51
687.69	25048.41
687.82	24568.60
687.96	25212.25
688.10	24854.15
688.23	24844.79
688.37	24713.72
688.50	25113.95
688.64	24746.48
688.78	24666.91
688.91	24465.62
689.05	24201.14
689.18	24030.28
689.32	23866.44
689.46	23922.62
689.59	23913.25
689.73	24198.80
689.86	24013.90
690.00	23800.91
690.13	23690.90
690.27	23487.28
690.41	23391.31
690.54	23281.31
690.68	23204.07
690.81	23410.04
690.95	22991.08
691.08	22878.74
691.22	22623.62
691.35	22487.87
691.49	22530.00
691.62	22860.01
691.76	22207.00
691.89	22380.20
692.03	21935.50
692.16	21757.62
692.30	22012.74
692.43	21965.93
692.57	21771.66
692.70	21572.72
692.84	21596.12
692.97	21371.43
693.11	21474.42
693.24	21310.58
693.38	21102.27
693.51	20837.79
693.65	20863.54
693.78	21111.63
693.92	20940.77
694.05	20823.75
694.19	20753.53
694.32	20355.64
694.45	20765.23
694.59	20685.65
694.72	20737.15
694.86	20437.56
694.99	20198.82
695.13	20166.06
695.26	19976.47
695.39	19817.32
695.53	20016.26
695.66	19868.81
695.80	19522.41
695.93	19501.34
696.07	19370.27
696.20	19264.95
696.33	18988.77
696.47	18984.09
696.60	19166.65
696.73	19147.92
696.87	18986.43
697.00	18881.10
697.14	18483.21
697.27	18757.05
697.40	18621.30
697.54	18553.43
697.67	18270.22
697.80	18345.12
697.94	18160.22
698.07	18359.16
698.21	18260.86
698.34	18031.49
698.47	17610.19
698.61	17799.77
698.74	17551.68
698.87	17776.37
699.01	17207.62
699.14	17502.53
699.27	17390.18
699.40	17427.63
699.54	17022.72
699.67	17383.16
699.80	17228.68
699.94	16697.38
700.07	17228.68
700.20	16737.17
700.34	16678.66
700.47	16706.74
700.60	16940.80
700.73	16872.92
700.87	16493.76
701.00	16325.24
701.13	16617.80
701.26	16208.21
701.40	16226.93
701.53	15866.49
701.66	15887.56
701.79	15796.28
701.93	15529.45
702.06	15548.18
702.19	15538.82
702.32	15822.02
702.46	15812.66
702.59	15524.77
702.72	15599.67
702.85	15580.95
702.99	15382.00
703.12	15400.72
703.25	15049.64
703.38	15161.99
703.51	15063.69
703.65	14904.53
703.78	14665.80
703.91	14523.02
704.04	14281.95
704.17	14712.61
704.31	14490.26
704.44	14530.05
704.57	14520.68
704.70	14134.50
704.83	14073.64
704.96	14090.02
705.10	13921.51
705.23	13729.58
>>>>>End Processed Spectral Data<<<<<
