SpectraSuite Data File
++++++++++++++++++++++++++++++++++++
Date: Fri Oct 25 10:43:35 EDT 2013
User: price-jones
Dark Spectrum Present: No
Reference Spectrum Present: No
Number of Sampled Component Spectra: 1
Spectrometers: USB2+H05261
Integration Time (usec): 100000 (USB2+H05261)
Spectra Averaged: 1 (USB2+H05261)
Boxcar Smoothing: 0 (USB2+H05261)
Correct for Electrical Dark: No (USB2+H05261)
Strobe/Lamp Enabled: No (USB2+H05261)
Correct for Detector Non-linearity: No (USB2+H05261)
Correct for Stray Light: No (USB2+H05261)
Number of Pixels in Processed Spectrum: 2048
>>>>>Begin Processed Spectral Data<<<<<
365.73	145.11
365.92	145.11
366.12	145.11
366.32	60.85
366.52	44.47
366.72	23.41
366.91	32.77
367.11	65.54
367.31	23.41
367.51	63.19
367.70	0.00
367.90	86.60
368.10	0.00
368.30	44.47
368.49	0.00
368.69	51.49
368.89	21.06
369.09	28.09
369.28	49.15
369.48	72.56
369.68	67.88
369.87	124.05
370.07	110.01
370.27	60.85
370.47	210.65
370.66	418.96
370.86	425.98
371.06	449.38
371.25	472.79
371.45	444.70
371.65	425.98
371.84	388.53
372.04	489.17
372.24	461.09
372.44	519.60
372.63	552.37
372.83	514.92
373.03	454.06
373.22	489.17
373.42	535.98
373.62	599.18
373.81	510.24
374.01	599.18
374.21	540.66
374.40	559.39
374.60	582.79
374.79	538.32
374.99	594.50
375.19	601.52
375.38	638.97
375.58	641.31
375.78	582.79
375.97	594.50
376.17	685.78
376.37	610.88
376.56	650.67
376.76	587.47
376.95	650.67
377.15	709.18
377.35	645.99
377.54	603.86
377.74	676.41
377.93	620.24
378.13	695.14
378.33	692.80
378.52	685.78
378.72	664.71
378.91	723.23
379.11	629.60
379.31	650.67
379.50	629.60
379.70	688.12
379.89	709.18
380.09	732.59
380.28	667.05
380.48	688.12
380.68	688.12
380.87	657.69
381.07	664.71
381.26	725.57
381.46	711.52
381.65	746.63
381.85	685.78
382.04	763.01
382.24	713.86
382.43	636.63
382.63	660.03
382.83	746.63
383.02	718.54
383.22	793.44
383.41	709.18
383.61	727.91
383.80	798.12
384.00	842.59
384.19	821.53
384.39	866.00
384.58	840.25
384.78	858.98
384.97	739.61
385.17	786.42
385.36	800.46
385.56	748.97
385.75	784.08
385.95	798.12
386.14	903.45
386.34	856.64
386.53	774.72
386.72	793.44
386.92	858.98
387.11	851.96
387.31	863.66
387.50	812.17
387.70	910.47
387.89	793.44
388.09	894.08
388.28	844.93
388.48	847.27
388.67	887.06
388.86	1015.79
389.06	898.77
389.25	964.30
389.45	976.00
389.64	1067.28
389.84	983.02
390.03	1062.60
390.22	1050.90
390.42	1048.56
390.61	1114.10
390.81	1034.52
391.00	1081.33
391.19	1116.44
391.39	1064.94
391.58	1083.67
391.78	971.32
391.97	1128.14
392.16	997.07
392.36	1064.94
392.55	1095.37
392.75	940.90
392.94	924.51
393.13	889.40
393.33	1013.45
393.52	997.07
393.71	1158.57
393.91	1277.93
394.10	1200.69
394.29	1142.18
394.49	1135.16
394.68	1228.78
394.88	1221.76
395.07	1224.10
395.26	1231.12
395.46	1259.21
395.65	1348.15
395.84	1266.23
396.04	1275.59
396.23	1130.48
396.42	1128.14
396.62	1076.65
396.81	1167.93
397.00	1294.32
397.19	1366.87
397.39	1364.53
397.58	1472.20
397.77	1413.68
397.97	1490.92
398.16	1486.24
398.35	1519.01
398.55	1472.20
398.74	1540.07
398.93	1572.84
399.12	1561.14
399.32	1521.35
399.51	1434.75
399.70	1586.88
399.90	1591.56
400.09	1537.73
400.28	1626.67
400.47	1643.06
400.67	1743.70
400.86	1579.86
401.05	1708.59
401.24	1703.91
401.44	1739.02
401.63	1827.96
401.82	1792.85
402.01	1760.08
402.21	1809.23
402.40	1804.55
402.59	1776.47
402.78	1809.23
402.97	1790.51
403.17	1886.47
403.36	1776.47
403.55	1933.28
403.74	1844.34
403.93	1872.43
404.13	1930.94
404.32	1863.07
404.51	1839.66
404.70	1949.67
404.89	2003.50
405.09	2012.86
405.28	2008.18
405.47	2031.58
405.66	2094.78
405.85	1966.05
406.05	2136.91
406.24	2064.35
406.43	2043.29
406.62	2106.48
406.81	2232.87
407.00	2111.16
407.20	2136.91
407.39	2125.21
407.58	2165.00
407.77	2296.07
407.96	2181.38
408.15	2202.44
408.34	2188.40
408.54	2223.51
408.73	2237.55
408.92	2380.32
409.11	2326.49
409.30	2368.62
409.49	2340.54
409.68	2319.47
409.87	2277.34
410.07	2260.96
410.26	2284.36
410.45	2485.65
410.64	2539.48
410.83	2640.12
411.02	2523.10
411.21	2700.98
411.40	2527.78
411.59	2682.25
411.78	2693.96
411.98	2614.38
412.17	2719.70
412.36	2712.68
412.55	2628.42
412.74	2789.92
412.93	2806.30
413.12	2710.34
413.31	2958.44
413.50	2843.75
413.69	2867.16
413.88	3023.97
414.07	3012.27
414.26	2939.71
414.45	2916.31
414.64	2993.55
414.83	2977.16
415.02	3005.25
415.22	3185.47
415.41	3274.41
415.60	3272.07
415.79	3190.15
415.98	3314.20
416.17	3337.60
416.36	3211.22
416.55	3314.20
416.74	3307.18
416.93	3311.86
417.12	3342.28
417.31	3349.31
417.50	3569.32
417.69	3459.31
417.88	3559.95
418.07	3499.10
418.26	3356.33
418.45	3606.77
418.64	3737.84
418.83	3585.70
419.02	3564.64
419.21	3709.75
419.39	3737.84
419.58	3609.11
419.77	3543.57
419.96	3761.24
420.15	3754.22
420.34	3770.60
420.53	3756.56
420.72	3955.51
420.91	3770.60
421.10	4007.00
421.29	4067.85
421.48	3812.73
421.67	4044.45
421.86	3887.63
422.05	3906.35
422.24	3833.80
422.43	3976.57
422.61	3857.20
422.80	4028.06
422.99	3976.57
423.18	4074.87
423.37	4032.74
423.56	3967.21
423.75	4060.83
423.94	4002.32
424.13	3887.63
424.32	3880.61
424.50	3889.97
424.69	4065.51
424.88	4205.94
425.07	3934.44
425.26	4044.45
425.45	3946.14
425.64	3911.04
425.83	3934.44
426.01	3983.59
426.20	4138.07
426.39	4128.70
426.58	4058.49
426.77	3943.80
426.96	3950.82
427.15	4065.51
427.33	4091.26
427.52	4088.92
427.71	4236.37
427.90	4322.97
428.09	4227.01
428.28	4166.15
428.46	4259.78
428.65	4205.94
428.84	4287.86
429.03	4400.21
429.22	4311.27
429.40	4329.99
429.59	4205.94
429.78	3997.64
429.97	3974.23
430.16	4025.72
430.34	4053.81
430.53	4219.99
430.72	4308.93
430.91	4259.78
431.10	4503.19
431.28	4746.61
431.47	4622.56
431.66	4880.02
431.85	4606.17
432.03	4688.09
432.22	4753.63
432.41	4645.96
432.60	4685.75
432.79	4772.35
432.97	4805.12
433.16	4823.84
433.35	4854.27
433.54	4887.04
433.72	4603.83
433.91	4566.39
434.10	4910.44
434.28	4774.69
434.47	4957.25
434.66	4980.66
434.85	4945.55
435.03	5128.11
435.22	5025.13
435.41	5160.88
435.59	5203.01
435.78	5160.88
435.97	5254.50
436.16	5146.84
436.34	5160.88
436.53	5195.99
436.72	5305.99
436.90	5263.86
437.09	5172.58
437.28	5144.50
437.46	5275.57
437.65	5341.10
437.84	5329.40
438.02	5207.69
438.21	5214.71
438.40	5259.18
438.58	5373.87
438.77	5467.49
438.96	5385.57
439.14	5605.58
439.33	5565.79
439.52	5570.48
439.70	5785.80
439.89	5846.66
440.08	5788.14
440.26	5748.36
440.45	5827.93
440.63	6069.01
440.82	5959.00
441.01	5968.37
441.19	6047.94
441.38	6225.82
441.57	6352.21
441.75	6387.32
441.94	6345.19
442.12	6548.82
442.31	6616.69
442.50	6361.58
442.68	6293.70
442.87	6272.64
443.05	6502.01
443.24	6497.33
443.43	6696.27
443.61	6593.29
443.80	6759.47
443.98	6626.06
444.17	6352.21
444.35	6745.42
444.54	6799.26
444.73	6705.63
444.91	6630.74
445.10	6462.22
445.28	6569.88
445.47	6551.16
445.65	6551.16
445.84	6490.31
446.02	6768.83
446.21	6700.95
446.39	6754.79
446.58	6899.90
446.77	6724.36
446.95	6759.47
447.14	6834.36
447.32	6832.02
447.51	6743.08
447.69	6855.43
447.88	6911.60
448.06	6743.08
448.25	6740.74
448.43	7035.65
448.62	6956.07
448.80	6944.37
448.99	6829.68
449.17	6942.03
449.36	6911.60
449.54	7073.10
449.73	7155.02
449.91	7140.97
450.10	7463.97
450.28	7424.18
450.46	7356.30
450.65	7424.18
450.83	7204.17
451.02	7302.47
451.20	7438.22
451.39	7328.22
451.57	7295.45
451.76	7339.92
451.94	7365.67
452.13	7272.04
452.31	7365.67
452.49	7272.04
452.68	7475.67
452.86	7496.74
453.05	7447.58
453.23	7447.58
453.42	7180.76
453.60	7644.19
453.78	7442.90
453.97	7597.38
454.15	7531.84
454.34	7541.21
454.52	7559.93
454.70	7623.12
454.89	7702.70
455.07	7775.26
455.26	7882.92
455.44	7927.39
455.62	7660.57
455.81	7805.69
455.99	7955.48
456.17	8006.97
456.36	7985.91
456.54	8210.60
456.73	8107.62
456.91	8290.18
457.09	8109.96
457.28	8287.84
457.46	8124.00
457.64	8283.16
457.83	8332.31
458.01	8074.85
458.19	8348.69
458.38	8446.99
458.56	8421.25
458.74	8451.67
458.93	8505.51
459.11	8388.48
459.29	8446.99
459.48	8320.60
459.66	8552.32
459.84	8547.64
460.03	8828.50
460.21	8772.33
460.39	8828.50
460.57	8585.08
460.76	8617.85
460.94	8809.78
461.12	8624.87
461.31	8683.39
461.49	8767.65
461.67	8954.89
461.85	9085.96
462.04	8990.00
462.22	9198.31
462.40	9064.89
462.59	9062.55
462.77	9135.11
462.95	8999.36
463.13	9104.68
463.32	9179.58
463.50	9149.15
463.68	9102.34
463.86	9160.86
464.05	8912.76
464.23	9118.73
464.41	9273.20
464.59	8933.82
464.78	9497.89
464.96	9383.21
465.14	9212.35
465.32	9167.88
465.50	9467.47
465.69	9465.13
465.87	9568.11
466.05	9401.93
466.23	9343.42
466.41	9338.74
466.60	9565.77
466.78	9376.19
466.96	9441.72
467.14	9612.58
467.32	9596.20
467.51	9612.58
467.69	9577.47
467.87	9612.58
468.05	9584.49
468.23	9561.09
468.41	9640.67
468.60	9540.02
468.78	9605.56
468.96	9465.13
469.14	9820.89
469.32	9970.68
469.50	9423.00
469.69	10026.86
469.87	9933.23
470.05	9891.10
470.23	9811.53
470.41	9872.38
470.59	10043.24
470.77	9989.41
470.95	10104.09
471.14	10083.03
471.32	10125.16
471.50	10373.25
471.68	10506.66
471.86	10509.01
472.04	10611.99
472.22	10815.62
472.40	10300.70
472.58	10579.22
472.77	10551.14
472.95	10675.18
473.13	11169.04
473.31	10895.19
473.49	10960.73
473.67	10761.78
473.85	10815.62
474.03	11133.93
474.21	11126.91
474.39	11288.40
474.57	11178.40
474.75	11456.92
474.93	11426.50
475.12	11211.17
475.30	11728.42
475.48	11492.03
475.66	11503.73
475.84	11461.60
476.02	11625.44
476.20	11517.78
476.38	11786.94
476.56	12116.95
476.74	12285.47
476.92	12058.44
477.10	12166.10
477.28	12379.09
477.46	12318.24
477.64	12425.90
477.82	12760.60
478.00	12718.47
478.18	12837.84
478.36	12933.80
478.54	12987.63
478.72	12994.65
478.90	13184.24
479.08	13090.62
479.26	13366.80
479.44	13277.86
479.62	13397.23
479.80	13575.11
479.98	13781.07
480.16	13862.99
480.34	13694.47
480.52	14171.94
480.70	14202.37
480.88	14078.32
481.06	14310.04
481.24	14143.86
481.41	14443.45
481.59	14775.80
481.77	14555.79
481.95	14752.40
482.13	14810.91
482.31	14728.99
482.49	15171.35
482.67	15026.24
482.85	15213.48
483.03	15520.09
483.21	15564.56
483.39	15789.25
483.57	15501.37
483.74	15716.70
483.92	15737.76
484.10	15742.44
484.28	16166.08
484.46	16353.32
484.64	16313.53
484.82	16350.98
485.00	16372.05
485.18	16767.60
485.35	16783.98
485.53	16219.91
485.71	16390.77
485.89	16444.60
486.07	16545.25
486.25	16858.88
486.43	16926.75
486.61	17186.55
486.78	17816.16
486.96	17476.78
487.14	17848.93
487.32	17743.60
487.50	18317.03
487.68	18415.34
487.85	18815.57
488.03	19119.84
488.21	19140.90
488.39	18408.31
488.57	18824.93
488.75	18981.74
488.92	19264.95
489.10	19803.27
489.28	19580.92
489.46	19775.19
489.64	20049.03
489.81	20655.23
489.99	20526.50
490.17	20547.56
490.35	20496.07
490.53	20643.52
490.70	20622.46
490.88	20666.93
491.06	21289.51
491.24	21109.29
491.41	20975.88
491.59	20776.94
491.77	20861.19
491.95	21273.13
492.13	21633.57
492.30	21694.43
492.48	21666.34
492.66	22036.14
492.84	22263.18
493.01	22476.16
493.19	22661.07
493.37	22490.21
493.54	22862.35
493.72	22958.31
493.90	22710.22
494.08	23274.29
494.25	23028.53
494.43	23335.14
494.61	23847.72
494.79	23765.80
494.96	24058.37
495.14	24154.33
495.32	24116.88
495.49	24081.77
495.67	24063.05
495.85	24308.80
496.02	24425.83
496.20	24594.35
496.38	25001.60
496.55	24638.82
496.73	25432.26
496.91	25010.96
497.09	25139.69
497.26	25387.79
497.44	25420.56
497.62	25706.10
497.79	25748.23
497.97	25490.77
498.14	25851.22
498.32	25788.02
498.50	26003.35
498.67	26373.16
498.85	26693.81
499.03	26494.86
499.20	26829.56
499.38	26684.45
499.56	26480.82
499.73	26920.84
499.91	26937.23
500.08	27133.83
500.26	26962.97
500.44	27042.55
500.61	27129.15
500.79	27159.58
500.97	26906.80
501.14	27562.15
501.32	27400.65
501.49	27199.37
501.67	27346.82
501.84	27456.82
502.02	27974.08
502.20	28084.09
502.37	28416.44
502.55	28287.71
502.72	28390.70
502.90	28257.29
503.07	28357.93
503.25	28107.49
503.43	28556.88
503.60	28489.00
503.78	28460.91
503.95	28201.11
504.13	28627.09
504.30	29118.60
504.48	28943.06
504.65	29109.24
504.83	29378.40
505.01	29762.25
505.18	29160.73
505.36	29687.36
505.53	29830.13
505.71	30298.23
505.88	30235.04
506.06	29551.60
506.23	30139.08
506.41	30139.08
506.58	30211.64
506.76	29951.84
506.93	30323.98
507.11	30405.90
507.28	30415.26
507.46	30274.83
507.63	30160.14
507.81	30569.74
507.98	30508.88
508.16	30726.55
508.33	31101.04
508.50	31150.19
508.68	31105.72
508.85	31527.02
509.03	31201.68
509.20	31564.46
509.38	31615.96
509.55	31646.38
509.73	32163.64
509.90	32009.17
510.08	31667.45
510.25	31658.09
510.42	31653.40
510.60	32182.37
510.77	32130.87
510.95	32758.14
511.12	32390.67
511.30	32428.12
511.47	33230.93
511.64	32931.34
511.82	32676.22
511.99	32886.87
512.17	32577.92
512.34	32737.07
512.51	32781.54
512.69	33036.66
512.86	32987.51
513.04	33425.19
513.21	33055.39
513.38	33315.19
513.56	33249.65
513.73	33275.40
513.90	33504.77
514.08	33413.49
514.25	33635.84
514.43	33240.29
514.60	33729.46
514.77	33528.17
514.95	33757.55
515.12	33993.94
515.29	34113.31
515.47	34555.67
515.64	34347.36
515.81	34129.69
515.99	34206.93
516.16	34057.14
516.33	33560.94
516.51	34576.73
516.68	33411.15
516.85	33806.70
517.03	33677.97
517.20	34366.09
517.37	34616.52
517.54	34895.05
517.72	34747.59
517.89	33940.11
518.06	34649.29
518.24	34033.73
518.41	34494.82
518.58	34937.18
518.75	34904.41
518.93	34916.11
519.10	35089.31
519.27	35185.27
519.45	35416.99
519.62	35627.63
519.79	36388.31
519.96	36091.06
520.14	35927.22
520.31	35365.49
520.48	35824.24
520.65	36210.43
520.83	36301.71
521.00	36353.20
521.17	36418.74
521.34	36519.38
521.52	36706.62
521.69	36741.73
521.86	37102.17
522.03	36818.97
522.20	36910.25
522.38	36392.99
522.55	36992.17
522.72	36638.75
522.89	36804.92
523.07	36615.34
523.24	36945.36
523.41	37345.59
523.58	37511.77
523.75	37982.21
523.92	37551.56
524.10	37914.34
524.27	37691.99
524.44	37507.08
524.61	37432.19
524.78	37886.25
524.96	37708.37
525.13	38024.34
525.30	37790.29
525.47	38244.35
525.64	38096.90
525.81	37820.72
525.98	38003.28
526.16	37663.90
526.33	38017.32
526.50	38047.75
526.67	37923.70
526.84	37947.11
527.01	38127.33
527.18	38553.30
527.36	38384.79
527.53	38923.11
527.70	39248.44
527.87	38663.31
528.04	38178.82
528.21	39236.74
528.38	38911.41
528.55	39470.79
528.72	38958.22
528.89	39360.79
529.07	39159.50
529.24	39033.11
529.41	39105.67
529.58	39393.56
529.75	39049.50
529.92	39648.68
530.09	39632.29
530.26	39452.07
530.43	39498.88
530.60	39335.04
530.77	39456.75
530.94	40055.93
531.11	40013.80
531.28	39995.07
531.46	40067.63
531.63	40184.66
531.80	39667.40
531.97	39854.64
532.14	40039.54
532.31	39159.50
532.48	39938.90
532.65	40304.02
532.82	39688.46
532.99	40013.80
533.16	40339.13
533.33	40224.45
533.50	40446.80
533.67	40196.36
533.84	40053.59
534.01	40832.99
534.18	40612.98
534.35	40891.50
534.52	40512.33
534.69	40804.90
534.86	40779.15
535.03	40971.08
535.20	41172.36
535.37	41312.80
535.54	41354.93
535.71	40964.06
535.88	41071.72
536.05	41104.49
536.22	41343.22
536.38	41132.57
536.55	40856.39
536.72	41106.83
536.89	41148.96
537.06	40854.05
537.23	41434.50
537.40	41757.50
537.57	41661.54
537.74	41610.04
537.91	41663.88
538.08	41766.86
538.25	41195.77
538.42	41780.90
538.59	41801.97
538.75	41755.16
538.92	41481.31
539.09	41769.20
539.26	41626.43
539.43	41453.23
539.60	41755.16
539.77	41170.02
539.94	41420.46
540.11	42286.46
540.28	41684.94
540.44	41684.94
540.61	41771.54
540.78	41647.49
540.95	42134.32
541.12	41895.59
541.29	41984.53
541.46	41947.08
541.62	42272.42
541.79	42457.32
541.96	42059.43
542.13	42628.18
542.30	42080.49
542.47	42234.97
542.63	42450.30
542.80	42761.59
542.97	42782.65
543.14	42557.96
543.31	42909.04
543.48	42965.21
543.64	43634.61
543.81	42941.81
543.98	43180.54
544.15	43117.35
544.32	43440.34
544.48	43423.96
544.65	43730.57
544.82	43653.33
544.99	43353.74
545.16	43049.47
545.32	43208.63
545.49	43746.95
545.66	43948.24
545.83	43866.32
546.00	43531.62
546.16	43543.33
546.33	43370.13
546.50	43494.18
546.67	43606.52
546.83	43143.09
547.00	43353.74
547.17	43328.00
547.34	43367.79
547.50	43620.56
547.67	43756.32
547.84	44069.95
548.00	43962.28
548.17	44135.48
548.34	44041.86
548.51	44109.74
548.67	44399.96
548.84	44046.54
549.01	43798.44
549.18	43906.11
549.34	43903.77
549.51	44100.37
549.68	44322.72
549.84	43805.47
550.01	44222.08
550.18	43796.10
550.34	44395.28
550.51	44123.78
550.68	44477.20
550.84	43896.75
551.01	44257.19
551.18	44374.22
551.34	44364.85
551.51	44437.41
551.68	44416.35
551.84	44423.37
552.01	44205.70
552.18	44559.12
552.34	44133.14
552.51	44919.56
552.68	44802.53
552.84	44856.37
553.01	45254.26
553.18	44612.95
553.34	45050.63
553.51	44526.35
553.67	45088.08
553.84	45294.05
554.01	45308.09
554.17	45043.61
554.34	44921.90
554.51	45184.04
554.67	45361.92
554.84	44828.28
555.00	45095.10
555.17	45357.24
555.33	45207.45
555.50	44769.77
555.67	44783.81
555.83	45408.73
556.00	45415.76
556.16	45528.10
556.33	45301.07
556.50	45305.75
556.66	45186.38
556.83	44872.75
556.99	45249.58
557.16	45525.76
557.32	45558.53
557.49	45507.04
557.65	45258.94
557.82	45209.79
557.98	45586.61
558.15	45390.01
558.32	45263.62
558.48	45750.45
558.65	45364.26
558.81	44999.14
558.98	45109.14
559.14	45478.95
559.31	45209.79
559.47	45722.37
559.64	45635.77
559.80	45352.56
559.97	45598.32
560.13	45322.13
560.30	45717.68
560.46	45598.32
560.63	45820.67
560.79	46094.51
560.96	46089.83
561.12	45715.34
561.29	45359.58
561.45	45364.26
561.61	45869.82
561.78	45406.39
561.94	45546.82
562.11	45462.57
562.27	45329.16
562.44	45998.55
562.60	45797.26
562.77	45900.25
562.93	45951.74
563.10	46141.32
563.26	45460.23
563.42	45900.25
563.59	45925.99
563.75	46115.58
563.92	46232.60
564.08	45645.13
564.24	45893.22
564.41	46321.54
564.57	45961.10
564.74	45684.92
564.90	45893.22
565.07	45717.68
565.23	45823.01
565.39	45839.39
565.56	45844.07
565.72	45731.73
565.88	46045.36
566.05	45958.76
566.21	46218.56
566.38	46176.43
566.54	46153.02
566.70	46043.02
566.87	46611.77
567.03	45928.33
567.19	46408.14
567.36	46583.68
567.52	45972.80
567.68	46246.65
567.85	45425.12
568.01	46199.83
568.17	46052.38
568.34	46569.64
568.50	45918.97
568.66	45872.16
568.83	46768.58
568.99	45855.78
569.15	46319.20
569.32	46120.26
569.48	46061.74
569.64	46469.00
569.81	46426.87
569.97	46066.42
570.13	46272.39
570.30	46061.74
570.46	45741.09
570.62	46192.81
570.78	45659.17
570.95	45439.16
571.11	46127.28
571.27	46017.27
571.43	46288.77
571.60	46454.95
571.76	45766.84
571.92	46160.05
572.09	46342.61
572.25	46225.58
572.41	46274.73
572.57	46394.10
572.74	46408.14
572.90	46019.61
573.06	46520.49
573.22	46710.07
573.38	46398.78
573.55	46260.69
573.71	46667.94
573.87	46799.01
574.03	45902.59
574.20	46157.70
574.36	46241.96
574.52	46162.39
574.68	46405.80
574.84	46314.52
575.01	45935.35
575.17	45895.56
575.33	46138.98
575.49	46033.66
575.65	46384.74
575.82	46595.38
575.98	46244.30
576.14	46621.13
576.30	46354.31
576.46	46588.36
576.62	45883.86
576.79	46323.88
576.95	46085.15
577.11	46181.11
577.27	46206.86
577.43	46705.39
577.59	45897.91
577.75	46057.06
577.92	45977.48
578.08	46071.10
578.24	46241.96
578.40	46178.77
578.56	46796.67
578.72	45876.84
578.88	46326.22
579.04	46789.65
579.21	46087.49
579.37	46246.65
579.53	46277.07
579.69	46127.28
579.85	46092.17
580.01	46218.56
580.17	46038.34
580.33	46120.26
580.49	46756.88
580.65	46583.68
580.82	46131.96
580.98	45954.08
581.14	46099.19
581.30	46604.75
581.46	46490.06
581.62	46483.04
581.78	46759.22
581.94	46824.76
582.10	46562.62
582.26	46742.84
582.42	46326.22
582.58	46288.77
582.74	46326.22
582.90	46120.26
583.06	46941.78
583.22	46333.24
583.38	46714.75
583.54	46836.46
583.70	46265.37
583.86	46358.99
584.02	46417.50
584.18	46721.77
584.34	46747.52
584.50	46349.63
584.66	46436.23
584.82	46328.56
584.98	46440.91
585.14	46562.62
585.30	46316.86
585.46	46354.31
585.62	46321.54
585.78	46281.75
585.94	46291.12
586.10	45844.07
586.26	46110.89
586.42	46752.20
586.58	46518.15
586.74	46539.21
586.90	46384.74
587.06	46518.15
587.22	46382.40
587.38	46738.16
587.54	46674.96
587.70	46813.05
587.86	46777.95
588.02	46075.79
588.18	46471.34
588.34	45949.40
588.49	46024.29
588.65	45820.67
588.81	45914.29
588.97	45670.87
589.13	45855.78
589.29	46110.89
589.45	46258.35
589.61	46153.02
589.77	46855.18
589.93	46586.02
590.08	46408.14
590.24	46270.05
590.40	46981.57
590.56	46740.50
590.72	46791.99
590.88	46759.22
591.04	46593.04
591.20	47208.61
591.35	47079.88
591.51	47079.88
591.67	46703.05
591.83	46337.93
591.99	46391.76
592.15	46597.73
592.31	46522.83
592.46	46726.46
592.62	46595.38
592.78	46380.06
592.94	46419.84
593.10	46424.53
593.26	46859.87
593.41	46700.71
593.57	46567.30
593.73	46396.44
593.89	46415.16
594.05	46560.28
594.20	46703.05
594.36	46890.29
594.52	46454.95
594.68	46511.13
594.84	46326.22
594.99	46431.55
595.15	46227.92
595.31	46794.33
595.47	46834.12
595.62	46195.15
595.78	46625.81
595.94	46387.08
596.10	46639.86
596.25	46625.81
596.41	46040.68
596.57	46770.93
596.73	46768.58
596.88	46436.23
597.04	46756.88
597.20	46859.87
597.36	46415.16
597.51	46780.29
597.67	46660.92
597.83	46380.06
597.99	46628.15
598.14	46354.31
598.30	46705.39
598.46	46581.34
598.61	47105.62
598.77	46258.35
598.93	46567.30
599.09	46382.40
599.24	46724.11
599.40	47093.92
599.56	46768.58
599.71	46504.10
599.87	46780.29
600.03	46616.45
600.18	46260.69
600.34	46478.36
600.50	46527.51
600.65	46684.33
600.81	46616.45
600.97	46717.09
601.12	46831.78
601.28	46728.80
601.44	46461.97
601.59	46693.69
601.75	46342.61
601.91	46445.59
602.06	46422.19
602.22	46354.31
602.37	46862.21
602.53	46527.51
602.69	47103.28
602.84	46293.46
603.00	46782.63
603.16	46742.84
603.31	46770.93
603.47	46108.55
603.62	46522.83
603.78	46738.16
603.94	46707.73
604.09	46707.73
604.25	46752.20
604.40	46340.27
604.56	46625.81
604.71	46885.61
604.87	46494.74
605.03	46541.55
605.18	46714.75
605.34	46784.97
605.49	46274.73
605.65	46384.74
605.80	46487.72
605.96	46307.50
606.12	46410.48
606.27	46557.94
606.43	46120.26
606.58	46726.46
606.74	46209.20
606.89	46131.96
607.05	46017.27
607.20	46211.54
607.36	46511.13
607.51	46525.17
607.67	46461.97
607.82	46220.90
607.98	46171.75
608.13	45998.55
608.29	45867.48
608.44	45963.44
608.60	45717.68
608.75	45813.65
608.91	46281.75
609.06	46157.70
609.22	46131.96
609.37	45764.49
609.53	46178.77
609.68	46209.20
609.84	46000.89
609.99	45715.34
610.15	45862.80
610.30	45956.42
610.46	45268.30
610.61	46045.36
610.76	45738.75
610.92	46234.94
611.07	46131.96
611.23	45773.86
611.38	46302.82
611.54	45790.24
611.69	45427.46
611.84	45532.78
612.00	45155.96
612.15	45490.65
612.31	45759.81
612.46	45979.82
612.62	45848.75
612.77	45844.07
612.92	45790.24
613.08	45289.37
613.23	45401.71
613.39	44959.35
613.54	45361.92
613.69	45371.28
613.85	44940.63
614.00	45661.51
614.15	45244.90
614.31	45603.00
614.46	45930.67
614.62	45626.40
614.77	45160.64
614.92	45364.26
615.08	45111.49
615.23	45125.53
615.38	45565.55
615.54	44755.72
615.69	45425.12
615.84	45141.91
616.00	45038.93
616.15	45155.96
616.30	45045.95
616.46	45132.55
616.61	44760.40
616.76	45013.18
616.92	44460.82
617.07	45031.91
617.22	44512.31
617.37	44877.43
617.53	45476.61
617.68	45570.23
617.83	44900.84
617.99	44545.08
618.14	44865.73
618.29	44914.88
618.45	44603.59
618.60	44280.60
618.75	44266.55
618.90	44238.47
619.06	44406.98
619.21	44680.83
619.36	44982.76
619.51	44657.42
619.67	44376.56
619.82	44201.02
619.97	44397.62
620.12	44383.58
620.28	43533.96
620.43	44704.23
620.58	44704.23
620.73	43938.88
620.89	44437.41
621.04	44100.37
621.19	44788.49
621.34	44849.35
621.49	44163.57
621.65	44287.62
621.80	44201.02
621.95	44107.40
622.10	44524.01
622.25	43847.60
622.41	44610.61
622.56	44123.78
622.71	44100.37
622.86	44032.50
623.01	43976.33
623.16	43985.69
623.32	43859.30
623.47	44205.70
623.62	43700.14
623.77	43814.83
623.92	43723.55
624.07	43625.25
624.23	43658.01
624.38	43784.40
624.53	44006.75
624.68	43487.15
624.83	43922.49
624.98	43641.63
625.13	42946.49
625.29	43250.76
625.44	43330.34
625.59	43255.44
625.74	43215.65
625.89	42808.40
626.04	43363.11
626.19	43299.91
626.34	43086.92
626.49	43388.85
626.65	43512.90
626.80	43318.64
626.95	43311.61
627.10	42976.92
627.25	43100.97
627.40	42567.32
627.55	42574.34
627.70	42880.95
627.85	43051.81
628.00	43143.09
628.15	42639.88
628.30	43107.99
628.45	43035.43
628.60	43159.48
628.76	43388.85
628.91	42749.88
629.06	42508.81
629.21	42803.72
629.36	42618.81
629.51	42445.62
629.66	42279.44
629.81	42370.72
629.96	42300.50
630.11	42738.18
630.26	43091.60
630.41	42342.63
630.56	42431.57
630.71	42377.74
630.86	42670.31
631.01	42117.94
631.16	42410.51
631.31	42190.50
631.46	42153.05
631.61	42260.71
631.76	42045.38
631.91	42401.14
632.06	42511.15
632.21	42246.67
632.36	42223.26
632.51	41764.52
632.66	42274.76
632.81	41645.15
632.96	41890.91
633.10	41947.08
633.25	42213.90
633.40	42600.09
633.55	42134.32
633.70	42134.32
633.85	41783.24
634.00	42029.00
634.15	41804.31
634.30	41830.05
634.45	41731.75
634.60	41727.07
634.75	41633.45
634.90	41462.59
635.05	41579.62
635.19	41757.50
635.34	41790.27
635.49	41720.05
635.64	41163.00
635.79	41385.35
635.94	41682.60
636.09	41003.85
636.24	40989.80
636.39	41027.25
636.53	41258.96
636.68	40973.42
636.83	41331.52
636.98	41535.15
637.13	40837.67
637.28	41715.37
637.43	41787.92
637.57	41474.29
637.72	41055.34
637.87	41476.63
638.02	41282.37
638.17	41024.91
638.32	40994.48
638.46	41329.18
638.61	41226.20
638.76	40886.82
638.91	41336.20
639.06	40954.69
639.20	41167.68
639.35	41495.36
639.50	40921.93
639.65	41010.87
639.80	40945.33
639.94	40711.28
640.09	40816.60
640.24	40715.96
640.39	40584.89
640.54	40615.32
640.68	40685.53
640.83	40690.21
640.98	40392.97
641.13	40161.25
641.27	40722.98
641.42	40414.03
641.57	40620.00
641.72	40495.95
641.86	40247.85
642.01	40388.28
642.16	40432.75
642.31	39924.86
642.45	39952.94
642.60	40252.53
642.75	40224.45
642.90	40245.51
643.04	40556.80
643.19	40332.11
643.34	40212.74
643.48	40238.49
643.63	39672.08
643.78	39847.62
643.93	40060.61
644.07	40172.96
644.22	39686.12
644.37	39927.20
644.51	39599.52
644.66	39620.59
644.81	40252.53
644.95	39627.61
645.10	39358.45
645.25	39899.11
645.39	39756.34
645.54	39594.84
645.69	39913.16
645.83	39388.88
645.98	39704.85
646.13	39505.90
646.27	39702.51
646.42	39765.70
646.57	39475.48
646.71	39578.46
646.86	39505.90
647.00	39159.50
647.15	39679.10
647.30	39569.10
647.44	39758.68
647.59	39508.24
647.74	39213.34
647.88	39288.23
648.03	39299.94
648.17	38955.88
648.32	39433.35
648.47	39187.59
648.61	38902.04
648.76	39161.84
648.90	39372.49
649.05	39201.63
649.20	39145.46
649.34	39124.40
649.49	38852.89
649.63	38550.96
649.78	39077.58
649.92	39117.37
650.07	38976.94
650.21	39070.56
650.36	39262.49
650.51	38873.96
650.65	40002.10
650.80	39384.19
650.94	39077.58
651.09	38855.23
651.23	38462.02
651.38	38515.86
651.52	38305.21
651.67	38267.76
651.81	38249.03
651.96	38672.67
652.10	39316.32
652.25	38726.50
652.39	38897.36
652.54	38848.21
652.68	38445.64
652.83	38227.97
652.97	38726.50
653.12	38061.79
653.26	38246.69
653.41	38314.57
653.55	37886.25
653.70	38183.50
653.84	38389.47
653.99	38527.56
654.13	37940.08
654.27	38356.70
654.42	38380.10
654.56	38036.05
654.71	38710.12
654.85	37766.88
655.00	38000.94
655.14	38115.62
655.29	37551.56
655.43	37612.41
655.57	37427.51
655.72	37284.73
655.86	37670.92
656.01	37015.57
656.15	37053.02
656.30	37331.54
656.44	37418.14
656.58	37404.10
656.73	37296.44
656.87	37223.88
657.01	37418.14
657.16	37378.36
657.30	37586.66
657.45	37179.41
657.59	37284.73
657.73	37106.85
657.88	37441.55
658.02	37724.75
658.16	37703.69
658.31	37897.95
658.45	37963.49
658.60	37249.63
658.74	37427.51
658.88	37656.88
659.03	37177.07
659.17	37046.00
659.31	37249.63
659.46	36739.39
659.60	37209.84
659.74	36804.92
659.89	36383.63
660.03	36620.02
660.17	37191.11
660.32	36575.55
660.46	37202.82
660.60	36790.88
660.74	36809.61
660.89	36718.32
661.03	36414.05
661.17	36678.54
661.32	36367.24
661.46	36261.92
661.60	36355.54
661.74	36100.42
661.89	36329.80
662.03	36432.78
662.17	36418.74
662.31	36383.63
662.46	36353.20
662.60	36416.40
662.74	36491.29
662.88	36123.83
663.03	36423.42
663.17	35653.38
663.31	35770.41
663.45	35894.46
663.60	35950.63
663.74	35391.24
663.88	35344.43
664.02	35377.20
664.17	35798.49
664.31	35353.79
664.45	35325.71
664.59	35517.63
664.73	35384.22
664.88	35391.24
665.02	35012.07
665.16	34677.38
665.30	34836.53
665.44	34981.65
665.59	34714.83
665.73	35124.42
665.87	34438.64
666.01	34834.19
666.15	34616.52
666.29	34815.47
666.44	34771.00
666.58	34738.23
666.72	34883.34
666.86	34375.45
667.00	34569.71
667.14	34160.12
667.28	34265.44
667.43	33949.47
667.57	34410.56
667.71	34162.46
667.85	34113.31
667.99	34307.57
668.13	34288.85
668.27	34307.57
668.41	34368.43
668.56	33869.89
668.70	34143.74
668.84	33488.38
668.98	33287.10
669.12	33565.62
669.26	33626.48
669.40	33226.24
669.54	33715.42
669.68	33291.78
669.82	32847.08
669.96	33301.14
670.10	33123.26
670.25	33095.18
670.39	32774.52
670.53	32943.04
670.67	32924.32
670.81	32957.08
670.95	33184.12
671.09	33102.20
671.23	32779.20
671.37	32741.75
671.51	32350.88
671.65	32746.44
671.79	32601.32
671.93	32402.38
672.07	32652.81
672.21	32191.73
672.35	32315.78
672.49	32037.25
672.63	32044.27
672.77	32149.60
672.91	32130.87
673.05	31971.72
673.19	31573.83
673.33	31842.99
673.47	31695.53
673.61	31527.02
673.75	31489.57
673.89	31536.38
674.03	31281.26
674.17	31269.56
674.31	31421.69
674.45	31154.87
674.59	31391.26
674.73	31417.01
674.87	31335.09
675.01	31278.92
675.15	31356.16
675.29	30838.90
675.43	31005.08
675.56	31061.25
675.70	30778.04
675.84	30712.51
675.98	29865.24
676.12	30766.34
676.26	30710.17
676.40	30527.61
676.54	30085.25
676.68	30806.13
676.82	29860.55
676.96	29975.24
677.10	30452.71
677.23	29586.71
677.37	29472.03
677.51	29806.72
677.65	29617.14
677.79	29008.60
677.93	29268.40
678.07	28987.53
678.21	28554.54
678.34	28739.44
678.48	29331.59
678.62	28577.94
678.76	28606.03
678.90	28706.67
679.04	28638.80
679.18	28734.76
679.31	28112.17
679.45	28268.99
679.59	28231.54
679.73	28297.08
679.87	28030.26
680.00	27831.31
680.14	27995.15
680.28	28140.26
680.42	27639.39
680.56	28077.07
680.70	27491.93
680.83	27524.70
680.97	27440.44
681.11	27733.01
681.25	27274.26
681.39	27269.58
681.52	27290.65
681.66	26684.45
681.80	26941.91
681.94	26714.87
682.07	26574.44
682.21	26478.48
682.35	26487.84
682.49	26375.50
682.62	26080.59
682.76	26555.72
682.90	26389.54
683.04	26328.69
683.17	26366.13
683.31	26017.40
683.45	25881.64
683.59	25776.32
683.72	25940.16
683.86	25816.11
684.00	25465.03
684.13	25472.05
684.27	25558.65
684.41	25219.27
684.55	24973.52
684.68	25305.87
684.82	25181.82
684.96	25411.20
685.09	24828.40
685.23	24844.79
685.37	25055.43
685.50	24673.93
685.64	24664.57
685.78	24350.93
685.91	24657.54
686.05	24044.32
686.19	23997.51
686.32	24105.18
686.46	23910.91
686.60	23501.32
686.73	23054.28
686.87	23386.63
687.01	23433.44
687.14	22981.72
687.28	23089.38
687.42	23070.66
687.55	23108.11
687.69	23047.26
687.82	23056.62
687.96	22857.67
688.10	23061.30
688.23	22499.57
688.37	22441.06
688.50	22380.20
688.64	22647.02
688.78	22457.44
688.91	21933.16
689.05	21991.67
689.18	21942.52
689.32	22045.51
689.46	22230.41
689.59	22349.78
689.73	22429.35
689.86	21530.59
690.00	21521.23
690.13	21797.41
690.27	21621.87
690.41	21523.57
690.54	21067.16
690.68	21294.19
690.81	21200.57
690.95	21085.89
691.08	21376.11
691.22	21338.66
691.35	21207.59
691.49	20999.29
691.62	20842.47
691.76	21039.08
691.89	20844.81
692.03	20826.09
692.16	20357.98
692.30	20318.19
692.43	20320.53
692.57	20285.42
692.70	20023.28
692.84	19826.68
692.97	19791.57
693.11	19964.77
693.24	19419.42
693.38	19632.41
693.51	19756.46
693.65	19850.08
693.78	19700.29
693.92	19672.20
694.05	19199.41
694.19	19386.66
694.32	19194.73
694.45	19271.97
694.59	19047.28
694.72	18895.14
694.86	19073.03
694.99	19014.51
695.13	18707.90
695.26	18614.28
695.39	18747.69
695.53	18719.60
695.66	18782.80
695.80	18513.64
695.93	18541.72
696.07	18394.27
696.20	18537.04
696.33	18284.26
696.47	18082.98
696.60	18319.37
696.73	17710.83
696.87	17685.09
697.00	17736.58
697.14	17556.36
697.27	17413.59
697.40	17312.94
697.54	17392.52
697.67	17238.05
697.80	17411.25
697.94	17462.74
698.07	17043.78
698.21	17064.85
698.34	17078.89
698.47	16800.37
698.61	16828.45
698.74	17025.06
698.87	16734.83
699.01	16613.12
699.14	16475.03
699.27	16332.26
699.40	16648.23
699.54	16217.57
699.67	16231.62
699.80	16245.66
699.94	16156.72
700.07	16369.71
700.20	16056.08
700.34	15943.73
700.47	15988.20
700.60	16011.60
700.73	16039.69
700.87	15606.69
701.00	15393.70
701.13	15704.99
701.26	15274.34
701.40	15351.57
701.53	15290.72
701.66	15494.35
701.79	15253.27
701.93	14841.34
702.06	15030.92
702.19	14761.76
702.32	14953.68
702.46	14902.19
702.59	15021.56
702.72	14604.94
702.85	14857.72
702.99	14920.92
703.12	14569.83
703.25	14518.34
703.38	14398.98
703.51	14469.19
703.65	14387.27
703.78	13956.61
703.91	13881.72
704.04	14225.78
704.17	13788.10
704.31	13813.84
704.44	13769.37
704.57	13701.50
704.70	13589.15
704.83	13755.33
704.96	13928.53
705.10	13839.59
705.23	13493.19
>>>>>End Processed Spectral Data<<<<<
