SpectraSuite Data File
++++++++++++++++++++++++++++++++++++
Date: Fri Oct 25 10:47:46 EDT 2013
User: price-jones
Dark Spectrum Present: No
Reference Spectrum Present: No
Number of Sampled Component Spectra: 1
Spectrometers: USB2+H05261
Integration Time (usec): 100000 (USB2+H05261)
Spectra Averaged: 1 (USB2+H05261)
Boxcar Smoothing: 0 (USB2+H05261)
Correct for Electrical Dark: No (USB2+H05261)
Strobe/Lamp Enabled: No (USB2+H05261)
Correct for Detector Non-linearity: No (USB2+H05261)
Correct for Stray Light: No (USB2+H05261)
Number of Pixels in Processed Spectrum: 2048
>>>>>Begin Processed Spectral Data<<<<<
365.73	177.88
365.92	177.88
366.12	177.88
366.32	11.70
366.52	25.75
366.72	60.85
366.91	51.49
367.11	37.45
367.31	25.75
367.51	14.04
367.70	11.70
367.90	79.58
368.10	56.17
368.30	49.15
368.49	0.00
368.69	81.92
368.89	44.47
369.09	42.13
369.28	102.98
369.48	51.49
369.68	37.45
369.87	95.96
370.07	126.39
370.27	238.73
370.47	142.77
370.66	404.91
370.86	442.36
371.06	524.28
371.25	519.60
371.45	468.11
371.65	479.81
371.84	437.68
372.04	390.87
372.24	503.22
372.44	454.06
372.63	470.45
372.83	489.17
373.03	552.37
373.22	500.87
373.42	423.64
373.62	566.41
373.81	507.90
374.01	512.58
374.21	489.17
374.40	496.19
374.60	545.34
374.79	484.49
374.99	599.18
375.19	519.60
375.38	540.66
375.58	596.84
375.78	550.03
375.97	571.09
376.17	589.82
376.37	554.71
376.56	589.82
376.76	664.71
376.95	540.66
377.15	648.33
377.35	587.47
377.54	669.39
377.74	582.79
377.93	627.26
378.13	631.94
378.33	688.12
378.52	631.94
378.72	627.26
378.91	545.34
379.11	638.97
379.31	601.52
379.50	641.31
379.70	617.90
379.89	615.56
380.09	601.52
380.28	645.99
380.48	655.35
380.68	720.88
380.87	685.78
381.07	660.03
381.26	676.41
381.46	615.56
381.65	669.39
381.85	667.05
382.04	692.80
382.24	699.82
382.43	690.46
382.63	676.41
382.83	683.44
383.02	629.60
383.22	664.71
383.41	690.46
383.61	664.71
383.80	786.42
384.00	648.33
384.19	683.44
384.39	816.85
384.58	781.74
384.78	814.51
384.97	786.42
385.17	760.67
385.36	725.57
385.56	772.38
385.75	631.94
385.95	760.67
386.14	760.67
386.34	779.40
386.53	791.10
386.72	809.83
386.92	889.40
387.11	772.38
387.31	816.85
387.50	870.68
387.70	770.04
387.89	788.76
388.09	837.91
388.28	779.40
388.48	795.78
388.67	819.19
388.86	781.74
389.06	861.32
389.25	898.77
389.45	894.08
389.64	954.94
389.84	954.94
390.03	987.71
390.22	1013.45
390.42	908.13
390.61	919.83
390.81	1006.43
391.00	973.66
391.19	1048.56
391.39	997.07
391.58	954.94
391.78	1057.92
391.97	1013.45
392.16	933.87
392.36	1011.11
392.55	1006.43
392.75	884.72
392.94	882.38
393.13	917.49
393.33	954.94
393.52	980.68
393.71	1071.97
393.91	1146.86
394.10	999.41
394.29	1088.35
394.49	1078.99
394.68	1090.69
394.88	1071.97
395.07	1086.01
395.26	1032.18
395.46	1177.29
395.65	1149.20
395.84	1078.99
396.04	1165.59
396.23	1210.06
396.42	1151.54
396.62	1048.56
396.81	1128.14
397.00	1132.82
397.19	1263.89
397.39	1196.01
397.58	1252.19
397.77	1172.61
397.97	1242.82
398.16	1273.25
398.35	1327.08
398.55	1275.59
398.74	1362.19
398.93	1369.21
399.12	1254.53
399.32	1291.98
399.51	1301.34
399.70	1413.68
399.90	1301.34
400.09	1369.21
400.28	1465.18
400.47	1329.42
400.67	1399.64
400.86	1362.19
401.05	1439.43
401.24	1547.09
401.44	1488.58
401.63	1598.59
401.82	1526.03
402.01	1533.05
402.21	1472.20
402.40	1612.63
402.59	1624.33
402.78	1523.69
402.97	1568.16
403.17	1586.88
403.36	1652.42
403.55	1572.84
403.74	1563.48
403.93	1596.25
404.13	1682.85
404.32	1636.03
404.51	1516.67
404.70	1748.38
404.89	1743.70
405.09	1842.00
405.28	1727.32
405.47	1734.34
405.66	1771.79
405.85	1764.76
406.05	1755.40
406.24	1760.08
406.43	1806.89
406.62	1881.79
406.81	1921.58
407.00	1823.28
407.20	1849.02
407.39	1792.85
407.58	1881.79
407.77	1870.09
407.96	1916.90
408.15	1907.54
408.34	1919.24
408.54	2012.86
408.73	2012.86
408.92	1968.39
409.11	2005.84
409.30	1982.43
409.49	1975.41
409.68	2052.65
409.87	2043.29
410.07	2026.90
410.26	2099.46
410.45	2092.44
410.64	2104.14
410.83	2113.50
411.02	2134.57
411.21	2200.10
411.40	2197.76
411.59	2258.62
411.78	2258.62
411.98	2403.73
412.17	2356.92
412.36	2298.41
412.55	2347.56
412.74	2452.88
412.93	2368.62
413.12	2476.29
413.31	2567.57
413.50	2499.69
413.69	2469.27
413.88	2565.23
414.07	2553.52
414.26	2614.38
414.45	2588.63
414.64	2782.90
414.83	2679.91
415.02	2822.69
415.22	2731.41
415.41	2630.76
415.60	2813.32
415.79	2895.24
415.98	2832.05
416.17	2904.60
416.36	2834.39
416.55	2862.48
416.74	2951.42
416.93	2850.77
417.12	2984.18
417.31	2960.78
417.50	2942.05
417.69	3007.59
417.88	3091.85
418.07	3019.29
418.26	2986.52
418.45	3089.51
418.64	3248.66
418.83	3204.19
419.02	3148.02
419.21	3332.92
419.39	3246.32
419.58	3192.49
419.77	3141.00
419.96	3321.22
420.15	3255.69
420.34	3279.09
420.53	3307.18
420.72	3433.57
420.91	3473.36
421.10	3412.50
421.29	3403.14
421.48	3321.22
421.67	3445.27
421.86	3393.78
422.05	3513.14
422.24	3471.01
422.43	3328.24
422.61	3445.27
422.80	3559.95
422.99	3375.05
423.18	3442.93
423.37	3592.72
423.56	3569.32
423.75	3475.70
423.94	3426.54
424.13	3346.97
424.32	3283.77
424.50	3524.85
424.69	3648.90
424.88	3581.02
425.07	3426.54
425.26	3421.86
425.45	3517.83
425.64	3463.99
425.83	3555.27
426.01	3686.34
426.20	3529.53
426.39	3637.19
426.58	3651.24
426.77	3620.81
426.96	3597.40
427.15	3597.40
427.33	3552.93
427.52	3726.13
427.71	3705.07
427.90	3779.97
428.09	3742.52
428.28	3756.56
428.46	3688.68
428.65	3700.39
428.84	3943.80
429.03	3861.88
429.22	3850.18
429.40	3810.39
429.59	3726.13
429.78	3616.13
429.97	3588.04
430.16	3686.34
430.34	3861.88
430.53	3894.65
430.72	4007.00
430.91	3995.29
431.10	3878.27
431.28	4093.60
431.47	4198.92
431.66	4107.64
431.85	4180.20
432.03	4128.70
432.22	4184.88
432.41	4276.16
432.60	4109.98
432.79	4138.07
432.97	4283.18
433.16	4292.54
433.35	4135.73
433.54	4205.94
433.72	4098.28
433.91	4147.43
434.10	4348.72
434.28	4294.88
434.47	4339.35
434.66	4526.60
434.85	4498.51
435.03	4407.23
435.22	4486.81
435.41	4542.98
435.59	4557.02
435.78	4585.11
435.97	4510.21
436.16	4664.69
436.34	4566.39
436.53	4739.58
436.72	4676.39
436.90	4519.57
437.09	4601.49
437.28	4568.73
437.46	4468.08
437.65	4699.80
437.84	4741.93
438.02	4739.58
438.21	4596.81
438.40	4484.47
438.58	4744.27
438.77	4880.02
438.96	4786.40
439.14	5004.07
439.33	5057.90
439.52	5118.75
439.70	4983.00
439.89	5165.56
440.08	5062.58
440.26	5231.10
440.45	4983.00
440.63	5130.45
440.82	5315.36
441.01	5249.82
441.19	5490.90
441.38	5439.40
441.57	5413.66
441.75	5474.51
441.94	5483.88
442.12	5575.16
442.31	5556.43
442.50	5769.42
442.68	5645.37
442.87	5760.06
443.05	5596.22
443.24	5834.96
443.43	5584.52
443.61	5680.48
443.80	5982.41
443.98	5654.73
444.17	5549.41
444.35	5849.00
444.54	5818.57
444.73	5954.32
444.91	5816.23
445.10	5865.38
445.28	5741.33
445.47	5799.85
445.65	5790.49
445.84	5736.65
446.02	5951.98
446.21	5928.58
446.39	5790.49
446.58	5928.58
446.77	5898.15
446.95	5809.21
447.14	5926.24
447.32	5996.45
447.51	5895.81
447.69	6113.48
447.88	6047.94
448.06	5940.28
448.25	5933.26
448.43	5874.74
448.62	5923.90
448.80	6024.54
448.99	6078.37
449.17	6143.91
449.36	6101.78
449.54	6246.89
449.73	6277.32
449.91	6420.09
450.10	6415.41
450.28	6310.08
450.46	6347.53
450.65	6466.90
450.83	6469.24
451.02	6317.11
451.20	6363.92
451.39	6380.30
451.57	6356.90
451.76	6256.25
451.94	6513.71
452.13	6551.16
452.31	6359.24
452.49	6235.19
452.68	6415.41
452.86	6438.81
453.05	6368.60
453.23	6595.63
453.42	6574.56
453.60	6476.26
453.78	6565.20
453.97	6593.29
454.15	6569.88
454.34	6658.82
454.52	6834.36
454.70	6616.69
454.89	6677.55
455.07	6801.60
455.26	6892.88
455.44	6960.75
455.62	6918.62
455.81	6899.90
455.99	6846.07
456.17	6902.24
456.36	6963.09
456.54	7138.63
456.73	7126.93
456.91	7108.21
457.09	7133.95
457.28	7318.86
457.46	7150.34
457.64	7431.20
457.83	7410.14
458.01	7187.79
458.19	7435.88
458.38	7274.38
458.56	7513.12
458.74	7227.57
458.93	7265.02
459.11	7433.54
459.29	7550.57
459.48	7620.78
459.66	7492.05
459.84	7527.16
460.03	7712.07
460.21	7709.72
460.39	7585.68
460.57	7534.18
460.76	7693.34
460.94	7737.81
461.12	7793.98
461.31	7779.94
461.49	7679.30
461.67	7714.41
461.85	7880.58
462.04	7639.51
462.22	8156.77
462.40	7957.82
462.59	8116.98
462.77	7929.74
462.95	8112.30
463.13	8065.49
463.32	8086.55
463.50	8126.34
463.68	8098.25
463.86	8088.89
464.05	7864.20
464.23	7822.07
464.41	8168.47
464.59	8049.10
464.78	8306.56
464.96	8180.17
465.14	7999.95
465.32	8444.65
465.50	8334.65
465.69	8252.73
465.87	8498.49
466.05	8381.46
466.23	8250.39
466.41	8301.88
466.60	8344.01
466.78	8184.85
466.96	8454.02
467.14	8393.16
467.32	8498.49
467.51	8730.20
467.69	8496.14
467.87	8407.20
468.05	8531.25
468.23	8468.06
468.41	8430.61
468.60	8411.89
468.78	8664.66
468.96	8676.37
469.14	8915.10
469.32	8786.37
469.50	8751.26
469.69	8833.18
469.87	8748.92
470.05	8823.82
470.23	8954.89
470.41	9004.04
470.59	9107.02
470.77	8884.67
470.95	9025.11
471.14	9125.75
471.32	8997.02
471.50	9385.55
471.68	9228.73
471.86	9427.68
472.04	9245.12
472.22	9554.07
472.40	9186.60
472.58	9579.81
472.77	9149.15
472.95	9483.85
473.13	9961.32
473.31	9495.55
473.49	9579.81
473.67	9703.86
473.85	9666.41
474.03	9874.72
474.21	9853.66
474.39	10150.90
474.57	10108.77
474.75	10076.01
474.93	10150.90
475.12	9902.81
475.30	10223.46
475.48	10188.35
475.66	10267.93
475.84	10319.42
476.02	10427.09
476.20	10511.35
476.38	10581.56
476.56	10686.89
476.74	10747.74
476.92	10747.74
477.10	10483.26
477.28	10906.90
477.46	11002.86
477.64	10888.17
477.82	11117.54
478.00	11220.53
478.18	11262.66
478.36	11332.87
478.54	11452.24
478.72	11288.40
478.90	11660.55
479.08	11609.06
479.26	11946.09
479.44	11824.39
479.62	11857.15
479.80	11974.18
479.98	12102.91
480.16	12528.89
480.34	12369.73
480.52	12521.87
480.70	12615.49
480.88	12184.83
481.06	12674.00
481.24	12678.68
481.41	12657.62
481.59	12865.92
481.77	12882.31
481.95	13004.02
482.13	13355.10
482.31	13249.77
482.49	13397.23
482.67	13460.42
482.85	13652.34
483.03	13671.07
483.21	13982.36
483.39	14036.19
483.57	13961.30
483.74	14066.62
483.92	14115.77
484.10	14293.65
484.28	14256.20
484.46	14494.94
484.64	14881.13
484.82	14693.88
485.00	14949.00
485.18	15035.60
485.35	15185.40
485.53	15051.99
485.71	14874.10
485.89	15218.16
486.07	15131.56
486.25	15459.24
486.43	15667.55
486.61	15522.43
486.78	15751.81
486.96	16002.24
487.14	16119.27
487.32	16240.98
487.50	16215.23
487.68	16753.55
487.85	16875.26
488.03	16603.76
488.21	17144.42
488.39	16910.37
488.57	17240.39
488.75	17394.86
488.92	17518.91
489.10	17628.92
489.28	17516.57
489.46	17830.20
489.64	18024.47
489.81	18188.30
489.99	18424.70
490.17	18633.00
490.35	18766.42
490.53	18487.89
490.70	18815.57
490.88	18988.77
491.06	19030.90
491.24	18895.14
491.41	19105.79
491.59	19435.81
491.77	19115.16
491.95	19543.47
492.13	19618.37
492.30	19491.98
492.48	19772.85
492.66	20093.50
492.84	20074.77
493.01	20402.45
493.19	19489.64
493.37	20409.47
493.54	20587.35
493.72	20746.51
493.90	20730.12
494.08	20800.34
494.25	20989.92
494.43	21085.89
494.61	21195.89
494.79	21671.02
494.96	21336.32
495.14	21259.09
495.32	21830.18
495.49	22005.72
495.67	22040.82
495.85	22209.34
496.02	22265.52
496.20	22106.36
496.38	22471.48
496.55	22464.46
496.73	22745.33
496.91	22792.14
497.09	22904.48
497.26	22960.66
497.44	23073.00
497.62	23257.90
497.79	23271.95
497.97	23391.31
498.14	23426.42
498.32	23700.26
498.50	23779.84
498.67	24025.60
498.85	24095.82
499.03	24180.07
499.20	24126.24
499.38	23943.68
499.56	23953.04
499.73	24250.29
499.91	24416.47
500.08	24650.52
500.26	24280.72
500.44	24498.39
500.61	24758.19
500.79	24421.15
500.97	24603.71
501.14	25207.57
501.32	24706.70
501.49	24856.49
501.67	25338.64
501.84	25406.52
502.02	25256.72
502.20	25626.53
502.37	25722.49
502.55	25785.68
502.72	25862.92
502.90	25848.88
503.07	25579.71
503.25	26085.27
503.43	26047.82
503.60	26197.62
503.78	26307.62
503.95	26611.89
504.13	26288.90
504.30	26576.78
504.48	26085.27
504.65	26728.92
504.83	26934.88
505.01	26511.25
505.18	26630.62
505.36	27035.53
505.53	27115.11
505.71	27030.85
505.88	27468.53
506.06	26934.88
506.23	27573.85
506.41	27400.65
506.58	27281.28
506.76	27702.58
506.93	28201.11
507.11	27938.97
507.28	28208.14
507.46	27775.14
507.63	27955.36
507.81	28032.60
507.98	28203.46
508.16	28376.66
508.33	28086.43
508.50	28013.87
508.68	28208.14
508.85	28648.16
509.03	28765.18
509.20	28549.85
509.38	29195.84
509.55	28699.65
509.73	29069.45
509.90	29160.73
510.08	28645.82
510.25	29198.18
510.42	29457.98
510.60	29532.88
510.77	29642.88
510.95	29261.38
511.12	29682.67
511.30	29312.87
511.47	29916.73
511.64	30188.23
511.82	30321.64
511.99	30047.80
512.17	30522.93
512.34	29832.47
512.51	30382.49
512.69	30403.56
512.86	30150.78
513.04	30726.55
513.21	30363.77
513.38	30707.83
513.56	30536.97
513.73	30349.73
513.90	30813.15
514.08	30969.97
514.25	31292.96
514.43	30775.70
514.60	30572.08
514.77	31117.42
514.95	31398.29
515.12	31131.47
515.29	31316.37
515.47	31564.46
515.64	31784.48
515.81	31409.99
515.99	31721.28
516.16	31819.58
516.33	31765.75
516.51	31494.25
516.68	31424.03
516.85	31590.21
517.03	31646.38
517.20	31709.58
517.37	32418.76
517.54	32259.60
517.72	31992.78
517.89	32329.82
518.06	32283.01
518.24	32437.48
518.41	32102.79
518.58	32580.26
518.75	32397.70
518.93	32491.32
519.10	32510.04
519.27	32797.93
519.45	32772.18
519.62	33221.56
519.79	33373.70
519.96	32933.68
520.14	33186.46
520.31	32692.60
520.48	33282.42
520.65	33373.70
520.83	33830.10
521.00	33792.65
521.17	33701.37
521.34	33472.00
521.52	33879.25
521.69	33905.00
521.86	33921.38
522.03	33783.29
522.20	33720.10
522.38	34202.25
522.55	34251.40
522.72	33900.32
522.89	34300.55
523.07	34504.18
523.24	34525.24
523.41	34466.73
523.58	34410.56
523.75	34958.24
523.92	34953.56
524.10	35047.18
524.27	35150.17
524.44	34773.34
524.61	35164.21
524.78	35089.31
524.96	34927.81
525.13	34986.33
525.30	35763.39
525.47	35866.37
525.64	35402.94
525.81	35089.31
525.98	35431.03
526.16	35365.49
526.33	35281.24
526.50	35505.93
526.67	35187.61
526.84	35669.76
527.01	35501.25
527.18	35693.17
527.36	35896.80
527.53	35906.16
527.70	36182.34
527.87	36404.69
528.04	35990.42
528.21	36128.51
528.38	36299.37
528.55	36439.80
528.72	36278.30
528.89	36517.04
529.07	36488.95
529.24	36231.49
529.41	36589.59
529.58	36306.39
529.75	36699.60
529.92	36807.26
530.09	36779.18
530.26	36858.76
530.43	36931.31
530.60	36341.50
530.77	37123.24
530.94	37151.32
531.11	37053.02
531.28	37151.32
531.46	37165.37
531.63	37397.08
531.80	36898.55
531.97	37287.07
532.14	37249.63
532.31	37017.91
532.48	37268.35
532.65	37584.32
532.82	37521.13
532.99	37617.09
533.16	37457.93
533.33	37514.11
533.50	37537.51
533.67	37984.55
533.84	37446.23
534.01	37996.26
534.18	37542.19
534.35	38029.02
534.52	37684.97
534.69	37818.38
534.86	38363.72
535.03	37986.89
535.20	38527.56
535.37	38565.01
535.54	38462.02
535.71	38520.54
535.88	38377.76
536.05	38452.66
536.22	38550.96
536.38	38478.41
536.55	38525.22
536.72	38471.39
536.89	38518.20
537.06	38323.93
537.23	38927.79
537.40	38630.54
537.57	38511.17
537.74	38841.19
537.91	39014.39
538.08	39150.14
538.25	38588.41
538.42	38857.57
538.59	39295.25
538.75	38792.04
538.92	39189.93
539.09	39746.98
539.26	39218.02
539.43	39009.71
539.60	39175.89
539.77	39253.12
539.94	39501.22
540.11	39257.81
540.28	39356.11
540.44	39519.95
540.61	38873.96
540.78	39260.15
540.95	39285.89
541.12	39529.31
541.29	39463.77
541.46	39648.68
541.62	39674.42
541.79	40484.25
541.96	39955.29
542.13	39634.63
542.30	40013.80
542.47	40116.78
542.63	39466.11
542.80	40011.46
542.97	40624.68
543.14	40788.52
543.31	40701.92
543.48	40128.48
543.64	40849.37
543.81	40505.31
543.98	40140.19
544.15	40790.86
544.32	40793.20
544.48	40650.42
544.65	41193.43
544.82	40804.90
544.99	40493.61
545.16	40788.52
545.32	40905.54
545.49	41109.17
545.66	41092.79
545.83	40776.81
546.00	41134.92
546.16	40711.28
546.33	40933.63
546.50	40453.82
546.67	40549.78
546.83	40407.01
547.00	41010.87
547.17	40786.18
547.34	40863.41
547.50	41296.41
547.67	41825.37
547.84	41230.88
548.00	41509.40
548.17	41481.31
548.34	41294.07
548.51	41570.25
548.67	42183.48
548.84	41720.05
549.01	41642.81
549.18	41453.23
549.34	41677.92
549.51	41951.76
549.68	41923.68
549.84	41818.35
550.01	42038.36
550.18	42272.42
550.34	42066.45
550.51	41745.80
550.68	42029.00
550.84	41691.96
551.01	41904.95
551.18	42265.39
551.34	41984.53
551.51	42012.62
551.68	42527.53
551.84	42267.73
552.01	41956.44
552.18	42373.06
552.34	41879.21
552.51	42424.55
552.68	42377.74
552.84	42398.80
553.01	42351.99
553.18	42321.57
553.34	42141.35
553.51	42012.62
553.67	42230.29
553.84	42548.60
554.01	42899.68
554.17	42508.81
554.34	43061.18
554.51	42422.21
554.67	42759.25
554.84	42803.72
555.00	42766.27
555.17	42850.53
555.33	42546.26
555.50	42880.95
555.67	43054.15
555.83	42555.62
556.00	42918.40
556.16	43257.78
556.33	42932.45
556.50	42916.06
556.66	43210.97
556.83	42810.74
556.99	43175.86
557.16	43456.73
557.32	43136.07
557.49	42756.91
557.65	42595.41
557.82	43159.48
557.98	43540.99
558.15	43426.30
558.32	43365.45
558.48	43150.12
558.65	43021.39
558.81	42899.68
558.98	43292.89
559.14	43470.77
559.31	43086.92
559.47	43154.80
559.64	43484.81
559.80	43124.37
559.97	43480.13
560.13	43377.15
560.30	43489.49
560.46	43519.92
560.63	43494.18
560.79	43407.58
560.96	43812.49
561.12	43618.22
561.29	43622.90
561.45	43646.31
561.61	43856.96
561.78	43449.70
561.94	43658.01
562.11	43503.54
562.27	43536.30
562.44	43873.34
562.60	44421.03
562.77	43929.51
562.93	43772.70
563.10	43789.08
563.26	43824.19
563.42	43988.03
563.59	43388.85
563.75	43590.14
563.92	43910.79
564.08	43922.49
564.24	43856.96
564.41	43913.13
564.57	43861.64
564.74	43817.17
564.90	43910.79
565.07	44147.18
565.23	43679.08
565.39	43707.16
565.56	44133.14
565.72	43730.57
565.88	44329.75
566.05	44322.72
566.21	44072.29
566.38	43756.32
566.54	43917.81
566.70	43856.96
566.87	44292.30
567.03	44018.46
567.19	44629.34
567.36	44383.58
567.52	43973.98
567.68	44296.98
567.85	44135.48
568.01	44320.38
568.17	44161.23
568.34	44638.70
568.50	44472.52
568.66	43592.48
568.83	44322.72
568.99	44013.77
569.15	44133.14
569.32	44486.56
569.48	43821.85
569.64	44547.42
569.81	44704.23
569.97	44245.49
570.13	44540.39
570.30	43962.28
570.46	44339.11
570.62	44240.81
570.78	43962.28
570.95	44009.09
571.11	44278.25
571.27	44315.70
571.43	44112.08
571.60	43885.04
571.76	44313.36
571.92	44163.57
572.09	44376.56
572.25	44020.80
572.41	44378.90
572.57	44278.25
572.74	44861.05
572.90	44575.50
573.06	44189.31
573.22	44758.06
573.38	44533.37
573.55	43992.71
573.71	44652.74
573.87	44257.19
574.03	44212.72
574.20	44610.61
574.36	44254.85
574.52	44940.63
574.68	44701.89
574.84	44526.35
575.01	44584.86
575.17	44215.06
575.33	44369.54
575.49	44442.09
575.65	44790.83
575.82	44706.57
575.98	44619.97
576.14	44842.32
576.30	44755.72
576.46	44437.41
576.62	44168.25
576.79	44304.00
576.95	44339.11
577.11	44114.42
577.27	44201.02
577.43	44769.77
577.59	44341.45
577.75	44615.29
577.92	44264.21
578.08	44114.42
578.24	43821.85
578.40	44266.55
578.56	44748.70
578.72	44718.28
578.88	44837.64
579.04	44573.16
579.21	44795.51
579.37	44292.30
579.53	44533.37
579.69	44060.58
579.85	44589.55
580.01	44367.20
580.17	44645.72
580.33	44816.58
580.49	44886.79
580.65	44914.88
580.82	44776.79
580.98	44130.80
581.14	44549.76
581.30	44718.28
581.46	44680.83
581.62	44652.74
581.78	44708.91
581.94	44957.01
582.10	44804.88
582.26	44851.69
582.42	44825.94
582.58	44903.18
582.74	44521.67
582.90	44634.02
583.06	45041.27
583.22	44577.84
583.38	44795.51
583.54	44568.48
583.70	44680.83
583.86	44737.00
584.02	44477.20
584.18	44795.51
584.34	44643.38
584.50	44865.73
584.66	44123.78
584.82	44126.12
584.98	44788.49
585.14	44774.45
585.30	44203.36
585.46	44294.64
585.62	44851.69
585.78	44905.52
585.94	44374.22
586.10	44552.10
586.26	44619.97
586.42	44861.05
586.58	44884.45
586.74	44856.37
586.90	44385.92
587.06	44680.83
587.22	44783.81
587.38	44605.93
587.54	44931.26
587.70	44781.47
587.86	45085.74
588.02	45132.55
588.18	45059.99
588.34	44353.15
588.49	44561.46
588.65	44444.43
588.81	44538.05
588.97	44479.54
589.13	44371.88
589.29	44624.65
589.45	45090.42
589.61	44779.13
589.77	45174.68
589.93	44882.11
590.08	44762.75
590.24	44942.97
590.40	44884.45
590.56	45198.09
590.72	45003.82
590.88	44201.02
591.04	45188.72
591.20	45275.32
591.35	44926.58
591.51	45509.38
591.67	45050.63
591.83	44942.97
591.99	44662.10
592.15	44891.48
592.31	45301.07
592.46	44861.05
592.62	44978.07
592.78	44814.24
592.94	45254.26
593.10	45127.87
593.26	45031.91
593.41	44734.66
593.57	44849.35
593.73	45174.68
593.89	45460.23
594.05	45020.20
594.20	45382.99
594.36	45165.32
594.52	44982.76
594.68	45280.00
594.84	45315.11
594.99	45443.84
595.15	44844.66
595.31	45432.14
595.47	45104.46
595.62	45027.23
595.78	45532.78
595.94	44807.22
596.10	45057.65
596.25	45305.75
596.41	44919.56
596.57	45333.84
596.73	45708.32
596.88	44708.91
597.04	45296.39
597.20	45071.70
597.36	44952.33
597.51	45483.63
597.67	45397.03
597.83	44912.54
597.99	44966.37
598.14	45045.95
598.30	44931.26
598.46	45132.55
598.61	45111.49
598.77	45125.53
598.93	44978.07
599.09	44917.22
599.24	45172.34
599.40	45233.19
599.56	45132.55
599.71	45029.57
599.87	45415.76
600.03	45537.46
600.18	44992.12
600.34	45347.88
600.50	45024.89
600.65	44830.62
600.81	45317.45
600.97	45521.08
601.12	45764.49
601.28	45563.21
601.44	45001.48
601.59	45188.72
601.75	44568.48
601.91	45329.16
602.06	45029.57
602.22	45209.79
602.37	45076.38
602.53	45495.33
602.69	45902.59
602.84	45010.84
603.00	44870.41
603.16	44753.38
603.31	45069.36
603.47	45230.85
603.62	44722.96
603.78	45432.14
603.94	44842.32
604.09	45481.29
604.25	45368.94
604.40	44924.24
604.56	44666.78
604.71	45315.11
604.87	44992.12
605.03	45223.83
605.18	45067.02
605.34	45127.87
605.49	44582.52
605.65	45052.97
605.80	45006.16
605.96	44980.42
606.12	45081.06
606.27	44971.05
606.43	45024.89
606.58	45034.25
606.74	44938.29
606.89	45083.40
607.05	45228.51
607.20	44715.93
607.36	44903.18
607.51	45769.18
607.67	45261.28
607.82	44772.11
607.98	45022.54
608.13	44767.43
608.29	44669.12
608.44	44931.26
608.60	44542.74
608.75	44065.27
608.91	44563.80
609.06	44500.61
609.22	44643.38
609.37	44573.16
609.53	44720.62
609.68	44526.35
609.84	44797.85
609.99	44725.30
610.15	44383.58
610.30	44463.16
610.46	44280.60
610.61	44486.56
610.76	44708.91
610.92	44491.24
611.07	44591.89
611.23	44151.87
611.38	44910.20
611.54	44215.06
611.69	44055.90
611.84	44156.55
612.00	44781.47
612.15	44643.38
612.31	44601.25
612.46	44196.34
612.62	44245.49
612.77	44526.35
612.92	44598.91
613.08	44079.31
613.23	44254.85
613.39	44306.34
613.54	44062.93
613.69	43913.13
613.85	44236.12
614.00	44568.48
614.15	44318.04
614.31	44156.55
614.46	44973.39
614.62	43990.37
614.77	44182.29
614.92	43955.26
615.08	44179.95
615.23	43894.41
615.38	43618.22
615.54	43566.73
615.69	43966.96
615.84	43461.41
616.00	43768.02
616.15	44112.08
616.30	44048.88
616.46	43737.59
616.61	43599.50
616.76	43798.44
616.92	43896.75
617.07	43384.17
617.22	43679.08
617.37	43714.19
617.53	43835.89
617.68	43789.08
617.83	43985.69
617.99	44002.07
618.14	43849.94
618.29	43569.07
618.45	43311.61
618.60	43496.52
618.75	43768.02
618.90	43255.44
619.06	43810.15
619.21	43454.39
619.36	43714.19
619.51	43112.67
619.67	43798.44
619.82	43796.10
619.97	43550.35
620.12	42777.97
620.28	43002.66
620.43	43225.01
620.58	43608.86
620.73	42885.64
620.89	43068.20
621.04	43683.76
621.19	43313.95
621.34	43143.09
621.49	42707.76
621.65	42756.91
621.80	43178.20
621.95	43021.39
622.10	42653.92
622.25	43229.69
622.41	42583.71
622.56	42642.22
622.71	43311.61
622.86	43241.40
623.01	42480.72
623.16	43084.58
623.32	42979.26
623.47	43388.85
623.62	43007.34
623.77	42670.31
623.92	42836.48
624.07	42541.58
624.23	42487.74
624.38	42506.47
624.53	42651.58
624.68	42590.73
624.83	42410.51
624.98	42932.45
625.13	42696.05
625.29	42579.03
625.44	42705.41
625.59	42157.73
625.74	42398.80
625.89	42092.19
626.04	41890.91
626.19	42316.89
626.34	42265.39
626.49	42492.43
626.65	42160.07
626.80	42632.86
626.95	42450.30
627.10	42087.51
627.25	42361.36
627.40	41993.89
627.55	42103.90
627.70	41151.30
627.85	42017.30
628.00	41151.30
628.15	42253.69
628.30	42185.82
628.45	42024.32
628.60	42410.51
628.76	41907.29
628.91	42036.02
629.06	41832.39
629.21	41942.40
629.36	41600.68
629.51	41387.69
629.66	41933.04
629.81	41691.96
629.96	41881.55
630.11	41528.13
630.26	41787.92
630.41	41825.37
630.56	41837.08
630.71	41406.42
630.86	41460.25
631.01	41677.92
631.16	41338.54
631.31	41280.03
631.46	41029.59
631.61	41324.50
631.76	41605.36
631.91	41177.04
632.06	41577.28
632.21	41216.83
632.36	41336.20
632.51	40905.54
632.66	40975.76
632.81	41174.70
632.96	40844.69
633.10	40893.84
633.25	40882.14
633.40	41165.34
633.55	41219.17
633.70	41179.39
633.85	41106.83
634.00	41188.75
634.15	41263.64
634.30	41001.50
634.45	40655.11
634.60	40947.67
634.75	40325.09
634.90	40793.20
635.05	40882.14
635.19	40730.00
635.34	40964.06
635.49	40844.69
635.64	40680.85
635.79	40414.03
635.94	40662.13
636.09	40662.13
636.24	40751.07
636.39	40236.15
636.53	40451.48
636.68	40301.68
636.83	40268.92
636.98	40306.37
637.13	40215.08
637.28	40627.02
637.43	40465.52
637.57	40666.81
637.72	40481.91
637.87	40245.51
638.02	40545.10
638.17	40229.13
638.32	40217.43
638.46	40051.25
638.61	39693.15
638.76	40025.50
638.91	39800.81
639.06	40095.72
639.20	40224.45
639.35	39976.35
639.50	39997.41
639.65	40187.00
639.80	40369.56
639.94	40203.38
640.09	40023.16
640.24	39952.94
640.39	39402.92
640.54	39571.44
640.68	39412.28
640.83	39999.76
640.98	40055.93
641.13	39842.94
641.27	39861.66
641.42	39227.38
641.57	40198.70
641.72	39618.25
641.86	39819.53
642.01	39779.74
642.16	39487.18
642.31	38822.47
642.45	39377.17
642.60	38995.67
642.75	39194.61
642.90	39180.57
643.04	38995.67
643.19	38923.11
643.34	39643.99
643.48	39552.71
643.63	39433.35
643.78	39220.36
643.93	38852.89
644.07	38939.49
644.22	39489.52
644.37	39049.50
644.51	38932.47
644.66	39313.98
644.81	39255.46
644.95	39431.01
645.10	39374.83
645.25	39370.15
645.39	39335.04
645.54	39108.01
645.69	38731.18
645.83	38707.78
645.98	38941.83
646.13	39000.35
646.27	39105.67
646.42	38969.92
646.57	38960.56
646.71	38845.87
646.86	38759.27
647.00	38618.84
647.15	38986.30
647.30	39051.84
647.44	38770.97
647.59	39049.50
647.74	39026.09
647.88	38717.14
648.03	38623.52
648.17	38543.94
648.32	38218.61
648.47	38831.83
648.61	38555.64
648.76	38457.34
648.90	38536.92
649.05	38450.32
649.20	38555.64
649.34	38604.80
649.49	38375.42
649.63	38185.84
649.78	38333.29
649.92	38391.81
650.07	38373.08
650.21	38527.56
650.36	38492.45
650.51	38026.68
650.65	38190.52
650.80	38679.69
650.94	38850.55
651.09	38094.56
651.23	38237.33
651.38	38352.02
651.52	37904.98
651.67	38363.72
651.81	38075.84
651.96	38316.91
652.10	38234.99
652.25	38059.45
652.39	37591.34
652.54	38012.64
652.68	37862.85
652.83	38005.62
652.97	37825.40
653.12	37855.82
653.26	37408.78
653.41	37816.04
653.55	37298.78
653.70	37596.03
653.84	37532.83
653.99	38019.66
654.13	37455.59
654.27	37670.92
654.42	37539.85
654.56	37361.97
654.71	37258.99
654.85	37542.19
655.00	37476.66
655.14	36938.33
655.29	36842.37
655.43	37120.90
655.57	37212.18
655.72	36900.89
655.86	36584.91
656.01	37139.62
656.15	36662.15
656.30	37102.17
656.44	37088.13
656.58	37233.24
656.73	37015.57
656.87	36692.58
657.01	36624.70
657.16	37038.98
657.30	36694.92
657.45	36444.48
657.59	36854.08
657.73	36254.90
657.88	36858.76
658.02	36828.33
658.16	36692.58
658.31	36566.19
658.45	36868.12
658.60	36596.62
658.74	36833.01
658.88	36411.71
659.03	36210.43
659.17	36357.88
659.31	36769.82
659.46	36690.24
659.60	36194.04
659.74	35936.59
659.89	36467.89
660.03	36002.12
660.17	36201.07
660.32	36102.76
660.46	36196.38
660.60	36561.51
660.74	36041.91
660.89	36004.46
661.03	35842.96
661.17	35634.66
661.32	35625.29
661.46	35608.91
661.60	35899.14
661.74	35826.58
661.89	35969.35
662.03	35622.95
662.17	35541.03
662.31	35079.95
662.46	35700.19
662.60	35658.06
662.74	35707.21
662.88	35243.79
663.03	35531.67
663.17	35372.52
663.31	35164.21
663.45	35009.73
663.60	35145.48
663.74	35119.74
663.88	35117.40
664.02	35337.41
664.17	34717.17
664.31	34541.63
664.45	34712.49
664.59	34998.03
664.73	34995.69
664.88	35103.35
665.02	34497.16
665.16	34485.45
665.30	34604.82
665.44	34094.58
665.59	34185.86
665.73	34015.01
665.87	34319.28
666.01	34298.21
666.15	34424.60
666.29	34197.57
666.44	34581.42
666.58	34373.11
666.72	34321.62
666.86	34307.57
667.00	34569.71
667.14	34033.73
667.28	33846.49
667.43	33642.86
667.57	34227.99
667.71	33610.09
667.85	33673.29
667.99	33797.34
668.13	33530.51
668.27	33474.34
668.41	33366.68
668.56	33170.07
668.70	33228.59
668.84	33329.23
668.98	33174.75
669.12	33046.02
669.26	32833.04
669.40	33006.23
669.54	32903.25
669.68	33385.40
669.82	32938.36
669.96	32755.80
670.10	32788.56
670.25	32877.51
670.39	32673.88
670.53	32474.93
670.67	32488.98
670.81	32999.21
670.95	32704.31
671.09	32643.45
671.23	32769.84
671.37	32496.00
671.51	32261.94
671.65	32304.07
671.79	32004.49
671.93	31842.99
672.07	32247.90
672.21	32032.57
672.35	31770.43
672.49	31943.63
672.63	32156.62
672.77	31835.97
672.91	31562.12
673.05	31339.77
673.19	31379.56
673.33	31028.48
673.47	31330.41
673.61	31307.01
673.75	30810.81
673.89	30813.15
674.03	30918.48
674.17	30572.08
674.31	31070.61
674.45	30962.95
674.59	30920.82
674.73	31000.40
674.87	30637.61
675.01	30572.08
675.15	30714.85
675.29	30892.73
675.43	30483.14
675.56	30452.71
675.70	30398.88
675.84	30017.37
675.98	29113.92
676.12	30204.61
676.26	30216.32
676.40	29743.53
676.54	29839.49
676.68	29699.06
676.82	29237.97
676.96	29467.34
677.10	29490.75
677.23	29558.63
677.37	29160.73
677.51	29277.76
677.65	29439.26
677.79	28732.42
677.93	29022.64
678.07	29029.66
678.21	28741.78
678.34	28683.27
678.48	28606.03
678.62	28535.81
678.76	28411.76
678.90	28173.03
679.04	28535.81
679.18	28215.16
679.31	28264.31
679.45	28247.93
679.59	28137.92
679.73	27590.24
679.87	28102.81
680.00	27615.98
680.14	27997.49
680.28	27498.95
680.42	27447.46
680.56	27641.73
680.70	27468.53
680.83	27433.42
680.97	26553.38
681.11	27117.45
681.25	26719.56
681.39	26965.31
681.52	27145.53
681.66	26698.49
681.80	27096.38
681.94	26441.03
682.07	26150.81
682.21	26263.15
682.35	26228.04
682.49	26211.66
682.62	26277.19
682.76	26038.46
682.90	26120.38
683.04	26218.68
683.17	26235.06
683.31	25685.04
683.45	26185.91
683.59	25378.43
683.72	25429.92
683.86	25184.16
684.00	25249.70
684.13	25373.75
684.27	25575.03
684.41	25174.80
684.55	24706.70
684.68	24966.49
684.82	24725.42
684.96	24858.83
685.09	24566.26
685.23	24964.15
685.37	24322.85
685.50	24273.70
685.64	24142.63
685.78	24360.30
685.91	24205.82
686.05	23726.01
686.19	23686.22
686.32	23803.25
686.46	23501.32
686.60	23482.59
686.73	23417.06
686.87	23484.94
687.01	23222.80
687.14	23068.32
687.28	23185.35
687.42	23042.57
687.55	22707.88
687.69	22640.00
687.82	22988.74
687.96	22764.05
688.10	22958.31
688.23	22841.29
688.37	22197.64
688.50	22260.84
688.64	22082.95
688.78	22075.93
688.91	22265.52
689.05	22274.88
689.18	21921.46
689.32	21902.73
689.46	22111.04
689.59	22089.98
689.73	22427.01
689.86	21591.44
690.00	21275.47
690.13	21837.20
690.27	21535.27
690.41	21493.14
690.54	21263.77
690.68	21294.19
690.81	20978.22
690.95	20933.75
691.08	20950.14
691.22	20884.60
691.35	20961.84
691.49	20908.01
691.62	20992.26
691.76	20610.76
691.89	20781.62
692.03	20613.10
692.16	20460.96
692.30	20458.62
692.43	20088.82
692.57	20128.61
692.70	20276.06
692.84	20046.69
692.97	19920.30
693.11	19618.37
693.24	19765.82
693.38	19805.61
693.51	19468.58
693.65	19517.73
693.78	19206.44
693.92	19241.54
694.05	19178.35
694.19	19161.97
694.32	19150.26
694.45	19082.39
694.59	18820.25
694.72	18817.91
694.86	18637.69
694.99	18822.59
695.13	18544.06
695.26	18211.71
695.39	18178.94
695.53	18892.80
695.66	18462.15
695.80	18473.85
695.93	18008.08
696.07	18097.02
696.20	18071.28
696.33	18104.04
696.47	17965.95
696.60	18134.47
696.73	17769.35
696.87	17509.55
697.00	17834.88
697.14	17675.73
697.27	17493.16
697.40	17165.49
697.54	17495.50
697.67	17064.85
697.80	17195.92
697.94	17441.67
698.07	17071.87
698.21	16849.52
698.34	17205.28
698.47	16727.81
698.61	16187.14
698.74	16833.13
698.87	16540.57
699.01	16528.86
699.14	16098.20
699.27	16486.73
699.40	16435.24
699.54	16201.19
699.67	16147.36
699.80	16393.11
699.94	16100.55
700.07	16259.70
700.20	15829.04
700.34	15728.40
700.47	15985.86
700.60	15957.77
700.73	15494.35
700.87	15651.16
701.00	15431.15
701.13	15426.47
701.26	15552.86
701.40	15421.79
701.53	15351.57
701.66	15199.44
701.79	15084.75
701.93	15063.69
702.06	14934.96
702.19	14869.42
702.32	14918.57
702.46	14553.45
702.59	14780.48
702.72	14691.54
702.85	14738.35
702.99	14803.89
703.12	14792.19
703.25	14679.84
703.38	14417.70
703.51	14239.82
703.65	14291.31
703.78	14431.74
703.91	14047.90
704.04	14001.08
704.17	13968.32
704.31	13788.10
704.44	13610.22
704.57	13432.33
704.70	13811.50
704.83	13600.85
704.96	13858.31
705.10	13799.80
705.23	13603.19
>>>>>End Processed Spectral Data<<<<<
