SpectraSuite Data File
++++++++++++++++++++++++++++++++++++
Date: Fri Oct 25 11:33:40 EDT 2013
User: price-jones
Dark Spectrum Present: No
Reference Spectrum Present: No
Number of Sampled Component Spectra: 1
Spectrometers: USB2+H05261
Integration Time (usec): 100000 (USB2+H05261)
Spectra Averaged: 1 (USB2+H05261)
Boxcar Smoothing: 0 (USB2+H05261)
Correct for Electrical Dark: No (USB2+H05261)
Strobe/Lamp Enabled: No (USB2+H05261)
Correct for Detector Non-linearity: No (USB2+H05261)
Correct for Stray Light: No (USB2+H05261)
Number of Pixels in Processed Spectrum: 2048
>>>>>Begin Processed Spectral Data<<<<<
365.73	285.55
365.92	285.55
366.12	285.55
366.32	189.58
366.52	184.90
366.72	198.95
366.91	126.39
367.11	161.50
367.31	163.84
367.51	175.54
367.70	168.52
367.90	198.95
368.10	140.43
368.30	145.11
368.49	212.99
368.69	224.69
368.89	220.01
369.09	142.77
369.28	175.54
369.48	208.31
369.68	217.67
369.87	175.54
370.07	191.92
370.27	236.39
370.47	315.97
370.66	510.24
370.86	465.77
371.06	608.54
371.25	594.50
371.45	585.13
371.65	643.65
371.84	505.56
372.04	512.58
372.24	533.64
372.44	564.07
372.63	683.44
372.83	535.98
373.03	554.71
373.22	571.09
373.42	603.86
373.62	676.41
373.81	603.86
374.01	622.58
374.21	643.65
374.40	678.76
374.60	622.58
374.79	657.69
374.99	716.20
375.19	688.12
375.38	580.45
375.58	613.22
375.78	678.76
375.97	697.48
376.17	723.23
376.37	671.73
376.56	650.67
376.76	695.14
376.95	688.12
377.15	713.86
377.35	685.78
377.54	720.88
377.74	667.05
377.93	664.71
378.13	688.12
378.33	692.80
378.52	660.03
378.72	716.20
378.91	777.06
379.11	688.12
379.31	720.88
379.50	737.27
379.70	748.97
379.89	734.93
380.09	709.18
380.28	777.06
380.48	777.06
380.68	711.52
380.87	688.12
381.07	809.83
381.26	765.36
381.46	784.08
381.65	720.88
381.85	786.42
382.04	777.06
382.24	770.04
382.43	720.88
382.63	795.78
382.83	784.08
383.02	826.21
383.22	884.72
383.41	777.06
383.61	763.01
383.80	847.27
384.00	727.91
384.19	744.29
384.39	816.85
384.58	847.27
384.78	791.10
384.97	765.36
385.17	798.12
385.36	777.06
385.56	821.53
385.75	821.53
385.95	837.91
386.14	828.55
386.34	807.48
386.53	837.91
386.72	870.68
386.92	891.74
387.11	842.59
387.31	861.32
387.50	866.00
387.70	816.85
387.89	938.55
388.09	901.11
388.28	856.64
388.48	894.08
388.67	910.47
388.86	870.68
389.06	945.58
389.25	931.53
389.45	826.21
389.64	919.83
389.84	1022.81
390.03	901.11
390.22	1008.77
390.42	936.21
390.61	997.07
390.81	945.58
391.00	983.02
391.19	950.26
391.39	1027.50
391.58	1008.77
391.78	1036.86
391.97	1057.92
392.16	959.62
392.36	1102.39
392.55	1048.56
392.75	1076.65
392.94	1060.26
393.13	994.73
393.33	1048.56
393.52	1116.44
393.71	1167.93
393.91	1067.28
394.10	1043.88
394.29	1142.18
394.49	1067.28
394.68	1130.48
394.88	1088.35
395.07	1146.86
395.26	1097.71
395.46	1219.42
395.65	1172.61
395.84	1184.31
396.04	1256.87
396.23	1203.04
396.42	1177.29
396.62	1266.23
396.81	1224.10
397.00	1261.55
397.19	1219.42
397.39	1191.33
397.58	1163.25
397.77	1275.59
397.97	1231.12
398.16	1259.21
398.35	1299.00
398.55	1301.34
398.74	1270.91
398.93	1341.13
399.12	1263.89
399.32	1207.72
399.51	1334.11
399.70	1320.06
399.90	1352.83
400.09	1336.45
400.28	1434.75
400.47	1355.17
400.67	1392.62
400.86	1418.36
401.05	1425.39
401.24	1369.21
401.44	1413.68
401.63	1448.79
401.82	1455.81
402.01	1352.83
402.21	1493.26
402.40	1476.88
402.59	1523.69
402.78	1455.81
402.97	1551.78
403.17	1577.52
403.36	1504.96
403.55	1533.05
403.74	1680.50
403.93	1645.40
404.13	1598.59
404.32	1607.95
404.51	1558.80
404.70	1645.40
404.89	1603.27
405.09	1755.40
405.28	1748.38
405.47	1654.76
405.66	1743.70
405.85	1640.72
406.05	1734.34
406.24	1757.74
406.43	1760.08
406.62	1811.57
406.81	1860.73
407.00	1795.19
407.20	1687.53
407.39	1827.96
407.58	1907.54
407.77	1837.32
407.96	1865.41
408.15	1851.36
408.34	1940.30
408.54	1879.45
408.73	1870.09
408.92	1998.82
409.11	2012.86
409.30	1954.35
409.49	2073.71
409.68	2094.78
409.87	2115.84
410.07	2066.69
410.26	2073.71
410.45	2099.46
410.64	2218.83
410.83	2078.40
411.02	2160.31
411.21	2113.50
411.40	2111.16
411.59	2167.34
411.78	2186.06
411.98	2267.98
412.17	2150.95
412.36	2207.13
412.55	2272.66
412.74	2333.51
412.93	2342.88
413.12	2326.49
413.31	2420.11
413.50	2443.52
413.69	2377.98
413.88	2539.48
414.07	2525.44
414.26	2471.61
414.45	2530.12
414.64	2555.86
414.83	2518.42
415.02	2642.46
415.22	2740.77
415.41	2712.68
415.60	2703.32
415.79	2600.34
415.98	2808.64
416.17	2722.04
416.36	2764.17
416.55	2743.11
416.74	2778.22
416.93	2670.55
417.12	2752.47
417.31	2909.29
417.50	2747.79
417.69	3000.57
417.88	3005.25
418.07	2902.26
418.26	3014.61
418.45	2981.84
418.64	2932.69
418.83	3033.33
419.02	3038.02
419.21	3047.38
419.39	3110.57
419.58	3145.68
419.77	3133.98
419.96	3148.02
420.15	3208.87
420.34	3241.64
420.53	3274.41
420.72	3211.22
420.91	3339.94
421.10	3260.37
421.29	3314.20
421.48	3279.09
421.67	3281.43
421.86	3229.94
422.05	3260.37
422.24	3346.97
422.43	3337.60
422.61	3368.03
422.80	3433.57
422.99	3417.18
423.18	3358.67
423.37	3414.84
423.56	3349.31
423.75	3424.20
423.94	3389.10
424.13	3332.92
424.32	3424.20
424.50	3459.31
424.69	3531.87
424.88	3466.33
425.07	3585.70
425.26	3421.86
425.45	3375.05
425.64	3356.33
425.83	3279.09
426.01	3463.99
426.20	3562.30
426.39	3559.95
426.58	3449.95
426.77	3475.70
426.96	3431.23
427.15	3433.57
427.33	3487.40
427.52	3581.02
427.71	3552.93
427.90	3651.24
428.09	3655.92
428.28	3639.53
428.46	3639.53
428.65	3611.45
428.84	3772.94
429.03	3751.88
429.22	3723.79
429.40	3754.22
429.59	3789.33
429.78	3763.58
429.97	3531.87
430.16	3719.11
430.34	3904.01
430.53	3985.93
430.72	3971.89
430.91	3801.03
431.10	3953.16
431.28	3929.76
431.47	4014.02
431.66	4035.08
431.85	3995.29
432.03	4035.08
432.22	4107.64
432.41	4035.08
432.60	4084.23
432.79	4049.13
432.97	4067.85
433.16	4100.62
433.35	4065.51
433.54	4161.47
433.72	4201.26
433.91	4140.41
434.10	4255.09
434.28	4117.00
434.47	4205.94
434.66	4149.77
434.85	4447.02
435.03	4353.40
435.22	4278.50
435.41	4500.85
435.59	4337.01
435.78	4402.55
435.97	4540.64
436.16	4411.91
436.34	4393.19
436.53	4454.04
436.72	4486.81
436.90	4390.84
437.09	4674.05
437.28	4379.14
437.46	4454.04
437.65	4608.51
437.84	4585.11
438.02	4608.51
438.21	4699.80
438.40	4617.88
438.58	4521.92
438.77	4805.12
438.96	4751.29
439.14	4809.80
439.33	4894.06
439.52	4882.36
439.70	5032.15
439.89	4933.85
440.08	5025.13
440.26	5057.90
440.45	5013.43
440.63	4987.68
440.82	5153.86
441.01	5167.90
441.19	5252.16
441.38	5128.11
441.57	5146.84
441.75	5301.31
441.94	5427.70
442.12	5458.13
442.31	5427.70
442.50	5254.50
442.68	5390.25
442.87	5495.58
443.05	5610.26
443.24	5514.30
443.43	5528.35
443.61	5518.98
443.80	5834.96
443.98	5376.21
444.17	5200.67
444.35	5540.05
444.54	5565.79
444.73	5687.50
444.91	5474.51
445.10	5526.00
445.28	5617.29
445.47	5586.86
445.65	5568.13
445.84	5741.33
446.02	5795.17
446.21	5858.36
446.39	5802.19
446.58	6076.03
446.77	5741.33
446.95	5722.61
447.14	5722.61
447.32	5731.97
447.51	5666.44
447.69	5865.38
447.88	5926.24
448.06	5776.44
448.25	5692.18
448.43	5977.73
448.62	5664.10
448.80	5774.10
448.99	5858.36
449.17	5970.71
449.36	5870.06
449.54	6108.80
449.73	6010.50
449.91	6171.99
450.10	6183.70
450.28	5970.71
450.46	6146.25
450.65	6003.47
450.83	6078.37
451.02	6087.73
451.20	6324.13
451.39	6129.86
451.57	6134.54
451.76	6134.54
451.94	6225.82
452.13	6251.57
452.31	6307.74
452.49	6125.18
452.68	6314.77
452.86	6167.31
453.05	6403.71
453.23	6293.70
453.42	6300.72
453.60	6410.73
453.78	6380.30
453.97	6445.84
454.15	6644.78
454.34	6539.46
454.52	6712.66
454.70	6623.72
454.89	6647.12
455.07	6511.37
455.26	6672.87
455.44	6640.10
455.62	6878.83
455.81	6656.48
455.99	6752.45
456.17	6722.02
456.36	6864.79
456.54	6700.95
456.73	6817.98
456.91	7101.19
457.09	6834.36
457.28	6991.18
457.46	7030.97
457.64	7131.61
457.83	7075.44
458.01	7054.37
458.19	7246.30
458.38	7019.27
458.56	7152.68
458.74	7091.82
458.93	7110.55
459.11	7192.47
459.29	7321.20
459.48	7321.20
459.66	7393.75
459.84	7339.92
460.03	7468.65
460.21	7403.11
460.39	7372.69
460.57	7360.98
460.76	7538.87
460.94	7456.95
461.12	7557.59
461.31	7452.27
461.49	7506.10
461.67	7520.14
461.85	7679.30
462.04	7648.87
462.22	8077.19
462.40	7775.26
462.59	7889.95
462.77	7585.68
462.95	7985.91
463.13	7873.56
463.32	7885.26
463.50	7868.88
463.68	7922.71
463.86	7885.26
464.05	7906.33
464.23	7906.33
464.41	7983.57
464.59	7770.58
464.78	8105.28
464.96	8074.85
465.14	7971.86
465.32	8067.83
465.50	8030.38
465.69	8098.25
465.87	8149.75
466.05	8198.90
466.23	8035.06
466.41	8154.43
466.60	8355.71
466.78	8067.83
466.96	8084.21
467.14	8308.90
467.32	8234.00
467.51	8299.54
467.69	8215.28
467.87	8372.10
468.05	8477.42
468.23	8362.73
468.41	8430.61
468.60	8381.46
468.78	8561.68
468.96	8552.32
469.14	8634.24
469.32	8624.87
469.50	8484.44
469.69	8744.24
469.87	8809.78
470.05	8709.13
470.23	8805.10
470.41	8814.46
470.59	9046.17
470.77	8788.71
470.95	8830.84
471.14	8957.23
471.32	8830.84
471.50	9085.96
471.68	9102.34
471.86	9135.11
472.04	9085.96
472.22	9149.15
472.40	9060.21
472.58	8987.66
472.77	9217.03
472.95	9514.28
473.13	9701.52
473.31	9350.44
473.49	9528.32
473.67	9448.74
473.85	9570.45
474.03	9657.05
474.21	9701.52
474.39	9902.81
474.57	9722.59
474.75	9741.31
474.93	10012.81
475.12	10045.58
475.30	9996.43
475.48	9771.74
475.66	10008.13
475.84	9973.02
476.02	10169.63
476.20	10197.71
476.38	10176.65
476.56	10513.69
476.74	10623.69
476.92	10530.07
477.10	10394.32
477.28	10642.42
477.46	10633.05
477.64	10782.85
477.82	10789.87
478.00	11293.08
478.18	11105.84
478.36	11222.87
478.54	11417.13
478.72	11419.47
478.90	11571.61
479.08	11527.14
479.26	11609.06
479.44	11714.38
479.62	11803.32
479.80	12035.03
479.98	11925.03
480.16	12131.00
480.34	11960.14
480.52	12311.22
480.70	12339.30
480.88	12138.02
481.06	12400.16
481.24	12421.22
481.41	12716.13
481.59	12655.28
481.77	12582.72
481.95	12767.62
482.13	12924.44
482.31	13298.92
482.49	13266.16
482.67	13109.34
482.85	13551.70
483.03	13462.76
483.21	13762.35
483.39	13851.29
483.57	13785.76
483.74	13930.87
483.92	14120.45
484.10	14068.96
484.28	14319.40
484.46	14626.01
484.64	14651.75
484.82	14478.55
485.00	14829.63
485.18	14848.36
485.35	15227.53
485.53	14927.94
485.71	15433.49
485.89	15515.41
486.07	15494.35
486.25	15515.41
486.43	15445.20
486.61	15690.95
486.78	15847.77
486.96	16063.10
487.14	16229.27
487.32	16311.19
487.50	16196.51
487.68	16578.01
487.85	16666.95
488.03	16755.90
488.21	17263.79
488.39	16751.21
488.57	17032.08
488.75	17083.57
488.92	17268.47
489.10	17334.01
489.28	17598.49
489.46	17926.16
489.64	17851.27
489.81	18143.83
489.99	18010.42
490.17	18113.41
490.35	18658.75
490.53	18523.00
490.70	18860.04
490.88	18415.34
491.06	18773.44
491.24	18920.89
491.41	19002.81
491.59	19552.84
491.77	19180.69
491.95	19452.19
492.13	19651.14
492.30	19653.48
492.48	19871.15
492.66	19789.23
492.84	19999.88
493.01	20304.15
493.19	20247.97
493.37	20467.98
493.54	20269.04
493.72	20475.01
493.90	20891.62
494.08	20702.04
494.25	21053.12
494.43	21050.78
494.61	21301.22
494.79	21483.78
494.96	21584.42
495.14	21706.13
495.32	21661.66
495.49	21490.80
495.67	21949.54
495.85	21743.58
496.02	21982.31
496.20	22150.83
496.38	22710.22
496.55	22450.42
496.73	23180.67
496.91	22981.72
497.09	22672.77
497.26	22967.68
497.44	22918.53
497.62	23342.16
497.79	23992.83
497.97	23339.82
498.14	23463.87
498.32	23803.25
498.50	23637.07
498.67	24175.39
498.85	23433.44
499.03	24025.60
499.20	24285.40
499.38	24135.60
499.56	24189.44
499.73	24697.33
499.91	24849.47
500.08	24805.00
500.26	24610.73
500.44	24961.81
500.61	24720.74
500.79	24922.02
500.97	24987.56
501.14	25371.41
501.32	25401.83
501.49	25343.32
501.67	25521.20
501.84	26111.02
502.02	25577.37
502.20	25596.10
502.37	25738.87
502.55	25649.93
502.72	26052.50
502.90	25727.17
503.07	25893.35
503.25	25874.62
503.43	26242.09
503.60	26335.71
503.78	26630.62
503.95	26291.24
504.13	26260.81
504.30	26632.96
504.48	26855.31
504.65	27000.42
504.83	27145.53
505.01	27424.06
505.18	27136.17
505.36	27543.42
505.53	27264.90
505.71	27218.09
505.88	27463.85
506.06	26993.40
506.23	27651.09
506.41	27749.39
506.58	27559.81
506.76	27604.28
506.93	28432.83
507.11	27786.84
507.28	28048.98
507.46	28065.36
507.63	28205.80
507.81	28528.79
507.98	28280.69
508.16	28430.49
508.33	28458.57
508.50	28910.30
508.68	28776.89
508.85	28982.85
509.03	28968.81
509.20	29017.96
509.38	29420.53
509.55	29670.97
509.73	29139.67
509.90	29448.62
510.08	29755.23
510.25	29326.91
510.42	29619.48
510.60	29764.59
510.77	29900.34
510.95	30253.76
511.12	29820.77
511.30	30230.36
511.47	30015.03
511.64	30085.25
511.82	30352.07
511.99	30148.44
512.17	30398.88
512.34	30583.78
512.51	30623.57
512.69	31154.87
512.86	30731.23
513.04	31316.37
513.21	30951.24
513.38	31363.18
513.56	31253.17
513.73	30934.86
513.90	31297.64
514.08	31278.92
514.25	31548.08
514.43	31559.78
514.60	31264.88
514.77	31433.39
514.95	31770.43
515.12	31910.86
515.29	31236.79
515.47	31983.42
515.64	32011.51
515.81	31852.35
515.99	32278.33
516.16	32418.76
516.33	32222.16
516.51	32584.94
516.68	32531.11
516.85	32730.05
517.03	32968.79
517.20	32767.50
517.37	32912.61
517.54	33247.31
517.72	33354.97
517.89	32652.81
518.06	33041.34
518.24	33315.19
518.41	33022.62
518.58	33111.56
518.75	33263.69
518.93	33804.36
519.10	33191.14
519.27	33481.36
519.45	33317.53
519.62	33865.21
519.79	33649.88
519.96	34024.37
520.14	33596.05
520.31	33806.70
520.48	34068.84
520.65	33701.37
520.83	34403.53
521.00	34452.69
521.17	34693.76
521.34	34387.15
521.52	34312.25
521.69	34361.40
521.86	34356.72
522.03	35108.04
522.20	34799.08
522.38	35459.12
522.55	35292.94
522.72	35143.14
522.89	34836.53
523.07	35517.63
523.24	35377.20
523.41	35615.93
523.58	35173.57
523.75	35931.90
523.92	35278.89
524.10	35669.76
524.27	35608.91
524.44	35358.47
524.61	35426.35
524.78	35672.10
524.96	36102.76
525.13	36369.58
525.30	36306.39
525.47	36086.38
525.64	36238.51
525.81	36053.61
525.98	36514.70
526.16	36062.97
526.33	35952.97
526.50	36613.00
526.67	36381.29
526.84	36758.11
527.01	36369.58
527.18	36704.28
527.36	36914.93
527.53	36978.12
527.70	37174.73
527.87	36926.63
528.04	36950.04
528.21	37123.24
528.38	37240.26
528.55	37188.77
528.72	37549.21
528.89	36968.76
529.07	37165.37
529.24	37420.48
529.41	37361.97
529.58	37652.20
529.75	37179.41
529.92	37790.29
530.09	37605.39
530.26	37668.58
530.43	38007.96
530.60	37525.81
530.77	37858.17
530.94	38047.75
531.11	37603.05
531.28	38192.86
531.46	38012.64
531.63	38195.20
531.80	37853.48
531.97	38237.33
532.14	38328.61
532.31	38539.26
532.48	38518.20
532.65	39035.45
532.82	38550.96
532.99	38789.70
533.16	38656.29
533.33	38672.67
533.50	38913.75
533.67	38597.77
533.84	38527.56
534.01	39243.76
534.18	38937.15
534.35	39316.32
534.52	39227.38
534.69	39541.01
534.86	39622.93
535.03	39384.19
535.20	39358.45
535.37	39501.22
535.54	39622.93
535.71	39484.84
535.88	39512.92
536.05	39405.26
536.22	39798.47
536.38	40304.02
536.55	39920.18
536.72	39772.72
536.89	39725.91
537.06	39674.42
537.23	40170.61
537.40	39981.03
537.57	39555.05
537.74	40123.80
537.91	40477.22
538.08	40191.68
538.25	40133.17
538.42	40250.19
538.59	40722.98
538.75	40030.18
538.92	40498.29
539.09	40041.88
539.26	40591.91
539.43	40692.55
539.60	40940.65
539.77	40718.30
539.94	40460.84
540.11	41071.72
540.28	40680.85
540.44	40807.24
540.61	40676.17
540.78	40779.15
540.95	40863.41
541.12	41223.86
541.29	40957.03
541.46	41069.38
541.62	40875.12
541.79	41621.75
541.96	40666.81
542.13	41081.08
542.30	41022.57
542.47	41268.33
542.63	41727.07
542.80	41371.31
542.97	41961.12
543.14	42169.43
543.31	41722.39
543.48	41523.44
543.64	42038.36
543.81	41904.95
543.98	42124.96
544.15	41972.83
544.32	42241.99
544.48	42590.73
544.65	42281.78
544.82	42127.30
544.99	42363.70
545.16	42925.42
545.32	42234.97
545.49	42490.09
545.66	42845.85
545.83	42777.97
546.00	42747.54
546.16	42527.53
546.33	42742.86
546.50	42689.03
546.67	42780.31
546.83	42288.80
547.00	42337.95
547.17	42602.43
547.34	42447.96
547.50	42887.98
547.67	43093.94
547.84	43304.59
548.00	43351.40
548.17	43215.65
548.34	43021.39
548.51	43421.62
548.67	43800.79
548.84	43220.33
549.01	43096.28
549.18	43253.10
549.34	43143.09
549.51	43393.53
549.68	43723.55
549.84	43531.62
550.01	43421.62
550.18	43320.98
550.34	43643.97
550.51	43899.09
550.68	43702.48
550.84	43358.42
551.01	43931.86
551.18	43903.77
551.34	43746.95
551.51	44304.00
551.68	43892.07
551.84	44112.08
552.01	43772.70
552.18	44313.36
552.34	44011.43
552.51	44093.35
552.68	43915.47
552.84	43917.81
553.01	44561.46
553.18	44184.63
553.34	44507.63
553.51	44355.49
553.67	44477.20
553.84	44753.38
554.01	44547.42
554.17	44577.84
554.34	44423.37
554.51	44409.32
554.67	44329.75
554.84	44699.55
555.00	44690.19
555.17	44367.20
555.33	44772.11
555.50	44671.46
555.67	44655.08
555.83	44514.65
556.00	44996.80
556.16	45621.72
556.33	45375.97
556.50	44861.05
556.66	44467.84
556.83	44563.80
556.99	45081.06
557.16	45111.49
557.32	45179.36
557.49	45537.46
557.65	44959.35
557.82	44842.32
557.98	45036.59
558.15	45394.69
558.32	45237.87
558.48	45633.42
558.65	45284.68
558.81	45137.23
558.98	45155.96
559.14	45237.87
559.31	44961.69
559.47	45315.11
559.64	45390.01
559.80	45153.62
559.97	45385.33
560.13	45301.07
560.30	45624.06
560.46	45954.08
560.63	45570.23
560.79	45839.39
560.96	45565.55
561.12	45673.21
561.29	45916.63
561.45	45516.40
561.61	45841.73
561.78	45755.13
561.94	45792.58
562.11	45698.96
562.27	45923.65
562.44	45771.52
562.60	45970.46
562.77	46078.13
562.93	45944.72
563.10	45991.53
563.26	45539.80
563.42	46454.95
563.59	46239.62
563.75	45996.21
563.92	46024.29
564.08	46068.76
564.24	46227.92
564.41	46024.29
564.57	46342.61
564.74	45684.92
564.90	46326.22
565.07	46239.62
565.23	45902.59
565.39	46445.59
565.56	46181.11
565.72	46642.20
565.88	45684.92
566.05	46281.75
566.21	46284.09
566.38	45984.51
566.54	46265.37
566.70	46277.07
566.87	46295.80
567.03	46237.28
567.19	46557.94
567.36	45991.53
567.52	46354.31
567.68	46216.22
567.85	46696.03
568.01	46609.43
568.17	46747.52
568.34	46356.65
568.50	46639.86
568.66	45909.61
568.83	46597.73
568.99	46344.95
569.15	46820.08
569.32	46443.25
569.48	46609.43
569.64	46990.94
569.81	46550.91
569.97	47016.68
570.13	46983.91
570.30	46375.37
570.46	46597.73
570.62	46843.48
570.78	46686.67
570.95	46569.64
571.11	46885.61
571.27	46616.45
571.43	46604.75
571.60	47068.17
571.76	46440.91
571.92	46461.97
572.09	46307.50
572.25	46625.81
572.41	46344.95
572.57	46504.10
572.74	47440.32
572.90	46988.60
573.06	46527.51
573.22	46698.37
573.38	47042.43
573.55	47054.13
573.71	47196.90
573.87	47019.02
574.03	46932.42
574.20	47182.86
574.36	46930.08
574.52	47040.09
574.68	46904.34
574.84	47215.63
575.01	46965.19
575.17	47351.38
575.33	47395.85
575.49	47110.30
575.65	46967.53
575.82	47129.03
575.98	46852.84
576.14	47419.25
576.30	47199.24
576.46	46932.42
576.62	47077.54
576.79	46742.84
576.95	46419.84
577.11	46803.69
577.27	47047.11
577.43	47224.99
577.59	46993.28
577.75	47152.43
577.92	47000.30
578.08	47222.65
578.24	46911.36
578.40	47353.72
578.56	47267.12
578.72	47196.90
578.88	47075.19
579.04	47264.78
579.21	46836.46
579.37	47187.54
579.53	47585.43
579.69	47189.88
579.85	47037.75
580.01	47550.32
580.17	47164.14
580.33	47325.63
580.49	47547.98
580.65	47445.00
580.82	47068.17
580.98	46932.42
581.14	47234.35
581.30	47594.79
581.46	46920.72
581.62	47349.04
581.78	46871.57
581.94	47199.24
582.10	47622.88
582.26	47178.18
582.42	47295.21
582.58	47096.26
582.74	47517.56
582.90	47295.21
583.06	47323.29
583.22	47021.36
583.38	47349.04
583.54	47660.33
583.70	47770.33
583.86	47475.43
584.02	46946.47
584.18	47753.95
584.34	47412.23
584.50	47920.13
584.66	47278.82
584.82	47632.24
584.98	47859.27
585.14	47346.70
585.30	47643.94
585.46	47676.71
585.62	47290.52
585.78	47657.99
585.94	47264.78
586.10	46965.19
586.26	47540.96
586.42	47222.65
586.58	47276.48
586.74	47545.64
586.90	47107.96
587.06	47449.68
587.22	47295.21
587.38	47585.43
587.54	47672.03
587.70	47861.61
587.86	47377.12
588.02	47288.18
588.18	47449.68
588.34	47365.42
588.49	47454.36
588.65	47412.23
588.81	47437.98
588.97	47861.61
589.13	47159.45
589.29	47473.09
589.45	47674.37
589.61	47814.80
589.77	47601.82
589.93	47739.91
590.08	47690.76
590.24	48170.57
590.40	48172.91
590.56	48098.01
590.72	47882.68
590.88	47817.14
591.04	47091.58
591.20	47887.36
591.35	47819.49
591.51	48523.99
591.67	48172.91
591.83	48404.62
591.99	47449.68
592.15	48088.65
592.31	47632.24
592.46	47634.58
592.62	47924.81
592.78	47896.72
592.94	48095.67
593.10	48046.52
593.26	48130.78
593.41	47854.59
593.57	48065.24
593.73	48163.54
593.89	48315.68
594.05	48423.34
594.20	48245.46
594.36	48453.77
594.52	48247.80
594.68	48121.41
594.84	48474.84
594.99	48100.35
595.15	47927.15
595.31	48203.33
595.47	48062.90
595.62	48161.20
595.78	48030.13
595.94	48425.68
596.10	48025.45
596.25	48502.92
596.41	48507.60
596.57	47758.63
596.73	48481.86
596.88	48002.05
597.04	48048.86
597.20	48346.11
597.36	48119.07
597.51	48278.23
597.67	48121.41
597.83	48456.11
597.99	48280.57
598.14	48006.73
598.30	48203.33
598.46	48186.95
598.61	48114.39
598.77	48708.89
598.93	48229.08
599.09	48006.73
599.24	48535.69
599.40	48278.23
599.56	48605.91
599.71	48683.14
599.87	48854.00
600.03	48545.05
600.18	48556.75
600.34	48519.31
600.50	48573.14
600.65	48013.75
600.81	48552.07
600.97	48598.88
601.12	48472.49
601.28	48289.93
601.44	48348.45
601.59	48208.01
601.75	48664.42
601.91	48619.95
602.06	48245.46
602.22	48622.29
602.37	48186.95
602.53	48486.54
602.69	48491.22
602.84	48058.22
603.00	48432.71
603.16	48528.67
603.31	48229.08
603.47	48390.58
603.62	48406.96
603.78	48339.08
603.94	48243.12
604.09	48385.89
604.25	48573.14
604.40	48079.28
604.56	48753.36
604.71	48561.44
604.87	48315.68
605.03	48465.47
605.18	48135.46
605.34	48624.63
605.49	48479.52
605.65	48247.80
605.80	48397.60
605.96	48032.47
606.12	48484.20
606.27	48093.33
606.43	47667.35
606.58	48566.12
606.74	48205.67
606.89	48273.55
607.05	48486.54
607.20	48215.04
607.36	47959.92
607.51	48339.08
607.67	47786.72
607.82	48177.59
607.98	48100.35
608.13	48289.93
608.29	48095.67
608.44	48243.12
608.60	47971.62
608.75	48243.12
608.91	47887.36
609.06	47819.49
609.22	48121.41
609.37	47349.04
609.53	47908.43
609.68	48292.27
609.84	48002.05
609.99	48060.56
610.15	47793.74
610.30	47746.93
610.46	47910.77
610.61	47730.54
610.76	48170.57
610.92	47936.51
611.07	48034.81
611.23	47817.14
611.38	48189.29
611.54	47840.55
611.69	48334.40
611.84	48037.16
612.00	48208.01
612.15	47543.30
612.31	47948.21
612.46	48105.03
612.62	47744.59
612.77	47892.04
612.92	48200.99
613.08	47358.40
613.23	47620.54
613.39	47643.94
613.54	47606.50
613.69	48163.54
613.85	47782.04
614.00	47461.38
614.15	47777.36
614.31	47817.14
614.46	47463.72
614.62	47393.51
614.77	47332.65
614.92	47365.42
615.08	47466.06
615.23	47751.61
615.38	47931.83
615.54	47611.18
615.69	47622.88
615.84	47547.98
616.00	47906.08
616.15	47405.21
616.30	47482.45
616.46	47133.71
616.61	47339.68
616.76	47585.43
616.92	47531.60
617.07	47571.39
617.22	47091.58
617.37	47105.62
617.53	47285.84
617.68	47395.85
617.83	46845.82
617.99	47620.54
618.14	47943.53
618.29	47260.10
618.45	46658.58
618.60	47253.08
618.75	46876.25
618.90	47035.41
619.06	47269.46
619.21	47688.42
619.36	47496.49
619.51	46990.94
619.67	47290.52
619.82	46864.55
619.97	47487.13
620.12	47033.07
620.28	47194.56
620.43	47110.30
620.58	47274.14
620.73	47292.86
620.89	47054.13
621.04	46845.82
621.19	47019.02
621.34	47152.43
621.49	46443.25
621.65	46679.64
621.80	46862.21
621.95	46993.28
622.10	46824.76
622.25	46906.68
622.41	47117.32
622.56	46529.85
622.71	46958.17
622.86	46550.91
623.01	46564.96
623.16	46452.61
623.32	46251.33
623.47	46492.40
623.62	46660.92
623.77	46909.02
623.92	46504.10
624.07	46698.37
624.23	46698.37
624.38	46646.88
624.53	47007.32
624.68	46302.82
624.83	46326.22
624.98	46000.89
625.13	46220.90
625.29	46078.13
625.44	45970.46
625.59	46597.73
625.74	46138.98
625.89	45830.03
626.04	46377.72
626.19	46213.88
626.34	46316.86
626.49	46059.40
626.65	45607.68
626.80	46085.15
626.95	45820.67
627.10	45500.01
627.25	46340.27
627.40	46211.54
627.55	45984.51
627.70	45668.53
627.85	46323.88
628.00	45998.55
628.15	46017.27
628.30	45722.37
628.45	45666.19
628.60	45368.94
628.76	45610.02
628.91	45764.49
629.06	45476.61
629.21	45062.33
629.36	45612.36
629.51	45694.28
629.66	45970.46
629.81	45509.38
629.96	45911.95
630.11	45497.67
630.26	45652.15
630.41	45640.45
630.56	45530.44
630.71	45298.73
630.86	45078.72
631.01	45364.26
631.16	45242.56
631.31	45216.81
631.46	45453.20
631.61	45703.64
631.76	45385.33
631.91	45296.39
632.06	45462.57
632.21	45567.89
632.36	45418.10
632.51	45071.70
632.66	45099.78
632.81	45038.93
632.96	45385.33
633.10	45003.82
633.25	45200.43
633.40	45249.58
633.55	45478.95
633.70	45003.82
633.85	44629.34
634.00	44680.83
634.15	44973.39
634.30	44409.32
634.45	44783.81
634.60	44584.86
634.75	44760.40
634.90	44945.31
635.05	44765.09
635.19	44835.30
635.34	44818.92
635.49	44577.84
635.64	44802.53
635.79	45069.36
635.94	44741.68
636.09	44715.93
636.24	44762.75
636.39	44437.41
636.53	44769.77
636.68	44320.38
636.83	44065.27
636.98	44456.14
637.13	44306.34
637.28	44032.50
637.43	44411.67
637.57	44498.26
637.72	43875.68
637.87	44168.25
638.02	44364.85
638.17	43945.90
638.32	43908.45
638.46	44322.72
638.61	44165.91
638.76	44006.75
638.91	44339.11
639.06	43686.10
639.20	43725.89
639.35	43667.37
639.50	43662.69
639.65	44051.22
639.80	44304.00
639.94	43866.32
640.09	44261.87
640.24	44201.02
640.39	43639.29
640.54	43161.82
640.68	43943.56
640.83	44083.99
640.98	43856.96
641.13	43770.36
641.27	43676.74
641.42	43739.93
641.57	43950.58
641.72	43880.36
641.86	43569.07
642.01	43473.11
642.16	43278.85
642.31	43250.76
642.45	43571.41
642.60	43002.66
642.75	43655.67
642.90	43489.49
643.04	43358.42
643.19	43007.34
643.34	43386.51
643.48	43079.90
643.63	43028.41
643.78	43421.62
643.93	43466.09
644.07	43459.07
644.22	43072.88
644.37	43079.90
644.51	43105.65
644.66	43306.93
644.81	43136.07
644.95	43260.12
645.10	43075.22
645.25	42738.18
645.39	42656.26
645.54	43262.46
645.69	42724.14
645.83	42679.67
645.98	42492.43
646.13	42611.79
646.27	43021.39
646.42	42560.30
646.57	42555.62
646.71	42829.46
646.86	42960.53
647.00	42412.85
647.15	42674.99
647.30	42866.91
647.44	43007.34
647.59	42462.00
647.74	42815.42
647.88	42644.56
648.03	42529.87
648.17	42941.81
648.32	42995.64
648.47	42775.63
648.61	42443.27
648.76	42522.85
648.90	42384.76
649.05	42515.83
649.20	42801.38
649.34	42401.14
649.49	42679.67
649.63	42375.40
649.78	42604.77
649.92	42562.64
650.07	42494.77
650.21	42583.71
650.36	42546.26
650.51	42267.73
650.65	42822.44
650.80	42192.84
650.94	42234.97
651.09	42120.28
651.23	41851.12
651.38	42005.59
651.52	41713.03
651.67	41984.53
651.81	42412.85
651.96	41911.97
652.10	41813.67
652.25	42106.24
652.39	41514.08
652.54	41895.59
652.68	41596.00
652.83	41935.38
652.97	42256.03
653.12	42148.37
653.26	42185.82
653.41	42246.67
653.55	41640.47
653.70	41902.61
653.84	42120.28
653.99	42047.72
654.13	41687.28
654.27	41598.34
654.42	41476.63
654.56	41408.76
654.71	41680.26
654.85	41717.71
655.00	41794.95
655.14	41593.66
655.29	41535.15
655.43	41703.67
655.57	41088.10
655.72	40940.65
655.86	41301.09
656.01	41186.41
656.15	41048.32
656.30	40942.99
656.44	41050.66
656.58	41301.09
656.73	41090.44
656.87	40760.43
657.01	40996.82
657.16	40854.05
657.30	41347.90
657.45	40971.08
657.59	40938.31
657.73	40875.12
657.88	40683.19
658.02	41017.89
658.16	40818.94
658.31	41172.36
658.45	40886.82
658.60	41163.00
658.74	40540.42
658.88	40573.19
659.03	40505.31
659.17	41043.63
659.31	40355.52
659.46	40488.93
659.60	40528.72
659.74	40512.33
659.89	39969.33
660.03	39597.18
660.17	40060.61
660.32	40109.76
660.46	40502.97
660.60	40095.72
660.74	39826.56
660.89	40336.79
661.03	39927.20
661.17	39711.87
661.32	39519.95
661.46	40205.72
661.60	39597.18
661.74	39761.02
661.89	39646.33
662.03	39910.82
662.17	39482.50
662.31	39117.37
662.46	39786.77
662.60	39100.99
662.74	39065.88
662.88	39363.13
663.03	38852.89
663.17	39159.50
663.31	38817.78
663.45	38990.98
663.60	39030.77
663.74	39428.66
663.88	39054.18
664.02	38979.28
664.17	38995.67
664.31	38986.30
664.45	38808.42
664.59	38902.04
664.73	38639.90
664.88	38721.82
665.02	38223.29
665.16	38340.32
665.30	38562.67
665.44	38141.37
665.59	38211.59
665.73	38124.99
665.87	37837.10
666.01	37975.19
666.15	38426.92
666.29	37830.08
666.44	38192.86
666.58	38284.14
666.72	37579.64
666.86	37975.19
667.00	37074.09
667.14	37610.07
667.28	37563.26
667.43	37694.33
667.57	37888.59
667.71	37680.28
667.85	37666.24
667.99	37413.46
668.13	37397.08
668.27	37153.66
668.41	37212.18
668.56	36526.40
668.70	36617.68
668.84	36844.71
668.98	36875.14
669.12	36783.86
669.26	36741.73
669.40	36943.02
669.54	37251.97
669.68	37090.47
669.82	36458.52
669.96	36327.45
670.10	36187.02
670.25	36011.48
670.39	36339.16
670.53	36500.65
670.67	36238.51
670.81	36510.02
670.95	35880.41
671.09	36334.48
671.23	35913.18
671.37	35821.90
671.51	35534.01
671.65	35725.94
671.79	35936.59
671.93	35835.94
672.07	35910.84
672.21	35615.93
672.35	34789.72
672.49	35166.55
672.63	35323.36
672.77	34976.97
672.91	35112.72
673.05	35564.44
673.19	34981.65
673.33	34873.98
673.47	34359.06
673.61	35089.31
673.75	34803.77
673.89	34569.71
674.03	34265.44
674.17	34218.63
674.31	33909.68
674.45	34005.64
674.59	34115.65
674.73	33795.00
674.87	33645.20
675.01	33603.07
675.15	33163.05
675.29	33366.68
675.43	33425.19
675.56	33848.83
675.70	33551.58
675.84	33273.06
675.98	32510.04
676.12	33109.22
676.26	33509.45
676.40	32748.78
676.54	32428.12
676.68	32720.69
676.82	32252.58
676.96	32676.22
677.10	32631.75
677.23	32470.25
677.37	32243.22
677.51	32442.17
677.65	32212.79
677.79	31814.90
677.93	31810.22
678.07	31892.14
678.21	31807.88
678.34	31721.28
678.48	30986.35
678.62	31136.15
678.76	31379.56
678.90	31150.19
679.04	31021.46
679.18	31426.37
679.31	31056.57
679.45	30995.71
679.59	30735.92
679.73	31154.87
679.87	30607.19
680.00	30352.07
680.14	30792.09
680.28	30654.00
680.42	30419.94
680.56	30162.48
680.70	30206.95
680.83	30125.04
680.97	29638.20
681.11	30024.39
681.25	29397.13
681.39	29205.20
681.52	29369.04
681.66	29036.69
681.80	28994.56
681.94	28987.53
682.07	28781.57
682.21	28945.41
682.35	28863.49
682.49	28662.20
682.62	28772.21
682.76	28896.25
682.90	28631.77
683.04	28400.06
683.17	28360.27
683.31	28067.70
683.45	28102.81
683.59	28100.47
683.72	27702.58
683.86	27828.97
684.00	27524.70
684.13	27676.83
684.27	27208.73
684.41	27370.22
684.55	27328.10
684.68	27410.01
684.82	26810.84
684.96	26937.23
685.09	27300.01
685.23	26965.31
685.37	27190.00
685.50	26995.74
685.64	26228.04
685.78	26487.84
685.91	26333.37
686.05	25879.30
686.19	25668.66
686.32	26101.65
686.46	26038.46
686.60	25481.41
686.73	25851.22
686.87	26118.04
687.01	25895.69
687.14	25413.54
687.28	25663.97
687.42	25455.67
687.55	25010.96
687.69	25156.08
687.82	24781.59
687.96	25132.67
688.10	24802.66
688.23	24933.73
688.37	24858.83
688.50	24662.22
688.64	24882.24
688.78	24496.05
688.91	24318.17
689.05	24538.18
689.18	23651.11
689.32	23740.05
689.46	23508.34
689.59	23627.71
689.73	23920.28
689.86	23669.84
690.00	23616.01
690.13	23660.48
690.27	23494.30
690.41	23770.48
690.54	23325.78
690.68	23393.65
690.81	22951.29
690.95	22848.31
691.08	22647.02
691.22	22593.19
691.35	22504.25
691.49	22810.86
691.62	22735.96
691.76	22143.81
691.89	22382.54
692.03	21851.24
692.16	21898.05
692.30	21888.69
692.43	21963.59
692.57	21919.12
692.70	21724.85
692.84	21692.08
692.97	21624.21
693.11	21202.91
693.24	21500.16
693.38	21226.32
693.51	21085.89
693.65	21118.65
693.78	20919.71
693.92	20912.69
694.05	21008.65
694.19	20566.29
694.32	20751.19
694.45	20697.36
694.59	20936.09
694.72	20961.84
694.86	20128.61
694.99	20154.35
695.13	19866.47
695.26	19873.49
695.39	19632.41
695.53	19798.59
695.66	19899.23
695.80	19611.35
695.93	19714.33
696.07	19777.53
696.20	18995.79
696.33	19023.87
696.47	18590.88
696.60	19066.00
696.73	19082.39
696.87	18820.25
697.00	19021.53
697.14	18878.76
697.27	18384.91
697.40	18541.72
697.54	18609.60
697.67	18853.02
697.80	18558.11
697.94	18387.25
698.07	18167.24
698.21	18232.77
698.34	18237.45
698.47	17848.93
698.61	17617.21
698.74	17624.23
698.87	17579.76
699.01	17446.35
699.14	17593.81
699.27	17439.33
699.40	17343.37
699.54	17139.74
699.67	17160.81
699.80	17256.77
699.94	16798.02
700.07	17095.27
700.20	16924.41
700.34	16924.41
700.47	16805.05
700.60	16999.31
700.73	16915.05
700.87	16313.53
701.00	16306.51
701.13	16002.24
701.26	16093.52
701.40	16130.97
701.53	15974.16
701.66	16114.59
701.79	16011.60
701.93	15637.12
702.06	15564.56
702.19	15487.32
702.32	15730.74
702.46	15630.10
702.59	15639.46
702.72	15592.65
702.85	15302.42
702.99	15147.95
703.12	15159.65
703.25	15222.84
703.38	14780.48
703.51	15066.03
703.65	14902.19
703.78	14771.12
703.91	14878.79
704.04	14553.45
704.17	14359.19
704.31	14476.21
704.44	14640.05
704.57	14642.39
704.70	14286.63
704.83	14211.73
704.96	14101.73
705.10	13841.93
705.23	13923.85
>>>>>End Processed Spectral Data<<<<<
