SpectraSuite Data File
++++++++++++++++++++++++++++++++++++
Date: Fri Oct 25 10:48:34 EDT 2013
User: price-jones
Dark Spectrum Present: No
Reference Spectrum Present: No
Number of Sampled Component Spectra: 1
Spectrometers: USB2+H05261
Integration Time (usec): 100000 (USB2+H05261)
Spectra Averaged: 1 (USB2+H05261)
Boxcar Smoothing: 0 (USB2+H05261)
Correct for Electrical Dark: No (USB2+H05261)
Strobe/Lamp Enabled: No (USB2+H05261)
Correct for Detector Non-linearity: No (USB2+H05261)
Correct for Stray Light: No (USB2+H05261)
Number of Pixels in Processed Spectrum: 2048
>>>>>Begin Processed Spectral Data<<<<<
365.73	131.07
365.92	131.07
366.12	131.07
366.32	67.88
366.52	95.96
366.72	72.56
366.91	37.45
367.11	51.49
367.31	4.68
367.51	0.00
367.70	51.49
367.90	77.24
368.10	63.19
368.30	44.47
368.49	0.00
368.69	114.69
368.89	119.37
369.09	49.15
369.28	30.43
369.48	95.96
369.68	51.49
369.87	145.11
370.07	72.56
370.27	166.18
370.47	198.95
370.66	372.15
370.86	449.38
371.06	521.94
371.25	517.26
371.45	463.43
371.65	463.43
371.84	454.06
372.04	447.04
372.24	477.47
372.44	526.62
372.63	564.07
372.83	554.71
373.03	561.73
373.22	594.50
373.42	547.69
373.62	594.50
373.81	631.94
374.01	573.43
374.21	636.63
374.40	559.39
374.60	676.41
374.79	561.73
374.99	599.18
375.19	561.73
375.38	627.26
375.58	650.67
375.78	617.90
375.97	664.71
376.17	676.41
376.37	669.39
376.56	608.54
376.76	638.97
376.95	638.97
377.15	702.16
377.35	655.35
377.54	720.88
377.74	653.01
377.93	697.48
378.13	634.29
378.33	702.16
378.52	732.59
378.72	741.95
378.91	828.55
379.11	709.18
379.31	641.31
379.50	685.78
379.70	678.76
379.89	718.54
380.09	753.65
380.28	636.63
380.48	786.42
380.68	734.93
380.87	753.65
381.07	671.73
381.26	741.95
381.46	716.20
381.65	788.76
381.85	702.16
382.04	678.76
382.24	800.46
382.43	755.99
382.63	664.71
382.83	723.23
383.02	777.06
383.22	779.40
383.41	798.12
383.61	770.04
383.80	842.59
384.00	777.06
384.19	777.06
384.39	870.68
384.58	814.51
384.78	884.72
384.97	816.85
385.17	856.64
385.36	849.61
385.56	833.23
385.75	816.85
385.95	837.91
386.14	964.30
386.34	889.40
386.53	898.77
386.72	807.48
386.92	926.85
387.11	947.92
387.31	894.08
387.50	903.45
387.70	877.70
387.89	964.30
388.09	854.30
388.28	898.77
388.48	952.60
388.67	1029.84
388.86	1011.11
389.06	971.32
389.25	922.17
389.45	1043.88
389.64	1013.45
389.84	1029.84
390.03	1043.88
390.22	1008.77
390.42	1046.22
390.61	1083.67
390.81	1057.92
391.00	1057.92
391.19	1121.12
391.39	1109.41
391.58	1196.01
391.78	1102.39
391.97	1093.03
392.16	1090.69
392.36	1102.39
392.55	1137.50
392.75	1083.67
392.94	1022.81
393.13	961.96
393.33	990.05
393.52	1050.90
393.71	1114.10
393.91	1139.84
394.10	1114.10
394.29	1207.72
394.49	1268.57
394.68	1242.82
394.88	1238.14
395.07	1254.53
395.26	1240.48
395.46	1268.57
395.65	1322.40
395.84	1287.29
396.04	1329.42
396.23	1203.04
396.42	1207.72
396.62	1231.12
396.81	1301.34
397.00	1282.61
397.19	1217.08
397.39	1383.26
397.58	1425.39
397.77	1371.55
397.97	1432.41
398.16	1547.09
398.35	1547.09
398.55	1558.80
398.74	1528.37
398.93	1619.65
399.12	1460.49
399.32	1614.97
399.51	1579.86
399.70	1671.14
399.90	1645.40
400.09	1636.03
400.28	1762.42
400.47	1685.19
400.67	1792.85
400.86	1727.32
401.05	1764.76
401.24	1757.74
401.44	1755.40
401.63	1781.15
401.82	1774.13
402.01	1706.25
402.21	1846.68
402.40	1870.09
402.59	1799.87
402.78	1797.53
402.97	1923.92
403.17	1809.23
403.36	1844.34
403.55	1959.03
403.74	1930.94
403.93	1846.68
404.13	1970.73
404.32	1935.62
404.51	1851.36
404.70	2003.50
404.89	2073.71
405.09	2108.82
405.28	1977.75
405.47	2094.78
405.66	2003.50
405.85	2092.44
406.05	2094.78
406.24	1961.37
406.43	2069.03
406.62	2176.70
406.81	2305.43
407.00	2085.42
407.20	2167.34
407.39	2087.76
407.58	2310.11
407.77	2331.17
407.96	2310.11
408.15	2366.28
408.34	2471.61
408.54	2368.62
408.73	2401.39
408.92	2399.05
409.11	2450.54
409.30	2303.09
409.49	2314.79
409.68	2340.54
409.87	2326.49
410.07	2459.90
410.26	2387.35
410.45	2370.96
410.64	2576.93
410.83	2602.68
411.02	2623.74
411.21	2635.44
411.40	2754.81
411.59	2651.83
411.78	2745.45
411.98	2675.23
412.17	2743.11
412.36	2787.58
412.55	2855.45
412.74	2967.80
412.93	2794.60
413.12	2794.60
413.31	2991.20
413.50	2860.13
413.69	2974.82
413.88	2988.86
414.07	3012.27
414.26	3201.85
414.45	3112.91
414.64	3162.06
414.83	3155.04
415.02	3204.19
415.22	3229.94
415.41	3232.28
415.60	3368.03
415.79	3297.81
415.98	3276.75
416.17	3339.94
416.36	3386.76
416.55	3274.41
416.74	3265.05
416.93	3276.75
417.12	3382.07
417.31	3475.70
417.50	3552.93
417.69	3510.80
417.88	3480.38
418.07	3592.72
418.26	3571.66
418.45	3571.66
418.64	3808.05
418.83	3765.92
419.02	3728.47
419.21	3714.43
419.39	3733.15
419.58	3611.45
419.77	3644.21
419.96	3719.11
420.15	3761.24
420.34	3765.92
420.53	3906.35
420.72	3836.14
420.91	3817.41
421.10	3976.57
421.29	4112.32
421.48	3971.89
421.67	4109.98
421.86	3943.80
422.05	3929.76
422.24	3756.56
422.43	3997.64
422.61	4002.32
422.80	3920.40
422.99	4077.21
423.18	4021.04
423.37	4105.30
423.56	4070.19
423.75	4084.23
423.94	3943.80
424.13	3985.93
424.32	4009.34
424.50	4093.60
424.69	4145.09
424.88	4098.28
425.07	4119.34
425.26	3999.98
425.45	4074.87
425.64	4060.83
425.83	4128.70
426.01	4037.42
426.20	4170.83
426.39	4217.65
426.58	3971.89
426.77	4091.26
426.96	3957.85
427.15	4173.18
427.33	4180.20
427.52	4154.45
427.71	4299.56
427.90	4219.99
428.09	4250.41
428.28	4308.93
428.46	4327.65
428.65	4184.88
428.84	4437.66
429.03	4423.61
429.22	4194.24
429.40	4301.90
429.59	4255.09
429.78	4025.72
429.97	3997.64
430.16	4126.36
430.34	4079.55
430.53	4313.61
430.72	4304.25
430.91	4257.43
431.10	4461.06
431.28	4720.86
431.47	4667.03
431.66	4870.65
431.85	4737.24
432.03	4720.86
432.22	4798.10
432.41	4812.14
432.60	4784.06
432.79	4959.60
432.97	4842.57
433.16	4858.95
433.35	4765.33
433.54	4959.60
433.72	4823.84
433.91	4868.31
434.10	4865.97
434.28	5032.15
434.47	4945.55
434.66	5172.58
434.85	5043.85
435.03	5198.33
435.22	5076.62
435.41	5341.10
435.59	5170.24
435.78	5238.12
435.97	5329.40
436.16	5451.11
436.34	5315.36
436.53	5301.31
436.72	5383.23
436.90	5387.91
437.09	5554.09
437.28	5270.89
437.46	5181.95
437.65	5324.72
437.84	5434.72
438.02	5322.38
438.21	5263.86
438.40	5369.19
438.58	5607.92
438.77	5692.18
438.96	5507.28
439.14	5823.25
439.33	5640.69
439.52	5870.06
439.70	5907.51
439.89	5909.85
440.08	5921.56
440.26	5834.96
440.45	5830.27
440.63	6190.72
440.82	6106.46
441.01	6073.69
441.19	6244.55
441.38	6424.77
441.57	6307.74
441.75	6232.85
441.94	6303.06
442.12	6317.11
442.31	6623.72
442.50	6408.39
442.68	6422.43
442.87	6296.04
443.05	6583.93
443.24	6677.55
443.43	6780.53
443.61	6689.25
443.80	6754.79
443.98	6569.88
444.17	6380.30
444.35	6574.56
444.54	6724.36
444.73	6712.66
444.91	6764.15
445.10	6740.74
445.28	6689.25
445.47	6604.99
445.65	6553.50
445.84	6747.76
446.02	6857.77
446.21	6808.62
446.39	6715.00
446.58	7033.31
446.77	6839.05
446.95	6841.39
447.14	7045.01
447.32	7082.46
447.51	7054.37
447.69	7054.37
447.88	6846.07
448.06	6963.09
448.25	7063.74
448.43	7119.91
448.62	6832.02
448.80	7073.10
448.99	6960.75
449.17	7101.19
449.36	7148.00
449.54	7229.91
449.73	7159.70
449.91	7440.56
450.10	7461.63
450.28	7382.05
450.46	7485.03
450.65	7473.33
450.83	7400.77
451.02	7417.16
451.20	7597.38
451.39	7541.21
451.57	7562.27
451.76	7520.14
451.94	7433.54
452.13	7588.02
452.31	7496.74
452.49	7466.31
452.68	7529.50
452.86	7370.35
453.05	7700.36
453.23	7801.01
453.42	7702.70
453.60	7784.62
453.78	7772.92
453.97	7660.57
454.15	7644.19
454.34	7590.36
454.52	7826.75
454.70	7737.81
454.89	7779.94
455.07	7665.25
455.26	7815.05
455.44	7899.31
455.62	8147.40
455.81	7929.74
455.99	8093.57
456.17	8112.30
456.36	8056.12
456.54	8182.51
456.73	8226.98
456.91	8379.12
457.09	8393.16
457.28	8482.10
457.46	8320.60
457.64	8360.39
457.83	8271.45
458.01	8386.14
458.19	8421.25
458.38	8489.12
458.56	8528.91
458.74	8437.63
458.93	8521.89
459.11	8655.30
459.29	8517.21
459.48	8809.78
459.66	8716.16
459.84	8713.81
460.03	8879.99
460.21	8779.35
460.39	8795.73
460.57	8730.20
460.76	8922.12
460.94	8915.10
461.12	8917.44
461.31	9123.41
461.49	8961.91
461.67	8954.89
461.85	9188.94
462.04	8898.72
462.22	9556.41
462.40	9139.79
462.59	9114.05
462.77	9291.93
462.95	9357.46
463.13	9277.88
463.32	9249.80
463.50	9371.50
463.68	9366.82
463.86	9399.59
464.05	9142.13
464.23	9102.34
464.41	9451.08
464.59	9210.01
464.78	9427.68
464.96	9448.74
465.14	9439.38
465.32	9568.11
465.50	9607.90
465.69	9488.53
465.87	9659.39
466.05	9500.23
466.23	9371.50
466.41	9383.21
466.60	9745.99
466.78	9460.45
466.96	9645.35
467.14	9628.96
467.32	9753.01
467.51	9776.42
467.69	9446.40
467.87	9956.64
468.05	9830.25
468.23	9778.76
468.41	9785.78
468.60	9661.73
468.78	9912.17
468.96	9717.90
469.14	9893.44
469.32	10132.18
469.50	9853.66
469.69	10143.88
469.87	10225.80
470.05	10181.33
470.23	10087.71
470.41	10115.80
470.59	10317.08
470.77	10370.91
470.95	10511.35
471.14	10541.77
471.32	10303.04
471.50	10724.33
471.68	10691.57
471.86	10579.22
472.04	10726.68
472.22	11178.40
472.40	10637.73
472.58	11002.86
472.77	10604.97
472.95	10775.83
473.13	11190.10
473.31	10750.08
473.49	10883.49
473.67	10867.11
473.85	10977.11
474.03	11255.64
474.21	11309.47
474.39	11417.13
474.57	11433.52
474.75	11456.92
474.93	11555.22
475.12	11492.03
475.30	11836.09
475.48	11541.18
475.66	11653.53
475.84	11595.01
476.02	11730.76
476.20	11662.89
476.38	12098.23
476.56	12123.98
476.74	12051.42
476.92	11871.20
477.10	12084.19
477.28	12409.52
477.46	12336.96
477.64	12360.37
477.82	13008.70
478.00	12982.95
478.18	13074.23
478.36	12704.43
478.54	13018.06
478.72	13238.07
478.90	13437.02
479.08	13469.78
479.26	13532.98
479.44	13839.59
479.62	13870.01
479.80	13898.10
479.98	14068.96
480.16	14120.45
480.34	13996.40
480.52	14401.32
480.70	14317.06
480.88	13968.32
481.06	14183.65
481.24	14508.98
481.41	14647.07
481.59	14998.15
481.77	14951.34
481.95	14794.53
482.13	15115.18
482.31	15178.37
482.49	15384.34
482.67	15321.15
482.85	15384.34
483.03	15791.59
483.21	15630.10
483.39	16020.97
483.57	16107.57
483.74	16238.64
483.92	15889.90
484.10	16276.09
484.28	16463.33
484.46	16807.39
484.64	16753.55
484.82	16690.36
485.00	16669.30
485.18	17219.32
485.35	17076.55
485.53	16744.19
485.71	16603.76
485.89	16751.21
486.07	16842.50
486.25	17160.81
486.43	17439.33
486.61	17385.50
486.78	17994.04
486.96	17937.87
487.14	18242.14
487.32	18139.15
487.50	18640.03
487.68	18602.58
487.85	18991.11
488.03	19005.15
488.21	19159.63
488.39	19150.26
488.57	19126.86
488.75	19386.66
488.92	19667.52
489.10	20013.92
489.28	20116.90
489.46	20285.42
489.64	20027.96
489.81	20786.30
489.99	20893.96
490.17	20744.17
490.35	21500.16
490.53	21137.38
490.70	21205.25
490.88	21305.90
491.06	21404.20
491.24	21441.65
491.41	21137.38
491.59	21434.63
491.77	21282.49
491.95	21769.32
492.13	22029.12
492.30	22438.72
492.48	22389.56
492.66	22822.56
492.84	22974.70
493.01	22679.79
493.19	22511.27
493.37	22906.82
493.54	23157.26
493.72	23377.27
493.90	23330.46
494.08	23623.03
494.25	23903.89
494.43	23807.93
494.61	24301.78
494.79	24210.50
494.96	24322.85
495.14	24332.21
495.32	24109.86
495.49	24367.32
495.67	24720.74
495.85	24734.78
496.02	25104.59
496.20	25275.45
496.38	25123.31
496.55	25336.30
496.73	25909.73
496.91	25516.52
497.09	25610.14
497.26	25921.43
497.44	26218.68
497.62	25858.24
497.79	26309.96
497.97	25961.22
498.14	26150.81
498.32	26820.20
498.50	26602.53
498.67	27040.21
498.85	26757.00
499.03	27276.60
499.20	27035.53
499.38	27222.77
499.56	27019.14
499.73	27269.58
499.91	27461.51
500.08	27917.91
500.26	27108.08
500.44	27543.42
500.61	27777.48
500.79	27475.55
500.97	27501.29
501.14	28072.39
501.32	28006.85
501.49	28151.96
501.67	27758.75
501.84	28245.58
502.02	28112.17
502.20	28648.16
502.37	28725.39
502.55	28591.98
502.72	28730.08
502.90	28945.41
503.07	28989.88
503.25	29036.69
503.43	28608.37
503.60	29001.58
503.78	29015.62
503.95	29090.52
504.13	29408.83
504.30	29539.90
504.48	29287.12
504.65	29680.33
504.83	29504.79
505.01	30204.61
505.18	30361.43
505.36	30508.88
505.53	30436.33
505.71	30864.64
505.88	30717.19
506.06	30391.86
506.23	30623.57
506.41	30513.56
506.58	30834.22
506.76	30581.44
506.93	30836.56
507.11	30733.57
507.28	30941.88
507.46	30859.96
507.63	30806.13
507.81	31140.83
507.98	31154.87
508.16	31489.57
508.33	31573.83
508.50	31765.75
508.68	31934.27
508.85	31945.97
509.03	32053.64
509.20	32041.93
509.38	32208.11
509.55	32275.99
509.73	32648.13
509.90	32430.46
510.08	32264.28
510.25	32470.25
510.42	32526.42
510.60	32741.75
510.77	32718.35
510.95	33251.99
511.12	32577.92
511.30	32882.19
511.47	33172.41
511.64	33483.70
511.82	33441.57
511.99	33493.07
512.17	33106.88
512.34	33057.73
512.51	33532.86
512.69	33661.58
512.86	34190.55
513.04	34356.72
513.21	33766.91
513.38	33818.40
513.56	34225.65
513.73	33612.43
513.90	33874.57
514.08	33696.69
514.25	34487.79
514.43	34202.25
514.60	34328.64
514.77	34345.02
514.95	34293.53
515.12	34321.62
515.29	34754.61
515.47	34728.87
515.64	35395.92
515.81	34686.74
515.99	34958.24
516.16	34656.31
516.33	34197.57
516.51	34632.91
516.68	34401.19
516.85	34361.40
517.03	34504.18
517.20	34913.77
517.37	35161.87
517.54	35342.09
517.72	34983.99
517.89	34742.91
518.06	34831.85
518.24	35620.61
518.41	35175.91
518.58	35349.11
518.75	35695.51
518.93	35906.16
519.10	36025.53
519.27	36217.45
519.45	35880.41
519.62	35903.82
519.79	36514.70
519.96	36329.80
520.14	36797.90
520.31	36259.58
520.48	36875.14
520.65	36292.35
520.83	37060.04
521.00	37031.96
521.17	37141.96
521.34	37053.02
521.52	37141.96
521.69	37282.39
521.86	37263.67
522.03	37507.08
522.20	37378.36
522.38	37158.34
522.55	37221.54
522.72	37724.75
522.89	37518.79
523.07	37904.98
523.24	37537.51
523.41	37715.39
523.58	38143.71
523.75	38071.15
523.92	38642.24
524.10	38160.09
524.27	38286.48
524.44	38213.93
524.61	38274.78
524.78	38518.20
524.96	38801.40
525.13	38941.83
525.30	39084.61
525.47	39021.41
525.64	38937.15
525.81	39026.09
525.98	38843.53
526.16	38422.23
526.33	38539.26
526.50	38543.94
526.67	38665.65
526.84	38380.10
527.01	38841.19
527.18	39084.61
527.36	39072.90
527.53	39445.05
527.70	39674.42
527.87	39859.32
528.04	39470.79
528.21	39917.84
528.38	39775.06
528.55	40055.93
528.72	39999.76
528.89	40374.24
529.07	39782.09
529.24	39941.24
529.41	39885.07
529.58	39597.18
529.75	40041.88
529.92	40371.90
530.09	40175.30
530.26	40348.50
530.43	40624.68
530.60	39945.92
530.77	40257.21
530.94	40893.84
531.11	40584.89
531.28	40762.77
531.46	40467.86
531.63	40903.20
531.80	40060.61
531.97	40662.13
532.14	40828.30
532.31	40329.77
532.48	40362.54
532.65	40451.48
532.82	40804.90
532.99	40825.96
533.16	40882.14
533.33	41022.57
533.50	41233.22
533.67	40814.26
533.84	40877.46
534.01	41371.31
534.18	41481.31
534.35	41387.69
534.52	41406.42
534.69	41401.74
534.86	41322.16
535.03	41242.58
535.20	41713.03
535.37	41734.09
535.54	42359.02
535.71	41457.91
535.88	42113.26
536.05	42033.68
536.22	41837.08
536.38	42021.98
536.55	41935.38
536.72	41881.55
536.89	42115.60
537.06	42052.41
537.23	42356.67
537.40	42267.73
537.57	42796.70
537.74	42080.49
537.91	42689.03
538.08	42178.79
538.25	42246.67
538.42	42160.07
538.59	42515.83
538.75	42234.97
538.92	42408.17
539.09	43009.68
539.26	42309.86
539.43	42401.14
539.60	42429.23
539.77	42880.95
539.94	42705.41
540.11	42532.22
540.28	42340.29
540.44	42419.87
540.61	42403.49
540.78	42625.84
540.95	42344.97
541.12	43082.24
541.29	42988.62
541.46	43019.05
541.62	42969.90
541.79	42752.23
541.96	42677.33
542.13	42600.09
542.30	43295.23
542.47	43208.63
542.63	43213.31
542.80	43138.41
542.97	43704.82
543.14	43559.71
543.31	44051.22
543.48	43763.34
543.64	44198.68
543.81	44100.37
543.98	44280.60
544.15	43917.81
544.32	44137.82
544.48	44378.90
544.65	43999.73
544.82	44184.63
544.99	43524.60
545.16	44194.00
545.32	43847.60
545.49	44711.25
545.66	44741.68
545.83	44552.10
546.00	44439.75
546.16	44428.05
546.33	44397.62
546.50	43983.35
546.67	44172.93
546.83	43608.86
547.00	44266.55
547.17	44327.41
547.34	44423.37
547.50	44605.93
547.67	44851.69
547.84	44259.53
548.00	44683.17
548.17	45340.86
548.34	45029.57
548.51	44994.46
548.67	45090.42
548.84	45092.76
549.01	44926.58
549.18	44339.11
549.34	44601.25
549.51	44664.44
549.68	45106.80
549.84	45331.50
550.01	45291.71
550.18	44505.29
550.34	45436.82
550.51	44926.58
550.68	45392.35
550.84	44868.07
551.01	45078.72
551.18	45326.81
551.34	45202.77
551.51	45368.94
551.68	45633.42
551.84	45413.41
552.01	45392.35
552.18	45549.17
552.34	45600.66
552.51	45450.86
552.68	45659.17
552.84	45565.55
553.01	46099.19
553.18	45628.74
553.34	45703.64
553.51	45525.76
553.67	45897.91
553.84	46031.32
554.01	45394.69
554.17	45691.94
554.34	46391.76
554.51	45553.85
554.67	45783.22
554.84	45970.46
555.00	46199.83
555.17	45551.51
555.33	46188.13
555.50	45947.06
555.67	46064.08
555.83	45895.56
556.00	45853.44
556.16	46436.23
556.33	46078.13
556.50	46457.29
556.66	46256.01
556.83	45776.20
556.99	46211.54
557.16	46288.77
557.32	46110.89
557.49	46344.95
557.65	46204.52
557.82	46576.66
557.98	45745.77
558.15	46220.90
558.32	46387.08
558.48	45741.09
558.65	46106.21
558.81	46134.30
558.98	46251.33
559.14	46094.51
559.31	46082.81
559.47	46021.95
559.64	46202.18
559.80	46536.87
559.97	46611.77
560.13	46291.12
560.30	46724.11
560.46	46593.04
560.63	46761.56
560.79	46646.88
560.96	47182.86
561.12	46698.37
561.29	46202.18
561.45	46454.95
561.61	46513.47
561.78	47243.71
561.94	46604.75
562.11	46478.36
562.27	46855.18
562.44	46351.97
562.60	46932.42
562.77	47019.02
562.93	46857.52
563.10	47138.39
563.26	46246.65
563.42	46478.36
563.59	46609.43
563.75	46616.45
563.92	46960.51
564.08	46852.84
564.24	47299.89
564.41	47042.43
564.57	47117.32
564.74	46780.29
564.90	46557.94
565.07	46944.12
565.23	46859.87
565.39	46990.94
565.56	46845.82
565.72	46885.61
565.88	47061.15
566.05	46918.38
566.21	46705.39
566.38	47208.61
566.54	47426.28
566.70	47452.02
566.87	47573.73
567.03	47058.81
567.19	47498.83
567.36	47166.48
567.52	46883.27
567.68	46534.53
567.85	46724.11
568.01	46852.84
568.17	46810.71
568.34	47313.93
568.50	46777.95
568.66	46955.83
568.83	46995.62
568.99	46630.49
569.15	46857.52
569.32	46918.38
569.48	46710.07
569.64	47433.30
569.81	47232.01
569.97	47161.79
570.13	46993.28
570.30	46986.25
570.46	46312.18
570.62	46569.64
570.78	46630.49
570.95	46443.25
571.11	47224.99
571.27	46923.06
571.43	47217.97
571.60	47065.83
571.76	46827.10
571.92	46789.65
572.09	47379.46
572.25	47030.72
572.41	47620.54
572.57	47262.44
572.74	47550.32
572.90	47358.40
573.06	47196.90
573.22	46967.53
573.38	47206.26
573.55	47391.17
573.71	47196.90
573.87	47103.28
574.03	47047.11
574.20	47154.77
574.36	47393.51
574.52	47356.06
574.68	47428.62
574.84	47339.68
575.01	47037.75
575.17	47126.69
575.33	46796.67
575.49	46995.62
575.65	47332.65
575.82	47363.08
575.98	47009.66
576.14	47578.41
576.30	47091.58
576.46	46876.25
576.62	46941.78
576.79	47489.47
576.95	47037.75
577.11	46813.05
577.27	47220.31
577.43	47145.41
577.59	47091.58
577.75	46894.97
577.92	46679.64
578.08	47248.39
578.24	47047.11
578.40	47271.80
578.56	47381.80
578.72	47063.49
578.88	47157.11
579.04	47339.68
579.21	47056.47
579.37	47129.03
579.53	47334.99
579.69	47232.01
579.85	47250.74
580.01	46983.91
580.17	46960.51
580.33	47213.29
580.49	47763.31
580.65	47620.54
580.82	47274.14
580.98	47180.52
581.14	47475.43
581.30	47466.06
581.46	47016.68
581.62	47262.44
581.78	47037.75
581.94	47983.32
582.10	47374.78
582.26	47260.10
582.42	47360.74
582.58	47650.97
582.74	47295.21
582.90	47051.79
583.06	47253.08
583.22	47185.20
583.38	47332.65
583.54	47569.05
583.70	47185.20
583.86	47091.58
584.02	46923.06
584.18	47428.62
584.34	47084.56
584.50	47452.02
584.66	47182.86
584.82	47271.80
584.98	47058.81
585.14	47311.59
585.30	46986.25
585.46	47185.20
585.62	47100.94
585.78	47262.44
585.94	47068.17
586.10	47421.59
586.26	46974.55
586.42	48002.05
586.58	47966.94
586.74	47669.69
586.90	47269.46
587.06	47477.77
587.22	47526.92
587.38	47246.05
587.54	47484.79
587.70	47468.40
587.86	47304.57
588.02	47304.57
588.18	47576.07
588.34	47110.30
588.49	46831.78
588.65	46560.28
588.81	47002.64
588.97	47262.44
589.13	46721.77
589.29	47061.15
589.45	46838.80
589.61	47054.13
589.77	47346.70
589.93	47274.14
590.08	47056.47
590.24	47840.55
590.40	47531.60
590.56	47714.16
590.72	47660.33
590.88	47447.34
591.04	47285.84
591.20	47903.74
591.35	47564.37
591.51	47931.83
591.67	47426.28
591.83	47765.65
591.99	47049.45
592.15	47264.78
592.31	47388.83
592.46	47400.53
592.62	47463.72
592.78	47356.06
592.94	47896.72
593.10	47269.46
593.26	47646.29
593.41	47419.25
593.57	47447.34
593.73	47412.23
593.89	47365.42
594.05	47119.66
594.20	47569.05
594.36	47643.94
594.52	47667.35
594.68	47388.83
594.84	47351.38
594.99	47519.90
595.15	47269.46
595.31	47683.73
595.47	47665.01
595.62	47723.52
595.78	47487.13
595.94	47885.02
596.10	47835.87
596.25	47849.91
596.41	47571.39
596.57	47374.78
596.73	47700.12
596.88	47622.88
597.04	47723.52
597.20	47739.91
597.36	47721.18
597.51	47517.56
597.67	47763.31
597.83	47540.96
597.99	47686.07
598.14	47683.73
598.30	47789.06
598.46	47835.87
598.61	47381.80
598.77	47484.79
598.93	47437.98
599.09	47613.52
599.24	47992.68
599.40	47817.14
599.56	47870.98
599.71	47683.73
599.87	47688.42
600.03	47239.03
600.18	47412.23
600.34	47323.29
600.50	47337.33
600.65	47337.33
600.81	47782.04
600.97	47796.08
601.12	47550.32
601.28	47927.15
601.44	47196.90
601.59	47491.81
601.75	47351.38
601.91	47639.26
602.06	46990.94
602.22	47423.93
602.37	47180.52
602.53	47578.41
602.69	48065.24
602.84	47634.58
603.00	47810.12
603.16	47510.53
603.31	47613.52
603.47	47463.72
603.62	47363.08
603.78	47524.58
603.94	47543.30
604.09	48037.16
604.25	47672.03
604.40	47599.47
604.56	47384.15
604.71	47718.84
604.87	47512.88
605.03	47503.51
605.18	47054.13
605.34	46944.12
605.49	47159.45
605.65	47543.30
605.80	47470.75
605.96	47976.30
606.12	47208.61
606.27	47299.89
606.43	47660.33
606.58	47491.81
606.74	47278.82
606.89	47138.39
607.05	47126.69
607.20	47625.22
607.36	47234.35
607.51	47398.19
607.67	47571.39
607.82	47196.90
607.98	47112.64
608.13	47098.60
608.29	46946.47
608.44	47075.19
608.60	46447.93
608.75	46569.64
608.91	47002.64
609.06	46660.92
609.22	47189.88
609.37	46850.50
609.53	47112.64
609.68	46918.38
609.84	47103.28
609.99	46803.69
610.15	47004.98
610.30	46911.36
610.46	46637.51
610.61	46646.88
610.76	47033.07
610.92	46904.34
611.07	46859.87
611.23	46932.42
611.38	46796.67
611.54	46710.07
611.69	47030.72
611.84	46925.40
612.00	46401.12
612.15	46621.13
612.31	46646.88
612.46	46155.36
612.62	46777.95
612.77	46382.40
612.92	46438.57
613.08	46635.17
613.23	46637.51
613.39	46101.53
613.54	46246.65
613.69	46445.59
613.85	45930.67
614.00	46670.28
614.15	46873.91
614.31	46457.29
614.46	46740.50
614.62	46454.95
614.77	46424.53
614.92	46003.23
615.08	45792.58
615.23	46026.63
615.38	46375.37
615.54	46183.45
615.69	46108.55
615.84	45876.84
616.00	46195.15
616.15	46019.61
616.30	46487.72
616.46	46045.36
616.61	45708.32
616.76	46047.70
616.92	45911.95
617.07	45382.99
617.22	45654.49
617.37	45937.69
617.53	45998.55
617.68	45996.21
617.83	45663.85
617.99	46038.34
618.14	45986.85
618.29	45755.13
618.45	45455.54
618.60	45830.03
618.75	45464.91
618.90	46005.57
619.06	45631.08
619.21	45698.96
619.36	45439.16
619.51	46234.94
619.67	45308.09
619.82	45532.78
619.97	45907.27
620.12	45343.20
620.28	45411.07
620.43	45694.28
620.58	45312.77
620.73	45696.62
620.89	45338.52
621.04	45485.97
621.19	45350.22
621.34	45020.20
621.49	44914.88
621.65	45099.78
621.80	45525.76
621.95	45244.90
622.10	45319.79
622.25	44727.64
622.41	44891.48
622.56	44830.62
622.71	44797.85
622.86	44844.66
623.01	45448.52
623.16	44814.24
623.32	44900.84
623.47	45305.75
623.62	44790.83
623.77	44856.37
623.92	44718.28
624.07	44568.48
624.23	44839.98
624.38	44406.98
624.53	44669.12
624.68	44685.51
624.83	44725.30
624.98	45003.82
625.13	44287.62
625.29	44800.19
625.44	44133.14
625.59	44360.17
625.74	44198.68
625.89	44112.08
626.04	44109.74
626.19	44252.51
626.34	44601.25
626.49	44224.42
626.65	44453.79
626.80	44514.65
626.95	44395.28
627.10	43786.74
627.25	43952.92
627.40	43990.37
627.55	43739.93
627.70	43739.93
627.85	43648.65
628.00	43838.23
628.15	43976.33
628.30	43838.23
628.45	44121.44
628.60	44027.82
628.76	44175.27
628.91	44074.63
629.06	43999.73
629.21	43629.93
629.36	43255.44
629.51	43540.99
629.66	43526.94
629.81	43697.80
629.96	43257.78
630.11	43533.96
630.26	43945.90
630.41	43627.59
630.56	43571.41
630.71	43475.45
630.86	43386.51
631.01	43049.47
631.16	43615.88
631.31	42838.83
631.46	43084.58
631.61	43311.61
631.76	43012.02
631.91	43042.45
632.06	43519.92
632.21	43093.94
632.36	43353.74
632.51	42850.53
632.66	42918.40
632.81	43049.47
632.96	43246.08
633.10	43110.33
633.25	43159.48
633.40	43070.54
633.55	43255.44
633.70	42836.48
633.85	42815.42
634.00	43068.20
634.15	42738.18
634.30	42965.21
634.45	43299.91
634.60	42752.23
634.75	43466.09
634.90	43023.73
635.05	42684.35
635.19	42738.18
635.34	43019.05
635.49	43115.01
635.64	42447.96
635.79	42490.09
635.94	42689.03
636.09	42401.14
636.24	42391.78
636.39	42274.76
636.53	42459.66
636.68	42579.03
636.83	42094.53
636.98	42579.03
637.13	42047.72
637.28	42312.20
637.43	42131.98
637.57	42265.39
637.72	42082.83
637.87	42199.86
638.02	42391.78
638.17	41649.83
638.32	41872.18
638.46	41874.52
638.61	41991.55
638.76	41497.70
638.91	42010.28
639.06	41900.27
639.20	41989.21
639.35	41940.06
639.50	42094.53
639.65	41986.87
639.80	42183.48
639.94	41862.82
640.09	41844.10
640.24	41359.61
640.39	41450.89
640.54	41099.81
640.68	41088.10
640.83	41567.91
640.98	41258.96
641.13	41111.51
641.27	41944.74
641.42	41429.82
641.57	41373.65
641.72	41467.27
641.86	41247.26
642.01	41258.96
642.16	41116.19
642.31	41373.65
642.45	41130.23
642.60	40795.54
642.75	41097.47
642.90	41329.18
643.04	40818.94
643.19	41074.06
643.34	41153.64
643.48	41240.24
643.63	41209.81
643.78	41235.56
643.93	40879.80
644.07	41057.68
644.22	40556.80
644.37	40835.33
644.51	40673.83
644.66	40353.18
644.81	40980.44
644.95	41212.15
645.10	41078.74
645.25	40966.40
645.39	40987.46
645.54	40968.74
645.69	40648.08
645.83	40561.48
645.98	41230.88
646.13	40605.95
646.27	41125.55
646.42	40341.47
646.57	40680.85
646.71	40636.38
646.86	40612.98
647.00	40339.13
647.15	40737.02
647.30	40154.23
647.44	40093.38
647.59	40678.51
647.74	40339.13
647.88	40336.79
648.03	40236.15
648.17	40399.99
648.32	39805.49
648.47	40201.04
648.61	39892.09
648.76	39945.92
648.90	40046.57
649.05	39754.00
649.20	40208.06
649.34	40184.66
649.49	39604.20
649.63	39948.26
649.78	40016.14
649.92	39658.04
650.07	39999.76
650.21	39772.72
650.36	40100.40
650.51	39744.64
650.65	39971.67
650.80	40088.70
650.94	40018.48
651.09	40037.20
651.23	39627.61
651.38	39772.72
651.52	39665.06
651.67	39922.52
651.81	39590.16
651.96	39669.74
652.10	39765.70
652.25	39587.82
652.39	39826.56
652.54	39887.41
652.68	39714.21
652.83	40076.99
652.97	39466.11
653.12	39569.10
653.26	39423.98
653.41	39311.64
653.55	38951.20
653.70	39180.57
653.84	39641.65
653.99	39033.11
654.13	39075.24
654.27	39203.97
654.42	39255.46
654.56	38983.96
654.71	39007.37
654.85	39138.44
655.00	39203.97
655.14	39239.08
655.29	38239.67
655.43	38763.95
655.57	38499.47
655.72	38511.17
655.86	38284.14
656.01	38256.06
656.15	38103.92
656.30	38323.93
656.44	38309.89
656.58	38225.63
656.73	38153.07
656.87	38286.48
657.01	38443.30
657.16	38305.21
657.30	38417.55
657.45	37996.26
657.59	38560.33
657.73	38199.88
657.88	38431.60
658.02	38677.35
658.16	38040.73
658.31	38380.10
658.45	38298.19
658.60	38557.99
658.74	38213.93
658.88	38204.56
659.03	38480.75
659.17	37937.74
659.31	37837.10
659.46	37926.04
659.60	37717.73
659.74	38036.05
659.89	38033.71
660.03	37869.87
660.17	37825.40
660.32	37881.57
660.46	37907.32
660.60	38040.73
660.74	37591.34
660.89	37591.34
661.03	36950.04
661.17	37319.84
661.32	36706.62
661.46	37406.44
661.60	37556.24
661.74	37691.99
661.89	36919.61
662.03	36938.33
662.17	36973.44
662.31	37141.96
662.46	36865.78
662.60	36992.17
662.74	36961.74
662.88	36641.09
663.03	36528.74
663.17	36758.11
663.31	36503.00
663.45	36718.32
663.60	36460.87
663.74	36034.89
663.88	36432.78
664.02	35997.44
664.17	36383.63
664.31	36669.17
664.45	36350.86
664.59	36418.74
664.73	36416.40
664.88	36222.13
665.02	36299.37
665.16	36353.20
665.30	36364.90
665.44	35969.35
665.59	35798.49
665.73	35901.48
665.87	35700.19
666.01	35505.93
666.15	35491.88
666.29	35578.48
666.44	35627.63
666.58	35700.19
666.72	35676.79
666.86	35519.97
667.00	35344.43
667.14	35435.71
667.28	35496.56
667.43	35421.67
667.57	35096.33
667.71	35239.11
667.85	34864.62
667.99	35337.41
668.13	34384.81
668.27	34462.05
668.41	35138.46
668.56	34712.49
668.70	35037.82
668.84	34710.14
668.98	34939.52
669.12	34752.27
669.26	34745.25
669.40	34618.86
669.54	34389.49
669.68	34206.93
669.82	34368.43
669.96	34246.72
670.10	33839.47
670.25	34368.43
670.39	34150.76
670.53	33900.32
670.67	33783.29
670.81	34237.36
670.95	34075.86
671.09	34178.84
671.23	33497.75
671.37	33619.46
671.51	33523.49
671.65	33263.69
671.79	33593.71
671.93	33731.80
672.07	33441.57
672.21	33502.43
672.35	33273.06
672.49	32645.79
672.63	33305.82
672.77	33153.69
672.91	33633.50
673.05	33191.14
673.19	33195.82
673.33	32460.89
673.47	32767.50
673.61	33170.07
673.75	32364.93
673.89	32341.52
674.03	32079.38
674.17	32315.78
674.31	32329.82
674.45	32044.27
674.59	32236.20
674.73	32165.98
674.87	32371.95
675.01	32123.85
675.15	32119.17
675.29	31931.93
675.43	31997.46
675.56	31964.70
675.70	31810.22
675.84	31182.96
675.98	30391.86
676.12	31377.22
676.26	31161.89
676.40	31117.42
676.54	30787.41
676.68	31356.16
676.82	30923.16
676.96	30834.22
677.10	30682.08
677.23	30539.31
677.37	30389.52
677.51	30281.85
677.65	30714.85
677.79	29972.90
677.93	30199.93
678.07	30015.03
678.21	29589.05
678.34	29677.99
678.48	29631.18
678.62	29656.93
678.76	29280.10
678.90	29422.87
679.04	29500.11
679.18	29252.02
679.31	29336.27
679.45	29209.89
679.59	28802.63
679.73	29015.62
679.87	29039.03
680.00	28748.80
680.14	28786.25
680.28	28507.72
680.42	28477.30
680.56	28395.38
680.70	28322.82
680.83	28343.89
680.97	28233.88
681.11	27957.70
681.25	27660.45
681.39	28058.34
681.52	27742.37
681.66	27489.59
681.80	27852.38
681.94	27847.69
682.07	27606.62
682.21	27206.39
682.35	27513.00
682.49	27278.94
682.62	27253.20
682.76	27215.75
682.90	27297.67
683.04	27133.83
683.17	27065.96
683.31	26335.71
683.45	26567.42
683.59	26691.47
683.72	26029.10
683.86	26141.44
684.00	26331.03
684.13	26036.12
684.27	26260.81
684.41	25853.56
684.55	25743.55
684.68	25965.90
684.82	25942.50
684.96	26040.80
685.09	25579.71
685.23	25638.23
685.37	25968.24
685.50	25221.61
685.64	25310.55
685.78	25181.82
685.91	25280.13
686.05	24952.45
686.19	24889.26
686.32	24898.62
686.46	24774.57
686.60	24439.87
686.73	24388.38
686.87	23990.49
687.01	23480.25
687.14	23522.38
687.28	23669.84
687.42	23871.12
687.55	23770.48
687.69	23934.32
687.82	23557.49
687.96	23428.76
688.10	23660.48
688.23	23529.41
688.37	23580.90
688.50	23091.73
688.64	22806.18
688.78	22773.41
688.91	22860.01
689.05	22745.33
689.18	22750.01
689.32	22511.27
689.46	22640.00
689.59	22707.88
689.73	22991.08
689.86	22506.59
690.00	22221.05
690.13	22504.25
690.27	22427.01
690.41	22490.21
690.54	21956.57
690.68	22005.72
690.81	21776.34
690.95	21996.35
691.08	21682.72
691.22	21741.24
691.35	21762.30
691.49	21956.57
691.62	21848.90
691.76	21474.42
691.89	21790.39
692.03	21212.28
692.16	21137.38
692.30	21336.32
692.43	21212.28
692.57	20725.44
692.70	20830.77
692.84	20924.39
692.97	20606.08
693.11	20259.68
693.24	20365.00
693.38	20409.47
693.51	20322.87
693.65	20210.53
693.78	20306.49
693.92	20287.76
694.05	20177.76
694.19	20039.67
694.32	20088.82
694.45	19892.21
694.59	19646.46
694.72	19658.16
694.86	19431.13
694.99	19309.42
695.13	19204.10
695.26	19180.69
695.39	19066.00
695.53	19108.13
695.66	19061.32
695.80	18965.36
695.93	18988.77
696.07	18677.48
696.20	18904.51
696.33	19002.81
696.47	18497.25
696.60	18504.28
696.73	18576.83
696.87	18485.55
697.00	18401.29
697.14	18501.93
697.27	17991.70
697.40	18195.32
697.54	17926.16
697.67	17869.99
697.80	17635.94
697.94	17963.61
698.07	17776.37
698.21	17474.44
698.34	17411.25
698.47	17640.62
698.61	17364.43
698.74	17289.54
698.87	17186.55
699.01	17160.81
699.14	16847.18
699.27	16816.75
699.40	17149.11
699.54	16664.61
699.67	16629.51
699.80	16624.83
699.94	16830.79
700.07	16575.67
700.20	16531.20
700.34	16294.81
700.47	16114.59
700.60	16325.24
700.73	16622.48
700.87	16327.58
701.00	15927.35
701.13	15953.09
701.26	15990.54
701.40	15772.87
701.53	15775.21
701.66	15758.83
701.79	15506.05
701.93	15508.39
702.06	15398.38
702.19	15218.16
702.32	15735.42
702.46	15372.64
702.59	15501.37
702.72	15349.23
702.85	15302.42
702.99	15094.11
703.12	15187.74
703.25	14981.77
703.38	14841.34
703.51	14635.37
703.65	14813.25
703.78	14569.83
703.91	14726.65
704.04	14516.00
704.17	14169.60
704.31	14129.81
704.44	14090.02
704.57	14185.99
704.70	14136.84
704.83	14185.99
704.96	14178.97
705.10	14115.77
705.23	13921.51
>>>>>End Processed Spectral Data<<<<<
