SpectraSuite Data File
++++++++++++++++++++++++++++++++++++
Date: Fri Oct 25 11:34:41 EDT 2013
User: price-jones
Dark Spectrum Present: No
Reference Spectrum Present: No
Number of Sampled Component Spectra: 1
Spectrometers: USB2+H05261
Integration Time (usec): 100000 (USB2+H05261)
Spectra Averaged: 1 (USB2+H05261)
Boxcar Smoothing: 0 (USB2+H05261)
Correct for Electrical Dark: No (USB2+H05261)
Strobe/Lamp Enabled: No (USB2+H05261)
Correct for Detector Non-linearity: No (USB2+H05261)
Correct for Stray Light: No (USB2+H05261)
Number of Pixels in Processed Spectrum: 2048
>>>>>Begin Processed Spectral Data<<<<<
365.73	269.16
365.92	269.16
366.12	269.16
366.32	208.31
366.52	287.89
366.72	166.18
366.91	168.52
367.11	217.67
367.31	168.52
367.51	161.50
367.70	121.71
367.90	187.24
368.10	205.97
368.30	191.92
368.49	159.16
368.69	182.56
368.89	152.13
369.09	149.79
369.28	198.95
369.48	238.73
369.68	255.12
369.87	238.73
370.07	264.48
370.27	322.99
370.47	374.49
370.66	456.40
370.86	554.71
371.06	500.87
371.25	575.77
371.45	594.50
371.65	554.71
371.84	561.73
372.04	554.71
372.24	594.50
372.44	559.39
372.63	503.22
372.83	528.96
373.03	578.11
373.22	582.79
373.42	554.71
373.62	631.94
373.81	650.67
374.01	582.79
374.21	603.86
374.40	599.18
374.60	692.80
374.79	629.60
374.99	624.92
375.19	653.01
375.38	660.03
375.58	627.26
375.78	758.33
375.97	713.86
376.17	690.46
376.37	718.54
376.56	688.12
376.76	699.82
376.95	683.44
377.15	608.54
377.35	716.20
377.54	716.20
377.74	692.80
377.93	657.69
378.13	718.54
378.33	734.93
378.52	627.26
378.72	720.88
378.91	716.20
379.11	676.41
379.31	704.50
379.50	667.05
379.70	697.48
379.89	739.61
380.09	739.61
380.28	770.04
380.48	727.91
380.68	695.14
380.87	763.01
381.07	645.99
381.26	779.40
381.46	758.33
381.65	713.86
381.85	777.06
382.04	798.12
382.24	716.20
382.43	760.67
382.63	823.87
382.83	795.78
383.02	732.59
383.22	781.74
383.41	767.70
383.61	786.42
383.80	814.51
384.00	772.38
384.19	713.86
384.39	837.91
384.58	849.61
384.78	858.98
384.97	807.48
385.17	734.93
385.36	823.87
385.56	741.95
385.75	809.83
385.95	868.34
386.14	823.87
386.34	873.02
386.53	823.87
386.72	870.68
386.92	823.87
387.11	870.68
387.31	856.64
387.50	812.17
387.70	795.78
387.89	880.04
388.09	877.70
388.28	823.87
388.48	887.06
388.67	877.70
388.86	922.17
389.06	931.53
389.25	938.55
389.45	863.66
389.64	964.30
389.84	959.62
390.03	924.51
390.22	950.26
390.42	894.08
390.61	950.26
390.81	891.74
391.00	973.66
391.19	961.96
391.39	929.19
391.58	973.66
391.78	905.79
391.97	957.28
392.16	999.41
392.36	1004.09
392.55	910.47
392.75	1015.79
392.94	999.41
393.13	1036.86
393.33	1018.13
393.52	1104.73
393.71	1025.15
393.91	1022.81
394.10	1060.26
394.29	1181.97
394.49	971.32
394.68	1158.57
394.88	1050.90
395.07	1081.33
395.26	1151.54
395.46	1156.22
395.65	1163.25
395.84	1093.03
396.04	1193.67
396.23	1177.29
396.42	1179.63
396.62	1177.29
396.81	1142.18
397.00	1088.35
397.19	1221.76
397.39	1107.07
397.58	1277.93
397.77	1217.08
397.97	1235.80
398.16	1193.67
398.35	1301.34
398.55	1315.38
398.74	1259.21
398.93	1317.72
399.12	1228.78
399.32	1228.78
399.51	1219.42
399.70	1268.57
399.90	1261.55
400.09	1345.81
400.28	1261.55
400.47	1277.93
400.67	1439.43
400.86	1296.66
401.05	1259.21
401.24	1380.92
401.44	1357.51
401.63	1404.32
401.82	1392.62
402.01	1352.83
402.21	1289.64
402.40	1380.92
402.59	1495.60
402.78	1467.52
402.97	1448.79
403.17	1376.24
403.36	1371.55
403.55	1448.79
403.74	1556.46
403.93	1516.67
404.13	1577.52
404.32	1469.86
404.51	1483.90
404.70	1504.96
404.89	1533.05
405.09	1596.25
405.28	1596.25
405.47	1554.12
405.66	1717.95
405.85	1717.95
406.05	1715.61
406.24	1748.38
406.43	1657.10
406.62	1757.74
406.81	1827.96
407.00	1753.06
407.20	1685.19
407.39	1682.85
407.58	1671.14
407.77	1729.66
407.96	1769.44
408.15	1914.56
408.34	1820.94
408.54	1905.20
408.73	1825.62
408.92	1806.89
409.11	1846.68
409.30	1888.81
409.49	1863.07
409.68	1912.22
409.87	1877.11
410.07	1977.75
410.26	2022.22
410.45	1949.67
410.64	1980.09
410.83	2054.99
411.02	1952.01
411.21	2092.44
411.40	2026.90
411.59	2115.84
411.78	2026.90
411.98	2052.65
412.17	2090.10
412.36	2076.06
412.55	2134.57
412.74	2223.51
412.93	2193.08
413.12	2211.81
413.31	2244.57
413.50	2286.70
413.69	2197.76
413.88	2441.18
414.07	2385.01
414.26	2282.02
414.45	2499.69
414.64	2504.37
414.83	2448.20
415.02	2448.20
415.22	2534.80
415.41	2497.35
415.60	2527.78
415.79	2602.68
415.98	2689.28
416.17	2509.05
416.36	2511.39
416.55	2637.78
416.74	2682.25
416.93	2712.68
417.12	2670.55
417.31	2745.45
417.50	2717.36
417.69	2750.13
417.88	2799.28
418.07	2740.77
418.26	2789.92
418.45	2752.47
418.64	2911.63
418.83	2881.20
419.02	2843.75
419.21	2951.42
419.39	3007.59
419.58	2937.37
419.77	2820.35
419.96	2991.20
420.15	2949.08
420.34	2904.60
420.53	3045.04
420.72	3049.72
420.91	3021.63
421.10	3157.38
421.29	3091.85
421.48	3117.59
421.67	3087.17
421.86	3105.89
422.05	3082.49
422.24	3023.97
422.43	3159.72
422.61	3265.05
422.80	3283.77
422.99	3162.06
423.18	3096.53
423.37	3166.74
423.56	3185.47
423.75	3314.20
423.94	3089.51
424.13	2998.23
424.32	3129.30
424.50	3337.60
424.69	3370.37
424.88	3398.46
425.07	3260.37
425.26	3201.85
425.45	3248.66
425.64	3157.38
425.83	3241.64
426.01	3279.09
426.20	3255.69
426.39	3365.69
426.58	3220.58
426.77	3283.77
426.96	3410.16
427.15	3232.28
427.33	3503.78
427.52	3368.03
427.71	3325.90
427.90	3435.91
428.09	3496.76
428.28	3466.33
428.46	3557.61
428.65	3524.85
428.84	3616.13
429.03	3588.04
429.22	3597.40
429.40	3566.98
429.59	3571.66
429.78	3449.95
429.97	3545.91
430.16	3702.73
430.34	3686.34
430.53	3627.83
430.72	3632.51
430.91	3618.47
431.10	3637.19
431.28	3786.99
431.47	3550.59
431.66	3749.54
431.85	3662.94
432.03	3761.24
432.22	3817.41
432.41	3913.38
432.60	3957.85
432.79	3992.95
432.97	3974.23
433.16	3892.31
433.35	3880.61
433.54	3836.14
433.72	3932.10
433.91	3904.01
434.10	4049.13
434.28	3896.99
434.47	4046.79
434.66	4072.53
434.85	4009.34
435.03	4051.47
435.22	4149.77
435.41	4189.56
435.59	4201.26
435.78	4145.09
435.97	4325.31
436.16	4210.62
436.34	4100.62
436.53	4222.33
436.72	4238.71
436.90	4084.23
437.09	4257.43
437.28	4250.41
437.46	4301.90
437.65	4243.39
437.84	4458.72
438.02	4313.61
438.21	4442.34
438.40	4301.90
438.58	4402.55
438.77	4622.56
438.96	4507.87
439.14	4442.34
439.33	4685.75
439.52	4692.77
439.70	4758.31
439.89	4718.52
440.08	4671.71
440.26	4695.11
440.45	4692.77
440.63	4781.71
440.82	4940.87
441.01	4730.22
441.19	4826.18
441.38	4971.30
441.57	5013.43
441.75	4961.94
441.94	5060.24
442.12	4943.21
442.31	5259.18
442.50	5135.14
442.68	5067.26
442.87	5224.08
443.05	5411.32
443.24	5327.06
443.43	5217.05
443.61	5282.59
443.80	5245.14
443.98	5062.58
444.17	5041.51
444.35	5301.31
444.54	5310.68
444.73	5259.18
444.91	5362.17
445.10	5282.59
445.28	5334.08
445.47	5432.38
445.65	5462.81
445.84	5397.28
446.02	5317.70
446.21	5334.08
446.39	5406.64
446.58	5369.19
446.77	5383.23
446.95	5380.89
447.14	5357.49
447.32	5528.35
447.51	5373.87
447.69	5472.17
447.88	5486.22
448.06	5488.56
448.25	5497.92
448.43	5458.13
448.62	5500.26
448.80	5607.92
448.99	5570.48
449.17	5589.20
449.36	5598.56
449.54	5673.46
449.73	5636.01
449.91	5673.46
450.10	5556.43
450.28	5720.27
450.46	5834.96
450.65	5738.99
450.83	5792.83
451.02	6005.81
451.20	5818.57
451.39	5902.83
451.57	5837.30
451.76	5930.92
451.94	5881.77
452.13	5804.53
452.31	5811.55
452.49	5980.07
452.68	6001.13
452.86	5980.07
453.05	6094.76
453.23	6043.26
453.42	6052.63
453.60	5989.43
453.78	6169.65
453.97	6031.56
454.15	6141.57
454.34	6059.65
454.52	6209.44
454.70	6303.06
454.89	6118.16
455.07	6193.06
455.26	6200.08
455.44	6216.46
455.62	6310.08
455.81	6277.32
455.99	6420.09
456.17	6284.34
456.36	6434.13
456.54	6574.56
456.73	6368.60
456.91	6640.10
457.09	6654.14
457.28	6796.92
457.46	6590.95
457.64	6703.29
457.83	6642.44
458.01	6672.87
458.19	6778.19
458.38	6789.89
458.56	6857.77
458.74	6775.85
458.93	6841.39
459.11	6733.72
459.29	6785.21
459.48	6885.86
459.66	6715.00
459.84	6864.79
460.03	7152.68
460.21	6960.75
460.39	7084.80
460.57	7047.35
460.76	7096.50
460.94	7056.72
461.12	7098.84
461.31	7185.44
461.49	6993.52
461.67	7157.36
461.85	7375.03
462.04	6963.09
462.22	7630.15
462.40	7173.74
462.59	7538.87
462.77	7178.42
462.95	7527.16
463.13	7466.31
463.32	7445.24
463.50	7691.00
463.68	7442.90
463.86	7470.99
464.05	7365.67
464.23	7478.01
464.41	7400.77
464.59	7501.42
464.78	7691.00
464.96	7562.27
465.14	7585.68
465.32	7527.16
465.50	7501.42
465.69	7747.17
465.87	7772.92
466.05	7793.98
466.23	7611.42
466.41	7672.28
466.60	7758.88
466.78	7585.68
466.96	7768.24
467.14	7644.19
467.32	7721.43
467.51	7901.65
467.69	7634.83
467.87	7740.15
468.05	7999.95
468.23	8035.06
468.41	7925.05
468.60	7934.42
468.78	8025.70
468.96	7971.86
469.14	8149.75
469.32	8091.23
469.50	7796.32
469.69	8156.77
469.87	8177.83
470.05	8191.88
470.23	8177.83
470.41	8086.55
470.59	8252.73
470.77	8224.64
470.95	8252.73
471.14	8575.72
471.32	8339.33
471.50	8594.45
471.68	8578.06
471.86	8505.51
472.04	8772.33
472.22	8681.05
472.40	8697.43
472.58	8599.13
472.77	8774.67
472.95	8807.44
473.13	9135.11
473.31	8816.80
473.49	8816.80
473.67	8847.22
473.85	8975.95
474.03	9245.12
474.21	9025.11
474.39	9254.48
474.57	9343.42
474.75	9296.61
474.93	9317.67
475.12	9380.87
475.30	9659.39
475.48	9315.33
475.66	9455.76
475.84	9685.14
476.02	9406.61
476.20	9734.29
476.38	9823.23
476.56	9884.08
476.74	10061.96
476.92	9795.14
477.10	9841.95
477.28	10050.26
477.46	10200.05
477.64	10291.34
477.82	10293.68
478.00	10649.44
478.18	10441.13
478.36	10619.01
478.54	10752.42
478.72	10649.44
478.90	10726.68
479.08	10951.37
479.26	11063.71
479.44	11248.61
479.62	10871.79
479.80	11293.08
479.98	11272.02
480.16	11375.00
480.34	11454.58
480.52	11501.39
480.70	11648.85
480.88	11513.10
481.06	11700.34
481.24	11644.17
481.41	11641.82
481.59	12095.89
481.77	12086.53
481.95	12184.83
482.13	12343.99
482.31	12182.49
482.49	12493.78
482.67	12634.21
482.85	12636.55
483.03	12767.62
483.21	12826.14
483.39	12915.08
483.57	13240.41
483.74	13233.39
483.92	13041.46
484.10	13025.08
484.28	13563.40
484.46	13774.05
484.64	13977.68
484.82	13689.79
485.00	13839.59
485.18	14193.01
485.35	14314.72
485.53	14075.98
485.71	14232.80
485.89	14572.18
486.07	14565.15
486.25	14445.79
486.43	14586.22
486.61	14998.15
486.78	14876.44
486.96	15220.50
487.14	15264.97
487.32	15321.15
487.50	15342.21
487.68	15318.81
487.85	16004.58
488.03	15889.90
488.21	16079.48
488.39	15997.56
488.57	15836.06
488.75	16156.72
488.92	16432.90
489.10	16533.54
489.28	16505.46
489.46	16624.83
489.64	16685.68
489.81	16844.84
489.99	17088.25
490.17	17123.36
490.35	16968.88
490.53	17350.39
490.70	17397.20
490.88	17432.31
491.06	17778.71
491.24	17788.07
491.41	17968.29
491.59	18001.06
491.77	18033.83
491.95	17884.03
492.13	18408.31
492.30	18586.19
492.48	18965.36
492.66	18668.11
492.84	18611.94
493.01	18953.66
493.19	18923.23
493.37	19241.54
493.54	19056.64
493.72	19571.56
493.90	19377.30
494.08	19522.41
494.25	19569.22
494.43	19864.13
494.61	20053.71
494.79	20339.26
494.96	20091.16
495.14	20423.51
495.32	20702.04
495.49	20414.15
495.67	20552.24
495.85	20505.43
496.02	20765.23
496.20	21025.03
496.38	20865.88
496.55	21125.68
496.73	21458.03
496.91	21378.45
497.09	21296.53
497.26	21415.90
497.44	21483.78
497.62	21654.64
497.79	22188.28
497.97	21909.75
498.14	22003.38
498.32	22279.56
498.50	21919.12
498.67	22560.42
498.85	22431.69
499.03	22473.82
499.20	22654.05
499.38	22780.43
499.56	22897.46
499.73	23084.70
499.91	22998.10
500.08	23232.16
500.26	23105.77
500.44	23468.55
500.61	23480.25
500.79	23463.87
500.97	23604.30
501.14	23679.20
501.32	23885.17
501.49	24091.13
501.67	24112.20
501.84	24273.70
502.02	23978.79
502.20	24149.65
502.37	24505.41
502.55	24341.57
502.72	24416.47
502.90	24348.59
503.07	24437.53
503.25	24524.13
503.43	24369.66
503.60	24865.85
503.78	24608.39
503.95	24973.52
504.13	24744.14
504.30	25163.10
504.48	25050.75
504.65	25174.80
504.83	25315.23
505.01	25544.61
505.18	25579.71
505.36	25568.01
505.53	25614.82
505.71	26157.83
505.88	25722.49
506.06	25642.91
506.23	26143.78
506.41	25816.11
506.58	26389.54
506.76	26380.18
506.93	26675.09
507.11	26225.70
507.28	26403.58
507.46	26436.35
507.63	26677.43
507.81	26836.58
507.98	26677.43
508.16	26775.73
508.33	27070.64
508.50	26712.53
508.68	26871.69
508.85	27283.62
509.03	27166.60
509.20	27075.32
509.38	27887.48
509.55	27723.65
509.73	27232.13
509.90	27187.66
510.08	27513.00
510.25	28039.62
510.42	27810.25
510.60	28180.05
510.77	28180.05
510.95	28357.93
511.12	28386.02
511.30	28250.27
511.47	28315.80
511.64	28114.52
511.82	28367.29
511.99	28481.98
512.17	28617.73
512.34	28341.55
512.51	28961.79
512.69	28872.85
512.86	28779.23
513.04	29153.71
513.21	29160.73
513.38	29249.67
513.56	29750.55
513.73	28802.63
513.90	29525.86
514.08	29383.09
514.25	29839.49
514.43	29663.95
514.60	29928.43
514.77	29703.74
514.95	29778.64
515.12	29972.90
515.29	29759.91
515.47	29788.00
515.64	29778.64
515.81	29869.92
515.99	30118.01
516.16	30363.77
516.33	30473.78
516.51	30478.46
516.68	30541.65
516.85	30630.59
517.03	30859.96
517.20	30831.88
517.37	30735.92
517.54	30831.88
517.72	31047.21
517.89	30845.92
518.06	30967.63
518.24	31454.46
518.41	30735.92
518.58	30899.75
518.75	30890.39
518.93	31620.64
519.10	31417.01
519.27	31606.59
519.45	31452.12
519.62	31365.52
519.79	32018.53
519.96	31309.35
520.14	32018.53
520.31	31962.36
520.48	32126.19
520.65	31899.16
520.83	32231.52
521.00	32334.50
521.17	32292.37
521.34	32563.87
521.52	32268.97
521.69	32685.58
521.86	32811.97
522.03	32313.44
522.20	32856.44
522.38	33270.72
522.55	32608.34
522.72	32992.19
522.89	33160.71
523.07	33699.03
523.24	33151.35
523.41	33242.63
523.58	33031.98
523.75	33570.30
523.92	33158.37
524.10	33263.69
524.27	33865.21
524.44	33755.21
524.61	34000.96
524.78	33717.76
524.96	34263.10
525.13	34143.74
525.30	33944.79
525.47	33900.32
525.64	33907.34
525.81	33912.02
525.98	34487.79
526.16	34312.25
526.33	33762.23
526.50	34607.16
526.67	34288.85
526.84	34600.14
527.01	34398.85
527.18	34394.17
527.36	34759.30
527.53	34995.69
527.70	35117.40
527.87	34962.92
528.04	34696.10
528.21	34885.68
528.38	35091.65
528.55	35227.40
528.72	34986.33
528.89	35007.39
529.07	35175.91
529.24	34745.25
529.41	35044.84
529.58	35346.77
529.75	35332.73
529.92	35428.69
530.09	35468.48
530.26	35285.92
530.43	35243.79
530.60	35276.55
530.77	35419.33
530.94	35826.58
531.11	35543.38
531.28	35803.17
531.46	35644.02
531.63	35438.05
531.80	35573.80
531.97	36182.34
532.14	36348.52
532.31	36114.47
532.48	36123.83
532.65	36725.35
532.82	36627.04
532.99	36395.33
533.16	36194.04
533.33	36580.23
533.50	36573.21
533.67	36491.29
533.84	36463.21
534.01	36425.76
534.18	36676.19
534.35	37116.22
534.52	37172.39
534.69	37069.40
534.86	37027.28
535.03	37230.90
535.20	36924.29
535.37	37141.96
535.54	37471.98
535.71	37127.92
535.88	37390.06
536.05	36914.93
536.22	37661.56
536.38	37111.53
536.55	37457.93
536.72	36940.68
536.89	37134.94
537.06	37418.14
537.23	37703.69
537.40	37462.61
537.57	37455.59
537.74	37333.89
537.91	37528.15
538.08	37818.38
538.25	37626.45
538.42	38003.28
538.59	37963.49
538.75	37691.99
538.92	38424.57
539.09	38277.12
539.26	37794.97
539.43	38478.41
539.60	38047.75
539.77	38054.77
539.94	38504.15
540.11	38309.89
540.28	38401.17
540.44	38590.75
540.61	38876.30
540.78	38520.54
540.95	37970.51
541.12	38347.34
541.29	38230.31
541.46	38330.95
541.62	38600.12
541.79	39210.99
541.96	38625.86
542.13	38476.07
542.30	38635.22
542.47	39082.27
542.63	39171.21
542.80	39346.75
542.97	39033.11
543.14	39175.89
543.31	39285.89
543.48	39171.21
543.64	39772.72
543.81	40091.04
543.98	39873.37
544.15	39313.98
544.32	39393.56
544.48	40168.27
544.65	40280.62
544.82	40107.42
544.99	40114.44
545.16	39838.26
545.32	39941.24
545.49	40184.66
545.66	40027.84
545.83	40261.90
546.00	40079.33
546.16	40161.25
546.33	40086.36
546.50	40208.06
546.67	40034.86
546.83	39789.11
547.00	40086.36
547.17	39901.45
547.34	40268.92
547.50	40364.88
547.67	40957.03
547.84	40437.44
548.00	40987.46
548.17	40694.89
548.34	40854.05
548.51	41207.47
548.67	40935.97
548.84	40748.73
549.01	41020.23
549.18	40781.49
549.34	41378.33
549.51	41219.17
549.68	40842.35
549.84	40762.77
550.01	40964.06
550.18	41050.66
550.34	41352.58
550.51	41333.86
550.68	41167.68
550.84	41282.37
551.01	41464.93
551.18	41181.73
551.34	41076.40
551.51	41380.67
551.68	41401.74
551.84	41401.74
552.01	41310.46
552.18	41226.20
552.34	41270.67
552.51	41860.48
552.68	41029.59
552.84	41640.47
553.01	41710.69
553.18	41303.43
553.34	41411.10
553.51	41347.90
553.67	42029.00
553.84	41937.72
554.01	41865.16
554.17	42305.18
554.34	42202.20
554.51	42054.75
554.67	42073.47
554.84	41933.04
555.00	42000.91
555.17	42000.91
555.33	42281.78
555.50	42019.64
555.67	42527.53
555.83	41998.57
556.00	42391.78
556.16	42539.24
556.33	41731.75
556.50	42494.77
556.66	42368.38
556.83	41921.34
556.99	42452.64
557.16	42658.60
557.32	42506.47
557.49	42850.53
557.65	42279.44
557.82	42422.21
557.98	42801.38
558.15	42412.85
558.32	42696.05
558.48	42417.53
558.65	42433.91
558.81	42712.44
558.98	42667.97
559.14	42738.18
559.31	42356.67
559.47	42777.97
559.64	42454.98
559.80	42948.83
559.97	42806.06
560.13	42630.52
560.30	43019.05
560.46	42993.30
560.63	42670.31
560.79	43012.02
560.96	43730.57
561.12	43091.60
561.29	43290.55
561.45	42927.77
561.61	43407.58
561.78	43058.84
561.94	43199.27
562.11	42990.96
562.27	43093.94
562.44	43063.52
562.60	42672.65
562.77	43154.80
562.93	43194.59
563.10	43679.08
563.26	43126.71
563.42	43775.04
563.59	43213.31
563.75	43143.09
563.92	43356.08
564.08	43548.01
564.24	43377.15
564.41	43412.26
564.57	43442.68
564.74	43325.66
564.90	43426.30
565.07	43274.16
565.23	43578.43
565.39	43386.51
565.56	43863.98
565.72	43735.25
565.88	43400.55
566.05	43749.29
566.21	43667.37
566.38	43868.66
566.54	43852.28
566.70	44013.77
566.87	43709.50
567.03	43543.33
567.19	43859.30
567.36	43995.05
567.52	43594.82
567.68	44025.48
567.85	43704.82
568.01	44198.68
568.17	43501.20
568.34	43627.59
568.50	43985.69
568.66	43533.96
568.83	44172.93
568.99	43936.54
569.15	43995.05
569.32	43924.83
569.48	43569.07
569.64	44264.21
569.81	43908.45
569.97	43962.28
570.13	44371.88
570.30	43693.12
570.46	44217.40
570.62	44053.56
570.78	44025.48
570.95	43679.08
571.11	44320.38
571.27	44088.67
571.43	44292.30
571.60	44088.67
571.76	44030.16
571.92	44198.68
572.09	43992.71
572.25	44208.04
572.41	43835.89
572.57	44086.33
572.74	44737.00
572.90	44083.99
573.06	44252.51
573.22	44477.20
573.38	44275.91
573.55	44219.74
573.71	45074.04
573.87	44334.43
574.03	44907.86
574.20	44589.55
574.36	44402.30
574.52	44521.67
574.68	44432.73
574.84	44608.27
575.01	44697.21
575.17	44687.85
575.33	44741.68
575.49	43711.84
575.65	44704.23
575.82	44435.07
575.98	44341.45
576.14	44374.22
576.30	44509.97
576.46	44619.97
576.62	44734.66
576.79	44406.98
576.95	44315.70
577.11	44732.32
577.27	44947.65
577.43	44774.45
577.59	44292.30
577.75	44498.26
577.92	44360.17
578.08	44388.26
578.24	44802.53
578.40	44837.64
578.56	44657.42
578.72	44516.99
578.88	44814.24
579.04	44641.04
579.21	44479.54
579.37	44514.65
579.53	44521.67
579.69	44615.29
579.85	44231.44
580.01	44488.90
580.17	44975.73
580.33	44257.19
580.49	44687.85
580.65	44563.80
580.82	44821.26
580.98	44432.73
581.14	44161.23
581.30	44713.59
581.46	44336.77
581.62	44772.11
581.78	44643.38
581.94	44531.03
582.10	44259.53
582.26	44619.97
582.42	44751.04
582.58	44734.66
582.74	44252.51
582.90	44257.19
583.06	44729.98
583.22	44711.25
583.38	44786.15
583.54	44779.13
583.70	44605.93
583.86	44708.91
584.02	44624.65
584.18	44802.53
584.34	45195.74
584.50	44832.96
584.66	44877.43
584.82	45380.65
584.98	45198.09
585.14	44638.70
585.30	44404.64
585.46	44744.02
585.62	44788.49
585.78	44809.56
585.94	44521.67
586.10	44488.90
586.26	44676.15
586.42	44531.03
586.58	44472.52
586.74	44821.26
586.90	44811.90
587.06	44617.63
587.22	44982.76
587.38	44591.89
587.54	45200.43
587.70	45233.19
587.86	44987.44
588.02	44479.54
588.18	44292.30
588.34	44844.66
588.49	44711.25
588.65	44545.08
588.81	44865.73
588.97	44788.49
589.13	44844.66
589.29	45287.03
589.45	45219.15
589.61	45165.32
589.77	45303.41
589.93	44774.45
590.08	45354.90
590.24	45432.14
590.40	45378.31
590.56	45380.65
590.72	44992.12
590.88	45153.62
591.04	44907.86
591.20	45591.30
591.35	45382.99
591.51	45429.80
591.67	45160.64
591.83	45502.35
591.99	45099.78
592.15	44741.68
592.31	45254.26
592.46	45118.51
592.62	45312.77
592.78	45392.35
592.94	45546.82
593.10	45888.54
593.26	45603.00
593.41	45677.90
593.57	45645.13
593.73	45216.81
593.89	45844.07
594.05	45511.72
594.20	45584.27
594.36	45677.90
594.52	45584.27
594.68	45432.14
594.84	45485.97
594.99	45481.29
595.15	45841.73
595.31	45621.72
595.47	45373.63
595.62	45729.39
595.78	45401.71
595.94	45729.39
596.10	45488.31
596.25	45155.96
596.41	45617.04
596.57	45551.51
596.73	45567.89
596.88	45663.85
597.04	45710.66
597.20	45860.46
597.36	45406.39
597.51	45848.75
597.67	45588.95
597.83	45598.32
597.99	45188.72
598.14	45708.32
598.30	45434.48
598.46	45425.12
598.61	46213.88
598.77	46064.08
598.93	45914.29
599.09	45364.26
599.24	45865.14
599.40	45724.71
599.56	45722.37
599.71	45947.06
599.87	46054.72
600.03	45954.08
600.18	45907.27
600.34	45514.06
600.50	45769.18
600.65	45717.68
600.81	46237.28
600.97	45825.35
601.12	45893.22
601.28	45825.35
601.44	45483.63
601.59	45954.08
601.75	45525.76
601.91	46546.23
602.06	45619.38
602.22	45900.25
602.37	45610.02
602.53	45916.63
602.69	45918.97
602.84	45450.86
603.00	45713.00
603.16	45698.96
603.31	45741.09
603.47	45769.18
603.62	45591.30
603.78	45762.15
603.94	45677.90
604.09	45696.62
604.25	45794.92
604.40	45593.64
604.56	45698.96
604.71	46115.58
604.87	45373.63
605.03	45504.70
605.18	46003.23
605.34	45429.80
605.49	45565.55
605.65	45790.24
605.80	45392.35
605.96	45340.86
606.12	45378.31
606.27	45790.24
606.43	45457.88
606.58	45860.46
606.74	45500.01
606.89	45556.19
607.05	45820.67
607.20	45556.19
607.36	45347.88
607.51	45600.66
607.67	45331.50
607.82	45813.65
607.98	45659.17
608.13	45380.65
608.29	45530.44
608.44	45490.65
608.60	45476.61
608.75	45530.44
608.91	45095.10
609.06	45390.01
609.22	45701.30
609.37	45251.92
609.53	45551.51
609.68	45544.48
609.84	45284.68
609.99	45198.09
610.15	45542.14
610.30	45537.46
610.46	45455.54
610.61	45542.14
610.76	45528.10
610.92	45146.59
611.07	45518.74
611.23	44959.35
611.38	45226.17
611.54	45755.13
611.69	45691.94
611.84	45155.96
612.00	45067.02
612.15	45434.48
612.31	45329.16
612.46	44596.57
612.62	45097.44
612.77	45331.50
612.92	45790.24
613.08	44669.12
613.23	45624.06
613.39	45104.46
613.54	44842.32
613.69	45153.62
613.85	44809.56
614.00	44999.14
614.15	45375.97
614.31	44718.28
614.46	44748.70
614.62	44921.90
614.77	45387.67
614.92	44992.12
615.08	45020.20
615.23	44741.68
615.38	45038.93
615.54	44655.08
615.69	45244.90
615.84	44722.96
616.00	45303.41
616.15	44919.56
616.30	45085.74
616.46	44889.13
616.61	44718.28
616.76	45064.67
616.92	44516.99
617.07	44854.03
617.22	44584.86
617.37	44301.66
617.53	44498.26
617.68	44725.30
617.83	44858.71
617.99	45067.02
618.14	44928.92
618.29	43978.67
618.45	44561.46
618.60	44144.84
618.75	44325.07
618.90	44406.98
619.06	44126.12
619.21	44582.52
619.36	44648.06
619.51	44329.75
619.67	44191.65
619.82	44076.97
619.97	44491.24
620.12	44009.09
620.28	44299.32
620.43	44470.18
620.58	44554.44
620.73	44556.78
620.89	44435.07
621.04	44257.19
621.19	44367.20
621.34	44315.70
621.49	43997.39
621.65	44275.91
621.80	44226.76
621.95	43796.10
622.10	44210.38
622.25	44198.68
622.41	44208.04
622.56	44053.56
622.71	44060.58
622.86	44177.61
623.01	44643.38
623.16	43917.81
623.32	43707.16
623.47	44318.04
623.62	44212.72
623.77	44128.46
623.92	44091.01
624.07	43524.60
624.23	43786.74
624.38	44109.74
624.53	43957.60
624.68	43796.10
624.83	43852.28
624.98	43761.00
625.13	43643.97
625.29	43416.94
625.44	43749.29
625.59	43515.24
625.74	43206.29
625.89	43578.43
626.04	43330.34
626.19	43433.32
626.34	43421.62
626.49	43459.07
626.65	43164.16
626.80	43475.45
626.95	43005.00
627.10	43304.59
627.25	43335.02
627.40	43405.23
627.55	43526.94
627.70	42834.14
627.85	43185.22
628.00	43536.30
628.15	43246.08
628.30	42754.57
628.45	43065.86
628.60	42752.23
628.76	43014.37
628.91	42979.26
629.06	42712.44
629.21	43122.03
629.36	42962.87
629.51	42834.14
629.66	43100.97
629.81	42691.37
629.96	42955.85
630.11	42883.30
630.26	42667.97
630.41	42899.68
630.56	43260.12
630.71	43051.81
630.86	43227.35
631.01	42272.42
631.16	42810.74
631.31	42431.57
631.46	42848.19
631.61	42752.23
631.76	43072.88
631.91	43143.09
632.06	42995.64
632.21	42911.38
632.36	42824.78
632.51	42731.16
632.66	42880.95
632.81	42373.06
632.96	42469.02
633.10	42693.71
633.25	42050.06
633.40	42197.52
633.55	42239.65
633.70	42216.24
633.85	42586.05
634.00	42120.28
634.15	41900.27
634.30	41820.69
634.45	41916.65
634.60	42113.26
634.75	42742.86
634.90	42127.30
635.05	42354.33
635.19	41853.46
635.34	42216.24
635.49	41921.34
635.64	41888.57
635.79	41839.42
635.94	42113.26
636.09	42370.72
636.24	41865.16
636.39	41865.16
636.53	42382.42
636.68	41673.24
636.83	41717.71
636.98	41483.66
637.13	41698.98
637.28	41205.13
637.43	41511.74
637.57	41631.11
637.72	41434.50
637.87	41675.58
638.02	41823.03
638.17	41743.45
638.32	41493.02
638.46	41481.31
638.61	40699.58
638.76	41205.13
638.91	41502.38
639.06	41408.76
639.20	41359.61
639.35	40835.33
639.50	41635.79
639.65	41504.72
639.80	41317.48
639.94	41514.08
640.09	41219.17
640.24	41310.46
640.39	41366.63
640.54	40891.50
640.68	41141.94
640.83	41144.28
640.98	41127.89
641.13	40840.01
641.27	41230.88
641.42	41069.38
641.57	41045.97
641.72	41144.28
641.86	40774.47
642.01	40765.11
642.16	40683.19
642.31	40114.44
642.45	41184.07
642.60	40645.74
642.75	40374.24
642.90	40966.40
643.04	41067.04
643.19	40568.51
643.34	40236.15
643.48	40376.58
643.63	40615.32
643.78	40542.76
643.93	40804.90
644.07	40533.40
644.22	41003.85
644.37	40601.27
644.51	40889.16
644.66	40865.75
644.81	40643.40
644.95	40802.56
645.10	40533.40
645.25	40507.65
645.39	39889.75
645.54	40353.18
645.69	39702.51
645.83	40500.63
645.98	40287.64
646.13	39793.79
646.27	40189.34
646.42	40081.67
646.57	39866.34
646.71	40421.05
646.86	40282.96
647.00	40191.68
647.15	40313.39
647.30	40219.77
647.44	39966.99
647.59	39847.62
647.74	39564.42
647.88	40041.88
648.03	40367.22
648.17	40252.53
648.32	40474.88
648.47	40154.23
648.61	39768.04
648.76	39955.29
648.90	39697.83
649.05	39913.16
649.20	40062.95
649.34	40142.53
649.49	39695.49
649.63	40037.20
649.78	40030.18
649.92	40264.24
650.07	40151.89
650.21	40194.02
650.36	39482.50
650.51	39730.59
650.65	39936.56
650.80	39732.93
650.94	39482.50
651.09	39615.91
651.23	39608.89
651.38	39686.12
651.52	38850.55
651.67	39103.33
651.81	39428.66
651.96	39445.05
652.10	39105.67
652.25	39255.46
652.39	39356.11
652.54	39482.50
652.68	38976.94
652.83	38911.41
652.97	39206.31
653.12	38923.11
653.26	38637.56
653.41	39192.27
653.55	39203.97
653.70	39065.88
653.84	39262.49
653.99	39117.37
654.13	38965.24
654.27	38962.90
654.42	39222.70
654.56	39171.21
654.71	39239.08
654.85	39126.74
655.00	39021.41
655.14	39262.49
655.29	39281.21
655.43	39409.94
655.57	38267.76
655.72	38852.89
655.86	38511.17
656.01	38464.36
656.15	38176.48
656.30	38733.53
656.44	38770.97
656.58	38841.19
656.73	38703.10
656.87	38047.75
657.01	38300.53
657.16	38569.69
657.30	38536.92
657.45	38588.41
657.59	38239.67
657.73	38253.72
657.88	38431.60
658.02	38426.92
658.16	38209.25
658.31	38572.03
658.45	38359.04
658.60	38239.67
658.74	38234.99
658.88	38178.82
659.03	37783.27
659.17	38127.33
659.31	37757.52
659.46	37998.60
659.60	37652.20
659.74	37900.29
659.89	37848.80
660.03	37572.62
660.17	37900.29
660.32	37844.12
660.46	37556.24
660.60	37556.24
660.74	37741.14
660.89	37677.94
661.03	37392.40
661.17	37539.85
661.32	37008.55
661.46	37083.45
661.60	36882.16
661.74	37471.98
661.89	37263.67
662.03	37373.67
662.17	36636.41
662.31	37275.37
662.46	37010.89
662.60	36673.85
662.74	36568.53
662.88	36524.06
663.03	36657.47
663.17	36589.59
663.31	36247.88
663.45	36769.82
663.60	36680.88
663.74	36374.27
663.88	36421.08
664.02	36336.82
664.17	36737.05
664.31	36128.51
664.45	35718.92
664.59	35969.35
664.73	35892.12
664.88	36397.67
665.02	35709.55
665.16	36044.25
665.30	36039.57
665.44	35899.14
665.59	35407.62
665.73	35641.68
665.87	35564.44
666.01	35985.74
666.15	35374.86
666.29	35449.75
666.44	35751.68
666.58	35765.73
666.72	35573.80
666.86	35637.00
667.00	35194.64
667.14	35098.67
667.28	35431.03
667.43	34944.20
667.57	35250.81
667.71	35281.24
667.85	35470.82
667.99	35248.47
668.13	34824.83
668.27	34436.30
668.41	34579.07
668.56	34607.16
668.70	34483.11
668.84	34305.23
668.98	34412.90
669.12	34359.06
669.26	34412.90
669.40	34150.76
669.54	34139.05
669.68	34698.44
669.82	33914.36
669.96	34080.54
670.10	33942.45
670.25	33855.85
670.39	34162.46
670.53	33970.54
670.67	34054.79
670.81	34050.11
670.95	34038.41
671.09	33769.25
671.23	33453.28
671.37	33546.90
671.51	33514.13
671.65	32968.79
671.79	33596.05
671.93	33624.14
672.07	33420.51
672.21	33544.56
672.35	32620.05
672.49	33345.61
672.63	33280.08
672.77	32596.64
672.91	32692.60
673.05	32669.20
673.19	32788.56
673.33	32549.83
673.47	32418.76
673.61	32383.65
673.75	32088.74
673.89	32135.56
674.03	32006.83
674.17	31945.97
674.31	31676.81
674.45	31917.89
674.59	31676.81
674.73	32212.79
674.87	31770.43
675.01	31967.04
675.15	31421.69
675.29	31438.08
675.43	31339.77
675.56	31260.20
675.70	31220.41
675.84	31222.75
675.98	29860.55
676.12	31087.00
676.26	31346.79
676.40	30909.11
676.54	30579.10
676.68	30815.49
676.82	30309.94
676.96	30558.03
677.10	30382.49
677.23	30389.52
677.37	30431.65
677.51	30155.46
677.65	30099.29
677.79	29773.95
677.93	30080.56
678.07	30050.14
678.21	29706.08
678.34	29560.97
678.48	29567.99
678.62	29317.55
678.76	29436.92
678.90	29453.30
679.04	29441.60
679.18	29151.37
679.31	28931.36
679.45	29029.66
679.59	28716.03
679.73	29074.13
679.87	28505.38
680.00	28676.24
680.14	28261.97
680.28	28687.95
680.42	28161.33
680.56	28259.63
680.70	27852.38
680.83	27730.67
680.97	27894.50
681.11	28137.92
681.25	27723.65
681.39	27337.46
681.52	27552.79
681.66	27487.25
681.80	26965.31
681.94	26895.10
682.07	27089.36
682.21	26822.54
682.35	26792.11
682.49	26529.97
682.62	27072.98
682.76	26705.51
682.90	26941.91
683.04	26656.36
683.17	26689.13
683.31	26508.91
683.45	26436.35
683.59	26214.00
683.72	25881.64
683.86	26010.37
684.00	25958.88
684.13	25907.39
684.27	25575.03
684.41	25652.27
684.55	25621.84
684.68	25497.80
684.82	25336.30
684.96	25364.39
685.09	25205.23
685.23	24961.81
685.37	24924.36
685.50	25205.23
685.64	25235.66
685.78	24980.54
685.91	24629.46
686.05	24592.01
686.19	24091.13
686.32	24276.04
686.46	23924.96
686.60	24133.26
686.73	24278.38
686.87	24411.79
687.01	24109.86
687.14	23990.49
687.28	23871.12
687.42	23953.04
687.55	23323.44
687.69	23571.54
687.82	23190.03
687.96	23358.55
688.10	23293.01
688.23	22923.21
688.37	23335.14
688.50	23206.41
688.64	22939.59
688.78	22792.14
688.91	22740.64
689.05	22789.80
689.18	22207.00
689.32	22080.61
689.46	22286.58
689.59	22197.64
689.73	22209.34
689.86	22405.95
690.00	22050.19
690.13	21942.52
690.27	21902.73
690.41	22050.19
690.54	21619.53
690.68	21638.25
690.81	21734.21
690.95	21359.73
691.08	21404.20
691.22	21357.39
691.35	20819.07
691.49	21088.23
691.62	20929.07
691.76	20947.79
691.89	20957.16
692.03	20666.93
692.16	20437.56
692.30	20369.68
692.43	20575.65
692.57	20477.35
692.70	20325.21
692.84	20163.72
692.97	19861.79
693.11	19871.15
693.24	19878.17
693.38	19850.08
693.51	19920.30
693.65	19634.75
693.78	19543.47
693.92	19438.15
694.05	19435.81
694.19	19030.90
694.32	19197.07
694.45	19302.40
694.59	19576.24
694.72	19356.23
694.86	18752.37
694.99	18972.38
695.13	18539.38
695.26	18651.73
695.39	18148.51
695.53	18377.89
695.66	18511.30
695.80	18422.36
695.93	18567.47
696.07	18078.30
696.20	17841.90
696.33	17972.97
696.47	17858.29
696.60	17792.75
696.73	18106.38
696.87	17481.46
697.00	17802.11
697.14	17537.63
697.27	17640.62
697.40	17144.42
697.54	17275.49
697.67	17018.04
697.80	17273.15
697.94	16800.37
698.07	16891.65
698.21	17380.82
698.34	16919.73
698.47	16678.66
698.61	16521.84
698.74	16510.14
698.87	16320.56
699.01	16217.57
699.14	16166.08
699.27	16175.44
699.40	16250.34
699.54	16013.95
699.67	16189.49
699.80	15983.52
699.94	15721.38
700.07	16053.73
700.20	15754.15
700.34	15625.42
700.47	15651.16
700.60	15641.80
700.73	15557.54
700.87	15580.95
701.00	14995.81
701.13	15300.08
701.26	15166.67
701.40	15033.26
701.53	15016.88
701.66	15215.82
701.79	14895.17
701.93	14534.73
702.06	14614.30
702.19	14626.01
702.32	14733.67
702.46	14513.66
702.59	14705.59
702.72	14752.40
702.85	14424.72
702.99	14534.73
703.12	14178.97
703.25	14216.41
703.38	13877.04
703.51	13987.04
703.65	14057.26
703.78	13565.74
703.91	13830.23
704.04	13392.55
704.17	13614.90
704.31	13540.00
704.44	13535.32
704.57	13535.32
704.70	13535.32
704.83	13350.42
704.96	13343.39
705.10	13034.44
705.23	13006.36
>>>>>End Processed Spectral Data<<<<<
