SpectraSuite Data File
++++++++++++++++++++++++++++++++++++
Date: Fri Oct 25 11:33:16 EDT 2013
User: price-jones
Dark Spectrum Present: No
Reference Spectrum Present: No
Number of Sampled Component Spectra: 1
Spectrometers: USB2+H05261
Integration Time (usec): 100000 (USB2+H05261)
Spectra Averaged: 1 (USB2+H05261)
Boxcar Smoothing: 0 (USB2+H05261)
Correct for Electrical Dark: No (USB2+H05261)
Strobe/Lamp Enabled: No (USB2+H05261)
Correct for Detector Non-linearity: No (USB2+H05261)
Correct for Stray Light: No (USB2+H05261)
Number of Pixels in Processed Spectrum: 2048
>>>>>Begin Processed Spectral Data<<<<<
365.73	283.20
365.92	283.20
366.12	283.20
366.32	250.44
366.52	131.07
366.72	168.52
366.91	119.37
367.11	238.73
367.31	138.09
367.51	166.18
367.70	198.95
367.90	196.60
368.10	173.20
368.30	266.82
368.49	95.96
368.69	159.16
368.89	229.37
369.09	215.33
369.28	145.11
369.48	238.73
369.68	220.01
369.87	210.65
370.07	269.16
370.27	271.50
370.47	259.80
370.66	395.55
370.86	507.90
371.06	519.60
371.25	517.26
371.45	557.05
371.65	575.77
371.84	533.64
372.04	582.79
372.24	603.86
372.44	566.41
372.63	571.09
372.83	566.41
373.03	571.09
373.22	601.52
373.42	702.16
373.62	636.63
373.81	613.22
374.01	543.00
374.21	657.69
374.40	711.52
374.60	603.86
374.79	685.78
374.99	718.54
375.19	617.90
375.38	669.39
375.58	706.84
375.78	636.63
375.97	617.90
376.17	720.88
376.37	695.14
376.56	683.44
376.76	641.31
376.95	617.90
377.15	648.33
377.35	664.71
377.54	688.12
377.74	704.50
377.93	711.52
378.13	704.50
378.33	674.07
378.52	730.25
378.72	744.29
378.91	706.84
379.11	748.97
379.31	660.03
379.50	741.95
379.70	770.04
379.89	777.06
380.09	660.03
380.28	741.95
380.48	699.82
380.68	709.18
380.87	746.63
381.07	816.85
381.26	826.21
381.46	774.72
381.65	788.76
381.85	758.33
382.04	793.44
382.24	793.44
382.43	772.38
382.63	788.76
382.83	795.78
383.02	795.78
383.22	828.55
383.41	727.91
383.61	746.63
383.80	835.57
384.00	795.78
384.19	788.76
384.39	791.10
384.58	844.93
384.78	805.14
384.97	844.93
385.17	870.68
385.36	795.78
385.56	835.57
385.75	849.61
385.95	809.83
386.14	844.93
386.34	894.08
386.53	854.30
386.72	798.12
386.92	851.96
387.11	908.13
387.31	901.11
387.50	922.17
387.70	856.64
387.89	929.19
388.09	901.11
388.28	957.28
388.48	898.77
388.67	922.17
388.86	945.58
389.06	933.87
389.25	940.90
389.45	964.30
389.64	966.64
389.84	868.34
390.03	987.71
390.22	912.81
390.42	854.30
390.61	950.26
390.81	983.02
391.00	1013.45
391.19	968.98
391.39	1100.05
391.58	1046.22
391.78	997.07
391.97	1093.03
392.16	1039.20
392.36	1039.20
392.55	1055.58
392.75	1006.43
392.94	1050.90
393.13	1102.39
393.33	983.02
393.52	1090.69
393.71	1090.69
393.91	1090.69
394.10	1050.90
394.29	1118.78
394.49	1198.35
394.68	1076.65
394.88	1104.73
395.07	1125.80
395.26	1186.65
395.46	1146.86
395.65	1221.76
395.84	1135.16
396.04	1266.23
396.23	1210.06
396.42	1254.53
396.62	1282.61
396.81	1238.14
397.00	1277.93
397.19	1315.38
397.39	1224.10
397.58	1306.02
397.77	1224.10
397.97	1203.04
398.16	1282.61
398.35	1310.70
398.55	1291.98
398.74	1331.76
398.93	1371.55
399.12	1348.15
399.32	1308.36
399.51	1327.08
399.70	1352.83
399.90	1369.21
400.09	1371.55
400.28	1441.77
400.47	1315.38
400.67	1345.81
400.86	1357.51
401.05	1364.53
401.24	1437.09
401.44	1479.22
401.63	1453.47
401.82	1397.30
402.01	1446.45
402.21	1469.86
402.40	1514.33
402.59	1488.58
402.78	1483.90
402.97	1551.78
403.17	1469.86
403.36	1514.33
403.55	1488.58
403.74	1645.40
403.93	1565.82
404.13	1664.12
404.32	1593.90
404.51	1661.78
404.70	1593.90
404.89	1645.40
405.09	1727.32
405.28	1764.76
405.47	1671.14
405.66	1699.23
405.85	1652.42
406.05	1713.27
406.24	1727.32
406.43	1781.15
406.62	1919.24
406.81	1774.13
407.00	1753.06
407.20	1783.49
407.39	1914.56
407.58	1727.32
407.77	1888.81
407.96	1884.13
408.15	1856.04
408.34	1900.52
408.54	1961.37
408.73	1905.20
408.92	1923.92
409.11	1998.82
409.30	1898.17
409.49	1991.80
409.68	1947.33
409.87	1928.60
410.07	2062.01
410.26	2054.99
410.45	2064.35
410.64	2015.20
410.83	2207.13
411.02	2153.29
411.21	2207.13
411.40	2155.63
411.59	2237.55
411.78	2125.21
411.98	2289.04
412.17	2235.21
412.36	2235.21
412.55	2338.20
412.74	2356.92
412.93	2434.16
413.12	2265.64
413.31	2497.35
413.50	2359.26
413.69	2424.80
413.88	2434.16
414.07	2441.18
414.26	2520.76
414.45	2469.27
414.64	2476.29
414.83	2621.40
415.02	2651.83
415.22	2745.45
415.41	2644.81
415.60	2607.36
415.79	2668.21
415.98	2757.15
416.17	2670.55
416.36	2803.96
416.55	2813.32
416.74	2815.66
416.93	2820.35
417.12	2848.43
417.31	2834.39
417.50	2902.26
417.69	2937.37
417.88	2942.05
418.07	2843.75
418.26	2951.42
418.45	2981.84
418.64	3019.29
418.83	3019.29
419.02	3112.91
419.21	3108.23
419.39	3108.23
419.58	3201.85
419.77	3105.89
419.96	3155.04
420.15	3117.59
420.34	3141.00
420.53	3136.32
420.72	3304.84
420.91	3253.34
421.10	3288.45
421.29	3253.34
421.48	3258.03
421.67	3398.46
421.86	3251.00
422.05	3234.62
422.24	3428.88
422.43	3274.41
422.61	3361.01
422.80	3468.67
422.99	3405.48
423.18	3445.27
423.37	3529.53
423.56	3302.50
423.75	3517.83
423.94	3309.52
424.13	3220.58
424.32	3234.62
424.50	3520.17
424.69	3524.85
424.88	3426.54
425.07	3461.65
425.26	3435.91
425.45	3396.12
425.64	3382.07
425.83	3473.36
426.01	3581.02
426.20	3571.66
426.39	3524.85
426.58	3419.52
426.77	3485.06
426.96	3536.55
427.15	3449.95
427.33	3606.77
427.52	3534.21
427.71	3655.92
427.90	3634.85
428.09	3667.62
428.28	3719.11
428.46	3627.83
428.65	3611.45
428.84	3824.44
429.03	3761.24
429.22	3751.88
429.40	3796.35
429.59	3901.67
429.78	3691.02
429.97	3679.32
430.16	3749.54
430.34	3850.18
430.53	3904.01
430.72	3859.54
430.91	3705.07
431.10	3779.97
431.28	3918.06
431.47	4049.13
431.66	4109.98
431.85	3936.78
432.03	4046.79
432.22	4219.99
432.41	3999.98
432.60	4091.26
432.79	4194.24
432.97	4112.32
433.16	4175.52
433.35	4128.70
433.54	4285.52
433.72	4161.47
433.91	4212.96
434.10	4311.27
434.28	4203.60
434.47	4222.33
434.66	4379.14
434.85	4285.52
435.03	4250.41
435.22	4533.62
435.41	4510.21
435.59	4479.79
435.78	4512.55
435.97	4437.66
436.16	4407.23
436.34	4409.57
436.53	4510.21
436.72	4608.51
436.90	4435.32
437.09	4557.02
437.28	4437.66
437.46	4496.17
437.65	4603.83
437.84	4655.33
438.02	4608.51
438.21	4652.98
438.40	4489.15
438.58	4725.54
438.77	4802.78
438.96	4706.82
439.14	5039.17
439.33	5062.58
439.52	4975.98
439.70	4931.51
439.89	4992.36
440.08	5078.96
440.26	5069.60
440.45	5085.98
440.63	5029.81
440.82	5198.33
441.01	5235.78
441.19	5270.89
441.38	5296.63
441.57	5343.44
441.75	5291.95
441.94	5467.49
442.12	5565.79
442.31	5586.86
442.50	5380.89
442.68	5523.66
442.87	5476.85
443.05	5455.79
443.24	5483.88
443.43	5518.98
443.61	5675.80
443.80	5668.78
443.98	5327.06
444.17	5406.64
444.35	5678.14
444.54	5720.27
444.73	5762.40
444.91	5523.66
445.10	5870.06
445.28	5713.25
445.47	5671.12
445.65	5624.31
445.84	5776.44
446.02	5584.52
446.21	5820.91
446.39	5870.06
446.58	5881.77
446.77	5905.17
446.95	5692.18
447.14	5727.29
447.32	5818.57
447.51	5837.30
447.69	5823.25
447.88	5806.87
448.06	5865.38
448.25	5788.14
448.43	5781.12
448.62	5582.18
448.80	5888.79
448.99	5891.13
449.17	5994.11
449.36	5966.03
449.54	6235.19
449.73	5996.45
449.91	6031.56
450.10	6120.50
450.28	6050.28
450.46	6286.68
450.65	6148.59
450.83	6193.06
451.02	6150.93
451.20	6200.08
451.39	6209.44
451.57	6181.35
451.76	6193.06
451.94	6370.94
452.13	6457.54
452.31	6267.95
452.49	6190.72
452.68	6363.92
452.86	6253.91
453.05	6396.68
453.23	6541.80
453.42	6417.75
453.60	6277.32
453.78	6469.24
453.97	6443.49
454.15	6314.77
454.34	6361.58
454.52	6478.60
454.70	6480.94
454.89	6747.76
455.07	6649.46
455.26	6661.16
455.44	6726.70
455.62	6736.06
455.81	6736.06
455.99	6890.54
456.17	6925.65
456.36	6757.13
456.54	6937.35
456.73	6883.52
456.91	7262.68
457.09	6965.43
457.28	7075.44
457.46	6768.83
457.64	7138.63
457.83	7026.29
458.01	7213.53
458.19	7286.09
458.38	7281.41
458.56	7281.41
458.74	7122.25
458.93	7283.75
459.11	7344.60
459.29	7232.26
459.48	7164.38
459.66	7194.81
459.84	7403.11
460.03	7386.73
460.21	7337.58
460.39	7339.92
460.57	7653.55
460.76	7534.18
460.94	7606.74
461.12	7737.81
461.31	7606.74
461.49	7576.31
461.67	7463.97
461.85	7798.66
462.04	7669.94
462.22	7955.48
462.40	7936.76
462.59	7772.92
462.77	7557.59
462.95	7798.66
463.13	7981.23
463.32	7826.75
463.50	8107.62
463.68	7932.08
463.86	7889.95
464.05	7829.09
464.23	8004.63
464.41	8074.85
464.59	7808.03
464.78	8142.72
464.96	8070.17
465.14	7988.25
465.32	8173.15
465.50	8341.67
465.69	8168.47
465.87	8149.75
466.05	8093.57
466.23	8250.39
466.41	8334.65
466.60	8407.20
466.78	8290.18
466.96	8308.90
467.14	8414.23
467.32	8219.96
467.51	8290.18
467.69	8299.54
467.87	8367.42
468.05	8486.78
468.23	8355.71
468.41	8348.69
468.60	8451.67
468.78	8601.47
468.96	8435.29
469.14	8606.15
469.32	8809.78
469.50	8613.17
469.69	8610.83
469.87	8826.16
470.05	8699.77
470.23	8959.57
470.41	8833.18
470.59	8917.44
470.77	8980.64
470.95	8947.87
471.14	9104.68
471.32	8924.46
471.50	9153.84
471.68	8933.82
471.86	8842.54
472.04	9139.79
472.22	9511.94
472.40	9165.54
472.58	9273.20
472.77	9287.25
472.95	9500.23
473.13	9743.65
473.31	9453.42
473.49	9638.33
473.67	9261.50
473.85	9584.49
474.03	9785.78
474.21	9844.29
474.39	9884.08
474.57	10085.37
474.75	9991.75
474.93	10127.50
475.12	10099.41
475.30	10232.82
475.48	10101.75
475.66	10340.49
475.84	10146.22
476.02	10303.04
476.20	10296.02
476.38	10593.26
476.56	10754.76
476.74	10752.42
476.92	10661.14
477.10	10586.24
477.28	10789.87
477.46	10656.46
477.64	11091.80
477.82	11054.35
478.00	11536.50
478.18	11185.42
478.36	11447.56
478.54	11447.56
478.72	11428.84
478.90	11569.27
479.08	11723.74
479.26	11580.97
479.44	11712.04
479.62	11875.88
479.80	11861.84
479.98	12011.63
480.16	12229.30
480.34	11997.59
480.52	12552.29
480.70	12432.93
480.88	12306.54
481.06	12606.13
481.24	12449.31
481.41	12659.96
481.59	12898.69
481.77	13001.68
481.95	12982.95
482.13	13111.68
482.31	13301.26
482.49	13249.77
482.67	13537.66
482.85	13404.25
483.03	13664.05
483.21	13785.76
483.39	13895.76
483.57	13855.97
483.74	13921.51
483.92	14087.68
484.10	14286.63
484.28	14228.12
484.46	14539.41
484.64	14740.69
484.82	14616.65
485.00	14787.50
485.18	15133.90
485.35	15365.62
485.53	14895.17
485.71	15295.40
485.89	15719.04
486.07	15447.54
486.25	15948.41
486.43	15566.90
486.61	15784.57
486.78	15969.48
486.96	16105.23
487.14	15948.41
487.32	16198.85
487.50	16741.85
487.68	16463.33
487.85	16662.27
488.03	16999.31
488.21	17170.17
488.39	17097.61
488.57	17469.76
488.75	17390.18
488.92	17472.10
489.10	18010.42
489.28	17561.04
489.46	17881.69
489.64	17874.67
489.81	18272.56
489.99	18396.61
490.17	18228.09
490.35	18593.22
490.53	18621.30
490.70	19012.17
490.88	19098.77
491.06	19112.81
491.24	19222.82
491.41	19007.49
491.59	19424.11
491.77	19239.20
491.95	19358.57
492.13	19604.33
492.30	19889.87
492.48	20011.58
492.66	19859.45
492.84	20210.53
493.01	20542.88
493.19	20229.25
493.37	20339.26
493.54	20603.74
493.72	20624.80
493.90	20652.89
494.08	21123.33
494.25	20915.03
494.43	21254.40
494.61	21521.23
494.79	21355.05
494.96	21654.64
495.14	21862.94
495.32	21715.49
495.49	22174.24
495.67	22097.00
495.85	21820.81
496.02	22616.60
496.20	22595.53
496.38	22284.24
496.55	22651.70
496.73	23438.12
496.91	22782.77
497.09	23000.44
497.26	23023.85
497.44	23002.78
497.62	23632.39
497.79	23768.14
497.97	23393.65
498.14	23814.95
498.32	23749.42
498.50	23704.95
498.67	24198.80
498.85	24137.94
499.03	24376.68
499.20	24381.36
499.38	24098.16
499.56	24458.60
499.73	24587.33
499.91	24790.95
500.08	25041.39
500.26	24643.50
500.44	24905.64
500.61	25006.28
500.79	24891.60
500.97	24868.19
501.14	25486.09
501.32	25511.84
501.49	25238.00
501.67	25610.14
501.84	25879.30
502.02	25694.40
502.20	25694.40
502.37	25905.05
502.55	25972.92
502.72	26134.42
502.90	25975.27
503.07	25998.67
503.25	26522.95
503.43	26057.18
503.60	26384.86
503.78	26764.03
503.95	26799.13
504.13	26731.26
504.30	26845.94
504.48	26911.48
504.65	26948.93
504.83	26998.08
505.01	27463.85
505.18	27480.23
505.36	27676.83
505.53	27576.19
505.71	27793.86
505.88	27618.32
506.06	27365.54
506.23	27861.74
506.41	27288.31
506.58	27997.49
506.76	28261.97
506.93	28154.30
507.11	28250.27
507.28	28584.96
507.46	28409.42
507.63	28886.89
507.81	28601.35
507.98	28411.76
508.16	28896.25
508.33	28823.70
508.50	29277.76
508.68	29172.44
508.85	29352.66
509.03	29132.65
509.20	28938.38
509.38	29390.11
509.55	29469.69
509.73	29860.55
509.90	29596.07
510.08	29539.90
510.25	29841.83
510.42	29504.79
510.60	30305.26
510.77	30204.61
510.95	30277.17
511.12	30239.72
511.30	30108.65
511.47	30515.90
511.64	30363.77
511.82	30562.72
511.99	30682.08
512.17	30637.61
512.34	30719.53
512.51	31208.70
512.69	30988.69
512.86	31108.06
513.04	31400.63
513.21	30906.77
513.38	31585.53
513.56	31428.71
513.73	31182.96
513.90	31922.57
514.08	31601.91
514.25	31854.69
514.43	31835.97
514.60	32023.21
514.77	31555.10
514.95	31737.66
515.12	32430.46
515.29	31957.67
515.47	32329.82
515.64	32816.65
515.81	32385.99
515.99	32507.70
516.16	32547.49
516.33	32683.24
516.51	32893.89
516.68	32332.16
516.85	33120.92
517.03	32713.67
517.20	33127.94
517.37	32964.10
517.54	32943.04
517.72	32830.69
517.89	33546.90
518.06	33132.62
518.24	33631.16
518.41	33443.91
518.58	33495.41
518.75	32921.98
518.93	33530.51
519.10	33539.88
519.27	33907.34
519.45	33668.61
519.62	33865.21
519.79	34120.33
519.96	33928.41
520.14	33998.62
520.31	34202.25
520.48	34363.75
520.65	34237.36
520.83	34604.82
521.00	34831.85
521.17	34705.46
521.34	34522.90
521.52	34625.89
521.69	34852.92
521.86	34941.86
522.03	35248.47
522.20	35175.91
522.38	35225.06
522.55	35246.13
522.72	35253.15
522.89	35398.26
523.07	35583.16
523.24	35505.93
523.41	35548.06
523.58	35295.28
523.75	35660.40
523.92	35854.67
524.10	36011.48
524.27	36154.26
524.44	35749.34
524.61	36215.11
524.78	36229.15
524.96	36650.45
525.13	36292.35
525.30	36519.38
525.47	35915.52
525.64	36334.48
525.81	36727.69
525.98	36605.98
526.16	36421.08
526.33	36507.68
526.50	36985.15
526.67	36650.45
526.84	37144.30
527.01	36849.39
527.18	36800.24
527.36	37090.47
527.53	37137.28
527.70	37502.40
527.87	37397.08
528.04	36931.31
528.21	37067.06
528.38	37148.98
528.55	37720.07
528.72	37504.74
528.89	37862.85
529.07	37804.33
529.24	37361.97
529.41	38239.67
529.58	38094.56
529.75	37743.48
529.92	38099.24
530.09	37708.37
530.26	38246.69
530.43	37991.58
530.60	37923.70
530.77	37717.73
530.94	38000.94
531.11	38515.86
531.28	38513.52
531.46	38352.02
531.63	38508.83
531.80	38370.74
531.97	38789.70
532.14	38651.61
532.31	38848.21
532.48	38880.98
532.65	39019.07
532.82	38522.88
532.99	39262.49
533.16	39077.58
533.33	39253.12
533.50	39044.82
533.67	38775.66
533.84	38698.42
534.01	38967.58
534.18	39199.29
534.35	39569.10
534.52	39674.42
534.69	40259.55
534.86	39756.34
535.03	39573.78
535.20	39782.09
535.37	39796.13
535.54	39945.92
535.71	39819.53
535.88	40095.72
536.05	39875.71
536.22	40233.81
536.38	40414.03
536.55	40240.83
536.72	40037.20
536.89	39845.28
537.06	39817.19
537.23	40472.54
537.40	40114.44
537.57	39744.64
537.74	40233.81
537.91	40385.94
538.08	40268.92
538.25	40275.94
538.42	40622.34
538.59	40528.72
538.75	40240.83
538.92	40823.62
539.09	40968.74
539.26	41076.40
539.43	40868.09
539.60	40961.72
539.77	41067.04
539.94	41221.52
540.11	41528.13
540.28	41312.80
540.44	40856.39
540.61	40912.56
540.78	40706.60
540.95	41148.96
541.12	40931.29
541.29	40863.41
541.46	41195.77
541.62	41535.15
541.79	41354.93
541.96	41139.60
542.13	41170.02
542.30	41706.01
542.47	41816.01
542.63	41436.84
542.80	41944.74
542.97	41881.55
543.14	42153.05
543.31	42094.53
543.48	42284.12
543.64	42548.60
543.81	42162.41
543.98	42483.06
544.15	42543.92
544.32	42827.12
544.48	42972.24
544.65	42410.51
544.82	43042.45
544.99	42370.72
545.16	42513.49
545.32	42691.37
545.49	43117.35
545.66	42904.36
545.83	43201.61
546.00	42792.01
546.16	42887.98
546.33	42684.35
546.50	42541.58
546.67	43124.37
546.83	41949.42
547.00	42993.30
547.17	43093.94
547.34	43012.02
547.50	43232.04
547.67	43868.66
547.84	43131.39
548.00	43658.01
548.17	43758.66
548.34	43622.90
548.51	43405.23
548.67	43241.40
548.84	43803.13
549.01	43548.01
549.18	43681.42
549.34	43580.78
549.51	43800.79
549.68	43658.01
549.84	43723.55
550.01	44086.33
550.18	43660.35
550.34	43892.07
550.51	43880.36
550.68	44252.51
550.84	43753.97
551.01	44362.51
551.18	44453.79
551.34	44004.41
551.51	44215.06
551.68	44254.85
551.84	44556.78
552.01	43952.92
552.18	44580.18
552.34	44404.64
552.51	44343.79
552.68	44140.16
552.84	44521.67
553.01	44648.06
553.18	44350.81
553.34	44313.36
553.51	44516.99
553.67	44718.28
553.84	44903.18
554.01	44879.77
554.17	45160.64
554.34	45017.86
554.51	45083.40
554.67	45123.19
554.84	45221.49
555.00	44961.69
555.17	44776.79
555.33	44971.05
555.50	44626.99
555.67	45195.74
555.83	45280.00
556.00	44935.95
556.16	45469.59
556.33	44814.24
556.50	45333.84
556.66	45099.78
556.83	44861.05
556.99	45425.12
557.16	45584.27
557.32	45427.46
557.49	45652.15
557.65	45600.66
557.82	44832.96
557.98	45418.10
558.15	45834.71
558.32	45560.87
558.48	45446.18
558.65	45390.01
558.81	45488.31
558.98	45507.04
559.14	45539.80
559.31	45743.43
559.47	45666.19
559.64	45745.77
559.80	45839.39
559.97	45677.90
560.13	45593.64
560.30	45968.12
560.46	46206.86
560.63	46281.75
560.79	46197.49
560.96	46103.87
561.12	45783.22
561.29	45867.48
561.45	46122.60
561.61	45867.48
561.78	45933.01
561.94	45783.22
562.11	46265.37
562.27	45708.32
562.44	46560.28
562.60	46419.84
562.77	46567.30
562.93	46019.61
563.10	46883.27
563.26	46078.13
563.42	46686.67
563.59	45684.92
563.75	46368.35
563.92	46003.23
564.08	46181.11
564.24	46473.68
564.41	46188.13
564.57	46466.66
564.74	46539.21
564.90	46270.05
565.07	46045.36
565.23	46712.41
565.39	46260.69
565.56	46941.78
565.72	46621.13
565.88	46557.94
566.05	46583.68
566.21	46590.70
566.38	46485.38
566.54	46838.80
566.70	46548.57
566.87	46862.21
567.03	46380.06
567.19	46653.90
567.36	46813.05
567.52	46691.35
567.68	47126.69
567.85	46450.27
568.01	47028.38
568.17	46691.35
568.34	46862.21
568.50	46902.00
568.66	46665.60
568.83	46649.22
568.99	46663.26
569.15	46850.50
569.32	46979.23
569.48	47026.04
569.64	47524.58
569.81	46878.59
569.97	46909.02
570.13	46955.83
570.30	47091.58
570.46	46995.62
570.62	47040.09
570.78	47119.66
570.95	46927.74
571.11	47480.11
571.27	46986.25
571.43	46965.19
571.60	46990.94
571.76	47295.21
571.92	46899.65
572.09	47093.92
572.25	47124.35
572.41	47138.39
572.57	47253.08
572.74	47636.92
572.90	46724.11
573.06	47332.65
573.22	47746.93
573.38	47395.85
573.55	47084.56
573.71	47922.47
573.87	47208.61
574.03	47435.64
574.20	47718.84
574.36	47262.44
574.52	47262.44
574.68	47063.49
574.84	47358.40
575.01	47632.24
575.17	47292.86
575.33	47082.22
575.49	47143.07
575.65	47154.77
575.82	47332.65
575.98	47157.11
576.14	47365.42
576.30	47789.06
576.46	47374.78
576.62	47318.61
576.79	47332.65
576.95	47239.03
577.11	47185.20
577.27	47526.92
577.43	47667.35
577.59	47578.41
577.75	47330.31
577.92	47309.25
578.08	47332.65
578.24	47489.47
578.40	47805.44
578.56	47901.40
578.72	47782.04
578.88	47419.25
579.04	47391.17
579.21	47182.86
579.37	47721.18
579.53	47908.43
579.69	47189.88
579.85	47185.20
580.01	47330.31
580.17	47112.64
580.33	47814.80
580.49	47519.90
580.65	47899.06
580.82	47353.72
580.98	47421.59
581.14	47491.81
581.30	47164.14
581.46	47669.69
581.62	47812.46
581.78	47540.96
581.94	47470.75
582.10	47337.33
582.26	48112.05
582.42	47386.49
582.58	47463.72
582.74	47587.77
582.90	47622.88
583.06	47929.49
583.22	47805.44
583.38	47550.32
583.54	47512.88
583.70	47475.43
583.86	47700.12
584.02	47524.58
584.18	48130.78
584.34	47966.94
584.50	48100.35
584.66	47791.40
584.82	47779.70
584.98	47702.46
585.14	47929.49
585.30	47531.60
585.46	47746.93
585.62	47522.24
585.78	47892.04
585.94	47524.58
586.10	47859.27
586.26	47831.19
586.42	47725.86
586.58	47447.34
586.74	47681.39
586.90	47466.06
587.06	47547.98
587.22	48037.16
587.38	47847.57
587.54	48208.01
587.70	48360.15
587.86	48076.94
588.02	47842.89
588.18	47852.25
588.34	47814.80
588.49	47859.27
588.65	47796.08
588.81	47650.97
588.97	48156.52
589.13	47873.32
589.29	48004.39
589.45	48058.22
589.61	48102.69
589.77	48058.22
589.93	47931.83
590.08	47775.02
590.24	48458.45
590.40	48247.80
590.56	48233.76
590.72	48294.61
590.88	47964.60
591.04	48470.15
591.20	48397.60
591.35	48275.89
591.51	48175.25
591.67	48479.52
591.83	48236.10
591.99	48535.69
592.15	47901.40
592.31	48016.09
592.46	47924.81
592.62	48325.04
592.78	48392.92
592.94	48821.23
593.10	48601.22
593.26	48697.19
593.41	48308.66
593.57	48360.15
593.73	48266.53
593.89	48404.62
594.05	48547.39
594.20	49008.48
594.36	48589.52
594.52	48516.96
594.68	48224.40
594.84	48222.06
594.99	49088.06
595.15	48626.97
595.31	48736.98
595.47	48832.94
595.62	48577.82
595.78	48528.67
595.94	48287.59
596.10	48601.22
596.25	48708.89
596.41	48568.46
596.57	48266.53
596.73	48617.61
596.88	48584.84
597.04	48811.87
597.20	48758.04
597.36	48512.28
597.51	48519.31
597.67	48339.08
597.83	48610.59
597.99	48596.54
598.14	48303.98
598.30	48388.24
598.46	48964.01
598.61	48905.49
598.77	48355.47
598.93	48973.37
599.09	48872.73
599.24	48889.11
599.40	49013.16
599.56	48596.54
599.71	49003.80
599.87	49071.67
600.03	48830.60
600.18	48797.83
600.34	49034.22
600.50	48992.09
600.65	48931.24
600.81	48790.81
600.97	48662.08
601.12	48797.83
601.28	48872.73
601.44	48619.95
601.59	48624.63
601.75	48648.03
601.91	48512.28
602.06	48617.61
602.22	48732.29
602.37	48545.05
602.53	48961.67
602.69	48287.59
602.84	48662.08
603.00	48900.81
603.16	48512.28
603.31	48739.32
603.47	48886.77
603.62	48767.40
603.78	48772.08
603.94	48884.43
604.09	48776.76
604.25	48446.75
604.40	48835.28
604.56	48552.07
604.71	48961.67
604.87	48486.54
605.03	48320.36
605.18	48652.72
605.34	48868.05
605.49	48065.24
605.65	48542.71
605.80	48561.44
605.96	48465.47
606.12	48615.27
606.27	49052.95
606.43	48788.47
606.58	48802.51
606.74	48568.46
606.89	48149.50
607.05	48500.58
607.20	48633.99
607.36	48395.26
607.51	48729.95
607.67	48107.37
607.82	48360.15
607.98	48105.03
608.13	48617.61
608.29	48481.86
608.44	48303.98
608.60	48252.48
608.75	48516.96
608.91	47950.56
609.06	48238.44
609.22	48184.61
609.37	48280.57
609.53	48811.87
609.68	48566.12
609.84	48793.15
609.99	48362.49
610.15	48472.49
610.30	48669.10
610.46	48474.84
610.61	48282.91
610.76	48442.07
610.92	47887.36
611.07	47992.68
611.23	48346.11
611.38	48083.97
611.54	48163.54
611.69	48666.76
611.84	48467.81
612.00	48224.40
612.15	48189.29
612.31	48439.73
612.46	47878.00
612.62	48156.52
612.77	48018.43
612.92	48282.91
613.08	47753.95
613.23	48053.54
613.39	48086.31
613.54	47957.58
613.69	48149.50
613.85	47814.80
614.00	47842.89
614.15	47636.92
614.31	47835.87
614.46	48308.66
614.62	47924.81
614.77	47679.05
614.92	47760.97
615.08	48067.58
615.23	47683.73
615.38	48116.73
615.54	47959.92
615.69	48074.60
615.84	47697.78
616.00	48076.94
616.15	47922.47
616.30	47889.70
616.46	47580.75
616.61	47625.22
616.76	47856.93
616.92	47639.26
617.07	48069.92
617.22	47880.34
617.37	47313.93
617.53	47480.11
617.68	47992.68
617.83	47686.07
617.99	47995.03
618.14	47674.37
618.29	47318.61
618.45	47327.97
618.60	47496.49
618.75	47571.39
618.90	47672.03
619.06	47320.95
619.21	47283.50
619.36	47863.96
619.51	47262.44
619.67	47241.37
619.82	47433.30
619.97	47810.12
620.12	47613.52
620.28	47079.88
620.43	47384.15
620.58	47533.94
620.73	47533.94
620.89	47421.59
621.04	47435.64
621.19	47358.40
621.34	47405.21
621.49	46700.71
621.65	47381.80
621.80	47105.62
621.95	47028.38
622.10	47262.44
622.25	46712.41
622.41	47246.05
622.56	47105.62
622.71	47592.45
622.86	47119.66
623.01	47091.58
623.16	47281.16
623.32	47173.50
623.47	47014.34
623.62	46965.19
623.77	47208.61
623.92	47004.98
624.07	46768.58
624.23	47126.69
624.38	47393.51
624.53	46930.08
624.68	46466.66
624.83	46677.30
624.98	46834.12
625.13	46461.97
625.29	46534.53
625.44	46742.84
625.59	46667.94
625.74	46838.80
625.89	45951.74
626.04	46684.33
626.19	46997.96
626.34	46354.31
626.49	46127.28
626.65	46078.13
626.80	46618.79
626.95	46298.14
627.10	46361.33
627.25	46686.67
627.40	46639.86
627.55	46653.90
627.70	46279.41
627.85	46513.47
628.00	46803.69
628.15	46431.55
628.30	46316.86
628.45	46080.47
628.60	45727.05
628.76	45741.09
628.91	45860.46
629.06	45907.27
629.21	45846.41
629.36	46204.52
629.51	45757.47
629.66	46234.94
629.81	45862.80
629.96	45844.07
630.11	45851.09
630.26	45792.58
630.41	45661.51
630.56	45694.28
630.71	46061.74
630.86	45823.01
631.01	45298.73
631.16	45595.98
631.31	45504.70
631.46	45745.77
631.61	45968.12
631.76	45525.76
631.91	46057.06
632.06	46120.26
632.21	45757.47
632.36	45839.39
632.51	45221.49
632.66	45628.74
632.81	45759.81
632.96	45425.12
633.10	45317.45
633.25	45373.63
633.40	45474.27
633.55	45235.53
633.70	45153.62
633.85	45216.81
634.00	45174.68
634.15	44975.73
634.30	45464.91
634.45	45462.57
634.60	44802.53
634.75	45277.66
634.90	45254.26
635.05	45462.57
635.19	45148.93
635.34	45153.62
635.49	45193.40
635.64	45116.17
635.79	45305.75
635.94	45118.51
636.09	45233.19
636.24	45001.48
636.39	44985.10
636.53	44835.30
636.68	44903.18
636.83	44142.50
636.98	44987.44
637.13	44535.71
637.28	44491.24
637.43	44814.24
637.57	45092.76
637.72	44402.30
637.87	44563.80
638.02	44624.65
638.17	44624.65
638.32	44353.15
638.46	44250.17
638.61	44067.61
638.76	44514.65
638.91	44554.44
639.06	43873.34
639.20	43599.50
639.35	44587.21
639.50	44201.02
639.65	44091.01
639.80	44650.40
639.94	44472.52
640.09	44236.12
640.24	44404.64
640.39	44390.60
640.54	43501.20
640.68	44311.02
640.83	44343.79
640.98	43709.50
641.13	43758.66
641.27	44559.12
641.42	44395.28
641.57	43992.71
641.72	44294.64
641.86	43812.49
642.01	43924.83
642.16	43491.83
642.31	43793.76
642.45	43756.32
642.60	43955.26
642.75	44009.09
642.90	43859.30
643.04	43910.79
643.19	43281.19
643.34	43695.46
643.48	43119.69
643.63	43274.16
643.78	43849.94
643.93	43606.52
644.07	44212.72
644.22	43393.53
644.37	43377.15
644.51	43489.49
644.66	43653.33
644.81	43262.46
644.95	43515.24
645.10	43508.22
645.25	43529.28
645.39	42983.94
645.54	43182.88
645.69	42974.58
645.83	42878.61
645.98	43159.48
646.13	43171.18
646.27	43356.08
646.42	42930.11
646.57	43119.69
646.71	43409.92
646.86	44079.31
647.00	43203.95
647.15	43421.62
647.30	43239.06
647.44	42944.15
647.59	43040.11
647.74	42747.54
647.88	43358.42
648.03	43058.84
648.17	43325.66
648.32	42990.96
648.47	43470.77
648.61	42534.56
648.76	42794.36
648.90	42761.59
649.05	42415.19
649.20	43203.95
649.34	43061.18
649.49	42997.98
649.63	42871.59
649.78	43021.39
649.92	43161.82
650.07	43381.83
650.21	43192.25
650.36	42768.61
650.51	42749.88
650.65	42829.46
650.80	42412.85
650.94	42667.97
651.09	42515.83
651.23	42497.11
651.38	42195.18
651.52	42686.69
651.67	42237.31
651.81	42033.68
651.96	42611.79
652.10	42000.91
652.25	42019.64
652.39	42483.06
652.54	42431.57
652.68	42106.24
652.83	42265.39
652.97	42244.33
653.12	42490.09
653.26	41624.09
653.41	42122.62
653.55	42330.93
653.70	42443.27
653.84	42564.98
653.99	42127.30
654.13	42036.02
654.27	41752.82
654.42	42244.33
654.56	42054.75
654.71	42043.04
654.85	41921.34
655.00	41776.22
655.14	41853.46
655.29	41921.34
655.43	42539.24
655.57	41551.53
655.72	41546.85
655.86	41289.39
656.01	41247.26
656.15	41551.53
656.30	41343.22
656.44	41682.60
656.58	41383.01
656.73	41148.96
656.87	41291.73
657.01	41280.03
657.16	41813.67
657.30	41390.03
657.45	41635.79
657.59	40781.49
657.73	41057.68
657.88	41460.25
658.02	41432.16
658.16	41783.24
658.31	41425.14
658.45	41516.42
658.60	41343.22
658.74	41265.99
658.88	41013.21
659.03	41036.61
659.17	40573.19
659.31	40596.59
659.46	40931.29
659.60	41008.53
659.74	40549.78
659.89	40500.63
660.03	39838.26
660.17	40596.59
660.32	40385.94
660.46	40552.12
660.60	40271.26
660.74	40308.71
660.89	40081.67
661.03	40065.29
661.17	40231.47
661.32	39957.63
661.46	40292.32
661.60	39737.62
661.74	39772.72
661.89	39952.94
662.03	39938.90
662.17	39833.58
662.31	39459.09
662.46	40030.18
662.60	39548.03
662.74	39524.63
662.88	39201.63
663.03	39285.89
663.17	39379.51
663.31	39194.61
663.45	39510.58
663.60	39824.22
663.74	39187.59
663.88	39379.51
664.02	39016.73
664.17	39419.30
664.31	38817.78
664.45	38859.91
664.59	38806.08
664.73	38888.00
664.88	38831.83
665.02	38632.88
665.16	38916.09
665.30	38742.89
665.44	39072.90
665.59	38574.37
665.73	38419.89
665.87	38082.86
666.01	38293.50
666.15	38621.18
666.29	38153.07
666.44	38625.86
666.58	38408.19
666.72	38178.82
666.86	38181.16
667.00	38003.28
667.14	38127.33
667.28	37951.79
667.43	38293.50
667.57	38209.25
667.71	37888.59
667.85	38232.65
667.99	37909.66
668.13	37809.01
668.27	37322.18
668.41	37263.67
668.56	36959.40
668.70	37153.66
668.84	36889.18
668.98	37106.85
669.12	37010.89
669.26	37493.04
669.40	37380.70
669.54	37134.94
669.68	37048.34
669.82	36989.83
669.96	36861.10
670.10	36360.22
670.25	36725.35
670.39	36868.12
670.53	36760.45
670.67	36610.66
670.81	36601.30
670.95	36334.48
671.09	36254.90
671.23	36559.17
671.37	36278.30
671.51	35803.17
671.65	36107.44
671.79	35950.63
671.93	35971.69
672.07	36011.48
672.21	35714.23
672.35	35246.13
672.49	35585.50
672.63	35653.38
672.77	35679.13
672.91	35555.08
673.05	35208.68
673.19	35358.47
673.33	35351.45
673.47	35206.34
673.61	34831.85
673.75	34628.23
673.89	34850.58
674.03	34529.92
674.17	34569.71
674.31	34394.17
674.45	34572.05
674.59	34265.44
674.73	34651.63
674.87	34284.17
675.01	34110.97
675.15	33663.93
675.29	34174.16
675.43	33921.38
675.56	33916.70
675.70	33979.90
675.84	33448.60
675.98	32404.72
676.12	33699.03
676.26	33626.48
676.40	33153.69
676.54	33193.48
676.68	32950.06
676.82	32802.61
676.96	32802.61
677.10	33247.31
677.23	32540.47
677.37	32980.49
677.51	32924.32
677.65	32666.86
677.79	32577.92
677.93	32210.45
678.07	32638.77
678.21	32423.44
678.34	31814.90
678.48	31522.34
678.62	31917.89
678.76	31466.16
678.90	31711.92
679.04	31814.90
679.18	32063.00
679.31	31189.98
679.45	30913.80
679.59	31154.87
679.73	30932.52
679.87	31117.42
680.00	31178.28
680.14	30738.26
680.28	30756.98
680.42	31051.89
680.56	30731.23
680.70	30368.45
680.83	30513.56
680.97	30000.99
681.11	30106.31
681.25	30256.11
681.39	29731.83
681.52	29717.78
681.66	29488.41
681.80	29448.62
681.94	29120.95
682.07	29097.54
682.21	28938.38
682.35	29043.71
682.49	29006.26
682.62	28940.72
682.76	28931.36
682.90	28760.50
683.04	28510.07
683.17	28542.83
683.31	28432.83
683.45	28276.01
683.59	28353.25
683.72	28048.98
683.86	28016.21
684.00	27929.61
684.13	28135.58
684.27	27789.18
684.41	27880.46
684.55	27632.36
684.68	27524.70
684.82	27175.96
684.96	27112.77
685.09	27033.19
685.23	27304.69
685.37	27255.54
685.50	27187.66
685.64	27255.54
685.78	26778.07
685.91	26775.73
686.05	26501.89
686.19	26171.87
686.32	26096.97
686.46	25923.77
686.60	25998.67
686.73	26195.28
686.87	25984.63
687.01	25853.56
687.14	26078.25
687.28	25750.57
687.42	25736.53
687.55	25488.43
687.69	25436.94
687.82	25034.37
687.96	25317.57
688.10	25474.39
688.23	25041.39
688.37	25195.87
688.50	25458.01
688.64	24896.28
688.78	24594.35
688.91	24467.96
689.05	25041.39
689.18	24421.15
689.32	23894.53
689.46	23716.65
689.59	23953.04
689.73	24486.68
689.86	24245.61
690.00	23934.32
690.13	23828.99
690.27	23590.26
690.41	23924.96
690.54	23260.24
690.68	23527.06
690.81	23419.40
690.95	23119.81
691.08	23096.41
691.22	23330.46
691.35	22661.07
691.49	23213.43
691.62	23185.35
691.76	22705.54
691.89	22436.38
692.03	21935.50
692.16	21991.67
692.30	22050.19
692.43	22038.48
692.57	22134.45
692.70	21977.63
692.84	21902.73
692.97	21420.58
693.11	21745.92
693.24	21151.42
693.38	21397.18
693.51	21451.01
693.65	21394.84
693.78	20989.92
693.92	21106.95
694.05	21214.62
694.19	20786.30
694.32	20800.34
694.45	20542.88
694.59	20751.19
694.72	20748.85
694.86	20379.04
694.99	20271.38
695.13	20369.68
695.26	19840.72
695.39	19805.61
695.53	19875.83
695.66	20023.28
695.80	19641.78
695.93	19868.81
696.07	19491.98
696.20	19145.58
696.33	19323.46
696.47	19222.82
696.60	19262.61
696.73	19300.06
696.87	19304.74
697.00	19243.88
697.14	19215.80
697.27	18761.73
697.40	18768.76
697.54	18684.50
697.67	18761.73
697.80	18628.32
697.94	18602.58
698.07	18384.91
698.21	18394.27
698.34	18518.32
698.47	18141.49
698.61	17743.60
698.74	17680.41
698.87	17886.37
699.01	17750.62
699.14	17902.76
699.27	17715.51
699.40	17305.92
699.54	17362.09
699.67	17338.69
699.80	17247.41
699.94	17357.41
700.07	17479.12
700.20	17088.25
700.34	17205.28
700.47	17142.08
700.60	17048.46
700.73	16802.71
700.87	16704.40
701.00	16418.86
701.13	16283.11
701.26	16463.33
701.40	16341.62
701.53	16004.58
701.66	16276.09
701.79	16194.17
701.93	15962.45
702.06	15822.02
702.19	15817.34
702.32	15796.28
702.46	15838.41
702.59	15887.56
702.72	15929.69
702.85	15768.19
702.99	15740.10
703.12	15646.48
703.25	15225.18
703.38	15349.23
703.51	15159.65
703.65	15014.54
703.78	14888.15
703.91	14785.16
704.04	14789.85
704.17	14555.79
704.31	14792.19
704.44	14525.36
704.57	14576.86
704.70	14295.99
704.83	14464.51
704.96	14317.06
705.10	14029.17
705.23	13982.36
>>>>>End Processed Spectral Data<<<<<
