SpectraSuite Data File
++++++++++++++++++++++++++++++++++++
Date: Fri Oct 25 11:34:30 EDT 2013
User: price-jones
Dark Spectrum Present: No
Reference Spectrum Present: No
Number of Sampled Component Spectra: 1
Spectrometers: USB2+H05261
Integration Time (usec): 100000 (USB2+H05261)
Spectra Averaged: 1 (USB2+H05261)
Boxcar Smoothing: 0 (USB2+H05261)
Correct for Electrical Dark: No (USB2+H05261)
Strobe/Lamp Enabled: No (USB2+H05261)
Correct for Detector Non-linearity: No (USB2+H05261)
Correct for Stray Light: No (USB2+H05261)
Number of Pixels in Processed Spectrum: 2048
>>>>>Begin Processed Spectral Data<<<<<
365.73	313.63
365.92	313.63
366.12	313.63
366.32	215.33
366.52	224.69
366.72	212.99
366.91	159.16
367.11	196.60
367.31	182.56
367.51	149.79
367.70	187.24
367.90	196.60
368.10	156.82
368.30	156.82
368.49	175.54
368.69	205.97
368.89	210.65
369.09	177.88
369.28	201.29
369.48	166.18
369.68	168.52
369.87	231.71
370.07	248.10
370.27	231.71
370.47	395.55
370.66	395.55
370.86	535.98
371.06	512.58
371.25	566.41
371.45	498.53
371.65	554.71
371.84	557.05
372.04	505.56
372.24	571.09
372.44	662.37
372.63	573.43
372.83	568.75
373.03	575.77
373.22	601.52
373.42	613.22
373.62	627.26
373.81	676.41
374.01	617.90
374.21	566.41
374.40	615.56
374.60	629.60
374.79	643.65
374.99	709.18
375.19	653.01
375.38	657.69
375.58	615.56
375.78	758.33
375.97	629.60
376.17	674.07
376.37	732.59
376.56	692.80
376.76	636.63
376.95	617.90
377.15	622.58
377.35	699.82
377.54	566.41
377.74	711.52
377.93	688.12
378.13	744.29
378.33	671.73
378.52	657.69
378.72	645.99
378.91	683.44
379.11	674.07
379.31	751.31
379.50	697.48
379.70	702.16
379.89	702.16
380.09	664.71
380.28	667.05
380.48	723.23
380.68	692.80
380.87	692.80
381.07	732.59
381.26	770.04
381.46	716.20
381.65	770.04
381.85	779.40
382.04	800.46
382.24	744.29
382.43	772.38
382.63	737.27
382.83	704.50
383.02	758.33
383.22	807.48
383.41	711.52
383.61	837.91
383.80	819.19
384.00	781.74
384.19	812.17
384.39	823.87
384.58	770.04
384.78	791.10
384.97	809.83
385.17	784.08
385.36	788.76
385.56	903.45
385.75	873.02
385.95	840.25
386.14	847.27
386.34	807.48
386.53	858.98
386.72	868.34
386.92	884.72
387.11	866.00
387.31	880.04
387.50	837.91
387.70	849.61
387.89	809.83
388.09	814.51
388.28	821.53
388.48	905.79
388.67	992.39
388.86	929.19
389.06	936.21
389.25	903.45
389.45	908.13
389.64	809.83
389.84	887.06
390.03	945.58
390.22	910.47
390.42	978.34
390.61	961.96
390.81	964.30
391.00	957.28
391.19	1020.47
391.39	947.92
391.58	964.30
391.78	952.60
391.97	992.39
392.16	950.26
392.36	1055.58
392.55	992.39
392.75	1004.09
392.94	1097.71
393.13	1060.26
393.33	1146.86
393.52	1076.65
393.71	1086.01
393.91	1011.11
394.10	1088.35
394.29	1050.90
394.49	1025.15
394.68	1060.26
394.88	976.00
395.07	1123.46
395.26	1095.37
395.46	1144.52
395.65	1184.31
395.84	1174.95
396.04	1137.50
396.23	1088.35
396.42	1165.59
396.62	1135.16
396.81	1158.57
397.00	1128.14
397.19	1132.82
397.39	1256.87
397.58	1139.84
397.77	1153.88
397.97	1205.38
398.16	1151.54
398.35	1125.80
398.55	1196.01
398.74	1254.53
398.93	1277.93
399.12	1191.33
399.32	1299.00
399.51	1219.42
399.70	1303.68
399.90	1294.32
400.09	1362.19
400.28	1439.43
400.47	1364.53
400.67	1336.45
400.86	1329.42
401.05	1409.00
401.24	1324.74
401.44	1423.05
401.63	1336.45
401.82	1418.36
402.01	1406.66
402.21	1399.64
402.40	1432.41
402.59	1444.11
402.78	1488.58
402.97	1451.13
403.17	1544.75
403.36	1497.94
403.55	1540.07
403.74	1537.73
403.93	1526.03
404.13	1558.80
404.32	1507.30
404.51	1516.67
404.70	1462.83
404.89	1549.43
405.09	1689.87
405.28	1598.59
405.47	1572.84
405.66	1661.78
405.85	1582.20
406.05	1636.03
406.24	1701.57
406.43	1732.00
406.62	1724.97
406.81	1729.66
407.00	1713.27
407.20	1671.14
407.39	1652.42
407.58	1769.44
407.77	1774.13
407.96	1739.02
408.15	1879.45
408.34	1750.72
408.54	1891.15
408.73	1774.13
408.92	1865.41
409.11	1809.23
409.30	1884.13
409.49	1984.77
409.68	1916.90
409.87	1858.39
410.07	2069.03
410.26	1944.99
410.45	1919.24
410.64	2073.71
410.83	2066.69
411.02	2033.93
411.21	2176.70
411.40	2094.78
411.59	2143.93
411.78	2127.55
411.98	2062.01
412.17	2087.76
412.36	2193.08
412.55	2218.83
412.74	2186.06
412.93	2256.28
413.12	2223.51
413.31	2319.47
413.50	2319.47
413.69	2232.87
413.88	2373.30
414.07	2244.57
414.26	2326.49
414.45	2392.03
414.64	2363.94
414.83	2562.89
415.02	2485.65
415.22	2499.69
415.41	2506.71
415.60	2513.74
415.79	2560.55
415.98	2537.14
416.17	2710.34
416.36	2513.74
416.55	2595.65
416.74	2644.81
416.93	2640.12
417.12	2722.04
417.31	2750.13
417.50	2752.47
417.69	2752.47
417.88	2810.98
418.07	2862.48
418.26	2771.19
418.45	2820.35
418.64	2998.23
418.83	2904.60
419.02	2902.26
419.21	2911.63
419.39	2902.26
419.58	2970.14
419.77	2935.03
419.96	3052.06
420.15	2953.76
420.34	3066.10
420.53	2995.89
420.72	3269.73
420.91	3019.29
421.10	3129.30
421.29	3115.25
421.48	3150.36
421.67	3178.45
421.86	3063.76
422.05	3133.98
422.24	3227.60
422.43	3288.45
422.61	3136.32
422.80	3363.35
422.99	3164.40
423.18	3356.33
423.37	3377.39
423.56	3316.54
423.75	3222.92
423.94	3096.53
424.13	3077.80
424.32	3197.17
424.50	3133.98
424.69	3531.87
424.88	3459.31
425.07	3248.66
425.26	3236.96
425.45	3318.88
425.64	3393.78
425.83	3243.98
426.01	3449.95
426.20	3293.13
426.39	3290.79
426.58	3236.96
426.77	3382.07
426.96	3410.16
427.15	3297.81
427.33	3449.95
427.52	3456.97
427.71	3550.59
427.90	3559.95
428.09	3487.40
428.28	3438.25
428.46	3578.68
428.65	3599.74
428.84	3599.74
429.03	3604.42
429.22	3508.46
429.40	3637.19
429.59	3583.36
429.78	3433.57
429.97	3581.02
430.16	3686.34
430.34	3698.05
430.53	3634.85
430.72	3602.08
430.91	3714.43
431.10	3581.02
431.28	3726.13
431.47	3871.25
431.66	3852.52
431.85	3775.28
432.03	3824.44
432.22	3899.33
432.41	3906.35
432.60	3969.55
432.79	3875.93
432.97	3794.01
433.16	3831.46
433.35	3829.12
433.54	3918.06
433.72	3803.37
433.91	3955.51
434.10	4002.32
434.28	4007.00
434.47	3943.80
434.66	4112.32
434.85	4102.96
435.03	4138.07
435.22	4124.02
435.41	4156.79
435.59	4278.50
435.78	4175.52
435.97	4297.22
436.16	4219.99
436.34	4018.70
436.53	4262.12
436.72	4301.90
436.90	4159.13
437.09	4339.35
437.28	4259.78
437.46	4379.14
437.65	4372.12
437.84	4369.78
438.02	4447.02
438.21	4369.78
438.40	4451.70
438.58	4477.44
438.77	4624.90
438.96	4587.45
439.14	4741.93
439.33	4669.37
439.52	4566.39
439.70	4716.18
439.89	4889.38
440.08	4779.37
440.26	4774.69
440.45	4723.20
440.63	4968.96
440.82	5022.79
441.01	4992.36
441.19	4858.95
441.38	4908.10
441.57	5048.54
441.75	5121.09
441.94	5107.05
442.12	5025.13
442.31	5186.63
442.50	5324.72
442.68	5186.63
442.87	5195.99
443.05	5303.65
443.24	5462.81
443.43	5364.51
443.61	5233.44
443.80	5483.88
443.98	5331.74
444.17	5139.82
444.35	5212.37
444.54	5371.53
444.73	5399.62
444.91	5434.72
445.10	5518.98
445.28	5455.79
445.47	5446.43
445.65	5294.29
445.84	5535.37
446.02	5682.82
446.21	5416.00
446.39	5392.59
446.58	5420.68
446.77	5516.64
446.95	5357.49
447.14	5568.13
447.32	5502.60
447.51	5376.21
447.69	5526.00
447.88	5509.62
448.06	5483.88
448.25	5441.75
448.43	5708.57
448.62	5558.77
448.80	5661.76
448.99	5537.71
449.17	5657.07
449.36	5439.40
449.54	5804.53
449.73	5708.57
449.91	5867.72
450.10	5715.59
450.28	5734.31
450.46	6022.20
450.65	5877.09
450.83	5834.96
451.02	5809.21
451.20	5968.37
451.39	5940.28
451.57	5825.59
451.76	5912.19
451.94	5881.77
452.13	6101.78
452.31	5959.00
452.49	5858.36
452.68	6022.20
452.86	5891.13
453.05	6038.58
453.23	6148.59
453.42	5912.19
453.60	5956.66
453.78	6293.70
453.97	6108.80
454.15	6157.95
454.34	6036.24
454.52	6289.02
454.70	6143.91
454.89	6300.72
455.07	6342.85
455.26	6274.98
455.44	6307.74
455.62	6406.05
455.81	6368.60
455.99	6537.12
456.17	6293.70
456.36	6424.77
456.54	6579.25
456.73	6736.06
456.91	6677.55
457.09	6825.00
457.28	6761.81
457.46	6583.93
457.64	6691.59
457.83	6747.76
458.01	6916.28
458.19	6935.01
458.38	6752.45
458.56	7028.63
458.74	6904.58
458.93	6815.64
459.11	6846.07
459.29	6829.68
459.48	6944.37
459.66	6956.07
459.84	7094.16
460.03	7204.17
460.21	7150.34
460.39	6895.22
460.57	7180.76
460.76	7075.44
460.94	7000.54
461.12	7211.19
461.31	7164.38
461.49	6986.50
461.67	7169.06
461.85	7258.00
462.04	7176.08
462.22	7735.47
462.40	7286.09
462.59	7304.81
462.77	7398.43
462.95	7531.84
463.13	7328.22
463.32	7393.75
463.50	7459.29
463.68	7641.85
463.86	7548.23
464.05	7513.12
464.23	7461.63
464.41	7602.06
464.59	7442.90
464.78	7709.72
464.96	7674.62
465.14	7520.14
465.32	7793.98
465.50	7894.63
465.69	7817.39
465.87	7801.01
466.05	7866.54
466.23	7705.04
466.41	7878.24
466.60	7936.76
466.78	7789.30
466.96	7667.60
467.14	7698.02
467.32	8013.99
467.51	8016.33
467.69	7826.75
467.87	8142.72
468.05	7911.01
468.23	7845.48
468.41	8004.63
468.60	8018.68
468.78	8105.28
468.96	7976.55
469.14	8112.30
469.32	8140.38
469.50	8028.04
469.69	8243.37
469.87	8428.27
470.05	8374.44
470.23	8465.72
470.41	8320.60
470.59	8369.76
470.77	8348.69
470.95	8407.20
471.14	8634.24
471.32	8458.70
471.50	8557.00
471.68	8674.03
471.86	8823.82
472.04	8706.79
472.22	8823.82
472.40	8648.28
472.58	8695.09
472.77	8901.06
472.95	8938.51
473.13	9238.09
473.31	8908.08
473.49	9121.07
473.67	9015.74
473.85	9125.75
474.03	9214.69
474.21	9355.12
474.39	9394.91
474.57	9217.03
474.75	9439.38
474.93	9399.59
475.12	9453.42
475.30	9458.10
475.48	9699.18
475.66	9643.01
475.84	9664.07
476.02	9584.49
476.20	9813.87
476.38	9926.21
476.56	9874.72
476.74	10026.86
476.92	9846.63
477.10	10073.67
477.28	10265.59
477.46	10167.29
477.64	10345.17
477.82	10441.13
478.00	10604.97
478.18	10703.27
478.36	10698.59
478.54	10775.83
478.72	10850.72
478.90	10874.13
479.08	11152.65
479.26	11190.10
479.44	11108.18
479.62	11265.00
479.80	11197.12
479.98	11442.88
480.16	11798.64
480.34	11662.89
480.52	11796.30
480.70	11522.46
480.88	11681.61
481.06	11611.40
481.24	11927.37
481.41	11901.62
481.59	11939.07
481.77	12180.15
481.95	12079.50
482.13	12468.03
482.31	12521.87
482.49	12903.37
482.67	12821.45
482.85	13081.25
483.03	12821.45
483.21	12971.25
483.39	13238.07
483.57	13118.70
483.74	13125.72
483.92	13322.33
484.10	13137.43
484.28	13425.31
484.46	13792.78
484.64	14071.30
484.82	13767.03
485.00	13937.89
485.18	14195.35
485.35	14345.14
485.53	14263.22
485.71	14403.66
485.89	14651.75
486.07	14707.93
486.25	14586.22
486.43	14766.44
486.61	14991.13
486.78	14932.62
486.96	15105.82
487.14	15253.27
487.32	15356.25
487.50	15400.72
487.68	15651.16
487.85	15709.68
488.03	15871.17
488.21	16346.30
488.39	16065.44
488.57	16208.21
488.75	16229.27
488.92	16547.59
489.10	16627.17
489.28	16781.64
489.46	16816.75
489.64	16961.86
489.81	17341.03
489.99	17301.24
490.17	17387.84
490.35	17664.02
490.53	17628.92
490.70	17741.26
490.88	17589.13
491.06	18150.85
491.24	17832.54
491.41	17893.40
491.59	18094.68
491.77	18431.72
491.95	18408.31
492.13	18565.13
492.30	18696.20
492.48	18764.07
492.66	18766.42
492.84	19234.52
493.01	19314.10
493.19	19009.83
493.37	19168.99
493.54	19637.09
493.72	19910.94
493.90	19407.72
494.08	19880.51
494.25	19922.64
494.43	19962.43
494.61	20231.59
494.79	20306.49
494.96	20095.84
495.14	20484.37
495.32	20908.01
495.49	20840.13
495.67	20709.06
495.85	20753.53
496.02	20957.16
496.20	21067.16
496.38	21319.94
496.55	21235.68
496.73	21879.33
496.91	21472.07
497.09	21490.80
497.26	21785.71
497.44	21666.34
497.62	21640.59
497.79	22106.36
497.97	22078.27
498.14	22349.78
498.32	22363.82
498.50	22513.61
498.67	22548.72
498.85	22562.76
499.03	23054.28
499.20	22939.59
499.38	23145.56
499.56	23019.17
499.73	23084.70
499.91	23300.03
500.08	23250.88
500.26	23204.07
500.44	23396.00
500.61	23445.15
500.79	23489.62
500.97	23747.08
501.14	24046.66
501.32	24159.01
501.49	24109.86
501.67	24320.51
501.84	24414.13
502.02	24109.86
502.20	23915.59
502.37	24503.07
502.55	24212.84
502.72	24556.90
502.90	24362.64
503.07	24566.26
503.25	24559.24
503.43	24802.66
503.60	24819.04
503.78	25282.47
503.95	25186.50
504.13	25326.94
504.30	25067.14
504.48	25317.57
504.65	25626.53
504.83	25654.61
505.01	25678.02
505.18	25556.31
505.36	26167.19
505.53	25975.27
505.71	26045.48
505.88	26033.78
506.06	26015.05
506.23	26335.71
506.41	26527.63
506.58	26347.41
506.76	26567.42
506.93	26487.84
507.11	26225.70
507.28	26656.36
507.46	26459.76
507.63	27065.96
507.81	27168.94
507.98	26754.66
508.16	27077.66
508.33	27108.08
508.50	27276.60
508.68	27655.77
508.85	27920.25
509.03	27278.94
509.20	27370.22
509.38	27882.80
509.55	27672.15
509.73	28044.30
509.90	28158.99
510.08	27817.27
510.25	28360.27
510.42	28116.86
510.60	27906.21
510.77	28184.73
510.95	28940.72
511.12	28294.74
511.30	28400.06
511.47	28994.56
511.64	28870.51
511.82	28828.38
511.99	29071.79
512.17	28622.41
512.34	29139.67
512.51	29560.97
512.69	29434.58
512.86	29603.10
513.04	29312.87
513.21	29558.63
513.38	29617.14
513.56	29752.89
513.73	29797.36
513.90	29472.03
514.08	29174.78
514.25	29989.28
514.43	30370.79
514.60	29890.98
514.77	30349.73
514.95	29982.26
515.12	30040.78
515.29	30253.76
515.47	30125.04
515.64	30536.97
515.81	30448.03
515.99	30113.33
516.16	31096.36
516.33	30843.58
516.51	30927.84
516.68	31147.85
516.85	31098.70
517.03	31035.50
517.20	31012.10
517.37	31117.42
517.54	31449.78
517.72	31236.79
517.89	31079.97
518.06	31475.52
518.24	31178.28
518.41	31494.25
518.58	31711.92
518.75	31133.81
518.93	31660.43
519.10	31590.21
519.27	31723.62
519.45	32011.51
519.62	31845.33
519.79	31983.42
519.96	32294.71
520.14	32098.11
520.31	31821.92
520.48	32378.97
520.65	32460.89
520.83	32652.81
521.00	32669.20
521.17	32669.20
521.34	32531.11
521.52	32711.33
521.69	32861.12
521.86	32919.63
522.03	33333.91
522.20	33434.55
522.38	33539.88
522.55	33582.01
522.72	33242.63
522.89	33493.07
523.07	33919.04
523.24	33607.75
523.41	33336.25
523.58	33551.58
523.75	33610.09
523.92	33715.42
524.10	33259.01
524.27	33619.46
524.44	34003.30
524.61	34054.79
524.78	33703.71
524.96	34312.25
525.13	34312.25
525.30	34438.64
525.47	34719.51
525.64	34499.50
525.81	34597.80
525.98	34539.29
526.16	34618.86
526.33	34506.52
526.50	35005.05
526.67	34429.28
526.84	34410.56
527.01	34693.76
527.18	34881.00
527.36	34904.41
527.53	35108.04
527.70	35543.38
527.87	35398.26
528.04	35026.12
528.21	35793.81
528.38	35105.70
528.55	35517.63
528.72	35395.92
528.89	35627.63
529.07	35761.05
529.24	35297.62
529.41	35704.87
529.58	35534.01
529.75	35447.41
529.92	35826.58
530.09	35665.08
530.26	35585.50
530.43	35683.81
530.60	35583.16
530.77	36002.12
530.94	36077.02
531.11	36114.47
531.28	36381.29
531.46	36215.11
531.63	36119.15
531.80	36477.25
531.97	36130.85
532.14	36430.44
532.31	36486.61
532.48	36900.89
532.65	36872.80
532.82	36313.41
532.99	36769.82
533.16	36428.10
533.33	36851.73
533.50	36814.29
533.67	37251.97
533.84	37202.82
534.01	36833.01
534.18	36793.22
534.35	36945.36
534.52	37158.34
534.69	37256.65
534.86	37326.86
535.03	37092.81
535.20	37567.94
535.37	37483.68
535.54	37610.07
535.71	37233.24
535.88	37619.43
536.05	38003.28
536.22	37736.46
536.38	37130.26
536.55	37881.57
536.72	37411.12
536.89	37780.93
537.06	37827.74
537.23	38033.71
537.40	37687.31
537.57	37366.65
537.74	37965.83
537.91	38171.80
538.08	38082.86
538.25	38094.56
538.42	38361.38
538.59	38424.57
538.75	37890.93
538.92	38352.02
539.09	39093.97
539.26	38579.05
539.43	38637.56
539.60	39108.01
539.77	38553.30
539.94	38623.52
540.11	38836.51
540.28	39047.16
540.44	38827.15
540.61	38880.98
540.78	38160.09
540.95	38742.89
541.12	38773.31
541.29	38911.41
541.46	39243.76
541.62	39009.71
541.79	39234.40
541.96	38745.23
542.13	38937.15
542.30	39194.61
542.47	39454.41
542.63	39646.33
542.80	39674.42
542.97	39583.14
543.14	39388.88
543.31	39754.00
543.48	39831.24
543.64	40306.37
543.81	39840.60
543.98	40172.96
544.15	39686.12
544.32	40285.30
544.48	40575.53
544.65	40105.08
544.82	40304.02
544.99	39716.55
545.16	39892.09
545.32	39962.31
545.49	40355.52
545.66	40687.87
545.83	40917.25
546.00	40669.15
546.16	40446.80
546.33	40886.82
546.50	40542.76
546.67	40732.34
546.83	40158.91
547.00	40374.24
547.17	40240.83
547.34	40772.13
547.50	40620.00
547.67	41195.77
547.84	40671.49
548.00	40982.78
548.17	41315.14
548.34	40905.54
548.51	41464.93
548.67	41022.57
548.84	41535.15
549.01	41258.96
549.18	41085.76
549.34	40938.31
549.51	41172.36
549.68	41535.15
549.84	41137.26
550.01	41764.52
550.18	41071.72
550.34	41598.34
550.51	41390.03
550.68	41698.98
550.84	41184.07
551.01	41724.73
551.18	41853.46
551.34	41687.28
551.51	41972.83
551.68	42127.30
551.84	41471.95
552.01	41439.18
552.18	41918.99
552.34	41537.49
552.51	42286.46
552.68	42047.72
552.84	42178.79
553.01	42106.24
553.18	41799.63
553.34	42085.17
553.51	41563.23
553.67	41825.37
553.84	42316.89
554.01	42099.22
554.17	42256.03
554.34	42572.00
554.51	42394.12
554.67	42260.71
554.84	42808.40
555.00	42443.27
555.17	42279.44
555.33	42536.90
555.50	42557.96
555.67	42740.52
555.83	42714.78
556.00	43002.66
556.16	43161.82
556.33	42887.98
556.50	42827.12
556.66	42660.94
556.83	42602.43
556.99	43122.03
557.16	43236.72
557.32	42866.91
557.49	42986.28
557.65	42649.24
557.82	42801.38
557.98	43012.02
558.15	43051.81
558.32	42979.26
558.48	42799.04
558.65	42586.05
558.81	43229.69
558.98	42653.92
559.14	43098.62
559.31	43386.51
559.47	43482.47
559.64	43281.19
559.80	43496.52
559.97	43325.66
560.13	43196.93
560.30	43208.63
560.46	43751.63
560.63	43398.21
560.79	43725.89
560.96	43681.42
561.12	43519.92
561.29	43540.99
561.45	43885.04
561.61	43522.26
561.78	43517.58
561.94	43302.25
562.11	43232.04
562.27	43000.32
562.44	43824.19
562.60	43681.42
562.77	43814.83
562.93	43466.09
563.10	44343.79
563.26	43896.75
563.42	44224.42
563.59	43545.67
563.75	43730.57
563.92	44100.37
564.08	43608.86
564.24	44121.44
564.41	44032.50
564.57	43985.69
564.74	43868.66
564.90	43920.15
565.07	43948.24
565.23	44060.58
565.39	43973.98
565.56	43999.73
565.72	43707.16
565.88	44182.29
566.05	44147.18
566.21	44198.68
566.38	43945.90
566.54	44165.91
566.70	43885.04
566.87	44126.12
567.03	43992.71
567.19	44259.53
567.36	44229.10
567.52	44062.93
567.68	44533.37
567.85	44828.28
568.01	44240.81
568.17	43927.17
568.34	44477.20
568.50	43995.05
568.66	44095.69
568.83	44514.65
568.99	44299.32
569.15	44205.70
569.32	44142.50
569.48	44421.03
569.64	44751.04
569.81	44229.10
569.97	44463.16
570.13	44842.32
570.30	44091.01
570.46	44280.60
570.62	44865.73
570.78	44079.31
570.95	44612.95
571.11	45092.76
571.27	44346.13
571.43	44098.03
571.60	44758.06
571.76	44428.05
571.92	44271.23
572.09	44210.38
572.25	44449.11
572.41	44271.23
572.57	44538.05
572.74	45151.27
572.90	44484.22
573.06	44559.12
573.22	44790.83
573.38	45202.77
573.55	44964.03
573.71	44760.40
573.87	44552.10
574.03	44940.63
574.20	45118.51
574.36	44603.59
574.52	44978.07
574.68	44629.34
574.84	44765.09
575.01	45177.02
575.17	44704.23
575.33	44966.37
575.49	44355.49
575.65	44765.09
575.82	44893.82
575.98	44905.52
576.14	44987.44
576.30	44638.70
576.46	45015.52
576.62	45010.84
576.79	44472.52
576.95	44355.49
577.11	44849.35
577.27	44886.79
577.43	45050.63
577.59	44811.90
577.75	45294.05
577.92	44767.43
578.08	45031.91
578.24	45095.10
578.40	45392.35
578.56	44830.62
578.72	45081.06
578.88	45031.91
579.04	44952.33
579.21	45045.95
579.37	45003.82
579.53	44914.88
579.69	45240.21
579.85	44999.14
580.01	44898.50
580.17	44886.79
580.33	45184.04
580.49	45003.82
580.65	45134.89
580.82	45230.85
580.98	44980.42
581.14	44795.51
581.30	45106.80
581.46	44643.38
581.62	44921.90
581.78	45062.33
581.94	44961.69
582.10	45155.96
582.26	45287.03
582.42	45455.54
582.58	45041.27
582.74	45027.23
582.90	45036.59
583.06	45357.24
583.22	44804.88
583.38	45193.40
583.54	45460.23
583.70	45567.89
583.86	45272.98
584.02	45244.90
584.18	45600.66
584.34	45689.60
584.50	45450.86
584.66	45394.69
584.82	45495.33
584.98	45478.95
585.14	45542.14
585.30	44980.42
585.46	45275.32
585.62	45310.43
585.78	44985.10
585.94	45184.04
586.10	45200.43
586.26	45233.19
586.42	44980.42
586.58	45228.51
586.74	44996.80
586.90	45294.05
587.06	45296.39
587.22	45490.65
587.38	45298.73
587.54	45759.81
587.70	45757.47
587.86	45233.19
588.02	45233.19
588.18	45390.01
588.34	45200.43
588.49	45584.27
588.65	45219.15
588.81	45006.16
588.97	45207.45
589.13	45593.64
589.29	45078.72
589.45	45837.05
589.61	45682.58
589.77	45563.21
589.93	45256.60
590.08	45848.75
590.24	45563.21
590.40	45619.38
590.56	45743.43
590.72	45497.67
590.88	45518.74
591.04	45397.03
591.20	45617.04
591.35	45944.72
591.51	45923.65
591.67	45961.10
591.83	45797.26
591.99	45893.22
592.15	45563.21
592.31	45701.30
592.46	45876.84
592.62	45640.45
592.78	45904.93
592.94	46209.20
593.10	45848.75
593.26	46469.00
593.41	46293.46
593.57	45825.35
593.73	45385.33
593.89	46040.68
594.05	46033.66
594.20	45972.80
594.36	46171.75
594.52	46143.66
594.68	45778.54
594.84	45680.24
594.99	46323.88
595.15	46115.58
595.31	46192.81
595.47	45923.65
595.62	45923.65
595.78	45830.03
595.94	46113.23
596.10	46036.00
596.25	45935.35
596.41	46330.90
596.57	45785.56
596.73	46457.29
596.88	46174.09
597.04	45771.52
597.20	45713.00
597.36	46036.00
597.51	46007.91
597.67	45624.06
597.83	45853.44
597.99	46106.21
598.14	46183.45
598.30	45886.20
598.46	46033.66
598.61	45979.82
598.77	46218.56
598.93	46527.51
599.09	46012.59
599.24	46433.89
599.40	46003.23
599.56	46211.54
599.71	46513.47
599.87	46564.96
600.03	46108.55
600.18	46471.34
600.34	46356.65
600.50	45780.88
600.65	46358.99
600.81	46466.66
600.97	46452.61
601.12	46403.46
601.28	45984.51
601.44	46417.50
601.59	45954.08
601.75	46234.94
601.91	46522.83
602.06	46138.98
602.22	46312.18
602.37	46319.20
602.53	46319.20
602.69	46054.72
602.84	46230.26
603.00	46188.13
603.16	45965.78
603.31	46096.85
603.47	46265.37
603.62	46405.80
603.78	45762.15
603.94	46534.53
604.09	46284.09
604.25	46295.80
604.40	46279.41
604.56	46064.08
604.71	46447.93
604.87	46124.94
605.03	45876.84
605.18	45963.44
605.34	46323.88
605.49	45743.43
605.65	46256.01
605.80	46148.34
605.96	46045.36
606.12	46211.54
606.27	46129.62
606.43	46059.40
606.58	46260.69
606.74	46183.45
606.89	45956.42
607.05	46632.83
607.20	46122.60
607.36	46003.23
607.51	45935.35
607.67	46057.06
607.82	45553.85
607.98	45848.75
608.13	46028.98
608.29	46052.38
608.44	46160.05
608.60	45972.80
608.75	45928.33
608.91	45961.10
609.06	45305.75
609.22	45701.30
609.37	45940.04
609.53	46553.26
609.68	45970.46
609.84	46174.09
609.99	45904.93
610.15	46101.53
610.30	45893.22
610.46	45830.03
610.61	45799.60
610.76	45848.75
610.92	45455.54
611.07	45399.37
611.23	45525.76
611.38	45626.40
611.54	45832.37
611.69	45949.40
611.84	45986.85
612.00	45600.66
612.15	45188.72
612.31	45867.48
612.46	45275.32
612.62	45755.13
612.77	45668.53
612.92	45844.07
613.08	45773.86
613.23	45610.02
613.39	45530.44
613.54	45469.59
613.69	45670.87
613.85	45565.55
614.00	45425.12
614.15	45696.62
614.31	45312.77
614.46	45350.22
614.62	45228.51
614.77	45694.28
614.92	45530.44
615.08	45663.85
615.23	45457.88
615.38	45364.26
615.54	45317.45
615.69	45654.49
615.84	44882.11
616.00	45474.27
616.15	45336.18
616.30	45284.68
616.46	45228.51
616.61	45055.31
616.76	45382.99
616.92	45338.52
617.07	45401.71
617.22	45202.77
617.37	44811.90
617.53	44987.44
617.68	45052.97
617.83	45256.60
617.99	45511.72
618.14	45263.62
618.29	44802.53
618.45	44978.07
618.60	45071.70
618.75	45223.83
618.90	44732.32
619.06	44847.00
619.21	44851.69
619.36	45214.47
619.51	44729.98
619.67	44758.06
619.82	45287.03
619.97	45020.20
620.12	44907.86
620.28	44406.98
620.43	45184.04
620.58	45076.38
620.73	45153.62
620.89	44582.52
621.04	44769.77
621.19	44744.02
621.34	44339.11
621.49	44603.59
621.65	44973.39
621.80	44526.35
621.95	44376.56
622.10	44968.71
622.25	44137.82
622.41	44329.75
622.56	44306.34
622.71	44257.19
622.86	44673.81
623.01	44196.34
623.16	44189.31
623.32	44718.28
623.47	44481.88
623.62	44350.81
623.77	44271.23
623.92	44414.01
624.07	44217.40
624.23	44486.56
624.38	44142.50
624.53	44463.16
624.68	43922.49
624.83	43742.27
624.98	44472.52
625.13	43466.09
625.29	44257.19
625.44	44020.80
625.59	44130.80
625.74	43945.90
625.89	43786.74
626.04	43915.47
626.19	44034.84
626.34	43695.46
626.49	43805.47
626.65	43906.11
626.80	43831.21
626.95	43770.36
627.10	43093.94
627.25	43842.92
627.40	43761.00
627.55	44065.27
627.70	43297.57
627.85	43650.99
628.00	43950.58
628.15	43803.13
628.30	43735.25
628.45	43278.85
628.60	43180.54
628.76	43339.70
628.91	43615.88
629.06	43063.52
629.21	42770.95
629.36	43217.99
629.51	42925.42
629.66	43515.24
629.81	43395.87
629.96	43782.06
630.11	43636.95
630.26	43175.86
630.41	43093.94
630.56	42866.91
630.71	43166.50
630.86	43023.73
631.01	43192.25
631.16	43044.79
631.31	42995.64
631.46	43295.23
631.61	43250.76
631.76	43339.70
631.91	43283.53
632.06	43356.08
632.21	43145.44
632.36	43442.68
632.51	42852.87
632.66	43007.34
632.81	43023.73
632.96	43545.67
633.10	42703.07
633.25	42637.54
633.40	42763.93
633.55	42813.08
633.70	42373.06
633.85	42852.87
634.00	42756.91
634.15	42274.76
634.30	42754.57
634.45	43047.13
634.60	42586.05
634.75	42328.59
634.90	42506.47
635.05	42520.51
635.19	42534.56
635.34	42920.74
635.49	42227.95
635.64	42487.74
635.79	42637.54
635.94	42595.41
636.09	42494.77
636.24	42480.72
636.39	42562.64
636.53	42803.72
636.68	42101.56
636.83	42356.67
636.98	41853.46
637.13	41736.43
637.28	41528.13
637.43	42263.05
637.57	42131.98
637.72	41851.12
637.87	41628.77
638.02	42237.31
638.17	41926.02
638.32	42351.99
638.46	41923.68
638.61	41780.90
638.76	41532.81
638.91	42064.11
639.06	41830.05
639.20	41525.78
639.35	41698.98
639.50	41336.20
639.65	41897.93
639.80	41647.49
639.94	41591.32
640.09	41516.42
640.24	41675.58
640.39	41647.49
640.54	41301.09
640.68	41734.09
640.83	41600.68
640.98	41354.93
641.13	41516.42
641.27	41844.10
641.42	41429.82
641.57	41778.56
641.72	41680.26
641.86	41331.52
642.01	41146.62
642.16	41041.29
642.31	40957.03
642.45	41738.77
642.60	40844.69
642.75	41523.44
642.90	41413.44
643.04	41308.11
643.19	41207.47
643.34	41146.62
643.48	40989.80
643.63	40657.45
643.78	41401.74
643.93	41598.34
644.07	41097.47
644.22	41193.43
644.37	40863.41
644.51	41057.68
644.66	41041.29
644.81	40751.07
644.95	40891.50
645.10	40638.72
645.25	40502.97
645.39	40751.07
645.54	40730.00
645.69	40470.20
645.83	40484.25
645.98	40254.87
646.13	40624.68
646.27	40648.08
646.42	40610.64
646.57	40643.40
646.71	40734.68
646.86	40659.79
647.00	40753.41
647.15	40444.46
647.30	40776.81
647.44	40577.87
647.59	40559.14
647.74	39990.39
647.88	40636.38
648.03	41062.36
648.17	40856.39
648.32	40570.85
648.47	40451.48
648.61	40081.67
648.76	39908.47
648.90	40250.19
649.05	40484.25
649.20	40350.84
649.34	40533.40
649.49	40201.04
649.63	40687.87
649.78	40196.36
649.92	40046.57
650.07	40762.77
650.21	40201.04
650.36	40624.68
650.51	39873.37
650.65	40425.73
650.80	40470.20
650.94	40353.18
651.09	40411.69
651.23	40100.40
651.38	39655.70
651.52	39548.03
651.67	39730.59
651.81	40130.83
651.96	39562.08
652.10	39704.85
652.25	39636.97
652.39	39651.02
652.54	39503.56
652.68	39431.01
652.83	39679.10
652.97	39154.82
653.12	39597.18
653.26	39529.31
653.41	39562.08
653.55	39222.70
653.70	39395.90
653.84	39892.09
653.99	39817.19
654.13	39428.66
654.27	39416.96
654.42	39725.91
654.56	39086.95
654.71	39690.80
654.85	39257.81
655.00	39309.30
655.14	39758.68
655.29	39594.84
655.43	39487.18
655.57	39189.93
655.72	38939.49
655.86	39199.29
656.01	38859.91
656.15	39161.84
656.30	38810.76
656.44	38902.04
656.58	39138.44
656.73	39236.74
656.87	38665.65
657.01	38572.03
657.16	38721.82
657.30	38986.30
657.45	38663.31
657.59	38719.48
657.73	38490.11
657.88	38663.31
658.02	38749.91
658.16	39140.78
658.31	38710.12
658.45	38808.42
658.60	38288.82
658.74	38700.76
658.88	38862.26
659.03	38721.82
659.17	38485.43
659.31	38204.56
659.46	38300.53
659.60	38707.78
659.74	38281.80
659.89	38078.18
660.03	37954.13
660.17	38218.61
660.32	38150.73
660.46	37947.11
660.60	37916.68
660.74	37834.76
660.89	37757.52
661.03	37745.82
661.17	37364.31
661.32	37638.15
661.46	37865.19
661.60	37380.70
661.74	37752.84
661.89	37399.42
662.03	37741.14
662.17	37799.65
662.31	37127.92
662.46	37251.97
662.60	36933.65
662.74	36851.73
662.88	36926.63
663.03	36692.58
663.17	36954.72
663.31	36968.76
663.45	37165.37
663.60	37535.17
663.74	37282.39
663.88	37310.48
664.02	36652.79
664.17	37525.81
664.31	36460.87
664.45	36645.77
664.59	36634.06
664.73	36416.40
664.88	36685.56
665.02	35948.29
665.16	36795.56
665.30	36332.14
665.44	36395.33
665.59	36194.04
665.73	36032.55
665.87	35564.44
666.01	36130.85
666.15	36091.06
666.29	35805.52
666.44	36030.21
666.58	35920.20
666.72	35800.83
666.86	35651.04
667.00	35400.60
667.14	35702.53
667.28	35695.51
667.43	35297.62
667.57	35672.10
667.71	35426.35
667.85	35840.62
667.99	35564.44
668.13	35234.42
668.27	35215.70
668.41	35388.90
668.56	35054.20
668.70	34562.69
668.84	34951.22
668.98	34600.14
669.12	35051.86
669.26	34796.74
669.40	35016.75
669.54	35304.64
669.68	34855.26
669.82	34560.35
669.96	34265.44
670.10	33897.98
670.25	34342.68
670.39	34267.78
670.53	34242.04
670.67	34096.92
670.81	34485.45
670.95	34506.52
671.09	34263.10
671.23	33745.84
671.37	34064.16
671.51	33242.63
671.65	33743.50
671.79	33635.84
671.93	33989.26
672.07	33958.83
672.21	33619.46
672.35	33450.94
672.49	33233.27
672.63	33483.70
672.77	33521.15
672.91	33434.55
673.05	33123.26
673.19	32964.10
673.33	32978.15
673.47	32996.87
673.61	32465.57
673.75	32694.94
673.89	32311.10
674.03	33060.07
674.17	32027.89
674.31	32432.80
674.45	32371.95
674.59	32226.84
674.73	32247.90
674.87	31943.63
675.01	31756.39
675.15	31859.37
675.29	31622.98
675.43	31840.65
675.56	31775.11
675.70	31871.07
675.84	31505.95
675.98	30408.24
676.12	31466.16
676.26	31449.78
676.40	31021.46
676.54	31105.72
676.68	31166.57
676.82	30539.31
676.96	31044.87
677.10	30670.38
677.23	30639.95
677.37	31002.74
677.51	30787.41
677.65	30213.98
677.79	30242.06
677.93	30391.86
678.07	30490.16
678.21	30359.09
678.34	30162.48
678.48	29586.71
678.62	29792.68
678.76	29834.81
678.90	29593.73
679.04	29472.03
679.18	29392.45
679.31	29303.51
679.45	29249.67
679.59	28985.19
679.73	29352.66
679.87	29149.03
680.00	28914.98
680.14	29153.71
680.28	28903.28
680.42	28699.65
680.56	28517.09
680.70	28411.76
680.83	28231.54
680.97	28343.89
681.11	28360.27
681.25	27700.24
681.39	28135.58
681.52	27931.95
681.66	27295.33
681.80	27491.93
681.94	27185.32
682.07	27131.49
682.21	27110.43
682.35	26958.29
682.49	26829.56
682.62	27278.94
682.76	27147.87
682.90	27082.34
683.04	26871.69
683.17	26902.12
683.31	26764.03
683.45	26143.78
683.59	26326.35
683.72	26085.27
683.86	26160.17
684.00	26183.57
684.13	26403.58
684.27	25654.61
684.41	26010.37
684.55	25914.41
684.68	25813.77
684.82	25696.74
684.96	25167.78
685.09	25516.52
685.23	25418.22
685.37	25951.86
685.50	25490.77
685.64	25420.56
685.78	25371.41
685.91	25099.90
686.05	24713.72
686.19	24601.37
686.32	24430.51
686.46	24187.10
686.60	24313.48
686.73	24432.85
686.87	23917.93
687.01	24297.10
687.14	24130.92
687.28	24159.01
687.42	23908.57
687.55	23843.04
687.69	23906.23
687.82	23658.14
687.96	23578.56
688.10	23515.36
688.23	23152.58
688.37	23625.37
688.50	23520.04
688.64	23407.70
688.78	23321.10
688.91	22855.33
689.05	23000.44
689.18	22628.30
689.32	22424.67
689.46	22368.50
689.59	22263.18
689.73	22590.85
689.86	22824.90
690.00	22258.49
690.13	22497.23
690.27	22242.11
690.41	22258.49
690.54	21745.92
690.68	21736.56
690.81	21631.23
690.95	21469.73
691.08	21399.52
691.22	21532.93
691.35	21422.92
691.49	21514.20
691.62	21333.98
691.76	20830.77
691.89	20905.66
692.03	20730.12
692.16	20620.12
692.30	20570.97
692.43	20627.14
692.57	20500.75
692.70	20400.11
692.84	20402.45
692.97	20283.08
693.11	20166.06
693.24	19772.85
693.38	19922.64
693.51	19861.79
693.65	19618.37
693.78	19609.01
693.92	19789.23
694.05	19468.58
694.19	19690.93
694.32	19124.52
694.45	19845.40
694.59	19770.51
694.72	19578.58
694.86	19288.35
694.99	19173.67
695.13	18764.07
695.26	18541.72
695.39	18277.24
695.53	18733.65
695.66	18787.48
695.80	18209.37
695.93	18508.96
696.07	18420.02
696.20	18277.24
696.33	18047.87
696.47	17965.95
696.60	18113.41
696.73	18036.17
696.87	18061.91
697.00	17813.82
697.14	17788.07
697.27	17511.89
697.40	17722.54
697.54	17432.31
697.67	17188.89
697.80	17369.12
697.94	17373.80
698.07	17413.59
698.21	17137.40
698.34	17074.21
698.47	17015.69
698.61	16318.22
698.74	16819.09
698.87	16678.66
699.01	16517.16
699.14	16215.23
699.27	16624.83
699.40	16159.06
699.54	16196.51
699.67	16147.36
699.80	16159.06
699.94	16173.10
700.07	16046.71
700.20	15934.37
700.34	15969.48
700.47	15939.05
700.60	15763.51
700.73	15847.77
700.87	15700.31
701.00	15367.96
701.13	15246.25
701.26	15297.74
701.40	15059.01
701.53	15281.36
701.66	15051.99
701.79	15103.48
701.93	14986.45
702.06	14794.53
702.19	14848.36
702.32	14857.72
702.46	14621.33
702.59	14670.48
702.72	15087.09
702.85	14815.59
702.99	14504.30
703.12	14434.08
703.25	14429.40
703.38	14291.31
703.51	14050.24
703.65	13942.57
703.78	13909.80
703.91	13755.33
704.04	13870.01
704.17	13635.96
704.31	13547.02
704.44	13666.39
704.57	13696.82
704.70	13373.82
704.83	13312.97
704.96	13149.13
705.10	13303.60
705.23	13287.22
>>>>>End Processed Spectral Data<<<<<
