SpectraSuite Data File
++++++++++++++++++++++++++++++++++++
Date: Fri Oct 25 11:33:18 EDT 2013
User: price-jones
Dark Spectrum Present: No
Reference Spectrum Present: No
Number of Sampled Component Spectra: 1
Spectrometers: USB2+H05261
Integration Time (usec): 100000 (USB2+H05261)
Spectra Averaged: 1 (USB2+H05261)
Boxcar Smoothing: 0 (USB2+H05261)
Correct for Electrical Dark: No (USB2+H05261)
Strobe/Lamp Enabled: No (USB2+H05261)
Correct for Detector Non-linearity: No (USB2+H05261)
Correct for Stray Light: No (USB2+H05261)
Number of Pixels in Processed Spectrum: 2048
>>>>>Begin Processed Spectral Data<<<<<
365.73	262.14
365.92	262.14
366.12	262.14
366.32	173.20
366.52	238.73
366.72	187.24
366.91	196.60
367.11	166.18
367.31	156.82
367.51	220.01
367.70	117.03
367.90	273.84
368.10	173.20
368.30	189.58
368.49	142.77
368.69	177.88
368.89	196.60
369.09	184.90
369.28	208.31
369.48	168.52
369.68	215.33
369.87	262.14
370.07	217.67
370.27	269.16
370.47	304.27
370.66	404.91
370.86	550.03
371.06	643.65
371.25	585.13
371.45	545.34
371.65	580.45
371.84	538.32
372.04	535.98
372.24	624.92
372.44	608.54
372.63	599.18
372.83	601.52
373.03	599.18
373.22	575.77
373.42	545.34
373.62	622.58
373.81	645.99
374.01	547.69
374.21	636.63
374.40	671.73
374.60	690.46
374.79	667.05
374.99	643.65
375.19	650.67
375.38	634.29
375.58	669.39
375.78	727.91
375.97	699.82
376.17	697.48
376.37	641.31
376.56	545.34
376.76	741.95
376.95	610.88
377.15	638.97
377.35	662.37
377.54	692.80
377.74	641.31
377.93	739.61
378.13	758.33
378.33	699.82
378.52	716.20
378.72	758.33
378.91	751.31
379.11	786.42
379.31	755.99
379.50	690.46
379.70	711.52
379.89	800.46
380.09	711.52
380.28	732.59
380.48	709.18
380.68	748.97
380.87	844.93
381.07	709.18
381.26	807.48
381.46	835.57
381.65	835.57
381.85	739.61
382.04	784.08
382.24	809.83
382.43	875.36
382.63	702.16
382.83	793.44
383.02	809.83
383.22	858.98
383.41	770.04
383.61	795.78
383.80	823.87
384.00	903.45
384.19	821.53
384.39	784.08
384.58	788.76
384.78	826.21
384.97	805.14
385.17	786.42
385.36	896.43
385.56	800.46
385.75	833.23
385.95	847.27
386.14	835.57
386.34	884.72
386.53	816.85
386.72	887.06
386.92	795.78
387.11	821.53
387.31	823.87
387.50	863.66
387.70	891.74
387.89	873.02
388.09	880.04
388.28	912.81
388.48	901.11
388.67	912.81
388.86	966.64
389.06	990.05
389.25	987.71
389.45	938.55
389.64	933.87
389.84	1022.81
390.03	1008.77
390.22	985.37
390.42	1029.84
390.61	947.92
390.81	964.30
391.00	1001.75
391.19	1053.24
391.39	1062.60
391.58	983.02
391.78	997.07
391.97	983.02
392.16	954.94
392.36	1062.60
392.55	994.73
392.75	1067.28
392.94	1090.69
393.13	1057.92
393.33	1111.75
393.52	1020.47
393.71	1116.44
393.91	1069.62
394.10	1069.62
394.29	1142.18
394.49	1121.12
394.68	1174.95
394.88	1114.10
395.07	1210.06
395.26	1247.51
395.46	1149.20
395.65	1221.76
395.84	1210.06
396.04	1249.85
396.23	1277.93
396.42	1266.23
396.62	1217.08
396.81	1212.40
397.00	1228.78
397.19	1226.44
397.39	1301.34
397.58	1252.19
397.77	1263.89
397.97	1275.59
398.16	1303.68
398.35	1296.66
398.55	1219.42
398.74	1355.17
398.93	1336.45
399.12	1306.02
399.32	1317.72
399.51	1212.40
399.70	1343.47
399.90	1317.72
400.09	1345.81
400.28	1315.38
400.47	1362.19
400.67	1296.66
400.86	1369.21
401.05	1380.92
401.24	1385.60
401.44	1406.66
401.63	1455.81
401.82	1465.18
402.01	1418.36
402.21	1441.77
402.40	1511.99
402.59	1514.33
402.78	1523.69
402.97	1504.96
403.17	1619.65
403.36	1561.14
403.55	1488.58
403.74	1631.35
403.93	1593.90
404.13	1572.84
404.32	1659.44
404.51	1631.35
404.70	1598.59
404.89	1589.22
405.09	1678.16
405.28	1678.16
405.47	1593.90
405.66	1739.02
405.85	1687.53
406.05	1767.10
406.24	1713.27
406.43	1760.08
406.62	1811.57
406.81	1811.57
407.00	1811.57
407.20	1778.81
407.39	1734.34
407.58	1797.53
407.77	1872.43
407.96	1884.13
408.15	1928.60
408.34	1902.86
408.54	1942.64
408.73	1912.22
408.92	1923.92
409.11	1982.43
409.30	2080.74
409.49	2003.50
409.68	2069.03
409.87	2015.20
410.07	2047.97
410.26	2029.24
410.45	2064.35
410.64	1987.11
410.83	2078.40
411.02	2223.51
411.21	2141.59
411.40	2193.08
411.59	2183.72
411.78	2289.04
411.98	2244.57
412.17	2260.96
412.36	2160.31
412.55	2310.11
412.74	2415.43
412.93	2394.37
413.12	2204.78
413.31	2415.43
413.50	2413.09
413.69	2457.56
413.88	2590.97
414.07	2450.54
414.26	2523.10
414.45	2609.70
414.64	2553.52
414.83	2586.29
415.02	2623.74
415.22	2710.34
415.41	2651.83
415.60	2682.25
415.79	2614.38
415.98	2661.19
416.17	2848.43
416.36	2757.15
416.55	2747.79
416.74	2834.39
416.93	2752.47
417.12	2825.03
417.31	2799.28
417.50	2857.79
417.69	2977.16
417.88	2965.46
418.07	2988.86
418.26	3087.17
418.45	2925.67
418.64	3155.04
418.83	3138.66
419.02	3021.63
419.21	3028.65
419.39	3054.40
419.58	3105.89
419.77	3143.34
419.96	3246.32
420.15	3126.96
420.34	3253.34
420.53	3274.41
420.72	3096.53
420.91	3145.68
421.10	3258.03
421.29	3431.23
421.48	3218.24
421.67	3372.71
421.86	3445.27
422.05	3363.35
422.24	3384.41
422.43	3361.01
422.61	3267.39
422.80	3480.38
422.99	3492.08
423.18	3496.76
423.37	3447.61
423.56	3316.54
423.75	3473.36
423.94	3389.10
424.13	3141.00
424.32	3391.44
424.50	3445.27
424.69	3328.24
424.88	3543.57
425.07	3325.90
425.26	3391.44
425.45	3456.97
425.64	3421.86
425.83	3447.61
426.01	3478.04
426.20	3330.58
426.39	3386.76
426.58	3435.91
426.77	3585.70
426.96	3541.23
427.15	3651.24
427.33	3674.64
427.52	3590.38
427.71	3805.71
427.90	3702.73
428.09	3595.06
428.28	3651.24
428.46	3712.09
428.65	3599.74
428.84	3702.73
429.03	3716.77
429.22	3756.56
429.40	3810.39
429.59	3765.92
429.78	3784.65
429.97	3641.87
430.16	3784.65
430.34	3770.60
430.53	4058.49
430.72	4084.23
430.91	3826.78
431.10	3880.61
431.28	3838.48
431.47	4004.66
431.66	4016.36
431.85	4152.11
432.03	4086.58
432.22	4201.26
432.41	4049.13
432.60	4065.51
432.79	4081.89
432.97	4074.87
433.16	3990.61
433.35	4196.58
433.54	4147.43
433.72	4215.30
433.91	4184.88
434.10	4194.24
434.28	4187.22
434.47	4215.30
434.66	4259.78
434.85	4496.17
435.03	4498.51
435.22	4266.80
435.41	4575.75
435.59	4325.31
435.78	4535.96
435.97	4461.06
436.16	4411.91
436.34	4381.48
436.53	4402.55
436.72	4475.10
436.90	4327.65
437.09	4578.09
437.28	4582.77
437.46	4559.36
437.65	4510.21
437.84	4692.77
438.02	4685.75
438.21	4592.13
438.40	4674.05
438.58	4737.24
438.77	4943.21
438.96	4751.29
439.14	4889.38
439.33	4819.16
439.52	4983.00
439.70	4905.76
439.89	4964.28
440.08	4945.55
440.26	5069.60
440.45	4957.25
440.63	5090.67
440.82	5252.16
441.01	5160.88
441.19	5235.78
441.38	5327.06
441.57	5308.34
441.75	5427.70
441.94	5413.66
442.12	5425.36
442.31	5561.11
442.50	5481.53
442.68	5479.19
442.87	5399.62
443.05	5434.72
443.24	5596.22
443.43	5593.88
443.61	5657.07
443.80	5736.65
443.98	5448.77
444.17	5315.36
444.35	5476.85
444.54	5593.88
444.73	5668.78
444.91	5549.41
445.10	5640.69
445.28	5647.71
445.47	5673.46
445.65	5774.10
445.84	5746.02
446.02	5675.80
446.21	5750.70
446.39	5764.74
446.58	5825.59
446.77	5874.74
446.95	5699.20
447.14	5717.93
447.32	5963.68
447.51	5727.29
447.69	5856.02
447.88	5813.89
448.06	5830.27
448.25	5799.85
448.43	5837.30
448.62	5640.69
448.80	5818.57
448.99	5905.17
449.17	5937.94
449.36	5982.41
449.54	5975.39
449.73	6019.86
449.91	6244.55
450.10	6073.69
450.28	6064.33
450.46	6113.48
450.65	6118.16
450.83	6148.59
451.02	6225.82
451.20	6286.68
451.39	6183.70
451.57	6127.52
451.76	6244.55
451.94	6209.44
452.13	6246.89
452.31	6319.45
452.49	6179.01
452.68	6317.11
452.86	6209.44
453.05	6328.81
453.23	6420.09
453.42	6473.92
453.60	6347.53
453.78	6490.31
453.97	6258.59
454.15	6363.92
454.34	6438.81
454.52	6553.50
454.70	6684.57
454.89	6574.56
455.07	6703.29
455.26	6773.51
455.44	6853.09
455.62	6548.82
455.81	6906.92
455.99	6766.49
456.17	6925.65
456.36	6869.47
456.54	6988.84
456.73	6862.45
456.91	7143.32
457.09	7014.59
457.28	7077.78
457.46	7059.06
457.64	7066.08
457.83	7126.93
458.01	7054.37
458.19	7239.28
458.38	7185.44
458.56	7363.33
458.74	7232.26
458.93	7080.12
459.11	7332.90
459.29	7456.95
459.48	7426.52
459.66	7211.19
459.84	7358.64
460.03	7609.08
460.21	7382.05
460.39	7426.52
460.57	7424.18
460.76	7695.68
460.94	7559.93
461.12	7691.00
461.31	7559.93
461.49	7573.97
461.67	7424.18
461.85	7744.83
462.04	7581.00
462.22	8210.60
462.40	7772.92
462.59	7721.43
462.77	7590.36
462.95	7915.69
463.13	7981.23
463.32	7737.81
463.50	8049.10
463.68	7974.21
463.86	8046.76
464.05	7843.14
464.23	7887.61
464.41	8107.62
464.59	7864.20
464.78	8159.11
464.96	8166.13
465.14	8116.98
465.32	8028.04
465.50	8278.47
465.69	8184.85
465.87	8161.45
466.05	8107.62
466.23	8107.62
466.41	8278.47
466.60	8498.49
466.78	8201.24
466.96	8152.09
467.14	8472.74
467.32	8311.24
467.51	8423.59
467.69	8243.37
467.87	8381.46
468.05	8372.10
468.23	8386.14
468.41	8313.58
468.60	8454.02
468.78	8592.11
468.96	8449.33
469.14	8699.77
469.32	8620.19
469.50	8526.57
469.69	8746.58
469.87	8861.27
470.05	8870.63
470.23	8879.99
470.41	8926.80
470.59	8999.36
470.77	8706.79
470.95	8905.74
471.14	9006.38
471.32	8816.80
471.50	9064.89
471.68	8926.80
471.86	9170.22
472.04	9006.38
472.22	9394.91
472.40	9123.41
472.58	9507.26
472.77	9366.82
472.95	9341.08
473.13	9699.18
473.31	9439.38
473.49	9495.55
473.67	9535.34
473.85	9626.62
474.03	9830.25
474.21	9774.08
474.39	9935.57
474.57	9886.42
474.75	10008.13
474.93	9984.73
475.12	10071.33
475.30	10087.71
475.48	10235.16
475.66	10167.29
475.84	10148.56
476.02	10303.04
476.20	10368.57
476.38	10408.36
476.56	10747.74
476.74	10490.28
476.92	10504.32
477.10	10494.96
477.28	10654.12
477.46	10771.15
477.64	10714.97
477.82	11194.78
478.00	11286.06
478.18	11166.70
478.36	11115.20
478.54	11276.70
478.72	11328.19
478.90	11477.99
479.08	11838.43
479.26	11805.66
479.44	11784.60
479.62	11833.75
479.80	11754.17
479.98	12287.81
480.16	12304.20
480.34	12100.57
480.52	12348.67
480.70	12327.60
480.88	12212.92
481.06	12493.78
481.24	12664.64
481.41	12826.14
481.59	12816.77
481.77	12823.80
481.95	12950.18
482.13	13034.44
482.31	13109.34
482.49	13469.78
482.67	13399.57
482.85	13537.66
483.03	13839.59
483.21	13799.80
483.39	13788.10
483.57	13893.42
483.74	14052.58
483.92	14113.43
484.10	13980.02
484.28	14539.41
484.46	14600.26
484.64	14675.16
484.82	14672.82
485.00	14850.70
485.18	15070.71
485.35	15241.57
485.53	15204.12
485.71	15325.83
485.89	15564.56
486.07	15365.62
486.25	15545.84
486.43	15639.46
486.61	15630.10
486.78	16102.89
486.96	15866.49
487.14	16205.87
487.32	16205.87
487.50	16292.47
487.68	16615.46
487.85	16769.94
488.03	16877.60
488.21	16971.22
488.39	17261.45
488.57	17240.39
488.75	17467.42
488.92	17521.25
489.10	17708.49
489.28	17603.17
489.46	17745.94
489.64	17902.76
489.81	18260.86
489.99	18363.84
490.17	18059.57
490.35	18597.90
490.53	18593.22
490.70	19007.49
490.88	18693.86
491.06	18927.91
491.24	19283.67
491.41	19290.70
491.59	19463.90
491.77	19477.94
491.95	19726.04
492.13	19716.67
492.30	19817.32
492.48	19892.21
492.66	20009.24
492.84	20016.26
493.01	20297.13
493.19	20444.58
493.37	20353.30
493.54	20570.97
493.72	20861.19
493.90	20737.15
494.08	21071.84
494.25	21109.29
494.43	21135.04
494.61	21111.63
494.79	21570.38
494.96	21610.17
495.14	21656.98
495.32	21942.52
495.49	21884.01
495.67	21867.63
495.85	22214.02
496.02	22347.44
496.20	22455.10
496.38	22478.50
496.55	22745.33
496.73	23084.70
496.91	22707.88
497.09	22981.72
497.26	23168.96
497.44	22892.78
497.62	23293.01
497.79	23573.88
497.97	23283.65
498.14	23559.83
498.32	23524.72
498.50	23894.53
498.67	24156.67
498.85	24095.82
499.03	23896.87
499.20	24154.33
499.38	24556.90
499.56	24240.93
499.73	24292.42
499.91	24746.48
500.08	24812.02
500.26	24671.59
500.44	24957.13
500.61	25078.84
500.79	24898.62
500.97	25420.56
501.14	25708.44
501.32	25600.78
501.49	25219.27
501.67	25305.87
501.84	26010.37
502.02	25600.78
502.20	25830.15
502.37	25860.58
502.55	25654.61
502.72	26333.37
502.90	26146.12
503.07	26256.13
503.25	26178.89
503.43	26169.53
503.60	26485.50
503.78	26485.50
503.95	26560.40
504.13	26520.61
504.30	26806.16
504.48	26883.39
504.65	27381.93
504.83	27365.54
505.01	27566.83
505.18	27372.57
505.36	27749.39
505.53	27463.85
505.71	27791.52
505.88	27796.20
506.06	27417.04
506.23	27728.33
506.41	27613.64
506.58	28222.18
506.76	27903.87
506.93	28409.42
507.11	28133.24
507.28	28343.89
507.46	28559.22
507.63	28252.61
507.81	28460.91
507.98	28533.47
508.16	28980.51
508.33	28828.38
508.50	28957.11
508.68	29240.31
508.85	29081.16
509.03	29221.59
509.20	29261.38
509.38	29406.49
509.55	29717.78
509.73	29731.83
509.90	29722.46
510.08	29832.47
510.25	29764.59
510.42	29926.09
510.60	29975.24
510.77	29963.54
510.95	30525.27
511.12	30221.00
511.30	30190.57
511.47	30513.56
511.64	30197.59
511.82	30635.27
511.99	30232.70
512.17	30773.36
512.34	30958.27
512.51	30679.74
512.69	31393.61
512.86	30934.86
513.04	31321.05
513.21	31173.60
513.38	31566.81
513.56	31211.04
513.73	31466.16
513.90	31585.53
514.08	31515.31
514.25	32250.24
514.43	32198.75
514.60	31988.10
514.77	31620.64
514.95	32229.18
515.12	31463.82
515.29	32203.43
515.47	32266.63
515.64	32348.54
515.81	32149.60
515.99	32608.34
516.16	32870.48
516.33	32437.48
516.51	32596.64
516.68	33043.68
516.85	33034.32
517.03	32826.01
517.20	33134.96
517.37	32774.52
517.54	33132.62
517.72	32886.87
517.89	33081.13
518.06	33317.53
518.24	33717.76
518.41	32889.21
518.58	33223.90
518.75	33469.66
518.93	33450.94
519.10	33460.30
519.27	33741.16
519.45	33895.64
519.62	33921.38
519.79	33998.62
519.96	34132.03
520.14	34153.10
520.31	33701.37
520.48	34146.08
520.65	34342.68
520.83	34881.00
521.00	34670.36
521.17	34714.83
521.34	35096.33
521.52	34951.22
521.69	34684.40
521.86	34918.45
522.03	34873.98
522.20	35391.24
522.38	35634.66
522.55	35220.38
522.72	35269.53
522.89	35236.77
523.07	35784.45
523.24	35910.84
523.41	36006.80
523.58	35529.33
523.75	36226.81
523.92	35805.52
524.10	35810.20
524.27	36091.06
524.44	36027.87
524.61	35974.03
524.78	36194.04
524.96	36233.83
525.13	36404.69
525.30	36797.90
525.47	36449.16
525.64	36421.08
525.81	36430.44
525.98	36793.22
526.16	36629.38
526.33	36423.42
526.50	36825.99
526.67	36341.50
526.84	36573.21
527.01	36514.70
527.18	37408.78
527.36	37296.44
527.53	37160.69
527.70	37720.07
527.87	37778.59
528.04	37083.45
528.21	37376.01
528.38	37446.23
528.55	37897.95
528.72	37413.46
528.89	37677.94
529.07	37448.57
529.24	37464.96
529.41	37532.83
529.58	37684.97
529.75	37792.63
529.92	38099.24
530.09	37893.27
530.26	38302.87
530.43	38251.38
530.60	37731.78
530.77	37785.61
530.94	38766.29
531.11	37860.51
531.28	37991.58
531.46	38504.15
531.63	38588.41
531.80	38415.21
531.97	38749.91
532.14	38941.83
532.31	38487.77
532.48	38948.85
532.65	38843.53
532.82	38391.81
532.99	39129.08
533.16	38895.02
533.33	39459.09
533.50	38726.50
533.67	39126.74
533.84	38941.83
534.01	39379.51
534.18	39007.37
534.35	39524.63
534.52	39639.31
534.69	39819.53
534.86	39522.29
535.03	39700.17
535.20	39878.05
535.37	39775.06
535.54	39564.42
535.71	40011.46
535.88	39777.40
536.05	39679.10
536.22	39676.76
536.38	40055.93
536.55	40346.15
536.72	40264.24
536.89	39997.41
537.06	39990.39
537.23	40495.95
537.40	40720.64
537.57	40205.72
537.74	40343.81
537.91	40524.04
538.08	40617.66
538.25	40006.78
538.42	40568.51
538.59	40926.61
538.75	40627.02
538.92	40657.45
539.09	40865.75
539.26	41123.21
539.43	40767.45
539.60	40715.96
539.77	41020.23
539.94	40872.78
540.11	41268.33
540.28	40980.44
540.44	41296.41
540.61	41195.77
540.78	40788.52
540.95	41111.51
541.12	41118.53
541.29	40989.80
541.46	41656.85
541.62	41827.71
541.79	41694.30
541.96	41160.66
542.13	41291.73
542.30	41874.52
542.47	41106.83
542.63	41528.13
542.80	42061.77
542.97	42155.39
543.14	42124.96
543.31	42478.38
543.48	42085.17
543.64	42857.55
543.81	42754.57
543.98	42183.48
544.15	42279.44
544.32	42366.04
544.48	42761.59
544.65	42611.79
544.82	42784.99
544.99	42405.83
545.16	42567.32
545.32	42717.12
545.49	42792.01
545.66	43337.36
545.83	42766.27
546.00	42768.61
546.16	42955.85
546.33	42780.31
546.50	42600.09
546.67	42876.27
546.83	42632.86
547.00	42967.55
547.17	42946.49
547.34	42836.48
547.50	43370.13
547.67	43988.03
547.84	43503.54
548.00	43217.99
548.17	43480.13
548.34	43693.12
548.51	43543.33
548.67	43653.33
548.84	43742.27
549.01	43763.34
549.18	43456.73
549.34	43384.17
549.51	43856.96
549.68	44151.87
549.84	43622.90
550.01	44238.47
550.18	43573.75
550.34	43590.14
550.51	43765.68
550.68	44128.46
550.84	43732.91
551.01	43981.01
551.18	44151.87
551.34	44133.14
551.51	44264.21
551.68	44170.59
551.84	44224.42
552.01	44172.93
552.18	44505.29
552.34	44474.86
552.51	44364.85
552.68	44432.73
552.84	44631.68
553.01	44612.95
553.18	44105.06
553.34	45088.08
553.51	44580.18
553.67	44697.21
553.84	44547.42
554.01	44886.79
554.17	44772.11
554.34	44788.49
554.51	45008.50
554.67	45261.28
554.84	45085.74
555.00	44928.92
555.17	44896.16
555.33	45134.89
555.50	45174.68
555.67	45235.53
555.83	45460.23
556.00	44854.03
556.16	45642.79
556.33	45223.83
556.50	45216.81
556.66	45085.74
556.83	45329.16
556.99	45471.93
557.16	45722.37
557.32	45668.53
557.49	45743.43
557.65	45450.86
557.82	45752.79
557.98	45427.46
558.15	45649.81
558.32	45682.58
558.48	45125.53
558.65	45336.18
558.81	45462.57
558.98	45490.65
559.14	45827.69
559.31	45425.12
559.47	45830.03
559.64	45745.77
559.80	45460.23
559.97	45787.90
560.13	45181.70
560.30	45804.28
560.46	46080.47
560.63	46113.23
560.79	46300.48
560.96	46171.75
561.12	46071.10
561.29	46085.15
561.45	46073.45
561.61	46153.02
561.78	45986.85
561.94	46197.49
562.11	45942.38
562.27	46036.00
562.44	45979.82
562.60	46295.80
562.77	45935.35
562.93	46101.53
563.10	46422.19
563.26	46122.60
563.42	46560.28
563.59	45979.82
563.75	46461.97
563.92	46461.97
564.08	46256.01
564.24	46564.96
564.41	46775.61
564.57	46232.60
564.74	46366.01
564.90	46426.87
565.07	46330.90
565.23	46356.65
565.39	46314.52
565.56	46497.08
565.72	46581.34
565.88	46492.40
566.05	46827.10
566.21	46464.32
566.38	46415.16
566.54	46600.07
566.70	46602.41
566.87	46548.57
567.03	45883.86
567.19	46705.39
567.36	46621.13
567.52	46295.80
567.68	46621.13
567.85	46660.92
568.01	46710.07
568.17	46934.76
568.34	47196.90
568.50	47051.79
568.66	46796.67
568.83	46796.67
568.99	46813.05
569.15	46445.59
569.32	47058.81
569.48	46911.36
569.64	47143.07
569.81	46836.46
569.97	46808.37
570.13	47433.30
570.30	46681.98
570.46	46738.16
570.62	46918.38
570.78	47016.68
570.95	47379.46
571.11	47199.24
571.27	47133.71
571.43	46527.51
571.60	47288.18
571.76	46806.03
571.92	47210.95
572.09	46937.10
572.25	47187.54
572.41	46962.85
572.57	46988.60
572.74	47526.92
572.90	47143.07
573.06	47370.10
573.22	47084.56
573.38	47847.57
573.55	47618.20
573.71	47555.00
573.87	47646.29
574.03	47196.90
574.20	47501.17
574.36	47194.56
574.52	47168.82
574.68	47189.88
574.84	47782.04
575.01	47620.54
575.17	47760.97
575.33	47171.16
575.49	47194.56
575.65	47491.81
575.82	47070.51
575.98	47320.95
576.14	47555.00
576.30	47679.05
576.46	47468.40
576.62	47206.26
576.79	47555.00
576.95	47124.35
577.11	47243.71
577.27	47545.64
577.43	47428.62
577.59	47559.69
577.75	47274.14
577.92	47047.11
578.08	47192.22
578.24	47267.12
578.40	47477.77
578.56	47395.85
578.72	47718.84
578.88	47241.37
579.04	47587.77
579.21	47370.10
579.37	47728.20
579.53	47697.78
579.69	47594.79
579.85	47608.84
580.01	47470.75
580.17	47540.96
580.33	47955.24
580.49	47501.17
580.65	47288.18
580.82	47515.22
580.98	47206.26
581.14	47505.85
581.30	47559.69
581.46	47751.61
581.62	47026.04
581.78	47456.70
581.94	47426.28
582.10	47325.63
582.26	47599.47
582.42	47543.30
582.58	47484.79
582.74	47587.77
582.90	47576.07
583.06	47662.67
583.22	47569.05
583.38	47704.80
583.54	47772.67
583.70	48058.22
583.86	47573.73
584.02	47700.12
584.18	47840.55
584.34	47973.96
584.50	47814.80
584.66	48144.82
584.82	48020.77
584.98	47945.87
585.14	47805.44
585.30	47760.97
585.46	47503.51
585.62	47302.23
585.78	47749.27
585.94	47435.64
586.10	47524.58
586.26	47449.68
586.42	47531.60
586.58	47711.82
586.74	47753.95
586.90	47620.54
587.06	47704.80
587.22	47990.34
587.38	47496.49
587.54	48002.05
587.70	48011.41
587.86	47875.66
588.02	47922.47
588.18	47650.97
588.34	47870.98
588.49	47615.86
588.65	47894.38
588.81	47533.94
588.97	47870.98
589.13	47779.70
589.29	47814.80
589.45	48177.59
589.61	47917.79
589.77	48282.91
589.93	48098.01
590.08	48128.44
590.24	48409.30
590.40	47866.30
590.56	48184.61
590.72	48364.83
590.88	47709.48
591.04	48058.22
591.20	48041.84
591.35	48280.57
591.51	48465.47
591.67	47992.68
591.83	48388.24
591.99	48208.01
592.15	47980.98
592.31	48023.11
592.46	48383.55
592.62	48004.39
592.78	48479.52
592.94	48423.34
593.10	48488.88
593.26	48388.24
593.41	48811.87
593.57	48151.84
593.73	48179.93
593.89	48690.16
594.05	48870.39
594.20	48523.99
594.36	48907.83
594.52	48514.62
594.68	48484.20
594.84	48303.98
594.99	48821.23
595.15	48165.88
595.31	48505.26
595.47	48568.46
595.62	48472.49
595.78	48657.40
595.94	48491.22
596.10	48381.21
596.25	48486.54
596.41	48561.44
596.57	48215.04
596.73	48446.75
596.88	48397.60
597.04	48697.19
597.20	48493.56
597.36	48493.56
597.51	48416.32
597.67	48051.20
597.83	48465.47
597.99	48615.27
598.14	48334.40
598.30	48779.10
598.46	48931.24
598.61	48769.74
598.77	48643.35
598.93	48582.50
599.09	48486.54
599.24	49036.56
599.40	48603.56
599.56	48245.46
599.71	48891.45
599.87	49277.64
600.03	48727.61
600.18	48917.20
600.34	48631.65
600.50	48685.48
600.65	48715.91
600.81	48858.68
600.97	48980.39
601.12	48783.79
601.28	48575.48
601.44	48800.17
601.59	48811.87
601.75	48523.99
601.91	48601.22
602.06	48495.90
602.22	48500.58
602.37	48802.51
602.53	48781.45
602.69	48697.19
602.84	48741.66
603.00	48320.36
603.16	48624.63
603.31	48966.35
603.47	48772.08
603.62	48788.47
603.78	48741.66
603.94	48751.02
604.09	48662.08
604.25	48865.70
604.40	48596.54
604.56	48928.90
604.71	48921.88
604.87	48371.85
605.03	48418.66
605.18	48428.02
605.34	48779.10
605.49	48254.82
605.65	48601.22
605.80	48458.45
605.96	48800.17
606.12	48552.07
606.27	48800.17
606.43	48605.91
606.58	48708.89
606.74	48294.61
606.89	48563.78
607.05	49050.61
607.20	48706.55
607.36	48376.53
607.51	48545.05
607.67	48500.58
607.82	48240.78
607.98	48224.40
608.13	48182.27
608.29	48521.65
608.44	48641.01
608.60	48383.55
608.75	48505.26
608.91	48224.40
609.06	48547.39
609.22	48346.11
609.37	48109.71
609.53	48641.01
609.68	48278.23
609.84	48406.96
609.99	48182.27
610.15	48458.45
610.30	48090.99
610.46	48306.32
610.61	48229.08
610.76	48329.72
610.92	47913.11
611.07	48119.07
611.23	48090.99
611.38	48135.46
611.54	48516.96
611.69	48704.21
611.84	47767.99
612.00	47922.47
612.15	47938.85
612.31	48090.99
612.46	47880.34
612.62	47899.06
612.77	48315.68
612.92	48294.61
613.08	48327.38
613.23	48332.06
613.39	47636.92
613.54	47873.32
613.69	48512.28
613.85	48112.05
614.00	48090.99
614.15	48105.03
614.31	47791.40
614.46	47948.21
614.62	47763.31
614.77	47847.57
614.92	47751.61
615.08	47482.45
615.23	48570.80
615.38	48095.67
615.54	47976.30
615.69	48069.92
615.84	47615.86
616.00	48149.50
616.15	47728.20
616.30	47906.08
616.46	47751.61
616.61	48105.03
616.76	48018.43
616.92	47917.79
617.07	47742.25
617.22	47440.32
617.37	47334.99
617.53	47810.12
617.68	47697.78
617.83	47377.12
617.99	47508.19
618.14	48308.66
618.29	47709.48
618.45	47323.29
618.60	47543.30
618.75	47248.39
618.90	47468.40
619.06	47421.59
619.21	47697.78
619.36	47569.05
619.51	47232.01
619.67	47356.06
619.82	47721.18
619.97	47634.58
620.12	47122.01
620.28	47302.23
620.43	47419.25
620.58	47356.06
620.73	47344.36
620.89	47398.19
621.04	47262.44
621.19	47297.55
621.34	47117.32
621.49	47519.90
621.65	47065.83
621.80	47849.91
621.95	47241.37
622.10	47700.12
622.25	46930.08
622.41	47199.24
622.56	47224.99
622.71	47222.65
622.86	46913.70
623.01	47107.96
623.16	46951.15
623.32	47072.85
623.47	47217.97
623.62	46995.62
623.77	46843.48
623.92	46986.25
624.07	47021.36
624.23	46955.83
624.38	46930.08
624.53	46815.40
624.68	46714.75
624.83	46696.03
624.98	46681.98
625.13	46232.60
625.29	46281.75
625.44	46887.95
625.59	46546.23
625.74	46557.94
625.89	46555.60
626.04	46859.87
626.19	46440.91
626.34	46244.30
626.49	46635.17
626.65	46085.15
626.80	47164.14
626.95	46398.78
627.10	46370.69
627.25	46447.93
627.40	46377.72
627.55	46148.34
627.70	46274.73
627.85	46342.61
628.00	46801.35
628.15	46387.08
628.30	46241.96
628.45	46251.33
628.60	45713.00
628.76	45998.55
628.91	46246.65
629.06	45783.22
629.21	45909.61
629.36	45933.01
629.51	46127.28
629.66	45996.21
629.81	46131.96
629.96	46005.57
630.11	45930.67
630.26	45724.71
630.41	45860.46
630.56	45984.51
630.71	45783.22
630.86	45673.21
631.01	45530.44
631.16	45549.17
631.31	45773.86
631.46	45560.87
631.61	45584.27
631.76	45883.86
631.91	45694.28
632.06	46099.19
632.21	45675.55
632.36	45792.58
632.51	45418.10
632.66	45862.80
632.81	45572.57
632.96	45495.33
633.10	45656.83
633.25	45394.69
633.40	45577.25
633.55	45605.34
633.70	45123.19
633.85	45289.37
634.00	45095.10
634.15	45038.93
634.30	44790.83
634.45	45067.02
634.60	45329.16
634.75	45350.22
634.90	45125.53
635.05	45272.98
635.19	44898.50
635.34	45275.32
635.49	45118.51
635.64	45167.66
635.79	45713.00
635.94	45020.20
636.09	44795.51
636.24	45003.82
636.39	44961.69
636.53	45092.76
636.68	44395.28
636.83	44481.88
636.98	44662.10
637.13	44573.16
637.28	44435.07
637.43	44847.00
637.57	44669.12
637.72	44095.69
637.87	44624.65
638.02	45076.38
638.17	44458.48
638.32	44465.50
638.46	44247.83
638.61	44414.01
638.76	44236.12
638.91	44388.26
639.06	44217.40
639.20	43868.66
639.35	44107.40
639.50	43604.18
639.65	44198.68
639.80	44423.37
639.94	44776.79
640.09	44790.83
640.24	44261.87
640.39	43866.32
640.54	43976.33
640.68	44231.44
640.83	44428.05
640.98	44137.82
641.13	43477.79
641.27	44556.78
641.42	43658.01
641.57	44245.49
641.72	44388.26
641.86	43618.22
642.01	43667.37
642.16	43634.61
642.31	43393.53
642.45	43878.02
642.60	43721.21
642.75	43447.36
642.90	43761.00
643.04	44016.11
643.19	43559.71
643.34	43824.19
643.48	43416.94
643.63	43447.36
643.78	43714.19
643.93	43510.56
644.07	43342.04
644.22	43152.46
644.37	43489.49
644.51	43491.83
644.66	42899.68
644.81	43187.56
644.95	43463.75
645.10	43203.95
645.25	43236.72
645.39	43005.00
645.54	43290.55
645.69	42784.99
645.83	42962.87
645.98	43049.47
646.13	42913.72
646.27	42904.36
646.42	42794.36
646.57	43454.39
646.71	43281.19
646.86	43519.92
647.00	43201.61
647.15	42864.57
647.30	42887.98
647.44	42796.70
647.59	43229.69
647.74	42965.21
647.88	43030.75
648.03	43236.72
648.17	43194.59
648.32	42962.87
648.47	43447.36
648.61	42742.86
648.76	42759.25
648.90	43061.18
649.05	43264.80
649.20	42754.57
649.34	42557.96
649.49	42848.19
649.63	43005.00
649.78	42775.63
649.92	42714.78
650.07	42920.74
650.21	42794.36
650.36	43047.13
650.51	43098.62
650.65	42909.04
650.80	42777.97
650.94	42232.63
651.09	42712.44
651.23	42305.18
651.38	42337.95
651.52	42122.62
651.67	42766.27
651.81	42663.28
651.96	41785.58
652.10	41727.07
652.25	42026.66
652.39	41839.42
652.54	42494.77
652.68	41750.48
652.83	42253.69
652.97	42581.37
653.12	42249.01
653.26	42057.09
653.41	42211.56
653.55	41579.62
653.70	42057.09
653.84	42337.95
653.99	42581.37
654.13	42281.78
654.27	42480.72
654.42	42113.26
654.56	41577.28
654.71	41958.78
654.85	41947.08
655.00	41855.80
655.14	41787.92
655.29	41951.76
655.43	42244.33
655.57	41897.93
655.72	41467.27
655.86	41663.88
656.01	41404.08
656.15	41460.25
656.30	41727.07
656.44	41935.38
656.58	41193.43
656.73	41291.73
656.87	41006.19
657.01	41191.09
657.16	41418.12
657.30	41928.36
657.45	41549.19
657.59	41113.85
657.73	41123.21
657.88	41811.33
658.02	41298.75
658.16	41352.58
658.31	41085.76
658.45	41181.73
658.60	40868.09
658.74	41464.93
658.88	41163.00
659.03	40891.50
659.17	40900.86
659.31	40893.84
659.46	40458.50
659.60	40964.06
659.74	40662.13
659.89	40451.48
660.03	40280.62
660.17	40416.37
660.32	40598.93
660.46	40165.93
660.60	40084.01
660.74	40084.01
660.89	40425.73
661.03	40343.81
661.17	39796.13
661.32	40151.89
661.46	40383.60
661.60	39913.16
661.74	40189.34
661.89	40215.08
662.03	39948.26
662.17	40051.25
662.31	39716.55
662.46	40144.87
662.60	39686.12
662.74	39470.79
662.88	39646.33
663.03	39159.50
663.17	39363.13
663.31	39377.17
663.45	39559.73
663.60	39529.31
663.74	39185.25
663.88	39529.31
664.02	38878.64
664.17	39494.20
664.31	39091.63
664.45	39150.14
664.59	39220.36
664.73	39351.43
664.88	39377.17
665.02	38738.21
665.16	38614.16
665.30	38391.81
665.44	38693.74
665.59	38265.42
665.73	38272.44
665.87	38466.70
666.01	38543.94
666.15	38682.03
666.29	38108.60
666.44	38452.66
666.58	38295.85
666.72	38366.06
666.86	37752.84
667.00	38342.66
667.14	37797.31
667.28	37951.79
667.43	37921.36
667.57	38513.52
667.71	37823.06
667.85	38026.68
667.99	37589.00
668.13	37729.44
668.27	36933.65
668.41	37809.01
668.56	36634.06
668.70	37450.91
668.84	37043.66
668.98	36774.50
669.12	37390.06
669.26	37153.66
669.40	37298.78
669.54	37298.78
669.68	37027.28
669.82	36903.23
669.96	36322.77
670.10	36414.05
670.25	36989.83
670.39	36811.95
670.53	36643.43
670.67	36711.30
670.81	36769.82
670.95	36453.84
671.09	36308.73
671.23	35782.11
671.37	36355.54
671.51	36013.82
671.65	36299.37
671.79	36135.53
671.93	35854.67
672.07	36009.14
672.21	36418.74
672.35	35274.21
672.49	35744.66
672.63	35887.43
672.77	35299.96
672.91	35248.47
673.05	35264.85
673.19	34892.71
673.33	34869.30
673.47	34902.07
673.61	34632.91
673.75	34801.43
673.89	34682.06
674.03	34555.67
674.17	34206.93
674.31	34595.46
674.45	34003.30
674.59	34330.98
674.73	34469.07
674.87	33757.55
675.01	34040.75
675.15	34113.31
675.29	33837.12
675.43	33500.09
675.56	33851.17
675.70	33773.93
675.84	33619.46
675.98	32329.82
676.12	33198.16
676.26	34108.63
676.40	33076.45
676.54	32996.87
676.68	33340.93
676.82	32765.16
676.96	32783.88
677.10	33151.35
677.23	32690.26
677.37	32533.45
677.51	32486.64
677.65	32308.76
677.79	32542.81
677.93	32395.35
678.07	32407.06
678.21	32063.00
678.34	31662.77
678.48	31791.50
678.62	31751.71
678.76	31793.84
678.90	31559.78
679.04	31098.70
679.18	31583.19
679.31	31211.04
679.45	31363.18
679.59	30981.67
679.73	31307.01
679.87	30974.65
680.00	30866.98
680.14	30630.59
680.28	30724.21
680.42	30569.74
680.56	30345.05
680.70	30141.42
680.83	30476.12
680.97	30272.49
681.11	30469.09
681.25	29610.12
681.39	29799.70
681.52	29467.34
681.66	29331.59
681.80	29041.37
681.94	28900.94
682.07	29123.29
682.21	28856.46
682.35	28917.32
682.49	29139.67
682.62	28858.81
682.76	29165.42
682.90	28627.09
683.04	28821.36
683.17	28549.85
683.31	28580.28
683.45	28168.35
683.59	28355.59
683.72	27784.50
683.86	27840.67
684.00	28027.92
684.13	28093.45
684.27	27653.43
684.41	27550.45
684.55	27852.38
684.68	27613.64
684.82	27136.17
684.96	27590.24
685.09	27573.85
685.23	27419.38
685.37	27384.27
685.50	27601.94
685.64	27012.12
685.78	26958.29
685.91	26431.67
686.05	26522.95
686.19	26054.84
686.32	26258.47
686.46	25741.21
686.60	26122.72
686.73	26008.03
686.87	26029.10
687.01	25905.05
687.14	25963.56
687.28	25998.67
687.42	25783.34
687.55	25535.24
687.69	25333.96
687.82	25104.59
687.96	25165.44
688.10	25387.79
688.23	25163.10
688.37	25053.09
688.50	25282.47
688.64	24957.13
688.78	24634.14
688.91	24940.75
689.05	24587.33
689.18	24084.11
689.32	23662.82
689.46	23740.05
689.59	24254.97
689.73	24428.17
689.86	24210.50
690.00	23901.55
690.13	23726.01
690.27	23555.15
690.41	23784.52
690.54	23386.63
690.68	23197.05
690.81	23281.31
690.95	22988.74
691.08	22834.27
691.22	22941.93
691.35	22649.36
691.49	22965.34
691.62	22867.03
691.76	22405.95
691.89	22218.71
692.03	22427.01
692.16	22022.10
692.30	22199.98
692.43	22167.21
692.57	21736.56
692.70	21385.47
692.84	21790.39
692.97	21495.48
693.11	21624.21
693.24	21563.36
693.38	21397.18
693.51	21408.88
693.65	21317.60
693.78	21242.70
693.92	21055.46
694.05	20856.51
694.19	20786.30
694.32	20938.43
694.45	20994.61
694.59	20922.05
694.72	21198.23
694.86	20475.01
694.99	20196.48
695.13	20163.72
695.26	19843.06
695.39	19864.13
695.53	19941.36
695.66	20247.97
695.80	19882.85
695.93	20018.60
696.07	19648.80
696.20	19414.74
696.33	19241.54
696.47	19412.40
696.60	19049.62
696.73	19433.47
696.87	19232.18
697.00	19232.18
697.14	18951.32
697.27	18633.00
697.40	18773.44
697.54	18630.66
697.67	18644.71
697.80	18443.42
697.94	18485.55
698.07	18164.90
698.21	18331.08
698.34	18155.54
698.47	18015.10
698.61	18036.17
698.74	17809.14
698.87	17919.14
699.01	17673.39
699.14	18040.85
699.27	17661.68
699.40	17436.99
699.54	17364.43
699.67	17415.93
699.80	17385.50
699.94	17156.13
700.07	17039.10
700.20	17324.65
700.34	16872.92
700.47	17104.64
700.60	17036.76
700.73	16769.94
700.87	16552.27
701.00	16215.23
701.13	16561.63
701.26	16416.52
701.40	16416.52
701.53	16145.02
701.66	16236.30
701.79	16243.32
701.93	15545.84
702.06	15695.63
702.19	15807.98
702.32	15805.64
702.46	15651.16
702.59	15915.64
702.72	15859.47
702.85	15803.30
702.99	15854.79
703.12	15342.21
703.25	14984.11
703.38	15089.43
703.51	15157.31
703.65	14883.47
703.78	14696.22
703.91	14817.93
704.04	14637.71
704.17	14647.07
704.31	14618.99
704.44	14478.55
704.57	14270.25
704.70	14546.43
704.83	14338.12
704.96	14211.73
705.10	14263.22
705.23	14057.26
>>>>>End Processed Spectral Data<<<<<
