SpectraSuite Data File
++++++++++++++++++++++++++++++++++++
Date: Fri Oct 25 10:48:30 EDT 2013
User: price-jones
Dark Spectrum Present: No
Reference Spectrum Present: No
Number of Sampled Component Spectra: 1
Spectrometers: USB2+H05261
Integration Time (usec): 100000 (USB2+H05261)
Spectra Averaged: 1 (USB2+H05261)
Boxcar Smoothing: 0 (USB2+H05261)
Correct for Electrical Dark: No (USB2+H05261)
Strobe/Lamp Enabled: No (USB2+H05261)
Correct for Detector Non-linearity: No (USB2+H05261)
Correct for Stray Light: No (USB2+H05261)
Number of Pixels in Processed Spectrum: 2048
>>>>>Begin Processed Spectral Data<<<<<
365.73	140.43
365.92	140.43
366.12	140.43
366.32	49.15
366.52	39.79
366.72	95.96
366.91	107.66
367.11	60.85
367.31	14.04
367.51	0.00
367.70	11.70
367.90	65.54
368.10	72.56
368.30	133.41
368.49	39.79
368.69	100.64
368.89	53.83
369.09	0.00
369.28	74.90
369.48	63.19
369.68	117.03
369.87	95.96
370.07	135.75
370.27	198.95
370.47	208.31
370.66	461.09
370.86	463.43
371.06	486.83
371.25	571.09
371.45	496.19
371.65	451.72
371.84	519.60
372.04	526.62
372.24	566.41
372.44	484.49
372.63	531.30
372.83	545.34
373.03	557.05
373.22	519.60
373.42	507.90
373.62	594.50
373.81	624.92
374.01	477.47
374.21	575.77
374.40	557.05
374.60	603.86
374.79	550.03
374.99	608.54
375.19	655.35
375.38	664.71
375.58	629.60
375.78	631.94
375.97	610.88
376.17	720.88
376.37	695.14
376.56	596.84
376.76	596.84
376.95	650.67
377.15	660.03
377.35	732.59
377.54	695.14
377.74	695.14
377.93	713.86
378.13	674.07
378.33	751.31
378.52	744.29
378.72	695.14
378.91	720.88
379.11	706.84
379.31	692.80
379.50	599.18
379.70	641.31
379.89	695.14
380.09	767.70
380.28	702.16
380.48	641.31
380.68	723.23
380.87	758.33
381.07	739.61
381.26	737.27
381.46	706.84
381.65	718.54
381.85	748.97
382.04	720.88
382.24	779.40
382.43	713.86
382.63	744.29
382.83	727.91
383.02	739.61
383.22	744.29
383.41	784.08
383.61	704.50
383.80	793.44
384.00	770.04
384.19	765.36
384.39	812.17
384.58	819.19
384.78	793.44
384.97	905.79
385.17	849.61
385.36	795.78
385.56	877.70
385.75	917.49
385.95	891.74
386.14	795.78
386.34	812.17
386.53	837.91
386.72	812.17
386.92	950.26
387.11	912.81
387.31	976.00
387.50	933.87
387.70	940.90
387.89	964.30
388.09	954.94
388.28	987.71
388.48	910.47
388.67	971.32
388.86	912.81
389.06	1008.77
389.25	1121.12
389.45	1069.62
389.64	983.02
389.84	1011.11
390.03	1025.15
390.22	1039.20
390.42	1032.18
390.61	954.94
390.81	1074.31
391.00	1088.35
391.19	1144.52
391.39	1181.97
391.58	1109.41
391.78	1020.47
391.97	1156.22
392.16	1048.56
392.36	1083.67
392.55	1130.48
392.75	1067.28
392.94	992.39
393.13	1041.54
393.33	1029.84
393.52	1128.14
393.71	1139.84
393.91	1036.86
394.10	1135.16
394.29	1196.01
394.49	1228.78
394.68	1238.14
394.88	1217.08
395.07	1299.00
395.26	1284.95
395.46	1252.19
395.65	1380.92
395.84	1263.89
396.04	1291.98
396.23	1226.44
396.42	1238.14
396.62	1217.08
396.81	1284.95
397.00	1167.93
397.19	1296.66
397.39	1287.29
397.58	1380.92
397.77	1369.21
397.97	1483.90
398.16	1500.28
398.35	1488.58
398.55	1530.71
398.74	1497.94
398.93	1533.05
399.12	1582.20
399.32	1458.15
399.51	1540.07
399.70	1563.48
399.90	1717.95
400.09	1682.85
400.28	1661.78
400.47	1708.59
400.67	1708.59
400.86	1629.01
401.05	1720.29
401.24	1664.12
401.44	1710.93
401.63	1797.53
401.82	1748.38
402.01	1701.57
402.21	1732.00
402.40	1694.55
402.59	1692.21
402.78	1701.57
402.97	1767.10
403.17	1813.92
403.36	1881.79
403.55	1771.79
403.74	1921.58
403.93	1898.17
404.13	1839.66
404.32	1872.43
404.51	1959.03
404.70	1984.77
404.89	1935.62
405.09	2125.21
405.28	2050.31
405.47	1982.43
405.66	1888.81
405.85	1940.30
406.05	1989.46
406.24	2125.21
406.43	2050.31
406.62	2111.16
406.81	2267.98
407.00	2143.93
407.20	2146.27
407.39	2211.81
407.58	2146.27
407.77	2225.85
407.96	2260.96
408.15	2242.23
408.34	2183.72
408.54	2230.53
408.73	2230.53
408.92	2223.51
409.11	2352.24
409.30	2396.71
409.49	2251.60
409.68	2260.96
409.87	2317.13
410.07	2420.11
410.26	2457.56
410.45	2347.56
410.64	2431.82
410.83	2534.80
411.02	2509.05
411.21	2609.70
411.40	2572.25
411.59	2588.63
411.78	2651.83
411.98	2649.49
412.17	2586.29
412.36	2771.19
412.55	2782.90
412.74	2644.81
412.93	2806.30
413.12	2668.21
413.31	2979.50
413.50	2794.60
413.69	3040.36
413.88	3009.93
414.07	2972.48
414.26	2981.84
414.45	2958.44
414.64	3080.14
414.83	3129.30
415.02	3056.74
415.22	3148.02
415.41	3208.87
415.60	3220.58
415.79	3166.74
415.98	3412.50
416.17	3262.71
416.36	3222.92
416.55	3267.39
416.74	3227.60
416.93	3351.65
417.12	3353.99
417.31	3344.63
417.50	3349.31
417.69	3478.04
417.88	3433.57
418.07	3508.46
418.26	3461.65
418.45	3562.30
418.64	3527.19
418.83	3688.68
419.02	3520.17
419.21	3595.06
419.39	3592.72
419.58	3679.32
419.77	3569.32
419.96	3756.56
420.15	3637.19
420.34	3857.20
420.53	3826.78
420.72	3920.40
420.91	3889.97
421.10	3819.75
421.29	3962.53
421.48	3786.99
421.67	3791.67
421.86	3803.37
422.05	3812.73
422.24	3740.18
422.43	3751.88
422.61	3882.95
422.80	3934.44
422.99	3913.38
423.18	4037.42
423.37	4025.72
423.56	4023.38
423.75	4016.36
423.94	3913.38
424.13	3763.58
424.32	3953.16
424.50	4056.15
424.69	4147.43
424.88	3974.23
425.07	3904.01
425.26	3871.25
425.45	3976.57
425.64	4018.70
425.83	4056.15
426.01	4205.94
426.20	4081.89
426.39	3957.85
426.58	3999.98
426.77	4079.55
426.96	4100.62
427.15	3999.98
427.33	4044.45
427.52	3976.57
427.71	4114.66
427.90	4093.60
428.09	4311.27
428.28	4147.43
428.46	4140.41
428.65	4250.41
428.84	4397.87
429.03	4397.87
429.22	4229.35
429.40	4196.58
429.59	4194.24
429.78	3981.25
429.97	4121.68
430.16	4112.32
430.34	4135.73
430.53	4257.43
430.72	4219.99
430.91	4400.21
431.10	4538.30
431.28	4599.15
431.47	4772.35
431.66	4706.82
431.85	4662.35
432.03	4538.30
432.22	4854.27
432.41	4800.44
432.60	4730.22
432.79	4690.43
432.97	4933.85
433.16	4746.61
433.35	4706.82
433.54	4755.97
433.72	4711.50
433.91	4636.60
434.10	4847.25
434.28	4812.14
434.47	5093.01
434.66	4966.62
434.85	4961.94
435.03	5048.54
435.22	5083.64
435.41	5322.38
435.59	5212.37
435.78	5160.88
435.97	5158.54
436.16	5195.99
436.34	5245.14
436.53	5270.89
436.72	5334.08
436.90	5135.14
437.09	5273.23
437.28	5228.76
437.46	5291.95
437.65	5210.03
437.84	5188.97
438.02	5142.16
438.21	5217.05
438.40	5315.36
438.58	5383.23
438.77	5598.56
438.96	5666.44
439.14	5636.01
439.33	5650.05
439.52	5579.84
439.70	5724.95
439.89	5722.61
440.08	5624.31
440.26	5724.95
440.45	5706.23
440.63	5921.56
440.82	6080.71
441.01	6174.33
441.19	6094.76
441.38	6249.23
441.57	6223.48
441.75	6328.81
441.94	6380.30
442.12	6384.98
442.31	6464.56
442.50	6382.64
442.68	6277.32
442.87	6422.43
443.05	6401.37
443.24	6705.63
443.43	6581.59
443.61	6466.90
443.80	6665.85
443.98	6438.81
444.17	6258.59
444.35	6675.21
444.54	6703.29
444.73	6553.50
444.91	6389.66
445.10	6534.78
445.28	6560.52
445.47	6469.24
445.65	6441.15
445.84	6565.20
446.02	6820.32
446.21	6651.80
446.39	6738.40
446.58	6700.95
446.77	6696.27
446.95	6733.72
447.14	6782.87
447.32	6801.60
447.51	6717.34
447.69	6766.49
447.88	6705.63
448.06	6743.08
448.25	6993.52
448.43	6792.23
448.62	6736.06
448.80	6712.66
448.99	6836.70
449.17	6855.43
449.36	6796.92
449.54	6960.75
449.73	7201.83
449.91	7185.44
450.10	7157.36
450.28	7171.40
450.46	7293.11
450.65	7318.86
450.83	7325.88
451.02	7297.79
451.20	7241.62
451.39	7248.64
451.57	7225.23
451.76	7243.96
451.94	7258.00
452.13	7300.13
452.31	7379.71
452.49	7269.70
452.68	7262.68
452.86	7384.39
453.05	7389.07
453.23	7346.94
453.42	7295.45
453.60	7389.07
453.78	7424.18
453.97	7492.05
454.15	7555.25
454.34	7517.80
454.52	7646.53
454.70	7571.63
454.89	7742.49
455.07	7698.02
455.26	7698.02
455.44	7712.07
455.62	7805.69
455.81	7943.78
455.99	7772.92
456.17	7922.71
456.36	8016.33
456.54	8081.87
456.73	7988.25
456.91	8180.17
457.09	8140.38
457.28	8454.02
457.46	8278.47
457.64	8299.54
457.83	8102.93
458.01	8056.12
458.19	8325.29
458.38	8241.03
458.56	8400.18
458.74	8262.09
458.93	8299.54
459.11	8290.18
459.29	8358.05
459.48	8383.80
459.66	8390.82
459.84	8599.13
460.03	8711.47
460.21	8564.02
460.39	8561.68
460.57	8542.96
460.76	8552.32
460.94	8844.88
461.12	8571.04
461.31	8723.18
461.49	8716.16
461.67	8786.37
461.85	8872.97
462.04	8814.46
462.22	9359.80
462.40	8779.35
462.59	8840.20
462.77	8566.36
462.95	8847.22
463.13	9048.51
463.32	8997.02
463.50	8915.10
463.68	9123.41
463.86	9022.77
464.05	8985.32
464.23	8978.30
464.41	9135.11
464.59	8922.12
464.78	9460.45
464.96	9331.72
465.14	9252.14
465.32	9432.36
465.50	9200.65
465.69	9399.59
465.87	9364.48
466.05	9408.95
466.23	9280.22
466.41	9336.40
466.60	9458.10
466.78	9270.86
466.96	9434.70
467.14	9348.10
467.32	9460.45
467.51	9645.35
467.69	9228.73
467.87	9703.86
468.05	9785.78
468.23	9556.41
468.41	9652.37
468.60	9645.35
468.78	9586.83
468.96	9535.34
469.14	9823.23
469.32	9900.47
469.50	9720.24
469.69	9724.93
469.87	9991.75
470.05	9898.13
470.23	9820.89
470.41	9944.94
470.59	10186.01
470.77	9809.19
470.95	10314.74
471.14	10513.69
471.32	10050.26
471.50	10239.84
471.68	10359.21
471.86	10600.29
472.04	10457.51
472.22	10579.22
472.40	10312.40
472.58	10574.54
472.77	10602.63
472.95	10927.96
473.13	10911.58
473.31	10604.97
473.49	10630.71
473.67	11026.26
473.85	10862.43
474.03	10920.94
474.21	11110.52
474.39	11187.76
474.57	11283.72
474.75	11204.14
474.93	11379.68
475.12	11016.90
475.30	11447.56
475.48	11571.61
475.66	11466.28
475.84	11234.57
476.02	11431.18
476.20	11499.05
476.38	11789.28
476.56	11861.84
476.74	11964.82
476.92	11885.24
477.10	11943.75
477.28	12203.55
477.46	12212.92
477.64	12292.49
477.82	12559.31
478.00	12835.50
478.18	12507.82
478.36	12739.54
478.54	12748.90
478.72	12671.66
478.90	12992.31
479.08	13188.92
479.26	13427.65
479.44	13525.96
479.62	13399.57
479.80	13294.24
479.98	13455.74
480.16	13720.22
480.34	13748.31
480.52	14017.47
480.70	13933.21
480.88	13795.12
481.06	14038.53
481.24	14370.89
481.41	14223.44
481.59	14438.76
481.77	14611.96
481.95	14759.42
482.13	14611.96
482.31	14750.06
482.49	15126.88
482.67	15000.49
482.85	14881.13
483.03	15384.34
483.21	15683.93
483.39	15669.89
483.57	15609.03
483.74	16081.82
483.92	16280.77
484.10	15934.37
484.28	16273.74
484.46	15988.20
484.64	16788.66
484.82	16205.87
485.00	16589.72
485.18	16706.74
485.35	16610.78
485.53	16580.36
485.71	16489.07
485.89	16559.29
486.07	16734.83
486.25	16872.92
486.43	17060.16
486.61	17198.26
486.78	17352.73
486.96	17757.64
487.14	17537.63
487.32	17788.07
487.50	18387.25
487.68	18483.21
487.85	18616.62
488.03	18925.57
488.21	18768.76
488.39	18663.43
488.57	18906.85
488.75	19094.09
488.92	19417.08
489.10	19372.61
489.28	19857.10
489.46	19927.32
489.64	19611.35
489.81	20299.47
489.99	20152.01
490.17	20470.33
490.35	20821.41
490.53	20304.15
490.70	20884.60
490.88	20795.66
491.06	21188.87
491.24	21170.15
491.41	20659.91
491.59	20856.51
491.77	21228.66
491.95	21432.29
492.13	21446.33
492.30	21703.79
492.48	21869.97
492.66	22373.18
492.84	22143.81
493.01	22286.58
493.19	22368.50
493.37	22576.81
493.54	22595.53
493.72	23077.68
493.90	22855.33
494.08	23138.54
494.25	23267.27
494.43	23611.32
494.61	23943.68
494.79	23711.97
494.96	23693.24
495.14	23838.36
495.32	23910.91
495.49	24032.62
495.67	24107.52
495.85	24732.44
496.02	24318.17
496.20	24547.54
496.38	24549.88
496.55	24987.56
496.73	25350.34
496.91	24999.26
497.09	25252.04
497.26	25544.61
497.44	25263.74
497.62	25359.70
497.79	25930.80
497.97	25769.30
498.14	25883.98
498.32	25781.00
498.50	25638.23
498.67	26094.63
498.85	26218.68
499.03	26836.58
499.20	26663.38
499.38	26637.64
499.56	26593.17
499.73	26705.51
499.91	26923.18
500.08	27051.91
500.26	26670.40
500.44	27044.89
500.61	27395.97
500.79	26916.16
500.97	27344.48
501.14	27346.82
501.32	27660.45
501.49	27564.49
501.67	27412.35
501.84	28163.67
502.02	28142.60
502.20	28318.14
502.37	28304.10
502.55	28018.55
502.72	28285.37
502.90	28404.74
503.07	28594.32
503.25	28575.60
503.43	28517.09
503.60	28601.35
503.78	28386.02
503.95	28694.97
504.13	29125.63
504.30	28872.85
504.48	28847.10
504.65	29022.64
504.83	29425.22
505.01	29490.75
505.18	29495.43
505.36	29921.41
505.53	29439.26
505.71	30476.12
505.88	30223.34
506.06	29930.77
506.23	30277.17
506.41	30237.38
506.58	30099.29
506.76	30394.20
506.93	30752.30
507.11	30504.20
507.28	30426.96
507.46	30771.02
507.63	30909.11
507.81	30551.01
507.98	30513.56
508.16	30923.16
508.33	31377.22
508.50	30927.84
508.68	31519.99
508.85	31826.60
509.03	31676.81
509.20	31381.90
509.38	31508.29
509.55	31550.42
509.73	31543.40
509.90	31426.37
510.08	31735.32
510.25	31864.05
510.42	32041.93
510.60	32629.41
510.77	32292.37
510.95	32449.19
511.12	32306.41
511.30	32503.02
511.47	32954.74
511.64	32868.14
511.82	32992.19
511.99	32905.59
512.17	32746.44
512.34	32397.70
512.51	33055.39
512.69	33017.94
512.86	33263.69
513.04	33413.49
513.21	33144.33
513.38	33078.79
513.56	33266.03
513.73	32898.57
513.90	33125.60
514.08	33497.75
514.25	33511.79
514.43	33607.75
514.60	34068.84
514.77	33795.00
514.95	34029.05
515.12	34288.85
515.29	33933.09
515.47	34436.30
515.64	34323.96
515.81	34513.54
515.99	34235.02
516.16	34298.21
516.33	33865.21
516.51	34380.13
516.68	33926.07
516.85	33577.33
517.03	34007.98
517.20	34485.45
517.37	34763.98
517.54	35103.35
517.72	34628.23
517.89	34785.04
518.06	34625.89
518.24	34717.17
518.41	35126.76
518.58	34859.94
518.75	35269.53
518.93	35161.87
519.10	35278.89
519.27	35578.48
519.45	36306.39
519.62	35868.71
519.79	35864.03
519.96	36034.89
520.14	36575.55
520.31	35627.63
520.48	36257.24
520.65	36362.56
520.83	36458.52
521.00	36371.92
521.17	36341.50
521.34	36840.03
521.52	36479.59
521.69	36818.97
521.86	37038.98
522.03	37017.91
522.20	36825.99
522.38	36790.88
522.55	36776.84
522.72	36514.70
522.89	36563.85
523.07	36886.84
523.24	36753.43
523.41	37904.98
523.58	36914.93
523.75	37715.39
523.92	38071.15
524.10	37893.27
524.27	37879.23
524.44	38160.09
524.61	37729.44
524.78	38106.26
524.96	38445.64
525.13	38260.74
525.30	38309.89
525.47	38560.33
525.64	38330.95
525.81	38424.57
525.98	38127.33
526.16	38010.30
526.33	37270.69
526.50	37940.08
526.67	37989.24
526.84	37713.05
527.01	38101.58
527.18	38347.34
527.36	38752.25
527.53	38986.30
527.70	39281.21
527.87	39110.35
528.04	39192.27
528.21	38866.94
528.38	38799.06
528.55	39267.17
528.72	39363.13
528.89	39274.19
529.07	39480.16
529.24	39592.50
529.41	39285.89
529.58	39143.12
529.75	39185.25
529.92	40163.59
530.09	39569.10
530.26	39983.37
530.43	40053.59
530.60	39526.97
530.77	39784.43
530.94	40151.89
531.11	40006.78
531.28	39985.71
531.46	40194.02
531.63	40311.05
531.80	40292.32
531.97	40053.59
532.14	40362.54
532.31	39945.92
532.48	39737.62
532.65	40259.55
532.82	40353.18
532.99	40243.17
533.16	39952.94
533.33	40509.99
533.50	40952.35
533.67	40938.31
533.84	40465.52
534.01	40596.59
534.18	40285.30
534.35	40996.82
534.52	40257.21
534.69	40699.58
534.86	41174.70
535.03	40526.38
535.20	41411.10
535.37	41050.66
535.54	41535.15
535.71	41251.94
535.88	41256.62
536.05	41191.09
536.22	41343.22
536.38	41581.96
536.55	41457.91
536.72	41607.70
536.89	41460.25
537.06	41675.58
537.23	41483.66
537.40	41654.51
537.57	41696.64
537.74	41691.96
537.91	42019.64
538.08	42169.43
538.25	41338.54
538.42	41890.91
538.59	42150.71
538.75	41495.36
538.92	42024.32
539.09	41991.55
539.26	42241.99
539.43	41865.16
539.60	42550.94
539.77	41893.25
539.94	42504.13
540.11	41965.81
540.28	41893.25
540.44	42216.24
540.61	41876.86
540.78	42258.37
540.95	42494.77
541.12	42321.57
541.29	42548.60
541.46	42623.50
541.62	42134.32
541.79	42934.79
541.96	42316.89
542.13	42391.78
542.30	42454.98
542.47	42780.31
542.63	42763.93
542.80	42909.04
542.97	43042.45
543.14	43187.56
543.31	43126.71
543.48	43515.24
543.64	43674.40
543.81	43805.47
543.98	43501.20
544.15	43117.35
544.32	43665.03
544.48	43569.07
544.65	43723.55
544.82	43800.79
544.99	42951.17
545.16	43164.16
545.32	43433.32
545.49	43920.15
545.66	43709.50
545.83	44053.56
546.00	44301.66
546.16	43555.03
546.33	43599.50
546.50	43768.02
546.67	44156.55
546.83	43824.19
547.00	44149.53
547.17	44027.82
547.34	43751.63
547.50	43896.75
547.67	43988.03
547.84	43629.93
548.00	44261.87
548.17	44573.16
548.34	44605.93
548.51	44439.75
548.67	44247.83
548.84	44378.90
549.01	44156.55
549.18	44149.53
549.34	44699.55
549.51	44648.06
549.68	44886.79
549.84	44500.61
550.01	44486.56
550.18	44486.56
550.34	44540.39
550.51	44790.83
550.68	44430.39
550.84	44605.93
551.01	45191.06
551.18	44886.79
551.34	44369.54
551.51	44982.76
551.68	44896.16
551.84	44996.80
552.01	44926.58
552.18	44835.30
552.34	44655.08
552.51	44935.95
552.68	44954.67
552.84	45301.07
553.01	45350.22
553.18	44921.90
553.34	45373.63
553.51	45139.57
553.67	45521.08
553.84	45394.69
554.01	45551.51
554.17	45947.06
554.34	45570.23
554.51	45303.41
554.67	45860.46
554.84	45338.52
555.00	45588.95
555.17	45394.69
555.33	45897.91
555.50	45275.32
555.67	45556.19
555.83	45902.59
556.00	45542.14
556.16	45769.18
556.33	45827.69
556.50	45752.79
556.66	45893.22
556.83	45886.20
556.99	45610.02
557.16	46380.06
557.32	45670.87
557.49	46024.29
557.65	45448.52
557.82	45296.39
557.98	45628.74
558.15	45518.74
558.32	46007.91
558.48	45549.17
558.65	45467.25
558.81	45588.95
558.98	45603.00
559.14	45933.01
559.31	45837.05
559.47	45893.22
559.64	46501.76
559.80	46155.36
559.97	46337.93
560.13	45874.50
560.30	46246.65
560.46	46127.28
560.63	46162.39
560.79	46256.01
560.96	46347.29
561.12	46223.24
561.29	46127.28
561.45	46342.61
561.61	46078.13
561.78	45897.91
561.94	46256.01
562.11	46199.83
562.27	45923.65
562.44	46169.41
562.60	46382.40
562.77	46777.95
562.93	46443.25
563.10	46607.09
563.26	46253.67
563.42	46256.01
563.59	46167.07
563.75	46237.28
563.92	46244.30
564.08	46649.22
564.24	46782.63
564.41	46478.36
564.57	46562.62
564.74	46897.31
564.90	46541.55
565.07	46174.09
565.23	46230.26
565.39	46293.46
565.56	46953.49
565.72	46356.65
565.88	46188.13
566.05	46642.20
566.21	46560.28
566.38	46550.91
566.54	46527.51
566.70	46972.21
566.87	47138.39
567.03	46665.60
567.19	47079.88
567.36	46684.33
567.52	46457.29
567.68	46705.39
567.85	46770.93
568.01	46295.80
568.17	46696.03
568.34	46705.39
568.50	46810.71
568.66	46621.13
568.83	46791.99
568.99	46330.90
569.15	46562.62
569.32	47040.09
569.48	46541.55
569.64	47070.51
569.81	46588.36
569.97	46923.06
570.13	46522.83
570.30	46490.06
570.46	46590.70
570.62	46134.30
570.78	46323.88
570.95	46438.57
571.11	46880.93
571.27	46600.07
571.43	46892.63
571.60	46639.86
571.76	46576.66
571.92	46717.09
572.09	46660.92
572.25	46663.26
572.41	46801.35
572.57	46791.99
572.74	47391.17
572.90	47072.85
573.06	46876.25
573.22	46799.01
573.38	46948.81
573.55	46604.75
573.71	46749.86
573.87	46801.35
574.03	46497.08
574.20	47133.71
574.36	46691.35
574.52	46918.38
574.68	46759.22
574.84	46965.19
575.01	46508.79
575.17	46768.58
575.33	46412.82
575.49	46712.41
575.65	47124.35
575.82	47351.38
575.98	46600.07
576.14	46941.78
576.30	46909.02
576.46	46422.19
576.62	46557.94
576.79	47103.28
576.95	46642.20
577.11	46817.74
577.27	46756.88
577.43	46878.59
577.59	46553.26
577.75	46803.69
577.92	46389.42
578.08	46232.60
578.24	46424.53
578.40	46937.10
578.56	46801.35
578.72	46637.51
578.88	47201.58
579.04	46789.65
579.21	46719.43
579.37	47283.50
579.53	47035.41
579.69	46593.04
579.85	46876.25
580.01	47068.17
580.17	47192.22
580.33	47496.49
580.49	46820.08
580.65	46857.52
580.82	47054.13
580.98	47089.24
581.14	47152.43
581.30	47206.26
581.46	47107.96
581.62	46897.31
581.78	47065.83
581.94	47351.38
582.10	47224.99
582.26	47037.75
582.42	47105.62
582.58	47168.82
582.74	47019.02
582.90	47126.69
583.06	46965.19
583.22	47047.11
583.38	47030.72
583.54	47327.97
583.70	46969.87
583.86	47318.61
584.02	46518.15
584.18	46920.72
584.34	47363.08
584.50	47508.19
584.66	46658.58
584.82	46911.36
584.98	47122.01
585.14	47299.89
585.30	46770.93
585.46	46995.62
585.62	46712.41
585.78	46831.78
585.94	46801.35
586.10	46958.17
586.26	46813.05
586.42	46953.49
586.58	47117.32
586.74	46911.36
586.90	46890.29
587.06	47175.84
587.22	47152.43
587.38	46691.35
587.54	47026.04
587.70	46850.50
587.86	46897.31
588.02	46412.82
588.18	47433.30
588.34	46656.24
588.49	46555.60
588.65	46146.00
588.81	46445.59
588.97	46583.68
589.13	46433.89
589.29	46630.49
589.45	46562.62
589.61	46639.86
589.77	47122.01
589.93	46993.28
590.08	46820.08
590.24	47091.58
590.40	47093.92
590.56	47332.65
590.72	47019.02
590.88	46995.62
591.04	46820.08
591.20	47423.93
591.35	47349.04
591.51	47414.57
591.67	47033.07
591.83	47351.38
591.99	46918.38
592.15	47281.16
592.31	46995.62
592.46	46911.36
592.62	47274.14
592.78	46983.91
592.94	47082.22
593.10	46979.23
593.26	47189.88
593.41	46911.36
593.57	47264.78
593.73	47129.03
593.89	47227.33
594.05	46939.44
594.20	46850.50
594.36	47409.89
594.52	46967.53
594.68	47126.69
594.84	47175.84
594.99	47416.91
595.15	47140.73
595.31	47400.53
595.47	47161.79
595.62	47030.72
595.78	47243.71
595.94	47454.36
596.10	47498.83
596.25	47320.95
596.41	47370.10
596.57	47358.40
596.73	47304.57
596.88	46660.92
597.04	47189.88
597.20	47353.72
597.36	47138.39
597.51	47615.86
597.67	47372.44
597.83	47470.75
597.99	47550.32
598.14	47140.73
598.30	47070.51
598.46	46995.62
598.61	47248.39
598.77	46712.41
598.93	47229.67
599.09	46909.02
599.24	47620.54
599.40	47512.88
599.56	47405.21
599.71	47491.81
599.87	47248.39
600.03	47477.77
600.18	47318.61
600.34	46894.97
600.50	47234.35
600.65	46995.62
600.81	47391.17
600.97	47344.36
601.12	47533.94
601.28	47178.18
601.44	47103.28
601.59	46862.21
601.75	46955.83
601.91	47395.85
602.06	46930.08
602.22	47447.34
602.37	47250.74
602.53	47122.01
602.69	47620.54
602.84	47419.25
603.00	46897.31
603.16	47262.44
603.31	47203.92
603.47	47379.46
603.62	46911.36
603.78	47342.02
603.94	47234.35
604.09	47655.65
604.25	47349.04
604.40	47222.65
604.56	47241.37
604.71	47363.08
604.87	47000.30
605.03	47639.26
605.18	47164.14
605.34	47274.14
605.49	46768.58
605.65	47180.52
605.80	47112.64
605.96	47299.89
606.12	47318.61
606.27	47164.14
606.43	47501.17
606.58	47166.48
606.74	46766.24
606.89	46958.17
607.05	46443.25
607.20	46995.62
607.36	46986.25
607.51	47243.71
607.67	46939.44
607.82	47292.86
607.98	47168.82
608.13	47014.34
608.29	46663.26
608.44	46511.13
608.60	46625.81
608.75	46703.05
608.91	46534.53
609.06	46639.86
609.22	46986.25
609.37	46492.40
609.53	46241.96
609.68	46689.01
609.84	46848.16
609.99	46866.89
610.15	46394.10
610.30	46534.53
610.46	46499.42
610.61	46625.81
610.76	46557.94
610.92	46866.89
611.07	46476.02
611.23	46457.29
611.38	46391.76
611.54	46251.33
611.69	46110.89
611.84	46043.02
612.00	46543.89
612.15	46335.59
612.31	46536.87
612.46	46536.87
612.62	46693.69
612.77	46043.02
612.92	46054.72
613.08	46443.25
613.23	46351.97
613.39	46110.89
613.54	45848.75
613.69	45860.46
613.85	45867.48
614.00	46501.76
614.15	46174.09
614.31	46241.96
614.46	46342.61
614.62	46136.64
614.77	46082.81
614.92	45984.51
615.08	46206.86
615.23	46307.50
615.38	46101.53
615.54	45336.18
615.69	46012.59
615.84	45500.01
616.00	45460.23
616.15	45631.08
616.30	45757.47
616.46	45504.70
616.61	45619.38
616.76	46017.27
616.92	45397.03
617.07	45296.39
617.22	45633.42
617.37	45574.91
617.53	45542.14
617.68	45750.45
617.83	45977.48
617.99	45654.49
618.14	45942.38
618.29	44966.37
618.45	45193.40
618.60	45492.99
618.75	45614.70
618.90	45619.38
619.06	45478.95
619.21	45656.83
619.36	45970.46
619.51	45338.52
619.67	45249.58
619.82	45963.44
619.97	45586.61
620.12	45050.63
620.28	45179.36
620.43	44945.31
620.58	45043.61
620.73	45226.17
620.89	45282.34
621.04	45338.52
621.19	44884.45
621.34	44814.24
621.49	45050.63
621.65	44650.40
621.80	45123.19
621.95	44673.81
622.10	45181.70
622.25	44493.58
622.41	44744.02
622.56	44561.46
622.71	44935.95
622.86	44751.04
623.01	44917.22
623.16	44811.90
623.32	44715.93
623.47	44926.58
623.62	44708.91
623.77	44552.10
623.92	44657.42
624.07	44500.61
624.23	44650.40
624.38	44493.58
624.53	44357.83
624.68	44425.71
624.83	44406.98
624.98	44933.60
625.13	44320.38
625.29	44659.76
625.44	44402.30
625.59	44301.66
625.74	44446.77
625.89	43730.57
626.04	43751.63
626.19	43901.43
626.34	44156.55
626.49	43812.49
626.65	44140.16
626.80	44062.93
626.95	43938.88
627.10	43786.74
627.25	43751.63
627.40	43742.27
627.55	43416.94
627.70	42960.53
627.85	42869.25
628.00	43676.74
628.15	43770.36
628.30	43592.48
628.45	43674.40
628.60	43548.01
628.76	43636.95
628.91	44020.80
629.06	43880.36
629.21	43342.04
629.36	42848.19
629.51	43035.43
629.66	42960.53
629.81	43667.37
629.96	43517.58
630.11	43217.99
630.26	43543.33
630.41	43232.04
630.56	43000.32
630.71	43433.32
630.86	43339.70
631.01	42593.07
631.16	43421.62
631.31	42979.26
631.46	42546.26
631.61	43393.53
631.76	43000.32
631.91	43489.49
632.06	43119.69
632.21	43309.27
632.36	43283.53
632.51	43395.87
632.66	43023.73
632.81	42487.74
632.96	43063.52
633.10	42485.40
633.25	42717.12
633.40	42674.99
633.55	42714.78
633.70	42817.76
633.85	42962.87
634.00	43353.74
634.15	42806.06
634.30	42443.27
634.45	42806.06
634.60	42323.91
634.75	42445.62
634.90	42616.47
635.05	42593.07
635.19	42447.96
635.34	43091.60
635.49	42660.94
635.64	42639.88
635.79	42129.64
635.94	42075.81
636.09	42213.90
636.24	42096.88
636.39	41387.69
636.53	42443.27
636.68	42089.85
636.83	42057.09
636.98	42003.25
637.13	41860.48
637.28	42394.12
637.43	42356.67
637.57	42487.74
637.72	42490.09
637.87	41991.55
638.02	42234.97
638.17	41918.99
638.32	41729.41
638.46	41825.37
638.61	41951.76
638.76	41633.45
638.91	41493.02
639.06	41860.48
639.20	42082.83
639.35	42117.94
639.50	41598.34
639.65	41958.78
639.80	41937.72
639.94	41401.74
640.09	41804.31
640.24	41647.49
640.39	41090.44
640.54	41404.08
640.68	41338.54
640.83	41579.62
640.98	41106.83
641.13	41265.99
641.27	42005.59
641.42	41497.70
641.57	41235.56
641.72	41397.06
641.86	40975.76
642.01	41013.21
642.16	41062.36
642.31	40828.30
642.45	41015.55
642.60	41132.57
642.75	40800.22
642.90	41137.26
643.04	40861.07
643.19	40987.46
643.34	41078.74
643.48	41214.49
643.63	40825.96
643.78	40849.37
643.93	41001.50
644.07	40545.10
644.22	40844.69
644.37	40037.20
644.51	40502.97
644.66	40521.69
644.81	40547.44
644.95	41340.88
645.10	40596.59
645.25	40568.51
645.39	40704.26
645.54	40753.41
645.69	40332.11
645.83	40137.85
645.98	40266.58
646.13	40854.05
646.27	40748.73
646.42	40378.92
646.57	40524.04
646.71	40374.24
646.86	40184.66
647.00	40591.91
647.15	40140.19
647.30	40685.53
647.44	40194.02
647.59	40292.32
647.74	40275.94
647.88	39754.00
648.03	39962.31
648.17	39920.18
648.32	40198.70
648.47	39611.23
648.61	39702.51
648.76	40205.72
648.90	39683.78
649.05	39882.73
649.20	39847.62
649.34	40226.79
649.49	39938.90
649.63	40189.34
649.78	40163.59
649.92	39473.13
650.07	40467.86
650.21	39920.18
650.36	39908.47
650.51	39377.17
650.65	39889.75
650.80	40060.61
650.94	39927.20
651.09	39730.59
651.23	39583.14
651.38	39592.50
651.52	39541.01
651.67	38972.26
651.81	39613.57
651.96	39311.64
652.10	39484.84
652.25	39372.49
652.39	39608.89
652.54	39480.16
652.68	39618.25
652.83	39152.48
652.97	39742.30
653.12	39566.76
653.26	39285.89
653.41	39019.07
653.55	39070.56
653.70	39304.62
653.84	39012.05
653.99	39461.43
654.13	39056.52
654.27	38920.77
654.42	38810.76
654.56	39321.00
654.71	39236.74
654.85	39075.24
655.00	39229.72
655.14	39136.10
655.29	38595.43
655.43	38546.28
655.57	38436.28
655.72	38375.42
655.86	38045.41
656.01	38019.66
656.15	38047.75
656.30	37888.59
656.44	38176.48
656.58	38242.01
656.73	38167.12
656.87	38143.71
657.01	38000.94
657.16	38082.86
657.30	38017.32
657.45	38127.33
657.59	38295.85
657.73	37785.61
657.88	37982.21
658.02	37762.20
658.16	38234.99
658.31	38078.18
658.45	38330.95
658.60	38113.28
658.74	38078.18
658.88	38113.28
659.03	37780.93
659.17	37937.74
659.31	37752.84
659.46	37584.32
659.60	38103.92
659.74	37818.38
659.89	37144.30
660.03	37553.90
660.17	37724.75
660.32	37663.90
660.46	37851.14
660.60	37249.63
660.74	37708.37
660.89	37432.19
661.03	37303.46
661.17	37298.78
661.32	36678.54
661.46	37301.12
661.60	36636.41
661.74	36823.65
661.89	36865.78
662.03	37340.91
662.17	36687.90
662.31	36910.25
662.46	37359.63
662.60	36905.57
662.74	36683.22
662.88	36856.42
663.03	36182.34
663.17	36751.09
663.31	36280.64
663.45	37127.92
663.60	36765.14
663.74	36313.41
663.88	36708.96
664.02	36329.80
664.17	36226.81
664.31	35791.47
664.45	36091.06
664.59	36252.56
664.73	36070.00
664.88	35831.26
665.02	35835.94
665.16	36133.19
665.30	36041.91
665.44	35929.56
665.59	35995.10
665.73	35585.50
665.87	35576.14
666.01	35360.81
666.15	35503.59
666.29	35627.63
666.44	36261.92
666.58	35693.17
666.72	35484.86
666.86	35409.96
667.00	35821.90
667.14	34993.35
667.28	35346.77
667.43	35096.33
667.57	34979.31
667.71	34969.94
667.85	35040.16
667.99	34799.08
668.13	34384.81
668.27	34808.45
668.41	34955.90
668.56	34752.27
668.70	34698.44
668.84	34639.93
668.98	34258.42
669.12	34450.35
669.26	34356.72
669.40	34040.75
669.54	34600.14
669.68	33907.34
669.82	34181.18
669.96	33902.66
670.10	33703.71
670.25	34256.08
670.39	33944.79
670.53	34096.92
670.67	33771.59
670.81	34178.84
670.95	33577.33
671.09	34012.66
671.23	33879.25
671.37	33905.00
671.51	33741.16
671.65	33596.05
671.79	33048.36
671.93	33200.50
672.07	33071.77
672.21	33266.03
672.35	33029.64
672.49	33017.94
672.63	33209.86
672.77	33109.22
672.91	32891.55
673.05	32725.37
673.19	32814.31
673.33	32570.90
673.47	32446.85
673.61	32177.68
673.75	32561.53
673.89	32201.09
674.03	32030.23
674.17	31852.35
674.31	31983.42
674.45	32259.60
674.59	31749.37
674.73	32212.79
674.87	31763.41
675.01	31824.26
675.15	32088.74
675.29	31938.95
675.43	31559.78
675.56	31625.32
675.70	31742.35
675.84	31730.64
675.98	30443.35
676.12	31248.49
676.26	30892.73
676.40	30876.35
676.54	30483.14
676.68	31037.84
676.82	30408.24
676.96	30551.01
677.10	30270.15
677.23	30733.57
677.37	30508.88
677.51	30024.39
677.65	30092.27
677.79	30195.25
677.93	30190.57
678.07	30110.99
678.21	29649.91
678.34	29862.90
678.48	29661.61
678.62	29755.23
678.76	29612.46
678.90	29467.34
679.04	29551.60
679.18	29027.32
679.31	28900.94
679.45	28910.30
679.59	28591.98
679.73	28968.81
679.87	28739.44
680.00	28961.79
680.14	28580.28
680.28	28589.64
680.42	28353.25
680.56	28678.58
680.70	28489.00
680.83	28383.68
680.97	28011.53
681.11	27857.06
681.25	27669.81
681.39	27782.16
681.52	27611.30
681.66	28390.70
681.80	27735.35
681.94	27529.38
682.07	27229.79
682.21	27157.24
682.35	27302.35
682.49	27335.12
682.62	27267.24
682.76	26941.91
682.90	26810.84
683.04	26658.70
683.17	26913.82
683.31	27124.47
683.45	26497.20
683.59	26693.81
683.72	26398.90
683.86	26127.40
684.00	25869.94
684.13	26492.52
684.27	26324.01
684.41	26410.60
684.55	25553.97
684.68	25549.29
684.82	25642.91
684.96	25490.77
685.09	25436.94
685.23	25397.15
685.37	25266.08
685.50	25298.85
685.64	25223.95
685.78	25181.82
685.91	25200.55
686.05	25013.31
686.19	24634.14
686.32	24769.89
686.46	24219.86
686.60	23964.75
686.73	24381.36
686.87	23789.20
687.01	24137.94
687.14	23618.35
687.28	23653.45
687.42	23548.13
687.55	23475.57
687.69	23585.58
687.82	23475.57
687.96	23267.27
688.10	23440.47
688.23	23358.55
688.37	23665.16
688.50	23178.33
688.64	23051.94
688.78	22885.76
688.91	22731.28
689.05	22789.80
689.18	22735.96
689.32	22335.73
689.46	22677.45
689.59	22848.31
689.73	22728.94
689.86	22176.58
690.00	22546.38
690.13	22527.66
690.27	22277.22
690.41	22576.81
690.54	21724.85
690.68	21664.00
690.81	21783.37
690.95	21390.16
691.08	21575.06
691.22	21436.97
691.35	21472.07
691.49	21645.27
691.62	21479.10
691.76	21476.76
691.89	21539.95
692.03	21128.02
692.16	21034.39
692.30	20929.07
692.43	20968.86
692.57	20652.89
692.70	20748.85
692.84	20854.17
692.97	20407.13
693.11	20556.93
693.24	20346.28
693.38	20173.08
693.51	19915.62
693.65	20130.95
693.78	20224.57
693.92	20027.96
694.05	19901.58
694.19	19728.38
694.32	19742.42
694.45	19765.82
694.59	19709.65
694.72	19494.32
694.86	19480.28
694.99	19066.00
695.13	18965.36
695.26	18965.36
695.39	18888.12
695.53	19168.99
695.66	19082.39
695.80	18724.29
695.93	18857.70
696.07	18630.66
696.20	18621.30
696.33	18689.18
696.47	18628.32
696.60	18607.26
696.73	18333.42
696.87	18607.26
697.00	18459.81
697.14	18125.11
697.27	18279.58
697.40	18214.05
697.54	17862.97
697.67	17844.24
697.80	17570.40
697.94	17661.68
698.07	17500.19
698.21	17788.07
698.34	17514.23
698.47	17502.53
698.61	17177.19
698.74	17270.81
698.87	17060.16
699.01	17142.08
699.14	16870.58
699.27	16798.02
699.40	16910.37
699.54	16638.87
699.67	16676.32
699.80	16369.71
699.94	16383.75
700.07	16751.21
700.20	16453.97
700.34	16152.04
700.47	16411.84
700.60	16304.17
700.73	16395.45
700.87	16276.09
701.00	15939.05
701.13	15967.13
701.26	15985.86
701.40	15641.80
701.53	16147.36
701.66	16049.05
701.79	15726.06
701.93	15328.17
702.06	15391.36
702.19	15482.64
702.32	15604.35
702.46	15477.96
702.59	15115.18
702.72	15314.13
702.85	15049.64
702.99	15136.24
703.12	15016.88
703.25	14932.62
703.38	14831.97
703.51	14796.87
703.65	14668.14
703.78	14630.69
703.91	14530.05
704.04	14410.68
704.17	14572.18
704.31	14436.42
704.44	14178.97
704.57	14022.15
704.70	14029.17
704.83	14038.53
704.96	14118.11
705.10	14260.88
705.23	14066.62
>>>>>End Processed Spectral Data<<<<<
