SpectraSuite Data File
++++++++++++++++++++++++++++++++++++
Date: Fri Oct 25 10:47:36 EDT 2013
User: price-jones
Dark Spectrum Present: No
Reference Spectrum Present: No
Number of Sampled Component Spectra: 1
Spectrometers: USB2+H05261
Integration Time (usec): 100000 (USB2+H05261)
Spectra Averaged: 1 (USB2+H05261)
Boxcar Smoothing: 0 (USB2+H05261)
Correct for Electrical Dark: No (USB2+H05261)
Strobe/Lamp Enabled: No (USB2+H05261)
Correct for Detector Non-linearity: No (USB2+H05261)
Correct for Stray Light: No (USB2+H05261)
Number of Pixels in Processed Spectrum: 2048
>>>>>Begin Processed Spectral Data<<<<<
365.73	196.60
365.92	196.60
366.12	196.60
366.32	0.00
366.52	0.00
366.72	14.04
366.91	65.54
367.11	23.41
367.31	77.24
367.51	0.00
367.70	102.98
367.90	21.06
368.10	81.92
368.30	93.62
368.49	21.06
368.69	11.70
368.89	63.19
369.09	112.35
369.28	21.06
369.48	100.64
369.68	74.90
369.87	32.77
370.07	102.98
370.27	147.45
370.47	231.71
370.66	337.04
370.86	404.91
371.06	496.19
371.25	477.47
371.45	531.30
371.65	512.58
371.84	437.68
372.04	468.11
372.24	454.06
372.44	503.22
372.63	543.00
372.83	510.24
373.03	538.32
373.22	414.27
373.42	465.77
373.62	491.51
373.81	524.28
374.01	564.07
374.21	507.90
374.40	538.32
374.60	594.50
374.79	585.13
374.99	571.09
375.19	517.26
375.38	538.32
375.58	615.56
375.78	559.39
375.97	517.26
376.17	582.79
376.37	594.50
376.56	587.47
376.76	615.56
376.95	599.18
377.15	627.26
377.35	667.05
377.54	575.77
377.74	617.90
377.93	550.03
378.13	697.48
378.33	617.90
378.52	538.32
378.72	657.69
378.91	660.03
379.11	650.67
379.31	571.09
379.50	578.11
379.70	671.73
379.89	678.76
380.09	713.86
380.28	667.05
380.48	610.88
380.68	610.88
380.87	695.14
381.07	669.39
381.26	709.18
381.46	669.39
381.65	624.92
381.85	709.18
382.04	711.52
382.24	664.71
382.43	727.91
382.63	667.05
382.83	704.50
383.02	641.31
383.22	697.48
383.41	641.31
383.61	629.60
383.80	744.29
384.00	823.87
384.19	772.38
384.39	716.20
384.58	716.20
384.78	770.04
384.97	734.93
385.17	774.72
385.36	779.40
385.56	873.02
385.75	723.23
385.95	798.12
386.14	765.36
386.34	751.31
386.53	786.42
386.72	711.52
386.92	800.46
387.11	816.85
387.31	828.55
387.50	800.46
387.70	765.36
387.89	786.42
388.09	765.36
388.28	802.80
388.48	814.51
388.67	884.72
388.86	791.10
389.06	847.27
389.25	884.72
389.45	915.15
389.64	898.77
389.84	866.00
390.03	823.87
390.22	912.81
390.42	919.83
390.61	1013.45
390.81	919.83
391.00	873.02
391.19	1071.97
391.39	999.41
391.58	1060.26
391.78	917.49
391.97	990.05
392.16	978.34
392.36	1013.45
392.55	973.66
392.75	926.85
392.94	950.26
393.13	973.66
393.33	933.87
393.52	966.64
393.71	1057.92
393.91	1071.97
394.10	997.07
394.29	1015.79
394.49	1076.65
394.68	1109.41
394.88	1121.12
395.07	1064.94
395.26	1203.04
395.46	1144.52
395.65	1160.91
395.84	1160.91
396.04	1210.06
396.23	1156.22
396.42	1181.97
396.62	1200.69
396.81	1191.33
397.00	1095.37
397.19	1299.00
397.39	1221.76
397.58	1191.33
397.77	1280.27
397.97	1289.64
398.16	1296.66
398.35	1371.55
398.55	1357.51
398.74	1256.87
398.93	1385.60
399.12	1397.30
399.32	1425.39
399.51	1383.26
399.70	1409.00
399.90	1437.09
400.09	1437.09
400.28	1565.82
400.47	1453.47
400.67	1479.22
400.86	1535.39
401.05	1547.09
401.24	1465.18
401.44	1467.52
401.63	1462.83
401.82	1474.54
402.01	1497.94
402.21	1582.20
402.40	1619.65
402.59	1486.24
402.78	1607.95
402.97	1582.20
403.17	1617.31
403.36	1629.01
403.55	1659.44
403.74	1713.27
403.93	1561.14
404.13	1600.93
404.32	1666.46
404.51	1661.78
404.70	1666.46
404.89	1706.25
405.09	1827.96
405.28	1741.36
405.47	1792.85
405.66	1781.15
405.85	1881.79
406.05	1767.10
406.24	1818.60
406.43	1792.85
406.62	1963.71
406.81	1919.24
407.00	1795.19
407.20	1898.17
407.39	1895.83
407.58	1975.41
407.77	1998.82
407.96	1872.43
408.15	2038.61
408.34	2040.95
408.54	2073.71
408.73	2008.18
408.92	2162.66
409.11	2134.57
409.30	2045.63
409.49	2083.08
409.68	2125.21
409.87	2148.61
410.07	2176.70
410.26	2132.23
410.45	2160.31
410.64	2186.06
410.83	2293.72
411.02	2228.19
411.21	2310.11
411.40	2249.25
411.59	2228.19
411.78	2385.01
411.98	2326.49
412.17	2403.73
412.36	2406.07
412.55	2417.77
412.74	2464.58
412.93	2427.14
413.12	2359.26
413.31	2619.06
413.50	2459.90
413.69	2499.69
413.88	2787.58
414.07	2537.14
414.26	2693.96
414.45	2679.91
414.64	2738.43
414.83	2715.02
415.02	2738.43
415.22	2796.94
415.41	2939.71
415.60	2768.85
415.79	2913.97
415.98	2885.88
416.17	2888.22
416.36	2759.49
416.55	3023.97
416.74	2904.60
416.93	2979.50
417.12	2944.39
417.31	3033.33
417.50	2918.65
417.69	3087.17
417.88	3122.27
418.07	3117.59
418.26	2984.18
418.45	3276.75
418.64	3328.24
418.83	3300.16
419.02	3166.74
419.21	3412.50
419.39	3166.74
419.58	3169.09
419.77	3316.54
419.96	3304.84
420.15	3391.44
420.34	3379.73
420.53	3391.44
420.72	3583.36
420.91	3391.44
421.10	3321.22
421.29	3382.07
421.48	3407.82
421.67	3485.06
421.86	3407.82
422.05	3480.38
422.24	3370.37
422.43	3447.61
422.61	3592.72
422.80	3672.30
422.99	3564.64
423.18	3641.87
423.37	3559.95
423.56	3602.08
423.75	3595.06
423.94	3503.78
424.13	3316.54
424.32	3527.19
424.50	3552.93
424.69	3824.44
424.88	3658.26
425.07	3625.49
425.26	3524.85
425.45	3653.58
425.64	3625.49
425.83	3538.89
426.01	3714.43
426.20	3723.79
426.39	3658.26
426.58	3679.32
426.77	3597.40
426.96	3721.45
427.15	3658.26
427.33	3606.77
427.52	3618.47
427.71	3817.41
427.90	3763.58
428.09	3871.25
428.28	3775.28
428.46	3831.46
428.65	3822.09
428.84	3871.25
429.03	3864.22
429.22	3815.07
429.40	3761.24
429.59	3866.56
429.78	3747.20
429.97	3606.77
430.16	3791.67
430.34	3791.67
430.53	3915.72
430.72	3978.91
430.91	4028.06
431.10	3967.21
431.28	4154.45
431.47	4166.15
431.66	4280.84
431.85	4102.96
432.03	4212.96
432.22	4320.63
432.41	4287.86
432.60	4311.27
432.79	4273.82
432.97	4365.10
433.16	4428.29
433.35	4203.60
433.54	4376.80
433.72	4308.93
433.91	4351.06
434.10	4400.21
434.28	4367.44
434.47	4587.45
434.66	4407.23
434.85	4489.15
435.03	4423.61
435.22	4575.75
435.41	4526.60
435.59	4702.14
435.78	4748.95
435.97	4671.71
436.16	4564.04
436.34	4615.54
436.53	4795.76
436.72	4812.14
436.90	4582.77
437.09	4812.14
437.28	4620.22
437.46	4809.80
437.65	4840.23
437.84	4994.70
438.02	4880.02
438.21	4676.39
438.40	4552.34
438.58	4828.53
438.77	4966.62
438.96	4971.30
439.14	5067.26
439.33	5193.65
439.52	5116.41
439.70	5144.50
439.89	5233.44
440.08	5184.29
440.26	5270.89
440.45	5153.86
440.63	5313.02
440.82	5394.93
441.01	5296.63
441.19	5397.28
441.38	5673.46
441.57	5390.25
441.75	5600.90
441.94	5612.60
442.12	5645.37
442.31	5734.31
442.50	5738.99
442.68	5785.80
442.87	5755.38
443.05	5755.38
443.24	5788.14
443.43	5839.64
443.61	5881.77
443.80	5891.13
443.98	5743.67
444.17	5696.86
444.35	5776.44
444.54	5865.38
444.73	5818.57
444.91	5834.96
445.10	5977.73
445.28	5905.17
445.47	5734.31
445.65	5860.70
445.84	5996.45
446.02	5909.85
446.21	6026.88
446.39	6022.20
446.58	6069.01
446.77	5994.11
446.95	5914.53
447.14	6115.82
447.32	6239.87
447.51	5937.94
447.69	6054.97
447.88	6005.81
448.06	6003.47
448.25	6087.73
448.43	6097.10
448.62	6069.01
448.80	6108.80
448.99	6204.76
449.17	6342.85
449.36	6122.84
449.54	6387.32
449.73	6494.99
449.91	6494.99
450.10	6324.13
450.28	6490.31
450.46	6471.58
450.65	6558.18
450.83	6469.24
451.02	6635.42
451.20	6567.54
451.39	6485.62
451.57	6469.24
451.76	6478.60
451.94	6616.69
452.13	6541.80
452.31	6539.46
452.49	6576.91
452.68	6497.33
452.86	6668.19
453.05	6630.74
453.23	6609.67
453.42	6698.61
453.60	6558.18
453.78	6705.63
453.97	6724.36
454.15	6637.76
454.34	6848.41
454.52	6925.65
454.70	6806.28
454.89	6937.35
455.07	6794.58
455.26	7101.19
455.44	6981.82
455.62	7145.66
455.81	7035.65
455.99	7171.40
456.17	6857.77
456.36	7108.21
456.54	7140.97
456.73	7307.15
456.91	7389.07
457.09	7377.37
457.28	7527.16
457.46	7297.79
457.64	7325.88
457.83	7180.76
458.01	7248.64
458.19	7494.40
458.38	7487.37
458.56	7499.08
458.74	7524.82
458.93	7592.70
459.11	7564.61
459.29	7536.52
459.48	7585.68
459.66	7604.40
459.84	7658.23
460.03	7658.23
460.21	7873.56
460.39	7747.17
460.57	7719.09
460.76	7793.98
460.94	7843.14
461.12	7873.56
461.31	7793.98
461.49	7824.41
461.67	7801.01
461.85	8030.38
462.04	8006.97
462.22	8381.46
462.40	7875.90
462.59	7983.57
462.77	8102.93
462.95	8191.88
463.13	8273.79
463.32	8065.49
463.50	8379.12
463.68	8166.13
463.86	8404.86
464.05	8149.75
464.23	8198.90
464.41	8367.42
464.59	8166.13
464.78	8395.50
464.96	8358.05
465.14	8039.74
465.32	8285.50
465.50	8344.01
465.69	8416.57
465.87	8573.38
466.05	8486.78
466.23	8395.50
466.41	8402.52
466.60	8681.05
466.78	8306.56
466.96	8505.51
467.14	8336.99
467.32	8788.71
467.51	8645.94
467.69	8484.44
467.87	8767.65
468.05	8634.24
468.23	8582.74
468.41	8643.60
468.60	8655.30
468.78	8847.22
468.96	8863.61
469.14	8774.67
469.32	8959.57
469.50	8711.47
469.69	8891.70
469.87	8837.86
470.05	9116.39
470.23	8903.40
470.41	8999.36
470.59	9191.28
470.77	9167.88
470.95	9200.65
471.14	9287.25
471.32	9198.31
471.50	9551.73
471.68	9355.12
471.86	9423.00
472.04	9703.86
472.22	9678.12
472.40	9437.04
472.58	9369.16
472.77	9434.70
472.95	9806.84
473.13	9935.57
473.31	9640.67
473.49	9701.52
473.67	9966.00
473.85	9554.07
474.03	9867.70
474.21	10038.56
474.39	10120.48
474.57	10174.31
474.75	10167.29
474.93	10284.31
475.12	10251.55
475.30	10132.18
475.48	10127.50
475.66	10413.04
475.84	10347.51
476.02	10506.66
476.20	10700.93
476.38	10595.61
476.56	10881.15
476.74	10752.42
476.92	10874.13
477.10	10991.16
477.28	11133.93
477.46	11021.58
477.64	11417.13
477.82	11513.10
478.00	11775.24
478.18	11447.56
478.36	11517.78
478.54	11709.70
478.72	11906.31
478.90	12142.70
479.08	12154.40
479.26	12229.30
479.44	12285.47
479.62	12421.22
479.80	12341.64
479.98	12423.56
480.16	12938.48
480.34	12535.91
480.52	12587.40
480.70	12734.85
480.88	12643.57
481.06	12961.89
481.24	12631.87
481.41	13198.28
481.59	13191.26
481.77	13191.26
481.95	13404.25
482.13	13502.55
482.31	13502.55
482.49	13752.99
482.67	13678.09
482.85	14031.51
483.03	13970.66
483.21	14136.84
483.39	14057.26
483.57	14305.35
483.74	14403.66
483.92	14265.57
484.10	14394.29
484.28	14712.61
484.46	15124.54
484.64	15236.89
484.82	14696.22
485.00	14951.34
485.18	15419.45
485.35	15555.20
485.53	14967.73
485.71	15009.86
485.89	15496.69
486.07	15393.70
486.25	15707.34
486.43	15702.65
486.61	15967.13
486.78	16208.21
486.96	16098.20
487.14	16718.45
487.32	16697.38
487.50	16517.16
487.68	16863.56
487.85	17310.60
488.03	17682.75
488.21	17315.28
488.39	17235.70
488.57	17231.02
488.75	17319.96
488.92	17673.39
489.10	17612.53
489.28	17980.00
489.46	18197.67
489.64	18223.41
489.81	18672.79
489.99	18532.36
490.17	18633.00
490.35	18841.31
490.53	18778.12
490.70	19124.52
490.88	18813.23
491.06	19389.00
491.24	19302.40
491.41	19058.98
491.59	19150.26
491.77	19302.40
491.95	19496.66
492.13	19646.46
492.30	19971.79
492.48	20039.67
492.66	20198.82
492.84	20313.51
493.01	20168.40
493.19	20540.54
493.37	20781.62
493.54	20716.08
493.72	20781.62
493.90	21149.08
494.08	21338.66
494.25	21453.35
494.43	21694.43
494.61	21364.41
494.79	22115.72
494.96	21715.49
495.14	21757.62
495.32	22211.68
495.49	22321.69
495.67	22291.26
495.85	22408.29
496.02	22291.26
496.20	23016.83
496.38	22579.15
496.55	22712.56
496.73	23424.08
496.91	23035.55
497.09	23138.54
497.26	23452.17
497.44	23178.33
497.62	23585.58
497.79	23323.44
497.97	23484.94
498.14	23740.05
498.32	23662.82
498.50	23789.20
498.67	24535.84
498.85	24222.20
499.03	24510.09
499.20	24142.63
499.38	24496.05
499.56	24521.79
499.73	24533.50
499.91	24922.02
500.08	24748.82
500.26	24800.32
500.44	24879.89
500.61	24915.00
500.79	24779.25
500.97	25392.47
501.14	25811.43
501.32	25509.50
501.49	25502.48
501.67	25427.58
501.84	25671.00
502.02	25663.97
502.20	25940.16
502.37	26087.61
502.55	25706.10
502.72	26080.59
502.90	26146.12
503.07	26106.34
503.25	26539.33
503.43	26305.28
503.60	26387.20
503.78	26539.33
503.95	26649.34
504.13	26813.18
504.30	26728.92
504.48	27115.11
504.65	27054.25
504.83	26906.80
505.01	27035.53
505.18	26757.00
505.36	27564.49
505.53	27615.98
505.71	27770.46
505.88	27957.70
506.06	27335.12
506.23	27810.25
506.41	27466.19
506.58	27828.97
506.76	27920.25
506.93	28439.85
507.11	28182.39
507.28	28505.38
507.46	28198.77
507.63	28161.33
507.81	28718.37
507.98	28554.54
508.16	28512.41
508.33	28652.84
508.50	28517.09
508.68	28982.85
508.85	29172.44
509.03	29256.70
509.20	29273.08
509.38	29247.33
509.55	29106.90
509.73	29373.72
509.90	29284.78
510.08	29411.17
510.25	29530.54
510.42	29654.59
510.60	29902.68
510.77	30150.78
510.95	29996.31
511.12	29743.53
511.30	30361.43
511.47	30429.30
511.64	30302.92
511.82	30506.54
511.99	30558.03
512.17	30389.52
512.34	30632.93
512.51	30569.74
512.69	30501.86
512.86	30668.04
513.04	30740.60
513.21	30710.17
513.38	30810.81
513.56	31229.77
513.73	30831.88
513.90	31243.81
514.08	31182.96
514.25	31016.78
514.43	31358.50
514.60	31487.23
514.77	31222.75
514.95	31796.18
515.12	31529.36
515.29	31936.61
515.47	31960.02
515.64	32044.27
515.81	31880.44
515.99	31681.49
516.16	32109.81
516.33	31971.72
516.51	31908.52
516.68	31751.71
516.85	31576.17
517.03	32479.61
517.20	32407.06
517.37	32409.40
517.54	32526.42
517.72	32568.55
517.89	32753.46
518.06	32393.01
518.24	32432.80
518.41	32533.45
518.58	32348.54
518.75	32739.41
518.93	32924.32
519.10	33001.55
519.27	33331.57
519.45	32940.70
519.62	33244.97
519.79	33659.24
519.96	33312.84
520.14	33766.91
520.31	33193.48
520.48	33809.04
520.65	33762.23
520.83	34029.05
521.00	34181.18
521.17	33958.83
521.34	33926.07
521.52	34211.61
521.69	34546.31
521.86	34281.83
522.03	34260.76
522.20	34314.59
522.38	34653.97
522.55	34824.83
522.72	34576.73
522.89	34820.15
523.07	34668.02
523.24	34831.85
523.41	34902.07
523.58	34869.30
523.75	35161.87
523.92	35164.21
524.10	35374.86
524.27	35285.92
524.44	35629.98
524.61	35618.27
524.78	35353.79
524.96	35924.88
525.13	35793.81
525.30	35765.73
525.47	35845.30
525.64	36282.98
525.81	35536.35
525.98	35779.77
526.16	35283.58
526.33	35641.68
526.50	36123.83
526.67	35613.59
526.84	35543.38
527.01	35824.24
527.18	35695.51
527.36	36222.13
527.53	36203.41
527.70	36613.00
527.87	36620.02
528.04	36240.86
528.21	36376.61
528.38	36381.29
528.55	37031.96
528.72	37020.25
528.89	37010.89
529.07	37008.55
529.24	36713.64
529.41	36723.01
529.58	36711.30
529.75	37184.09
529.92	37443.89
530.09	37598.37
530.26	36992.17
530.43	37404.10
530.60	37097.49
530.77	37235.58
530.94	37647.52
531.11	37244.94
531.28	37460.27
531.46	37490.70
531.63	37448.57
531.80	37617.09
531.97	37600.71
532.14	37621.77
532.31	37083.45
532.48	37909.66
532.65	37916.68
532.82	37516.45
532.99	37965.83
533.16	38117.96
533.33	38101.58
533.50	38363.72
533.67	38440.96
533.84	38141.37
534.01	38340.32
534.18	38265.42
534.35	38497.13
534.52	37766.88
534.69	38583.73
534.86	38693.74
535.03	38132.01
535.20	38497.13
535.37	38864.60
535.54	38939.49
535.71	39182.91
535.88	38298.19
536.05	38831.83
536.22	39138.44
536.38	38412.87
536.55	38754.59
536.72	39416.96
536.89	38806.08
537.06	38946.51
537.23	39269.51
537.40	38841.19
537.57	39112.69
537.74	39515.26
537.91	39505.90
538.08	38937.15
538.25	38927.79
538.42	39438.03
538.59	39608.89
538.75	39435.69
538.92	39056.52
539.09	39257.81
539.26	39608.89
539.43	39433.35
539.60	39569.10
539.77	39414.62
539.94	39833.58
540.11	39732.93
540.28	39737.62
540.44	39498.88
540.61	39655.70
540.78	39754.00
540.95	39260.15
541.12	39807.83
541.29	39915.50
541.46	39936.56
541.62	40231.47
541.79	40399.99
541.96	39878.05
542.13	39978.69
542.30	40074.65
542.47	40416.37
542.63	40210.40
542.80	40687.87
542.97	40748.73
543.14	40994.48
543.31	40849.37
543.48	40924.27
543.64	41322.16
543.81	40804.90
543.98	40900.86
544.15	40266.58
544.32	40875.12
544.48	40978.10
544.65	40978.10
544.82	41371.31
544.99	40762.77
545.16	41233.22
545.32	41130.23
545.49	41610.04
545.66	41584.30
545.83	41202.79
546.00	41425.14
546.16	41439.18
546.33	41560.89
546.50	41163.00
546.67	41315.14
546.83	40973.42
547.00	41603.02
547.17	41844.10
547.34	41731.75
547.50	41773.88
547.67	41633.45
547.84	41792.61
548.00	42223.26
548.17	41858.14
548.34	42115.60
548.51	41933.04
548.67	41982.19
548.84	41832.39
549.01	41823.03
549.18	42218.58
549.34	42553.28
549.51	42445.62
549.68	41951.76
549.84	42192.84
550.01	42557.96
550.18	42218.58
550.34	42113.26
550.51	42586.05
550.68	41993.89
550.84	41989.21
551.01	42483.06
551.18	42305.18
551.34	42380.08
551.51	42550.94
551.68	42415.19
551.84	42625.84
552.01	42387.10
552.18	42684.35
552.34	42370.72
552.51	42686.69
552.68	42642.22
552.84	43009.68
553.01	43105.65
553.18	43040.11
553.34	42497.11
553.51	42040.70
553.67	42632.86
553.84	42946.49
554.01	43150.12
554.17	43220.33
554.34	43042.45
554.51	42983.94
554.67	43105.65
554.84	43393.53
555.00	42916.06
555.17	42883.30
555.33	43494.18
555.50	43210.97
555.67	43260.12
555.83	43278.85
556.00	42731.16
556.16	43482.47
556.33	43337.36
556.50	43054.15
556.66	43487.15
556.83	43175.86
556.99	43461.41
557.16	43175.86
557.32	43548.01
557.49	43601.84
557.65	43480.13
557.82	43288.21
557.98	43533.96
558.15	43498.86
558.32	43824.19
558.48	43599.50
558.65	43800.79
558.81	43459.07
558.98	43597.16
559.14	43842.92
559.31	43540.99
559.47	43910.79
559.64	44339.11
559.80	44301.66
559.97	44083.99
560.13	43529.28
560.30	44280.60
560.46	43896.75
560.63	43896.75
560.79	44144.84
560.96	43702.48
561.12	43381.83
561.29	44308.68
561.45	44261.87
561.61	44194.00
561.78	44121.44
561.94	44140.16
562.11	44100.37
562.27	43863.98
562.44	44102.71
562.60	43814.83
562.77	44301.66
562.93	43840.57
563.10	43997.39
563.26	43817.17
563.42	44004.41
563.59	44229.10
563.75	44367.20
563.92	44456.14
564.08	44088.67
564.24	44495.92
564.41	44215.06
564.57	43964.62
564.74	44140.16
564.90	44655.08
565.07	44341.45
565.23	44619.97
565.39	44114.42
565.56	44540.39
565.72	44355.49
565.88	44172.93
566.05	44570.82
566.21	44098.03
566.38	44215.06
566.54	44507.63
566.70	44416.35
566.87	44947.65
567.03	44467.84
567.19	44751.04
567.36	44622.31
567.52	44119.10
567.68	44755.72
567.85	44488.90
568.01	44493.58
568.17	44706.57
568.34	44832.96
568.50	44514.65
568.66	44332.09
568.83	44629.34
568.99	44444.43
569.15	44058.24
569.32	44399.96
569.48	44577.84
569.64	44790.83
569.81	44467.84
569.97	44151.87
570.13	44692.53
570.30	44261.87
570.46	44086.33
570.62	44556.78
570.78	44332.09
570.95	44795.51
571.11	44727.64
571.27	44652.74
571.43	44444.43
571.60	44641.04
571.76	44114.42
571.92	44502.95
572.09	44285.28
572.25	44774.45
572.41	44816.58
572.57	44891.48
572.74	44751.04
572.90	44512.31
573.06	44706.57
573.22	44540.39
573.38	44821.26
573.55	44364.85
573.71	45202.77
573.87	44556.78
574.03	44095.69
574.20	44477.20
574.36	44432.73
574.52	44982.76
574.68	44456.14
574.84	45048.29
575.01	44584.86
575.17	44486.56
575.33	44631.68
575.49	44767.43
575.65	45071.70
575.82	44992.12
575.98	44898.50
576.14	45102.12
576.30	44797.85
576.46	44751.04
576.62	44748.70
576.79	44727.64
576.95	44484.22
577.11	44718.28
577.27	44935.95
577.43	44910.20
577.59	45008.50
577.75	44870.41
577.92	44477.20
578.08	44722.96
578.24	44458.48
578.40	44802.53
578.56	45141.91
578.72	44706.57
578.88	45368.94
579.04	45069.36
579.21	44706.57
579.37	44706.57
579.53	44858.71
579.69	45036.59
579.85	44942.97
580.01	44800.19
580.17	44612.95
580.33	44837.64
580.49	45088.08
580.65	44910.20
580.82	45088.08
580.98	45153.62
581.14	45109.14
581.30	44942.97
581.46	44935.95
581.62	45209.79
581.78	44720.62
581.94	45614.70
582.10	45116.17
582.26	44828.28
582.42	44652.74
582.58	44673.81
582.74	44673.81
582.90	44945.31
583.06	45106.80
583.22	45242.56
583.38	45078.72
583.54	45036.59
583.70	45280.00
583.86	45013.18
584.02	44842.32
584.18	44877.43
584.34	45074.04
584.50	45144.25
584.66	45010.84
584.82	44851.69
584.98	45340.86
585.14	45184.04
585.30	44697.21
585.46	44732.32
585.62	44870.41
585.78	44973.39
585.94	44856.37
586.10	44811.90
586.26	44973.39
586.42	45116.17
586.58	45141.91
586.74	45160.64
586.90	45081.06
587.06	44804.88
587.22	45167.66
587.38	44830.62
587.54	45375.97
587.70	45509.38
587.86	44872.75
588.02	45097.44
588.18	45474.27
588.34	45027.23
588.49	44744.02
588.65	44772.11
588.81	45057.65
588.97	45088.08
589.13	44907.86
589.29	45006.16
589.45	44779.13
589.61	45048.29
589.77	45160.64
589.93	44992.12
590.08	45284.68
590.24	45202.77
590.40	45478.95
590.56	45495.33
590.72	45113.83
590.88	45118.51
591.04	45038.93
591.20	45605.34
591.35	45179.36
591.51	45624.06
591.67	45317.45
591.83	45256.60
591.99	44961.69
592.15	45200.43
592.31	45296.39
592.46	45198.09
592.62	44741.68
592.78	45294.05
592.94	45647.47
593.10	45446.18
593.26	45202.77
593.41	45174.68
593.57	45031.91
593.73	45191.06
593.89	45462.57
594.05	44858.71
594.20	44952.33
594.36	45797.26
594.52	45029.57
594.68	45261.28
594.84	45198.09
594.99	45848.75
595.15	45502.35
595.31	45134.89
595.47	45462.57
595.62	45413.41
595.78	45490.65
595.94	45144.25
596.10	45656.83
596.25	45635.77
596.41	45565.55
596.57	45116.17
596.73	45553.85
596.88	45071.70
597.04	45205.11
597.20	45436.82
597.36	45106.80
597.51	45972.80
597.67	45495.33
597.83	45375.97
597.99	45610.02
598.14	45366.60
598.30	45071.70
598.46	45371.28
598.61	45603.00
598.77	45076.38
598.93	45343.20
599.09	45368.94
599.24	45570.23
599.40	45469.59
599.56	45783.22
599.71	45979.82
599.87	45418.10
600.03	45682.58
600.18	45198.09
600.34	45488.31
600.50	45312.77
600.65	45549.17
600.81	45429.80
600.97	45195.74
601.12	45860.46
601.28	45390.01
601.44	45659.17
601.59	45539.80
601.75	45371.28
601.91	45158.30
602.06	45511.72
602.22	45581.93
602.37	45364.26
602.53	45361.92
602.69	45233.19
602.84	45647.47
603.00	45595.98
603.16	45069.36
603.31	45404.05
603.47	45656.83
603.62	45219.15
603.78	45663.85
603.94	45233.19
604.09	45317.45
604.25	45455.54
604.40	45427.46
604.56	45387.67
604.71	45270.64
604.87	45104.46
605.03	45495.33
605.18	45160.64
605.34	45333.84
605.49	44935.95
605.65	45345.54
605.80	45265.96
605.96	45317.45
606.12	45408.73
606.27	45612.36
606.43	45226.17
606.58	45387.67
606.74	45244.90
606.89	45497.67
607.05	45139.57
607.20	45088.08
607.36	44975.73
607.51	45132.55
607.67	45153.62
607.82	45022.54
607.98	44978.07
608.13	44648.06
608.29	44816.58
608.44	44807.22
608.60	44680.83
608.75	44987.44
608.91	44201.02
609.06	44837.64
609.22	45296.39
609.37	45024.89
609.53	44809.56
609.68	44973.39
609.84	44844.66
609.99	44746.36
610.15	45074.04
610.30	44720.62
610.46	44346.13
610.61	45205.11
610.76	45287.03
610.92	45162.98
611.07	44933.60
611.23	44458.48
611.38	44435.07
611.54	44854.03
611.69	44554.44
611.84	44570.82
612.00	44823.60
612.15	44367.20
612.31	44779.13
612.46	45015.52
612.62	44818.92
612.77	44907.86
612.92	44811.90
613.08	44634.02
613.23	44685.51
613.39	44414.01
613.54	44168.25
613.69	44449.11
613.85	44601.25
614.00	44959.35
614.15	44790.83
614.31	44753.38
614.46	44900.84
614.62	44521.67
614.77	44388.26
614.92	44823.60
615.08	44168.25
615.23	44470.18
615.38	44308.68
615.54	44011.43
615.69	44409.32
615.84	43908.45
616.00	43693.12
616.15	43863.98
616.30	43978.67
616.46	43866.32
616.61	43938.88
616.76	44327.41
616.92	43988.03
617.07	44243.15
617.22	43945.90
617.37	43779.72
617.53	44243.15
617.68	43833.55
617.83	44046.54
617.99	44182.29
618.14	44140.16
618.29	43604.18
618.45	43508.22
618.60	43871.00
618.75	43875.68
618.90	43847.60
619.06	43910.79
619.21	43849.94
619.36	44161.23
619.51	43400.55
619.67	43772.70
619.82	43805.47
619.97	43821.85
620.12	43426.30
620.28	43468.43
620.43	43524.60
620.58	43501.20
620.73	43178.20
620.89	43232.04
621.04	43552.69
621.19	43143.09
621.34	43089.26
621.49	43285.87
621.65	43540.99
621.80	43611.20
621.95	43503.54
622.10	43037.77
622.25	43442.68
622.41	42979.26
622.56	42906.70
622.71	43187.56
622.86	43098.62
623.01	43342.04
623.16	43578.43
623.32	43079.90
623.47	43557.37
623.62	42801.38
623.77	42450.30
623.92	43100.97
624.07	42667.97
624.23	42698.39
624.38	43342.04
624.53	42864.57
624.68	43021.39
624.83	43136.07
624.98	43044.79
625.13	42167.09
625.29	42866.91
625.44	42656.26
625.59	42452.64
625.74	42707.76
625.89	42361.36
626.04	42047.72
626.19	42635.20
626.34	42789.67
626.49	42354.33
626.65	42438.59
626.80	42710.10
626.95	42824.78
627.10	42401.14
627.25	42564.98
627.40	42066.45
627.55	42082.83
627.70	41703.67
627.85	42541.58
628.00	42384.76
628.15	42644.56
628.30	42150.71
628.45	42326.25
628.60	41921.34
628.76	42249.01
628.91	42511.15
629.06	42316.89
629.21	42094.53
629.36	41720.05
629.51	41886.23
629.66	41890.91
629.81	41478.97
629.96	41827.71
630.11	42052.41
630.26	41511.74
630.41	42300.50
630.56	41666.22
630.71	42153.05
630.86	41694.30
631.01	41958.78
631.16	41750.48
631.31	41422.80
631.46	41453.23
631.61	41897.93
631.76	41923.68
631.91	41394.71
632.06	41333.86
632.21	41441.53
632.36	41226.20
632.51	40961.72
632.66	41247.26
632.81	41244.92
632.96	41413.44
633.10	41155.98
633.25	41179.39
633.40	40708.94
633.55	41340.88
633.70	41518.76
633.85	40947.67
634.00	41741.11
634.15	40971.08
634.30	40765.11
634.45	41106.83
634.60	41151.30
634.75	41144.28
634.90	41069.38
635.05	40847.03
635.19	40940.65
635.34	41364.29
635.49	41193.43
635.64	41003.85
635.79	40659.79
635.94	40622.34
636.09	40594.25
636.24	40793.20
636.39	40179.98
636.53	40458.50
636.68	40491.27
636.83	40748.73
636.98	40486.59
637.13	40341.47
637.28	40671.49
637.43	40903.20
637.57	40505.31
637.72	40912.56
637.87	40825.96
638.02	40378.92
638.17	40673.83
638.32	40325.09
638.46	40123.80
638.61	40608.29
638.76	40278.28
638.91	40662.13
639.06	40051.25
639.20	40294.66
639.35	41015.55
639.50	40395.31
639.65	40243.17
639.80	40360.20
639.94	40163.59
640.09	39971.67
640.24	39917.84
640.39	40067.63
640.54	40158.91
640.68	39791.45
640.83	39622.93
640.98	39826.56
641.13	39681.44
641.27	40240.83
641.42	39475.48
641.57	39931.88
641.72	40100.40
641.86	39655.70
642.01	39725.91
642.16	39784.43
642.31	39470.79
642.45	39908.47
642.60	39002.69
642.75	39061.20
642.90	39646.33
643.04	39599.52
643.19	39505.90
643.34	39693.15
643.48	39608.89
643.63	39449.73
643.78	39356.11
643.93	39168.87
644.07	39618.25
644.22	39288.23
644.37	38562.67
644.51	39105.67
644.66	39510.58
644.81	39007.37
644.95	39349.09
645.10	39316.32
645.25	39826.56
645.39	39318.66
645.54	39604.20
645.69	38995.67
645.83	38667.99
645.98	39164.18
646.13	39264.83
646.27	39058.86
646.42	39089.29
646.57	38845.87
646.71	39234.40
646.86	39093.97
647.00	38990.98
647.15	39154.82
647.30	38993.32
647.44	39489.52
647.59	39035.45
647.74	38850.55
647.88	39007.37
648.03	38918.43
648.17	38752.25
648.32	38071.15
648.47	38728.84
648.61	38387.13
648.76	38927.79
648.90	38700.76
649.05	38909.07
649.20	38888.00
649.34	38653.95
649.49	38436.28
649.63	38403.51
649.78	38361.38
649.92	38569.69
650.07	38639.90
650.21	38176.48
650.36	38190.52
650.51	38403.51
650.65	38658.63
650.80	38778.00
650.94	38817.78
651.09	38433.94
651.23	38368.40
651.38	38026.68
651.52	38078.18
651.67	38160.09
651.81	38031.36
651.96	38167.12
652.10	38562.67
652.25	37816.04
652.39	38462.02
652.54	37689.65
652.68	38160.09
652.83	37783.27
652.97	38199.88
653.12	38300.53
653.26	37619.43
653.41	38061.79
653.55	37684.97
653.70	37680.28
653.84	37816.04
653.99	38117.96
654.13	38134.35
654.27	37469.64
654.42	37834.76
654.56	37682.62
654.71	37816.04
654.85	38012.64
655.00	37450.91
655.14	37528.15
655.29	37359.63
655.43	36978.12
655.57	36919.61
655.72	37092.81
655.86	36823.65
656.01	37347.93
656.15	37418.14
656.30	37294.10
656.44	37116.22
656.58	37132.60
656.73	37074.09
656.87	37401.76
657.01	37160.69
657.16	37027.28
657.30	36893.86
657.45	37046.00
657.59	37062.38
657.73	36783.86
657.88	36783.86
658.02	37174.73
658.16	36418.74
658.31	37249.63
658.45	36861.10
658.60	37200.47
658.74	36924.29
658.88	36715.98
659.03	36215.11
659.17	36430.44
659.31	36126.17
659.46	36339.16
659.60	36273.62
659.74	36727.69
659.89	35990.42
660.03	36184.68
660.17	36416.40
660.32	36315.75
660.46	36772.16
660.60	36353.20
660.74	36418.74
660.89	36154.26
661.03	36065.31
661.17	35491.88
661.32	36016.16
661.46	36282.98
661.60	35819.56
661.74	36065.31
661.89	35793.81
662.03	35915.52
662.17	35943.61
662.31	35688.49
662.46	35615.93
662.60	35608.91
662.74	35875.73
662.88	36151.91
663.03	35903.82
663.17	35915.52
663.31	35377.20
663.45	35126.76
663.60	35421.67
663.74	35159.53
663.88	35208.68
664.02	35274.21
664.17	34871.64
664.31	34782.70
664.45	34611.84
664.59	35028.46
664.73	34733.55
664.88	34944.20
665.02	34642.27
665.16	35159.53
665.30	34766.32
665.44	34831.85
665.59	34225.65
665.73	34462.05
665.87	34380.13
666.01	34370.77
666.15	34302.89
666.29	34693.76
666.44	34469.07
666.58	34316.93
666.72	34183.52
666.86	34078.20
667.00	34490.13
667.14	34167.14
667.28	33965.85
667.43	33780.95
667.57	34108.63
667.71	33923.72
667.85	34227.99
667.99	33851.17
668.13	33350.29
668.27	33528.17
668.41	33736.48
668.56	33228.59
668.70	33687.33
668.84	33553.92
668.98	33256.67
669.12	33120.92
669.26	33369.02
669.40	33102.20
669.54	33074.11
669.68	33450.94
669.82	32826.01
669.96	32797.93
670.10	33048.36
670.25	33151.35
670.39	33048.36
670.53	33071.77
670.67	32807.29
670.81	32989.85
670.95	32701.96
671.09	32978.15
671.23	32456.21
671.37	32657.49
671.51	32512.38
671.65	32491.32
671.79	32191.73
671.93	32084.06
672.07	32161.30
672.21	32144.92
672.35	31859.37
672.49	32182.37
672.63	31960.02
672.77	31969.38
672.91	31840.65
673.05	31494.25
673.19	31597.23
673.33	31627.66
673.47	31622.98
673.61	31388.92
673.75	31199.34
673.89	31201.68
674.03	31126.78
674.17	30831.88
674.31	31058.91
674.45	31021.46
674.59	30920.82
674.73	31353.82
674.87	30984.01
675.01	30916.14
675.15	31101.04
675.29	30972.31
675.43	30679.74
675.56	30962.95
675.70	30590.80
675.84	30403.56
675.98	29235.63
676.12	30326.32
676.26	29731.83
676.40	30113.33
676.54	29633.52
676.68	29694.38
676.82	29205.20
676.96	29663.95
677.10	29677.99
677.23	29591.39
677.37	29219.25
677.51	29497.77
677.65	29177.12
677.79	29106.90
677.93	29015.62
678.07	28964.13
678.21	29181.80
678.34	28786.25
678.48	28725.39
678.62	28666.88
678.76	28453.89
678.90	28584.96
679.04	28374.31
679.18	28341.55
679.31	28137.92
679.45	27899.19
679.59	27885.14
679.73	27960.04
679.87	28006.85
680.00	27887.48
680.14	27496.61
680.28	27459.16
680.42	27634.71
680.56	27623.00
680.70	27740.03
680.83	27384.27
680.97	26747.64
681.11	27072.98
681.25	26820.20
681.39	26962.97
681.52	26764.03
681.66	27187.66
681.80	26696.15
681.94	26352.09
682.07	26546.36
682.21	26340.39
682.35	26476.14
682.49	26452.73
682.62	26520.61
682.76	26052.50
682.90	25982.29
683.04	25902.71
683.17	26061.87
683.31	26031.44
683.45	25977.61
683.59	25507.16
683.72	25453.33
683.86	25362.04
684.00	25656.95
684.13	25823.13
684.27	25329.28
684.41	25514.18
684.55	25525.88
684.68	24673.93
684.82	25017.99
684.96	24783.93
685.09	24699.67
685.23	24788.61
685.37	24795.64
685.50	24622.44
685.64	24734.78
685.78	24491.37
685.91	24201.14
686.05	24477.32
686.19	23824.31
686.32	23798.57
686.46	23576.22
686.60	23805.59
686.73	23601.96
686.87	23573.88
687.01	23033.21
687.14	23192.37
687.28	23035.55
687.42	22752.35
687.55	23005.13
687.69	23009.81
687.82	23178.33
687.96	22960.66
688.10	22752.35
688.23	22635.32
688.37	22279.56
688.50	22286.58
688.64	22312.33
688.78	22298.28
688.91	22228.07
689.05	22087.64
689.18	22277.22
689.32	21869.97
689.46	22008.06
689.59	22108.70
689.73	21893.37
689.86	21827.84
690.00	21605.49
690.13	21692.08
690.27	21841.88
690.41	21434.63
690.54	21317.60
690.68	21130.36
690.81	21177.17
690.95	21209.93
691.08	20903.32
691.22	20875.24
691.35	21212.28
691.49	21167.80
691.62	20931.41
691.76	20936.09
691.89	20830.77
692.03	20723.10
692.16	20446.92
692.30	20446.92
692.43	20381.38
692.57	20369.68
692.70	20102.86
692.84	20236.27
692.97	20053.71
693.11	19686.25
693.24	19709.65
693.38	19709.65
693.51	19714.33
693.65	19662.84
693.78	19686.25
693.92	19400.70
694.05	19599.65
694.19	19372.61
694.32	19171.33
694.45	19014.51
694.59	19323.46
694.72	18604.92
694.86	18876.42
694.99	18768.76
695.13	18600.24
695.26	18541.72
695.39	18333.42
695.53	18443.42
695.66	18436.40
695.80	18490.23
695.93	18246.82
696.07	18417.68
696.20	18298.31
696.33	18043.19
696.47	17823.18
696.60	17752.96
696.73	17699.13
696.87	17422.95
697.00	17619.55
697.14	17600.83
697.27	17619.55
697.40	17727.22
697.54	17591.47
697.67	17280.18
697.80	17493.16
697.94	17315.28
698.07	16931.44
698.21	17062.51
698.34	16999.31
698.47	16512.48
698.61	16575.67
698.74	16734.83
698.87	16631.85
699.01	16416.52
699.14	16212.89
699.27	16470.35
699.40	16428.22
699.54	16343.96
699.67	16060.76
699.80	16109.91
699.94	16250.34
700.07	16105.23
700.20	15964.79
700.34	15978.84
700.47	15922.66
700.60	15950.75
700.73	16123.95
700.87	15676.91
701.00	15728.40
701.13	15382.00
701.26	15199.44
701.40	15494.35
701.53	15185.40
701.66	15314.13
701.79	15260.29
701.93	15138.58
702.06	14815.59
702.19	14857.72
702.32	14939.64
702.46	14885.81
702.59	14796.87
702.72	14649.41
702.85	14728.99
702.99	14595.58
703.12	14764.10
703.25	14616.65
703.38	14743.03
703.51	14256.20
703.65	14242.16
703.78	14487.92
703.91	13846.61
704.04	14438.76
704.17	14057.26
704.31	13879.38
704.44	13944.91
704.57	13544.68
704.70	13493.19
704.83	13561.06
704.96	13652.34
705.10	13877.04
705.23	13860.65
>>>>>End Processed Spectral Data<<<<<
