SpectraSuite Data File
++++++++++++++++++++++++++++++++++++
Date: Fri Oct 25 10:47:50 EDT 2013
User: price-jones
Dark Spectrum Present: No
Reference Spectrum Present: No
Number of Sampled Component Spectra: 1
Spectrometers: USB2+H05261
Integration Time (usec): 100000 (USB2+H05261)
Spectra Averaged: 1 (USB2+H05261)
Boxcar Smoothing: 0 (USB2+H05261)
Correct for Electrical Dark: No (USB2+H05261)
Strobe/Lamp Enabled: No (USB2+H05261)
Correct for Detector Non-linearity: No (USB2+H05261)
Correct for Stray Light: No (USB2+H05261)
Number of Pixels in Processed Spectrum: 2048
>>>>>Begin Processed Spectral Data<<<<<
365.73	112.35
365.92	112.35
366.12	112.35
366.32	95.96
366.52	42.13
366.72	58.51
366.91	30.43
367.11	37.45
367.31	58.51
367.51	56.17
367.70	93.62
367.90	53.83
368.10	58.51
368.30	79.58
368.49	46.81
368.69	102.98
368.89	121.71
369.09	72.56
369.28	145.11
369.48	30.43
369.68	105.32
369.87	37.45
370.07	138.09
370.27	128.73
370.47	201.29
370.66	372.15
370.86	447.04
371.06	390.87
371.25	503.22
371.45	381.51
371.65	507.90
371.84	461.09
372.04	500.87
372.24	482.15
372.44	496.19
372.63	454.06
372.83	475.13
373.03	454.06
373.22	566.41
373.42	484.49
373.62	519.60
373.81	447.04
374.01	552.37
374.21	568.75
374.40	545.34
374.60	585.13
374.79	472.79
374.99	575.77
375.19	587.47
375.38	561.73
375.58	608.54
375.78	603.86
375.97	564.07
376.17	690.46
376.37	547.69
376.56	575.77
376.76	573.43
376.95	596.84
377.15	641.31
377.35	603.86
377.54	601.52
377.74	552.37
377.93	599.18
378.13	559.39
378.33	601.52
378.52	606.20
378.72	566.41
378.91	627.26
379.11	643.65
379.31	568.75
379.50	596.84
379.70	681.10
379.89	720.88
380.09	695.14
380.28	669.39
380.48	737.27
380.68	697.48
380.87	615.56
381.07	629.60
381.26	657.69
381.46	732.59
381.65	692.80
381.85	627.26
382.04	671.73
382.24	732.59
382.43	709.18
382.63	660.03
382.83	702.16
383.02	781.74
383.22	730.25
383.41	711.52
383.61	718.54
383.80	779.40
384.00	739.61
384.19	746.63
384.39	739.61
384.58	711.52
384.78	699.82
384.97	847.27
385.17	837.91
385.36	826.21
385.56	774.72
385.75	697.48
385.95	812.17
386.14	835.57
386.34	779.40
386.53	772.38
386.72	805.14
386.92	854.30
387.11	753.65
387.31	826.21
387.50	802.80
387.70	786.42
387.89	809.83
388.09	807.48
388.28	875.36
388.48	805.14
388.67	837.91
388.86	870.68
389.06	823.87
389.25	858.98
389.45	880.04
389.64	915.15
389.84	917.49
390.03	915.15
390.22	901.11
390.42	884.72
390.61	875.36
390.81	957.28
391.00	936.21
391.19	933.87
391.39	861.32
391.58	954.94
391.78	997.07
391.97	985.37
392.16	950.26
392.36	1013.45
392.55	1029.84
392.75	968.98
392.94	952.60
393.13	903.45
393.33	980.68
393.52	1004.09
393.71	1060.26
393.91	1029.84
394.10	1034.52
394.29	1001.75
394.49	1020.47
394.68	1149.20
394.88	1142.18
395.07	1074.31
395.26	1142.18
395.46	1081.33
395.65	1078.99
395.84	1226.44
396.04	1160.91
396.23	1086.01
396.42	987.71
396.62	1104.73
396.81	1167.93
397.00	1111.75
397.19	1093.03
397.39	1146.86
397.58	1268.57
397.77	1181.97
397.97	1341.13
398.16	1266.23
398.35	1345.81
398.55	1275.59
398.74	1273.25
398.93	1376.24
399.12	1320.06
399.32	1404.32
399.51	1430.07
399.70	1432.41
399.90	1404.32
400.09	1476.88
400.28	1413.68
400.47	1444.11
400.67	1488.58
400.86	1605.61
401.05	1516.67
401.24	1488.58
401.44	1425.39
401.63	1570.50
401.82	1467.52
402.01	1465.18
402.21	1481.56
402.40	1643.06
402.59	1481.56
402.78	1469.86
402.97	1652.42
403.17	1584.54
403.36	1582.20
403.55	1554.12
403.74	1645.40
403.93	1577.52
404.13	1685.19
404.32	1593.90
404.51	1685.19
404.70	1619.65
404.89	1654.76
405.09	1804.55
405.28	1732.00
405.47	1809.23
405.66	1727.32
405.85	1893.49
406.05	1757.74
406.24	1832.64
406.43	1722.63
406.62	1959.03
406.81	1884.13
407.00	1790.51
407.20	1851.36
407.39	1755.40
407.58	1940.30
407.77	1921.58
407.96	1895.83
408.15	1919.24
408.34	1975.41
408.54	1959.03
408.73	2073.71
408.92	2066.69
409.11	2054.99
409.30	1987.11
409.49	2017.54
409.68	1982.43
409.87	2029.24
410.07	2054.99
410.26	2120.53
410.45	2136.91
410.64	2143.93
410.83	2260.96
411.02	2277.34
411.21	2277.34
411.40	2284.36
411.59	2338.20
411.78	2256.28
411.98	2396.71
412.17	2354.58
412.36	2375.64
412.55	2399.05
412.74	2399.05
412.93	2490.33
413.12	2314.79
413.31	2511.39
413.50	2588.63
413.69	2485.65
413.88	2619.06
414.07	2541.82
414.26	2612.04
414.45	2619.06
414.64	2722.04
414.83	2628.42
415.02	2799.28
415.22	2818.00
415.41	2874.18
415.60	2686.94
415.79	2726.72
415.98	2902.26
416.17	2913.97
416.36	2778.22
416.55	2822.69
416.74	2916.31
416.93	2979.50
417.12	2953.76
417.31	3110.57
417.50	3033.33
417.69	3068.44
417.88	3061.42
418.07	3145.68
418.26	3066.10
418.45	3049.72
418.64	3155.04
418.83	3126.96
419.02	3129.30
419.21	3236.96
419.39	3225.26
419.58	3316.54
419.77	3215.90
419.96	3351.65
420.15	3222.92
420.34	3304.84
420.53	3400.80
420.72	3421.86
420.91	3339.94
421.10	3421.86
421.29	3377.39
421.48	3414.84
421.67	3543.57
421.86	3396.12
422.05	3412.50
422.24	3449.95
422.43	3492.08
422.61	3466.33
422.80	3651.24
422.99	3550.59
423.18	3531.87
423.37	3508.46
423.56	3693.37
423.75	3459.31
423.94	3545.91
424.13	3351.65
424.32	3466.33
424.50	3585.70
424.69	3765.92
424.88	3730.81
425.07	3637.19
425.26	3440.59
425.45	3414.84
425.64	3571.66
425.83	3541.23
426.01	3545.91
426.20	3618.47
426.39	3735.50
426.58	3646.55
426.77	3606.77
426.96	3583.36
427.15	3611.45
427.33	3791.67
427.52	3597.40
427.71	3721.45
427.90	3719.11
428.09	3737.84
428.28	3768.26
428.46	3808.05
428.65	3775.28
428.84	3829.12
429.03	3896.99
429.22	3763.58
429.40	3712.09
429.59	3812.73
429.78	3712.09
429.97	3566.98
430.16	3815.07
430.34	3927.42
430.53	3859.54
430.72	3929.76
430.91	3829.12
431.10	3985.93
431.28	4042.11
431.47	4163.81
431.66	4149.77
431.85	4039.76
432.03	4208.28
432.22	4395.53
432.41	4145.09
432.60	4219.99
432.79	4259.78
432.97	4290.20
433.16	4168.49
433.35	4205.94
433.54	4402.55
433.72	4224.67
433.91	4252.75
434.10	4285.52
434.28	4271.48
434.47	4304.25
434.66	4582.77
434.85	4423.61
435.03	4535.96
435.22	4526.60
435.41	4617.88
435.59	4622.56
435.78	4484.47
435.97	4521.92
436.16	4524.26
436.34	4641.28
436.53	4695.11
436.72	4784.06
436.90	4596.81
437.09	4692.77
437.28	4561.70
437.46	4716.18
437.65	4620.22
437.84	4814.48
438.02	4662.35
438.21	4674.05
438.40	4674.05
438.58	4844.91
438.77	4922.15
438.96	4755.97
439.14	4987.68
439.33	4919.81
439.52	5179.61
439.70	5151.52
439.89	5055.56
440.08	5102.37
440.26	5181.95
440.45	5296.63
440.63	5399.62
440.82	5331.74
441.01	5322.38
441.19	5315.36
441.38	5341.10
441.57	5364.51
441.75	5518.98
441.94	5689.84
442.12	5738.99
442.31	5572.82
442.50	5605.58
442.68	5617.29
442.87	5621.97
443.05	5757.72
443.24	5806.87
443.43	5891.13
443.61	5888.79
443.80	5947.30
443.98	5645.37
444.17	5591.54
444.35	5891.13
444.54	6001.13
444.73	6099.44
444.91	5951.98
445.10	6005.81
445.28	5923.90
445.47	5729.63
445.65	5825.59
445.84	5951.98
446.02	6045.60
446.21	5977.73
446.39	5909.85
446.58	5902.83
446.77	6052.63
446.95	5816.23
447.14	5977.73
447.32	6106.46
447.51	5874.74
447.69	6019.86
447.88	6160.29
448.06	6127.52
448.25	5980.07
448.43	6064.33
448.62	6026.88
448.80	6010.50
448.99	6001.13
449.17	6171.99
449.36	6155.61
449.54	6176.67
449.73	6356.90
449.91	6321.79
450.10	6197.74
450.28	6462.22
450.46	6422.43
450.65	6494.99
450.83	6604.99
451.02	6293.70
451.20	6394.34
451.39	6434.13
451.57	6630.74
451.76	6368.60
451.94	6588.61
452.13	6427.11
452.31	6558.18
452.49	6427.11
452.68	6651.80
452.86	6483.28
453.05	6490.31
453.23	6665.85
453.42	6590.95
453.60	6494.99
453.78	6736.06
453.97	6595.63
454.15	6539.46
454.34	6684.57
454.52	6729.04
454.70	6616.69
454.89	6754.79
455.07	6881.18
455.26	6913.94
455.44	6991.18
455.62	6792.23
455.81	7040.33
455.99	7119.91
456.17	7073.10
456.36	6958.41
456.54	7246.30
456.73	7227.57
456.91	7360.98
457.09	7241.62
457.28	7314.17
457.46	7218.21
457.64	7328.22
457.83	7265.02
458.01	7241.62
458.19	7564.61
458.38	7368.01
458.56	7541.21
458.74	7421.84
458.93	7459.29
459.11	7602.06
459.29	7590.36
459.48	7435.88
459.66	7346.94
459.84	7726.11
460.03	7824.41
460.21	7632.49
460.39	7850.16
460.57	7950.80
460.76	7765.90
460.94	7880.58
461.12	7861.86
461.31	7819.73
461.49	7833.77
461.67	7674.62
461.85	7967.18
462.04	7845.48
462.22	8346.35
462.40	7887.61
462.59	8119.32
462.77	7875.90
462.95	8154.43
463.13	8030.38
463.32	8004.63
463.50	8131.02
463.68	8067.83
463.86	8402.52
464.05	8149.75
464.23	8163.79
464.41	8131.02
464.59	8011.65
464.78	8301.88
464.96	8299.54
465.14	8086.55
465.32	8503.17
465.50	8446.99
465.69	8264.43
465.87	8313.58
466.05	8425.93
466.23	8341.67
466.41	8374.44
466.60	8667.00
466.78	8222.30
466.96	8262.09
467.14	8428.27
467.32	8425.93
467.51	8739.56
467.69	8351.03
467.87	8617.85
468.05	8634.24
468.23	8594.45
468.41	8636.58
468.60	8704.45
468.78	8819.14
468.96	8650.62
469.14	8769.99
469.32	8767.65
469.50	8795.73
469.69	8929.14
469.87	9191.28
470.05	8980.64
470.23	8994.68
470.41	8889.35
470.59	9153.84
470.77	9062.55
470.95	9100.00
471.14	9076.60
471.32	9048.51
471.50	9343.42
471.68	9254.48
471.86	9350.44
472.04	9582.15
472.22	9708.54
472.40	9331.72
472.58	9465.13
472.77	9404.27
472.95	9497.89
473.13	9851.31
473.31	9525.98
473.49	9488.53
473.67	9593.86
473.85	9764.72
474.03	9678.12
474.21	9848.97
474.39	9858.34
474.57	10120.48
474.75	10125.16
474.93	10085.37
475.12	10171.97
475.30	10382.62
475.48	10111.11
475.66	10270.27
475.84	10312.40
476.02	10324.10
476.20	10501.98
476.38	10602.63
476.56	10724.33
476.74	10679.86
476.92	10609.65
477.10	10745.40
477.28	10967.75
477.46	10911.58
477.64	11014.56
477.82	11295.43
478.00	11389.05
478.18	11475.65
478.36	11335.21
478.54	11639.48
478.72	11630.12
478.90	11819.71
479.08	11651.19
479.26	11831.41
479.44	12049.08
479.62	12159.08
479.80	12121.63
479.98	12269.09
480.16	12369.73
480.34	12369.73
480.52	12608.47
480.70	12306.54
480.88	12142.70
481.06	12533.57
481.24	12491.44
481.41	12762.94
481.59	12943.16
481.77	13130.41
481.95	13011.04
482.13	13425.31
482.31	13153.81
482.49	13371.48
482.67	13542.34
482.85	13834.91
483.03	13769.37
483.21	13905.12
483.39	14413.02
483.57	14057.26
483.74	14464.51
483.92	14246.84
484.10	14246.84
484.28	14281.95
484.46	14780.48
484.64	15098.80
484.82	14647.07
485.00	14824.95
485.18	15185.40
485.35	15234.55
485.53	15199.44
485.71	15063.69
485.89	15419.45
486.07	15435.83
486.25	15442.85
486.43	15672.23
486.61	15482.64
486.78	15971.82
486.96	16088.84
487.14	16418.86
487.32	16343.96
487.50	16446.94
487.68	16601.42
487.85	16847.18
488.03	17011.01
488.21	17247.41
488.39	17429.97
488.57	17172.51
488.75	17137.40
488.92	17486.14
489.10	17448.69
489.28	17694.45
489.46	18389.59
489.64	18169.58
489.81	18214.05
489.99	18328.74
490.17	18616.62
490.35	18899.83
490.53	18595.56
490.70	18782.80
490.88	18670.45
491.06	19080.05
491.24	19133.88
491.41	19396.02
491.59	19295.38
491.77	19477.94
491.95	19403.04
492.13	20004.56
492.30	19709.65
492.48	19812.63
492.66	19978.81
492.84	20006.90
493.01	20629.48
493.19	20159.03
493.37	20680.97
493.54	20617.78
493.72	20783.96
493.90	20821.41
494.08	20957.16
494.25	21221.64
494.43	21336.32
494.61	21390.16
494.79	21680.38
494.96	21565.70
495.14	21645.27
495.32	21715.49
495.49	21986.99
495.67	21923.80
495.85	22415.31
496.02	22672.77
496.20	22696.17
496.38	22492.55
496.55	22656.39
496.73	22998.10
496.91	22721.92
497.09	22906.82
497.26	22993.42
497.44	23037.89
497.62	23377.27
497.79	23438.12
497.97	23714.31
498.14	23515.36
498.32	23974.11
498.50	23707.29
498.67	24020.92
498.85	23868.78
499.03	24273.70
499.20	24095.82
499.38	24229.23
499.56	24269.01
499.73	24629.46
499.91	24381.36
500.08	24556.90
500.26	24559.24
500.44	25233.32
500.61	25053.09
500.79	24664.57
500.97	25312.89
501.14	25338.64
501.32	25090.54
501.49	25170.12
501.67	25188.85
501.84	25355.02
502.02	25315.23
502.20	25881.64
502.37	25916.75
502.55	25907.39
502.72	25816.11
502.90	25855.90
503.07	25989.31
503.25	25937.82
503.43	26342.73
503.60	26185.91
503.78	26389.54
503.95	26129.74
504.13	26293.58
504.30	26366.13
504.48	26094.63
504.65	27030.85
504.83	26909.14
505.01	26864.67
505.18	27372.57
505.36	27199.37
505.53	26848.29
505.71	27473.21
505.88	27667.47
506.06	27360.86
506.23	27576.19
506.41	27173.62
506.58	27721.30
506.76	27814.93
506.93	28308.78
507.11	27835.99
507.28	28016.21
507.46	27990.47
507.63	28048.98
507.81	28577.94
507.98	28027.92
508.16	28453.89
508.33	28231.54
508.50	28788.59
508.68	28938.38
508.85	28868.17
509.03	28875.19
509.20	28814.34
509.38	29181.80
509.55	29151.37
509.73	29263.72
509.90	29230.95
510.08	29670.97
510.25	29200.52
510.42	29317.55
510.60	29886.30
510.77	29628.84
510.95	29956.52
511.12	29940.13
511.30	30141.42
511.47	30361.43
511.64	30391.86
511.82	30288.87
511.99	29993.97
512.17	30405.90
512.34	30169.51
512.51	30438.67
512.69	30810.81
512.86	30529.95
513.04	31131.47
513.21	30675.06
513.38	30450.37
513.56	30707.83
513.73	30593.14
513.90	31094.02
514.08	30979.33
514.25	31122.10
514.43	31194.66
514.60	31173.60
514.77	31129.12
514.95	31424.03
515.12	31564.46
515.29	31524.68
515.47	31969.38
515.64	31964.70
515.81	31491.91
515.99	31880.44
516.16	31669.79
516.33	31833.63
516.51	32257.26
516.68	31536.38
516.85	31512.97
517.03	31945.97
517.20	31974.06
517.37	32217.47
517.54	32423.44
517.72	32161.30
517.89	32039.59
518.06	32212.79
518.24	32652.81
518.41	32210.45
518.58	32659.84
518.75	32697.28
518.93	33001.55
519.10	32989.85
519.27	32811.97
519.45	33055.39
519.62	33385.40
519.79	33060.07
519.96	33350.29
520.14	33333.91
520.31	33223.90
520.48	33528.17
520.65	33422.85
520.83	33993.94
521.00	33862.87
521.17	33268.37
521.34	33558.60
521.52	34050.11
521.69	33965.85
521.86	34359.06
522.03	34188.21
522.20	34073.52
522.38	34600.14
522.55	34581.42
522.72	34373.11
522.89	33958.83
523.07	34548.65
523.24	34668.02
523.41	34628.23
523.58	34712.49
523.75	35115.06
523.92	35164.21
524.10	35234.42
524.27	35306.98
524.44	35325.71
524.61	35157.19
524.78	35501.25
524.96	35475.50
525.13	35379.54
525.30	35442.73
525.47	35821.90
525.64	35562.10
525.81	36009.14
525.98	35824.24
526.16	35695.51
526.33	35592.53
526.50	35335.07
526.67	35744.66
526.84	35693.17
527.01	35601.89
527.18	35566.78
527.36	35974.03
527.53	36020.84
527.70	36439.80
527.87	36685.56
528.04	36273.62
528.21	36428.10
528.38	36128.51
528.55	36353.20
528.72	36374.27
528.89	36622.36
529.07	36524.06
529.24	36226.81
529.41	36938.33
529.58	36411.71
529.75	36659.81
529.92	36943.02
530.09	36844.71
530.26	37088.13
530.43	37207.50
530.60	36627.04
530.77	37390.06
530.94	37366.65
531.11	36980.46
531.28	37373.67
531.46	37282.39
531.63	37516.45
531.80	37649.86
531.97	37757.52
532.14	37631.13
532.31	37308.14
532.48	37670.92
532.65	37851.14
532.82	37209.84
532.99	38059.45
533.16	37603.05
533.33	38220.95
533.50	38082.86
533.67	37701.35
533.84	37809.01
534.01	38209.25
534.18	37923.70
534.35	38153.07
534.52	38204.56
534.69	38132.01
534.86	38342.66
535.03	38061.79
535.20	38515.86
535.37	38670.33
535.54	39119.71
535.71	38424.57
535.88	38806.08
536.05	38384.79
536.22	38710.12
536.38	38892.68
536.55	38618.84
536.72	38747.57
536.89	38415.21
537.06	38312.23
537.23	38752.25
537.40	38548.62
537.57	38813.10
537.74	38820.13
537.91	39524.63
538.08	39405.26
538.25	38696.08
538.42	39086.95
538.59	39599.52
538.75	38426.92
538.92	39173.55
539.09	39550.37
539.26	39398.24
539.43	39648.68
539.60	39262.49
539.77	39704.85
539.94	39402.92
540.11	39725.91
540.28	39688.46
540.44	39419.30
540.61	39934.22
540.78	39578.46
540.95	39484.84
541.12	39171.21
541.29	39924.86
541.46	39468.45
541.62	39931.88
541.79	40156.57
541.96	39562.08
542.13	40147.21
542.30	40112.10
542.47	40119.12
542.63	40060.61
542.80	40409.35
542.97	40605.95
543.14	40935.97
543.31	40521.69
543.48	40762.77
543.64	41085.76
543.81	40933.63
543.98	41027.25
544.15	40603.61
544.32	41359.61
544.48	41361.95
544.65	40982.78
544.82	41401.74
544.99	40355.52
545.16	41006.19
545.32	40830.65
545.49	41001.50
545.66	41425.14
545.83	41268.33
546.00	41790.27
546.16	40987.46
546.33	41134.92
546.50	40924.27
546.67	41560.89
546.83	40828.30
547.00	41240.24
547.17	41378.33
547.34	41319.82
547.50	41029.59
547.67	41596.00
547.84	41624.09
548.00	41457.91
548.17	41893.25
548.34	41294.07
548.51	41574.94
548.67	41752.82
548.84	42312.20
549.01	41914.31
549.18	41581.96
549.34	41617.07
549.51	42291.14
549.68	42106.24
549.84	42241.99
550.01	41930.70
550.18	42174.11
550.34	42218.58
550.51	41853.46
550.68	42513.49
550.84	41521.10
551.01	42003.25
551.18	42354.33
551.34	42234.97
551.51	42220.92
551.68	42347.31
551.84	42506.47
552.01	42108.58
552.18	42447.96
552.34	42387.10
552.51	42632.86
552.68	42120.28
552.84	42211.56
553.01	42686.69
553.18	42422.21
553.34	42499.45
553.51	42014.96
553.67	42572.00
553.84	42773.29
554.01	42838.83
554.17	43295.23
554.34	43068.20
554.51	42721.80
554.67	43159.48
554.84	43091.60
555.00	43028.41
555.17	43154.80
555.33	42979.26
555.50	42602.43
555.67	42969.90
555.83	43072.88
556.00	42829.46
556.16	43323.32
556.33	43119.69
556.50	43213.31
556.66	43241.40
556.83	42789.67
556.99	43206.29
557.16	43192.25
557.32	43838.23
557.49	43269.48
557.65	43295.23
557.82	43494.18
557.98	43393.53
558.15	43543.33
558.32	43805.47
558.48	43175.86
558.65	43756.32
558.81	43103.31
558.98	43660.35
559.14	43229.69
559.31	43641.63
559.47	43349.06
559.64	44053.56
559.80	44039.52
559.97	43793.76
560.13	43199.27
560.30	43552.69
560.46	43248.42
560.63	43557.37
560.79	43775.04
560.96	43973.98
561.12	43491.83
561.29	43768.02
561.45	43634.61
561.61	44055.90
561.78	43524.60
561.94	43819.51
562.11	43632.27
562.27	43739.93
562.44	43805.47
562.60	43964.62
562.77	43934.20
562.93	43992.71
563.10	44114.42
563.26	43384.17
563.42	44362.51
563.59	44224.42
563.75	43672.06
563.92	44023.14
564.08	43782.06
564.24	44079.31
564.41	43763.34
564.57	44189.31
564.74	43686.10
564.90	44126.12
565.07	44165.91
565.23	43922.49
565.39	43545.67
565.56	44058.24
565.72	43908.45
565.88	44222.08
566.05	44083.99
566.21	44095.69
566.38	44261.87
566.54	44271.23
566.70	44191.65
566.87	44594.23
567.03	44451.45
567.19	44332.09
567.36	44409.32
567.52	44041.86
567.68	44414.01
567.85	44133.14
568.01	44329.75
568.17	44065.27
568.34	44006.75
568.50	44191.65
568.66	44509.97
568.83	44362.51
568.99	44032.50
569.15	44500.61
569.32	44430.39
569.48	44301.66
569.64	44556.78
569.81	44470.18
569.97	44444.43
570.13	44390.60
570.30	44362.51
570.46	44168.25
570.62	43899.09
570.78	44332.09
570.95	44133.14
571.11	44341.45
571.27	44566.14
571.43	44409.32
571.60	44467.84
571.76	44147.18
571.92	44048.88
572.09	44596.57
572.25	44238.47
572.41	44552.10
572.57	44612.95
572.74	44779.13
572.90	44446.77
573.06	44783.81
573.22	44980.42
573.38	44531.03
573.55	44832.96
573.71	44554.44
573.87	44802.53
574.03	44575.50
574.20	44086.33
574.36	44921.90
574.52	44905.52
574.68	44999.14
574.84	45041.27
575.01	44334.43
575.17	44203.36
575.33	44809.56
575.49	44575.50
575.65	44886.79
575.82	44854.03
575.98	45052.97
576.14	44807.22
576.30	44949.99
576.46	44151.87
576.62	44524.01
576.79	44451.45
576.95	44217.40
577.11	44414.01
577.27	44732.32
577.43	44980.42
577.59	44268.89
577.75	44886.79
577.92	44421.03
578.08	44301.66
578.24	44526.35
578.40	44432.73
578.56	44769.77
578.72	44692.53
578.88	44732.32
579.04	44594.23
579.21	44268.89
579.37	44584.86
579.53	44563.80
579.69	44495.92
579.85	44381.24
580.01	44959.35
580.17	44481.88
580.33	44900.84
580.49	44926.58
580.65	44552.10
580.82	44835.30
580.98	44374.22
581.14	44608.27
581.30	44357.83
581.46	44856.37
581.62	44811.90
581.78	44769.77
581.94	44727.64
582.10	45198.09
582.26	44964.03
582.42	44779.13
582.58	44552.10
582.74	44795.51
582.90	45085.74
583.06	45242.56
583.22	44699.55
583.38	45006.16
583.54	44793.17
583.70	44975.73
583.86	44411.67
584.02	44687.85
584.18	45134.89
584.34	44767.43
584.50	44900.84
584.66	44917.22
584.82	44626.99
584.98	45317.45
585.14	44744.02
585.30	45059.99
585.46	44769.77
585.62	44474.86
585.78	44713.59
585.94	44268.89
586.10	44959.35
586.26	44926.58
586.42	44957.01
586.58	45013.18
586.74	44982.76
586.90	44964.03
587.06	44587.21
587.22	45069.36
587.38	44488.90
587.54	45537.46
587.70	45333.84
587.86	45055.31
588.02	45064.67
588.18	45200.43
588.34	45104.46
588.49	44484.22
588.65	44222.08
588.81	44495.92
588.97	44671.46
589.13	44804.88
589.29	44664.44
589.45	44814.24
589.61	44692.53
589.77	45085.74
589.93	44973.39
590.08	45184.04
590.24	45289.37
590.40	45691.94
590.56	45291.71
590.72	44622.31
590.88	44767.43
591.04	44961.69
591.20	45350.22
591.35	45315.11
591.51	45563.21
591.67	44973.39
591.83	45455.54
591.99	44865.73
592.15	44744.02
592.31	45008.50
592.46	44987.44
592.62	45146.59
592.78	45045.95
592.94	45280.00
593.10	45162.98
593.26	45057.65
593.41	44779.13
593.57	45181.70
593.73	45125.53
593.89	45106.80
594.05	45207.45
594.20	44938.29
594.36	45280.00
594.52	45392.35
594.68	44886.79
594.84	45350.22
594.99	45942.38
595.15	45392.35
595.31	45563.21
595.47	45251.92
595.62	45179.36
595.78	45294.05
595.94	45546.82
596.10	44938.29
596.25	45441.50
596.41	45504.70
596.57	45008.50
596.73	45364.26
596.88	44910.20
597.04	45640.45
597.20	44914.88
597.36	45265.96
597.51	45345.54
597.67	45375.97
597.83	45345.54
597.99	45567.89
598.14	45221.49
598.30	45621.72
598.46	45464.91
598.61	45230.85
598.77	45071.70
598.93	45691.94
599.09	45179.36
599.24	45504.70
599.40	45181.70
599.56	45691.94
599.71	45270.64
599.87	45495.33
600.03	45177.02
600.18	45471.93
600.34	45368.94
600.50	45251.92
600.65	45165.32
600.81	45579.59
600.97	46120.26
601.12	45879.18
601.28	45172.34
601.44	45272.98
601.59	45631.08
601.75	44924.24
601.91	45031.91
602.06	44938.29
602.22	45134.89
602.37	45514.06
602.53	45280.00
602.69	45464.91
602.84	45034.25
603.00	45172.34
603.16	45642.79
603.31	45198.09
603.47	45144.25
603.62	45029.57
603.78	45483.63
603.94	45345.54
604.09	45514.06
604.25	45455.54
604.40	45535.12
604.56	45207.45
604.71	45209.79
604.87	45165.32
605.03	45268.30
605.18	45359.58
605.34	45530.44
605.49	44737.00
605.65	45219.15
605.80	45492.99
605.96	45715.34
606.12	45146.59
606.27	45640.45
606.43	45294.05
606.58	44912.54
606.74	44999.14
606.89	45216.81
607.05	44734.66
607.20	45219.15
607.36	45055.31
607.51	45193.40
607.67	45244.90
607.82	45233.19
607.98	44987.44
608.13	44947.65
608.29	45034.25
608.44	44641.04
608.60	44355.49
608.75	44711.25
608.91	44800.19
609.06	44744.02
609.22	45272.98
609.37	44762.75
609.53	45188.72
609.68	44816.58
609.84	44648.06
609.99	44748.70
610.15	44781.47
610.30	44320.38
610.46	44467.84
610.61	44238.47
610.76	44685.51
610.92	44870.41
611.07	44720.62
611.23	44783.81
611.38	44584.86
611.54	44823.60
611.69	44786.15
611.84	44601.25
612.00	44638.70
612.15	44676.15
612.31	44828.28
612.46	44587.21
612.62	44769.77
612.77	44500.61
612.92	44388.26
613.08	44390.60
613.23	44891.48
613.39	44451.45
613.54	43758.66
613.69	44549.76
613.85	44292.30
614.00	44367.20
614.15	44430.39
614.31	44369.54
614.46	44729.98
614.62	44229.10
614.77	44203.36
614.92	44542.74
615.08	44598.91
615.23	44112.08
615.38	44058.24
615.54	43697.80
615.69	43756.32
615.84	44294.64
616.00	44184.63
616.15	44076.97
616.30	44116.76
616.46	43786.74
616.61	43342.04
616.76	43749.29
616.92	43962.28
617.07	43466.09
617.22	43805.47
617.37	43826.53
617.53	43955.26
617.68	44067.61
617.83	44404.64
617.99	44226.76
618.14	43955.26
618.29	43730.57
618.45	43419.28
618.60	43835.89
618.75	44023.14
618.90	43372.47
619.06	44062.93
619.21	43859.30
619.36	43665.03
619.51	43129.05
619.67	43494.18
619.82	43372.47
619.97	43782.06
620.12	43648.65
620.28	43477.79
620.43	43419.28
620.58	43529.28
620.73	43882.70
620.89	43655.67
621.04	43632.27
621.19	43203.95
621.34	43030.75
621.49	43339.70
621.65	43587.80
621.80	43313.95
621.95	43112.67
622.10	43140.75
622.25	43751.63
622.41	42885.64
622.56	42972.24
622.71	43213.31
622.86	43409.92
623.01	43253.10
623.16	43093.94
623.32	43309.27
623.47	43077.56
623.62	43093.94
623.77	42703.07
623.92	43297.57
624.07	42660.94
624.23	42637.54
624.38	42649.24
624.53	42382.42
624.68	42859.89
624.83	42588.39
624.98	42625.84
625.13	42431.57
625.29	42909.04
625.44	42663.28
625.59	42415.19
625.74	42497.11
625.89	42452.64
626.04	41883.89
626.19	42316.89
626.34	42349.65
626.49	42253.69
626.65	42567.32
626.80	42618.81
626.95	42307.52
627.10	42038.36
627.25	41989.21
627.40	41904.95
627.55	42216.24
627.70	41654.51
627.85	41879.21
628.00	42246.67
628.15	42373.06
628.30	42085.17
628.45	42529.87
628.60	41808.99
628.76	42307.52
628.91	42178.79
629.06	41897.93
629.21	42171.77
629.36	41769.20
629.51	41387.69
629.66	41787.92
629.81	41116.19
629.96	41785.58
630.11	41794.95
630.26	41106.83
630.41	41333.86
630.56	41560.89
630.71	41708.35
630.86	41748.14
631.01	42169.43
631.16	41560.89
631.31	41380.67
631.46	41289.39
631.61	41867.50
631.76	41832.39
631.91	41890.91
632.06	41755.16
632.21	42153.05
632.36	41703.67
632.51	41230.88
632.66	41254.28
632.81	41050.66
632.96	41134.92
633.10	40891.50
633.25	40917.25
633.40	41294.07
633.55	41186.41
633.70	41078.74
633.85	40835.33
634.00	40959.38
634.15	40868.09
634.30	40797.88
634.45	41050.66
634.60	41022.57
634.75	41273.01
634.90	41053.00
635.05	41038.95
635.19	40884.48
635.34	41106.83
635.49	41247.26
635.64	40966.40
635.79	40788.52
635.94	40505.31
636.09	40755.75
636.24	40650.42
636.39	40416.37
636.53	40432.75
636.68	40210.40
636.83	40147.21
636.98	40507.65
637.13	40076.99
637.28	40952.35
637.43	40910.22
637.57	40676.17
637.72	40547.44
637.87	40891.50
638.02	40418.71
638.17	40451.48
638.32	40282.96
638.46	40268.92
638.61	40149.55
638.76	40252.53
638.91	40023.16
639.06	39903.79
639.20	40161.25
639.35	40360.20
639.50	39901.45
639.65	40818.94
639.80	40411.69
639.94	40215.08
640.09	40395.31
640.24	40032.52
640.39	39966.99
640.54	40107.42
640.68	39892.09
640.83	39814.85
640.98	39981.03
641.13	40053.59
641.27	40194.02
641.42	40074.65
641.57	39906.13
641.72	39782.09
641.86	39632.29
642.01	39599.52
642.16	39384.19
642.31	39367.81
642.45	39730.59
642.60	39555.05
642.75	39412.28
642.90	39232.06
643.04	39452.07
643.19	39323.34
643.34	39700.17
643.48	39040.14
643.63	39903.79
643.78	39147.80
643.93	39313.98
644.07	39171.21
644.22	38960.56
644.37	38951.20
644.51	39175.89
644.66	39072.90
644.81	39569.10
644.95	39292.91
645.10	39246.10
645.25	39384.19
645.39	39641.65
645.54	39744.64
645.69	39351.43
645.83	39168.87
645.98	38841.19
646.13	38789.70
646.27	39040.14
646.42	39503.56
646.57	39178.23
646.71	39068.22
646.86	39365.47
647.00	38700.76
647.15	39023.75
647.30	39187.59
647.44	38541.60
647.59	39079.92
647.74	38848.21
647.88	38796.72
648.03	38969.92
648.17	39009.71
648.32	38284.14
648.47	38888.00
648.61	38595.43
648.76	38775.66
648.90	38672.67
649.05	38712.46
649.20	38780.34
649.34	38841.19
649.49	38583.73
649.63	38841.19
649.78	38419.89
649.92	38693.74
650.07	38431.60
650.21	38272.44
650.36	38712.46
650.51	38300.53
650.65	38930.13
650.80	38616.50
650.94	38586.07
651.09	38426.92
651.23	38579.05
651.38	38197.54
651.52	37958.81
651.67	37954.13
651.81	38080.52
651.96	38520.54
652.10	38408.19
652.25	38143.71
652.39	37668.58
652.54	37886.25
652.68	38040.73
652.83	38096.90
652.97	38373.08
653.12	38216.27
653.26	37713.05
653.41	37951.79
653.55	37830.08
653.70	37546.87
653.84	37933.06
653.99	37790.29
654.13	37961.15
654.27	37656.88
654.42	37579.64
654.56	37336.23
654.71	38171.80
654.85	37951.79
655.00	37546.87
655.14	36818.97
655.29	37125.58
655.43	37432.19
655.57	37223.88
655.72	37188.77
655.86	37242.60
656.01	37188.77
656.15	37006.21
656.30	36968.76
656.44	37357.29
656.58	37205.16
656.73	36966.42
656.87	36999.19
657.01	36856.42
657.16	36746.41
657.30	36926.63
657.45	36627.04
657.59	36746.41
657.73	36933.65
657.88	37127.92
658.02	36926.63
658.16	36510.02
658.31	37214.52
658.45	36926.63
658.60	36776.84
658.74	36818.97
658.88	36418.74
659.03	36271.28
659.17	36451.50
659.31	36708.96
659.46	36105.10
659.60	36149.57
659.74	35917.86
659.89	36428.10
660.03	36495.97
660.17	36524.06
660.32	36374.27
660.46	36945.36
660.60	36271.28
660.74	36400.01
660.89	36126.17
661.03	36226.81
661.17	35962.33
661.32	35515.29
661.46	35782.11
661.60	35508.27
661.74	36060.63
661.89	35730.62
662.03	35840.62
662.17	35220.38
662.31	35789.13
662.46	35903.82
662.60	35641.68
662.74	35477.84
662.88	36041.91
663.03	35232.08
663.17	35803.17
663.31	35274.21
663.45	35274.21
663.60	35391.24
663.74	35218.04
663.88	34923.13
664.02	34787.38
664.17	35388.90
664.31	35201.66
664.45	34693.76
664.59	34967.60
664.73	34747.59
664.88	34609.50
665.02	34707.80
665.16	34550.99
665.30	34401.19
665.44	34480.77
665.59	34433.96
665.73	34527.58
665.87	34279.49
666.01	34277.15
666.15	34354.38
666.29	34354.38
666.44	34462.05
666.58	34630.57
666.72	34361.40
666.86	34534.60
667.00	34125.01
667.14	34129.69
667.28	33778.61
667.43	33818.40
667.57	33823.08
667.71	33663.93
667.85	33802.02
667.99	33453.28
668.13	33649.88
668.27	33570.30
668.41	33858.19
668.56	33394.76
668.70	33476.68
668.84	33287.10
668.98	33195.82
669.12	33406.47
669.26	33207.52
669.40	32872.82
669.54	33291.78
669.68	33118.58
669.82	33483.70
669.96	32893.89
670.10	32191.73
670.25	33036.66
670.39	32826.01
670.53	32432.80
670.67	32795.59
670.81	32666.86
670.95	33020.28
671.09	32921.98
671.23	32299.39
671.37	32751.12
671.51	32184.71
671.65	32229.18
671.79	32348.54
671.93	32437.48
672.07	32210.45
672.21	32652.81
672.35	31845.33
672.49	32072.36
672.63	32051.30
672.77	31943.63
672.91	32191.73
673.05	31459.14
673.19	31253.17
673.33	31379.56
673.47	31578.51
673.61	31461.48
673.75	31571.49
673.89	30944.22
674.03	30909.11
674.17	30843.58
674.31	31393.61
674.45	31154.87
674.59	30948.90
674.73	30941.88
674.87	31222.75
675.01	31105.72
675.15	30717.19
675.29	30965.29
675.43	30520.59
675.56	30703.15
675.70	30693.79
675.84	30424.62
675.98	29472.03
676.12	30223.34
676.26	30066.52
676.40	29914.39
676.54	30057.16
676.68	30295.89
676.82	29474.37
676.96	29617.14
677.10	29605.44
677.23	29390.11
677.37	29628.84
677.51	29233.29
677.65	29240.31
677.79	28795.61
677.93	29308.19
678.07	28865.83
678.21	28355.59
678.34	28519.43
678.48	28442.19
678.62	28987.53
678.76	28350.91
678.90	28320.48
679.04	28407.08
679.18	28643.48
679.31	27960.04
679.45	28102.81
679.59	28081.75
679.73	27978.76
679.87	27978.76
680.00	27990.47
680.14	27585.55
680.28	27477.89
680.42	27321.07
680.56	27641.73
680.70	27304.69
680.83	27356.18
680.97	27143.19
681.11	27215.75
681.25	26939.57
681.39	27108.08
681.52	26984.04
681.66	26733.60
681.80	26735.94
681.94	26876.37
682.07	26183.57
682.21	26300.60
682.35	26359.11
682.49	26384.86
682.62	26445.71
682.76	25806.75
682.90	25853.56
683.04	26190.59
683.17	26171.87
683.31	25961.22
683.45	25724.83
683.59	25902.71
683.72	25656.95
683.86	25195.87
684.00	25411.20
684.13	25249.70
684.27	25308.21
684.41	25586.74
684.55	24893.94
684.68	24760.53
684.82	24849.47
684.96	24837.76
685.09	24671.59
685.23	24765.21
685.37	24533.50
685.50	24603.71
685.64	24325.19
685.78	24416.47
685.91	24360.30
686.05	24091.13
686.19	23779.84
686.32	24123.90
686.46	23681.54
686.60	23630.05
686.73	23695.58
686.87	23527.06
687.01	23049.60
687.14	23337.48
687.28	23276.63
687.42	22967.68
687.55	23199.39
687.69	22869.37
687.82	22658.73
687.96	22661.07
688.10	22806.18
688.23	22511.27
688.37	22726.60
688.50	22115.72
688.64	22366.16
688.78	22567.45
688.91	22279.56
689.05	22082.95
689.18	22136.79
689.32	21586.76
689.46	22064.23
689.59	22258.49
689.73	22097.00
689.86	21535.27
690.00	21902.73
690.13	21937.84
690.27	21633.57
690.41	21228.66
690.54	20999.29
690.68	21345.69
690.81	21345.69
690.95	21078.86
691.08	20851.83
691.22	20999.29
691.35	20620.12
691.49	21172.49
691.62	20917.37
691.76	20781.62
691.89	20877.58
692.03	20760.55
692.16	20500.75
692.30	20475.01
692.43	20379.04
692.57	20077.12
692.70	20051.37
692.84	20407.13
692.97	20156.69
693.11	19763.48
693.24	19524.75
693.38	19840.72
693.51	19585.60
693.65	19674.54
693.78	19609.01
693.92	19754.12
694.05	19204.10
694.19	18890.46
694.32	19208.78
694.45	19309.42
694.59	18827.27
694.72	18883.44
694.86	19037.92
694.99	18726.63
695.13	18560.45
695.26	18705.56
695.39	18696.20
695.53	18567.47
695.66	18405.97
695.80	18171.92
695.93	18731.31
696.07	18082.98
696.20	18216.39
696.33	18120.43
696.47	18078.30
696.60	17884.03
696.73	17930.84
696.87	17528.27
697.00	17720.20
697.14	17785.73
697.27	17572.74
697.40	17659.34
697.54	17331.67
697.67	17472.10
697.80	17226.34
697.94	17481.46
698.07	16952.50
698.21	17006.33
698.34	16692.70
698.47	16891.65
698.61	16573.33
698.74	16849.52
698.87	16650.57
699.01	16545.25
699.14	16451.63
699.27	16173.10
699.40	16449.28
699.54	15974.16
699.67	16077.14
699.80	16049.05
699.94	16051.39
700.07	16222.25
700.20	15662.86
700.34	15857.13
700.47	15845.43
700.60	15873.51
700.73	15688.61
700.87	15740.10
701.00	15857.13
701.13	15529.45
701.26	15623.08
701.40	15639.46
701.53	15330.51
701.66	15178.37
701.79	15339.87
701.93	15239.23
702.06	14628.35
702.19	14829.63
702.32	15180.71
702.46	14616.65
702.59	15056.67
702.72	14656.43
702.85	14932.62
702.99	14590.90
703.12	14934.96
703.25	14548.77
703.38	14441.11
703.51	14363.87
703.65	14602.60
703.78	14267.91
703.91	14036.19
704.04	14129.81
704.17	14127.47
704.31	13769.37
704.44	13720.22
704.57	13619.58
704.70	13474.46
704.83	13530.64
704.96	13671.07
705.10	13720.22
705.23	13961.30
>>>>>End Processed Spectral Data<<<<<
